,subjID,experimentName,versionName,sequenceName,url,selected_row,windowWidth,windowHeight,screenWidth,screenHeight,startDate,startTime,trial,stimulus_0,stimulus_1,duration,actual_depth_0,actual_depth_1,discrim_choice,trial_RT,log_fixation,log_sceneDuration1,log_mask1,log_sceneDuration2,log_mask2,experimentTime,totalTime,age,gender
0,133571,DepthScenes,v2_duration_discrimination,discrim_jsons/Discrim250_randls_0.json,http://54.235.29.9/FacialAge/BNav_EC2/DepthDuration/v2_depth_discrimination_MTurk/v2_DepthDiscrim_HTML.html#204,204,1366,768,1366,768,9-17-2022,11-49-0,1,depth_discrimination_stimuli/001133_2014-06-17_14-49-16_260595134347_rgbf000100-resize_0/001133_2014-06-17_14-49-16_260595134347_rgbf000100-resize_0-target.png,depth_discrimination_stimuli/001132_2014-06-17_14-48-54_260595134347_rgbf000100-resize_2/001132_2014-06-17_14-48-54_260595134347_rgbf000100-resize_2-target.png,250.0,4.2115,3.753,1.0,2657,1001,259,1000,239,509,,757433,32,Man
1,133571,DepthScenes,v2_duration_discrimination,discrim_jsons/Discrim250_randls_0.json,http://54.235.29.9/FacialAge/BNav_EC2/DepthDuration/v2_depth_discrimination_MTurk/v2_DepthDiscrim_HTML.html#204,204,1366,768,1366,768,9-17-2022,11-49-0,2,depth_discrimination_stimuli/003070_2014-06-15_14-58-27_094959634447_rgbf000150-resize_3/003070_2014-06-15_14-58-27_094959634447_rgbf000150-resize_3-target.png,depth_discrimination_stimuli/000943_2014-06-09_19-31-07_260595134347_rgbf000128-resize_1/000943_2014-06-09_19-31-07_260595134347_rgbf000128-resize_1-target.png,250.0,2.9415,1.9765,0.0,2354,1013,249,1000,239,500,,757433,32,Man
2,133571,DepthScenes,v2_duration_discrimination,discrim_jsons/Discrim250_randls_0.json,http://54.235.29.9/FacialAge/BNav_EC2/DepthDuration/v2_depth_discrimination_MTurk/v2_DepthDiscrim_HTML.html#204,204,1366,768,1366,768,9-17-2022,11-49-0,3,depth_discrimination_stimuli/002964_2014-06-08_17-46-11_094959634447_rgbf000091-resize_4/002964_2014-06-08_17-46-11_094959634447_rgbf000091-resize_4-target.png,depth_discrimination_stimuli/002136_2014-06-25_21-18-03_260595134347_rgbf000109-resize_3/002136_2014-06-25_21-18-03_260595134347_rgbf000109-resize_3-target.png,250.0,1.6909999999999998,1.9569999999999999,0.0,1797,1003,251,1000,250,498,,757433,32,Man
3,133571,DepthScenes,v2_duration_discrimination,discrim_jsons/Discrim250_randls_0.json,http://54.235.29.9/FacialAge/BNav_EC2/DepthDuration/v2_depth_discrimination_MTurk/v2_DepthDiscrim_HTML.html#204,204,1366,768,1366,768,9-17-2022,11-49-0,4,depth_discrimination_stimuli/000917_2014-06-09_22-45-29_260595134347_rgbf000149-resize_3/000917_2014-06-09_22-45-29_260595134347_rgbf000149-resize_3-target.png,depth_discrimination_stimuli/002323_2014-06-28_20-01-54_260595134347_rgbf000051-resize_4/002323_2014-06-28_20-01-54_260595134347_rgbf000051-resize_4-target.png,250.0,4.1865,3.7310000000000003,1.0,3515,1016,249,1000,250,514,,757433,32,Man
4,133571,DepthScenes,v2_duration_discrimination,discrim_jsons/Discrim250_randls_0.json,http://54.235.29.9/FacialAge/BNav_EC2/DepthDuration/v2_depth_discrimination_MTurk/v2_DepthDiscrim_HTML.html#204,204,1366,768,1366,768,9-17-2022,11-49-0,5,depth_discrimination_stimuli/002570_2014-06-24_13-59-54_094959634447_rgbf000059-resize_0/002570_2014-06-24_13-59-54_094959634447_rgbf000059-resize_0-target.png,depth_discrimination_stimuli/002467_2014-06-28_20-38-07_260595134347_rgbf000026-resize_2/002467_2014-06-28_20-38-07_260595134347_rgbf000026-resize_2-target.png,250.0,4.037,4.742,0.0,6781,1016,248,1000,248,500,,757433,32,Man
5,133571,DepthScenes,v2_duration_discrimination,discrim_jsons/Discrim250_randls_0.json,http://54.235.29.9/FacialAge/BNav_EC2/DepthDuration/v2_depth_discrimination_MTurk/v2_DepthDiscrim_HTML.html#204,204,1366,768,1366,768,9-17-2022,11-49-0,6,depth_discrimination_stimuli/001449_2014-06-19_17-01-27_260595134347_rgbf000116-resize_2/001449_2014-06-19_17-01-27_260595134347_rgbf000116-resize_2-target.png,depth_discrimination_stimuli/001450_2014-06-19_17-02-03_260595134347_rgbf000203-resize_4/001450_2014-06-19_17-02-03_260595134347_rgbf000203-resize_4-target.png,250.0,3.452,4.0106666666667,0.0,2453,1016,249,1000,272,477,,757433,32,Man
6,133571,DepthScenes,v2_duration_discrimination,discrim_jsons/Discrim250_randls_0.json,http://54.235.29.9/FacialAge/BNav_EC2/DepthDuration/v2_depth_discrimination_MTurk/v2_DepthDiscrim_HTML.html#204,204,1366,768,1366,768,9-17-2022,11-49-0,7,depth_discrimination_stimuli/000569_2014-06-09_22-51-47_260595134347_rgbf000141-resize_3/000569_2014-06-09_22-51-47_260595134347_rgbf000141-resize_3-target.png,depth_discrimination_stimuli/000569_2014-06-09_22-51-47_260595134347_rgbf000141-resize_3/000569_2014-06-09_22-51-47_260595134347_rgbf000141-resize_3-target.png,250.0,4.512,4.512,1.0,3032,1015,250,998,251,500,,757433,32,Man
7,133571,DepthScenes,v2_duration_discrimination,discrim_jsons/Discrim250_randls_0.json,http://54.235.29.9/FacialAge/BNav_EC2/DepthDuration/v2_depth_discrimination_MTurk/v2_DepthDiscrim_HTML.html#204,204,1366,768,1366,768,9-17-2022,11-49-0,8,depth_discrimination_stimuli/000736_2014-06-08_18-24-15_260595134347_rgbf000206-resize_3/000736_2014-06-08_18-24-15_260595134347_rgbf000206-resize_3-target.png,depth_discrimination_stimuli/000137_2014-05-20_17-04-49_260595134347_rgbf000120-resize_1/000137_2014-05-20_17-04-49_260595134347_rgbf000120-resize_1-target.png,250.0,3.515,3.786,0.0,3422,1015,248,999,248,516,,757433,32,Man
8,133571,DepthScenes,v2_duration_discrimination,discrim_jsons/Discrim250_randls_0.json,http://54.235.29.9/FacialAge/BNav_EC2/DepthDuration/v2_depth_discrimination_MTurk/v2_DepthDiscrim_HTML.html#204,204,1366,768,1366,768,9-17-2022,11-49-0,9,depth_discrimination_stimuli/002509_2014-06-24_13-19-22_094959634447_rgbf000077-resize_0/002509_2014-06-24_13-19-22_094959634447_rgbf000077-resize_0-target.png,depth_discrimination_stimuli/003338_2014-05-20_11-01-23_094959634447_rgbf000051-resize_6/003338_2014-05-20_11-01-23_094959634447_rgbf000051-resize_6-target.png,250.0,1.3065,1.693,0.0,2890,1016,248,1000,241,500,,757433,32,Man
9,133571,DepthScenes,v2_duration_discrimination,discrim_jsons/Discrim250_randls_0.json,http://54.235.29.9/FacialAge/BNav_EC2/DepthDuration/v2_depth_discrimination_MTurk/v2_DepthDiscrim_HTML.html#204,204,1366,768,1366,768,9-17-2022,11-49-0,10,depth_discrimination_stimuli/000810_2014-06-08_17-20-01_260595134347_rgbf000105-resize_0/000810_2014-06-08_17-20-01_260595134347_rgbf000105-resize_0-target.png,depth_discrimination_stimuli/001214_2014-06-17_16-13-55_260595134347_rgbf000111-resize_0/001214_2014-06-17_16-13-55_260595134347_rgbf000111-resize_0-target.png,250.0,1.4865,2.6505,1.0,3050,1016,248,997,252,500,,757433,32,Man
10,133571,DepthScenes,v2_duration_discrimination,discrim_jsons/Discrim250_randls_0.json,http://54.235.29.9/FacialAge/BNav_EC2/DepthDuration/v2_depth_discrimination_MTurk/v2_DepthDiscrim_HTML.html#204,204,1366,768,1366,768,9-17-2022,11-49-0,11,depth_discrimination_stimuli/000486_2014-06-09_20-47-20_260595134347_rgbf000143-resize_2/000486_2014-06-09_20-47-20_260595134347_rgbf000143-resize_2-target.png,depth_discrimination_stimuli/003083_2014-06-15_15-21-03_094959634447_rgbf000063-resize_1/003083_2014-06-15_15-21-03_094959634447_rgbf000063-resize_1-target.png,250.0,4.8325,4.1405,1.0,1922,1016,249,1000,248,500,,757433,32,Man
11,133571,DepthScenes,v2_duration_discrimination,discrim_jsons/Discrim250_randls_0.json,http://54.235.29.9/FacialAge/BNav_EC2/DepthDuration/v2_depth_discrimination_MTurk/v2_DepthDiscrim_HTML.html#204,204,1366,768,1366,768,9-17-2022,11-49-0,12,depth_discrimination_stimuli/002788_2014-06-22_19-36-03_094959634447_rgbf000088-resize_2/002788_2014-06-22_19-36-03_094959634447_rgbf000088-resize_2-target.png,depth_discrimination_stimuli/000749_2014-06-08_21-55-06_260595134347_rgbf000070-resize_2/000749_2014-06-08_21-55-06_260595134347_rgbf000070-resize_2-target.png,250.0,1.6465,2.331,0.0,3447,1015,250,992,256,500,,757433,32,Man
12,133571,DepthScenes,v2_duration_discrimination,discrim_jsons/Discrim250_randls_0.json,http://54.235.29.9/FacialAge/BNav_EC2/DepthDuration/v2_depth_discrimination_MTurk/v2_DepthDiscrim_HTML.html#204,204,1366,768,1366,768,9-17-2022,11-49-0,13,depth_discrimination_stimuli/002763_2014-06-22_19-13-10_094959634447_rgbf000075-resize_4/002763_2014-06-22_19-13-10_094959634447_rgbf000075-resize_4-target.png,depth_discrimination_stimuli/002209_2014-06-28_18-36-10_260595134347_rgbf000051-resize_1/002209_2014-06-28_18-36-10_260595134347_rgbf000051-resize_1-target.png,250.0,1.68375,2.057,0.0,4890,1012,247,1000,260,490,,757433,32,Man
13,133571,DepthScenes,v2_duration_discrimination,discrim_jsons/Discrim250_randls_0.json,http://54.235.29.9/FacialAge/BNav_EC2/DepthDuration/v2_depth_discrimination_MTurk/v2_DepthDiscrim_HTML.html#204,204,1366,768,1366,768,9-17-2022,11-49-0,14,depth_discrimination_stimuli/001029_2014-06-08_13-17-57_260595134347_rgbf000065-resize_1/001029_2014-06-08_13-17-57_260595134347_rgbf000065-resize_1-target.png,depth_discrimination_stimuli/000677_2014-06-08_23-10-32_260595134347_rgbf000158-resize_6/000677_2014-06-08_23-10-32_260595134347_rgbf000158-resize_6-target.png,250.0,3.0835,3.556,0.0,4829,1015,249,983,248,500,,757433,32,Man
14,133571,DepthScenes,v2_duration_discrimination,discrim_jsons/Discrim250_randls_0.json,http://54.235.29.9/FacialAge/BNav_EC2/DepthDuration/v2_depth_discrimination_MTurk/v2_DepthDiscrim_HTML.html#204,204,1366,768,1366,768,9-17-2022,11-49-0,15,depth_discrimination_stimuli/002663_2014-06-13_15-50-26_094959634447_rgbf000075-resize_1/002663_2014-06-13_15-50-26_094959634447_rgbf000075-resize_1-target.png,depth_discrimination_stimuli/000409_2014-06-04_19-23-33_260595134347_rgbf000067-resize_0/000409_2014-06-04_19-23-33_260595134347_rgbf000067-resize_0-target.png,250.0,4.7495,3.7335,1.0,3687,1015,250,1032,218,500,,757433,32,Man
15,133571,DepthScenes,v2_duration_discrimination,discrim_jsons/Discrim250_randls_0.json,http://54.235.29.9/FacialAge/BNav_EC2/DepthDuration/v2_depth_discrimination_MTurk/v2_DepthDiscrim_HTML.html#204,204,1366,768,1366,768,9-17-2022,11-49-0,16,depth_discrimination_stimuli/000375_2014-06-08_11-17-29_260595134347_rgbf000133-resize_2/000375_2014-06-08_11-17-29_260595134347_rgbf000133-resize_2-target.png,depth_discrimination_stimuli/000375_2014-06-08_11-17-29_260595134347_rgbf000133-resize_2/000375_2014-06-08_11-17-29_260595134347_rgbf000133-resize_2-target.png,250.0,4.718,4.718,1.0,4843,1016,249,1000,250,500,,757433,32,Man
16,133571,DepthScenes,v2_duration_discrimination,discrim_jsons/Discrim250_randls_0.json,http://54.235.29.9/FacialAge/BNav_EC2/DepthDuration/v2_depth_discrimination_MTurk/v2_DepthDiscrim_HTML.html#204,204,1366,768,1366,768,9-17-2022,11-49-0,17,depth_discrimination_stimuli/001806_2014-06-26_20-50-20_260595134347_rgbf000091-resize_1/001806_2014-06-26_20-50-20_260595134347_rgbf000091-resize_1-target.png,depth_discrimination_stimuli/001617_2014-06-20_11-35-32_260595134347_rgbf000066-resize_1/001617_2014-06-20_11-35-32_260595134347_rgbf000066-resize_1-target.png,250.0,2.7305,3.7910000000000004,0.0,4845,1016,250,1000,249,500,,757433,32,Man
17,133571,DepthScenes,v2_duration_discrimination,discrim_jsons/Discrim250_randls_0.json,http://54.235.29.9/FacialAge/BNav_EC2/DepthDuration/v2_depth_discrimination_MTurk/v2_DepthDiscrim_HTML.html#204,204,1366,768,1366,768,9-17-2022,11-49-0,18,depth_discrimination_stimuli/002272_2014-06-28_18-53-56_260595134347_rgbf000067-resize_2/002272_2014-06-28_18-53-56_260595134347_rgbf000067-resize_2-target.png,depth_discrimination_stimuli/001571_2014-06-20_17-21-32_260595134347_rgbf000089-resize_1/001571_2014-06-20_17-21-32_260595134347_rgbf000089-resize_1-target.png,250.0,1.138,1.86,0.0,3907,1015,248,1000,251,501,,757433,32,Man
18,133571,DepthScenes,v2_duration_discrimination,discrim_jsons/Discrim250_randls_0.json,http://54.235.29.9/FacialAge/BNav_EC2/DepthDuration/v2_depth_discrimination_MTurk/v2_DepthDiscrim_HTML.html#204,204,1366,768,1366,768,9-17-2022,11-49-0,19,depth_discrimination_stimuli/001056_2014-06-08_18-46-44_260595134347_rgbf000068-resize_0/001056_2014-06-08_18-46-44_260595134347_rgbf000068-resize_0-target.png,depth_discrimination_stimuli/002199_2014-06-28_18-33-56_260595134347_rgbf000074-resize_0/002199_2014-06-28_18-33-56_260595134347_rgbf000074-resize_0-target.png,250.0,2.6625,1.996,1.0,2503,1015,248,1000,250,500,,757433,32,Man
19,133571,DepthScenes,v2_duration_discrimination,discrim_jsons/Discrim250_randls_0.json,http://54.235.29.9/FacialAge/BNav_EC2/DepthDuration/v2_depth_discrimination_MTurk/v2_DepthDiscrim_HTML.html#204,204,1366,768,1366,768,9-17-2022,11-49-0,20,depth_discrimination_stimuli/000682_2014-06-08_23-14-58_260595134347_rgbf000041-resize_5/000682_2014-06-08_23-14-58_260595134347_rgbf000041-resize_5-target.png,depth_discrimination_stimuli/001650_2014-06-20_12-09-00_260595134347_rgbf000087-resize_3/001650_2014-06-20_12-09-00_260595134347_rgbf000087-resize_3-target.png,250.0,2.7239999999999998,1.9505,1.0,1844,1013,249,1000,250,499,,757433,32,Man
20,133571,DepthScenes,v2_duration_discrimination,discrim_jsons/Discrim250_randls_0.json,http://54.235.29.9/FacialAge/BNav_EC2/DepthDuration/v2_depth_discrimination_MTurk/v2_DepthDiscrim_HTML.html#204,204,1366,768,1366,768,9-17-2022,11-49-0,21,depth_discrimination_stimuli/000878_2014-06-08_22-52-45_260595134347_rgbf000045-resize_2/000878_2014-06-08_22-52-45_260595134347_rgbf000045-resize_2-target.png,depth_discrimination_stimuli/002953_2014-06-08_17-32-18_094959634447_rgbf000059-resize_5/002953_2014-06-08_17-32-18_094959634447_rgbf000059-resize_5-target.png,250.0,2.092,1.551,1.0,2391,1015,248,1000,251,497,,757433,32,Man
21,133571,DepthScenes,v2_duration_discrimination,discrim_jsons/Discrim250_randls_0.json,http://54.235.29.9/FacialAge/BNav_EC2/DepthDuration/v2_depth_discrimination_MTurk/v2_DepthDiscrim_HTML.html#204,204,1366,768,1366,768,9-17-2022,11-49-0,22,depth_discrimination_stimuli/001417_2014-06-19_16-25-36_260595134347_rgbf000115-resize_5/001417_2014-06-19_16-25-36_260595134347_rgbf000115-resize_5-target.png,depth_discrimination_stimuli/003081_2014-06-15_15-19-16_094959634447_rgbf000150-resize_1/003081_2014-06-15_15-19-16_094959634447_rgbf000150-resize_1-target.png,250.0,4.6255,3.9125,3.0,4954,1032,232,1000,249,500,,757433,32,Man
22,133571,DepthScenes,v2_duration_discrimination,discrim_jsons/Discrim250_randls_0.json,http://54.235.29.9/FacialAge/BNav_EC2/DepthDuration/v2_depth_discrimination_MTurk/v2_DepthDiscrim_HTML.html#204,204,1366,768,1366,768,9-17-2022,11-49-0,23,depth_discrimination_stimuli/001167_2014-06-17_15-38-07_260595134347_rgbf000108-resize_0/001167_2014-06-17_15-38-07_260595134347_rgbf000108-resize_0-target.png,depth_discrimination_stimuli/003587_2014-05-23_16-48-02_094959634447_rgbf002384-resize_2/003587_2014-05-23_16-48-02_094959634447_rgbf002384-resize_2-target.png,250.0,1.8505,1.357,1.0,4048,1016,249,999,249,515,,757433,32,Man
23,133571,DepthScenes,v2_duration_discrimination,discrim_jsons/Discrim250_randls_0.json,http://54.235.29.9/FacialAge/BNav_EC2/DepthDuration/v2_depth_discrimination_MTurk/v2_DepthDiscrim_HTML.html#204,204,1366,768,1366,768,9-17-2022,11-49-0,24,depth_discrimination_stimuli/000787_2014-06-08_22-33-53_260595134347_rgbf000175-resize_1/000787_2014-06-08_22-33-53_260595134347_rgbf000175-resize_1-target.png,depth_discrimination_stimuli/000787_2014-06-08_22-33-53_260595134347_rgbf000175-resize_1/000787_2014-06-08_22-33-53_260595134347_rgbf000175-resize_1-target.png,250.0,4.784,4.784,1.0,3122,1016,259,989,250,500,,757433,32,Man
24,133571,DepthScenes,v2_duration_discrimination,discrim_jsons/Discrim250_randls_0.json,http://54.235.29.9/FacialAge/BNav_EC2/DepthDuration/v2_depth_discrimination_MTurk/v2_DepthDiscrim_HTML.html#204,204,1366,768,1366,768,9-17-2022,11-49-0,25,depth_discrimination_stimuli/002375_2014-06-28_20-13-44_260595134347_rgbf000032-resize_1/002375_2014-06-28_20-13-44_260595134347_rgbf000032-resize_1-target.png,depth_discrimination_stimuli/002657_2014-06-13_15-29-54_094959634447_rgbf000150-resize_1/002657_2014-06-13_15-29-54_094959634447_rgbf000150-resize_1-target.png,250.0,4.0175,4.919,0.0,2969,1002,249,1000,251,497,,757433,32,Man
25,133571,DepthScenes,v2_duration_discrimination,discrim_jsons/Discrim250_randls_0.json,http://54.235.29.9/FacialAge/BNav_EC2/DepthDuration/v2_depth_discrimination_MTurk/v2_DepthDiscrim_HTML.html#204,204,1366,768,1366,768,9-17-2022,11-49-0,26,depth_discrimination_stimuli/000009_2014-05-26_14-32-05_260595134347_rgbf000034-resize_3/000009_2014-05-26_14-32-05_260595134347_rgbf000034-resize_3-target.png,depth_discrimination_stimuli/001828_2014-06-26_21-40-03_260595134347_rgbf000024-resize_0/001828_2014-06-26_21-40-03_260595134347_rgbf000024-resize_0-target.png,250.0,3.8715,4.8260000000000005,1.0,3813,1015,248,1000,250,500,,757433,32,Man
26,133571,DepthScenes,v2_duration_discrimination,discrim_jsons/Discrim250_randls_0.json,http://54.235.29.9/FacialAge/BNav_EC2/DepthDuration/v2_depth_discrimination_MTurk/v2_DepthDiscrim_HTML.html#204,204,1366,768,1366,768,9-17-2022,11-49-0,27,depth_discrimination_stimuli/000368_2014-06-09_15-53-01_260595134347_rgbf000155-resize_2/000368_2014-06-09_15-53-01_260595134347_rgbf000155-resize_2-target.png,depth_discrimination_stimuli/002678_2014-06-13_16-15-32_094959634447_rgbf000151-resize_6/002678_2014-06-13_16-15-32_094959634447_rgbf000151-resize_6-target.png,250.0,2.4859999999999998,2.1830000000000003,1.0,3448,1015,251,997,248,500,,757433,32,Man
27,133571,DepthScenes,v2_duration_discrimination,discrim_jsons/Discrim250_randls_0.json,http://54.235.29.9/FacialAge/BNav_EC2/DepthDuration/v2_depth_discrimination_MTurk/v2_DepthDiscrim_HTML.html#204,204,1366,768,1366,768,9-17-2022,11-49-0,28,depth_discrimination_stimuli/002630_2014-06-24_14-47-50_094959634447_rgbf000055-resize_1/002630_2014-06-24_14-47-50_094959634447_rgbf000055-resize_1-target.png,depth_discrimination_stimuli/002758_2014-06-22_19-11-20_094959634447_rgbf000128-resize_1/002758_2014-06-22_19-11-20_094959634447_rgbf000128-resize_1-target.png,250.0,3.0095,2.555,0.0,3661,1020,233,1000,264,484,,757433,32,Man
28,133571,DepthScenes,v2_duration_discrimination,discrim_jsons/Discrim250_randls_0.json,http://54.235.29.9/FacialAge/BNav_EC2/DepthDuration/v2_depth_discrimination_MTurk/v2_DepthDiscrim_HTML.html#204,204,1366,768,1366,768,9-17-2022,11-49-0,29,depth_discrimination_stimuli/002748_2014-06-22_19-07-22_094959634447_rgbf000078-resize_1/002748_2014-06-22_19-07-22_094959634447_rgbf000078-resize_1-target.png,depth_discrimination_stimuli/002995_2014-06-15_12-31-26_094959634447_rgbf000150-resize_1/002995_2014-06-15_12-31-26_094959634447_rgbf000150-resize_1-target.png,250.0,4.6705,3.8360000000000003,0.0,1688,1009,247,1000,249,492,,757433,32,Man
29,133571,DepthScenes,v2_duration_discrimination,discrim_jsons/Discrim250_randls_0.json,http://54.235.29.9/FacialAge/BNav_EC2/DepthDuration/v2_depth_discrimination_MTurk/v2_DepthDiscrim_HTML.html#204,204,1366,768,1366,768,9-17-2022,11-49-0,30,depth_discrimination_stimuli/001808_2014-06-26_20-50-58_260595134347_rgbf000029-resize_1/001808_2014-06-26_20-50-58_260595134347_rgbf000029-resize_1-target.png,depth_discrimination_stimuli/001815_2014-06-26_20-52-55_260595134347_rgbf000020-resize_0/001815_2014-06-26_20-52-55_260595134347_rgbf000020-resize_0-target.png,250.0,4.249,3.3865,1.0,2266,1015,250,1000,248,500,,757433,32,Man
30,133571,DepthScenes,v2_duration_discrimination,discrim_jsons/Discrim250_randls_0.json,http://54.235.29.9/FacialAge/BNav_EC2/DepthDuration/v2_depth_discrimination_MTurk/v2_DepthDiscrim_HTML.html#204,204,1366,768,1366,768,9-17-2022,11-49-0,31,depth_discrimination_stimuli/001164_2014-06-17_15-35-46_260595134347_rgbf000085-resize_3/001164_2014-06-17_15-35-46_260595134347_rgbf000085-resize_3-target.png,depth_discrimination_stimuli/001136_2014-06-17_15-19-41_260595134347_rgbf000076-resize_3/001136_2014-06-17_15-19-41_260595134347_rgbf000076-resize_3-target.png,250.0,2.354,1.8655,1.0,2156,1016,248,1000,248,499,,757433,32,Man
31,133571,DepthScenes,v2_duration_discrimination,discrim_jsons/Discrim250_randls_0.json,http://54.235.29.9/FacialAge/BNav_EC2/DepthDuration/v2_depth_discrimination_MTurk/v2_DepthDiscrim_HTML.html#204,204,1366,768,1366,768,9-17-2022,11-49-0,32,depth_discrimination_stimuli/000506_2014-06-08_23-21-00_260595134347_rgbf000070-resize_7/000506_2014-06-08_23-21-00_260595134347_rgbf000070-resize_7-target.png,depth_discrimination_stimuli/003079_2014-06-15_15-18-20_094959634447_rgbf000152-resize_8/003079_2014-06-15_15-18-20_094959634447_rgbf000152-resize_8-target.png,250.0,4.0585,2.8775,1.0,3469,1016,248,1001,249,499,,757433,32,Man
32,133571,DepthScenes,v2_duration_discrimination,discrim_jsons/Discrim250_randls_0.json,http://54.235.29.9/FacialAge/BNav_EC2/DepthDuration/v2_depth_discrimination_MTurk/v2_DepthDiscrim_HTML.html#204,204,1366,768,1366,768,9-17-2022,11-49-0,33,depth_discrimination_stimuli/000739_2014-06-08_18-45-58_260595134347_rgbf000068-resize_1/000739_2014-06-08_18-45-58_260595134347_rgbf000068-resize_1-target.png,depth_discrimination_stimuli/000734_2014-06-08_17-39-11_260595134347_rgbf000128-resize_2/000734_2014-06-08_17-39-11_260595134347_rgbf000128-resize_2-target.png,250.0,3.534,4.098,1.0,6032,1015,249,1000,248,500,,757433,32,Man
33,133571,DepthScenes,v2_duration_discrimination,discrim_jsons/Discrim250_randls_0.json,http://54.235.29.9/FacialAge/BNav_EC2/DepthDuration/v2_depth_discrimination_MTurk/v2_DepthDiscrim_HTML.html#204,204,1366,768,1366,768,9-17-2022,11-49-0,34,depth_discrimination_stimuli/001555_2014-06-20_17-12-10_260595134347_rgbf000065-resize_4/001555_2014-06-20_17-12-10_260595134347_rgbf000065-resize_4-target.png,depth_discrimination_stimuli/000103_2014-05-14_22-01-17_260595134347_rgbf000152-resize_5/000103_2014-05-14_22-01-17_260595134347_rgbf000152-resize_5-target.png,250.0,1.633,1.993,0.0,5819,1015,281,961,256,506,,757433,32,Man
34,133571,DepthScenes,v2_duration_discrimination,discrim_jsons/Discrim250_randls_0.json,http://54.235.29.9/FacialAge/BNav_EC2/DepthDuration/v2_depth_discrimination_MTurk/v2_DepthDiscrim_HTML.html#204,204,1366,768,1366,768,9-17-2022,11-49-0,35,depth_discrimination_stimuli/001222_2014-06-17_16-24-06_260595134347_rgbf000073-resize_0/001222_2014-06-17_16-24-06_260595134347_rgbf000073-resize_0-target.png,depth_discrimination_stimuli/001222_2014-06-17_16-24-06_260595134347_rgbf000073-resize_0/001222_2014-06-17_16-24-06_260595134347_rgbf000073-resize_0-target.png,250.0,1.4385,1.4385,0.0,3171,1032,247,1001,249,488,,757433,32,Man
35,133571,DepthScenes,v2_duration_discrimination,discrim_jsons/Discrim250_randls_0.json,http://54.235.29.9/FacialAge/BNav_EC2/DepthDuration/v2_depth_discrimination_MTurk/v2_DepthDiscrim_HTML.html#204,204,1366,768,1366,768,9-17-2022,11-49-0,36,depth_discrimination_stimuli/000642_2014-06-08_16-59-25_260595134347_rgbf000098-resize_2/000642_2014-06-08_16-59-25_260595134347_rgbf000098-resize_2-target.png,depth_discrimination_stimuli/002425_2014-06-28_20-27-29_260595134347_rgbf000031-resize_8/002425_2014-06-28_20-27-29_260595134347_rgbf000031-resize_8-target.png,250.0,2.8815,3.8960000000000004,0.0,4656,1014,252,1000,248,500,,757433,32,Man
36,133571,DepthScenes,v2_duration_discrimination,discrim_jsons/Discrim250_randls_0.json,http://54.235.29.9/FacialAge/BNav_EC2/DepthDuration/v2_depth_discrimination_MTurk/v2_DepthDiscrim_HTML.html#204,204,1366,768,1366,768,9-17-2022,11-49-0,37,depth_discrimination_stimuli/001570_2014-06-20_17-21-09_260595134347_rgbf000135-resize_4/001570_2014-06-20_17-21-09_260595134347_rgbf000135-resize_4-target.png,depth_discrimination_stimuli/001392_2014-06-19_16-07-59_260595134347_rgbf000046-resize_1/001392_2014-06-19_16-07-59_260595134347_rgbf000046-resize_1-target.png,250.0,4.467,4.135,1.0,2219,1016,265,984,249,500,,757433,32,Man
37,133571,DepthScenes,v2_duration_discrimination,discrim_jsons/Discrim250_randls_0.json,http://54.235.29.9/FacialAge/BNav_EC2/DepthDuration/v2_depth_discrimination_MTurk/v2_DepthDiscrim_HTML.html#204,204,1366,768,1366,768,9-17-2022,11-49-0,38,depth_discrimination_stimuli/002153_2014-06-25_21-27-18_260595134347_rgbf000038-resize_5/002153_2014-06-25_21-27-18_260595134347_rgbf000038-resize_5-target.png,depth_discrimination_stimuli/002660_2014-06-13_15-44-18_094959634447_rgbf001878-resize_2/002660_2014-06-13_15-44-18_094959634447_rgbf001878-resize_2-target.png,250.0,2.505,3.576,0.0,3485,1015,248,1000,248,516,,757433,32,Man
38,133571,DepthScenes,v2_duration_discrimination,discrim_jsons/Discrim250_randls_0.json,http://54.235.29.9/FacialAge/BNav_EC2/DepthDuration/v2_depth_discrimination_MTurk/v2_DepthDiscrim_HTML.html#204,204,1366,768,1366,768,9-17-2022,11-49-0,39,depth_discrimination_stimuli/000929_2014-06-09_16-33-19_260595134347_rgbf000139-resize_0/000929_2014-06-09_16-33-19_260595134347_rgbf000139-resize_0-target.png,depth_discrimination_stimuli/000457_2014-06-08_16-52-43_260595134347_rgbf000199-resize_1/000457_2014-06-08_16-52-43_260595134347_rgbf000199-resize_1-target.png,250.0,2.8680000000000003,3.6489999999999996,0.0,4235,1015,248,1000,248,500,,757433,32,Man
39,133571,DepthScenes,v2_duration_discrimination,discrim_jsons/Discrim250_randls_0.json,http://54.235.29.9/FacialAge/BNav_EC2/DepthDuration/v2_depth_discrimination_MTurk/v2_DepthDiscrim_HTML.html#204,204,1366,768,1366,768,9-17-2022,11-49-0,40,depth_discrimination_stimuli/000447_2014-06-08_16-15-46_260595134347_rgbf000130-resize_1/000447_2014-06-08_16-15-46_260595134347_rgbf000130-resize_1-target.png,depth_discrimination_stimuli/001447_2014-06-19_17-00-32_260595134347_rgbf000082-resize_5/001447_2014-06-19_17-00-32_260595134347_rgbf000082-resize_5-target.png,250.0,4.479,4.13775,0.0,4266,1015,248,1000,248,500,,757433,32,Man
40,133571,DepthScenes,v2_duration_discrimination,discrim_jsons/Discrim250_randls_0.json,http://54.235.29.9/FacialAge/BNav_EC2/DepthDuration/v2_depth_discrimination_MTurk/v2_DepthDiscrim_HTML.html#204,204,1366,768,1366,768,9-17-2022,11-49-0,41,depth_discrimination_stimuli/002445_2014-06-28_20-32-16_260595134347_rgbf000029-resize_4/002445_2014-06-28_20-32-16_260595134347_rgbf000029-resize_4-target.png,depth_discrimination_stimuli/000780_2014-06-08_22-28-29_260595134347_rgbf000126-resize_1/000780_2014-06-08_22-28-29_260595134347_rgbf000126-resize_1-target.png,250.0,2.5315,3.3825,0.0,3999,1016,249,1000,248,501,,757433,32,Man
41,133571,DepthScenes,v2_duration_discrimination,discrim_jsons/Discrim250_randls_0.json,http://54.235.29.9/FacialAge/BNav_EC2/DepthDuration/v2_depth_discrimination_MTurk/v2_DepthDiscrim_HTML.html#204,204,1366,768,1366,768,9-17-2022,11-49-0,42,depth_discrimination_stimuli/002549_2014-06-24_13-41-39_094959634447_rgbf000022-resize_3/002549_2014-06-24_13-41-39_094959634447_rgbf000022-resize_3-target.png,depth_discrimination_stimuli/002750_2014-06-22_19-08-03_094959634447_rgbf000094-resize_4/002750_2014-06-22_19-08-03_094959634447_rgbf000094-resize_4-target.png,250.0,1.476,2.354,1.0,3262,1042,224,1015,248,500,,757433,32,Man
42,133571,DepthScenes,v2_duration_discrimination,discrim_jsons/Discrim250_randls_0.json,http://54.235.29.9/FacialAge/BNav_EC2/DepthDuration/v2_depth_discrimination_MTurk/v2_DepthDiscrim_HTML.html#204,204,1366,768,1366,768,9-17-2022,11-49-0,43,depth_discrimination_stimuli/002988_2014-06-15_12-24-20_094959634447_rgbf000150-resize_1/002988_2014-06-15_12-24-20_094959634447_rgbf000150-resize_1-target.png,depth_discrimination_stimuli/001052_2014-06-08_18-24-54_260595134347_rgbf000130-resize_1/001052_2014-06-08_18-24-54_260595134347_rgbf000130-resize_1-target.png,250.0,4.7669999999999995,4.1045,1.0,3983,1002,247,1000,249,499,,757433,32,Man
43,133571,DepthScenes,v2_duration_discrimination,discrim_jsons/Discrim250_randls_0.json,http://54.235.29.9/FacialAge/BNav_EC2/DepthDuration/v2_depth_discrimination_MTurk/v2_DepthDiscrim_HTML.html#204,204,1366,768,1366,768,9-17-2022,11-49-0,44,depth_discrimination_stimuli/002725_2014-06-22_11-47-51_094959634447_rgbf000070-resize_1/002725_2014-06-22_11-47-51_094959634447_rgbf000070-resize_1-target.png,depth_discrimination_stimuli/002344_2014-06-28_20-06-29_260595134347_rgbf000030-resize_1/002344_2014-06-28_20-06-29_260595134347_rgbf000030-resize_1-target.png,250.0,2.195,1.5795,1.0,4844,1005,277,969,249,500,,757433,32,Man
44,133571,DepthScenes,v2_duration_discrimination,discrim_jsons/Discrim250_randls_0.json,http://54.235.29.9/FacialAge/BNav_EC2/DepthDuration/v2_depth_discrimination_MTurk/v2_DepthDiscrim_HTML.html#204,204,1366,768,1366,768,9-17-2022,11-49-0,45,depth_discrimination_stimuli/002989_2014-06-15_12-25-03_094959634447_rgbf000150-resize_3/002989_2014-06-15_12-25-03_094959634447_rgbf000150-resize_3-target.png,depth_discrimination_stimuli/000866_2014-06-09_20-45-42_260595134347_rgbf000139-resize_1/000866_2014-06-09_20-45-42_260595134347_rgbf000139-resize_1-target.png,250.0,4.1975,3.2155,0.0,4813,1015,238,1011,249,515,,757433,32,Man
45,133571,DepthScenes,v2_duration_discrimination,discrim_jsons/Discrim250_randls_0.json,http://54.235.29.9/FacialAge/BNav_EC2/DepthDuration/v2_depth_discrimination_MTurk/v2_DepthDiscrim_HTML.html#204,204,1366,768,1366,768,9-17-2022,11-49-0,46,depth_discrimination_stimuli/003621_2014-05-23_18-06-08_094959634447_rgbf000101-resize_1/003621_2014-05-23_18-06-08_094959634447_rgbf000101-resize_1-target.png,depth_discrimination_stimuli/001584_2014-06-20_11-07-43_260595134347_rgbf000002-resize_1/001584_2014-06-20_11-07-43_260595134347_rgbf000002-resize_1-target.png,250.0,3.9835,3.53,1.0,3969,1016,248,1000,249,499,,757433,32,Man
46,133571,DepthScenes,v2_duration_discrimination,discrim_jsons/Discrim250_randls_0.json,http://54.235.29.9/FacialAge/BNav_EC2/DepthDuration/v2_depth_discrimination_MTurk/v2_DepthDiscrim_HTML.html#204,204,1366,768,1366,768,9-17-2022,11-49-0,47,depth_discrimination_stimuli/000906_2014-06-08_13-35-43_260595134347_rgbf000155-resize_1/000906_2014-06-08_13-35-43_260595134347_rgbf000155-resize_1-target.png,depth_discrimination_stimuli/002805_2014-06-22_19-54-03_094959634447_rgbf000079-resize_1/002805_2014-06-22_19-54-03_094959634447_rgbf000079-resize_1-target.png,250.0,2.8489999999999998,3.1439999999999997,1.0,6109,1016,248,1000,249,500,,757433,32,Man
47,133571,DepthScenes,v2_duration_discrimination,discrim_jsons/Discrim250_randls_0.json,http://54.235.29.9/FacialAge/BNav_EC2/DepthDuration/v2_depth_discrimination_MTurk/v2_DepthDiscrim_HTML.html#204,204,1366,768,1366,768,9-17-2022,11-49-0,48,depth_discrimination_stimuli/001810_2014-06-26_20-51-35_260595134347_rgbf000040-resize_3/001810_2014-06-26_20-51-35_260595134347_rgbf000040-resize_3-target.png,depth_discrimination_stimuli/003010_2014-06-15_12-54-35_094959634447_rgbf000112-resize_0/003010_2014-06-15_12-54-35_094959634447_rgbf000112-resize_0-target.png,250.0,2.2525,3.1185,1.0,4843,1016,249,1000,241,507,,757433,32,Man
48,133571,DepthScenes,v2_duration_discrimination,discrim_jsons/Discrim250_randls_0.json,http://54.235.29.9/FacialAge/BNav_EC2/DepthDuration/v2_depth_discrimination_MTurk/v2_DepthDiscrim_HTML.html#204,204,1366,768,1366,768,9-17-2022,11-49-0,49,depth_discrimination_stimuli/000692_2014-06-08_13-09-42_260595134347_rgbf000199-resize_2/000692_2014-06-08_13-09-42_260595134347_rgbf000199-resize_2-target.png,depth_discrimination_stimuli/001094_2014-06-15_17-36-00_260595134347_rgbf000205-resize_0/001094_2014-06-15_17-36-00_260595134347_rgbf000205-resize_0-target.png,250.0,3.661,4.2175,1.0,4406,1016,266,984,251,499,,757433,32,Man
49,133571,DepthScenes,v2_duration_discrimination,discrim_jsons/Discrim250_randls_0.json,http://54.235.29.9/FacialAge/BNav_EC2/DepthDuration/v2_depth_discrimination_MTurk/v2_DepthDiscrim_HTML.html#204,204,1366,768,1366,768,9-17-2022,11-49-0,50,depth_discrimination_stimuli/002279_2014-06-28_18-55-32_260595134347_rgbf000040-resize_5/002279_2014-06-28_18-55-32_260595134347_rgbf000040-resize_5-target.png,depth_discrimination_stimuli/000635_2014-06-08_16-38-42_260595134347_rgbf000106-resize_1/000635_2014-06-08_16-38-42_260595134347_rgbf000106-resize_1-target.png,250.0,1.5043333333333,2.074,0.0,4512,1000,248,1001,244,500,,757433,32,Man
50,133571,DepthScenes,v2_duration_discrimination,discrim_jsons/Discrim250_randls_0.json,http://54.235.29.9/FacialAge/BNav_EC2/DepthDuration/v2_depth_discrimination_MTurk/v2_DepthDiscrim_HTML.html#204,204,1366,768,1366,768,9-17-2022,11-49-0,51,depth_discrimination_stimuli/001059_2014-06-08_21-53-27_260595134347_rgbf000061-resize_4/001059_2014-06-08_21-53-27_260595134347_rgbf000061-resize_4-target.png,depth_discrimination_stimuli/001032_2014-06-08_13-23-17_260595134347_rgbf000021-resize_3/001032_2014-06-08_13-23-17_260595134347_rgbf000021-resize_3-target.png,250.0,2.4185,3.2725,1.0,3515,1003,249,1000,248,500,,757433,32,Man
51,133571,DepthScenes,v2_duration_discrimination,discrim_jsons/Discrim250_randls_0.json,http://54.235.29.9/FacialAge/BNav_EC2/DepthDuration/v2_depth_discrimination_MTurk/v2_DepthDiscrim_HTML.html#204,204,1366,768,1366,768,9-17-2022,11-49-0,52,depth_discrimination_stimuli/001540_2014-06-20_17-01-05_260595134347_rgbf000086-resize_2/001540_2014-06-20_17-01-05_260595134347_rgbf000086-resize_2-target.png,depth_discrimination_stimuli/001540_2014-06-20_17-01-05_260595134347_rgbf000086-resize_2/001540_2014-06-20_17-01-05_260595134347_rgbf000086-resize_2-target.png,250.0,1.459,1.459,0.0,2313,1016,247,1001,249,500,,757433,32,Man
52,133571,DepthScenes,v2_duration_discrimination,discrim_jsons/Discrim250_randls_0.json,http://54.235.29.9/FacialAge/BNav_EC2/DepthDuration/v2_depth_discrimination_MTurk/v2_DepthDiscrim_HTML.html#204,204,1366,768,1366,768,9-17-2022,11-49-0,53,depth_discrimination_stimuli/001244_2014-06-17_16-47-45_260595134347_rgbf000030-resize_4/001244_2014-06-17_16-47-45_260595134347_rgbf000030-resize_4-target.png,depth_discrimination_stimuli/003495_2014-05-21_16-01-51_094959634447_rgbf000100-resize_3/003495_2014-05-21_16-01-51_094959634447_rgbf000100-resize_3-target.png,250.0,2.0425,1.6255,0.0,5282,1016,235,1013,248,516,,757433,32,Man
53,133571,DepthScenes,v2_duration_discrimination,discrim_jsons/Discrim250_randls_0.json,http://54.235.29.9/FacialAge/BNav_EC2/DepthDuration/v2_depth_discrimination_MTurk/v2_DepthDiscrim_HTML.html#204,204,1366,768,1366,768,9-17-2022,11-49-0,54,depth_discrimination_stimuli/002213_2014-06-28_18-37-58_260595134347_rgbf000055-resize_1/002213_2014-06-28_18-37-58_260595134347_rgbf000055-resize_1-target.png,depth_discrimination_stimuli/000691_2014-06-08_13-08-50_260595134347_rgbf000132-resize_3/000691_2014-06-08_13-08-50_260595134347_rgbf000132-resize_3-target.png,250.0,3.62,4.1530000000000005,1.0,4156,1016,248,1000,250,502,,757433,32,Man
54,133571,DepthScenes,v2_duration_discrimination,discrim_jsons/Discrim250_randls_0.json,http://54.235.29.9/FacialAge/BNav_EC2/DepthDuration/v2_depth_discrimination_MTurk/v2_DepthDiscrim_HTML.html#204,204,1366,768,1366,768,9-17-2022,11-49-0,55,depth_discrimination_stimuli/002118_2014-06-25_20-32-08_260595134347_rgbf000078-resize_1/002118_2014-06-25_20-32-08_260595134347_rgbf000078-resize_1-target.png,depth_discrimination_stimuli/001516_2014-06-20_16-25-09_260595134347_rgbf000076-resize_2/001516_2014-06-20_16-25-09_260595134347_rgbf000076-resize_2-target.png,250.0,2.6460000000000004,1.7445,1.0,2672,1016,249,1000,249,500,,757433,32,Man
55,133571,DepthScenes,v2_duration_discrimination,discrim_jsons/Discrim250_randls_0.json,http://54.235.29.9/FacialAge/BNav_EC2/DepthDuration/v2_depth_discrimination_MTurk/v2_DepthDiscrim_HTML.html#204,204,1366,768,1366,768,9-17-2022,11-49-0,56,depth_discrimination_stimuli/000469_2014-06-09_19-42-10_260595134347_rgbf000081-resize_1/000469_2014-06-09_19-42-10_260595134347_rgbf000081-resize_1-target.png,depth_discrimination_stimuli/000483_2014-06-09_20-41-45_260595134347_rgbf000116-resize_4/000483_2014-06-09_20-41-45_260595134347_rgbf000116-resize_4-target.png,250.0,1.652,1.337,3.0,7501,1016,248,1000,248,500,,757433,32,Man
56,133571,DepthScenes,v2_duration_discrimination,discrim_jsons/Discrim250_randls_0.json,http://54.235.29.9/FacialAge/BNav_EC2/DepthDuration/v2_depth_discrimination_MTurk/v2_DepthDiscrim_HTML.html#204,204,1366,768,1366,768,9-17-2022,11-49-0,57,depth_discrimination_stimuli/002057_2014-06-24_21-00-13_260595134347_rgbf000120-resize_1/002057_2014-06-24_21-00-13_260595134347_rgbf000120-resize_1-target.png,depth_discrimination_stimuli/000709_2014-06-08_13-51-55_260595134347_rgbf000068-resize_3/000709_2014-06-08_13-51-55_260595134347_rgbf000068-resize_3-target.png,250.0,2.967,1.8030000000000002,0.0,2437,1001,262,1000,250,500,,757433,32,Man
57,133571,DepthScenes,v2_duration_discrimination,discrim_jsons/Discrim250_randls_0.json,http://54.235.29.9/FacialAge/BNav_EC2/DepthDuration/v2_depth_discrimination_MTurk/v2_DepthDiscrim_HTML.html#204,204,1366,768,1366,768,9-17-2022,11-49-0,58,depth_discrimination_stimuli/002600_2014-06-24_14-27-04_094959634447_rgbf000074-resize_2/002600_2014-06-24_14-27-04_094959634447_rgbf000074-resize_2-target.png,depth_discrimination_stimuli/003228_2014-05-14_13-42-35_094959634447_rgbf000101-resize_1/003228_2014-05-14_13-42-35_094959634447_rgbf000101-resize_1-target.png,250.0,2.7575,1.9680000000000002,0.0,4675,1016,247,1000,251,500,,757433,32,Man
58,133571,DepthScenes,v2_duration_discrimination,discrim_jsons/Discrim250_randls_0.json,http://54.235.29.9/FacialAge/BNav_EC2/DepthDuration/v2_depth_discrimination_MTurk/v2_DepthDiscrim_HTML.html#204,204,1366,768,1366,768,9-17-2022,11-49-0,59,depth_discrimination_stimuli/000414_2014-06-04_19-49-13_260595134347_rgbf000044-resize_0/000414_2014-06-04_19-49-13_260595134347_rgbf000044-resize_0-target.png,depth_discrimination_stimuli/003129_2014-05-12_10-48-10_094959634447_rgbf000100-resize_0/003129_2014-05-12_10-48-10_094959634447_rgbf000100-resize_0-target.png,250.0,4.329,4.9305,1.0,2656,1015,248,1001,248,500,,757433,32,Man
59,133571,DepthScenes,v2_duration_discrimination,discrim_jsons/Discrim250_randls_0.json,http://54.235.29.9/FacialAge/BNav_EC2/DepthDuration/v2_depth_discrimination_MTurk/v2_DepthDiscrim_HTML.html#204,204,1366,768,1366,768,9-17-2022,11-49-0,60,depth_discrimination_stimuli/002043_2014-06-24_20-29-38_260595134347_rgbf000039-resize_4/002043_2014-06-24_20-29-38_260595134347_rgbf000039-resize_4-target.png,depth_discrimination_stimuli/003048_2014-06-15_13-49-43_094959634447_rgbf000150-resize_1/003048_2014-06-15_13-49-43_094959634447_rgbf000150-resize_1-target.png,250.0,2.8435,4.0035,1.0,2131,1016,249,1000,248,500,,757433,32,Man
60,133571,DepthScenes,v2_duration_discrimination,discrim_jsons/Discrim250_randls_0.json,http://54.235.29.9/FacialAge/BNav_EC2/DepthDuration/v2_depth_discrimination_MTurk/v2_DepthDiscrim_HTML.html#204,204,1366,768,1366,768,9-17-2022,11-49-0,61,depth_discrimination_stimuli/001170_2014-06-17_15-43-44_260595134347_rgbf000096-resize_6/001170_2014-06-17_15-43-44_260595134347_rgbf000096-resize_6-target.png,depth_discrimination_stimuli/001170_2014-06-17_15-43-44_260595134347_rgbf000096-resize_6/001170_2014-06-17_15-43-44_260595134347_rgbf000096-resize_6-target.png,250.0,1.1909999999999998,1.1909999999999998,1.0,3679,1001,258,1000,250,491,,757433,32,Man
61,133571,DepthScenes,v2_duration_discrimination,discrim_jsons/Discrim250_randls_0.json,http://54.235.29.9/FacialAge/BNav_EC2/DepthDuration/v2_depth_discrimination_MTurk/v2_DepthDiscrim_HTML.html#204,204,1366,768,1366,768,9-17-2022,11-49-0,62,depth_discrimination_stimuli/002905_2014-06-03_18-04-43_094959634447_rgbf000151-resize_2/002905_2014-06-03_18-04-43_094959634447_rgbf000151-resize_2-target.png,depth_discrimination_stimuli/003423_2014-05-21_10-23-26_094959634447_rgbf002665-resize_2/003423_2014-05-21_10-23-26_094959634447_rgbf002665-resize_2-target.png,250.0,2.0295,3.2575,0.0,2656,1008,249,1000,248,502,,757433,32,Man
62,133571,DepthScenes,v2_duration_discrimination,discrim_jsons/Discrim250_randls_0.json,http://54.235.29.9/FacialAge/BNav_EC2/DepthDuration/v2_depth_discrimination_MTurk/v2_DepthDiscrim_HTML.html#204,204,1366,768,1366,768,9-17-2022,11-49-0,63,depth_discrimination_stimuli/003292_2014-05-14_21-53-49_094959634447_rgbf000100-resize_2/003292_2014-05-14_21-53-49_094959634447_rgbf000100-resize_2-target.png,depth_discrimination_stimuli/002639_2014-06-24_14-51-37_094959634447_rgbf000074-resize_4/002639_2014-06-24_14-51-37_094959634447_rgbf000074-resize_4-target.png,250.0,3.4815,4.0375,1.0,1375,1016,249,1000,248,500,,757433,32,Man
63,133571,DepthScenes,v2_duration_discrimination,discrim_jsons/Discrim250_randls_0.json,http://54.235.29.9/FacialAge/BNav_EC2/DepthDuration/v2_depth_discrimination_MTurk/v2_DepthDiscrim_HTML.html#204,204,1366,768,1366,768,9-17-2022,11-49-0,64,depth_discrimination_stimuli/000788_2014-06-08_22-34-36_260595134347_rgbf000131-resize_1/000788_2014-06-08_22-34-36_260595134347_rgbf000131-resize_1-target.png,depth_discrimination_stimuli/001235_2014-06-17_16-37-36_260595134347_rgbf000084-resize_4/001235_2014-06-17_16-37-36_260595134347_rgbf000084-resize_4-target.png,250.0,3.359,3.6605,0.0,2077,1015,249,1000,250,491,,757433,32,Man
64,133571,DepthScenes,v2_duration_discrimination,discrim_jsons/Discrim250_randls_0.json,http://54.235.29.9/FacialAge/BNav_EC2/DepthDuration/v2_depth_discrimination_MTurk/v2_DepthDiscrim_HTML.html#204,204,1366,768,1366,768,9-17-2022,11-49-0,65,depth_discrimination_stimuli/002784_2014-06-22_19-26-30_094959634447_rgbf000083-resize_3/002784_2014-06-22_19-26-30_094959634447_rgbf000083-resize_3-target.png,depth_discrimination_stimuli/001100_2014-06-15_17-46-26_260595134347_rgbf000225-resize_2/001100_2014-06-15_17-46-26_260595134347_rgbf000225-resize_2-target.png,250.0,1.8046666666667,2.24,0.0,3125,1015,248,1000,248,500,,757433,32,Man
65,133571,DepthScenes,v2_duration_discrimination,discrim_jsons/Discrim250_randls_0.json,http://54.235.29.9/FacialAge/BNav_EC2/DepthDuration/v2_depth_discrimination_MTurk/v2_DepthDiscrim_HTML.html#204,204,1366,768,1366,768,9-17-2022,11-49-0,66,depth_discrimination_stimuli/001016_2014-06-09_16-16-10_260595134347_rgbf000112-resize_5/001016_2014-06-09_16-16-10_260595134347_rgbf000112-resize_5-target.png,depth_discrimination_stimuli/002340_2014-06-28_20-05-46_260595134347_rgbf000113-resize_0/002340_2014-06-28_20-05-46_260595134347_rgbf000113-resize_0-target.png,250.0,1.6565,2.4735,1.0,49673,1000,248,1000,262,488,,757433,32,Man
66,133571,DepthScenes,v2_duration_discrimination,discrim_jsons/Discrim250_randls_0.json,http://54.235.29.9/FacialAge/BNav_EC2/DepthDuration/v2_depth_discrimination_MTurk/v2_DepthDiscrim_HTML.html#204,204,1366,768,1366,768,9-17-2022,11-49-0,67,depth_discrimination_stimuli/000522_2014-06-08_13-35-06_260595134347_rgbf000244-resize_1/000522_2014-06-08_13-35-06_260595134347_rgbf000244-resize_1-target.png,depth_discrimination_stimuli/002949_2014-06-26_15-57-42_094959634447_rgbf000079-resize_1/002949_2014-06-26_15-57-42_094959634447_rgbf000079-resize_1-target.png,250.0,2.3715,1.8915,1.0,4453,1015,250,1000,243,500,,757433,32,Man
67,133571,DepthScenes,v2_duration_discrimination,discrim_jsons/Discrim250_randls_0.json,http://54.235.29.9/FacialAge/BNav_EC2/DepthDuration/v2_depth_discrimination_MTurk/v2_DepthDiscrim_HTML.html#204,204,1366,768,1366,768,9-17-2022,11-49-0,68,depth_discrimination_stimuli/001175_2014-06-17_15-45-55_260595134347_rgbf000129-resize_4/001175_2014-06-17_15-45-55_260595134347_rgbf000129-resize_4-target.png,depth_discrimination_stimuli/003490_2014-05-21_15-50-11_094959634447_rgbf000101-resize_3/003490_2014-05-21_15-50-11_094959634447_rgbf000101-resize_3-target.png,250.0,4.255,3.6445,1.0,4703,1015,248,1001,250,500,,757433,32,Man
68,133571,DepthScenes,v2_duration_discrimination,discrim_jsons/Discrim250_randls_0.json,http://54.235.29.9/FacialAge/BNav_EC2/DepthDuration/v2_depth_discrimination_MTurk/v2_DepthDiscrim_HTML.html#204,204,1366,768,1366,768,9-17-2022,11-49-0,69,depth_discrimination_stimuli/001199_2014-06-17_16-03-48_260595134347_rgbf000077-resize_0/001199_2014-06-17_16-03-48_260595134347_rgbf000077-resize_0-target.png,depth_discrimination_stimuli/000502_2014-06-08_23-02-32_260595134347_rgbf000063-resize_4/000502_2014-06-08_23-02-32_260595134347_rgbf000063-resize_4-target.png,250.0,3.4375,2.431,3.0,3934,1015,248,1000,248,500,,757433,32,Man
69,133571,DepthScenes,v2_duration_discrimination,discrim_jsons/Discrim250_randls_0.json,http://54.235.29.9/FacialAge/BNav_EC2/DepthDuration/v2_depth_discrimination_MTurk/v2_DepthDiscrim_HTML.html#204,204,1366,768,1366,768,9-17-2022,11-49-0,70,depth_discrimination_stimuli/001055_2014-06-08_18-45-35_260595134347_rgbf000111-resize_4/001055_2014-06-08_18-45-35_260595134347_rgbf000111-resize_4-target.png,depth_discrimination_stimuli/000549_2014-06-08_22-10-24_260595134347_rgbf000247-resize_3/000549_2014-06-08_22-10-24_260595134347_rgbf000247-resize_3-target.png,250.0,2.4290000000000003,1.841,1.0,2625,1001,253,1000,246,503,,757433,32,Man
70,133571,DepthScenes,v2_duration_discrimination,discrim_jsons/Discrim250_randls_0.json,http://54.235.29.9/FacialAge/BNav_EC2/DepthDuration/v2_depth_discrimination_MTurk/v2_DepthDiscrim_HTML.html#204,204,1366,768,1366,768,9-17-2022,11-49-0,71,depth_discrimination_stimuli/002072_2014-06-24_21-48-06_260595134347_rgbf000115-resize_0/002072_2014-06-24_21-48-06_260595134347_rgbf000115-resize_0-target.png,depth_discrimination_stimuli/002072_2014-06-24_21-48-06_260595134347_rgbf000115-resize_0/002072_2014-06-24_21-48-06_260595134347_rgbf000115-resize_0-target.png,250.0,4.702,4.702,0.0,5110,1023,242,999,250,500,,757433,32,Man
71,133571,DepthScenes,v2_duration_discrimination,discrim_jsons/Discrim250_randls_0.json,http://54.235.29.9/FacialAge/BNav_EC2/DepthDuration/v2_depth_discrimination_MTurk/v2_DepthDiscrim_HTML.html#204,204,1366,768,1366,768,9-17-2022,11-49-0,72,depth_discrimination_stimuli/001011_2014-06-08_23-18-54_260595134347_rgbf000044-resize_4/001011_2014-06-08_23-18-54_260595134347_rgbf000044-resize_4-target.png,depth_discrimination_stimuli/002875_2014-06-01_15-19-00_094959634447_rgbf000151-resize_1/002875_2014-06-01_15-19-00_094959634447_rgbf000151-resize_1-target.png,250.0,2.4730000000000003,1.9675,1.0,8141,1015,250,1000,248,500,,757433,32,Man
72,133571,DepthScenes,v2_duration_discrimination,discrim_jsons/Discrim250_randls_0.json,http://54.235.29.9/FacialAge/BNav_EC2/DepthDuration/v2_depth_discrimination_MTurk/v2_DepthDiscrim_HTML.html#204,204,1366,768,1366,768,9-17-2022,11-49-0,73,depth_discrimination_stimuli/001150_2014-06-17_15-27-34_260595134347_rgbf000108-resize_2/001150_2014-06-17_15-27-34_260595134347_rgbf000108-resize_2-target.png,depth_discrimination_stimuli/000665_2014-06-09_20-42-35_260595134347_rgbf000110-resize_1/000665_2014-06-09_20-42-35_260595134347_rgbf000110-resize_1-target.png,250.0,4.0325,3.057,3.0,3640,1016,267,982,250,500,,757433,32,Man
73,133571,DepthScenes,v2_duration_discrimination,discrim_jsons/Discrim250_randls_0.json,http://54.235.29.9/FacialAge/BNav_EC2/DepthDuration/v2_depth_discrimination_MTurk/v2_DepthDiscrim_HTML.html#204,204,1366,768,1366,768,9-17-2022,11-49-0,74,depth_discrimination_stimuli/001110_2014-06-15_17-25-28_260595134347_rgbf000150-resize_1/001110_2014-06-15_17-25-28_260595134347_rgbf000150-resize_1-target.png,depth_discrimination_stimuli/000927_2014-06-09_16-32-30_260595134347_rgbf000123-resize_3/000927_2014-06-09_16-32-30_260595134347_rgbf000123-resize_3-target.png,250.0,1.7115,2.6785,0.0,5566,1016,249,1000,265,484,,757433,32,Man
74,133571,DepthScenes,v2_duration_discrimination,discrim_jsons/Discrim250_randls_0.json,http://54.235.29.9/FacialAge/BNav_EC2/DepthDuration/v2_depth_discrimination_MTurk/v2_DepthDiscrim_HTML.html#204,204,1366,768,1366,768,9-17-2022,11-49-0,75,depth_discrimination_stimuli/000773_2014-06-08_22-24-54_260595134347_rgbf000093-resize_1/000773_2014-06-08_22-24-54_260595134347_rgbf000093-resize_1-target.png,depth_discrimination_stimuli/002414_2014-06-28_20-24-58_260595134347_rgbf000067-resize_4/002414_2014-06-28_20-24-58_260595134347_rgbf000067-resize_4-target.png,250.0,4.973,4.363,1.0,2375,1011,250,1000,248,500,,757433,32,Man
75,133571,DepthScenes,v2_duration_discrimination,discrim_jsons/Discrim250_randls_0.json,http://54.235.29.9/FacialAge/BNav_EC2/DepthDuration/v2_depth_discrimination_MTurk/v2_DepthDiscrim_HTML.html#204,204,1366,768,1366,768,9-17-2022,11-49-0,76,depth_discrimination_stimuli/000470_2014-06-09_19-42-40_260595134347_rgbf000094-resize_1/000470_2014-06-09_19-42-40_260595134347_rgbf000094-resize_1-target.png,depth_discrimination_stimuli/000109_2014-05-14_23-41-52_260595134347_rgbf000035-resize_9/000109_2014-05-14_23-41-52_260595134347_rgbf000035-resize_9-target.png,250.0,1.831,1.3545,0.0,2859,1016,249,1000,265,485,,757433,32,Man
76,133571,DepthScenes,v2_duration_discrimination,discrim_jsons/Discrim250_randls_0.json,http://54.235.29.9/FacialAge/BNav_EC2/DepthDuration/v2_depth_discrimination_MTurk/v2_DepthDiscrim_HTML.html#204,204,1366,768,1366,768,9-17-2022,11-49-0,77,depth_discrimination_stimuli/001498_2014-06-19_17-45-14_260595134347_rgbf000129-resize_4/001498_2014-06-19_17-45-14_260595134347_rgbf000129-resize_4-target.png,depth_discrimination_stimuli/001498_2014-06-19_17-45-14_260595134347_rgbf000129-resize_4/001498_2014-06-19_17-45-14_260595134347_rgbf000129-resize_4-target.png,250.0,1.4075,1.4075,0.0,2516,1016,238,1010,250,500,,757433,32,Man
77,133571,DepthScenes,v2_duration_discrimination,discrim_jsons/Discrim250_randls_0.json,http://54.235.29.9/FacialAge/BNav_EC2/DepthDuration/v2_depth_discrimination_MTurk/v2_DepthDiscrim_HTML.html#204,204,1366,768,1366,768,9-17-2022,11-49-0,78,depth_discrimination_stimuli/000436_2014-06-09_22-25-11_260595134347_rgbf000137-resize_1/000436_2014-06-09_22-25-11_260595134347_rgbf000137-resize_1-target.png,depth_discrimination_stimuli/002444_2014-06-28_20-32-08_260595134347_rgbf000027-resize_0/002444_2014-06-28_20-32-08_260595134347_rgbf000027-resize_0-target.png,250.0,4.0705,4.388999999999999,3.0,2172,1009,249,1000,240,503,,757433,32,Man
78,133571,DepthScenes,v2_duration_discrimination,discrim_jsons/Discrim250_randls_0.json,http://54.235.29.9/FacialAge/BNav_EC2/DepthDuration/v2_depth_discrimination_MTurk/v2_DepthDiscrim_HTML.html#204,204,1366,768,1366,768,9-17-2022,11-49-0,79,depth_discrimination_stimuli/000493_2014-06-09_21-01-18_260595134347_rgbf000196-resize_3/000493_2014-06-09_21-01-18_260595134347_rgbf000196-resize_3-target.png,depth_discrimination_stimuli/000191_2014-05-12_17-07-38_260595134347_rgbf000199-resize_0/000191_2014-05-12_17-07-38_260595134347_rgbf000199-resize_0-target.png,250.0,3.44,3.7995,1.0,1344,1021,259,1000,248,488,,757433,32,Man
79,133571,DepthScenes,v2_duration_discrimination,discrim_jsons/Discrim250_randls_0.json,http://54.235.29.9/FacialAge/BNav_EC2/DepthDuration/v2_depth_discrimination_MTurk/v2_DepthDiscrim_HTML.html#204,204,1366,768,1366,768,9-17-2022,11-49-0,80,depth_discrimination_stimuli/001092_2014-06-15_17-34-58_260595134347_rgbf000171-resize_3/001092_2014-06-15_17-34-58_260595134347_rgbf000171-resize_3-target.png,depth_discrimination_stimuli/002545_2014-06-24_13-38-53_094959634447_rgbf000080-resize_4/002545_2014-06-24_13-38-53_094959634447_rgbf000080-resize_4-target.png,250.0,2.6935,1.9205,1.0,4781,1005,258,1001,248,501,,757433,32,Man
80,133571,DepthScenes,v2_duration_discrimination,discrim_jsons/Discrim250_randls_0.json,http://54.235.29.9/FacialAge/BNav_EC2/DepthDuration/v2_depth_discrimination_MTurk/v2_DepthDiscrim_HTML.html#204,204,1366,768,1366,768,9-17-2022,11-49-0,81,depth_discrimination_stimuli/001158_2014-06-17_15-32-16_260595134347_rgbf000138-resize_2/001158_2014-06-17_15-32-16_260595134347_rgbf000138-resize_2-target.png,depth_discrimination_stimuli/000556_2014-06-09_22-42-56_260595134347_rgbf000214-resize_1/000556_2014-06-09_22-42-56_260595134347_rgbf000214-resize_1-target.png,250.0,4.5315,4.8415,3.0,5063,1015,248,1000,251,499,,757433,32,Man
81,133571,DepthScenes,v2_duration_discrimination,discrim_jsons/Discrim250_randls_0.json,http://54.235.29.9/FacialAge/BNav_EC2/DepthDuration/v2_depth_discrimination_MTurk/v2_DepthDiscrim_HTML.html#204,204,1366,768,1366,768,9-17-2022,11-49-0,82,depth_discrimination_stimuli/003534_2014-05-22_15-06-10_094959634447_rgbf000102-resize_4/003534_2014-05-22_15-06-10_094959634447_rgbf000102-resize_4-target.png,depth_discrimination_stimuli/002637_2014-06-24_14-51-13_094959634447_rgbf000066-resize_4/002637_2014-06-24_14-51-13_094959634447_rgbf000066-resize_4-target.png,250.0,1.426,1.9955,0.0,3562,1015,248,1001,250,499,,757433,32,Man
82,133571,DepthScenes,v2_duration_discrimination,discrim_jsons/Discrim250_randls_0.json,http://54.235.29.9/FacialAge/BNav_EC2/DepthDuration/v2_depth_discrimination_MTurk/v2_DepthDiscrim_HTML.html#204,204,1366,768,1366,768,9-17-2022,11-49-0,83,depth_discrimination_stimuli/003492_2014-05-21_15-50-55_094959634447_rgbf000828-resize_1/003492_2014-05-21_15-50-55_094959634447_rgbf000828-resize_1-target.png,depth_discrimination_stimuli/002568_2014-06-24_13-59-21_094959634447_rgbf000062-resize_4/002568_2014-06-24_13-59-21_094959634447_rgbf000062-resize_4-target.png,250.0,4.06875,3.015,1.0,4162,1015,241,1001,248,500,,757433,32,Man
83,133571,DepthScenes,v2_duration_discrimination,discrim_jsons/Discrim250_randls_0.json,http://54.235.29.9/FacialAge/BNav_EC2/DepthDuration/v2_depth_discrimination_MTurk/v2_DepthDiscrim_HTML.html#204,204,1366,768,1366,768,9-17-2022,11-49-0,84,depth_discrimination_stimuli/001066_2014-06-08_22-03-20_260595134347_rgbf000066-resize_4/001066_2014-06-08_22-03-20_260595134347_rgbf000066-resize_4-target.png,depth_discrimination_stimuli/000742_2014-06-08_18-48-09_260595134347_rgbf000164-resize_4/000742_2014-06-08_18-48-09_260595134347_rgbf000164-resize_4-target.png,250.0,4.2330000000000005,4.632,1.0,5619,1005,238,1002,246,502,,757433,32,Man
84,133571,DepthScenes,v2_duration_discrimination,discrim_jsons/Discrim250_randls_0.json,http://54.235.29.9/FacialAge/BNav_EC2/DepthDuration/v2_depth_discrimination_MTurk/v2_DepthDiscrim_HTML.html#204,204,1366,768,1366,768,9-17-2022,11-49-0,85,depth_discrimination_stimuli/002039_2014-06-24_20-22-38_260595134347_rgbf000084-resize_1/002039_2014-06-24_20-22-38_260595134347_rgbf000084-resize_1-target.png,depth_discrimination_stimuli/002103_2014-06-25_20-00-40_260595134347_rgbf000049-resize_0/002103_2014-06-25_20-00-40_260595134347_rgbf000049-resize_0-target.png,250.0,4.408,4.105,1.0,3817,1001,249,999,250,500,,757433,32,Man
85,133571,DepthScenes,v2_duration_discrimination,discrim_jsons/Discrim250_randls_0.json,http://54.235.29.9/FacialAge/BNav_EC2/DepthDuration/v2_depth_discrimination_MTurk/v2_DepthDiscrim_HTML.html#204,204,1366,768,1366,768,9-17-2022,11-49-0,86,depth_discrimination_stimuli/000758_2014-06-08_22-05-08_260595134347_rgbf000085-resize_0/000758_2014-06-08_22-05-08_260595134347_rgbf000085-resize_0-target.png,depth_discrimination_stimuli/000854_2014-06-09_19-43-13_260595134347_rgbf000066-resize_0/000854_2014-06-09_19-43-13_260595134347_rgbf000066-resize_0-target.png,250.0,3.3810000000000002,3.068,1.0,3734,1015,253,996,248,490,,757433,32,Man
86,133571,DepthScenes,v2_duration_discrimination,discrim_jsons/Discrim250_randls_0.json,http://54.235.29.9/FacialAge/BNav_EC2/DepthDuration/v2_depth_discrimination_MTurk/v2_DepthDiscrim_HTML.html#204,204,1366,768,1366,768,9-17-2022,11-49-0,86,,,,,,,3734,1015,253,996,248,490,,757433,32,Man
