,subjID,experimentName,versionName,sequenceName,url,selected_row,windowWidth,windowHeight,screenWidth,screenHeight,startDate,startTime,trial,stimulus_0,stimulus_1,duration,actual_depth_0,actual_depth_1,discrim_choice,trial_RT,log_fixation,log_sceneDuration1,log_mask1,log_sceneDuration2,log_mask2,experimentTime,totalTime,age,gender
0,176362,DepthScenes,v2_duration_discrimination,discrim_jsons/Discrim1000_randls_51.json,http://54.235.29.9/FacialAge/BNav_EC2/DepthDuration/v2_depth_discrimination_MTurk/v2_DepthDiscrim_HTML.html#128,128,1366,657,1366,768,9-5-2022,11-0-10,1,depth_discrimination_stimuli/001810_2014-06-26_20-51-35_260595134347_rgbf000040-resize_3/001810_2014-06-26_20-51-35_260595134347_rgbf000040-resize_3-target.png,depth_discrimination_stimuli/003010_2014-06-15_12-54-35_094959634447_rgbf000112-resize_0/003010_2014-06-15_12-54-35_094959634447_rgbf000112-resize_0-target.png,1000.0,2.2525,3.1185,3.0,4799,1010,983,999,986,518,,1004875,1959,Man
1,176362,DepthScenes,v2_duration_discrimination,discrim_jsons/Discrim1000_randls_51.json,http://54.235.29.9/FacialAge/BNav_EC2/DepthDuration/v2_depth_discrimination_MTurk/v2_DepthDiscrim_HTML.html#128,128,1366,657,1366,768,9-5-2022,11-0-10,2,depth_discrimination_stimuli/001059_2014-06-08_21-53-27_260595134347_rgbf000061-resize_4/001059_2014-06-08_21-53-27_260595134347_rgbf000061-resize_4-target.png,depth_discrimination_stimuli/001032_2014-06-08_13-23-17_260595134347_rgbf000021-resize_3/001032_2014-06-08_13-23-17_260595134347_rgbf000021-resize_3-target.png,1000.0,2.4185,3.2725,0.0,2805,1002,993,999,984,532,,1004875,1959,Man
2,176362,DepthScenes,v2_duration_discrimination,discrim_jsons/Discrim1000_randls_51.json,http://54.235.29.9/FacialAge/BNav_EC2/DepthDuration/v2_depth_discrimination_MTurk/v2_DepthDiscrim_HTML.html#128,128,1366,657,1366,768,9-5-2022,11-0-10,3,depth_discrimination_stimuli/002043_2014-06-24_20-29-38_260595134347_rgbf000039-resize_4/002043_2014-06-24_20-29-38_260595134347_rgbf000039-resize_4-target.png,depth_discrimination_stimuli/003048_2014-06-15_13-49-43_094959634447_rgbf000150-resize_1/003048_2014-06-15_13-49-43_094959634447_rgbf000150-resize_1-target.png,1000.0,2.8435,4.0035,0.0,1569,1078,925,1001,982,501,,1004875,1959,Man
3,176362,DepthScenes,v2_duration_discrimination,discrim_jsons/Discrim1000_randls_51.json,http://54.235.29.9/FacialAge/BNav_EC2/DepthDuration/v2_depth_discrimination_MTurk/v2_DepthDiscrim_HTML.html#128,128,1366,657,1366,768,9-5-2022,11-0-10,4,depth_discrimination_stimuli/000486_2014-06-09_20-47-20_260595134347_rgbf000143-resize_2/000486_2014-06-09_20-47-20_260595134347_rgbf000143-resize_2-target.png,depth_discrimination_stimuli/003083_2014-06-15_15-21-03_094959634447_rgbf000063-resize_1/003083_2014-06-15_15-21-03_094959634447_rgbf000063-resize_1-target.png,1000.0,4.8325,4.1405,3.0,5689,1091,933,979,1038,491,,1004875,1959,Man
4,176362,DepthScenes,v2_duration_discrimination,discrim_jsons/Discrim1000_randls_51.json,http://54.235.29.9/FacialAge/BNav_EC2/DepthDuration/v2_depth_discrimination_MTurk/v2_DepthDiscrim_HTML.html#128,128,1366,657,1366,768,9-5-2022,11-0-10,5,depth_discrimination_stimuli/001133_2014-06-17_14-49-16_260595134347_rgbf000100-resize_0/001133_2014-06-17_14-49-16_260595134347_rgbf000100-resize_0-target.png,depth_discrimination_stimuli/001132_2014-06-17_14-48-54_260595134347_rgbf000100-resize_2/001132_2014-06-17_14-48-54_260595134347_rgbf000100-resize_2-target.png,1000.0,4.2115,3.753,1.0,1786,1001,1055,934,1001,512,,1004875,1959,Man
5,176362,DepthScenes,v2_duration_discrimination,discrim_jsons/Discrim1000_randls_51.json,http://54.235.29.9/FacialAge/BNav_EC2/DepthDuration/v2_depth_discrimination_MTurk/v2_DepthDiscrim_HTML.html#128,128,1366,657,1366,768,9-5-2022,11-0-10,6,depth_discrimination_stimuli/000906_2014-06-08_13-35-43_260595134347_rgbf000155-resize_1/000906_2014-06-08_13-35-43_260595134347_rgbf000155-resize_1-target.png,depth_discrimination_stimuli/002805_2014-06-22_19-54-03_094959634447_rgbf000079-resize_1/002805_2014-06-22_19-54-03_094959634447_rgbf000079-resize_1-target.png,1000.0,2.8489999999999998,3.1439999999999997,1.0,2615,1037,954,1000,987,500,,1004875,1959,Man
6,176362,DepthScenes,v2_duration_discrimination,discrim_jsons/Discrim1000_randls_51.json,http://54.235.29.9/FacialAge/BNav_EC2/DepthDuration/v2_depth_discrimination_MTurk/v2_DepthDiscrim_HTML.html#128,128,1366,657,1366,768,9-5-2022,11-0-10,7,depth_discrimination_stimuli/000569_2014-06-09_22-51-47_260595134347_rgbf000141-resize_3/000569_2014-06-09_22-51-47_260595134347_rgbf000141-resize_3-target.png,depth_discrimination_stimuli/000569_2014-06-09_22-51-47_260595134347_rgbf000141-resize_3/000569_2014-06-09_22-51-47_260595134347_rgbf000141-resize_3-target.png,1000.0,4.512,4.512,2.0,6548,1001,1033,974,983,511,,1004875,1959,Man
7,176362,DepthScenes,v2_duration_discrimination,discrim_jsons/Discrim1000_randls_51.json,http://54.235.29.9/FacialAge/BNav_EC2/DepthDuration/v2_depth_discrimination_MTurk/v2_DepthDiscrim_HTML.html#128,128,1366,657,1366,768,9-5-2022,11-0-10,8,depth_discrimination_stimuli/002549_2014-06-24_13-41-39_094959634447_rgbf000022-resize_3/002549_2014-06-24_13-41-39_094959634447_rgbf000022-resize_3-target.png,depth_discrimination_stimuli/002750_2014-06-22_19-08-03_094959634447_rgbf000094-resize_4/002750_2014-06-22_19-08-03_094959634447_rgbf000094-resize_4-target.png,1000.0,1.476,2.354,1.0,2536,1058,944,1048,1036,425,,1004875,1959,Man
8,176362,DepthScenes,v2_duration_discrimination,discrim_jsons/Discrim1000_randls_51.json,http://54.235.29.9/FacialAge/BNav_EC2/DepthDuration/v2_depth_discrimination_MTurk/v2_DepthDiscrim_HTML.html#128,128,1366,657,1366,768,9-5-2022,11-0-10,9,depth_discrimination_stimuli/000436_2014-06-09_22-25-11_260595134347_rgbf000137-resize_1/000436_2014-06-09_22-25-11_260595134347_rgbf000137-resize_1-target.png,depth_discrimination_stimuli/002444_2014-06-28_20-32-08_260595134347_rgbf000027-resize_0/002444_2014-06-28_20-32-08_260595134347_rgbf000027-resize_0-target.png,1000.0,4.0705,4.388999999999999,0.0,1693,1013,1049,993,987,463,,1004875,1959,Man
9,176362,DepthScenes,v2_duration_discrimination,discrim_jsons/Discrim1000_randls_51.json,http://54.235.29.9/FacialAge/BNav_EC2/DepthDuration/v2_depth_discrimination_MTurk/v2_DepthDiscrim_HTML.html#128,128,1366,657,1366,768,9-5-2022,11-0-10,10,depth_discrimination_stimuli/002445_2014-06-28_20-32-16_260595134347_rgbf000029-resize_4/002445_2014-06-28_20-32-16_260595134347_rgbf000029-resize_4-target.png,depth_discrimination_stimuli/000780_2014-06-08_22-28-29_260595134347_rgbf000126-resize_1/000780_2014-06-08_22-28-29_260595134347_rgbf000126-resize_1-target.png,1000.0,2.5315,3.3825,0.0,1585,1069,983,961,1016,498,,1004875,1959,Man
10,176362,DepthScenes,v2_duration_discrimination,discrim_jsons/Discrim1000_randls_51.json,http://54.235.29.9/FacialAge/BNav_EC2/DepthDuration/v2_depth_discrimination_MTurk/v2_DepthDiscrim_HTML.html#128,128,1366,657,1366,768,9-5-2022,11-0-10,11,depth_discrimination_stimuli/001175_2014-06-17_15-45-55_260595134347_rgbf000129-resize_4/001175_2014-06-17_15-45-55_260595134347_rgbf000129-resize_4-target.png,depth_discrimination_stimuli/003490_2014-05-21_15-50-11_094959634447_rgbf000101-resize_3/003490_2014-05-21_15-50-11_094959634447_rgbf000101-resize_3-target.png,1000.0,4.255,3.6445,1.0,1666,1003,1004,998,986,507,,1004875,1959,Man
11,176362,DepthScenes,v2_duration_discrimination,discrim_jsons/Discrim1000_randls_51.json,http://54.235.29.9/FacialAge/BNav_EC2/DepthDuration/v2_depth_discrimination_MTurk/v2_DepthDiscrim_HTML.html#128,128,1366,657,1366,768,9-5-2022,11-0-10,12,depth_discrimination_stimuli/001570_2014-06-20_17-21-09_260595134347_rgbf000135-resize_4/001570_2014-06-20_17-21-09_260595134347_rgbf000135-resize_4-target.png,depth_discrimination_stimuli/001392_2014-06-19_16-07-59_260595134347_rgbf000046-resize_1/001392_2014-06-19_16-07-59_260595134347_rgbf000046-resize_1-target.png,1000.0,4.467,4.135,1.0,2671,1018,978,984,1067,427,,1004875,1959,Man
12,176362,DepthScenes,v2_duration_discrimination,discrim_jsons/Discrim1000_randls_51.json,http://54.235.29.9/FacialAge/BNav_EC2/DepthDuration/v2_depth_discrimination_MTurk/v2_DepthDiscrim_HTML.html#128,128,1366,657,1366,768,9-5-2022,11-0-10,13,depth_discrimination_stimuli/000368_2014-06-09_15-53-01_260595134347_rgbf000155-resize_2/000368_2014-06-09_15-53-01_260595134347_rgbf000155-resize_2-target.png,depth_discrimination_stimuli/002678_2014-06-13_16-15-32_094959634447_rgbf000151-resize_6/002678_2014-06-13_16-15-32_094959634447_rgbf000151-resize_6-target.png,1000.0,2.4859999999999998,2.1830000000000003,0.0,1499,1103,939,1009,926,500,,1004875,1959,Man
13,176362,DepthScenes,v2_duration_discrimination,discrim_jsons/Discrim1000_randls_51.json,http://54.235.29.9/FacialAge/BNav_EC2/DepthDuration/v2_depth_discrimination_MTurk/v2_DepthDiscrim_HTML.html#128,128,1366,657,1366,768,9-5-2022,11-0-10,14,depth_discrimination_stimuli/002988_2014-06-15_12-24-20_094959634447_rgbf000150-resize_1/002988_2014-06-15_12-24-20_094959634447_rgbf000150-resize_1-target.png,depth_discrimination_stimuli/001052_2014-06-08_18-24-54_260595134347_rgbf000130-resize_1/001052_2014-06-08_18-24-54_260595134347_rgbf000130-resize_1-target.png,1000.0,4.7669999999999995,4.1045,0.0,1655,1003,996,1052,1072,412,,1004875,1959,Man
14,176362,DepthScenes,v2_duration_discrimination,discrim_jsons/Discrim1000_randls_51.json,http://54.235.29.9/FacialAge/BNav_EC2/DepthDuration/v2_depth_discrimination_MTurk/v2_DepthDiscrim_HTML.html#128,128,1366,657,1366,768,9-5-2022,11-0-10,15,depth_discrimination_stimuli/002375_2014-06-28_20-13-44_260595134347_rgbf000032-resize_1/002375_2014-06-28_20-13-44_260595134347_rgbf000032-resize_1-target.png,depth_discrimination_stimuli/002657_2014-06-13_15-29-54_094959634447_rgbf000150-resize_1/002657_2014-06-13_15-29-54_094959634447_rgbf000150-resize_1-target.png,1000.0,4.0175,4.919,1.0,2397,1026,999,1031,986,469,,1004875,1959,Man
15,176362,DepthScenes,v2_duration_discrimination,discrim_jsons/Discrim1000_randls_51.json,http://54.235.29.9/FacialAge/BNav_EC2/DepthDuration/v2_depth_discrimination_MTurk/v2_DepthDiscrim_HTML.html#128,128,1366,657,1366,768,9-5-2022,11-0-10,16,depth_discrimination_stimuli/000375_2014-06-08_11-17-29_260595134347_rgbf000133-resize_2/000375_2014-06-08_11-17-29_260595134347_rgbf000133-resize_2-target.png,depth_discrimination_stimuli/000375_2014-06-08_11-17-29_260595134347_rgbf000133-resize_2/000375_2014-06-08_11-17-29_260595134347_rgbf000133-resize_2-target.png,1000.0,4.718,4.718,2.0,3179,1042,1050,910,1140,448,,1004875,1959,Man
16,176362,DepthScenes,v2_duration_discrimination,discrim_jsons/Discrim1000_randls_51.json,http://54.235.29.9/FacialAge/BNav_EC2/DepthDuration/v2_depth_discrimination_MTurk/v2_DepthDiscrim_HTML.html#128,128,1366,657,1366,768,9-5-2022,11-0-10,17,depth_discrimination_stimuli/000773_2014-06-08_22-24-54_260595134347_rgbf000093-resize_1/000773_2014-06-08_22-24-54_260595134347_rgbf000093-resize_1-target.png,depth_discrimination_stimuli/002414_2014-06-28_20-24-58_260595134347_rgbf000067-resize_4/002414_2014-06-28_20-24-58_260595134347_rgbf000067-resize_4-target.png,1000.0,4.973,4.363,0.0,2201,1067,1009,985,968,514,,1004875,1959,Man
17,176362,DepthScenes,v2_duration_discrimination,discrim_jsons/Discrim1000_randls_51.json,http://54.235.29.9/FacialAge/BNav_EC2/DepthDuration/v2_depth_discrimination_MTurk/v2_DepthDiscrim_HTML.html#128,128,1366,657,1366,768,9-5-2022,11-0-10,18,depth_discrimination_stimuli/000506_2014-06-08_23-21-00_260595134347_rgbf000070-resize_7/000506_2014-06-08_23-21-00_260595134347_rgbf000070-resize_7-target.png,depth_discrimination_stimuli/003079_2014-06-15_15-18-20_094959634447_rgbf000152-resize_8/003079_2014-06-15_15-18-20_094959634447_rgbf000152-resize_8-target.png,1000.0,4.0585,2.8775,1.0,2002,1003,1003,1000,967,502,,1004875,1959,Man
18,176362,DepthScenes,v2_duration_discrimination,discrim_jsons/Discrim1000_randls_51.json,http://54.235.29.9/FacialAge/BNav_EC2/DepthDuration/v2_depth_discrimination_MTurk/v2_DepthDiscrim_HTML.html#128,128,1366,657,1366,768,9-5-2022,11-0-10,19,depth_discrimination_stimuli/001011_2014-06-08_23-18-54_260595134347_rgbf000044-resize_4/001011_2014-06-08_23-18-54_260595134347_rgbf000044-resize_4-target.png,depth_discrimination_stimuli/002875_2014-06-01_15-19-00_094959634447_rgbf000151-resize_1/002875_2014-06-01_15-19-00_094959634447_rgbf000151-resize_1-target.png,1000.0,2.4730000000000003,1.9675,1.0,2242,1063,972,1024,982,474,,1004875,1959,Man
19,176362,DepthScenes,v2_duration_discrimination,discrim_jsons/Discrim1000_randls_51.json,http://54.235.29.9/FacialAge/BNav_EC2/DepthDuration/v2_depth_discrimination_MTurk/v2_DepthDiscrim_HTML.html#128,128,1366,657,1366,768,9-5-2022,11-0-10,20,depth_discrimination_stimuli/001029_2014-06-08_13-17-57_260595134347_rgbf000065-resize_1/001029_2014-06-08_13-17-57_260595134347_rgbf000065-resize_1-target.png,depth_discrimination_stimuli/000677_2014-06-08_23-10-32_260595134347_rgbf000158-resize_6/000677_2014-06-08_23-10-32_260595134347_rgbf000158-resize_6-target.png,1000.0,3.0835,3.556,1.0,1759,1003,1028,1009,943,531,,1004875,1959,Man
20,176362,DepthScenes,v2_duration_discrimination,discrim_jsons/Discrim1000_randls_51.json,http://54.235.29.9/FacialAge/BNav_EC2/DepthDuration/v2_depth_discrimination_MTurk/v2_DepthDiscrim_HTML.html#128,128,1366,657,1366,768,9-5-2022,11-0-10,21,depth_discrimination_stimuli/000009_2014-05-26_14-32-05_260595134347_rgbf000034-resize_3/000009_2014-05-26_14-32-05_260595134347_rgbf000034-resize_3-target.png,depth_discrimination_stimuli/001828_2014-06-26_21-40-03_260595134347_rgbf000024-resize_0/001828_2014-06-26_21-40-03_260595134347_rgbf000024-resize_0-target.png,1000.0,3.8715,4.8260000000000005,0.0,1820,1003,987,1053,1039,455,,1004875,1959,Man
21,176362,DepthScenes,v2_duration_discrimination,discrim_jsons/Discrim1000_randls_51.json,http://54.235.29.9/FacialAge/BNav_EC2/DepthDuration/v2_depth_discrimination_MTurk/v2_DepthDiscrim_HTML.html#128,128,1366,657,1366,768,9-5-2022,11-0-10,22,depth_discrimination_stimuli/000736_2014-06-08_18-24-15_260595134347_rgbf000206-resize_3/000736_2014-06-08_18-24-15_260595134347_rgbf000206-resize_3-target.png,depth_discrimination_stimuli/000137_2014-05-20_17-04-49_260595134347_rgbf000120-resize_1/000137_2014-05-20_17-04-49_260595134347_rgbf000120-resize_1-target.png,1000.0,3.515,3.786,1.0,2562,1089,904,996,1007,533,,1004875,1959,Man
22,176362,DepthScenes,v2_duration_discrimination,discrim_jsons/Discrim1000_randls_51.json,http://54.235.29.9/FacialAge/BNav_EC2/DepthDuration/v2_depth_discrimination_MTurk/v2_DepthDiscrim_HTML.html#128,128,1366,657,1366,768,9-5-2022,11-0-10,23,depth_discrimination_stimuli/002118_2014-06-25_20-32-08_260595134347_rgbf000078-resize_1/002118_2014-06-25_20-32-08_260595134347_rgbf000078-resize_1-target.png,depth_discrimination_stimuli/001516_2014-06-20_16-25-09_260595134347_rgbf000076-resize_2/001516_2014-06-20_16-25-09_260595134347_rgbf000076-resize_2-target.png,1000.0,2.6460000000000004,1.7445,0.0,2334,1031,1060,957,919,500,,1004875,1959,Man
23,176362,DepthScenes,v2_duration_discrimination,discrim_jsons/Discrim1000_randls_51.json,http://54.235.29.9/FacialAge/BNav_EC2/DepthDuration/v2_depth_discrimination_MTurk/v2_DepthDiscrim_HTML.html#128,128,1366,657,1366,768,9-5-2022,11-0-10,24,depth_discrimination_stimuli/000787_2014-06-08_22-33-53_260595134347_rgbf000175-resize_1/000787_2014-06-08_22-33-53_260595134347_rgbf000175-resize_1-target.png,depth_discrimination_stimuli/000787_2014-06-08_22-33-53_260595134347_rgbf000175-resize_1/000787_2014-06-08_22-33-53_260595134347_rgbf000175-resize_1-target.png,1000.0,4.784,4.784,2.0,1635,1001,1088,993,940,508,,1004875,1959,Man
24,176362,DepthScenes,v2_duration_discrimination,discrim_jsons/Discrim1000_randls_51.json,http://54.235.29.9/FacialAge/BNav_EC2/DepthDuration/v2_depth_discrimination_MTurk/v2_DepthDiscrim_HTML.html#128,128,1366,657,1366,768,9-5-2022,11-0-10,25,depth_discrimination_stimuli/001244_2014-06-17_16-47-45_260595134347_rgbf000030-resize_4/001244_2014-06-17_16-47-45_260595134347_rgbf000030-resize_4-target.png,depth_discrimination_stimuli/003495_2014-05-21_16-01-51_094959634447_rgbf000100-resize_3/003495_2014-05-21_16-01-51_094959634447_rgbf000100-resize_3-target.png,1000.0,2.0425,1.6255,0.0,1786,1002,999,1000,1047,505,,1004875,1959,Man
25,176362,DepthScenes,v2_duration_discrimination,discrim_jsons/Discrim1000_randls_51.json,http://54.235.29.9/FacialAge/BNav_EC2/DepthDuration/v2_depth_discrimination_MTurk/v2_DepthDiscrim_HTML.html#128,128,1366,657,1366,768,9-5-2022,11-0-10,26,depth_discrimination_stimuli/003492_2014-05-21_15-50-55_094959634447_rgbf000828-resize_1/003492_2014-05-21_15-50-55_094959634447_rgbf000828-resize_1-target.png,depth_discrimination_stimuli/002568_2014-06-24_13-59-21_094959634447_rgbf000062-resize_4/002568_2014-06-24_13-59-21_094959634447_rgbf000062-resize_4-target.png,1000.0,4.06875,3.015,0.0,1580,1070,932,1014,971,501,,1004875,1959,Man
26,176362,DepthScenes,v2_duration_discrimination,discrim_jsons/Discrim1000_randls_51.json,http://54.235.29.9/FacialAge/BNav_EC2/DepthDuration/v2_depth_discrimination_MTurk/v2_DepthDiscrim_HTML.html#128,128,1366,657,1366,768,9-5-2022,11-0-10,27,depth_discrimination_stimuli/002213_2014-06-28_18-37-58_260595134347_rgbf000055-resize_1/002213_2014-06-28_18-37-58_260595134347_rgbf000055-resize_1-target.png,depth_discrimination_stimuli/000691_2014-06-08_13-08-50_260595134347_rgbf000132-resize_3/000691_2014-06-08_13-08-50_260595134347_rgbf000132-resize_3-target.png,1000.0,3.62,4.1530000000000005,1.0,2365,1002,1013,973,993,494,,1004875,1959,Man
27,176362,DepthScenes,v2_duration_discrimination,discrim_jsons/Discrim1000_randls_51.json,http://54.235.29.9/FacialAge/BNav_EC2/DepthDuration/v2_depth_discrimination_MTurk/v2_DepthDiscrim_HTML.html#128,128,1366,657,1366,768,9-5-2022,11-0-10,28,depth_discrimination_stimuli/001806_2014-06-26_20-50-20_260595134347_rgbf000091-resize_1/001806_2014-06-26_20-50-20_260595134347_rgbf000091-resize_1-target.png,depth_discrimination_stimuli/001617_2014-06-20_11-35-32_260595134347_rgbf000066-resize_1/001617_2014-06-20_11-35-32_260595134347_rgbf000066-resize_1-target.png,1000.0,2.7305,3.7910000000000004,0.0,1988,1016,985,1002,986,500,,1004875,1959,Man
28,176362,DepthScenes,v2_duration_discrimination,discrim_jsons/Discrim1000_randls_51.json,http://54.235.29.9/FacialAge/BNav_EC2/DepthDuration/v2_depth_discrimination_MTurk/v2_DepthDiscrim_HTML.html#128,128,1366,657,1366,768,9-5-2022,11-0-10,29,depth_discrimination_stimuli/002964_2014-06-08_17-46-11_094959634447_rgbf000091-resize_4/002964_2014-06-08_17-46-11_094959634447_rgbf000091-resize_4-target.png,depth_discrimination_stimuli/002136_2014-06-25_21-18-03_260595134347_rgbf000109-resize_3/002136_2014-06-25_21-18-03_260595134347_rgbf000109-resize_3-target.png,1000.0,1.6909999999999998,1.9569999999999999,1.0,2412,1002,993,994,1028,461,,1004875,1959,Man
29,176362,DepthScenes,v2_duration_discrimination,discrim_jsons/Discrim1000_randls_51.json,http://54.235.29.9/FacialAge/BNav_EC2/DepthDuration/v2_depth_discrimination_MTurk/v2_DepthDiscrim_HTML.html#128,128,1366,657,1366,768,9-5-2022,11-0-10,30,depth_discrimination_stimuli/000917_2014-06-09_22-45-29_260595134347_rgbf000149-resize_3/000917_2014-06-09_22-45-29_260595134347_rgbf000149-resize_3-target.png,depth_discrimination_stimuli/002323_2014-06-28_20-01-54_260595134347_rgbf000051-resize_4/002323_2014-06-28_20-01-54_260595134347_rgbf000051-resize_4-target.png,1000.0,4.1865,3.7310000000000003,0.0,4246,1001,987,1000,994,493,,1004875,1959,Man
30,176362,DepthScenes,v2_duration_discrimination,discrim_jsons/Discrim1000_randls_51.json,http://54.235.29.9/FacialAge/BNav_EC2/DepthDuration/v2_depth_discrimination_MTurk/v2_DepthDiscrim_HTML.html#128,128,1366,657,1366,768,9-5-2022,11-0-10,31,depth_discrimination_stimuli/001056_2014-06-08_18-46-44_260595134347_rgbf000068-resize_0/001056_2014-06-08_18-46-44_260595134347_rgbf000068-resize_0-target.png,depth_discrimination_stimuli/002199_2014-06-28_18-33-56_260595134347_rgbf000074-resize_0/002199_2014-06-28_18-33-56_260595134347_rgbf000074-resize_0-target.png,1000.0,2.6625,1.996,1.0,2737,1016,999,985,1008,481,,1004875,1959,Man
31,176362,DepthScenes,v2_duration_discrimination,discrim_jsons/Discrim1000_randls_51.json,http://54.235.29.9/FacialAge/BNav_EC2/DepthDuration/v2_depth_discrimination_MTurk/v2_DepthDiscrim_HTML.html#128,128,1366,657,1366,768,9-5-2022,11-0-10,32,depth_discrimination_stimuli/000929_2014-06-09_16-33-19_260595134347_rgbf000139-resize_0/000929_2014-06-09_16-33-19_260595134347_rgbf000139-resize_0-target.png,depth_discrimination_stimuli/000457_2014-06-08_16-52-43_260595134347_rgbf000199-resize_1/000457_2014-06-08_16-52-43_260595134347_rgbf000199-resize_1-target.png,1000.0,2.8680000000000003,3.6489999999999996,0.0,2196,1004,987,1002,982,503,,1004875,1959,Man
32,176362,DepthScenes,v2_duration_discrimination,discrim_jsons/Discrim1000_randls_51.json,http://54.235.29.9/FacialAge/BNav_EC2/DepthDuration/v2_depth_discrimination_MTurk/v2_DepthDiscrim_HTML.html#128,128,1366,657,1366,768,9-5-2022,11-0-10,33,depth_discrimination_stimuli/000758_2014-06-08_22-05-08_260595134347_rgbf000085-resize_0/000758_2014-06-08_22-05-08_260595134347_rgbf000085-resize_0-target.png,depth_discrimination_stimuli/000854_2014-06-09_19-43-13_260595134347_rgbf000066-resize_0/000854_2014-06-09_19-43-13_260595134347_rgbf000066-resize_0-target.png,1000.0,3.3810000000000002,3.068,1.0,2021,1078,924,999,982,502,,1004875,1959,Man
33,176362,DepthScenes,v2_duration_discrimination,discrim_jsons/Discrim1000_randls_51.json,http://54.235.29.9/FacialAge/BNav_EC2/DepthDuration/v2_depth_discrimination_MTurk/v2_DepthDiscrim_HTML.html#128,128,1366,657,1366,768,9-5-2022,11-0-10,34,depth_discrimination_stimuli/000522_2014-06-08_13-35-06_260595134347_rgbf000244-resize_1/000522_2014-06-08_13-35-06_260595134347_rgbf000244-resize_1-target.png,depth_discrimination_stimuli/002949_2014-06-26_15-57-42_094959634447_rgbf000079-resize_1/002949_2014-06-26_15-57-42_094959634447_rgbf000079-resize_1-target.png,1000.0,2.3715,1.8915,0.0,1497,1019,966,1028,972,498,,1004875,1959,Man
34,176362,DepthScenes,v2_duration_discrimination,discrim_jsons/Discrim1000_randls_51.json,http://54.235.29.9/FacialAge/BNav_EC2/DepthDuration/v2_depth_discrimination_MTurk/v2_DepthDiscrim_HTML.html#128,128,1366,657,1366,768,9-5-2022,11-0-10,35,depth_discrimination_stimuli/001222_2014-06-17_16-24-06_260595134347_rgbf000073-resize_0/001222_2014-06-17_16-24-06_260595134347_rgbf000073-resize_0-target.png,depth_discrimination_stimuli/001222_2014-06-17_16-24-06_260595134347_rgbf000073-resize_0/001222_2014-06-17_16-24-06_260595134347_rgbf000073-resize_0-target.png,1000.0,1.4385,1.4385,2.0,3213,1001,986,1000,987,502,,1004875,1959,Man
35,176362,DepthScenes,v2_duration_discrimination,discrim_jsons/Discrim1000_randls_51.json,http://54.235.29.9/FacialAge/BNav_EC2/DepthDuration/v2_depth_discrimination_MTurk/v2_DepthDiscrim_HTML.html#128,128,1366,657,1366,768,9-5-2022,11-0-10,36,depth_discrimination_stimuli/001055_2014-06-08_18-45-35_260595134347_rgbf000111-resize_4/001055_2014-06-08_18-45-35_260595134347_rgbf000111-resize_4-target.png,depth_discrimination_stimuli/000549_2014-06-08_22-10-24_260595134347_rgbf000247-resize_3/000549_2014-06-08_22-10-24_260595134347_rgbf000247-resize_3-target.png,1000.0,2.4290000000000003,1.841,1.0,2301,1002,1029,958,1013,475,,1004875,1959,Man
36,176362,DepthScenes,v2_duration_discrimination,discrim_jsons/Discrim1000_randls_51.json,http://54.235.29.9/FacialAge/BNav_EC2/DepthDuration/v2_depth_discrimination_MTurk/v2_DepthDiscrim_HTML.html#128,128,1366,657,1366,768,9-5-2022,11-0-10,37,depth_discrimination_stimuli/001110_2014-06-15_17-25-28_260595134347_rgbf000150-resize_1/001110_2014-06-15_17-25-28_260595134347_rgbf000150-resize_1-target.png,depth_discrimination_stimuli/000927_2014-06-09_16-32-30_260595134347_rgbf000123-resize_3/000927_2014-06-09_16-32-30_260595134347_rgbf000123-resize_3-target.png,1000.0,1.7115,2.6785,0.0,1935,1009,991,1016,984,502,,1004875,1959,Man
37,176362,DepthScenes,v2_duration_discrimination,discrim_jsons/Discrim1000_randls_51.json,http://54.235.29.9/FacialAge/BNav_EC2/DepthDuration/v2_depth_discrimination_MTurk/v2_DepthDiscrim_HTML.html#128,128,1366,657,1366,768,9-5-2022,11-0-10,38,depth_discrimination_stimuli/003292_2014-05-14_21-53-49_094959634447_rgbf000100-resize_2/003292_2014-05-14_21-53-49_094959634447_rgbf000100-resize_2-target.png,depth_discrimination_stimuli/002639_2014-06-24_14-51-37_094959634447_rgbf000074-resize_4/002639_2014-06-24_14-51-37_094959634447_rgbf000074-resize_4-target.png,1000.0,3.4815,4.0375,0.0,2055,1001,999,988,991,499,,1004875,1959,Man
38,176362,DepthScenes,v2_duration_discrimination,discrim_jsons/Discrim1000_randls_51.json,http://54.235.29.9/FacialAge/BNav_EC2/DepthDuration/v2_depth_discrimination_MTurk/v2_DepthDiscrim_HTML.html#128,128,1366,657,1366,768,9-5-2022,11-0-10,39,depth_discrimination_stimuli/000692_2014-06-08_13-09-42_260595134347_rgbf000199-resize_2/000692_2014-06-08_13-09-42_260595134347_rgbf000199-resize_2-target.png,depth_discrimination_stimuli/001094_2014-06-15_17-36-00_260595134347_rgbf000205-resize_0/001094_2014-06-15_17-36-00_260595134347_rgbf000205-resize_0-target.png,1000.0,3.661,4.2175,0.0,2089,1002,988,1000,1045,490,,1004875,1959,Man
39,176362,DepthScenes,v2_duration_discrimination,discrim_jsons/Discrim1000_randls_51.json,http://54.235.29.9/FacialAge/BNav_EC2/DepthDuration/v2_depth_discrimination_MTurk/v2_DepthDiscrim_HTML.html#128,128,1366,657,1366,768,9-5-2022,11-0-10,40,depth_discrimination_stimuli/001417_2014-06-19_16-25-36_260595134347_rgbf000115-resize_5/001417_2014-06-19_16-25-36_260595134347_rgbf000115-resize_5-target.png,depth_discrimination_stimuli/003081_2014-06-15_15-19-16_094959634447_rgbf000150-resize_1/003081_2014-06-15_15-19-16_094959634447_rgbf000150-resize_1-target.png,1000.0,4.6255,3.9125,1.0,1905,1007,998,991,999,500,,1004875,1959,Man
40,176362,DepthScenes,v2_duration_discrimination,discrim_jsons/Discrim1000_randls_51.json,http://54.235.29.9/FacialAge/BNav_EC2/DepthDuration/v2_depth_discrimination_MTurk/v2_DepthDiscrim_HTML.html#128,128,1366,657,1366,768,9-5-2022,11-0-10,41,depth_discrimination_stimuli/000470_2014-06-09_19-42-40_260595134347_rgbf000094-resize_1/000470_2014-06-09_19-42-40_260595134347_rgbf000094-resize_1-target.png,depth_discrimination_stimuli/000109_2014-05-14_23-41-52_260595134347_rgbf000035-resize_9/000109_2014-05-14_23-41-52_260595134347_rgbf000035-resize_9-target.png,1000.0,1.831,1.3545,1.0,1883,1061,943,997,988,500,,1004875,1959,Man
41,176362,DepthScenes,v2_duration_discrimination,discrim_jsons/Discrim1000_randls_51.json,http://54.235.29.9/FacialAge/BNav_EC2/DepthDuration/v2_depth_discrimination_MTurk/v2_DepthDiscrim_HTML.html#128,128,1366,657,1366,768,9-5-2022,11-0-10,42,depth_discrimination_stimuli/000447_2014-06-08_16-15-46_260595134347_rgbf000130-resize_1/000447_2014-06-08_16-15-46_260595134347_rgbf000130-resize_1-target.png,depth_discrimination_stimuli/001447_2014-06-19_17-00-32_260595134347_rgbf000082-resize_5/001447_2014-06-19_17-00-32_260595134347_rgbf000082-resize_5-target.png,1000.0,4.479,4.13775,0.0,2284,1006,1046,950,1038,462,,1004875,1959,Man
42,176362,DepthScenes,v2_duration_discrimination,discrim_jsons/Discrim1000_randls_51.json,http://54.235.29.9/FacialAge/BNav_EC2/DepthDuration/v2_depth_discrimination_MTurk/v2_DepthDiscrim_HTML.html#128,128,1366,657,1366,768,9-5-2022,11-0-10,43,depth_discrimination_stimuli/002630_2014-06-24_14-47-50_094959634447_rgbf000055-resize_1/002630_2014-06-24_14-47-50_094959634447_rgbf000055-resize_1-target.png,depth_discrimination_stimuli/002758_2014-06-22_19-11-20_094959634447_rgbf000128-resize_1/002758_2014-06-22_19-11-20_094959634447_rgbf000128-resize_1-target.png,1000.0,3.0095,2.555,1.0,1941,1002,1045,940,999,504,,1004875,1959,Man
43,176362,DepthScenes,v2_duration_discrimination,discrim_jsons/Discrim1000_randls_51.json,http://54.235.29.9/FacialAge/BNav_EC2/DepthDuration/v2_depth_discrimination_MTurk/v2_DepthDiscrim_HTML.html#128,128,1366,657,1366,768,9-5-2022,11-0-10,44,depth_discrimination_stimuli/001164_2014-06-17_15-35-46_260595134347_rgbf000085-resize_3/001164_2014-06-17_15-35-46_260595134347_rgbf000085-resize_3-target.png,depth_discrimination_stimuli/001136_2014-06-17_15-19-41_260595134347_rgbf000076-resize_3/001136_2014-06-17_15-19-41_260595134347_rgbf000076-resize_3-target.png,1000.0,2.354,1.8655,1.0,1982,1000,986,999,984,499,,1004875,1959,Man
44,176362,DepthScenes,v2_duration_discrimination,discrim_jsons/Discrim1000_randls_51.json,http://54.235.29.9/FacialAge/BNav_EC2/DepthDuration/v2_depth_discrimination_MTurk/v2_DepthDiscrim_HTML.html#128,128,1366,657,1366,768,9-5-2022,11-0-10,45,depth_discrimination_stimuli/001808_2014-06-26_20-50-58_260595134347_rgbf000029-resize_1/001808_2014-06-26_20-50-58_260595134347_rgbf000029-resize_1-target.png,depth_discrimination_stimuli/001815_2014-06-26_20-52-55_260595134347_rgbf000020-resize_0/001815_2014-06-26_20-52-55_260595134347_rgbf000020-resize_0-target.png,1000.0,4.249,3.3865,2.0,1989,1002,988,1000,995,500,,1004875,1959,Man
45,176362,DepthScenes,v2_duration_discrimination,discrim_jsons/Discrim1000_randls_51.json,http://54.235.29.9/FacialAge/BNav_EC2/DepthDuration/v2_depth_discrimination_MTurk/v2_DepthDiscrim_HTML.html#128,128,1366,657,1366,768,9-5-2022,11-0-10,46,depth_discrimination_stimuli/002153_2014-06-25_21-27-18_260595134347_rgbf000038-resize_5/002153_2014-06-25_21-27-18_260595134347_rgbf000038-resize_5-target.png,depth_discrimination_stimuli/002660_2014-06-13_15-44-18_094959634447_rgbf001878-resize_2/002660_2014-06-13_15-44-18_094959634447_rgbf001878-resize_2-target.png,1000.0,2.505,3.576,0.0,1844,1002,1106,882,988,501,,1004875,1959,Man
46,176362,DepthScenes,v2_duration_discrimination,discrim_jsons/Discrim1000_randls_51.json,http://54.235.29.9/FacialAge/BNav_EC2/DepthDuration/v2_depth_discrimination_MTurk/v2_DepthDiscrim_HTML.html#128,128,1366,657,1366,768,9-5-2022,11-0-10,47,depth_discrimination_stimuli/000493_2014-06-09_21-01-18_260595134347_rgbf000196-resize_3/000493_2014-06-09_21-01-18_260595134347_rgbf000196-resize_3-target.png,depth_discrimination_stimuli/000191_2014-05-12_17-07-38_260595134347_rgbf000199-resize_0/000191_2014-05-12_17-07-38_260595134347_rgbf000199-resize_0-target.png,1000.0,3.44,3.7995,0.0,1517,1001,990,1026,969,502,,1004875,1959,Man
47,176362,DepthScenes,v2_duration_discrimination,discrim_jsons/Discrim1000_randls_51.json,http://54.235.29.9/FacialAge/BNav_EC2/DepthDuration/v2_depth_discrimination_MTurk/v2_DepthDiscrim_HTML.html#128,128,1366,657,1366,768,9-5-2022,11-0-10,48,depth_discrimination_stimuli/002039_2014-06-24_20-22-38_260595134347_rgbf000084-resize_1/002039_2014-06-24_20-22-38_260595134347_rgbf000084-resize_1-target.png,depth_discrimination_stimuli/002103_2014-06-25_20-00-40_260595134347_rgbf000049-resize_0/002103_2014-06-25_20-00-40_260595134347_rgbf000049-resize_0-target.png,1000.0,4.408,4.105,0.0,2076,1004,976,1000,981,507,,1004875,1959,Man
48,176362,DepthScenes,v2_duration_discrimination,discrim_jsons/Discrim1000_randls_51.json,http://54.235.29.9/FacialAge/BNav_EC2/DepthDuration/v2_depth_discrimination_MTurk/v2_DepthDiscrim_HTML.html#128,128,1366,657,1366,768,9-5-2022,11-0-10,49,depth_discrimination_stimuli/001066_2014-06-08_22-03-20_260595134347_rgbf000066-resize_4/001066_2014-06-08_22-03-20_260595134347_rgbf000066-resize_4-target.png,depth_discrimination_stimuli/000742_2014-06-08_18-48-09_260595134347_rgbf000164-resize_4/000742_2014-06-08_18-48-09_260595134347_rgbf000164-resize_4-target.png,1000.0,4.2330000000000005,4.632,0.0,2461,1003,1015,982,1046,447,,1004875,1959,Man
49,176362,DepthScenes,v2_duration_discrimination,discrim_jsons/Discrim1000_randls_51.json,http://54.235.29.9/FacialAge/BNav_EC2/DepthDuration/v2_depth_discrimination_MTurk/v2_DepthDiscrim_HTML.html#128,128,1366,657,1366,768,9-5-2022,11-0-10,50,depth_discrimination_stimuli/002748_2014-06-22_19-07-22_094959634447_rgbf000078-resize_1/002748_2014-06-22_19-07-22_094959634447_rgbf000078-resize_1-target.png,depth_discrimination_stimuli/002995_2014-06-15_12-31-26_094959634447_rgbf000150-resize_1/002995_2014-06-15_12-31-26_094959634447_rgbf000150-resize_1-target.png,1000.0,4.6705,3.8360000000000003,1.0,2147,1003,982,1000,995,497,,1004875,1959,Man
50,176362,DepthScenes,v2_duration_discrimination,discrim_jsons/Discrim1000_randls_51.json,http://54.235.29.9/FacialAge/BNav_EC2/DepthDuration/v2_depth_discrimination_MTurk/v2_DepthDiscrim_HTML.html#128,128,1366,657,1366,768,9-5-2022,11-0-10,51,depth_discrimination_stimuli/000414_2014-06-04_19-49-13_260595134347_rgbf000044-resize_0/000414_2014-06-04_19-49-13_260595134347_rgbf000044-resize_0-target.png,depth_discrimination_stimuli/003129_2014-05-12_10-48-10_094959634447_rgbf000100-resize_0/003129_2014-05-12_10-48-10_094959634447_rgbf000100-resize_0-target.png,1000.0,4.329,4.9305,0.0,3790,1029,971,1001,986,535,,1004875,1959,Man
51,176362,DepthScenes,v2_duration_discrimination,discrim_jsons/Discrim1000_randls_51.json,http://54.235.29.9/FacialAge/BNav_EC2/DepthDuration/v2_depth_discrimination_MTurk/v2_DepthDiscrim_HTML.html#128,128,1366,657,1366,768,9-5-2022,11-0-10,52,depth_discrimination_stimuli/001540_2014-06-20_17-01-05_260595134347_rgbf000086-resize_2/001540_2014-06-20_17-01-05_260595134347_rgbf000086-resize_2-target.png,depth_discrimination_stimuli/001540_2014-06-20_17-01-05_260595134347_rgbf000086-resize_2/001540_2014-06-20_17-01-05_260595134347_rgbf000086-resize_2-target.png,1000.0,1.459,1.459,2.0,2229,1002,988,998,979,499,,1004875,1959,Man
52,176362,DepthScenes,v2_duration_discrimination,discrim_jsons/Discrim1000_randls_51.json,http://54.235.29.9/FacialAge/BNav_EC2/DepthDuration/v2_depth_discrimination_MTurk/v2_DepthDiscrim_HTML.html#128,128,1366,657,1366,768,9-5-2022,11-0-10,53,depth_discrimination_stimuli/003070_2014-06-15_14-58-27_094959634447_rgbf000150-resize_3/003070_2014-06-15_14-58-27_094959634447_rgbf000150-resize_3-target.png,depth_discrimination_stimuli/000943_2014-06-09_19-31-07_260595134347_rgbf000128-resize_1/000943_2014-06-09_19-31-07_260595134347_rgbf000128-resize_1-target.png,1000.0,2.9415,1.9765,0.0,1829,1002,988,1000,988,535,,1004875,1959,Man
53,176362,DepthScenes,v2_duration_discrimination,discrim_jsons/Discrim1000_randls_51.json,http://54.235.29.9/FacialAge/BNav_EC2/DepthDuration/v2_depth_discrimination_MTurk/v2_DepthDiscrim_HTML.html#128,128,1366,657,1366,768,9-5-2022,11-0-10,54,depth_discrimination_stimuli/002784_2014-06-22_19-26-30_094959634447_rgbf000083-resize_3/002784_2014-06-22_19-26-30_094959634447_rgbf000083-resize_3-target.png,depth_discrimination_stimuli/001100_2014-06-15_17-46-26_260595134347_rgbf000225-resize_2/001100_2014-06-15_17-46-26_260595134347_rgbf000225-resize_2-target.png,1000.0,1.8046666666667,2.24,0.0,2421,1000,1079,922,989,500,,1004875,1959,Man
54,176362,DepthScenes,v2_duration_discrimination,discrim_jsons/Discrim1000_randls_51.json,http://54.235.29.9/FacialAge/BNav_EC2/DepthDuration/v2_depth_discrimination_MTurk/v2_DepthDiscrim_HTML.html#128,128,1366,657,1366,768,9-5-2022,11-0-10,55,depth_discrimination_stimuli/000788_2014-06-08_22-34-36_260595134347_rgbf000131-resize_1/000788_2014-06-08_22-34-36_260595134347_rgbf000131-resize_1-target.png,depth_discrimination_stimuli/001235_2014-06-17_16-37-36_260595134347_rgbf000084-resize_4/001235_2014-06-17_16-37-36_260595134347_rgbf000084-resize_4-target.png,1000.0,3.359,3.6605,0.0,2351,1054,938,1001,994,498,,1004875,1959,Man
55,176362,DepthScenes,v2_duration_discrimination,discrim_jsons/Discrim1000_randls_51.json,http://54.235.29.9/FacialAge/BNav_EC2/DepthDuration/v2_depth_discrimination_MTurk/v2_DepthDiscrim_HTML.html#128,128,1366,657,1366,768,9-5-2022,11-0-10,56,depth_discrimination_stimuli/002600_2014-06-24_14-27-04_094959634447_rgbf000074-resize_2/002600_2014-06-24_14-27-04_094959634447_rgbf000074-resize_2-target.png,depth_discrimination_stimuli/003228_2014-05-14_13-42-35_094959634447_rgbf000101-resize_1/003228_2014-05-14_13-42-35_094959634447_rgbf000101-resize_1-target.png,1000.0,2.7575,1.9680000000000002,0.0,1935,1003,981,1001,998,488,,1004875,1959,Man
56,176362,DepthScenes,v2_duration_discrimination,discrim_jsons/Discrim1000_randls_51.json,http://54.235.29.9/FacialAge/BNav_EC2/DepthDuration/v2_depth_discrimination_MTurk/v2_DepthDiscrim_HTML.html#128,128,1366,657,1366,768,9-5-2022,11-0-10,57,depth_discrimination_stimuli/002905_2014-06-03_18-04-43_094959634447_rgbf000151-resize_2/002905_2014-06-03_18-04-43_094959634447_rgbf000151-resize_2-target.png,depth_discrimination_stimuli/003423_2014-05-21_10-23-26_094959634447_rgbf002665-resize_2/003423_2014-05-21_10-23-26_094959634447_rgbf002665-resize_2-target.png,1000.0,2.0295,3.2575,0.0,1980,1005,982,1014,958,500,,1004875,1959,Man
57,176362,DepthScenes,v2_duration_discrimination,discrim_jsons/Discrim1000_randls_51.json,http://54.235.29.9/FacialAge/BNav_EC2/DepthDuration/v2_depth_discrimination_MTurk/v2_DepthDiscrim_HTML.html#128,128,1366,657,1366,768,9-5-2022,11-0-10,58,depth_discrimination_stimuli/001199_2014-06-17_16-03-48_260595134347_rgbf000077-resize_0/001199_2014-06-17_16-03-48_260595134347_rgbf000077-resize_0-target.png,depth_discrimination_stimuli/000502_2014-06-08_23-02-32_260595134347_rgbf000063-resize_4/000502_2014-06-08_23-02-32_260595134347_rgbf000063-resize_4-target.png,1000.0,3.4375,2.431,1.0,2303,1004,1047,933,983,500,,1004875,1959,Man
58,176362,DepthScenes,v2_duration_discrimination,discrim_jsons/Discrim1000_randls_51.json,http://54.235.29.9/FacialAge/BNav_EC2/DepthDuration/v2_depth_discrimination_MTurk/v2_DepthDiscrim_HTML.html#128,128,1366,657,1366,768,9-5-2022,11-0-10,59,depth_discrimination_stimuli/000682_2014-06-08_23-14-58_260595134347_rgbf000041-resize_5/000682_2014-06-08_23-14-58_260595134347_rgbf000041-resize_5-target.png,depth_discrimination_stimuli/001650_2014-06-20_12-09-00_260595134347_rgbf000087-resize_3/001650_2014-06-20_12-09-00_260595134347_rgbf000087-resize_3-target.png,1000.0,2.7239999999999998,1.9505,1.0,2291,1003,984,1000,989,574,,1004875,1959,Man
59,176362,DepthScenes,v2_duration_discrimination,discrim_jsons/Discrim1000_randls_51.json,http://54.235.29.9/FacialAge/BNav_EC2/DepthDuration/v2_depth_discrimination_MTurk/v2_DepthDiscrim_HTML.html#128,128,1366,657,1366,768,9-5-2022,11-0-10,60,depth_discrimination_stimuli/002788_2014-06-22_19-36-03_094959634447_rgbf000088-resize_2/002788_2014-06-22_19-36-03_094959634447_rgbf000088-resize_2-target.png,depth_discrimination_stimuli/000749_2014-06-08_21-55-06_260595134347_rgbf000070-resize_2/000749_2014-06-08_21-55-06_260595134347_rgbf000070-resize_2-target.png,1000.0,1.6465,2.331,0.0,1797,1033,1010,946,989,499,,1004875,1959,Man
60,176362,DepthScenes,v2_duration_discrimination,discrim_jsons/Discrim1000_randls_51.json,http://54.235.29.9/FacialAge/BNav_EC2/DepthDuration/v2_depth_discrimination_MTurk/v2_DepthDiscrim_HTML.html#128,128,1366,657,1366,768,9-5-2022,11-0-10,61,depth_discrimination_stimuli/001170_2014-06-17_15-43-44_260595134347_rgbf000096-resize_6/001170_2014-06-17_15-43-44_260595134347_rgbf000096-resize_6-target.png,depth_discrimination_stimuli/001170_2014-06-17_15-43-44_260595134347_rgbf000096-resize_6/001170_2014-06-17_15-43-44_260595134347_rgbf000096-resize_6-target.png,1000.0,1.1909999999999998,1.1909999999999998,2.0,1880,1000,1030,989,947,501,,1004875,1959,Man
61,176362,DepthScenes,v2_duration_discrimination,discrim_jsons/Discrim1000_randls_51.json,http://54.235.29.9/FacialAge/BNav_EC2/DepthDuration/v2_depth_discrimination_MTurk/v2_DepthDiscrim_HTML.html#128,128,1366,657,1366,768,9-5-2022,11-0-10,62,depth_discrimination_stimuli/002057_2014-06-24_21-00-13_260595134347_rgbf000120-resize_1/002057_2014-06-24_21-00-13_260595134347_rgbf000120-resize_1-target.png,depth_discrimination_stimuli/000709_2014-06-08_13-51-55_260595134347_rgbf000068-resize_3/000709_2014-06-08_13-51-55_260595134347_rgbf000068-resize_3-target.png,1000.0,2.967,1.8030000000000002,0.0,2437,1002,994,1000,991,504,,1004875,1959,Man
62,176362,DepthScenes,v2_duration_discrimination,discrim_jsons/Discrim1000_randls_51.json,http://54.235.29.9/FacialAge/BNav_EC2/DepthDuration/v2_depth_discrimination_MTurk/v2_DepthDiscrim_HTML.html#128,128,1366,657,1366,768,9-5-2022,11-0-10,63,depth_discrimination_stimuli/000878_2014-06-08_22-52-45_260595134347_rgbf000045-resize_2/000878_2014-06-08_22-52-45_260595134347_rgbf000045-resize_2-target.png,depth_discrimination_stimuli/002953_2014-06-08_17-32-18_094959634447_rgbf000059-resize_5/002953_2014-06-08_17-32-18_094959634447_rgbf000059-resize_5-target.png,1000.0,2.092,1.551,0.0,2143,1001,990,1002,1052,460,,1004875,1959,Man
63,176362,DepthScenes,v2_duration_discrimination,discrim_jsons/Discrim1000_randls_51.json,http://54.235.29.9/FacialAge/BNav_EC2/DepthDuration/v2_depth_discrimination_MTurk/v2_DepthDiscrim_HTML.html#128,128,1366,657,1366,768,9-5-2022,11-0-10,64,depth_discrimination_stimuli/000810_2014-06-08_17-20-01_260595134347_rgbf000105-resize_0/000810_2014-06-08_17-20-01_260595134347_rgbf000105-resize_0-target.png,depth_discrimination_stimuli/001214_2014-06-17_16-13-55_260595134347_rgbf000111-resize_0/001214_2014-06-17_16-13-55_260595134347_rgbf000111-resize_0-target.png,1000.0,1.4865,2.6505,0.0,2085,1003,1000,1040,957,500,,1004875,1959,Man
64,176362,DepthScenes,v2_duration_discrimination,discrim_jsons/Discrim1000_randls_51.json,http://54.235.29.9/FacialAge/BNav_EC2/DepthDuration/v2_depth_discrimination_MTurk/v2_DepthDiscrim_HTML.html#128,128,1366,657,1366,768,9-5-2022,11-0-10,65,depth_discrimination_stimuli/002725_2014-06-22_11-47-51_094959634447_rgbf000070-resize_1/002725_2014-06-22_11-47-51_094959634447_rgbf000070-resize_1-target.png,depth_discrimination_stimuli/002344_2014-06-28_20-06-29_260595134347_rgbf000030-resize_1/002344_2014-06-28_20-06-29_260595134347_rgbf000030-resize_1-target.png,1000.0,2.195,1.5795,1.0,1940,1065,1024,913,979,500,,1004875,1959,Man
65,176362,DepthScenes,v2_duration_discrimination,discrim_jsons/Discrim1000_randls_51.json,http://54.235.29.9/FacialAge/BNav_EC2/DepthDuration/v2_depth_discrimination_MTurk/v2_DepthDiscrim_HTML.html#128,128,1366,657,1366,768,9-5-2022,11-0-10,66,depth_discrimination_stimuli/002279_2014-06-28_18-55-32_260595134347_rgbf000040-resize_5/002279_2014-06-28_18-55-32_260595134347_rgbf000040-resize_5-target.png,depth_discrimination_stimuli/000635_2014-06-08_16-38-42_260595134347_rgbf000106-resize_1/000635_2014-06-08_16-38-42_260595134347_rgbf000106-resize_1-target.png,1000.0,1.5043333333333,2.074,0.0,1817,1026,972,1052,949,498,,1004875,1959,Man
66,176362,DepthScenes,v2_duration_discrimination,discrim_jsons/Discrim1000_randls_51.json,http://54.235.29.9/FacialAge/BNav_EC2/DepthDuration/v2_depth_discrimination_MTurk/v2_DepthDiscrim_HTML.html#128,128,1366,657,1366,768,9-5-2022,11-0-10,67,depth_discrimination_stimuli/002272_2014-06-28_18-53-56_260595134347_rgbf000067-resize_2/002272_2014-06-28_18-53-56_260595134347_rgbf000067-resize_2-target.png,depth_discrimination_stimuli/001571_2014-06-20_17-21-32_260595134347_rgbf000089-resize_1/001571_2014-06-20_17-21-32_260595134347_rgbf000089-resize_1-target.png,1000.0,1.138,1.86,0.0,2221,1001,986,1000,987,500,,1004875,1959,Man
67,176362,DepthScenes,v2_duration_discrimination,discrim_jsons/Discrim1000_randls_51.json,http://54.235.29.9/FacialAge/BNav_EC2/DepthDuration/v2_depth_discrimination_MTurk/v2_DepthDiscrim_HTML.html#128,128,1366,657,1366,768,9-5-2022,11-0-10,68,depth_discrimination_stimuli/002763_2014-06-22_19-13-10_094959634447_rgbf000075-resize_4/002763_2014-06-22_19-13-10_094959634447_rgbf000075-resize_4-target.png,depth_discrimination_stimuli/002209_2014-06-28_18-36-10_260595134347_rgbf000051-resize_1/002209_2014-06-28_18-36-10_260595134347_rgbf000051-resize_1-target.png,1000.0,1.68375,2.057,0.0,1901,1001,1042,946,999,499,,1004875,1959,Man
68,176362,DepthScenes,v2_duration_discrimination,discrim_jsons/Discrim1000_randls_51.json,http://54.235.29.9/FacialAge/BNav_EC2/DepthDuration/v2_depth_discrimination_MTurk/v2_DepthDiscrim_HTML.html#128,128,1366,657,1366,768,9-5-2022,11-0-10,69,depth_discrimination_stimuli/001158_2014-06-17_15-32-16_260595134347_rgbf000138-resize_2/001158_2014-06-17_15-32-16_260595134347_rgbf000138-resize_2-target.png,depth_discrimination_stimuli/000556_2014-06-09_22-42-56_260595134347_rgbf000214-resize_1/000556_2014-06-09_22-42-56_260595134347_rgbf000214-resize_1-target.png,1000.0,4.5315,4.8415,0.0,3358,1010,979,1001,999,499,,1004875,1959,Man
69,176362,DepthScenes,v2_duration_discrimination,discrim_jsons/Discrim1000_randls_51.json,http://54.235.29.9/FacialAge/BNav_EC2/DepthDuration/v2_depth_discrimination_MTurk/v2_DepthDiscrim_HTML.html#128,128,1366,657,1366,768,9-5-2022,11-0-10,70,depth_discrimination_stimuli/002663_2014-06-13_15-50-26_094959634447_rgbf000075-resize_1/002663_2014-06-13_15-50-26_094959634447_rgbf000075-resize_1-target.png,depth_discrimination_stimuli/000409_2014-06-04_19-23-33_260595134347_rgbf000067-resize_0/000409_2014-06-04_19-23-33_260595134347_rgbf000067-resize_0-target.png,1000.0,4.7495,3.7335,3.0,4262,1002,993,1000,987,501,,1004875,1959,Man
70,176362,DepthScenes,v2_duration_discrimination,discrim_jsons/Discrim1000_randls_51.json,http://54.235.29.9/FacialAge/BNav_EC2/DepthDuration/v2_depth_discrimination_MTurk/v2_DepthDiscrim_HTML.html#128,128,1366,657,1366,768,9-5-2022,11-0-10,71,depth_discrimination_stimuli/002072_2014-06-24_21-48-06_260595134347_rgbf000115-resize_0/002072_2014-06-24_21-48-06_260595134347_rgbf000115-resize_0-target.png,depth_discrimination_stimuli/002072_2014-06-24_21-48-06_260595134347_rgbf000115-resize_0/002072_2014-06-24_21-48-06_260595134347_rgbf000115-resize_0-target.png,1000.0,4.702,4.702,2.0,3251,1004,966,1018,958,570,,1004875,1959,Man
71,176362,DepthScenes,v2_duration_discrimination,discrim_jsons/Discrim1000_randls_51.json,http://54.235.29.9/FacialAge/BNav_EC2/DepthDuration/v2_depth_discrimination_MTurk/v2_DepthDiscrim_HTML.html#128,128,1366,657,1366,768,9-5-2022,11-0-10,72,depth_discrimination_stimuli/001555_2014-06-20_17-12-10_260595134347_rgbf000065-resize_4/001555_2014-06-20_17-12-10_260595134347_rgbf000065-resize_4-target.png,depth_discrimination_stimuli/000103_2014-05-14_22-01-17_260595134347_rgbf000152-resize_5/000103_2014-05-14_22-01-17_260595134347_rgbf000152-resize_5-target.png,1000.0,1.633,1.993,0.0,4851,1033,967,1001,992,501,,1004875,1959,Man
72,176362,DepthScenes,v2_duration_discrimination,discrim_jsons/Discrim1000_randls_51.json,http://54.235.29.9/FacialAge/BNav_EC2/DepthDuration/v2_depth_discrimination_MTurk/v2_DepthDiscrim_HTML.html#128,128,1366,657,1366,768,9-5-2022,11-0-10,73,depth_discrimination_stimuli/002989_2014-06-15_12-25-03_094959634447_rgbf000150-resize_3/002989_2014-06-15_12-25-03_094959634447_rgbf000150-resize_3-target.png,depth_discrimination_stimuli/000866_2014-06-09_20-45-42_260595134347_rgbf000139-resize_1/000866_2014-06-09_20-45-42_260595134347_rgbf000139-resize_1-target.png,1000.0,4.1975,3.2155,1.0,2683,1001,988,1000,999,500,,1004875,1959,Man
73,176362,DepthScenes,v2_duration_discrimination,discrim_jsons/Discrim1000_randls_51.json,http://54.235.29.9/FacialAge/BNav_EC2/DepthDuration/v2_depth_discrimination_MTurk/v2_DepthDiscrim_HTML.html#128,128,1366,657,1366,768,9-5-2022,11-0-10,74,depth_discrimination_stimuli/001167_2014-06-17_15-38-07_260595134347_rgbf000108-resize_0/001167_2014-06-17_15-38-07_260595134347_rgbf000108-resize_0-target.png,depth_discrimination_stimuli/003587_2014-05-23_16-48-02_094959634447_rgbf002384-resize_2/003587_2014-05-23_16-48-02_094959634447_rgbf002384-resize_2-target.png,1000.0,1.8505,1.357,1.0,2214,1010,979,1000,988,499,,1004875,1959,Man
74,176362,DepthScenes,v2_duration_discrimination,discrim_jsons/Discrim1000_randls_51.json,http://54.235.29.9/FacialAge/BNav_EC2/DepthDuration/v2_depth_discrimination_MTurk/v2_DepthDiscrim_HTML.html#128,128,1366,657,1366,768,9-5-2022,11-0-10,75,depth_discrimination_stimuli/001016_2014-06-09_16-16-10_260595134347_rgbf000112-resize_5/001016_2014-06-09_16-16-10_260595134347_rgbf000112-resize_5-target.png,depth_discrimination_stimuli/002340_2014-06-28_20-05-46_260595134347_rgbf000113-resize_0/002340_2014-06-28_20-05-46_260595134347_rgbf000113-resize_0-target.png,1000.0,1.6565,2.4735,1.0,2973,1044,959,983,1002,486,,1004875,1959,Man
75,176362,DepthScenes,v2_duration_discrimination,discrim_jsons/Discrim1000_randls_51.json,http://54.235.29.9/FacialAge/BNav_EC2/DepthDuration/v2_depth_discrimination_MTurk/v2_DepthDiscrim_HTML.html#128,128,1366,657,1366,768,9-5-2022,11-0-10,76,depth_discrimination_stimuli/001092_2014-06-15_17-34-58_260595134347_rgbf000171-resize_3/001092_2014-06-15_17-34-58_260595134347_rgbf000171-resize_3-target.png,depth_discrimination_stimuli/002545_2014-06-24_13-38-53_094959634447_rgbf000080-resize_4/002545_2014-06-24_13-38-53_094959634447_rgbf000080-resize_4-target.png,1000.0,2.6935,1.9205,1.0,3838,1001,993,998,998,493,,1004875,1959,Man
76,176362,DepthScenes,v2_duration_discrimination,discrim_jsons/Discrim1000_randls_51.json,http://54.235.29.9/FacialAge/BNav_EC2/DepthDuration/v2_depth_discrimination_MTurk/v2_DepthDiscrim_HTML.html#128,128,1366,657,1366,768,9-5-2022,11-0-10,77,depth_discrimination_stimuli/001498_2014-06-19_17-45-14_260595134347_rgbf000129-resize_4/001498_2014-06-19_17-45-14_260595134347_rgbf000129-resize_4-target.png,depth_discrimination_stimuli/001498_2014-06-19_17-45-14_260595134347_rgbf000129-resize_4/001498_2014-06-19_17-45-14_260595134347_rgbf000129-resize_4-target.png,1000.0,1.4075,1.4075,2.0,1614,1004,986,1032,987,480,,1004875,1959,Man
77,176362,DepthScenes,v2_duration_discrimination,discrim_jsons/Discrim1000_randls_51.json,http://54.235.29.9/FacialAge/BNav_EC2/DepthDuration/v2_depth_discrimination_MTurk/v2_DepthDiscrim_HTML.html#128,128,1366,657,1366,768,9-5-2022,11-0-10,78,depth_discrimination_stimuli/002509_2014-06-24_13-19-22_094959634447_rgbf000077-resize_0/002509_2014-06-24_13-19-22_094959634447_rgbf000077-resize_0-target.png,depth_discrimination_stimuli/003338_2014-05-20_11-01-23_094959634447_rgbf000051-resize_6/003338_2014-05-20_11-01-23_094959634447_rgbf000051-resize_6-target.png,1000.0,1.3065,1.693,3.0,4203,1006,977,1000,1018,466,,1004875,1959,Man
78,176362,DepthScenes,v2_duration_discrimination,discrim_jsons/Discrim1000_randls_51.json,http://54.235.29.9/FacialAge/BNav_EC2/DepthDuration/v2_depth_discrimination_MTurk/v2_DepthDiscrim_HTML.html#128,128,1366,657,1366,768,9-5-2022,11-0-10,79,depth_discrimination_stimuli/003534_2014-05-22_15-06-10_094959634447_rgbf000102-resize_4/003534_2014-05-22_15-06-10_094959634447_rgbf000102-resize_4-target.png,depth_discrimination_stimuli/002637_2014-06-24_14-51-13_094959634447_rgbf000066-resize_4/002637_2014-06-24_14-51-13_094959634447_rgbf000066-resize_4-target.png,1000.0,1.426,1.9955,1.0,1899,1007,986,998,984,500,,1004875,1959,Man
79,176362,DepthScenes,v2_duration_discrimination,discrim_jsons/Discrim1000_randls_51.json,http://54.235.29.9/FacialAge/BNav_EC2/DepthDuration/v2_depth_discrimination_MTurk/v2_DepthDiscrim_HTML.html#128,128,1366,657,1366,768,9-5-2022,11-0-10,80,depth_discrimination_stimuli/002570_2014-06-24_13-59-54_094959634447_rgbf000059-resize_0/002570_2014-06-24_13-59-54_094959634447_rgbf000059-resize_0-target.png,depth_discrimination_stimuli/002467_2014-06-28_20-38-07_260595134347_rgbf000026-resize_2/002467_2014-06-28_20-38-07_260595134347_rgbf000026-resize_2-target.png,1000.0,4.037,4.742,1.0,1926,1002,1036,954,990,502,,1004875,1959,Man
80,176362,DepthScenes,v2_duration_discrimination,discrim_jsons/Discrim1000_randls_51.json,http://54.235.29.9/FacialAge/BNav_EC2/DepthDuration/v2_depth_discrimination_MTurk/v2_DepthDiscrim_HTML.html#128,128,1366,657,1366,768,9-5-2022,11-0-10,81,depth_discrimination_stimuli/000739_2014-06-08_18-45-58_260595134347_rgbf000068-resize_1/000739_2014-06-08_18-45-58_260595134347_rgbf000068-resize_1-target.png,depth_discrimination_stimuli/000734_2014-06-08_17-39-11_260595134347_rgbf000128-resize_2/000734_2014-06-08_17-39-11_260595134347_rgbf000128-resize_2-target.png,1000.0,3.534,4.098,1.0,3452,1001,988,1018,978,499,,1004875,1959,Man
81,176362,DepthScenes,v2_duration_discrimination,discrim_jsons/Discrim1000_randls_51.json,http://54.235.29.9/FacialAge/BNav_EC2/DepthDuration/v2_depth_discrimination_MTurk/v2_DepthDiscrim_HTML.html#128,128,1366,657,1366,768,9-5-2022,11-0-10,82,depth_discrimination_stimuli/001150_2014-06-17_15-27-34_260595134347_rgbf000108-resize_2/001150_2014-06-17_15-27-34_260595134347_rgbf000108-resize_2-target.png,depth_discrimination_stimuli/000665_2014-06-09_20-42-35_260595134347_rgbf000110-resize_1/000665_2014-06-09_20-42-35_260595134347_rgbf000110-resize_1-target.png,1000.0,4.0325,3.057,1.0,4832,1063,992,933,988,505,,1004875,1959,Man
82,176362,DepthScenes,v2_duration_discrimination,discrim_jsons/Discrim1000_randls_51.json,http://54.235.29.9/FacialAge/BNav_EC2/DepthDuration/v2_depth_discrimination_MTurk/v2_DepthDiscrim_HTML.html#128,128,1366,657,1366,768,9-5-2022,11-0-10,83,depth_discrimination_stimuli/003621_2014-05-23_18-06-08_094959634447_rgbf000101-resize_1/003621_2014-05-23_18-06-08_094959634447_rgbf000101-resize_1-target.png,depth_discrimination_stimuli/001584_2014-06-20_11-07-43_260595134347_rgbf000002-resize_1/001584_2014-06-20_11-07-43_260595134347_rgbf000002-resize_1-target.png,1000.0,3.9835,3.53,0.0,5044,1002,988,1000,988,499,,1004875,1959,Man
83,176362,DepthScenes,v2_duration_discrimination,discrim_jsons/Discrim1000_randls_51.json,http://54.235.29.9/FacialAge/BNav_EC2/DepthDuration/v2_depth_discrimination_MTurk/v2_DepthDiscrim_HTML.html#128,128,1366,657,1366,768,9-5-2022,11-0-10,84,depth_discrimination_stimuli/001449_2014-06-19_17-01-27_260595134347_rgbf000116-resize_2/001449_2014-06-19_17-01-27_260595134347_rgbf000116-resize_2-target.png,depth_discrimination_stimuli/001450_2014-06-19_17-02-03_260595134347_rgbf000203-resize_4/001450_2014-06-19_17-02-03_260595134347_rgbf000203-resize_4-target.png,1000.0,3.452,4.0106666666667,1.0,2541,1006,1004,1029,962,499,,1004875,1959,Man
84,176362,DepthScenes,v2_duration_discrimination,discrim_jsons/Discrim1000_randls_51.json,http://54.235.29.9/FacialAge/BNav_EC2/DepthDuration/v2_depth_discrimination_MTurk/v2_DepthDiscrim_HTML.html#128,128,1366,657,1366,768,9-5-2022,11-0-10,85,depth_discrimination_stimuli/000469_2014-06-09_19-42-10_260595134347_rgbf000081-resize_1/000469_2014-06-09_19-42-10_260595134347_rgbf000081-resize_1-target.png,depth_discrimination_stimuli/000483_2014-06-09_20-41-45_260595134347_rgbf000116-resize_4/000483_2014-06-09_20-41-45_260595134347_rgbf000116-resize_4-target.png,1000.0,1.652,1.337,0.0,2254,1002,977,1062,938,500,,1004875,1959,Man
85,176362,DepthScenes,v2_duration_discrimination,discrim_jsons/Discrim1000_randls_51.json,http://54.235.29.9/FacialAge/BNav_EC2/DepthDuration/v2_depth_discrimination_MTurk/v2_DepthDiscrim_HTML.html#128,128,1366,657,1366,768,9-5-2022,11-0-10,86,depth_discrimination_stimuli/000642_2014-06-08_16-59-25_260595134347_rgbf000098-resize_2/000642_2014-06-08_16-59-25_260595134347_rgbf000098-resize_2-target.png,depth_discrimination_stimuli/002425_2014-06-28_20-27-29_260595134347_rgbf000031-resize_8/002425_2014-06-28_20-27-29_260595134347_rgbf000031-resize_8-target.png,1000.0,2.8815,3.8960000000000004,1.0,1941,1002,995,1000,1002,498,,1004875,1959,Man
86,176362,DepthScenes,v2_duration_discrimination,discrim_jsons/Discrim1000_randls_51.json,http://54.235.29.9/FacialAge/BNav_EC2/DepthDuration/v2_depth_discrimination_MTurk/v2_DepthDiscrim_HTML.html#128,128,1366,657,1366,768,9-5-2022,11-0-10,86,,,,,,,1941,1002,995,1000,1002,498,,1004875,1959,Man
