,subjID,experimentName,versionName,sequenceName,url,selected_row,windowWidth,windowHeight,screenWidth,screenHeight,startDate,startTime,trial,stimulus_0,stimulus_1,duration,actual_depth_0,actual_depth_1,discrim_choice,trial_RT,log_fixation,log_sceneDuration1,log_mask1,log_sceneDuration2,log_mask2,experimentTime,totalTime,age,gender
0,247407,DepthScenes,v2_duration_discrimination,discrim_jsons/Discrim125_randls_37.json,http://54.235.29.9/FacialAge/BNav_EC2/DepthDuration/v2_depth_discrimination_MTurk/v2_DepthDiscrim_HTML.html#46,46,1366,625,1366,768,9-17-2022,10-19-34,1,depth_discrimination_stimuli/002279_2014-06-28_18-55-32_260595134347_rgbf000040-resize_5/002279_2014-06-28_18-55-32_260595134347_rgbf000040-resize_5-target.png,depth_discrimination_stimuli/000635_2014-06-08_16-38-42_260595134347_rgbf000106-resize_1/000635_2014-06-08_16-38-42_260595134347_rgbf000106-resize_1-target.png,125.0,1.5043333333333,2.074,0.0,2901,1000,130,1007,105,510,,571181,32,Man
1,247407,DepthScenes,v2_duration_discrimination,discrim_jsons/Discrim125_randls_37.json,http://54.235.29.9/FacialAge/BNav_EC2/DepthDuration/v2_depth_discrimination_MTurk/v2_DepthDiscrim_HTML.html#46,46,1366,625,1366,768,9-17-2022,10-19-34,2,depth_discrimination_stimuli/002988_2014-06-15_12-24-20_094959634447_rgbf000150-resize_1/002988_2014-06-15_12-24-20_094959634447_rgbf000150-resize_1-target.png,depth_discrimination_stimuli/001052_2014-06-08_18-24-54_260595134347_rgbf000130-resize_1/001052_2014-06-08_18-24-54_260595134347_rgbf000130-resize_1-target.png,125.0,4.7669999999999995,4.1045,1.0,2048,1015,123,994,121,504,,571181,32,Man
2,247407,DepthScenes,v2_duration_discrimination,discrim_jsons/Discrim125_randls_37.json,http://54.235.29.9/FacialAge/BNav_EC2/DepthDuration/v2_depth_discrimination_MTurk/v2_DepthDiscrim_HTML.html#46,46,1366,625,1366,768,9-17-2022,10-19-34,3,depth_discrimination_stimuli/001092_2014-06-15_17-34-58_260595134347_rgbf000171-resize_3/001092_2014-06-15_17-34-58_260595134347_rgbf000171-resize_3-target.png,depth_discrimination_stimuli/002545_2014-06-24_13-38-53_094959634447_rgbf000080-resize_4/002545_2014-06-24_13-38-53_094959634447_rgbf000080-resize_4-target.png,125.0,2.6935,1.9205,0.0,2161,1014,125,996,119,506,,571181,32,Man
3,247407,DepthScenes,v2_duration_discrimination,discrim_jsons/Discrim125_randls_37.json,http://54.235.29.9/FacialAge/BNav_EC2/DepthDuration/v2_depth_discrimination_MTurk/v2_DepthDiscrim_HTML.html#46,46,1366,625,1366,768,9-17-2022,10-19-34,4,depth_discrimination_stimuli/000906_2014-06-08_13-35-43_260595134347_rgbf000155-resize_1/000906_2014-06-08_13-35-43_260595134347_rgbf000155-resize_1-target.png,depth_discrimination_stimuli/002805_2014-06-22_19-54-03_094959634447_rgbf000079-resize_1/002805_2014-06-22_19-54-03_094959634447_rgbf000079-resize_1-target.png,125.0,2.8489999999999998,3.1439999999999997,1.0,1888,1012,127,976,120,494,,571181,32,Man
4,247407,DepthScenes,v2_duration_discrimination,discrim_jsons/Discrim125_randls_37.json,http://54.235.29.9/FacialAge/BNav_EC2/DepthDuration/v2_depth_discrimination_MTurk/v2_DepthDiscrim_HTML.html#46,46,1366,625,1366,768,9-17-2022,10-19-34,5,depth_discrimination_stimuli/002600_2014-06-24_14-27-04_094959634447_rgbf000074-resize_2/002600_2014-06-24_14-27-04_094959634447_rgbf000074-resize_2-target.png,depth_discrimination_stimuli/003228_2014-05-14_13-42-35_094959634447_rgbf000101-resize_1/003228_2014-05-14_13-42-35_094959634447_rgbf000101-resize_1-target.png,125.0,2.7575,1.9680000000000002,0.0,3344,1007,141,992,122,491,,571181,32,Man
5,247407,DepthScenes,v2_duration_discrimination,discrim_jsons/Discrim125_randls_37.json,http://54.235.29.9/FacialAge/BNav_EC2/DepthDuration/v2_depth_discrimination_MTurk/v2_DepthDiscrim_HTML.html#46,46,1366,625,1366,768,9-17-2022,10-19-34,6,depth_discrimination_stimuli/002057_2014-06-24_21-00-13_260595134347_rgbf000120-resize_1/002057_2014-06-24_21-00-13_260595134347_rgbf000120-resize_1-target.png,depth_discrimination_stimuli/000709_2014-06-08_13-51-55_260595134347_rgbf000068-resize_3/000709_2014-06-08_13-51-55_260595134347_rgbf000068-resize_3-target.png,125.0,2.967,1.8030000000000002,0.0,2174,1019,125,992,124,503,,571181,32,Man
6,247407,DepthScenes,v2_duration_discrimination,discrim_jsons/Discrim125_randls_37.json,http://54.235.29.9/FacialAge/BNav_EC2/DepthDuration/v2_depth_discrimination_MTurk/v2_DepthDiscrim_HTML.html#46,46,1366,625,1366,768,9-17-2022,10-19-34,7,depth_discrimination_stimuli/000569_2014-06-09_22-51-47_260595134347_rgbf000141-resize_3/000569_2014-06-09_22-51-47_260595134347_rgbf000141-resize_3-target.png,depth_discrimination_stimuli/000569_2014-06-09_22-51-47_260595134347_rgbf000141-resize_3/000569_2014-06-09_22-51-47_260595134347_rgbf000141-resize_3-target.png,125.0,4.512,4.512,1.0,2188,1008,124,1021,114,506,,571181,32,Man
7,247407,DepthScenes,v2_duration_discrimination,discrim_jsons/Discrim125_randls_37.json,http://54.235.29.9/FacialAge/BNav_EC2/DepthDuration/v2_depth_discrimination_MTurk/v2_DepthDiscrim_HTML.html#46,46,1366,625,1366,768,9-17-2022,10-19-34,8,depth_discrimination_stimuli/001066_2014-06-08_22-03-20_260595134347_rgbf000066-resize_4/001066_2014-06-08_22-03-20_260595134347_rgbf000066-resize_4-target.png,depth_discrimination_stimuli/000742_2014-06-08_18-48-09_260595134347_rgbf000164-resize_4/000742_2014-06-08_18-48-09_260595134347_rgbf000164-resize_4-target.png,125.0,4.2330000000000005,4.632,0.0,1899,1001,292,817,122,507,,571181,32,Man
8,247407,DepthScenes,v2_duration_discrimination,discrim_jsons/Discrim125_randls_37.json,http://54.235.29.9/FacialAge/BNav_EC2/DepthDuration/v2_depth_discrimination_MTurk/v2_DepthDiscrim_HTML.html#46,46,1366,625,1366,768,9-17-2022,10-19-34,9,depth_discrimination_stimuli/001059_2014-06-08_21-53-27_260595134347_rgbf000061-resize_4/001059_2014-06-08_21-53-27_260595134347_rgbf000061-resize_4-target.png,depth_discrimination_stimuli/001032_2014-06-08_13-23-17_260595134347_rgbf000021-resize_3/001032_2014-06-08_13-23-17_260595134347_rgbf000021-resize_3-target.png,125.0,2.4185,3.2725,1.0,2576,1019,124,998,131,490,,571181,32,Man
9,247407,DepthScenes,v2_duration_discrimination,discrim_jsons/Discrim125_randls_37.json,http://54.235.29.9/FacialAge/BNav_EC2/DepthDuration/v2_depth_discrimination_MTurk/v2_DepthDiscrim_HTML.html#46,46,1366,625,1366,768,9-17-2022,10-19-34,10,depth_discrimination_stimuli/000009_2014-05-26_14-32-05_260595134347_rgbf000034-resize_3/000009_2014-05-26_14-32-05_260595134347_rgbf000034-resize_3-target.png,depth_discrimination_stimuli/001828_2014-06-26_21-40-03_260595134347_rgbf000024-resize_0/001828_2014-06-26_21-40-03_260595134347_rgbf000024-resize_0-target.png,125.0,3.8715,4.8260000000000005,0.0,2734,1015,130,995,132,492,,571181,32,Man
10,247407,DepthScenes,v2_duration_discrimination,discrim_jsons/Discrim125_randls_37.json,http://54.235.29.9/FacialAge/BNav_EC2/DepthDuration/v2_depth_discrimination_MTurk/v2_DepthDiscrim_HTML.html#46,46,1366,625,1366,768,9-17-2022,10-19-34,11,depth_discrimination_stimuli/000522_2014-06-08_13-35-06_260595134347_rgbf000244-resize_1/000522_2014-06-08_13-35-06_260595134347_rgbf000244-resize_1-target.png,depth_discrimination_stimuli/002949_2014-06-26_15-57-42_094959634447_rgbf000079-resize_1/002949_2014-06-26_15-57-42_094959634447_rgbf000079-resize_1-target.png,125.0,2.3715,1.8915,1.0,3621,1021,124,998,120,506,,571181,32,Man
11,247407,DepthScenes,v2_duration_discrimination,discrim_jsons/Discrim125_randls_37.json,http://54.235.29.9/FacialAge/BNav_EC2/DepthDuration/v2_depth_discrimination_MTurk/v2_DepthDiscrim_HTML.html#46,46,1366,625,1366,768,9-17-2022,10-19-34,12,depth_discrimination_stimuli/002153_2014-06-25_21-27-18_260595134347_rgbf000038-resize_5/002153_2014-06-25_21-27-18_260595134347_rgbf000038-resize_5-target.png,depth_discrimination_stimuli/002660_2014-06-13_15-44-18_094959634447_rgbf001878-resize_2/002660_2014-06-13_15-44-18_094959634447_rgbf001878-resize_2-target.png,125.0,2.505,3.576,0.0,2469,1256,37,827,125,500,,571181,32,Man
12,247407,DepthScenes,v2_duration_discrimination,discrim_jsons/Discrim125_randls_37.json,http://54.235.29.9/FacialAge/BNav_EC2/DepthDuration/v2_depth_discrimination_MTurk/v2_DepthDiscrim_HTML.html#46,46,1366,625,1366,768,9-17-2022,10-19-34,13,depth_discrimination_stimuli/000773_2014-06-08_22-24-54_260595134347_rgbf000093-resize_1/000773_2014-06-08_22-24-54_260595134347_rgbf000093-resize_1-target.png,depth_discrimination_stimuli/002414_2014-06-28_20-24-58_260595134347_rgbf000067-resize_4/002414_2014-06-28_20-24-58_260595134347_rgbf000067-resize_4-target.png,125.0,4.973,4.363,1.0,2250,1016,125,998,132,501,,571181,32,Man
13,247407,DepthScenes,v2_duration_discrimination,discrim_jsons/Discrim125_randls_37.json,http://54.235.29.9/FacialAge/BNav_EC2/DepthDuration/v2_depth_discrimination_MTurk/v2_DepthDiscrim_HTML.html#46,46,1366,625,1366,768,9-17-2022,10-19-34,14,depth_discrimination_stimuli/000447_2014-06-08_16-15-46_260595134347_rgbf000130-resize_1/000447_2014-06-08_16-15-46_260595134347_rgbf000130-resize_1-target.png,depth_discrimination_stimuli/001447_2014-06-19_17-00-32_260595134347_rgbf000082-resize_5/001447_2014-06-19_17-00-32_260595134347_rgbf000082-resize_5-target.png,125.0,4.479,4.13775,0.0,2049,1013,115,1007,124,493,,571181,32,Man
14,247407,DepthScenes,v2_duration_discrimination,discrim_jsons/Discrim125_randls_37.json,http://54.235.29.9/FacialAge/BNav_EC2/DepthDuration/v2_depth_discrimination_MTurk/v2_DepthDiscrim_HTML.html#46,46,1366,625,1366,768,9-17-2022,10-19-34,15,depth_discrimination_stimuli/000758_2014-06-08_22-05-08_260595134347_rgbf000085-resize_0/000758_2014-06-08_22-05-08_260595134347_rgbf000085-resize_0-target.png,depth_discrimination_stimuli/000854_2014-06-09_19-43-13_260595134347_rgbf000066-resize_0/000854_2014-06-09_19-43-13_260595134347_rgbf000066-resize_0-target.png,125.0,3.3810000000000002,3.068,1.0,1659,1027,117,1007,122,491,,571181,32,Man
15,247407,DepthScenes,v2_duration_discrimination,discrim_jsons/Discrim125_randls_37.json,http://54.235.29.9/FacialAge/BNav_EC2/DepthDuration/v2_depth_discrimination_MTurk/v2_DepthDiscrim_HTML.html#46,46,1366,625,1366,768,9-17-2022,10-19-34,16,depth_discrimination_stimuli/000375_2014-06-08_11-17-29_260595134347_rgbf000133-resize_2/000375_2014-06-08_11-17-29_260595134347_rgbf000133-resize_2-target.png,depth_discrimination_stimuli/000375_2014-06-08_11-17-29_260595134347_rgbf000133-resize_2/000375_2014-06-08_11-17-29_260595134347_rgbf000133-resize_2-target.png,125.0,4.718,4.718,0.0,1564,1030,111,998,126,510,,571181,32,Man
16,247407,DepthScenes,v2_duration_discrimination,discrim_jsons/Discrim125_randls_37.json,http://54.235.29.9/FacialAge/BNav_EC2/DepthDuration/v2_depth_discrimination_MTurk/v2_DepthDiscrim_HTML.html#46,46,1366,625,1366,768,9-17-2022,10-19-34,17,depth_discrimination_stimuli/000506_2014-06-08_23-21-00_260595134347_rgbf000070-resize_7/000506_2014-06-08_23-21-00_260595134347_rgbf000070-resize_7-target.png,depth_discrimination_stimuli/003079_2014-06-15_15-18-20_094959634447_rgbf000152-resize_8/003079_2014-06-15_15-18-20_094959634447_rgbf000152-resize_8-target.png,125.0,4.0585,2.8775,1.0,2124,1017,126,995,120,507,,571181,32,Man
17,247407,DepthScenes,v2_duration_discrimination,discrim_jsons/Discrim125_randls_37.json,http://54.235.29.9/FacialAge/BNav_EC2/DepthDuration/v2_depth_discrimination_MTurk/v2_DepthDiscrim_HTML.html#46,46,1366,625,1366,768,9-17-2022,10-19-34,18,depth_discrimination_stimuli/003292_2014-05-14_21-53-49_094959634447_rgbf000100-resize_2/003292_2014-05-14_21-53-49_094959634447_rgbf000100-resize_2-target.png,depth_discrimination_stimuli/002639_2014-06-24_14-51-37_094959634447_rgbf000074-resize_4/002639_2014-06-24_14-51-37_094959634447_rgbf000074-resize_4-target.png,125.0,3.4815,4.0375,0.0,2315,1003,127,1569,7,41,,571181,32,Man
18,247407,DepthScenes,v2_duration_discrimination,discrim_jsons/Discrim125_randls_37.json,http://54.235.29.9/FacialAge/BNav_EC2/DepthDuration/v2_depth_discrimination_MTurk/v2_DepthDiscrim_HTML.html#46,46,1366,625,1366,768,9-17-2022,10-19-34,19,depth_discrimination_stimuli/002213_2014-06-28_18-37-58_260595134347_rgbf000055-resize_1/002213_2014-06-28_18-37-58_260595134347_rgbf000055-resize_1-target.png,depth_discrimination_stimuli/000691_2014-06-08_13-08-50_260595134347_rgbf000132-resize_3/000691_2014-06-08_13-08-50_260595134347_rgbf000132-resize_3-target.png,125.0,3.62,4.1530000000000005,1.0,2147,1024,124,991,123,501,,571181,32,Man
19,247407,DepthScenes,v2_duration_discrimination,discrim_jsons/Discrim125_randls_37.json,http://54.235.29.9/FacialAge/BNav_EC2/DepthDuration/v2_depth_discrimination_MTurk/v2_DepthDiscrim_HTML.html#46,46,1366,625,1366,768,9-17-2022,10-19-34,20,depth_discrimination_stimuli/002748_2014-06-22_19-07-22_094959634447_rgbf000078-resize_1/002748_2014-06-22_19-07-22_094959634447_rgbf000078-resize_1-target.png,depth_discrimination_stimuli/002995_2014-06-15_12-31-26_094959634447_rgbf000150-resize_1/002995_2014-06-15_12-31-26_094959634447_rgbf000150-resize_1-target.png,125.0,4.6705,3.8360000000000003,0.0,2262,1002,122,999,137,746,,571181,32,Man
20,247407,DepthScenes,v2_duration_discrimination,discrim_jsons/Discrim125_randls_37.json,http://54.235.29.9/FacialAge/BNav_EC2/DepthDuration/v2_depth_discrimination_MTurk/v2_DepthDiscrim_HTML.html#46,46,1366,625,1366,768,9-17-2022,10-19-34,21,depth_discrimination_stimuli/000810_2014-06-08_17-20-01_260595134347_rgbf000105-resize_0/000810_2014-06-08_17-20-01_260595134347_rgbf000105-resize_0-target.png,depth_discrimination_stimuli/001214_2014-06-17_16-13-55_260595134347_rgbf000111-resize_0/001214_2014-06-17_16-13-55_260595134347_rgbf000111-resize_0-target.png,125.0,1.4865,2.6505,0.0,3015,1005,133,999,120,494,,571181,32,Man
21,247407,DepthScenes,v2_duration_discrimination,discrim_jsons/Discrim125_randls_37.json,http://54.235.29.9/FacialAge/BNav_EC2/DepthDuration/v2_depth_discrimination_MTurk/v2_DepthDiscrim_HTML.html#46,46,1366,625,1366,768,9-17-2022,10-19-34,22,depth_discrimination_stimuli/002039_2014-06-24_20-22-38_260595134347_rgbf000084-resize_1/002039_2014-06-24_20-22-38_260595134347_rgbf000084-resize_1-target.png,depth_discrimination_stimuli/002103_2014-06-25_20-00-40_260595134347_rgbf000049-resize_0/002103_2014-06-25_20-00-40_260595134347_rgbf000049-resize_0-target.png,125.0,4.408,4.105,1.0,2143,1001,144,989,119,511,,571181,32,Man
22,247407,DepthScenes,v2_duration_discrimination,discrim_jsons/Discrim125_randls_37.json,http://54.235.29.9/FacialAge/BNav_EC2/DepthDuration/v2_depth_discrimination_MTurk/v2_DepthDiscrim_HTML.html#46,46,1366,625,1366,768,9-17-2022,10-19-34,23,depth_discrimination_stimuli/001011_2014-06-08_23-18-54_260595134347_rgbf000044-resize_4/001011_2014-06-08_23-18-54_260595134347_rgbf000044-resize_4-target.png,depth_discrimination_stimuli/002875_2014-06-01_15-19-00_094959634447_rgbf000151-resize_1/002875_2014-06-01_15-19-00_094959634447_rgbf000151-resize_1-target.png,125.0,2.4730000000000003,1.9675,1.0,2145,1015,125,995,122,510,,571181,32,Man
23,247407,DepthScenes,v2_duration_discrimination,discrim_jsons/Discrim125_randls_37.json,http://54.235.29.9/FacialAge/BNav_EC2/DepthDuration/v2_depth_discrimination_MTurk/v2_DepthDiscrim_HTML.html#46,46,1366,625,1366,768,9-17-2022,10-19-34,24,depth_discrimination_stimuli/000787_2014-06-08_22-33-53_260595134347_rgbf000175-resize_1/000787_2014-06-08_22-33-53_260595134347_rgbf000175-resize_1-target.png,depth_discrimination_stimuli/000787_2014-06-08_22-33-53_260595134347_rgbf000175-resize_1/000787_2014-06-08_22-33-53_260595134347_rgbf000175-resize_1-target.png,125.0,4.784,4.784,0.0,3711,1019,122,1009,109,507,,571181,32,Man
24,247407,DepthScenes,v2_duration_discrimination,discrim_jsons/Discrim125_randls_37.json,http://54.235.29.9/FacialAge/BNav_EC2/DepthDuration/v2_depth_discrimination_MTurk/v2_DepthDiscrim_HTML.html#46,46,1366,625,1366,768,9-17-2022,10-19-34,25,depth_discrimination_stimuli/002272_2014-06-28_18-53-56_260595134347_rgbf000067-resize_2/002272_2014-06-28_18-53-56_260595134347_rgbf000067-resize_2-target.png,depth_discrimination_stimuli/001571_2014-06-20_17-21-32_260595134347_rgbf000089-resize_1/001571_2014-06-20_17-21-32_260595134347_rgbf000089-resize_1-target.png,125.0,1.138,1.86,0.0,4687,1008,121,1010,122,491,,571181,32,Man
25,247407,DepthScenes,v2_duration_discrimination,discrim_jsons/Discrim125_randls_37.json,http://54.235.29.9/FacialAge/BNav_EC2/DepthDuration/v2_depth_discrimination_MTurk/v2_DepthDiscrim_HTML.html#46,46,1366,625,1366,768,9-17-2022,10-19-34,26,depth_discrimination_stimuli/002989_2014-06-15_12-25-03_094959634447_rgbf000150-resize_3/002989_2014-06-15_12-25-03_094959634447_rgbf000150-resize_3-target.png,depth_discrimination_stimuli/000866_2014-06-09_20-45-42_260595134347_rgbf000139-resize_1/000866_2014-06-09_20-45-42_260595134347_rgbf000139-resize_1-target.png,125.0,4.1975,3.2155,1.0,1934,1011,123,1007,125,499,,571181,32,Man
26,247407,DepthScenes,v2_duration_discrimination,discrim_jsons/Discrim125_randls_37.json,http://54.235.29.9/FacialAge/BNav_EC2/DepthDuration/v2_depth_discrimination_MTurk/v2_DepthDiscrim_HTML.html#46,46,1366,625,1366,768,9-17-2022,10-19-34,27,depth_discrimination_stimuli/002549_2014-06-24_13-41-39_094959634447_rgbf000022-resize_3/002549_2014-06-24_13-41-39_094959634447_rgbf000022-resize_3-target.png,depth_discrimination_stimuli/002750_2014-06-22_19-08-03_094959634447_rgbf000094-resize_4/002750_2014-06-22_19-08-03_094959634447_rgbf000094-resize_4-target.png,125.0,1.476,2.354,0.0,3370,1007,133,992,123,501,,571181,32,Man
27,247407,DepthScenes,v2_duration_discrimination,discrim_jsons/Discrim125_randls_37.json,http://54.235.29.9/FacialAge/BNav_EC2/DepthDuration/v2_depth_discrimination_MTurk/v2_DepthDiscrim_HTML.html#46,46,1366,625,1366,768,9-17-2022,10-19-34,28,depth_discrimination_stimuli/001016_2014-06-09_16-16-10_260595134347_rgbf000112-resize_5/001016_2014-06-09_16-16-10_260595134347_rgbf000112-resize_5-target.png,depth_discrimination_stimuli/002340_2014-06-28_20-05-46_260595134347_rgbf000113-resize_0/002340_2014-06-28_20-05-46_260595134347_rgbf000113-resize_0-target.png,125.0,1.6565,2.4735,1.0,3599,1029,111,1005,128,638,,571181,32,Man
28,247407,DepthScenes,v2_duration_discrimination,discrim_jsons/Discrim125_randls_37.json,http://54.235.29.9/FacialAge/BNav_EC2/DepthDuration/v2_depth_discrimination_MTurk/v2_DepthDiscrim_HTML.html#46,46,1366,625,1366,768,9-17-2022,10-19-34,29,depth_discrimination_stimuli/000469_2014-06-09_19-42-10_260595134347_rgbf000081-resize_1/000469_2014-06-09_19-42-10_260595134347_rgbf000081-resize_1-target.png,depth_discrimination_stimuli/000483_2014-06-09_20-41-45_260595134347_rgbf000116-resize_4/000483_2014-06-09_20-41-45_260595134347_rgbf000116-resize_4-target.png,125.0,1.652,1.337,0.0,3264,1016,122,998,124,498,,571181,32,Man
29,247407,DepthScenes,v2_duration_discrimination,discrim_jsons/Discrim125_randls_37.json,http://54.235.29.9/FacialAge/BNav_EC2/DepthDuration/v2_depth_discrimination_MTurk/v2_DepthDiscrim_HTML.html#46,46,1366,625,1366,768,9-17-2022,10-19-34,30,depth_discrimination_stimuli/002118_2014-06-25_20-32-08_260595134347_rgbf000078-resize_1/002118_2014-06-25_20-32-08_260595134347_rgbf000078-resize_1-target.png,depth_discrimination_stimuli/001516_2014-06-20_16-25-09_260595134347_rgbf000076-resize_2/001516_2014-06-20_16-25-09_260595134347_rgbf000076-resize_2-target.png,125.0,2.6460000000000004,1.7445,0.0,2176,1018,118,1003,114,510,,571181,32,Man
30,247407,DepthScenes,v2_duration_discrimination,discrim_jsons/Discrim125_randls_37.json,http://54.235.29.9/FacialAge/BNav_EC2/DepthDuration/v2_depth_discrimination_MTurk/v2_DepthDiscrim_HTML.html#46,46,1366,625,1366,768,9-17-2022,10-19-34,31,depth_discrimination_stimuli/002663_2014-06-13_15-50-26_094959634447_rgbf000075-resize_1/002663_2014-06-13_15-50-26_094959634447_rgbf000075-resize_1-target.png,depth_discrimination_stimuli/000409_2014-06-04_19-23-33_260595134347_rgbf000067-resize_0/000409_2014-06-04_19-23-33_260595134347_rgbf000067-resize_0-target.png,125.0,4.7495,3.7335,1.0,3664,1012,126,990,123,499,,571181,32,Man
31,247407,DepthScenes,v2_duration_discrimination,discrim_jsons/Discrim125_randls_37.json,http://54.235.29.9/FacialAge/BNav_EC2/DepthDuration/v2_depth_discrimination_MTurk/v2_DepthDiscrim_HTML.html#46,46,1366,625,1366,768,9-17-2022,10-19-34,32,depth_discrimination_stimuli/002509_2014-06-24_13-19-22_094959634447_rgbf000077-resize_0/002509_2014-06-24_13-19-22_094959634447_rgbf000077-resize_0-target.png,depth_discrimination_stimuli/003338_2014-05-20_11-01-23_094959634447_rgbf000051-resize_6/003338_2014-05-20_11-01-23_094959634447_rgbf000051-resize_6-target.png,125.0,1.3065,1.693,1.0,2194,1002,124,1007,125,493,,571181,32,Man
32,247407,DepthScenes,v2_duration_discrimination,discrim_jsons/Discrim125_randls_37.json,http://54.235.29.9/FacialAge/BNav_EC2/DepthDuration/v2_depth_discrimination_MTurk/v2_DepthDiscrim_HTML.html#46,46,1366,625,1366,768,9-17-2022,10-19-34,33,depth_discrimination_stimuli/001570_2014-06-20_17-21-09_260595134347_rgbf000135-resize_4/001570_2014-06-20_17-21-09_260595134347_rgbf000135-resize_4-target.png,depth_discrimination_stimuli/001392_2014-06-19_16-07-59_260595134347_rgbf000046-resize_1/001392_2014-06-19_16-07-59_260595134347_rgbf000046-resize_1-target.png,125.0,4.467,4.135,3.0,2141,1021,126,991,133,499,,571181,32,Man
33,247407,DepthScenes,v2_duration_discrimination,discrim_jsons/Discrim125_randls_37.json,http://54.235.29.9/FacialAge/BNav_EC2/DepthDuration/v2_depth_discrimination_MTurk/v2_DepthDiscrim_HTML.html#46,46,1366,625,1366,768,9-17-2022,10-19-34,34,depth_discrimination_stimuli/000682_2014-06-08_23-14-58_260595134347_rgbf000041-resize_5/000682_2014-06-08_23-14-58_260595134347_rgbf000041-resize_5-target.png,depth_discrimination_stimuli/001650_2014-06-20_12-09-00_260595134347_rgbf000087-resize_3/001650_2014-06-20_12-09-00_260595134347_rgbf000087-resize_3-target.png,125.0,2.7239999999999998,1.9505,3.0,1404,1016,117,1005,108,506,,571181,32,Man
34,247407,DepthScenes,v2_duration_discrimination,discrim_jsons/Discrim125_randls_37.json,http://54.235.29.9/FacialAge/BNav_EC2/DepthDuration/v2_depth_discrimination_MTurk/v2_DepthDiscrim_HTML.html#46,46,1366,625,1366,768,9-17-2022,10-19-34,35,depth_discrimination_stimuli/001222_2014-06-17_16-24-06_260595134347_rgbf000073-resize_0/001222_2014-06-17_16-24-06_260595134347_rgbf000073-resize_0-target.png,depth_discrimination_stimuli/001222_2014-06-17_16-24-06_260595134347_rgbf000073-resize_0/001222_2014-06-17_16-24-06_260595134347_rgbf000073-resize_0-target.png,125.0,1.4385,1.4385,1.0,6273,1011,20,947,138,492,,571181,32,Man
35,247407,DepthScenes,v2_duration_discrimination,discrim_jsons/Discrim125_randls_37.json,http://54.235.29.9/FacialAge/BNav_EC2/DepthDuration/v2_depth_discrimination_MTurk/v2_DepthDiscrim_HTML.html#46,46,1366,625,1366,768,9-17-2022,10-19-34,36,depth_discrimination_stimuli/000917_2014-06-09_22-45-29_260595134347_rgbf000149-resize_3/000917_2014-06-09_22-45-29_260595134347_rgbf000149-resize_3-target.png,depth_discrimination_stimuli/002323_2014-06-28_20-01-54_260595134347_rgbf000051-resize_4/002323_2014-06-28_20-01-54_260595134347_rgbf000051-resize_4-target.png,125.0,4.1865,3.7310000000000003,0.0,3078,1005,128,1003,124,498,,571181,32,Man
36,247407,DepthScenes,v2_duration_discrimination,discrim_jsons/Discrim125_randls_37.json,http://54.235.29.9/FacialAge/BNav_EC2/DepthDuration/v2_depth_discrimination_MTurk/v2_DepthDiscrim_HTML.html#46,46,1366,625,1366,768,9-17-2022,10-19-34,37,depth_discrimination_stimuli/001029_2014-06-08_13-17-57_260595134347_rgbf000065-resize_1/001029_2014-06-08_13-17-57_260595134347_rgbf000065-resize_1-target.png,depth_discrimination_stimuli/000677_2014-06-08_23-10-32_260595134347_rgbf000158-resize_6/000677_2014-06-08_23-10-32_260595134347_rgbf000158-resize_6-target.png,125.0,3.0835,3.556,1.0,7002,1000,128,1008,111,501,,571181,32,Man
37,247407,DepthScenes,v2_duration_discrimination,discrim_jsons/Discrim125_randls_37.json,http://54.235.29.9/FacialAge/BNav_EC2/DepthDuration/v2_depth_discrimination_MTurk/v2_DepthDiscrim_HTML.html#46,46,1366,625,1366,768,9-17-2022,10-19-34,38,depth_discrimination_stimuli/000739_2014-06-08_18-45-58_260595134347_rgbf000068-resize_1/000739_2014-06-08_18-45-58_260595134347_rgbf000068-resize_1-target.png,depth_discrimination_stimuli/000734_2014-06-08_17-39-11_260595134347_rgbf000128-resize_2/000734_2014-06-08_17-39-11_260595134347_rgbf000128-resize_2-target.png,125.0,3.534,4.098,0.0,7604,1012,126,994,122,507,,571181,32,Man
38,247407,DepthScenes,v2_duration_discrimination,discrim_jsons/Discrim125_randls_37.json,http://54.235.29.9/FacialAge/BNav_EC2/DepthDuration/v2_depth_discrimination_MTurk/v2_DepthDiscrim_HTML.html#46,46,1366,625,1366,768,9-17-2022,10-19-34,39,depth_discrimination_stimuli/001808_2014-06-26_20-50-58_260595134347_rgbf000029-resize_1/001808_2014-06-26_20-50-58_260595134347_rgbf000029-resize_1-target.png,depth_discrimination_stimuli/001815_2014-06-26_20-52-55_260595134347_rgbf000020-resize_0/001815_2014-06-26_20-52-55_260595134347_rgbf000020-resize_0-target.png,125.0,4.249,3.3865,1.0,5872,1015,120,1002,146,476,,571181,32,Man
39,247407,DepthScenes,v2_duration_discrimination,discrim_jsons/Discrim125_randls_37.json,http://54.235.29.9/FacialAge/BNav_EC2/DepthDuration/v2_depth_discrimination_MTurk/v2_DepthDiscrim_HTML.html#46,46,1366,625,1366,768,9-17-2022,10-19-34,40,depth_discrimination_stimuli/001199_2014-06-17_16-03-48_260595134347_rgbf000077-resize_0/001199_2014-06-17_16-03-48_260595134347_rgbf000077-resize_0-target.png,depth_discrimination_stimuli/000502_2014-06-08_23-02-32_260595134347_rgbf000063-resize_4/000502_2014-06-08_23-02-32_260595134347_rgbf000063-resize_4-target.png,125.0,3.4375,2.431,1.0,10024,1002,135,988,121,559,,571181,32,Man
40,247407,DepthScenes,v2_duration_discrimination,discrim_jsons/Discrim125_randls_37.json,http://54.235.29.9/FacialAge/BNav_EC2/DepthDuration/v2_depth_discrimination_MTurk/v2_DepthDiscrim_HTML.html#46,46,1366,625,1366,768,9-17-2022,10-19-34,41,depth_discrimination_stimuli/001167_2014-06-17_15-38-07_260595134347_rgbf000108-resize_0/001167_2014-06-17_15-38-07_260595134347_rgbf000108-resize_0-target.png,depth_discrimination_stimuli/003587_2014-05-23_16-48-02_094959634447_rgbf002384-resize_2/003587_2014-05-23_16-48-02_094959634447_rgbf002384-resize_2-target.png,125.0,1.8505,1.357,0.0,4995,1001,134,999,125,498,,571181,32,Man
41,247407,DepthScenes,v2_duration_discrimination,discrim_jsons/Discrim125_randls_37.json,http://54.235.29.9/FacialAge/BNav_EC2/DepthDuration/v2_depth_discrimination_MTurk/v2_DepthDiscrim_HTML.html#46,46,1366,625,1366,768,9-17-2022,10-19-34,42,depth_discrimination_stimuli/002784_2014-06-22_19-26-30_094959634447_rgbf000083-resize_3/002784_2014-06-22_19-26-30_094959634447_rgbf000083-resize_3-target.png,depth_discrimination_stimuli/001100_2014-06-15_17-46-26_260595134347_rgbf000225-resize_2/001100_2014-06-15_17-46-26_260595134347_rgbf000225-resize_2-target.png,125.0,1.8046666666667,2.24,1.0,5712,1015,111,1004,125,508,,571181,32,Man
42,247407,DepthScenes,v2_duration_discrimination,discrim_jsons/Discrim125_randls_37.json,http://54.235.29.9/FacialAge/BNav_EC2/DepthDuration/v2_depth_discrimination_MTurk/v2_DepthDiscrim_HTML.html#46,46,1366,625,1366,768,9-17-2022,10-19-34,43,depth_discrimination_stimuli/001806_2014-06-26_20-50-20_260595134347_rgbf000091-resize_1/001806_2014-06-26_20-50-20_260595134347_rgbf000091-resize_1-target.png,depth_discrimination_stimuli/001617_2014-06-20_11-35-32_260595134347_rgbf000066-resize_1/001617_2014-06-20_11-35-32_260595134347_rgbf000066-resize_1-target.png,125.0,2.7305,3.7910000000000004,1.0,3505,1019,130,1004,138,469,,571181,32,Man
43,247407,DepthScenes,v2_duration_discrimination,discrim_jsons/Discrim125_randls_37.json,http://54.235.29.9/FacialAge/BNav_EC2/DepthDuration/v2_depth_discrimination_MTurk/v2_DepthDiscrim_HTML.html#46,46,1366,625,1366,768,9-17-2022,10-19-34,44,depth_discrimination_stimuli/001150_2014-06-17_15-27-34_260595134347_rgbf000108-resize_2/001150_2014-06-17_15-27-34_260595134347_rgbf000108-resize_2-target.png,depth_discrimination_stimuli/000665_2014-06-09_20-42-35_260595134347_rgbf000110-resize_1/000665_2014-06-09_20-42-35_260595134347_rgbf000110-resize_1-target.png,125.0,4.0325,3.057,0.0,3523,1017,124,1004,125,497,,571181,32,Man
44,247407,DepthScenes,v2_duration_discrimination,discrim_jsons/Discrim125_randls_37.json,http://54.235.29.9/FacialAge/BNav_EC2/DepthDuration/v2_depth_discrimination_MTurk/v2_DepthDiscrim_HTML.html#46,46,1366,625,1366,768,9-17-2022,10-19-34,45,depth_discrimination_stimuli/001158_2014-06-17_15-32-16_260595134347_rgbf000138-resize_2/001158_2014-06-17_15-32-16_260595134347_rgbf000138-resize_2-target.png,depth_discrimination_stimuli/000556_2014-06-09_22-42-56_260595134347_rgbf000214-resize_1/000556_2014-06-09_22-42-56_260595134347_rgbf000214-resize_1-target.png,125.0,4.5315,4.8415,1.0,3154,1009,122,1008,126,494,,571181,32,Man
45,247407,DepthScenes,v2_duration_discrimination,discrim_jsons/Discrim125_randls_37.json,http://54.235.29.9/FacialAge/BNav_EC2/DepthDuration/v2_depth_discrimination_MTurk/v2_DepthDiscrim_HTML.html#46,46,1366,625,1366,768,9-17-2022,10-19-34,46,depth_discrimination_stimuli/000368_2014-06-09_15-53-01_260595134347_rgbf000155-resize_2/000368_2014-06-09_15-53-01_260595134347_rgbf000155-resize_2-target.png,depth_discrimination_stimuli/002678_2014-06-13_16-15-32_094959634447_rgbf000151-resize_6/002678_2014-06-13_16-15-32_094959634447_rgbf000151-resize_6-target.png,125.0,2.4859999999999998,2.1830000000000003,0.0,6141,1014,122,1001,117,507,,571181,32,Man
46,247407,DepthScenes,v2_duration_discrimination,discrim_jsons/Discrim125_randls_37.json,http://54.235.29.9/FacialAge/BNav_EC2/DepthDuration/v2_depth_discrimination_MTurk/v2_DepthDiscrim_HTML.html#46,46,1366,625,1366,768,9-17-2022,10-19-34,47,depth_discrimination_stimuli/002964_2014-06-08_17-46-11_094959634447_rgbf000091-resize_4/002964_2014-06-08_17-46-11_094959634447_rgbf000091-resize_4-target.png,depth_discrimination_stimuli/002136_2014-06-25_21-18-03_260595134347_rgbf000109-resize_3/002136_2014-06-25_21-18-03_260595134347_rgbf000109-resize_3-target.png,125.0,1.6909999999999998,1.9569999999999999,0.0,2900,1029,31,980,130,492,,571181,32,Man
47,247407,DepthScenes,v2_duration_discrimination,discrim_jsons/Discrim125_randls_37.json,http://54.235.29.9/FacialAge/BNav_EC2/DepthDuration/v2_depth_discrimination_MTurk/v2_DepthDiscrim_HTML.html#46,46,1366,625,1366,768,9-17-2022,10-19-34,48,depth_discrimination_stimuli/001244_2014-06-17_16-47-45_260595134347_rgbf000030-resize_4/001244_2014-06-17_16-47-45_260595134347_rgbf000030-resize_4-target.png,depth_discrimination_stimuli/003495_2014-05-21_16-01-51_094959634447_rgbf000100-resize_3/003495_2014-05-21_16-01-51_094959634447_rgbf000100-resize_3-target.png,125.0,2.0425,1.6255,1.0,4754,1134,7,1022,65,527,,571181,32,Man
48,247407,DepthScenes,v2_duration_discrimination,discrim_jsons/Discrim125_randls_37.json,http://54.235.29.9/FacialAge/BNav_EC2/DepthDuration/v2_depth_discrimination_MTurk/v2_DepthDiscrim_HTML.html#46,46,1366,625,1366,768,9-17-2022,10-19-34,49,depth_discrimination_stimuli/002375_2014-06-28_20-13-44_260595134347_rgbf000032-resize_1/002375_2014-06-28_20-13-44_260595134347_rgbf000032-resize_1-target.png,depth_discrimination_stimuli/002657_2014-06-13_15-29-54_094959634447_rgbf000150-resize_1/002657_2014-06-13_15-29-54_094959634447_rgbf000150-resize_1-target.png,125.0,4.0175,4.919,0.0,6859,1015,124,1174,1,452,,571181,32,Man
49,247407,DepthScenes,v2_duration_discrimination,discrim_jsons/Discrim125_randls_37.json,http://54.235.29.9/FacialAge/BNav_EC2/DepthDuration/v2_depth_discrimination_MTurk/v2_DepthDiscrim_HTML.html#46,46,1366,625,1366,768,9-17-2022,10-19-34,50,depth_discrimination_stimuli/003534_2014-05-22_15-06-10_094959634447_rgbf000102-resize_4/003534_2014-05-22_15-06-10_094959634447_rgbf000102-resize_4-target.png,depth_discrimination_stimuli/002637_2014-06-24_14-51-13_094959634447_rgbf000066-resize_4/002637_2014-06-24_14-51-13_094959634447_rgbf000066-resize_4-target.png,125.0,1.426,1.9955,1.0,2841,1017,130,994,124,495,,571181,32,Man
50,247407,DepthScenes,v2_duration_discrimination,discrim_jsons/Discrim125_randls_37.json,http://54.235.29.9/FacialAge/BNav_EC2/DepthDuration/v2_depth_discrimination_MTurk/v2_DepthDiscrim_HTML.html#46,46,1366,625,1366,768,9-17-2022,10-19-34,51,depth_discrimination_stimuli/001449_2014-06-19_17-01-27_260595134347_rgbf000116-resize_2/001449_2014-06-19_17-01-27_260595134347_rgbf000116-resize_2-target.png,depth_discrimination_stimuli/001450_2014-06-19_17-02-03_260595134347_rgbf000203-resize_4/001450_2014-06-19_17-02-03_260595134347_rgbf000203-resize_4-target.png,125.0,3.452,4.0106666666667,1.0,3560,1007,125,993,135,494,,571181,32,Man
51,247407,DepthScenes,v2_duration_discrimination,discrim_jsons/Discrim125_randls_37.json,http://54.235.29.9/FacialAge/BNav_EC2/DepthDuration/v2_depth_discrimination_MTurk/v2_DepthDiscrim_HTML.html#46,46,1366,625,1366,768,9-17-2022,10-19-34,52,depth_discrimination_stimuli/001540_2014-06-20_17-01-05_260595134347_rgbf000086-resize_2/001540_2014-06-20_17-01-05_260595134347_rgbf000086-resize_2-target.png,depth_discrimination_stimuli/001540_2014-06-20_17-01-05_260595134347_rgbf000086-resize_2/001540_2014-06-20_17-01-05_260595134347_rgbf000086-resize_2-target.png,125.0,1.459,1.459,0.0,2370,1022,122,997,135,493,,571181,32,Man
52,247407,DepthScenes,v2_duration_discrimination,discrim_jsons/Discrim125_randls_37.json,http://54.235.29.9/FacialAge/BNav_EC2/DepthDuration/v2_depth_discrimination_MTurk/v2_DepthDiscrim_HTML.html#46,46,1366,625,1366,768,9-17-2022,10-19-34,53,depth_discrimination_stimuli/000788_2014-06-08_22-34-36_260595134347_rgbf000131-resize_1/000788_2014-06-08_22-34-36_260595134347_rgbf000131-resize_1-target.png,depth_discrimination_stimuli/001235_2014-06-17_16-37-36_260595134347_rgbf000084-resize_4/001235_2014-06-17_16-37-36_260595134347_rgbf000084-resize_4-target.png,125.0,3.359,3.6605,1.0,3187,1008,117,998,119,507,,571181,32,Man
53,247407,DepthScenes,v2_duration_discrimination,discrim_jsons/Discrim125_randls_37.json,http://54.235.29.9/FacialAge/BNav_EC2/DepthDuration/v2_depth_discrimination_MTurk/v2_DepthDiscrim_HTML.html#46,46,1366,625,1366,768,9-17-2022,10-19-34,54,depth_discrimination_stimuli/001417_2014-06-19_16-25-36_260595134347_rgbf000115-resize_5/001417_2014-06-19_16-25-36_260595134347_rgbf000115-resize_5-target.png,depth_discrimination_stimuli/003081_2014-06-15_15-19-16_094959634447_rgbf000150-resize_1/003081_2014-06-15_15-19-16_094959634447_rgbf000150-resize_1-target.png,125.0,4.6255,3.9125,0.0,4810,1024,115,1063,73,480,,571181,32,Man
54,247407,DepthScenes,v2_duration_discrimination,discrim_jsons/Discrim125_randls_37.json,http://54.235.29.9/FacialAge/BNav_EC2/DepthDuration/v2_depth_discrimination_MTurk/v2_DepthDiscrim_HTML.html#46,46,1366,625,1366,768,9-17-2022,10-19-34,55,depth_discrimination_stimuli/000878_2014-06-08_22-52-45_260595134347_rgbf000045-resize_2/000878_2014-06-08_22-52-45_260595134347_rgbf000045-resize_2-target.png,depth_discrimination_stimuli/002953_2014-06-08_17-32-18_094959634447_rgbf000059-resize_5/002953_2014-06-08_17-32-18_094959634447_rgbf000059-resize_5-target.png,125.0,2.092,1.551,1.0,4397,1010,122,998,132,494,,571181,32,Man
55,247407,DepthScenes,v2_duration_discrimination,discrim_jsons/Discrim125_randls_37.json,http://54.235.29.9/FacialAge/BNav_EC2/DepthDuration/v2_depth_discrimination_MTurk/v2_DepthDiscrim_HTML.html#46,46,1366,625,1366,768,9-17-2022,10-19-34,56,depth_discrimination_stimuli/000736_2014-06-08_18-24-15_260595134347_rgbf000206-resize_3/000736_2014-06-08_18-24-15_260595134347_rgbf000206-resize_3-target.png,depth_discrimination_stimuli/000137_2014-05-20_17-04-49_260595134347_rgbf000120-resize_1/000137_2014-05-20_17-04-49_260595134347_rgbf000120-resize_1-target.png,125.0,3.515,3.786,0.0,4401,1017,120,1007,110,498,,571181,32,Man
56,247407,DepthScenes,v2_duration_discrimination,discrim_jsons/Discrim125_randls_37.json,http://54.235.29.9/FacialAge/BNav_EC2/DepthDuration/v2_depth_discrimination_MTurk/v2_DepthDiscrim_HTML.html#46,46,1366,625,1366,768,9-17-2022,10-19-34,57,depth_discrimination_stimuli/001055_2014-06-08_18-45-35_260595134347_rgbf000111-resize_4/001055_2014-06-08_18-45-35_260595134347_rgbf000111-resize_4-target.png,depth_discrimination_stimuli/000549_2014-06-08_22-10-24_260595134347_rgbf000247-resize_3/000549_2014-06-08_22-10-24_260595134347_rgbf000247-resize_3-target.png,125.0,2.4290000000000003,1.841,1.0,1844,1001,124,999,133,505,,571181,32,Man
57,247407,DepthScenes,v2_duration_discrimination,discrim_jsons/Discrim125_randls_37.json,http://54.235.29.9/FacialAge/BNav_EC2/DepthDuration/v2_depth_discrimination_MTurk/v2_DepthDiscrim_HTML.html#46,46,1366,625,1366,768,9-17-2022,10-19-34,58,depth_discrimination_stimuli/000486_2014-06-09_20-47-20_260595134347_rgbf000143-resize_2/000486_2014-06-09_20-47-20_260595134347_rgbf000143-resize_2-target.png,depth_discrimination_stimuli/003083_2014-06-15_15-21-03_094959634447_rgbf000063-resize_1/003083_2014-06-15_15-21-03_094959634447_rgbf000063-resize_1-target.png,125.0,4.8325,4.1405,0.0,2013,1014,126,1003,127,490,,571181,32,Man
58,247407,DepthScenes,v2_duration_discrimination,discrim_jsons/Discrim125_randls_37.json,http://54.235.29.9/FacialAge/BNav_EC2/DepthDuration/v2_depth_discrimination_MTurk/v2_DepthDiscrim_HTML.html#46,46,1366,625,1366,768,9-17-2022,10-19-34,59,depth_discrimination_stimuli/002788_2014-06-22_19-36-03_094959634447_rgbf000088-resize_2/002788_2014-06-22_19-36-03_094959634447_rgbf000088-resize_2-target.png,depth_discrimination_stimuli/000749_2014-06-08_21-55-06_260595134347_rgbf000070-resize_2/000749_2014-06-08_21-55-06_260595134347_rgbf000070-resize_2-target.png,125.0,1.6465,2.331,1.0,2969,1030,111,1005,142,479,,571181,32,Man
59,247407,DepthScenes,v2_duration_discrimination,discrim_jsons/Discrim125_randls_37.json,http://54.235.29.9/FacialAge/BNav_EC2/DepthDuration/v2_depth_discrimination_MTurk/v2_DepthDiscrim_HTML.html#46,46,1366,625,1366,768,9-17-2022,10-19-34,60,depth_discrimination_stimuli/000414_2014-06-04_19-49-13_260595134347_rgbf000044-resize_0/000414_2014-06-04_19-49-13_260595134347_rgbf000044-resize_0-target.png,depth_discrimination_stimuli/003129_2014-05-12_10-48-10_094959634447_rgbf000100-resize_0/003129_2014-05-12_10-48-10_094959634447_rgbf000100-resize_0-target.png,125.0,4.329,4.9305,0.0,2843,1014,117,1007,115,496,,571181,32,Man
60,247407,DepthScenes,v2_duration_discrimination,discrim_jsons/Discrim125_randls_37.json,http://54.235.29.9/FacialAge/BNav_EC2/DepthDuration/v2_depth_discrimination_MTurk/v2_DepthDiscrim_HTML.html#46,46,1366,625,1366,768,9-17-2022,10-19-34,61,depth_discrimination_stimuli/001170_2014-06-17_15-43-44_260595134347_rgbf000096-resize_6/001170_2014-06-17_15-43-44_260595134347_rgbf000096-resize_6-target.png,depth_discrimination_stimuli/001170_2014-06-17_15-43-44_260595134347_rgbf000096-resize_6/001170_2014-06-17_15-43-44_260595134347_rgbf000096-resize_6-target.png,125.0,1.1909999999999998,1.1909999999999998,1.0,2786,1001,137,996,122,508,,571181,32,Man
61,247407,DepthScenes,v2_duration_discrimination,discrim_jsons/Discrim125_randls_37.json,http://54.235.29.9/FacialAge/BNav_EC2/DepthDuration/v2_depth_discrimination_MTurk/v2_DepthDiscrim_HTML.html#46,46,1366,625,1366,768,9-17-2022,10-19-34,62,depth_discrimination_stimuli/002763_2014-06-22_19-13-10_094959634447_rgbf000075-resize_4/002763_2014-06-22_19-13-10_094959634447_rgbf000075-resize_4-target.png,depth_discrimination_stimuli/002209_2014-06-28_18-36-10_260595134347_rgbf000051-resize_1/002209_2014-06-28_18-36-10_260595134347_rgbf000051-resize_1-target.png,125.0,1.68375,2.057,0.0,2471,1010,81,994,121,580,,571181,32,Man
62,247407,DepthScenes,v2_duration_discrimination,discrim_jsons/Discrim125_randls_37.json,http://54.235.29.9/FacialAge/BNav_EC2/DepthDuration/v2_depth_discrimination_MTurk/v2_DepthDiscrim_HTML.html#46,46,1366,625,1366,768,9-17-2022,10-19-34,63,depth_discrimination_stimuli/000436_2014-06-09_22-25-11_260595134347_rgbf000137-resize_1/000436_2014-06-09_22-25-11_260595134347_rgbf000137-resize_1-target.png,depth_discrimination_stimuli/002444_2014-06-28_20-32-08_260595134347_rgbf000027-resize_0/002444_2014-06-28_20-32-08_260595134347_rgbf000027-resize_0-target.png,125.0,4.0705,4.388999999999999,1.0,5162,1021,118,1008,156,458,,571181,32,Man
63,247407,DepthScenes,v2_duration_discrimination,discrim_jsons/Discrim125_randls_37.json,http://54.235.29.9/FacialAge/BNav_EC2/DepthDuration/v2_depth_discrimination_MTurk/v2_DepthDiscrim_HTML.html#46,46,1366,625,1366,768,9-17-2022,10-19-34,64,depth_discrimination_stimuli/002570_2014-06-24_13-59-54_094959634447_rgbf000059-resize_0/002570_2014-06-24_13-59-54_094959634447_rgbf000059-resize_0-target.png,depth_discrimination_stimuli/002467_2014-06-28_20-38-07_260595134347_rgbf000026-resize_2/002467_2014-06-28_20-38-07_260595134347_rgbf000026-resize_2-target.png,125.0,4.037,4.742,1.0,2122,1010,112,988,820,12,,571181,32,Man
64,247407,DepthScenes,v2_duration_discrimination,discrim_jsons/Discrim125_randls_37.json,http://54.235.29.9/FacialAge/BNav_EC2/DepthDuration/v2_depth_discrimination_MTurk/v2_DepthDiscrim_HTML.html#46,46,1366,625,1366,768,9-17-2022,10-19-34,65,depth_discrimination_stimuli/003621_2014-05-23_18-06-08_094959634447_rgbf000101-resize_1/003621_2014-05-23_18-06-08_094959634447_rgbf000101-resize_1-target.png,depth_discrimination_stimuli/001584_2014-06-20_11-07-43_260595134347_rgbf000002-resize_1/001584_2014-06-20_11-07-43_260595134347_rgbf000002-resize_1-target.png,125.0,3.9835,3.53,0.0,4294,1004,125,996,132,491,,571181,32,Man
65,247407,DepthScenes,v2_duration_discrimination,discrim_jsons/Discrim125_randls_37.json,http://54.235.29.9/FacialAge/BNav_EC2/DepthDuration/v2_depth_discrimination_MTurk/v2_DepthDiscrim_HTML.html#46,46,1366,625,1366,768,9-17-2022,10-19-34,66,depth_discrimination_stimuli/001555_2014-06-20_17-12-10_260595134347_rgbf000065-resize_4/001555_2014-06-20_17-12-10_260595134347_rgbf000065-resize_4-target.png,depth_discrimination_stimuli/000103_2014-05-14_22-01-17_260595134347_rgbf000152-resize_5/000103_2014-05-14_22-01-17_260595134347_rgbf000152-resize_5-target.png,125.0,1.633,1.993,1.0,3196,1015,119,1007,155,465,,571181,32,Man
66,247407,DepthScenes,v2_duration_discrimination,discrim_jsons/Discrim125_randls_37.json,http://54.235.29.9/FacialAge/BNav_EC2/DepthDuration/v2_depth_discrimination_MTurk/v2_DepthDiscrim_HTML.html#46,46,1366,625,1366,768,9-17-2022,10-19-34,67,depth_discrimination_stimuli/002630_2014-06-24_14-47-50_094959634447_rgbf000055-resize_1/002630_2014-06-24_14-47-50_094959634447_rgbf000055-resize_1-target.png,depth_discrimination_stimuli/002758_2014-06-22_19-11-20_094959634447_rgbf000128-resize_1/002758_2014-06-22_19-11-20_094959634447_rgbf000128-resize_1-target.png,125.0,3.0095,2.555,0.0,4047,1006,135,994,122,492,,571181,32,Man
67,247407,DepthScenes,v2_duration_discrimination,discrim_jsons/Discrim125_randls_37.json,http://54.235.29.9/FacialAge/BNav_EC2/DepthDuration/v2_depth_discrimination_MTurk/v2_DepthDiscrim_HTML.html#46,46,1366,625,1366,768,9-17-2022,10-19-34,68,depth_discrimination_stimuli/001110_2014-06-15_17-25-28_260595134347_rgbf000150-resize_1/001110_2014-06-15_17-25-28_260595134347_rgbf000150-resize_1-target.png,depth_discrimination_stimuli/000927_2014-06-09_16-32-30_260595134347_rgbf000123-resize_3/000927_2014-06-09_16-32-30_260595134347_rgbf000123-resize_3-target.png,125.0,1.7115,2.6785,0.0,3688,1002,124,1123,1,494,,571181,32,Man
68,247407,DepthScenes,v2_duration_discrimination,discrim_jsons/Discrim125_randls_37.json,http://54.235.29.9/FacialAge/BNav_EC2/DepthDuration/v2_depth_discrimination_MTurk/v2_DepthDiscrim_HTML.html#46,46,1366,625,1366,768,9-17-2022,10-19-34,69,depth_discrimination_stimuli/000470_2014-06-09_19-42-40_260595134347_rgbf000094-resize_1/000470_2014-06-09_19-42-40_260595134347_rgbf000094-resize_1-target.png,depth_discrimination_stimuli/000109_2014-05-14_23-41-52_260595134347_rgbf000035-resize_9/000109_2014-05-14_23-41-52_260595134347_rgbf000035-resize_9-target.png,125.0,1.831,1.3545,1.0,2171,1012,125,987,138,498,,571181,32,Man
69,247407,DepthScenes,v2_duration_discrimination,discrim_jsons/Discrim125_randls_37.json,http://54.235.29.9/FacialAge/BNav_EC2/DepthDuration/v2_depth_discrimination_MTurk/v2_DepthDiscrim_HTML.html#46,46,1366,625,1366,768,9-17-2022,10-19-34,70,depth_discrimination_stimuli/003492_2014-05-21_15-50-55_094959634447_rgbf000828-resize_1/003492_2014-05-21_15-50-55_094959634447_rgbf000828-resize_1-target.png,depth_discrimination_stimuli/002568_2014-06-24_13-59-21_094959634447_rgbf000062-resize_4/002568_2014-06-24_13-59-21_094959634447_rgbf000062-resize_4-target.png,125.0,4.06875,3.015,1.0,1867,1005,135,1008,104,492,,571181,32,Man
70,247407,DepthScenes,v2_duration_discrimination,discrim_jsons/Discrim125_randls_37.json,http://54.235.29.9/FacialAge/BNav_EC2/DepthDuration/v2_depth_discrimination_MTurk/v2_DepthDiscrim_HTML.html#46,46,1366,625,1366,768,9-17-2022,10-19-34,71,depth_discrimination_stimuli/002072_2014-06-24_21-48-06_260595134347_rgbf000115-resize_0/002072_2014-06-24_21-48-06_260595134347_rgbf000115-resize_0-target.png,depth_discrimination_stimuli/002072_2014-06-24_21-48-06_260595134347_rgbf000115-resize_0/002072_2014-06-24_21-48-06_260595134347_rgbf000115-resize_0-target.png,125.0,4.702,4.702,1.0,2332,1015,126,1226,40,352,,571181,32,Man
71,247407,DepthScenes,v2_duration_discrimination,discrim_jsons/Discrim125_randls_37.json,http://54.235.29.9/FacialAge/BNav_EC2/DepthDuration/v2_depth_discrimination_MTurk/v2_DepthDiscrim_HTML.html#46,46,1366,625,1366,768,9-17-2022,10-19-34,72,depth_discrimination_stimuli/000692_2014-06-08_13-09-42_260595134347_rgbf000199-resize_2/000692_2014-06-08_13-09-42_260595134347_rgbf000199-resize_2-target.png,depth_discrimination_stimuli/001094_2014-06-15_17-36-00_260595134347_rgbf000205-resize_0/001094_2014-06-15_17-36-00_260595134347_rgbf000205-resize_0-target.png,125.0,3.661,4.2175,0.0,2164,1017,125,1006,124,492,,571181,32,Man
72,247407,DepthScenes,v2_duration_discrimination,discrim_jsons/Discrim125_randls_37.json,http://54.235.29.9/FacialAge/BNav_EC2/DepthDuration/v2_depth_discrimination_MTurk/v2_DepthDiscrim_HTML.html#46,46,1366,625,1366,768,9-17-2022,10-19-34,73,depth_discrimination_stimuli/001164_2014-06-17_15-35-46_260595134347_rgbf000085-resize_3/001164_2014-06-17_15-35-46_260595134347_rgbf000085-resize_3-target.png,depth_discrimination_stimuli/001136_2014-06-17_15-19-41_260595134347_rgbf000076-resize_3/001136_2014-06-17_15-19-41_260595134347_rgbf000076-resize_3-target.png,125.0,2.354,1.8655,0.0,1854,1000,126,1006,129,500,,571181,32,Man
73,247407,DepthScenes,v2_duration_discrimination,discrim_jsons/Discrim125_randls_37.json,http://54.235.29.9/FacialAge/BNav_EC2/DepthDuration/v2_depth_discrimination_MTurk/v2_DepthDiscrim_HTML.html#46,46,1366,625,1366,768,9-17-2022,10-19-34,74,depth_discrimination_stimuli/002725_2014-06-22_11-47-51_094959634447_rgbf000070-resize_1/002725_2014-06-22_11-47-51_094959634447_rgbf000070-resize_1-target.png,depth_discrimination_stimuli/002344_2014-06-28_20-06-29_260595134347_rgbf000030-resize_1/002344_2014-06-28_20-06-29_260595134347_rgbf000030-resize_1-target.png,125.0,2.195,1.5795,1.0,1695,1014,107,1005,116,506,,571181,32,Man
74,247407,DepthScenes,v2_duration_discrimination,discrim_jsons/Discrim125_randls_37.json,http://54.235.29.9/FacialAge/BNav_EC2/DepthDuration/v2_depth_discrimination_MTurk/v2_DepthDiscrim_HTML.html#46,46,1366,625,1366,768,9-17-2022,10-19-34,75,depth_discrimination_stimuli/000929_2014-06-09_16-33-19_260595134347_rgbf000139-resize_0/000929_2014-06-09_16-33-19_260595134347_rgbf000139-resize_0-target.png,depth_discrimination_stimuli/000457_2014-06-08_16-52-43_260595134347_rgbf000199-resize_1/000457_2014-06-08_16-52-43_260595134347_rgbf000199-resize_1-target.png,125.0,2.8680000000000003,3.6489999999999996,0.0,2117,1014,112,1007,114,511,,571181,32,Man
75,247407,DepthScenes,v2_duration_discrimination,discrim_jsons/Discrim125_randls_37.json,http://54.235.29.9/FacialAge/BNav_EC2/DepthDuration/v2_depth_discrimination_MTurk/v2_DepthDiscrim_HTML.html#46,46,1366,625,1366,768,9-17-2022,10-19-34,76,depth_discrimination_stimuli/002445_2014-06-28_20-32-16_260595134347_rgbf000029-resize_4/002445_2014-06-28_20-32-16_260595134347_rgbf000029-resize_4-target.png,depth_discrimination_stimuli/000780_2014-06-08_22-28-29_260595134347_rgbf000126-resize_1/000780_2014-06-08_22-28-29_260595134347_rgbf000126-resize_1-target.png,125.0,2.5315,3.3825,1.0,1852,1016,202,929,124,499,,571181,32,Man
76,247407,DepthScenes,v2_duration_discrimination,discrim_jsons/Discrim125_randls_37.json,http://54.235.29.9/FacialAge/BNav_EC2/DepthDuration/v2_depth_discrimination_MTurk/v2_DepthDiscrim_HTML.html#46,46,1366,625,1366,768,9-17-2022,10-19-34,77,depth_discrimination_stimuli/001498_2014-06-19_17-45-14_260595134347_rgbf000129-resize_4/001498_2014-06-19_17-45-14_260595134347_rgbf000129-resize_4-target.png,depth_discrimination_stimuli/001498_2014-06-19_17-45-14_260595134347_rgbf000129-resize_4/001498_2014-06-19_17-45-14_260595134347_rgbf000129-resize_4-target.png,125.0,1.4075,1.4075,0.0,1600,1015,112,989,139,487,,571181,32,Man
77,247407,DepthScenes,v2_duration_discrimination,discrim_jsons/Discrim125_randls_37.json,http://54.235.29.9/FacialAge/BNav_EC2/DepthDuration/v2_depth_discrimination_MTurk/v2_DepthDiscrim_HTML.html#46,46,1366,625,1366,768,9-17-2022,10-19-34,78,depth_discrimination_stimuli/001175_2014-06-17_15-45-55_260595134347_rgbf000129-resize_4/001175_2014-06-17_15-45-55_260595134347_rgbf000129-resize_4-target.png,depth_discrimination_stimuli/003490_2014-05-21_15-50-11_094959634447_rgbf000101-resize_3/003490_2014-05-21_15-50-11_094959634447_rgbf000101-resize_3-target.png,125.0,4.255,3.6445,0.0,5268,1008,131,991,124,502,,571181,32,Man
78,247407,DepthScenes,v2_duration_discrimination,discrim_jsons/Discrim125_randls_37.json,http://54.235.29.9/FacialAge/BNav_EC2/DepthDuration/v2_depth_discrimination_MTurk/v2_DepthDiscrim_HTML.html#46,46,1366,625,1366,768,9-17-2022,10-19-34,79,depth_discrimination_stimuli/003070_2014-06-15_14-58-27_094959634447_rgbf000150-resize_3/003070_2014-06-15_14-58-27_094959634447_rgbf000150-resize_3-target.png,depth_discrimination_stimuli/000943_2014-06-09_19-31-07_260595134347_rgbf000128-resize_1/000943_2014-06-09_19-31-07_260595134347_rgbf000128-resize_1-target.png,125.0,2.9415,1.9765,1.0,3431,1014,123,992,126,506,,571181,32,Man
79,247407,DepthScenes,v2_duration_discrimination,discrim_jsons/Discrim125_randls_37.json,http://54.235.29.9/FacialAge/BNav_EC2/DepthDuration/v2_depth_discrimination_MTurk/v2_DepthDiscrim_HTML.html#46,46,1366,625,1366,768,9-17-2022,10-19-34,80,depth_discrimination_stimuli/001133_2014-06-17_14-49-16_260595134347_rgbf000100-resize_0/001133_2014-06-17_14-49-16_260595134347_rgbf000100-resize_0-target.png,depth_discrimination_stimuli/001132_2014-06-17_14-48-54_260595134347_rgbf000100-resize_2/001132_2014-06-17_14-48-54_260595134347_rgbf000100-resize_2-target.png,125.0,4.2115,3.753,0.0,1687,1001,127,1010,119,493,,571181,32,Man
80,247407,DepthScenes,v2_duration_discrimination,discrim_jsons/Discrim125_randls_37.json,http://54.235.29.9/FacialAge/BNav_EC2/DepthDuration/v2_depth_discrimination_MTurk/v2_DepthDiscrim_HTML.html#46,46,1366,625,1366,768,9-17-2022,10-19-34,81,depth_discrimination_stimuli/001810_2014-06-26_20-51-35_260595134347_rgbf000040-resize_3/001810_2014-06-26_20-51-35_260595134347_rgbf000040-resize_3-target.png,depth_discrimination_stimuli/003010_2014-06-15_12-54-35_094959634447_rgbf000112-resize_0/003010_2014-06-15_12-54-35_094959634447_rgbf000112-resize_0-target.png,125.0,2.2525,3.1185,0.0,1891,1026,89,1003,127,489,,571181,32,Man
81,247407,DepthScenes,v2_duration_discrimination,discrim_jsons/Discrim125_randls_37.json,http://54.235.29.9/FacialAge/BNav_EC2/DepthDuration/v2_depth_discrimination_MTurk/v2_DepthDiscrim_HTML.html#46,46,1366,625,1366,768,9-17-2022,10-19-34,82,depth_discrimination_stimuli/000642_2014-06-08_16-59-25_260595134347_rgbf000098-resize_2/000642_2014-06-08_16-59-25_260595134347_rgbf000098-resize_2-target.png,depth_discrimination_stimuli/002425_2014-06-28_20-27-29_260595134347_rgbf000031-resize_8/002425_2014-06-28_20-27-29_260595134347_rgbf000031-resize_8-target.png,125.0,2.8815,3.8960000000000004,1.0,1877,1017,99,984,124,509,,571181,32,Man
82,247407,DepthScenes,v2_duration_discrimination,discrim_jsons/Discrim125_randls_37.json,http://54.235.29.9/FacialAge/BNav_EC2/DepthDuration/v2_depth_discrimination_MTurk/v2_DepthDiscrim_HTML.html#46,46,1366,625,1366,768,9-17-2022,10-19-34,83,depth_discrimination_stimuli/002905_2014-06-03_18-04-43_094959634447_rgbf000151-resize_2/002905_2014-06-03_18-04-43_094959634447_rgbf000151-resize_2-target.png,depth_discrimination_stimuli/003423_2014-05-21_10-23-26_094959634447_rgbf002665-resize_2/003423_2014-05-21_10-23-26_094959634447_rgbf002665-resize_2-target.png,125.0,2.0295,3.2575,0.0,1859,1022,124,989,127,500,,571181,32,Man
83,247407,DepthScenes,v2_duration_discrimination,discrim_jsons/Discrim125_randls_37.json,http://54.235.29.9/FacialAge/BNav_EC2/DepthDuration/v2_depth_discrimination_MTurk/v2_DepthDiscrim_HTML.html#46,46,1366,625,1366,768,9-17-2022,10-19-34,84,depth_discrimination_stimuli/001056_2014-06-08_18-46-44_260595134347_rgbf000068-resize_0/001056_2014-06-08_18-46-44_260595134347_rgbf000068-resize_0-target.png,depth_discrimination_stimuli/002199_2014-06-28_18-33-56_260595134347_rgbf000074-resize_0/002199_2014-06-28_18-33-56_260595134347_rgbf000074-resize_0-target.png,125.0,2.6625,1.996,1.0,1795,1011,124,1004,113,502,,571181,32,Man
84,247407,DepthScenes,v2_duration_discrimination,discrim_jsons/Discrim125_randls_37.json,http://54.235.29.9/FacialAge/BNav_EC2/DepthDuration/v2_depth_discrimination_MTurk/v2_DepthDiscrim_HTML.html#46,46,1366,625,1366,768,9-17-2022,10-19-34,85,depth_discrimination_stimuli/002043_2014-06-24_20-29-38_260595134347_rgbf000039-resize_4/002043_2014-06-24_20-29-38_260595134347_rgbf000039-resize_4-target.png,depth_discrimination_stimuli/003048_2014-06-15_13-49-43_094959634447_rgbf000150-resize_1/003048_2014-06-15_13-49-43_094959634447_rgbf000150-resize_1-target.png,125.0,2.8435,4.0035,0.0,3389,1006,124,1009,125,498,,571181,32,Man
85,247407,DepthScenes,v2_duration_discrimination,discrim_jsons/Discrim125_randls_37.json,http://54.235.29.9/FacialAge/BNav_EC2/DepthDuration/v2_depth_discrimination_MTurk/v2_DepthDiscrim_HTML.html#46,46,1366,625,1366,768,9-17-2022,10-19-34,86,depth_discrimination_stimuli/000493_2014-06-09_21-01-18_260595134347_rgbf000196-resize_3/000493_2014-06-09_21-01-18_260595134347_rgbf000196-resize_3-target.png,depth_discrimination_stimuli/000191_2014-05-12_17-07-38_260595134347_rgbf000199-resize_0/000191_2014-05-12_17-07-38_260595134347_rgbf000199-resize_0-target.png,125.0,3.44,3.7995,1.0,2765,1007,126,991,122,500,,571181,32,Man
86,247407,DepthScenes,v2_duration_discrimination,discrim_jsons/Discrim125_randls_37.json,http://54.235.29.9/FacialAge/BNav_EC2/DepthDuration/v2_depth_discrimination_MTurk/v2_DepthDiscrim_HTML.html#46,46,1366,625,1366,768,9-17-2022,10-19-34,86,,,,,,,2765,1007,126,991,122,500,,571181,32,Man
