,subjID,experimentName,versionName,sequenceName,url,selected_row,windowWidth,windowHeight,screenWidth,screenHeight,startDate,startTime,trial,stimulus_0,stimulus_1,duration,actual_depth_0,actual_depth_1,discrim_choice,trial_RT,log_fixation,log_sceneDuration1,log_mask1,log_sceneDuration2,log_mask2,experimentTime,totalTime,age,gender
0,268604,DepthScenes,v2_duration_discrimination,discrim_jsons/Discrim125_randls_38.json,http://54.235.29.9/FacialAge/BNav_EC2/DepthDuration/v2_depth_discrimination_MTurk/v2_DepthDiscrim_HTML.html#462,462,1584,772,1600,900,9-20-2022,8-37-4,1,depth_discrimination_stimuli/001199_2014-06-17_16-03-48_260595134347_rgbf000077-resize_0/001199_2014-06-17_16-03-48_260595134347_rgbf000077-resize_0-target.png,depth_discrimination_stimuli/000502_2014-06-08_23-02-32_260595134347_rgbf000063-resize_4/000502_2014-06-08_23-02-32_260595134347_rgbf000063-resize_4-target.png,125.0,3.4375,2.431,0.0,742,1017,116,997,128,502,,491117,48,Woman
1,268604,DepthScenes,v2_duration_discrimination,discrim_jsons/Discrim125_randls_38.json,http://54.235.29.9/FacialAge/BNav_EC2/DepthDuration/v2_depth_discrimination_MTurk/v2_DepthDiscrim_HTML.html#462,462,1584,772,1600,900,9-20-2022,8-37-4,2,depth_discrimination_stimuli/002279_2014-06-28_18-55-32_260595134347_rgbf000040-resize_5/002279_2014-06-28_18-55-32_260595134347_rgbf000040-resize_5-target.png,depth_discrimination_stimuli/000635_2014-06-08_16-38-42_260595134347_rgbf000106-resize_1/000635_2014-06-08_16-38-42_260595134347_rgbf000106-resize_1-target.png,125.0,1.5043333333333,2.074,1.0,820,1001,125,1010,125,497,,491117,48,Woman
2,268604,DepthScenes,v2_duration_discrimination,discrim_jsons/Discrim125_randls_38.json,http://54.235.29.9/FacialAge/BNav_EC2/DepthDuration/v2_depth_discrimination_MTurk/v2_DepthDiscrim_HTML.html#462,462,1584,772,1600,900,9-20-2022,8-37-4,3,depth_discrimination_stimuli/001555_2014-06-20_17-12-10_260595134347_rgbf000065-resize_4/001555_2014-06-20_17-12-10_260595134347_rgbf000065-resize_4-target.png,depth_discrimination_stimuli/000103_2014-05-14_22-01-17_260595134347_rgbf000152-resize_5/000103_2014-05-14_22-01-17_260595134347_rgbf000152-resize_5-target.png,125.0,1.633,1.993,0.0,1072,1011,124,992,125,504,,491117,48,Woman
3,268604,DepthScenes,v2_duration_discrimination,discrim_jsons/Discrim125_randls_38.json,http://54.235.29.9/FacialAge/BNav_EC2/DepthDuration/v2_depth_discrimination_MTurk/v2_DepthDiscrim_HTML.html#462,462,1584,772,1600,900,9-20-2022,8-37-4,4,depth_discrimination_stimuli/001011_2014-06-08_23-18-54_260595134347_rgbf000044-resize_4/001011_2014-06-08_23-18-54_260595134347_rgbf000044-resize_4-target.png,depth_discrimination_stimuli/002875_2014-06-01_15-19-00_094959634447_rgbf000151-resize_1/002875_2014-06-01_15-19-00_094959634447_rgbf000151-resize_1-target.png,125.0,2.4730000000000003,1.9675,1.0,861,1005,130,1010,111,505,,491117,48,Woman
4,268604,DepthScenes,v2_duration_discrimination,discrim_jsons/Discrim125_randls_38.json,http://54.235.29.9/FacialAge/BNav_EC2/DepthDuration/v2_depth_discrimination_MTurk/v2_DepthDiscrim_HTML.html#462,462,1584,772,1600,900,9-20-2022,8-37-4,5,depth_discrimination_stimuli/001056_2014-06-08_18-46-44_260595134347_rgbf000068-resize_0/001056_2014-06-08_18-46-44_260595134347_rgbf000068-resize_0-target.png,depth_discrimination_stimuli/002199_2014-06-28_18-33-56_260595134347_rgbf000074-resize_0/002199_2014-06-28_18-33-56_260595134347_rgbf000074-resize_0-target.png,125.0,2.6625,1.996,1.0,887,1008,121,1006,125,503,,491117,48,Woman
5,268604,DepthScenes,v2_duration_discrimination,discrim_jsons/Discrim125_randls_38.json,http://54.235.29.9/FacialAge/BNav_EC2/DepthDuration/v2_depth_discrimination_MTurk/v2_DepthDiscrim_HTML.html#462,462,1584,772,1600,900,9-20-2022,8-37-4,6,depth_discrimination_stimuli/003621_2014-05-23_18-06-08_094959634447_rgbf000101-resize_1/003621_2014-05-23_18-06-08_094959634447_rgbf000101-resize_1-target.png,depth_discrimination_stimuli/001584_2014-06-20_11-07-43_260595134347_rgbf000002-resize_1/001584_2014-06-20_11-07-43_260595134347_rgbf000002-resize_1-target.png,125.0,3.9835,3.53,1.0,1133,1014,112,1003,125,501,,491117,48,Woman
6,268604,DepthScenes,v2_duration_discrimination,discrim_jsons/Discrim125_randls_38.json,http://54.235.29.9/FacialAge/BNav_EC2/DepthDuration/v2_depth_discrimination_MTurk/v2_DepthDiscrim_HTML.html#462,462,1584,772,1600,900,9-20-2022,8-37-4,7,depth_discrimination_stimuli/000569_2014-06-09_22-51-47_260595134347_rgbf000141-resize_3/000569_2014-06-09_22-51-47_260595134347_rgbf000141-resize_3-target.png,depth_discrimination_stimuli/000569_2014-06-09_22-51-47_260595134347_rgbf000141-resize_3/000569_2014-06-09_22-51-47_260595134347_rgbf000141-resize_3-target.png,125.0,4.512,4.512,3.0,1278,1007,118,1004,128,500,,491117,48,Woman
7,268604,DepthScenes,v2_duration_discrimination,discrim_jsons/Discrim125_randls_38.json,http://54.235.29.9/FacialAge/BNav_EC2/DepthDuration/v2_depth_discrimination_MTurk/v2_DepthDiscrim_HTML.html#462,462,1584,772,1600,900,9-20-2022,8-37-4,8,depth_discrimination_stimuli/000642_2014-06-08_16-59-25_260595134347_rgbf000098-resize_2/000642_2014-06-08_16-59-25_260595134347_rgbf000098-resize_2-target.png,depth_discrimination_stimuli/002425_2014-06-28_20-27-29_260595134347_rgbf000031-resize_8/002425_2014-06-28_20-27-29_260595134347_rgbf000031-resize_8-target.png,125.0,2.8815,3.8960000000000004,0.0,1352,1018,114,1002,115,512,,491117,48,Woman
8,268604,DepthScenes,v2_duration_discrimination,discrim_jsons/Discrim125_randls_38.json,http://54.235.29.9/FacialAge/BNav_EC2/DepthDuration/v2_depth_discrimination_MTurk/v2_DepthDiscrim_HTML.html#462,462,1584,772,1600,900,9-20-2022,8-37-4,9,depth_discrimination_stimuli/001092_2014-06-15_17-34-58_260595134347_rgbf000171-resize_3/001092_2014-06-15_17-34-58_260595134347_rgbf000171-resize_3-target.png,depth_discrimination_stimuli/002545_2014-06-24_13-38-53_094959634447_rgbf000080-resize_4/002545_2014-06-24_13-38-53_094959634447_rgbf000080-resize_4-target.png,125.0,2.6935,1.9205,0.0,962,1012,115,1010,121,492,,491117,48,Woman
9,268604,DepthScenes,v2_duration_discrimination,discrim_jsons/Discrim125_randls_38.json,http://54.235.29.9/FacialAge/BNav_EC2/DepthDuration/v2_depth_discrimination_MTurk/v2_DepthDiscrim_HTML.html#462,462,1584,772,1600,900,9-20-2022,8-37-4,10,depth_discrimination_stimuli/001167_2014-06-17_15-38-07_260595134347_rgbf000108-resize_0/001167_2014-06-17_15-38-07_260595134347_rgbf000108-resize_0-target.png,depth_discrimination_stimuli/003587_2014-05-23_16-48-02_094959634447_rgbf002384-resize_2/003587_2014-05-23_16-48-02_094959634447_rgbf002384-resize_2-target.png,125.0,1.8505,1.357,1.0,1108,1013,115,1010,118,493,,491117,48,Woman
10,268604,DepthScenes,v2_duration_discrimination,discrim_jsons/Discrim125_randls_38.json,http://54.235.29.9/FacialAge/BNav_EC2/DepthDuration/v2_depth_discrimination_MTurk/v2_DepthDiscrim_HTML.html#462,462,1584,772,1600,900,9-20-2022,8-37-4,11,depth_discrimination_stimuli/000810_2014-06-08_17-20-01_260595134347_rgbf000105-resize_0/000810_2014-06-08_17-20-01_260595134347_rgbf000105-resize_0-target.png,depth_discrimination_stimuli/001214_2014-06-17_16-13-55_260595134347_rgbf000111-resize_0/001214_2014-06-17_16-13-55_260595134347_rgbf000111-resize_0-target.png,125.0,1.4865,2.6505,1.0,1371,1002,139,991,126,506,,491117,48,Woman
11,268604,DepthScenes,v2_duration_discrimination,discrim_jsons/Discrim125_randls_38.json,http://54.235.29.9/FacialAge/BNav_EC2/DepthDuration/v2_depth_discrimination_MTurk/v2_DepthDiscrim_HTML.html#462,462,1584,772,1600,900,9-20-2022,8-37-4,12,depth_discrimination_stimuli/000522_2014-06-08_13-35-06_260595134347_rgbf000244-resize_1/000522_2014-06-08_13-35-06_260595134347_rgbf000244-resize_1-target.png,depth_discrimination_stimuli/002949_2014-06-26_15-57-42_094959634447_rgbf000079-resize_1/002949_2014-06-26_15-57-42_094959634447_rgbf000079-resize_1-target.png,125.0,2.3715,1.8915,0.0,1327,1009,128,991,126,502,,491117,48,Woman
12,268604,DepthScenes,v2_duration_discrimination,discrim_jsons/Discrim125_randls_38.json,http://54.235.29.9/FacialAge/BNav_EC2/DepthDuration/v2_depth_discrimination_MTurk/v2_DepthDiscrim_HTML.html#462,462,1584,772,1600,900,9-20-2022,8-37-4,13,depth_discrimination_stimuli/002788_2014-06-22_19-36-03_094959634447_rgbf000088-resize_2/002788_2014-06-22_19-36-03_094959634447_rgbf000088-resize_2-target.png,depth_discrimination_stimuli/000749_2014-06-08_21-55-06_260595134347_rgbf000070-resize_2/000749_2014-06-08_21-55-06_260595134347_rgbf000070-resize_2-target.png,125.0,1.6465,2.331,1.0,1410,1007,124,1010,124,495,,491117,48,Woman
13,268604,DepthScenes,v2_duration_discrimination,discrim_jsons/Discrim125_randls_38.json,http://54.235.29.9/FacialAge/BNav_EC2/DepthDuration/v2_depth_discrimination_MTurk/v2_DepthDiscrim_HTML.html#462,462,1584,772,1600,900,9-20-2022,8-37-4,14,depth_discrimination_stimuli/000493_2014-06-09_21-01-18_260595134347_rgbf000196-resize_3/000493_2014-06-09_21-01-18_260595134347_rgbf000196-resize_3-target.png,depth_discrimination_stimuli/000191_2014-05-12_17-07-38_260595134347_rgbf000199-resize_0/000191_2014-05-12_17-07-38_260595134347_rgbf000199-resize_0-target.png,125.0,3.44,3.7995,0.0,1059,1008,122,1009,123,499,,491117,48,Woman
14,268604,DepthScenes,v2_duration_discrimination,discrim_jsons/Discrim125_randls_38.json,http://54.235.29.9/FacialAge/BNav_EC2/DepthDuration/v2_depth_discrimination_MTurk/v2_DepthDiscrim_HTML.html#462,462,1584,772,1600,900,9-20-2022,8-37-4,15,depth_discrimination_stimuli/000447_2014-06-08_16-15-46_260595134347_rgbf000130-resize_1/000447_2014-06-08_16-15-46_260595134347_rgbf000130-resize_1-target.png,depth_discrimination_stimuli/001447_2014-06-19_17-00-32_260595134347_rgbf000082-resize_5/001447_2014-06-19_17-00-32_260595134347_rgbf000082-resize_5-target.png,125.0,4.479,4.13775,1.0,1070,1006,120,997,136,491,,491117,48,Woman
15,268604,DepthScenes,v2_duration_discrimination,discrim_jsons/Discrim125_randls_38.json,http://54.235.29.9/FacialAge/BNav_EC2/DepthDuration/v2_depth_discrimination_MTurk/v2_DepthDiscrim_HTML.html#462,462,1584,772,1600,900,9-20-2022,8-37-4,16,depth_discrimination_stimuli/000375_2014-06-08_11-17-29_260595134347_rgbf000133-resize_2/000375_2014-06-08_11-17-29_260595134347_rgbf000133-resize_2-target.png,depth_discrimination_stimuli/000375_2014-06-08_11-17-29_260595134347_rgbf000133-resize_2/000375_2014-06-08_11-17-29_260595134347_rgbf000133-resize_2-target.png,125.0,4.718,4.718,3.0,1176,1012,120,1001,129,489,,491117,48,Woman
16,268604,DepthScenes,v2_duration_discrimination,discrim_jsons/Discrim125_randls_38.json,http://54.235.29.9/FacialAge/BNav_EC2/DepthDuration/v2_depth_discrimination_MTurk/v2_DepthDiscrim_HTML.html#462,462,1584,772,1600,900,9-20-2022,8-37-4,17,depth_discrimination_stimuli/000470_2014-06-09_19-42-40_260595134347_rgbf000094-resize_1/000470_2014-06-09_19-42-40_260595134347_rgbf000094-resize_1-target.png,depth_discrimination_stimuli/000109_2014-05-14_23-41-52_260595134347_rgbf000035-resize_9/000109_2014-05-14_23-41-52_260595134347_rgbf000035-resize_9-target.png,125.0,1.831,1.3545,1.0,918,1013,122,1001,116,497,,491117,48,Woman
17,268604,DepthScenes,v2_duration_discrimination,discrim_jsons/Discrim125_randls_38.json,http://54.235.29.9/FacialAge/BNav_EC2/DepthDuration/v2_depth_discrimination_MTurk/v2_DepthDiscrim_HTML.html#462,462,1584,772,1600,900,9-20-2022,8-37-4,18,depth_discrimination_stimuli/002964_2014-06-08_17-46-11_094959634447_rgbf000091-resize_4/002964_2014-06-08_17-46-11_094959634447_rgbf000091-resize_4-target.png,depth_discrimination_stimuli/002136_2014-06-25_21-18-03_260595134347_rgbf000109-resize_3/002136_2014-06-25_21-18-03_260595134347_rgbf000109-resize_3-target.png,125.0,1.6909999999999998,1.9569999999999999,1.0,921,1008,123,1002,127,492,,491117,48,Woman
18,268604,DepthScenes,v2_duration_discrimination,discrim_jsons/Discrim125_randls_38.json,http://54.235.29.9/FacialAge/BNav_EC2/DepthDuration/v2_depth_discrimination_MTurk/v2_DepthDiscrim_HTML.html#462,462,1584,772,1600,900,9-20-2022,8-37-4,19,depth_discrimination_stimuli/002375_2014-06-28_20-13-44_260595134347_rgbf000032-resize_1/002375_2014-06-28_20-13-44_260595134347_rgbf000032-resize_1-target.png,depth_discrimination_stimuli/002657_2014-06-13_15-29-54_094959634447_rgbf000150-resize_1/002657_2014-06-13_15-29-54_094959634447_rgbf000150-resize_1-target.png,125.0,4.0175,4.919,1.0,1862,1014,113,1009,119,507,,491117,48,Woman
19,268604,DepthScenes,v2_duration_discrimination,discrim_jsons/Discrim125_randls_38.json,http://54.235.29.9/FacialAge/BNav_EC2/DepthDuration/v2_depth_discrimination_MTurk/v2_DepthDiscrim_HTML.html#462,462,1584,772,1600,900,9-20-2022,8-37-4,20,depth_discrimination_stimuli/001066_2014-06-08_22-03-20_260595134347_rgbf000066-resize_4/001066_2014-06-08_22-03-20_260595134347_rgbf000066-resize_4-target.png,depth_discrimination_stimuli/000742_2014-06-08_18-48-09_260595134347_rgbf000164-resize_4/000742_2014-06-08_18-48-09_260595134347_rgbf000164-resize_4-target.png,125.0,4.2330000000000005,4.632,0.0,1148,1004,133,993,125,496,,491117,48,Woman
20,268604,DepthScenes,v2_duration_discrimination,discrim_jsons/Discrim125_randls_38.json,http://54.235.29.9/FacialAge/BNav_EC2/DepthDuration/v2_depth_discrimination_MTurk/v2_DepthDiscrim_HTML.html#462,462,1584,772,1600,900,9-20-2022,8-37-4,21,depth_discrimination_stimuli/001150_2014-06-17_15-27-34_260595134347_rgbf000108-resize_2/001150_2014-06-17_15-27-34_260595134347_rgbf000108-resize_2-target.png,depth_discrimination_stimuli/000665_2014-06-09_20-42-35_260595134347_rgbf000110-resize_1/000665_2014-06-09_20-42-35_260595134347_rgbf000110-resize_1-target.png,125.0,4.0325,3.057,1.0,936,1015,111,1007,126,505,,491117,48,Woman
21,268604,DepthScenes,v2_duration_discrimination,discrim_jsons/Discrim125_randls_38.json,http://54.235.29.9/FacialAge/BNav_EC2/DepthDuration/v2_depth_discrimination_MTurk/v2_DepthDiscrim_HTML.html#462,462,1584,772,1600,900,9-20-2022,8-37-4,22,depth_discrimination_stimuli/001806_2014-06-26_20-50-20_260595134347_rgbf000091-resize_1/001806_2014-06-26_20-50-20_260595134347_rgbf000091-resize_1-target.png,depth_discrimination_stimuli/001617_2014-06-20_11-35-32_260595134347_rgbf000066-resize_1/001617_2014-06-20_11-35-32_260595134347_rgbf000066-resize_1-target.png,125.0,2.7305,3.7910000000000004,0.0,1177,1013,126,994,123,498,,491117,48,Woman
22,268604,DepthScenes,v2_duration_discrimination,discrim_jsons/Discrim125_randls_38.json,http://54.235.29.9/FacialAge/BNav_EC2/DepthDuration/v2_depth_discrimination_MTurk/v2_DepthDiscrim_HTML.html#462,462,1584,772,1600,900,9-20-2022,8-37-4,23,depth_discrimination_stimuli/000736_2014-06-08_18-24-15_260595134347_rgbf000206-resize_3/000736_2014-06-08_18-24-15_260595134347_rgbf000206-resize_3-target.png,depth_discrimination_stimuli/000137_2014-05-20_17-04-49_260595134347_rgbf000120-resize_1/000137_2014-05-20_17-04-49_260595134347_rgbf000120-resize_1-target.png,125.0,3.515,3.786,0.0,969,1002,123,1007,126,494,,491117,48,Woman
23,268604,DepthScenes,v2_duration_discrimination,discrim_jsons/Discrim125_randls_38.json,http://54.235.29.9/FacialAge/BNav_EC2/DepthDuration/v2_depth_discrimination_MTurk/v2_DepthDiscrim_HTML.html#462,462,1584,772,1600,900,9-20-2022,8-37-4,24,depth_discrimination_stimuli/000787_2014-06-08_22-33-53_260595134347_rgbf000175-resize_1/000787_2014-06-08_22-33-53_260595134347_rgbf000175-resize_1-target.png,depth_discrimination_stimuli/000787_2014-06-08_22-33-53_260595134347_rgbf000175-resize_1/000787_2014-06-08_22-33-53_260595134347_rgbf000175-resize_1-target.png,125.0,4.784,4.784,3.0,1115,1014,125,993,122,508,,491117,48,Woman
24,268604,DepthScenes,v2_duration_discrimination,discrim_jsons/Discrim125_randls_38.json,http://54.235.29.9/FacialAge/BNav_EC2/DepthDuration/v2_depth_discrimination_MTurk/v2_DepthDiscrim_HTML.html#462,462,1584,772,1600,900,9-20-2022,8-37-4,25,depth_discrimination_stimuli/003292_2014-05-14_21-53-49_094959634447_rgbf000100-resize_2/003292_2014-05-14_21-53-49_094959634447_rgbf000100-resize_2-target.png,depth_discrimination_stimuli/002639_2014-06-24_14-51-37_094959634447_rgbf000074-resize_4/002639_2014-06-24_14-51-37_094959634447_rgbf000074-resize_4-target.png,125.0,3.4815,4.0375,3.0,945,1015,125,1000,117,503,,491117,48,Woman
25,268604,DepthScenes,v2_duration_discrimination,discrim_jsons/Discrim125_randls_38.json,http://54.235.29.9/FacialAge/BNav_EC2/DepthDuration/v2_depth_discrimination_MTurk/v2_DepthDiscrim_HTML.html#462,462,1584,772,1600,900,9-20-2022,8-37-4,26,depth_discrimination_stimuli/000436_2014-06-09_22-25-11_260595134347_rgbf000137-resize_1/000436_2014-06-09_22-25-11_260595134347_rgbf000137-resize_1-target.png,depth_discrimination_stimuli/002444_2014-06-28_20-32-08_260595134347_rgbf000027-resize_0/002444_2014-06-28_20-32-08_260595134347_rgbf000027-resize_0-target.png,125.0,4.0705,4.388999999999999,1.0,1696,1003,133,991,125,497,,491117,48,Woman
26,268604,DepthScenes,v2_duration_discrimination,discrim_jsons/Discrim125_randls_38.json,http://54.235.29.9/FacialAge/BNav_EC2/DepthDuration/v2_depth_discrimination_MTurk/v2_DepthDiscrim_HTML.html#462,462,1584,772,1600,900,9-20-2022,8-37-4,27,depth_discrimination_stimuli/001164_2014-06-17_15-35-46_260595134347_rgbf000085-resize_3/001164_2014-06-17_15-35-46_260595134347_rgbf000085-resize_3-target.png,depth_discrimination_stimuli/001136_2014-06-17_15-19-41_260595134347_rgbf000076-resize_3/001136_2014-06-17_15-19-41_260595134347_rgbf000076-resize_3-target.png,125.0,2.354,1.8655,1.0,957,1005,126,999,122,508,,491117,48,Woman
27,268604,DepthScenes,v2_duration_discrimination,discrim_jsons/Discrim125_randls_38.json,http://54.235.29.9/FacialAge/BNav_EC2/DepthDuration/v2_depth_discrimination_MTurk/v2_DepthDiscrim_HTML.html#462,462,1584,772,1600,900,9-20-2022,8-37-4,28,depth_discrimination_stimuli/001808_2014-06-26_20-50-58_260595134347_rgbf000029-resize_1/001808_2014-06-26_20-50-58_260595134347_rgbf000029-resize_1-target.png,depth_discrimination_stimuli/001815_2014-06-26_20-52-55_260595134347_rgbf000020-resize_0/001815_2014-06-26_20-52-55_260595134347_rgbf000020-resize_0-target.png,125.0,4.249,3.3865,1.0,1374,1005,120,1002,125,496,,491117,48,Woman
28,268604,DepthScenes,v2_duration_discrimination,discrim_jsons/Discrim125_randls_38.json,http://54.235.29.9/FacialAge/BNav_EC2/DepthDuration/v2_depth_discrimination_MTurk/v2_DepthDiscrim_HTML.html#462,462,1584,772,1600,900,9-20-2022,8-37-4,29,depth_discrimination_stimuli/001449_2014-06-19_17-01-27_260595134347_rgbf000116-resize_2/001449_2014-06-19_17-01-27_260595134347_rgbf000116-resize_2-target.png,depth_discrimination_stimuli/001450_2014-06-19_17-02-03_260595134347_rgbf000203-resize_4/001450_2014-06-19_17-02-03_260595134347_rgbf000203-resize_4-target.png,125.0,3.452,4.0106666666667,0.0,1148,1010,124,996,121,509,,491117,48,Woman
29,268604,DepthScenes,v2_duration_discrimination,discrim_jsons/Discrim125_randls_38.json,http://54.235.29.9/FacialAge/BNav_EC2/DepthDuration/v2_depth_discrimination_MTurk/v2_DepthDiscrim_HTML.html#462,462,1584,772,1600,900,9-20-2022,8-37-4,30,depth_discrimination_stimuli/000009_2014-05-26_14-32-05_260595134347_rgbf000034-resize_3/000009_2014-05-26_14-32-05_260595134347_rgbf000034-resize_3-target.png,depth_discrimination_stimuli/001828_2014-06-26_21-40-03_260595134347_rgbf000024-resize_0/001828_2014-06-26_21-40-03_260595134347_rgbf000024-resize_0-target.png,125.0,3.8715,4.8260000000000005,1.0,655,1007,131,989,127,509,,491117,48,Woman
30,268604,DepthScenes,v2_duration_discrimination,discrim_jsons/Discrim125_randls_38.json,http://54.235.29.9/FacialAge/BNav_EC2/DepthDuration/v2_depth_discrimination_MTurk/v2_DepthDiscrim_HTML.html#462,462,1584,772,1600,900,9-20-2022,8-37-4,31,depth_discrimination_stimuli/000788_2014-06-08_22-34-36_260595134347_rgbf000131-resize_1/000788_2014-06-08_22-34-36_260595134347_rgbf000131-resize_1-target.png,depth_discrimination_stimuli/001235_2014-06-17_16-37-36_260595134347_rgbf000084-resize_4/001235_2014-06-17_16-37-36_260595134347_rgbf000084-resize_4-target.png,125.0,3.359,3.6605,1.0,932,1009,128,1000,117,509,,491117,48,Woman
31,268604,DepthScenes,v2_duration_discrimination,discrim_jsons/Discrim125_randls_38.json,http://54.235.29.9/FacialAge/BNav_EC2/DepthDuration/v2_depth_discrimination_MTurk/v2_DepthDiscrim_HTML.html#462,462,1584,772,1600,900,9-20-2022,8-37-4,32,depth_discrimination_stimuli/002988_2014-06-15_12-24-20_094959634447_rgbf000150-resize_1/002988_2014-06-15_12-24-20_094959634447_rgbf000150-resize_1-target.png,depth_discrimination_stimuli/001052_2014-06-08_18-24-54_260595134347_rgbf000130-resize_1/001052_2014-06-08_18-24-54_260595134347_rgbf000130-resize_1-target.png,125.0,4.7669999999999995,4.1045,0.0,1005,1009,124,996,121,506,,491117,48,Woman
32,268604,DepthScenes,v2_duration_discrimination,discrim_jsons/Discrim125_randls_38.json,http://54.235.29.9/FacialAge/BNav_EC2/DepthDuration/v2_depth_discrimination_MTurk/v2_DepthDiscrim_HTML.html#462,462,1584,772,1600,900,9-20-2022,8-37-4,33,depth_discrimination_stimuli/002445_2014-06-28_20-32-16_260595134347_rgbf000029-resize_4/002445_2014-06-28_20-32-16_260595134347_rgbf000029-resize_4-target.png,depth_discrimination_stimuli/000780_2014-06-08_22-28-29_260595134347_rgbf000126-resize_1/000780_2014-06-08_22-28-29_260595134347_rgbf000126-resize_1-target.png,125.0,2.5315,3.3825,0.0,1004,1008,124,1000,132,492,,491117,48,Woman
33,268604,DepthScenes,v2_duration_discrimination,discrim_jsons/Discrim125_randls_38.json,http://54.235.29.9/FacialAge/BNav_EC2/DepthDuration/v2_depth_discrimination_MTurk/v2_DepthDiscrim_HTML.html#462,462,1584,772,1600,900,9-20-2022,8-37-4,34,depth_discrimination_stimuli/002118_2014-06-25_20-32-08_260595134347_rgbf000078-resize_1/002118_2014-06-25_20-32-08_260595134347_rgbf000078-resize_1-target.png,depth_discrimination_stimuli/001516_2014-06-20_16-25-09_260595134347_rgbf000076-resize_2/001516_2014-06-20_16-25-09_260595134347_rgbf000076-resize_2-target.png,125.0,2.6460000000000004,1.7445,1.0,936,1009,119,1007,125,490,,491117,48,Woman
34,268604,DepthScenes,v2_duration_discrimination,discrim_jsons/Discrim125_randls_38.json,http://54.235.29.9/FacialAge/BNav_EC2/DepthDuration/v2_depth_discrimination_MTurk/v2_DepthDiscrim_HTML.html#462,462,1584,772,1600,900,9-20-2022,8-37-4,35,depth_discrimination_stimuli/001222_2014-06-17_16-24-06_260595134347_rgbf000073-resize_0/001222_2014-06-17_16-24-06_260595134347_rgbf000073-resize_0-target.png,depth_discrimination_stimuli/001222_2014-06-17_16-24-06_260595134347_rgbf000073-resize_0/001222_2014-06-17_16-24-06_260595134347_rgbf000073-resize_0-target.png,125.0,1.4385,1.4385,3.0,1057,1017,122,1002,116,507,,491117,48,Woman
35,268604,DepthScenes,v2_duration_discrimination,discrim_jsons/Discrim125_randls_38.json,http://54.235.29.9/FacialAge/BNav_EC2/DepthDuration/v2_depth_discrimination_MTurk/v2_DepthDiscrim_HTML.html#462,462,1584,772,1600,900,9-20-2022,8-37-4,36,depth_discrimination_stimuli/001016_2014-06-09_16-16-10_260595134347_rgbf000112-resize_5/001016_2014-06-09_16-16-10_260595134347_rgbf000112-resize_5-target.png,depth_discrimination_stimuli/002340_2014-06-28_20-05-46_260595134347_rgbf000113-resize_0/002340_2014-06-28_20-05-46_260595134347_rgbf000113-resize_0-target.png,125.0,1.6565,2.4735,0.0,921,1001,124,1009,122,496,,491117,48,Woman
36,268604,DepthScenes,v2_duration_discrimination,discrim_jsons/Discrim125_randls_38.json,http://54.235.29.9/FacialAge/BNav_EC2/DepthDuration/v2_depth_discrimination_MTurk/v2_DepthDiscrim_HTML.html#462,462,1584,772,1600,900,9-20-2022,8-37-4,37,depth_discrimination_stimuli/002213_2014-06-28_18-37-58_260595134347_rgbf000055-resize_1/002213_2014-06-28_18-37-58_260595134347_rgbf000055-resize_1-target.png,depth_discrimination_stimuli/000691_2014-06-08_13-08-50_260595134347_rgbf000132-resize_3/000691_2014-06-08_13-08-50_260595134347_rgbf000132-resize_3-target.png,125.0,3.62,4.1530000000000005,1.0,759,1016,119,1000,116,508,,491117,48,Woman
37,268604,DepthScenes,v2_duration_discrimination,discrim_jsons/Discrim125_randls_38.json,http://54.235.29.9/FacialAge/BNav_EC2/DepthDuration/v2_depth_discrimination_MTurk/v2_DepthDiscrim_HTML.html#462,462,1584,772,1600,900,9-20-2022,8-37-4,38,depth_discrimination_stimuli/003534_2014-05-22_15-06-10_094959634447_rgbf000102-resize_4/003534_2014-05-22_15-06-10_094959634447_rgbf000102-resize_4-target.png,depth_discrimination_stimuli/002637_2014-06-24_14-51-13_094959634447_rgbf000066-resize_4/002637_2014-06-24_14-51-13_094959634447_rgbf000066-resize_4-target.png,125.0,1.426,1.9955,0.0,2430,1002,133,991,125,508,,491117,48,Woman
38,268604,DepthScenes,v2_duration_discrimination,discrim_jsons/Discrim125_randls_38.json,http://54.235.29.9/FacialAge/BNav_EC2/DepthDuration/v2_depth_discrimination_MTurk/v2_DepthDiscrim_HTML.html#462,462,1584,772,1600,900,9-20-2022,8-37-4,39,depth_discrimination_stimuli/002905_2014-06-03_18-04-43_094959634447_rgbf000151-resize_2/002905_2014-06-03_18-04-43_094959634447_rgbf000151-resize_2-target.png,depth_discrimination_stimuli/003423_2014-05-21_10-23-26_094959634447_rgbf002665-resize_2/003423_2014-05-21_10-23-26_094959634447_rgbf002665-resize_2-target.png,125.0,2.0295,3.2575,0.0,936,1005,125,1006,133,490,,491117,48,Woman
39,268604,DepthScenes,v2_duration_discrimination,discrim_jsons/Discrim125_randls_38.json,http://54.235.29.9/FacialAge/BNav_EC2/DepthDuration/v2_depth_discrimination_MTurk/v2_DepthDiscrim_HTML.html#462,462,1584,772,1600,900,9-20-2022,8-37-4,40,depth_discrimination_stimuli/002272_2014-06-28_18-53-56_260595134347_rgbf000067-resize_2/002272_2014-06-28_18-53-56_260595134347_rgbf000067-resize_2-target.png,depth_discrimination_stimuli/001571_2014-06-20_17-21-32_260595134347_rgbf000089-resize_1/001571_2014-06-20_17-21-32_260595134347_rgbf000089-resize_1-target.png,125.0,1.138,1.86,1.0,908,1009,130,991,125,496,,491117,48,Woman
40,268604,DepthScenes,v2_duration_discrimination,discrim_jsons/Discrim125_randls_38.json,http://54.235.29.9/FacialAge/BNav_EC2/DepthDuration/v2_depth_discrimination_MTurk/v2_DepthDiscrim_HTML.html#462,462,1584,772,1600,900,9-20-2022,8-37-4,41,depth_discrimination_stimuli/000929_2014-06-09_16-33-19_260595134347_rgbf000139-resize_0/000929_2014-06-09_16-33-19_260595134347_rgbf000139-resize_0-target.png,depth_discrimination_stimuli/000457_2014-06-08_16-52-43_260595134347_rgbf000199-resize_1/000457_2014-06-08_16-52-43_260595134347_rgbf000199-resize_1-target.png,125.0,2.8680000000000003,3.6489999999999996,1.0,1111,1006,131,999,128,498,,491117,48,Woman
41,268604,DepthScenes,v2_duration_discrimination,discrim_jsons/Discrim125_randls_38.json,http://54.235.29.9/FacialAge/BNav_EC2/DepthDuration/v2_depth_discrimination_MTurk/v2_DepthDiscrim_HTML.html#462,462,1584,772,1600,900,9-20-2022,8-37-4,42,depth_discrimination_stimuli/002600_2014-06-24_14-27-04_094959634447_rgbf000074-resize_2/002600_2014-06-24_14-27-04_094959634447_rgbf000074-resize_2-target.png,depth_discrimination_stimuli/003228_2014-05-14_13-42-35_094959634447_rgbf000101-resize_1/003228_2014-05-14_13-42-35_094959634447_rgbf000101-resize_1-target.png,125.0,2.7575,1.9680000000000002,1.0,973,1004,130,997,121,502,,491117,48,Woman
42,268604,DepthScenes,v2_duration_discrimination,discrim_jsons/Discrim125_randls_38.json,http://54.235.29.9/FacialAge/BNav_EC2/DepthDuration/v2_depth_discrimination_MTurk/v2_DepthDiscrim_HTML.html#462,462,1584,772,1600,900,9-20-2022,8-37-4,43,depth_discrimination_stimuli/000917_2014-06-09_22-45-29_260595134347_rgbf000149-resize_3/000917_2014-06-09_22-45-29_260595134347_rgbf000149-resize_3-target.png,depth_discrimination_stimuli/002323_2014-06-28_20-01-54_260595134347_rgbf000051-resize_4/002323_2014-06-28_20-01-54_260595134347_rgbf000051-resize_4-target.png,125.0,4.1865,3.7310000000000003,3.0,1003,1010,121,1000,132,494,,491117,48,Woman
43,268604,DepthScenes,v2_duration_discrimination,discrim_jsons/Discrim125_randls_38.json,http://54.235.29.9/FacialAge/BNav_EC2/DepthDuration/v2_depth_discrimination_MTurk/v2_DepthDiscrim_HTML.html#462,462,1584,772,1600,900,9-20-2022,8-37-4,44,depth_discrimination_stimuli/001810_2014-06-26_20-51-35_260595134347_rgbf000040-resize_3/001810_2014-06-26_20-51-35_260595134347_rgbf000040-resize_3-target.png,depth_discrimination_stimuli/003010_2014-06-15_12-54-35_094959634447_rgbf000112-resize_0/003010_2014-06-15_12-54-35_094959634447_rgbf000112-resize_0-target.png,125.0,2.2525,3.1185,0.0,938,1006,122,1004,129,498,,491117,48,Woman
44,268604,DepthScenes,v2_duration_discrimination,discrim_jsons/Discrim125_randls_38.json,http://54.235.29.9/FacialAge/BNav_EC2/DepthDuration/v2_depth_discrimination_MTurk/v2_DepthDiscrim_HTML.html#462,462,1584,772,1600,900,9-20-2022,8-37-4,45,depth_discrimination_stimuli/002748_2014-06-22_19-07-22_094959634447_rgbf000078-resize_1/002748_2014-06-22_19-07-22_094959634447_rgbf000078-resize_1-target.png,depth_discrimination_stimuli/002995_2014-06-15_12-31-26_094959634447_rgbf000150-resize_1/002995_2014-06-15_12-31-26_094959634447_rgbf000150-resize_1-target.png,125.0,4.6705,3.8360000000000003,1.0,1120,1014,124,988,127,500,,491117,48,Woman
45,268604,DepthScenes,v2_duration_discrimination,discrim_jsons/Discrim125_randls_38.json,http://54.235.29.9/FacialAge/BNav_EC2/DepthDuration/v2_depth_discrimination_MTurk/v2_DepthDiscrim_HTML.html#462,462,1584,772,1600,900,9-20-2022,8-37-4,46,depth_discrimination_stimuli/002549_2014-06-24_13-41-39_094959634447_rgbf000022-resize_3/002549_2014-06-24_13-41-39_094959634447_rgbf000022-resize_3-target.png,depth_discrimination_stimuli/002750_2014-06-22_19-08-03_094959634447_rgbf000094-resize_4/002750_2014-06-22_19-08-03_094959634447_rgbf000094-resize_4-target.png,125.0,1.476,2.354,0.0,940,1014,125,994,125,506,,491117,48,Woman
46,268604,DepthScenes,v2_duration_discrimination,discrim_jsons/Discrim125_randls_38.json,http://54.235.29.9/FacialAge/BNav_EC2/DepthDuration/v2_depth_discrimination_MTurk/v2_DepthDiscrim_HTML.html#462,462,1584,772,1600,900,9-20-2022,8-37-4,47,depth_discrimination_stimuli/000692_2014-06-08_13-09-42_260595134347_rgbf000199-resize_2/000692_2014-06-08_13-09-42_260595134347_rgbf000199-resize_2-target.png,depth_discrimination_stimuli/001094_2014-06-15_17-36-00_260595134347_rgbf000205-resize_0/001094_2014-06-15_17-36-00_260595134347_rgbf000205-resize_0-target.png,125.0,3.661,4.2175,1.0,1068,1008,127,994,121,509,,491117,48,Woman
47,268604,DepthScenes,v2_duration_discrimination,discrim_jsons/Discrim125_randls_38.json,http://54.235.29.9/FacialAge/BNav_EC2/DepthDuration/v2_depth_discrimination_MTurk/v2_DepthDiscrim_HTML.html#462,462,1584,772,1600,900,9-20-2022,8-37-4,48,depth_discrimination_stimuli/001133_2014-06-17_14-49-16_260595134347_rgbf000100-resize_0/001133_2014-06-17_14-49-16_260595134347_rgbf000100-resize_0-target.png,depth_discrimination_stimuli/001132_2014-06-17_14-48-54_260595134347_rgbf000100-resize_2/001132_2014-06-17_14-48-54_260595134347_rgbf000100-resize_2-target.png,125.0,4.2115,3.753,1.0,782,1004,130,994,123,504,,491117,48,Woman
48,268604,DepthScenes,v2_duration_discrimination,discrim_jsons/Discrim125_randls_38.json,http://54.235.29.9/FacialAge/BNav_EC2/DepthDuration/v2_depth_discrimination_MTurk/v2_DepthDiscrim_HTML.html#462,462,1584,772,1600,900,9-20-2022,8-37-4,49,depth_discrimination_stimuli/001055_2014-06-08_18-45-35_260595134347_rgbf000111-resize_4/001055_2014-06-08_18-45-35_260595134347_rgbf000111-resize_4-target.png,depth_discrimination_stimuli/000549_2014-06-08_22-10-24_260595134347_rgbf000247-resize_3/000549_2014-06-08_22-10-24_260595134347_rgbf000247-resize_3-target.png,125.0,2.4290000000000003,1.841,1.0,1472,1011,129,987,130,502,,491117,48,Woman
49,268604,DepthScenes,v2_duration_discrimination,discrim_jsons/Discrim125_randls_38.json,http://54.235.29.9/FacialAge/BNav_EC2/DepthDuration/v2_depth_discrimination_MTurk/v2_DepthDiscrim_HTML.html#462,462,1584,772,1600,900,9-20-2022,8-37-4,50,depth_discrimination_stimuli/002043_2014-06-24_20-29-38_260595134347_rgbf000039-resize_4/002043_2014-06-24_20-29-38_260595134347_rgbf000039-resize_4-target.png,depth_discrimination_stimuli/003048_2014-06-15_13-49-43_094959634447_rgbf000150-resize_1/003048_2014-06-15_13-49-43_094959634447_rgbf000150-resize_1-target.png,125.0,2.8435,4.0035,1.0,1548,1003,135,992,125,506,,491117,48,Woman
50,268604,DepthScenes,v2_duration_discrimination,discrim_jsons/Discrim125_randls_38.json,http://54.235.29.9/FacialAge/BNav_EC2/DepthDuration/v2_depth_discrimination_MTurk/v2_DepthDiscrim_HTML.html#462,462,1584,772,1600,900,9-20-2022,8-37-4,51,depth_discrimination_stimuli/002570_2014-06-24_13-59-54_094959634447_rgbf000059-resize_0/002570_2014-06-24_13-59-54_094959634447_rgbf000059-resize_0-target.png,depth_discrimination_stimuli/002467_2014-06-28_20-38-07_260595134347_rgbf000026-resize_2/002467_2014-06-28_20-38-07_260595134347_rgbf000026-resize_2-target.png,125.0,4.037,4.742,1.0,872,1006,122,1007,123,514,,491117,48,Woman
51,268604,DepthScenes,v2_duration_discrimination,discrim_jsons/Discrim125_randls_38.json,http://54.235.29.9/FacialAge/BNav_EC2/DepthDuration/v2_depth_discrimination_MTurk/v2_DepthDiscrim_HTML.html#462,462,1584,772,1600,900,9-20-2022,8-37-4,52,depth_discrimination_stimuli/001540_2014-06-20_17-01-05_260595134347_rgbf000086-resize_2/001540_2014-06-20_17-01-05_260595134347_rgbf000086-resize_2-target.png,depth_discrimination_stimuli/001540_2014-06-20_17-01-05_260595134347_rgbf000086-resize_2/001540_2014-06-20_17-01-05_260595134347_rgbf000086-resize_2-target.png,125.0,1.459,1.459,3.0,1148,1016,119,994,124,512,,491117,48,Woman
52,268604,DepthScenes,v2_duration_discrimination,discrim_jsons/Discrim125_randls_38.json,http://54.235.29.9/FacialAge/BNav_EC2/DepthDuration/v2_depth_discrimination_MTurk/v2_DepthDiscrim_HTML.html#462,462,1584,772,1600,900,9-20-2022,8-37-4,53,depth_discrimination_stimuli/002057_2014-06-24_21-00-13_260595134347_rgbf000120-resize_1/002057_2014-06-24_21-00-13_260595134347_rgbf000120-resize_1-target.png,depth_discrimination_stimuli/000709_2014-06-08_13-51-55_260595134347_rgbf000068-resize_3/000709_2014-06-08_13-51-55_260595134347_rgbf000068-resize_3-target.png,125.0,2.967,1.8030000000000002,1.0,939,1029,96,1008,125,501,,491117,48,Woman
53,268604,DepthScenes,v2_duration_discrimination,discrim_jsons/Discrim125_randls_38.json,http://54.235.29.9/FacialAge/BNav_EC2/DepthDuration/v2_depth_discrimination_MTurk/v2_DepthDiscrim_HTML.html#462,462,1584,772,1600,900,9-20-2022,8-37-4,54,depth_discrimination_stimuli/002663_2014-06-13_15-50-26_094959634447_rgbf000075-resize_1/002663_2014-06-13_15-50-26_094959634447_rgbf000075-resize_1-target.png,depth_discrimination_stimuli/000409_2014-06-04_19-23-33_260595134347_rgbf000067-resize_0/000409_2014-06-04_19-23-33_260595134347_rgbf000067-resize_0-target.png,125.0,4.7495,3.7335,1.0,1108,1008,125,1006,111,503,,491117,48,Woman
54,268604,DepthScenes,v2_duration_discrimination,discrim_jsons/Discrim125_randls_38.json,http://54.235.29.9/FacialAge/BNav_EC2/DepthDuration/v2_depth_discrimination_MTurk/v2_DepthDiscrim_HTML.html#462,462,1584,772,1600,900,9-20-2022,8-37-4,55,depth_discrimination_stimuli/003492_2014-05-21_15-50-55_094959634447_rgbf000828-resize_1/003492_2014-05-21_15-50-55_094959634447_rgbf000828-resize_1-target.png,depth_discrimination_stimuli/002568_2014-06-24_13-59-21_094959634447_rgbf000062-resize_4/002568_2014-06-24_13-59-21_094959634447_rgbf000062-resize_4-target.png,125.0,4.06875,3.015,3.0,1265,1010,125,991,124,501,,491117,48,Woman
55,268604,DepthScenes,v2_duration_discrimination,discrim_jsons/Discrim125_randls_38.json,http://54.235.29.9/FacialAge/BNav_EC2/DepthDuration/v2_depth_discrimination_MTurk/v2_DepthDiscrim_HTML.html#462,462,1584,772,1600,900,9-20-2022,8-37-4,56,depth_discrimination_stimuli/000878_2014-06-08_22-52-45_260595134347_rgbf000045-resize_2/000878_2014-06-08_22-52-45_260595134347_rgbf000045-resize_2-target.png,depth_discrimination_stimuli/002953_2014-06-08_17-32-18_094959634447_rgbf000059-resize_5/002953_2014-06-08_17-32-18_094959634447_rgbf000059-resize_5-target.png,125.0,2.092,1.551,1.0,983,1001,124,1008,125,504,,491117,48,Woman
56,268604,DepthScenes,v2_duration_discrimination,discrim_jsons/Discrim125_randls_38.json,http://54.235.29.9/FacialAge/BNav_EC2/DepthDuration/v2_depth_discrimination_MTurk/v2_DepthDiscrim_HTML.html#462,462,1584,772,1600,900,9-20-2022,8-37-4,57,depth_discrimination_stimuli/000682_2014-06-08_23-14-58_260595134347_rgbf000041-resize_5/000682_2014-06-08_23-14-58_260595134347_rgbf000041-resize_5-target.png,depth_discrimination_stimuli/001650_2014-06-20_12-09-00_260595134347_rgbf000087-resize_3/001650_2014-06-20_12-09-00_260595134347_rgbf000087-resize_3-target.png,125.0,2.7239999999999998,1.9505,0.0,1127,1008,117,1010,120,509,,491117,48,Woman
57,268604,DepthScenes,v2_duration_discrimination,discrim_jsons/Discrim125_randls_38.json,http://54.235.29.9/FacialAge/BNav_EC2/DepthDuration/v2_depth_discrimination_MTurk/v2_DepthDiscrim_HTML.html#462,462,1584,772,1600,900,9-20-2022,8-37-4,58,depth_discrimination_stimuli/001158_2014-06-17_15-32-16_260595134347_rgbf000138-resize_2/001158_2014-06-17_15-32-16_260595134347_rgbf000138-resize_2-target.png,depth_discrimination_stimuli/000556_2014-06-09_22-42-56_260595134347_rgbf000214-resize_1/000556_2014-06-09_22-42-56_260595134347_rgbf000214-resize_1-target.png,125.0,4.5315,4.8415,0.0,1119,1008,119,1001,130,498,,491117,48,Woman
58,268604,DepthScenes,v2_duration_discrimination,discrim_jsons/Discrim125_randls_38.json,http://54.235.29.9/FacialAge/BNav_EC2/DepthDuration/v2_depth_discrimination_MTurk/v2_DepthDiscrim_HTML.html#462,462,1584,772,1600,900,9-20-2022,8-37-4,59,depth_discrimination_stimuli/001175_2014-06-17_15-45-55_260595134347_rgbf000129-resize_4/001175_2014-06-17_15-45-55_260595134347_rgbf000129-resize_4-target.png,depth_discrimination_stimuli/003490_2014-05-21_15-50-11_094959634447_rgbf000101-resize_3/003490_2014-05-21_15-50-11_094959634447_rgbf000101-resize_3-target.png,125.0,4.255,3.6445,1.0,831,1012,117,997,134,492,,491117,48,Woman
59,268604,DepthScenes,v2_duration_discrimination,discrim_jsons/Discrim125_randls_38.json,http://54.235.29.9/FacialAge/BNav_EC2/DepthDuration/v2_depth_discrimination_MTurk/v2_DepthDiscrim_HTML.html#462,462,1584,772,1600,900,9-20-2022,8-37-4,60,depth_discrimination_stimuli/000758_2014-06-08_22-05-08_260595134347_rgbf000085-resize_0/000758_2014-06-08_22-05-08_260595134347_rgbf000085-resize_0-target.png,depth_discrimination_stimuli/000854_2014-06-09_19-43-13_260595134347_rgbf000066-resize_0/000854_2014-06-09_19-43-13_260595134347_rgbf000066-resize_0-target.png,125.0,3.3810000000000002,3.068,1.0,673,1016,122,989,128,504,,491117,48,Woman
60,268604,DepthScenes,v2_duration_discrimination,discrim_jsons/Discrim125_randls_38.json,http://54.235.29.9/FacialAge/BNav_EC2/DepthDuration/v2_depth_discrimination_MTurk/v2_DepthDiscrim_HTML.html#462,462,1584,772,1600,900,9-20-2022,8-37-4,61,depth_discrimination_stimuli/001170_2014-06-17_15-43-44_260595134347_rgbf000096-resize_6/001170_2014-06-17_15-43-44_260595134347_rgbf000096-resize_6-target.png,depth_discrimination_stimuli/001170_2014-06-17_15-43-44_260595134347_rgbf000096-resize_6/001170_2014-06-17_15-43-44_260595134347_rgbf000096-resize_6-target.png,125.0,1.1909999999999998,1.1909999999999998,3.0,766,1006,124,998,124,501,,491117,48,Woman
61,268604,DepthScenes,v2_duration_discrimination,discrim_jsons/Discrim125_randls_38.json,http://54.235.29.9/FacialAge/BNav_EC2/DepthDuration/v2_depth_discrimination_MTurk/v2_DepthDiscrim_HTML.html#462,462,1584,772,1600,900,9-20-2022,8-37-4,62,depth_discrimination_stimuli/000739_2014-06-08_18-45-58_260595134347_rgbf000068-resize_1/000739_2014-06-08_18-45-58_260595134347_rgbf000068-resize_1-target.png,depth_discrimination_stimuli/000734_2014-06-08_17-39-11_260595134347_rgbf000128-resize_2/000734_2014-06-08_17-39-11_260595134347_rgbf000128-resize_2-target.png,125.0,3.534,4.098,1.0,843,1014,125,993,131,500,,491117,48,Woman
62,268604,DepthScenes,v2_duration_discrimination,discrim_jsons/Discrim125_randls_38.json,http://54.235.29.9/FacialAge/BNav_EC2/DepthDuration/v2_depth_discrimination_MTurk/v2_DepthDiscrim_HTML.html#462,462,1584,772,1600,900,9-20-2022,8-37-4,63,depth_discrimination_stimuli/003070_2014-06-15_14-58-27_094959634447_rgbf000150-resize_3/003070_2014-06-15_14-58-27_094959634447_rgbf000150-resize_3-target.png,depth_discrimination_stimuli/000943_2014-06-09_19-31-07_260595134347_rgbf000128-resize_1/000943_2014-06-09_19-31-07_260595134347_rgbf000128-resize_1-target.png,125.0,2.9415,1.9765,1.0,809,1006,124,1003,133,495,,491117,48,Woman
63,268604,DepthScenes,v2_duration_discrimination,discrim_jsons/Discrim125_randls_38.json,http://54.235.29.9/FacialAge/BNav_EC2/DepthDuration/v2_depth_discrimination_MTurk/v2_DepthDiscrim_HTML.html#462,462,1584,772,1600,900,9-20-2022,8-37-4,64,depth_discrimination_stimuli/001059_2014-06-08_21-53-27_260595134347_rgbf000061-resize_4/001059_2014-06-08_21-53-27_260595134347_rgbf000061-resize_4-target.png,depth_discrimination_stimuli/001032_2014-06-08_13-23-17_260595134347_rgbf000021-resize_3/001032_2014-06-08_13-23-17_260595134347_rgbf000021-resize_3-target.png,125.0,2.4185,3.2725,1.0,745,1010,124,999,120,509,,491117,48,Woman
64,268604,DepthScenes,v2_duration_discrimination,discrim_jsons/Discrim125_randls_38.json,http://54.235.29.9/FacialAge/BNav_EC2/DepthDuration/v2_depth_discrimination_MTurk/v2_DepthDiscrim_HTML.html#462,462,1584,772,1600,900,9-20-2022,8-37-4,65,depth_discrimination_stimuli/002763_2014-06-22_19-13-10_094959634447_rgbf000075-resize_4/002763_2014-06-22_19-13-10_094959634447_rgbf000075-resize_4-target.png,depth_discrimination_stimuli/002209_2014-06-28_18-36-10_260595134347_rgbf000051-resize_1/002209_2014-06-28_18-36-10_260595134347_rgbf000051-resize_1-target.png,125.0,1.68375,2.057,1.0,930,1003,136,1001,114,502,,491117,48,Woman
65,268604,DepthScenes,v2_duration_discrimination,discrim_jsons/Discrim125_randls_38.json,http://54.235.29.9/FacialAge/BNav_EC2/DepthDuration/v2_depth_discrimination_MTurk/v2_DepthDiscrim_HTML.html#462,462,1584,772,1600,900,9-20-2022,8-37-4,66,depth_discrimination_stimuli/002509_2014-06-24_13-19-22_094959634447_rgbf000077-resize_0/002509_2014-06-24_13-19-22_094959634447_rgbf000077-resize_0-target.png,depth_discrimination_stimuli/003338_2014-05-20_11-01-23_094959634447_rgbf000051-resize_6/003338_2014-05-20_11-01-23_094959634447_rgbf000051-resize_6-target.png,125.0,1.3065,1.693,0.0,915,1009,126,1005,109,504,,491117,48,Woman
66,268604,DepthScenes,v2_duration_discrimination,discrim_jsons/Discrim125_randls_38.json,http://54.235.29.9/FacialAge/BNav_EC2/DepthDuration/v2_depth_discrimination_MTurk/v2_DepthDiscrim_HTML.html#462,462,1584,772,1600,900,9-20-2022,8-37-4,67,depth_discrimination_stimuli/002784_2014-06-22_19-26-30_094959634447_rgbf000083-resize_3/002784_2014-06-22_19-26-30_094959634447_rgbf000083-resize_3-target.png,depth_discrimination_stimuli/001100_2014-06-15_17-46-26_260595134347_rgbf000225-resize_2/001100_2014-06-15_17-46-26_260595134347_rgbf000225-resize_2-target.png,125.0,1.8046666666667,2.24,1.0,870,1006,121,1008,124,505,,491117,48,Woman
67,268604,DepthScenes,v2_duration_discrimination,discrim_jsons/Discrim125_randls_38.json,http://54.235.29.9/FacialAge/BNav_EC2/DepthDuration/v2_depth_discrimination_MTurk/v2_DepthDiscrim_HTML.html#462,462,1584,772,1600,900,9-20-2022,8-37-4,68,depth_discrimination_stimuli/002153_2014-06-25_21-27-18_260595134347_rgbf000038-resize_5/002153_2014-06-25_21-27-18_260595134347_rgbf000038-resize_5-target.png,depth_discrimination_stimuli/002660_2014-06-13_15-44-18_094959634447_rgbf001878-resize_2/002660_2014-06-13_15-44-18_094959634447_rgbf001878-resize_2-target.png,125.0,2.505,3.576,1.0,1171,1016,124,985,129,500,,491117,48,Woman
68,268604,DepthScenes,v2_duration_discrimination,discrim_jsons/Discrim125_randls_38.json,http://54.235.29.9/FacialAge/BNav_EC2/DepthDuration/v2_depth_discrimination_MTurk/v2_DepthDiscrim_HTML.html#462,462,1584,772,1600,900,9-20-2022,8-37-4,69,depth_discrimination_stimuli/001417_2014-06-19_16-25-36_260595134347_rgbf000115-resize_5/001417_2014-06-19_16-25-36_260595134347_rgbf000115-resize_5-target.png,depth_discrimination_stimuli/003081_2014-06-15_15-19-16_094959634447_rgbf000150-resize_1/003081_2014-06-15_15-19-16_094959634447_rgbf000150-resize_1-target.png,125.0,4.6255,3.9125,1.0,629,1017,123,997,120,502,,491117,48,Woman
69,268604,DepthScenes,v2_duration_discrimination,discrim_jsons/Discrim125_randls_38.json,http://54.235.29.9/FacialAge/BNav_EC2/DepthDuration/v2_depth_discrimination_MTurk/v2_DepthDiscrim_HTML.html#462,462,1584,772,1600,900,9-20-2022,8-37-4,70,depth_discrimination_stimuli/001110_2014-06-15_17-25-28_260595134347_rgbf000150-resize_1/001110_2014-06-15_17-25-28_260595134347_rgbf000150-resize_1-target.png,depth_discrimination_stimuli/000927_2014-06-09_16-32-30_260595134347_rgbf000123-resize_3/000927_2014-06-09_16-32-30_260595134347_rgbf000123-resize_3-target.png,125.0,1.7115,2.6785,0.0,1132,1015,124,992,124,499,,491117,48,Woman
70,268604,DepthScenes,v2_duration_discrimination,discrim_jsons/Discrim125_randls_38.json,http://54.235.29.9/FacialAge/BNav_EC2/DepthDuration/v2_depth_discrimination_MTurk/v2_DepthDiscrim_HTML.html#462,462,1584,772,1600,900,9-20-2022,8-37-4,71,depth_discrimination_stimuli/002072_2014-06-24_21-48-06_260595134347_rgbf000115-resize_0/002072_2014-06-24_21-48-06_260595134347_rgbf000115-resize_0-target.png,depth_discrimination_stimuli/002072_2014-06-24_21-48-06_260595134347_rgbf000115-resize_0/002072_2014-06-24_21-48-06_260595134347_rgbf000115-resize_0-target.png,125.0,4.702,4.702,3.0,818,1015,125,1000,117,494,,491117,48,Woman
71,268604,DepthScenes,v2_duration_discrimination,discrim_jsons/Discrim125_randls_38.json,http://54.235.29.9/FacialAge/BNav_EC2/DepthDuration/v2_depth_discrimination_MTurk/v2_DepthDiscrim_HTML.html#462,462,1584,772,1600,900,9-20-2022,8-37-4,72,depth_discrimination_stimuli/000368_2014-06-09_15-53-01_260595134347_rgbf000155-resize_2/000368_2014-06-09_15-53-01_260595134347_rgbf000155-resize_2-target.png,depth_discrimination_stimuli/002678_2014-06-13_16-15-32_094959634447_rgbf000151-resize_6/002678_2014-06-13_16-15-32_094959634447_rgbf000151-resize_6-target.png,125.0,2.4859999999999998,2.1830000000000003,0.0,1779,1008,124,1008,110,507,,491117,48,Woman
72,268604,DepthScenes,v2_duration_discrimination,discrim_jsons/Discrim125_randls_38.json,http://54.235.29.9/FacialAge/BNav_EC2/DepthDuration/v2_depth_discrimination_MTurk/v2_DepthDiscrim_HTML.html#462,462,1584,772,1600,900,9-20-2022,8-37-4,73,depth_discrimination_stimuli/002725_2014-06-22_11-47-51_094959634447_rgbf000070-resize_1/002725_2014-06-22_11-47-51_094959634447_rgbf000070-resize_1-target.png,depth_discrimination_stimuli/002344_2014-06-28_20-06-29_260595134347_rgbf000030-resize_1/002344_2014-06-28_20-06-29_260595134347_rgbf000030-resize_1-target.png,125.0,2.195,1.5795,1.0,840,1007,120,1008,126,491,,491117,48,Woman
73,268604,DepthScenes,v2_duration_discrimination,discrim_jsons/Discrim125_randls_38.json,http://54.235.29.9/FacialAge/BNav_EC2/DepthDuration/v2_depth_discrimination_MTurk/v2_DepthDiscrim_HTML.html#462,462,1584,772,1600,900,9-20-2022,8-37-4,74,depth_discrimination_stimuli/000414_2014-06-04_19-49-13_260595134347_rgbf000044-resize_0/000414_2014-06-04_19-49-13_260595134347_rgbf000044-resize_0-target.png,depth_discrimination_stimuli/003129_2014-05-12_10-48-10_094959634447_rgbf000100-resize_0/003129_2014-05-12_10-48-10_094959634447_rgbf000100-resize_0-target.png,125.0,4.329,4.9305,1.0,1053,1003,132,995,121,505,,491117,48,Woman
74,268604,DepthScenes,v2_duration_discrimination,discrim_jsons/Discrim125_randls_38.json,http://54.235.29.9/FacialAge/BNav_EC2/DepthDuration/v2_depth_discrimination_MTurk/v2_DepthDiscrim_HTML.html#462,462,1584,772,1600,900,9-20-2022,8-37-4,75,depth_discrimination_stimuli/002630_2014-06-24_14-47-50_094959634447_rgbf000055-resize_1/002630_2014-06-24_14-47-50_094959634447_rgbf000055-resize_1-target.png,depth_discrimination_stimuli/002758_2014-06-22_19-11-20_094959634447_rgbf000128-resize_1/002758_2014-06-22_19-11-20_094959634447_rgbf000128-resize_1-target.png,125.0,3.0095,2.555,1.0,894,1015,119,994,122,508,,491117,48,Woman
75,268604,DepthScenes,v2_duration_discrimination,discrim_jsons/Discrim125_randls_38.json,http://54.235.29.9/FacialAge/BNav_EC2/DepthDuration/v2_depth_discrimination_MTurk/v2_DepthDiscrim_HTML.html#462,462,1584,772,1600,900,9-20-2022,8-37-4,76,depth_discrimination_stimuli/001244_2014-06-17_16-47-45_260595134347_rgbf000030-resize_4/001244_2014-06-17_16-47-45_260595134347_rgbf000030-resize_4-target.png,depth_discrimination_stimuli/003495_2014-05-21_16-01-51_094959634447_rgbf000100-resize_3/003495_2014-05-21_16-01-51_094959634447_rgbf000100-resize_3-target.png,125.0,2.0425,1.6255,1.0,856,1003,126,1006,115,510,,491117,48,Woman
76,268604,DepthScenes,v2_duration_discrimination,discrim_jsons/Discrim125_randls_38.json,http://54.235.29.9/FacialAge/BNav_EC2/DepthDuration/v2_depth_discrimination_MTurk/v2_DepthDiscrim_HTML.html#462,462,1584,772,1600,900,9-20-2022,8-37-4,77,depth_discrimination_stimuli/001498_2014-06-19_17-45-14_260595134347_rgbf000129-resize_4/001498_2014-06-19_17-45-14_260595134347_rgbf000129-resize_4-target.png,depth_discrimination_stimuli/001498_2014-06-19_17-45-14_260595134347_rgbf000129-resize_4/001498_2014-06-19_17-45-14_260595134347_rgbf000129-resize_4-target.png,125.0,1.4075,1.4075,3.0,1120,1017,120,989,125,499,,491117,48,Woman
77,268604,DepthScenes,v2_duration_discrimination,discrim_jsons/Discrim125_randls_38.json,http://54.235.29.9/FacialAge/BNav_EC2/DepthDuration/v2_depth_discrimination_MTurk/v2_DepthDiscrim_HTML.html#462,462,1584,772,1600,900,9-20-2022,8-37-4,78,depth_discrimination_stimuli/000486_2014-06-09_20-47-20_260595134347_rgbf000143-resize_2/000486_2014-06-09_20-47-20_260595134347_rgbf000143-resize_2-target.png,depth_discrimination_stimuli/003083_2014-06-15_15-21-03_094959634447_rgbf000063-resize_1/003083_2014-06-15_15-21-03_094959634447_rgbf000063-resize_1-target.png,125.0,4.8325,4.1405,0.0,974,1006,131,991,124,505,,491117,48,Woman
78,268604,DepthScenes,v2_duration_discrimination,discrim_jsons/Discrim125_randls_38.json,http://54.235.29.9/FacialAge/BNav_EC2/DepthDuration/v2_depth_discrimination_MTurk/v2_DepthDiscrim_HTML.html#462,462,1584,772,1600,900,9-20-2022,8-37-4,79,depth_discrimination_stimuli/002989_2014-06-15_12-25-03_094959634447_rgbf000150-resize_3/002989_2014-06-15_12-25-03_094959634447_rgbf000150-resize_3-target.png,depth_discrimination_stimuli/000866_2014-06-09_20-45-42_260595134347_rgbf000139-resize_1/000866_2014-06-09_20-45-42_260595134347_rgbf000139-resize_1-target.png,125.0,4.1975,3.2155,1.0,882,1006,128,992,126,510,,491117,48,Woman
79,268604,DepthScenes,v2_duration_discrimination,discrim_jsons/Discrim125_randls_38.json,http://54.235.29.9/FacialAge/BNav_EC2/DepthDuration/v2_depth_discrimination_MTurk/v2_DepthDiscrim_HTML.html#462,462,1584,772,1600,900,9-20-2022,8-37-4,80,depth_discrimination_stimuli/000773_2014-06-08_22-24-54_260595134347_rgbf000093-resize_1/000773_2014-06-08_22-24-54_260595134347_rgbf000093-resize_1-target.png,depth_discrimination_stimuli/002414_2014-06-28_20-24-58_260595134347_rgbf000067-resize_4/002414_2014-06-28_20-24-58_260595134347_rgbf000067-resize_4-target.png,125.0,4.973,4.363,0.0,1078,1006,120,1009,122,506,,491117,48,Woman
80,268604,DepthScenes,v2_duration_discrimination,discrim_jsons/Discrim125_randls_38.json,http://54.235.29.9/FacialAge/BNav_EC2/DepthDuration/v2_depth_discrimination_MTurk/v2_DepthDiscrim_HTML.html#462,462,1584,772,1600,900,9-20-2022,8-37-4,81,depth_discrimination_stimuli/001570_2014-06-20_17-21-09_260595134347_rgbf000135-resize_4/001570_2014-06-20_17-21-09_260595134347_rgbf000135-resize_4-target.png,depth_discrimination_stimuli/001392_2014-06-19_16-07-59_260595134347_rgbf000046-resize_1/001392_2014-06-19_16-07-59_260595134347_rgbf000046-resize_1-target.png,125.0,4.467,4.135,1.0,746,1008,119,1005,126,500,,491117,48,Woman
81,268604,DepthScenes,v2_duration_discrimination,discrim_jsons/Discrim125_randls_38.json,http://54.235.29.9/FacialAge/BNav_EC2/DepthDuration/v2_depth_discrimination_MTurk/v2_DepthDiscrim_HTML.html#462,462,1584,772,1600,900,9-20-2022,8-37-4,82,depth_discrimination_stimuli/000906_2014-06-08_13-35-43_260595134347_rgbf000155-resize_1/000906_2014-06-08_13-35-43_260595134347_rgbf000155-resize_1-target.png,depth_discrimination_stimuli/002805_2014-06-22_19-54-03_094959634447_rgbf000079-resize_1/002805_2014-06-22_19-54-03_094959634447_rgbf000079-resize_1-target.png,125.0,2.8489999999999998,3.1439999999999997,1.0,1099,1017,113,1002,132,491,,491117,48,Woman
82,268604,DepthScenes,v2_duration_discrimination,discrim_jsons/Discrim125_randls_38.json,http://54.235.29.9/FacialAge/BNav_EC2/DepthDuration/v2_depth_discrimination_MTurk/v2_DepthDiscrim_HTML.html#462,462,1584,772,1600,900,9-20-2022,8-37-4,83,depth_discrimination_stimuli/000469_2014-06-09_19-42-10_260595134347_rgbf000081-resize_1/000469_2014-06-09_19-42-10_260595134347_rgbf000081-resize_1-target.png,depth_discrimination_stimuli/000483_2014-06-09_20-41-45_260595134347_rgbf000116-resize_4/000483_2014-06-09_20-41-45_260595134347_rgbf000116-resize_4-target.png,125.0,1.652,1.337,1.0,985,1015,116,1001,132,497,,491117,48,Woman
83,268604,DepthScenes,v2_duration_discrimination,discrim_jsons/Discrim125_randls_38.json,http://54.235.29.9/FacialAge/BNav_EC2/DepthDuration/v2_depth_discrimination_MTurk/v2_DepthDiscrim_HTML.html#462,462,1584,772,1600,900,9-20-2022,8-37-4,84,depth_discrimination_stimuli/001029_2014-06-08_13-17-57_260595134347_rgbf000065-resize_1/001029_2014-06-08_13-17-57_260595134347_rgbf000065-resize_1-target.png,depth_discrimination_stimuli/000677_2014-06-08_23-10-32_260595134347_rgbf000158-resize_6/000677_2014-06-08_23-10-32_260595134347_rgbf000158-resize_6-target.png,125.0,3.0835,3.556,3.0,1151,1003,125,999,132,499,,491117,48,Woman
84,268604,DepthScenes,v2_duration_discrimination,discrim_jsons/Discrim125_randls_38.json,http://54.235.29.9/FacialAge/BNav_EC2/DepthDuration/v2_depth_discrimination_MTurk/v2_DepthDiscrim_HTML.html#462,462,1584,772,1600,900,9-20-2022,8-37-4,85,depth_discrimination_stimuli/000506_2014-06-08_23-21-00_260595134347_rgbf000070-resize_7/000506_2014-06-08_23-21-00_260595134347_rgbf000070-resize_7-target.png,depth_discrimination_stimuli/003079_2014-06-15_15-18-20_094959634447_rgbf000152-resize_8/003079_2014-06-15_15-18-20_094959634447_rgbf000152-resize_8-target.png,125.0,4.0585,2.8775,0.0,1827,1007,124,994,138,492,,491117,48,Woman
85,268604,DepthScenes,v2_duration_discrimination,discrim_jsons/Discrim125_randls_38.json,http://54.235.29.9/FacialAge/BNav_EC2/DepthDuration/v2_depth_discrimination_MTurk/v2_DepthDiscrim_HTML.html#462,462,1584,772,1600,900,9-20-2022,8-37-4,86,depth_discrimination_stimuli/002039_2014-06-24_20-22-38_260595134347_rgbf000084-resize_1/002039_2014-06-24_20-22-38_260595134347_rgbf000084-resize_1-target.png,depth_discrimination_stimuli/002103_2014-06-25_20-00-40_260595134347_rgbf000049-resize_0/002103_2014-06-25_20-00-40_260595134347_rgbf000049-resize_0-target.png,125.0,4.408,4.105,1.0,1008,1003,126,996,135,491,,491117,48,Woman
86,268604,DepthScenes,v2_duration_discrimination,discrim_jsons/Discrim125_randls_38.json,http://54.235.29.9/FacialAge/BNav_EC2/DepthDuration/v2_depth_discrimination_MTurk/v2_DepthDiscrim_HTML.html#462,462,1584,772,1600,900,9-20-2022,8-37-4,86,,,,,,,1008,1003,126,996,135,491,,491117,48,Woman
