,subjID,experimentName,versionName,sequenceName,url,selected_row,windowWidth,windowHeight,screenWidth,screenHeight,startDate,startTime,trial,stimulus_0,stimulus_1,duration,actual_depth_0,actual_depth_1,discrim_choice,trial_RT,log_fixation,log_sceneDuration1,log_mask1,log_sceneDuration2,log_mask2,experimentTime,totalTime,age,gender
0,476415,DepthScenes,v2_duration_discrimination,discrim_jsons/Discrim125_randls_7_rotated.json,http://54.235.29.9/FacialAge/BNav_EC2/DepthDuration/v2_depth_discrimination_MTurk/v2_DepthDiscrim_HTML.html#424,424,1229,692,1229,692,9-6-2022,13-7-46,1,depth_discrimination_stimuli/000502_2014-06-08_23-02-32_260595134347_rgbf000063-resize_4/000502_2014-06-08_23-02-32_260595134347_rgbf000063-resize_4-target.png,depth_discrimination_stimuli/001199_2014-06-17_16-03-48_260595134347_rgbf000077-resize_0/001199_2014-06-17_16-03-48_260595134347_rgbf000077-resize_0-target.png,125.0,2.431,3.4375,0.0,791,1003,130,996,120,503,,560556,38,Woman
1,476415,DepthScenes,v2_duration_discrimination,discrim_jsons/Discrim125_randls_7_rotated.json,http://54.235.29.9/FacialAge/BNav_EC2/DepthDuration/v2_depth_discrimination_MTurk/v2_DepthDiscrim_HTML.html#424,424,1229,692,1229,692,9-6-2022,13-7-46,2,depth_discrimination_stimuli/000943_2014-06-09_19-31-07_260595134347_rgbf000128-resize_1/000943_2014-06-09_19-31-07_260595134347_rgbf000128-resize_1-target.png,depth_discrimination_stimuli/003070_2014-06-15_14-58-27_094959634447_rgbf000150-resize_3/003070_2014-06-15_14-58-27_094959634447_rgbf000150-resize_3-target.png,125.0,1.9765,2.9415,0.0,900,1003,128,1004,125,498,,560556,38,Woman
2,476415,DepthScenes,v2_duration_discrimination,discrim_jsons/Discrim125_randls_7_rotated.json,http://54.235.29.9/FacialAge/BNav_EC2/DepthDuration/v2_depth_discrimination_MTurk/v2_DepthDiscrim_HTML.html#424,424,1229,692,1229,692,9-6-2022,13-7-46,3,depth_discrimination_stimuli/002639_2014-06-24_14-51-37_094959634447_rgbf000074-resize_4/002639_2014-06-24_14-51-37_094959634447_rgbf000074-resize_4-target.png,depth_discrimination_stimuli/003292_2014-05-14_21-53-49_094959634447_rgbf000100-resize_2/003292_2014-05-14_21-53-49_094959634447_rgbf000100-resize_2-target.png,125.0,4.0375,3.4815,1.0,800,1002,129,1001,131,485,,560556,38,Woman
3,476415,DepthScenes,v2_duration_discrimination,discrim_jsons/Discrim125_randls_7_rotated.json,http://54.235.29.9/FacialAge/BNav_EC2/DepthDuration/v2_depth_discrimination_MTurk/v2_DepthDiscrim_HTML.html#424,424,1229,692,1229,692,9-6-2022,13-7-46,4,depth_discrimination_stimuli/000191_2014-05-12_17-07-38_260595134347_rgbf000199-resize_0/000191_2014-05-12_17-07-38_260595134347_rgbf000199-resize_0-target.png,depth_discrimination_stimuli/000493_2014-06-09_21-01-18_260595134347_rgbf000196-resize_3/000493_2014-06-09_21-01-18_260595134347_rgbf000196-resize_3-target.png,125.0,3.7995,3.44,1.0,1541,1004,136,1000,119,497,,560556,38,Woman
4,476415,DepthScenes,v2_duration_discrimination,discrim_jsons/Discrim125_randls_7_rotated.json,http://54.235.29.9/FacialAge/BNav_EC2/DepthDuration/v2_depth_discrimination_MTurk/v2_DepthDiscrim_HTML.html#424,424,1229,692,1229,692,9-6-2022,13-7-46,5,depth_discrimination_stimuli/000483_2014-06-09_20-41-45_260595134347_rgbf000116-resize_4/000483_2014-06-09_20-41-45_260595134347_rgbf000116-resize_4-target.png,depth_discrimination_stimuli/000469_2014-06-09_19-42-10_260595134347_rgbf000081-resize_1/000469_2014-06-09_19-42-10_260595134347_rgbf000081-resize_1-target.png,125.0,1.337,1.652,1.0,1012,1001,131,999,127,492,,560556,38,Woman
5,476415,DepthScenes,v2_duration_discrimination,discrim_jsons/Discrim125_randls_7_rotated.json,http://54.235.29.9/FacialAge/BNav_EC2/DepthDuration/v2_depth_discrimination_MTurk/v2_DepthDiscrim_HTML.html#424,424,1229,692,1229,692,9-6-2022,13-7-46,6,depth_discrimination_stimuli/003423_2014-05-21_10-23-26_094959634447_rgbf002665-resize_2/003423_2014-05-21_10-23-26_094959634447_rgbf002665-resize_2-target.png,depth_discrimination_stimuli/002905_2014-06-03_18-04-43_094959634447_rgbf000151-resize_2/002905_2014-06-03_18-04-43_094959634447_rgbf000151-resize_2-target.png,125.0,3.2575,2.0295,1.0,1486,1002,130,998,132,492,,560556,38,Woman
6,476415,DepthScenes,v2_duration_discrimination,discrim_jsons/Discrim125_randls_7_rotated.json,http://54.235.29.9/FacialAge/BNav_EC2/DepthDuration/v2_depth_discrimination_MTurk/v2_DepthDiscrim_HTML.html#424,424,1229,692,1229,692,9-6-2022,13-7-46,7,depth_discrimination_stimuli/003081_2014-06-15_15-19-16_094959634447_rgbf000150-resize_1/003081_2014-06-15_15-19-16_094959634447_rgbf000150-resize_1-target.png,depth_discrimination_stimuli/001417_2014-06-19_16-25-36_260595134347_rgbf000115-resize_5/001417_2014-06-19_16-25-36_260595134347_rgbf000115-resize_5-target.png,125.0,3.9125,4.6255,0.0,1349,1004,133,991,131,492,,560556,38,Woman
7,476415,DepthScenes,v2_duration_discrimination,discrim_jsons/Discrim125_randls_7_rotated.json,http://54.235.29.9/FacialAge/BNav_EC2/DepthDuration/v2_depth_discrimination_MTurk/v2_DepthDiscrim_HTML.html#424,424,1229,692,1229,692,9-6-2022,13-7-46,8,depth_discrimination_stimuli/002657_2014-06-13_15-29-54_094959634447_rgbf000150-resize_1/002657_2014-06-13_15-29-54_094959634447_rgbf000150-resize_1-target.png,depth_discrimination_stimuli/002375_2014-06-28_20-13-44_260595134347_rgbf000032-resize_1/002375_2014-06-28_20-13-44_260595134347_rgbf000032-resize_1-target.png,125.0,4.919,4.0175,1.0,1088,1015,121,994,133,492,,560556,38,Woman
8,476415,DepthScenes,v2_duration_discrimination,discrim_jsons/Discrim125_randls_7_rotated.json,http://54.235.29.9/FacialAge/BNav_EC2/DepthDuration/v2_depth_discrimination_MTurk/v2_DepthDiscrim_HTML.html#424,424,1229,692,1229,692,9-6-2022,13-7-46,9,depth_discrimination_stimuli/002323_2014-06-28_20-01-54_260595134347_rgbf000051-resize_4/002323_2014-06-28_20-01-54_260595134347_rgbf000051-resize_4-target.png,depth_discrimination_stimuli/000917_2014-06-09_22-45-29_260595134347_rgbf000149-resize_3/000917_2014-06-09_22-45-29_260595134347_rgbf000149-resize_3-target.png,125.0,3.7310000000000003,4.1865,1.0,2069,1002,127,1012,120,515,,560556,38,Woman
9,476415,DepthScenes,v2_duration_discrimination,discrim_jsons/Discrim125_randls_7_rotated.json,http://54.235.29.9/FacialAge/BNav_EC2/DepthDuration/v2_depth_discrimination_MTurk/v2_DepthDiscrim_HTML.html#424,424,1229,692,1229,692,9-6-2022,13-7-46,10,depth_discrimination_stimuli/001498_2014-06-19_17-45-14_260595134347_rgbf000129-resize_4/001498_2014-06-19_17-45-14_260595134347_rgbf000129-resize_4-target.png,depth_discrimination_stimuli/001498_2014-06-19_17-45-14_260595134347_rgbf000129-resize_4/001498_2014-06-19_17-45-14_260595134347_rgbf000129-resize_4-target.png,125.0,1.4075,1.4075,3.0,1108,1010,127,994,134,490,,560556,38,Woman
10,476415,DepthScenes,v2_duration_discrimination,discrim_jsons/Discrim125_randls_7_rotated.json,http://54.235.29.9/FacialAge/BNav_EC2/DepthDuration/v2_depth_discrimination_MTurk/v2_DepthDiscrim_HTML.html#424,424,1229,692,1229,692,9-6-2022,13-7-46,11,depth_discrimination_stimuli/003338_2014-05-20_11-01-23_094959634447_rgbf000051-resize_6/003338_2014-05-20_11-01-23_094959634447_rgbf000051-resize_6-target.png,depth_discrimination_stimuli/002509_2014-06-24_13-19-22_094959634447_rgbf000077-resize_0/002509_2014-06-24_13-19-22_094959634447_rgbf000077-resize_0-target.png,125.0,1.693,1.3065,1.0,1116,1010,123,1024,93,501,,560556,38,Woman
11,476415,DepthScenes,v2_duration_discrimination,discrim_jsons/Discrim125_randls_7_rotated.json,http://54.235.29.9/FacialAge/BNav_EC2/DepthDuration/v2_depth_discrimination_MTurk/v2_DepthDiscrim_HTML.html#424,424,1229,692,1229,692,9-6-2022,13-7-46,12,depth_discrimination_stimuli/000103_2014-05-14_22-01-17_260595134347_rgbf000152-resize_5/000103_2014-05-14_22-01-17_260595134347_rgbf000152-resize_5-target.png,depth_discrimination_stimuli/001555_2014-06-20_17-12-10_260595134347_rgbf000065-resize_4/001555_2014-06-20_17-12-10_260595134347_rgbf000065-resize_4-target.png,125.0,1.993,1.633,1.0,1098,1005,121,1005,118,526,,560556,38,Woman
12,476415,DepthScenes,v2_duration_discrimination,discrim_jsons/Discrim125_randls_7_rotated.json,http://54.235.29.9/FacialAge/BNav_EC2/DepthDuration/v2_depth_discrimination_MTurk/v2_DepthDiscrim_HTML.html#424,424,1229,692,1229,692,9-6-2022,13-7-46,13,depth_discrimination_stimuli/003079_2014-06-15_15-18-20_094959634447_rgbf000152-resize_8/003079_2014-06-15_15-18-20_094959634447_rgbf000152-resize_8-target.png,depth_discrimination_stimuli/000506_2014-06-08_23-21-00_260595134347_rgbf000070-resize_7/000506_2014-06-08_23-21-00_260595134347_rgbf000070-resize_7-target.png,125.0,2.8775,4.0585,1.0,1418,1012,115,1005,120,504,,560556,38,Woman
13,476415,DepthScenes,v2_duration_discrimination,discrim_jsons/Discrim125_randls_7_rotated.json,http://54.235.29.9/FacialAge/BNav_EC2/DepthDuration/v2_depth_discrimination_MTurk/v2_DepthDiscrim_HTML.html#424,424,1229,692,1229,692,9-6-2022,13-7-46,14,depth_discrimination_stimuli/002414_2014-06-28_20-24-58_260595134347_rgbf000067-resize_4/002414_2014-06-28_20-24-58_260595134347_rgbf000067-resize_4-target.png,depth_discrimination_stimuli/000773_2014-06-08_22-24-54_260595134347_rgbf000093-resize_1/000773_2014-06-08_22-24-54_260595134347_rgbf000093-resize_1-target.png,125.0,4.363,4.973,0.0,1902,1013,116,1013,111,507,,560556,38,Woman
14,476415,DepthScenes,v2_duration_discrimination,discrim_jsons/Discrim125_randls_7_rotated.json,http://54.235.29.9/FacialAge/BNav_EC2/DepthDuration/v2_depth_discrimination_MTurk/v2_DepthDiscrim_HTML.html#424,424,1229,692,1229,692,9-6-2022,13-7-46,15,depth_discrimination_stimuli/000665_2014-06-09_20-42-35_260595134347_rgbf000110-resize_1/000665_2014-06-09_20-42-35_260595134347_rgbf000110-resize_1-target.png,depth_discrimination_stimuli/001150_2014-06-17_15-27-34_260595134347_rgbf000108-resize_2/001150_2014-06-17_15-27-34_260595134347_rgbf000108-resize_2-target.png,125.0,3.057,4.0325,0.0,1060,1013,126,996,120,495,,560556,38,Woman
15,476415,DepthScenes,v2_duration_discrimination,discrim_jsons/Discrim125_randls_7_rotated.json,http://54.235.29.9/FacialAge/BNav_EC2/DepthDuration/v2_depth_discrimination_MTurk/v2_DepthDiscrim_HTML.html#424,424,1229,692,1229,692,9-6-2022,13-7-46,16,depth_discrimination_stimuli/002072_2014-06-24_21-48-06_260595134347_rgbf000115-resize_0/002072_2014-06-24_21-48-06_260595134347_rgbf000115-resize_0-target.png,depth_discrimination_stimuli/002072_2014-06-24_21-48-06_260595134347_rgbf000115-resize_0/002072_2014-06-24_21-48-06_260595134347_rgbf000115-resize_0-target.png,125.0,4.702,4.702,3.0,1058,1005,128,1003,114,504,,560556,38,Woman
16,476415,DepthScenes,v2_duration_discrimination,discrim_jsons/Discrim125_randls_7_rotated.json,http://54.235.29.9/FacialAge/BNav_EC2/DepthDuration/v2_depth_discrimination_MTurk/v2_DepthDiscrim_HTML.html#424,424,1229,692,1229,692,9-6-2022,13-7-46,17,depth_discrimination_stimuli/000742_2014-06-08_18-48-09_260595134347_rgbf000164-resize_4/000742_2014-06-08_18-48-09_260595134347_rgbf000164-resize_4-target.png,depth_discrimination_stimuli/001066_2014-06-08_22-03-20_260595134347_rgbf000066-resize_4/001066_2014-06-08_22-03-20_260595134347_rgbf000066-resize_4-target.png,125.0,4.632,4.2330000000000005,0.0,1281,1007,122,998,135,493,,560556,38,Woman
17,476415,DepthScenes,v2_duration_discrimination,discrim_jsons/Discrim125_randls_7_rotated.json,http://54.235.29.9/FacialAge/BNav_EC2/DepthDuration/v2_depth_discrimination_MTurk/v2_DepthDiscrim_HTML.html#424,424,1229,692,1229,692,9-6-2022,13-7-46,18,depth_discrimination_stimuli/000409_2014-06-04_19-23-33_260595134347_rgbf000067-resize_0/000409_2014-06-04_19-23-33_260595134347_rgbf000067-resize_0-target.png,depth_discrimination_stimuli/002663_2014-06-13_15-50-26_094959634447_rgbf000075-resize_1/002663_2014-06-13_15-50-26_094959634447_rgbf000075-resize_1-target.png,125.0,3.7335,4.7495,0.0,1997,1010,118,1000,133,499,,560556,38,Woman
18,476415,DepthScenes,v2_duration_discrimination,discrim_jsons/Discrim125_randls_7_rotated.json,http://54.235.29.9/FacialAge/BNav_EC2/DepthDuration/v2_depth_discrimination_MTurk/v2_DepthDiscrim_HTML.html#424,424,1229,692,1229,692,9-6-2022,13-7-46,19,depth_discrimination_stimuli/001392_2014-06-19_16-07-59_260595134347_rgbf000046-resize_1/001392_2014-06-19_16-07-59_260595134347_rgbf000046-resize_1-target.png,depth_discrimination_stimuli/001570_2014-06-20_17-21-09_260595134347_rgbf000135-resize_4/001570_2014-06-20_17-21-09_260595134347_rgbf000135-resize_4-target.png,125.0,4.135,4.467,1.0,1530,1016,120,991,132,496,,560556,38,Woman
19,476415,DepthScenes,v2_duration_discrimination,discrim_jsons/Discrim125_randls_7_rotated.json,http://54.235.29.9/FacialAge/BNav_EC2/DepthDuration/v2_depth_discrimination_MTurk/v2_DepthDiscrim_HTML.html#424,424,1229,692,1229,692,9-6-2022,13-7-46,20,depth_discrimination_stimuli/000927_2014-06-09_16-32-30_260595134347_rgbf000123-resize_3/000927_2014-06-09_16-32-30_260595134347_rgbf000123-resize_3-target.png,depth_discrimination_stimuli/001110_2014-06-15_17-25-28_260595134347_rgbf000150-resize_1/001110_2014-06-15_17-25-28_260595134347_rgbf000150-resize_1-target.png,125.0,2.6785,1.7115,1.0,1087,1011,126,1000,122,491,,560556,38,Woman
20,476415,DepthScenes,v2_duration_discrimination,discrim_jsons/Discrim125_randls_7_rotated.json,http://54.235.29.9/FacialAge/BNav_EC2/DepthDuration/v2_depth_discrimination_MTurk/v2_DepthDiscrim_HTML.html#424,424,1229,692,1229,692,9-6-2022,13-7-46,21,depth_discrimination_stimuli/001136_2014-06-17_15-19-41_260595134347_rgbf000076-resize_3/001136_2014-06-17_15-19-41_260595134347_rgbf000076-resize_3-target.png,depth_discrimination_stimuli/001164_2014-06-17_15-35-46_260595134347_rgbf000085-resize_3/001164_2014-06-17_15-35-46_260595134347_rgbf000085-resize_3-target.png,125.0,1.8655,2.354,0.0,1204,1005,122,1001,122,499,,560556,38,Woman
21,476415,DepthScenes,v2_duration_discrimination,discrim_jsons/Discrim125_randls_7_rotated.json,http://54.235.29.9/FacialAge/BNav_EC2/DepthDuration/v2_depth_discrimination_MTurk/v2_DepthDiscrim_HTML.html#424,424,1229,692,1229,692,9-6-2022,13-7-46,22,depth_discrimination_stimuli/000709_2014-06-08_13-51-55_260595134347_rgbf000068-resize_3/000709_2014-06-08_13-51-55_260595134347_rgbf000068-resize_3-target.png,depth_discrimination_stimuli/002057_2014-06-24_21-00-13_260595134347_rgbf000120-resize_1/002057_2014-06-24_21-00-13_260595134347_rgbf000120-resize_1-target.png,125.0,1.8030000000000002,2.967,0.0,1312,1002,124,1014,118,495,,560556,38,Woman
22,476415,DepthScenes,v2_duration_discrimination,discrim_jsons/Discrim125_randls_7_rotated.json,http://54.235.29.9/FacialAge/BNav_EC2/DepthDuration/v2_depth_discrimination_MTurk/v2_DepthDiscrim_HTML.html#424,424,1229,692,1229,692,9-6-2022,13-7-46,23,depth_discrimination_stimuli/001650_2014-06-20_12-09-00_260595134347_rgbf000087-resize_3/001650_2014-06-20_12-09-00_260595134347_rgbf000087-resize_3-target.png,depth_discrimination_stimuli/000682_2014-06-08_23-14-58_260595134347_rgbf000041-resize_5/000682_2014-06-08_23-14-58_260595134347_rgbf000041-resize_5-target.png,125.0,1.9505,2.7239999999999998,0.0,1702,1014,126,991,128,492,,560556,38,Woman
23,476415,DepthScenes,v2_duration_discrimination,discrim_jsons/Discrim125_randls_7_rotated.json,http://54.235.29.9/FacialAge/BNav_EC2/DepthDuration/v2_depth_discrimination_MTurk/v2_DepthDiscrim_HTML.html#424,424,1229,692,1229,692,9-6-2022,13-7-46,24,depth_discrimination_stimuli/002344_2014-06-28_20-06-29_260595134347_rgbf000030-resize_1/002344_2014-06-28_20-06-29_260595134347_rgbf000030-resize_1-target.png,depth_discrimination_stimuli/002725_2014-06-22_11-47-51_094959634447_rgbf000070-resize_1/002725_2014-06-22_11-47-51_094959634447_rgbf000070-resize_1-target.png,125.0,1.5795,2.195,0.0,1018,1013,117,1002,127,494,,560556,38,Woman
24,476415,DepthScenes,v2_duration_discrimination,discrim_jsons/Discrim125_randls_7_rotated.json,http://54.235.29.9/FacialAge/BNav_EC2/DepthDuration/v2_depth_discrimination_MTurk/v2_DepthDiscrim_HTML.html#424,424,1229,692,1229,692,9-6-2022,13-7-46,25,depth_discrimination_stimuli/000549_2014-06-08_22-10-24_260595134347_rgbf000247-resize_3/000549_2014-06-08_22-10-24_260595134347_rgbf000247-resize_3-target.png,depth_discrimination_stimuli/001055_2014-06-08_18-45-35_260595134347_rgbf000111-resize_4/001055_2014-06-08_18-45-35_260595134347_rgbf000111-resize_4-target.png,125.0,1.841,2.4290000000000003,0.0,1221,1007,129,1001,116,501,,560556,38,Woman
25,476415,DepthScenes,v2_duration_discrimination,discrim_jsons/Discrim125_randls_7_rotated.json,http://54.235.29.9/FacialAge/BNav_EC2/DepthDuration/v2_depth_discrimination_MTurk/v2_DepthDiscrim_HTML.html#424,424,1229,692,1229,692,9-6-2022,13-7-46,26,depth_discrimination_stimuli/001170_2014-06-17_15-43-44_260595134347_rgbf000096-resize_6/001170_2014-06-17_15-43-44_260595134347_rgbf000096-resize_6-target.png,depth_discrimination_stimuli/001170_2014-06-17_15-43-44_260595134347_rgbf000096-resize_6/001170_2014-06-17_15-43-44_260595134347_rgbf000096-resize_6-target.png,125.0,1.1909999999999998,1.1909999999999998,3.0,1052,1017,115,995,135,497,,560556,38,Woman
26,476415,DepthScenes,v2_duration_discrimination,discrim_jsons/Discrim125_randls_7_rotated.json,http://54.235.29.9/FacialAge/BNav_EC2/DepthDuration/v2_depth_discrimination_MTurk/v2_DepthDiscrim_HTML.html#424,424,1229,692,1229,692,9-6-2022,13-7-46,27,depth_discrimination_stimuli/001450_2014-06-19_17-02-03_260595134347_rgbf000203-resize_4/001450_2014-06-19_17-02-03_260595134347_rgbf000203-resize_4-target.png,depth_discrimination_stimuli/001449_2014-06-19_17-01-27_260595134347_rgbf000116-resize_2/001449_2014-06-19_17-01-27_260595134347_rgbf000116-resize_2-target.png,125.0,4.0106666666667,3.452,1.0,1157,1001,135,1002,125,499,,560556,38,Woman
27,476415,DepthScenes,v2_duration_discrimination,discrim_jsons/Discrim125_randls_7_rotated.json,http://54.235.29.9/FacialAge/BNav_EC2/DepthDuration/v2_depth_discrimination_MTurk/v2_DepthDiscrim_HTML.html#424,424,1229,692,1229,692,9-6-2022,13-7-46,28,depth_discrimination_stimuli/002875_2014-06-01_15-19-00_094959634447_rgbf000151-resize_1/002875_2014-06-01_15-19-00_094959634447_rgbf000151-resize_1-target.png,depth_discrimination_stimuli/001011_2014-06-08_23-18-54_260595134347_rgbf000044-resize_4/001011_2014-06-08_23-18-54_260595134347_rgbf000044-resize_4-target.png,125.0,1.9675,2.4730000000000003,0.0,1248,1015,119,993,136,488,,560556,38,Woman
28,476415,DepthScenes,v2_duration_discrimination,discrim_jsons/Discrim125_randls_7_rotated.json,http://54.235.29.9/FacialAge/BNav_EC2/DepthDuration/v2_depth_discrimination_MTurk/v2_DepthDiscrim_HTML.html#424,424,1229,692,1229,692,9-6-2022,13-7-46,29,depth_discrimination_stimuli/002103_2014-06-25_20-00-40_260595134347_rgbf000049-resize_0/002103_2014-06-25_20-00-40_260595134347_rgbf000049-resize_0-target.png,depth_discrimination_stimuli/002039_2014-06-24_20-22-38_260595134347_rgbf000084-resize_1/002039_2014-06-24_20-22-38_260595134347_rgbf000084-resize_1-target.png,125.0,4.105,4.408,0.0,1161,1013,125,994,131,498,,560556,38,Woman
29,476415,DepthScenes,v2_duration_discrimination,discrim_jsons/Discrim125_randls_7_rotated.json,http://54.235.29.9/FacialAge/BNav_EC2/DepthDuration/v2_depth_discrimination_MTurk/v2_DepthDiscrim_HTML.html#424,424,1229,692,1229,692,9-6-2022,13-7-46,30,depth_discrimination_stimuli/001235_2014-06-17_16-37-36_260595134347_rgbf000084-resize_4/001235_2014-06-17_16-37-36_260595134347_rgbf000084-resize_4-target.png,depth_discrimination_stimuli/000788_2014-06-08_22-34-36_260595134347_rgbf000131-resize_1/000788_2014-06-08_22-34-36_260595134347_rgbf000131-resize_1-target.png,125.0,3.6605,3.359,1.0,1406,1005,122,1002,121,499,,560556,38,Woman
30,476415,DepthScenes,v2_duration_discrimination,discrim_jsons/Discrim125_randls_7_rotated.json,http://54.235.29.9/FacialAge/BNav_EC2/DepthDuration/v2_depth_discrimination_MTurk/v2_DepthDiscrim_HTML.html#424,424,1229,692,1229,692,9-6-2022,13-7-46,31,depth_discrimination_stimuli/003587_2014-05-23_16-48-02_094959634447_rgbf002384-resize_2/003587_2014-05-23_16-48-02_094959634447_rgbf002384-resize_2-target.png,depth_discrimination_stimuli/001167_2014-06-17_15-38-07_260595134347_rgbf000108-resize_0/001167_2014-06-17_15-38-07_260595134347_rgbf000108-resize_0-target.png,125.0,1.357,1.8505,1.0,2280,1008,130,1016,100,499,,560556,38,Woman
31,476415,DepthScenes,v2_duration_discrimination,discrim_jsons/Discrim125_randls_7_rotated.json,http://54.235.29.9/FacialAge/BNav_EC2/DepthDuration/v2_depth_discrimination_MTurk/v2_DepthDiscrim_HTML.html#424,424,1229,692,1229,692,9-6-2022,13-7-46,32,depth_discrimination_stimuli/000749_2014-06-08_21-55-06_260595134347_rgbf000070-resize_2/000749_2014-06-08_21-55-06_260595134347_rgbf000070-resize_2-target.png,depth_discrimination_stimuli/002788_2014-06-22_19-36-03_094959634447_rgbf000088-resize_2/002788_2014-06-22_19-36-03_094959634447_rgbf000088-resize_2-target.png,125.0,2.331,1.6465,0.0,1022,1004,136,995,127,497,,560556,38,Woman
32,476415,DepthScenes,v2_duration_discrimination,discrim_jsons/Discrim125_randls_7_rotated.json,http://54.235.29.9/FacialAge/BNav_EC2/DepthDuration/v2_depth_discrimination_MTurk/v2_DepthDiscrim_HTML.html#424,424,1229,692,1229,692,9-6-2022,13-7-46,33,depth_discrimination_stimuli/001584_2014-06-20_11-07-43_260595134347_rgbf000002-resize_1/001584_2014-06-20_11-07-43_260595134347_rgbf000002-resize_1-target.png,depth_discrimination_stimuli/003621_2014-05-23_18-06-08_094959634447_rgbf000101-resize_1/003621_2014-05-23_18-06-08_094959634447_rgbf000101-resize_1-target.png,125.0,3.53,3.9835,0.0,1311,1012,121,990,132,499,,560556,38,Woman
33,476415,DepthScenes,v2_duration_discrimination,discrim_jsons/Discrim125_randls_7_rotated.json,http://54.235.29.9/FacialAge/BNav_EC2/DepthDuration/v2_depth_discrimination_MTurk/v2_DepthDiscrim_HTML.html#424,424,1229,692,1229,692,9-6-2022,13-7-46,34,depth_discrimination_stimuli/002136_2014-06-25_21-18-03_260595134347_rgbf000109-resize_3/002136_2014-06-25_21-18-03_260595134347_rgbf000109-resize_3-target.png,depth_discrimination_stimuli/002964_2014-06-08_17-46-11_094959634447_rgbf000091-resize_4/002964_2014-06-08_17-46-11_094959634447_rgbf000091-resize_4-target.png,125.0,1.9569999999999999,1.6909999999999998,3.0,3674,1008,122,999,125,498,,560556,38,Woman
34,476415,DepthScenes,v2_duration_discrimination,discrim_jsons/Discrim125_randls_7_rotated.json,http://54.235.29.9/FacialAge/BNav_EC2/DepthDuration/v2_depth_discrimination_MTurk/v2_DepthDiscrim_HTML.html#424,424,1229,692,1229,692,9-6-2022,13-7-46,35,depth_discrimination_stimuli/001540_2014-06-20_17-01-05_260595134347_rgbf000086-resize_2/001540_2014-06-20_17-01-05_260595134347_rgbf000086-resize_2-target.png,depth_discrimination_stimuli/001540_2014-06-20_17-01-05_260595134347_rgbf000086-resize_2/001540_2014-06-20_17-01-05_260595134347_rgbf000086-resize_2-target.png,125.0,1.459,1.459,3.0,927,1003,123,1013,118,497,,560556,38,Woman
35,476415,DepthScenes,v2_duration_discrimination,discrim_jsons/Discrim125_randls_7_rotated.json,http://54.235.29.9/FacialAge/BNav_EC2/DepthDuration/v2_depth_discrimination_MTurk/v2_DepthDiscrim_HTML.html#424,424,1229,692,1229,692,9-6-2022,13-7-46,36,depth_discrimination_stimuli/002340_2014-06-28_20-05-46_260595134347_rgbf000113-resize_0/002340_2014-06-28_20-05-46_260595134347_rgbf000113-resize_0-target.png,depth_discrimination_stimuli/001016_2014-06-09_16-16-10_260595134347_rgbf000112-resize_5/001016_2014-06-09_16-16-10_260595134347_rgbf000112-resize_5-target.png,125.0,2.4735,1.6565,1.0,949,1007,134,990,133,499,,560556,38,Woman
36,476415,DepthScenes,v2_duration_discrimination,discrim_jsons/Discrim125_randls_7_rotated.json,http://54.235.29.9/FacialAge/BNav_EC2/DepthDuration/v2_depth_discrimination_MTurk/v2_DepthDiscrim_HTML.html#424,424,1229,692,1229,692,9-6-2022,13-7-46,37,depth_discrimination_stimuli/003129_2014-05-12_10-48-10_094959634447_rgbf000100-resize_0/003129_2014-05-12_10-48-10_094959634447_rgbf000100-resize_0-target.png,depth_discrimination_stimuli/000414_2014-06-04_19-49-13_260595134347_rgbf000044-resize_0/000414_2014-06-04_19-49-13_260595134347_rgbf000044-resize_0-target.png,125.0,4.9305,4.329,0.0,1214,1017,120,1000,113,509,,560556,38,Woman
37,476415,DepthScenes,v2_duration_discrimination,discrim_jsons/Discrim125_randls_7_rotated.json,http://54.235.29.9/FacialAge/BNav_EC2/DepthDuration/v2_depth_discrimination_MTurk/v2_DepthDiscrim_HTML.html#424,424,1229,692,1229,692,9-6-2022,13-7-46,38,depth_discrimination_stimuli/001132_2014-06-17_14-48-54_260595134347_rgbf000100-resize_2/001132_2014-06-17_14-48-54_260595134347_rgbf000100-resize_2-target.png,depth_discrimination_stimuli/001133_2014-06-17_14-49-16_260595134347_rgbf000100-resize_0/001133_2014-06-17_14-49-16_260595134347_rgbf000100-resize_0-target.png,125.0,3.753,4.2115,0.0,1333,1006,132,998,112,507,,560556,38,Woman
38,476415,DepthScenes,v2_duration_discrimination,discrim_jsons/Discrim125_randls_7_rotated.json,http://54.235.29.9/FacialAge/BNav_EC2/DepthDuration/v2_depth_discrimination_MTurk/v2_DepthDiscrim_HTML.html#424,424,1229,692,1229,692,9-6-2022,13-7-46,39,depth_discrimination_stimuli/001214_2014-06-17_16-13-55_260595134347_rgbf000111-resize_0/001214_2014-06-17_16-13-55_260595134347_rgbf000111-resize_0-target.png,depth_discrimination_stimuli/000810_2014-06-08_17-20-01_260595134347_rgbf000105-resize_0/000810_2014-06-08_17-20-01_260595134347_rgbf000105-resize_0-target.png,125.0,2.6505,1.4865,1.0,1224,1008,120,1013,119,500,,560556,38,Woman
39,476415,DepthScenes,v2_duration_discrimination,discrim_jsons/Discrim125_randls_7_rotated.json,http://54.235.29.9/FacialAge/BNav_EC2/DepthDuration/v2_depth_discrimination_MTurk/v2_DepthDiscrim_HTML.html#424,424,1229,692,1229,692,9-6-2022,13-7-46,40,depth_discrimination_stimuli/002758_2014-06-22_19-11-20_094959634447_rgbf000128-resize_1/002758_2014-06-22_19-11-20_094959634447_rgbf000128-resize_1-target.png,depth_discrimination_stimuli/002630_2014-06-24_14-47-50_094959634447_rgbf000055-resize_1/002630_2014-06-24_14-47-50_094959634447_rgbf000055-resize_1-target.png,125.0,2.555,3.0095,0.0,1224,1016,111,1013,117,493,,560556,38,Woman
40,476415,DepthScenes,v2_duration_discrimination,discrim_jsons/Discrim125_randls_7_rotated.json,http://54.235.29.9/FacialAge/BNav_EC2/DepthDuration/v2_depth_discrimination_MTurk/v2_DepthDiscrim_HTML.html#424,424,1229,692,1229,692,9-6-2022,13-7-46,41,depth_discrimination_stimuli/000457_2014-06-08_16-52-43_260595134347_rgbf000199-resize_1/000457_2014-06-08_16-52-43_260595134347_rgbf000199-resize_1-target.png,depth_discrimination_stimuli/000929_2014-06-09_16-33-19_260595134347_rgbf000139-resize_0/000929_2014-06-09_16-33-19_260595134347_rgbf000139-resize_0-target.png,125.0,3.6489999999999996,2.8680000000000003,1.0,1394,1009,123,1004,120,499,,560556,38,Woman
41,476415,DepthScenes,v2_duration_discrimination,discrim_jsons/Discrim125_randls_7_rotated.json,http://54.235.29.9/FacialAge/BNav_EC2/DepthDuration/v2_depth_discrimination_MTurk/v2_DepthDiscrim_HTML.html#424,424,1229,692,1229,692,9-6-2022,13-7-46,42,depth_discrimination_stimuli/002568_2014-06-24_13-59-21_094959634447_rgbf000062-resize_4/002568_2014-06-24_13-59-21_094959634447_rgbf000062-resize_4-target.png,depth_discrimination_stimuli/003492_2014-05-21_15-50-55_094959634447_rgbf000828-resize_1/003492_2014-05-21_15-50-55_094959634447_rgbf000828-resize_1-target.png,125.0,3.015,4.06875,0.0,978,1005,128,1003,119,496,,560556,38,Woman
42,476415,DepthScenes,v2_duration_discrimination,discrim_jsons/Discrim125_randls_7_rotated.json,http://54.235.29.9/FacialAge/BNav_EC2/DepthDuration/v2_depth_discrimination_MTurk/v2_DepthDiscrim_HTML.html#424,424,1229,692,1229,692,9-6-2022,13-7-46,43,depth_discrimination_stimuli/002660_2014-06-13_15-44-18_094959634447_rgbf001878-resize_2/002660_2014-06-13_15-44-18_094959634447_rgbf001878-resize_2-target.png,depth_discrimination_stimuli/002153_2014-06-25_21-27-18_260595134347_rgbf000038-resize_5/002153_2014-06-25_21-27-18_260595134347_rgbf000038-resize_5-target.png,125.0,3.576,2.505,1.0,1052,1016,118,1004,109,506,,560556,38,Woman
43,476415,DepthScenes,v2_duration_discrimination,discrim_jsons/Discrim125_randls_7_rotated.json,http://54.235.29.9/FacialAge/BNav_EC2/DepthDuration/v2_depth_discrimination_MTurk/v2_DepthDiscrim_HTML.html#424,424,1229,692,1229,692,9-6-2022,13-7-46,44,depth_discrimination_stimuli/002750_2014-06-22_19-08-03_094959634447_rgbf000094-resize_4/002750_2014-06-22_19-08-03_094959634447_rgbf000094-resize_4-target.png,depth_discrimination_stimuli/002549_2014-06-24_13-41-39_094959634447_rgbf000022-resize_3/002549_2014-06-24_13-41-39_094959634447_rgbf000022-resize_3-target.png,125.0,2.354,1.476,1.0,989,1002,138,998,111,500,,560556,38,Woman
44,476415,DepthScenes,v2_duration_discrimination,discrim_jsons/Discrim125_randls_7_rotated.json,http://54.235.29.9/FacialAge/BNav_EC2/DepthDuration/v2_depth_discrimination_MTurk/v2_DepthDiscrim_HTML.html#424,424,1229,692,1229,692,9-6-2022,13-7-46,45,depth_discrimination_stimuli/002209_2014-06-28_18-36-10_260595134347_rgbf000051-resize_1/002209_2014-06-28_18-36-10_260595134347_rgbf000051-resize_1-target.png,depth_discrimination_stimuli/002763_2014-06-22_19-13-10_094959634447_rgbf000075-resize_4/002763_2014-06-22_19-13-10_094959634447_rgbf000075-resize_4-target.png,125.0,2.057,1.68375,1.0,960,1003,135,1001,111,511,,560556,38,Woman
45,476415,DepthScenes,v2_duration_discrimination,discrim_jsons/Discrim125_randls_7_rotated.json,http://54.235.29.9/FacialAge/BNav_EC2/DepthDuration/v2_depth_discrimination_MTurk/v2_DepthDiscrim_HTML.html#424,424,1229,692,1229,692,9-6-2022,13-7-46,46,depth_discrimination_stimuli/003083_2014-06-15_15-21-03_094959634447_rgbf000063-resize_1/003083_2014-06-15_15-21-03_094959634447_rgbf000063-resize_1-target.png,depth_discrimination_stimuli/000486_2014-06-09_20-47-20_260595134347_rgbf000143-resize_2/000486_2014-06-09_20-47-20_260595134347_rgbf000143-resize_2-target.png,125.0,4.1405,4.8325,0.0,1253,1003,136,988,124,506,,560556,38,Woman
46,476415,DepthScenes,v2_duration_discrimination,discrim_jsons/Discrim125_randls_7_rotated.json,http://54.235.29.9/FacialAge/BNav_EC2/DepthDuration/v2_depth_discrimination_MTurk/v2_DepthDiscrim_HTML.html#424,424,1229,692,1229,692,9-6-2022,13-7-46,47,depth_discrimination_stimuli/000137_2014-05-20_17-04-49_260595134347_rgbf000120-resize_1/000137_2014-05-20_17-04-49_260595134347_rgbf000120-resize_1-target.png,depth_discrimination_stimuli/000736_2014-06-08_18-24-15_260595134347_rgbf000206-resize_3/000736_2014-06-08_18-24-15_260595134347_rgbf000206-resize_3-target.png,125.0,3.786,3.515,1.0,973,1006,123,998,132,500,,560556,38,Woman
47,476415,DepthScenes,v2_duration_discrimination,discrim_jsons/Discrim125_randls_7_rotated.json,http://54.235.29.9/FacialAge/BNav_EC2/DepthDuration/v2_depth_discrimination_MTurk/v2_DepthDiscrim_HTML.html#424,424,1229,692,1229,692,9-6-2022,13-7-46,48,depth_discrimination_stimuli/000635_2014-06-08_16-38-42_260595134347_rgbf000106-resize_1/000635_2014-06-08_16-38-42_260595134347_rgbf000106-resize_1-target.png,depth_discrimination_stimuli/002279_2014-06-28_18-55-32_260595134347_rgbf000040-resize_5/002279_2014-06-28_18-55-32_260595134347_rgbf000040-resize_5-target.png,125.0,2.074,1.5043333333333,1.0,909,1015,110,1013,119,492,,560556,38,Woman
48,476415,DepthScenes,v2_duration_discrimination,discrim_jsons/Discrim125_randls_7_rotated.json,http://54.235.29.9/FacialAge/BNav_EC2/DepthDuration/v2_depth_discrimination_MTurk/v2_DepthDiscrim_HTML.html#424,424,1229,692,1229,692,9-6-2022,13-7-46,49,depth_discrimination_stimuli/000866_2014-06-09_20-45-42_260595134347_rgbf000139-resize_1/000866_2014-06-09_20-45-42_260595134347_rgbf000139-resize_1-target.png,depth_discrimination_stimuli/002989_2014-06-15_12-25-03_094959634447_rgbf000150-resize_3/002989_2014-06-15_12-25-03_094959634447_rgbf000150-resize_3-target.png,125.0,3.2155,4.1975,2.0,2848,1004,135,995,125,491,,560556,38,Woman
49,476415,DepthScenes,v2_duration_discrimination,discrim_jsons/Discrim125_randls_7_rotated.json,http://54.235.29.9/FacialAge/BNav_EC2/DepthDuration/v2_depth_discrimination_MTurk/v2_DepthDiscrim_HTML.html#424,424,1229,692,1229,692,9-6-2022,13-7-46,50,depth_discrimination_stimuli/002805_2014-06-22_19-54-03_094959634447_rgbf000079-resize_1/002805_2014-06-22_19-54-03_094959634447_rgbf000079-resize_1-target.png,depth_discrimination_stimuli/000906_2014-06-08_13-35-43_260595134347_rgbf000155-resize_1/000906_2014-06-08_13-35-43_260595134347_rgbf000155-resize_1-target.png,125.0,3.1439999999999997,2.8489999999999998,1.0,1553,1003,131,1005,119,500,,560556,38,Woman
50,476415,DepthScenes,v2_duration_discrimination,discrim_jsons/Discrim125_randls_7_rotated.json,http://54.235.29.9/FacialAge/BNav_EC2/DepthDuration/v2_depth_discrimination_MTurk/v2_DepthDiscrim_HTML.html#424,424,1229,692,1229,692,9-6-2022,13-7-46,51,depth_discrimination_stimuli/001052_2014-06-08_18-24-54_260595134347_rgbf000130-resize_1/001052_2014-06-08_18-24-54_260595134347_rgbf000130-resize_1-target.png,depth_discrimination_stimuli/002988_2014-06-15_12-24-20_094959634447_rgbf000150-resize_1/002988_2014-06-15_12-24-20_094959634447_rgbf000150-resize_1-target.png,125.0,4.1045,4.7669999999999995,0.0,1113,1009,124,1012,103,514,,560556,38,Woman
51,476415,DepthScenes,v2_duration_discrimination,discrim_jsons/Discrim125_randls_7_rotated.json,http://54.235.29.9/FacialAge/BNav_EC2/DepthDuration/v2_depth_discrimination_MTurk/v2_DepthDiscrim_HTML.html#424,424,1229,692,1229,692,9-6-2022,13-7-46,52,depth_discrimination_stimuli/001222_2014-06-17_16-24-06_260595134347_rgbf000073-resize_0/001222_2014-06-17_16-24-06_260595134347_rgbf000073-resize_0-target.png,depth_discrimination_stimuli/001222_2014-06-17_16-24-06_260595134347_rgbf000073-resize_0/001222_2014-06-17_16-24-06_260595134347_rgbf000073-resize_0-target.png,125.0,1.4385,1.4385,3.0,946,1008,123,1007,124,488,,560556,38,Woman
52,476415,DepthScenes,v2_duration_discrimination,discrim_jsons/Discrim125_randls_7_rotated.json,http://54.235.29.9/FacialAge/BNav_EC2/DepthDuration/v2_depth_discrimination_MTurk/v2_DepthDiscrim_HTML.html#424,424,1229,692,1229,692,9-6-2022,13-7-46,53,depth_discrimination_stimuli/003228_2014-05-14_13-42-35_094959634447_rgbf000101-resize_1/003228_2014-05-14_13-42-35_094959634447_rgbf000101-resize_1-target.png,depth_discrimination_stimuli/002600_2014-06-24_14-27-04_094959634447_rgbf000074-resize_2/002600_2014-06-24_14-27-04_094959634447_rgbf000074-resize_2-target.png,125.0,1.9680000000000002,2.7575,0.0,1286,1010,121,998,119,516,,560556,38,Woman
53,476415,DepthScenes,v2_duration_discrimination,discrim_jsons/Discrim125_randls_7_rotated.json,http://54.235.29.9/FacialAge/BNav_EC2/DepthDuration/v2_depth_discrimination_MTurk/v2_DepthDiscrim_HTML.html#424,424,1229,692,1229,692,9-6-2022,13-7-46,54,depth_discrimination_stimuli/002953_2014-06-08_17-32-18_094959634447_rgbf000059-resize_5/002953_2014-06-08_17-32-18_094959634447_rgbf000059-resize_5-target.png,depth_discrimination_stimuli/000878_2014-06-08_22-52-45_260595134347_rgbf000045-resize_2/000878_2014-06-08_22-52-45_260595134347_rgbf000045-resize_2-target.png,125.0,1.551,2.092,0.0,1303,1006,122,1008,113,514,,560556,38,Woman
54,476415,DepthScenes,v2_duration_discrimination,discrim_jsons/Discrim125_randls_7_rotated.json,http://54.235.29.9/FacialAge/BNav_EC2/DepthDuration/v2_depth_discrimination_MTurk/v2_DepthDiscrim_HTML.html#424,424,1229,692,1229,692,9-6-2022,13-7-46,55,depth_discrimination_stimuli/000109_2014-05-14_23-41-52_260595134347_rgbf000035-resize_9/000109_2014-05-14_23-41-52_260595134347_rgbf000035-resize_9-target.png,depth_discrimination_stimuli/000470_2014-06-09_19-42-40_260595134347_rgbf000094-resize_1/000470_2014-06-09_19-42-40_260595134347_rgbf000094-resize_1-target.png,125.0,1.3545,1.831,0.0,1089,1006,130,999,121,499,,560556,38,Woman
55,476415,DepthScenes,v2_duration_discrimination,discrim_jsons/Discrim125_randls_7_rotated.json,http://54.235.29.9/FacialAge/BNav_EC2/DepthDuration/v2_depth_discrimination_MTurk/v2_DepthDiscrim_HTML.html#424,424,1229,692,1229,692,9-6-2022,13-7-46,56,depth_discrimination_stimuli/000556_2014-06-09_22-42-56_260595134347_rgbf000214-resize_1/000556_2014-06-09_22-42-56_260595134347_rgbf000214-resize_1-target.png,depth_discrimination_stimuli/001158_2014-06-17_15-32-16_260595134347_rgbf000138-resize_2/001158_2014-06-17_15-32-16_260595134347_rgbf000138-resize_2-target.png,125.0,4.8415,4.5315,0.0,1846,1017,118,993,130,495,,560556,38,Woman
56,476415,DepthScenes,v2_duration_discrimination,discrim_jsons/Discrim125_randls_7_rotated.json,http://54.235.29.9/FacialAge/BNav_EC2/DepthDuration/v2_depth_discrimination_MTurk/v2_DepthDiscrim_HTML.html#424,424,1229,692,1229,692,9-6-2022,13-7-46,57,depth_discrimination_stimuli/003490_2014-05-21_15-50-11_094959634447_rgbf000101-resize_3/003490_2014-05-21_15-50-11_094959634447_rgbf000101-resize_3-target.png,depth_discrimination_stimuli/001175_2014-06-17_15-45-55_260595134347_rgbf000129-resize_4/001175_2014-06-17_15-45-55_260595134347_rgbf000129-resize_4-target.png,125.0,3.6445,4.255,0.0,1066,1008,126,992,138,493,,560556,38,Woman
57,476415,DepthScenes,v2_duration_discrimination,discrim_jsons/Discrim125_randls_7_rotated.json,http://54.235.29.9/FacialAge/BNav_EC2/DepthDuration/v2_depth_discrimination_MTurk/v2_DepthDiscrim_HTML.html#424,424,1229,692,1229,692,9-6-2022,13-7-46,58,depth_discrimination_stimuli/002545_2014-06-24_13-38-53_094959634447_rgbf000080-resize_4/002545_2014-06-24_13-38-53_094959634447_rgbf000080-resize_4-target.png,depth_discrimination_stimuli/001092_2014-06-15_17-34-58_260595134347_rgbf000171-resize_3/001092_2014-06-15_17-34-58_260595134347_rgbf000171-resize_3-target.png,125.0,1.9205,2.6935,1.0,946,1006,132,990,127,494,,560556,38,Woman
58,476415,DepthScenes,v2_duration_discrimination,discrim_jsons/Discrim125_randls_7_rotated.json,http://54.235.29.9/FacialAge/BNav_EC2/DepthDuration/v2_depth_discrimination_MTurk/v2_DepthDiscrim_HTML.html#424,424,1229,692,1229,692,9-6-2022,13-7-46,59,depth_discrimination_stimuli/000691_2014-06-08_13-08-50_260595134347_rgbf000132-resize_3/000691_2014-06-08_13-08-50_260595134347_rgbf000132-resize_3-target.png,depth_discrimination_stimuli/002213_2014-06-28_18-37-58_260595134347_rgbf000055-resize_1/002213_2014-06-28_18-37-58_260595134347_rgbf000055-resize_1-target.png,125.0,4.1530000000000005,3.62,0.0,1100,1011,118,999,120,503,,560556,38,Woman
59,476415,DepthScenes,v2_duration_discrimination,discrim_jsons/Discrim125_randls_7_rotated.json,http://54.235.29.9/FacialAge/BNav_EC2/DepthDuration/v2_depth_discrimination_MTurk/v2_DepthDiscrim_HTML.html#424,424,1229,692,1229,692,9-6-2022,13-7-46,60,depth_discrimination_stimuli/001447_2014-06-19_17-00-32_260595134347_rgbf000082-resize_5/001447_2014-06-19_17-00-32_260595134347_rgbf000082-resize_5-target.png,depth_discrimination_stimuli/000447_2014-06-08_16-15-46_260595134347_rgbf000130-resize_1/000447_2014-06-08_16-15-46_260595134347_rgbf000130-resize_1-target.png,125.0,4.13775,4.479,0.0,1089,1009,124,1005,112,506,,560556,38,Woman
60,476415,DepthScenes,v2_duration_discrimination,discrim_jsons/Discrim125_randls_7_rotated.json,http://54.235.29.9/FacialAge/BNav_EC2/DepthDuration/v2_depth_discrimination_MTurk/v2_DepthDiscrim_HTML.html#424,424,1229,692,1229,692,9-6-2022,13-7-46,61,depth_discrimination_stimuli/000677_2014-06-08_23-10-32_260595134347_rgbf000158-resize_6/000677_2014-06-08_23-10-32_260595134347_rgbf000158-resize_6-target.png,depth_discrimination_stimuli/001029_2014-06-08_13-17-57_260595134347_rgbf000065-resize_1/001029_2014-06-08_13-17-57_260595134347_rgbf000065-resize_1-target.png,125.0,3.556,3.0835,1.0,890,1016,113,1008,115,511,,560556,38,Woman
61,476415,DepthScenes,v2_duration_discrimination,discrim_jsons/Discrim125_randls_7_rotated.json,http://54.235.29.9/FacialAge/BNav_EC2/DepthDuration/v2_depth_discrimination_MTurk/v2_DepthDiscrim_HTML.html#424,424,1229,692,1229,692,9-6-2022,13-7-46,62,depth_discrimination_stimuli/002444_2014-06-28_20-32-08_260595134347_rgbf000027-resize_0/002444_2014-06-28_20-32-08_260595134347_rgbf000027-resize_0-target.png,depth_discrimination_stimuli/000436_2014-06-09_22-25-11_260595134347_rgbf000137-resize_1/000436_2014-06-09_22-25-11_260595134347_rgbf000137-resize_1-target.png,125.0,4.388999999999999,4.0705,3.0,1734,1007,117,1010,124,506,,560556,38,Woman
62,476415,DepthScenes,v2_duration_discrimination,discrim_jsons/Discrim125_randls_7_rotated.json,http://54.235.29.9/FacialAge/BNav_EC2/DepthDuration/v2_depth_discrimination_MTurk/v2_DepthDiscrim_HTML.html#424,424,1229,692,1229,692,9-6-2022,13-7-46,63,depth_discrimination_stimuli/000787_2014-06-08_22-33-53_260595134347_rgbf000175-resize_1/000787_2014-06-08_22-33-53_260595134347_rgbf000175-resize_1-target.png,depth_discrimination_stimuli/000787_2014-06-08_22-33-53_260595134347_rgbf000175-resize_1/000787_2014-06-08_22-33-53_260595134347_rgbf000175-resize_1-target.png,125.0,4.784,4.784,3.0,892,1004,136,997,124,501,,560556,38,Woman
63,476415,DepthScenes,v2_duration_discrimination,discrim_jsons/Discrim125_randls_7_rotated.json,http://54.235.29.9/FacialAge/BNav_EC2/DepthDuration/v2_depth_discrimination_MTurk/v2_DepthDiscrim_HTML.html#424,424,1229,692,1229,692,9-6-2022,13-7-46,64,depth_discrimination_stimuli/003495_2014-05-21_16-01-51_094959634447_rgbf000100-resize_3/003495_2014-05-21_16-01-51_094959634447_rgbf000100-resize_3-target.png,depth_discrimination_stimuli/001244_2014-06-17_16-47-45_260595134347_rgbf000030-resize_4/001244_2014-06-17_16-47-45_260595134347_rgbf000030-resize_4-target.png,125.0,1.6255,2.0425,1.0,1537,1004,134,1000,118,498,,560556,38,Woman
64,476415,DepthScenes,v2_duration_discrimination,discrim_jsons/Discrim125_randls_7_rotated.json,http://54.235.29.9/FacialAge/BNav_EC2/DepthDuration/v2_depth_discrimination_MTurk/v2_DepthDiscrim_HTML.html#424,424,1229,692,1229,692,9-6-2022,13-7-46,65,depth_discrimination_stimuli/000854_2014-06-09_19-43-13_260595134347_rgbf000066-resize_0/000854_2014-06-09_19-43-13_260595134347_rgbf000066-resize_0-target.png,depth_discrimination_stimuli/000758_2014-06-08_22-05-08_260595134347_rgbf000085-resize_0/000758_2014-06-08_22-05-08_260595134347_rgbf000085-resize_0-target.png,125.0,3.068,3.3810000000000002,0.0,1177,1016,117,996,131,492,,560556,38,Woman
65,476415,DepthScenes,v2_duration_discrimination,discrim_jsons/Discrim125_randls_7_rotated.json,http://54.235.29.9/FacialAge/BNav_EC2/DepthDuration/v2_depth_discrimination_MTurk/v2_DepthDiscrim_HTML.html#424,424,1229,692,1229,692,9-6-2022,13-7-46,66,depth_discrimination_stimuli/002995_2014-06-15_12-31-26_094959634447_rgbf000150-resize_1/002995_2014-06-15_12-31-26_094959634447_rgbf000150-resize_1-target.png,depth_discrimination_stimuli/002748_2014-06-22_19-07-22_094959634447_rgbf000078-resize_1/002748_2014-06-22_19-07-22_094959634447_rgbf000078-resize_1-target.png,125.0,3.8360000000000003,4.6705,0.0,1153,1012,127,995,120,502,,560556,38,Woman
66,476415,DepthScenes,v2_duration_discrimination,discrim_jsons/Discrim125_randls_7_rotated.json,http://54.235.29.9/FacialAge/BNav_EC2/DepthDuration/v2_depth_discrimination_MTurk/v2_DepthDiscrim_HTML.html#424,424,1229,692,1229,692,9-6-2022,13-7-46,67,depth_discrimination_stimuli/002949_2014-06-26_15-57-42_094959634447_rgbf000079-resize_1/002949_2014-06-26_15-57-42_094959634447_rgbf000079-resize_1-target.png,depth_discrimination_stimuli/000522_2014-06-08_13-35-06_260595134347_rgbf000244-resize_1/000522_2014-06-08_13-35-06_260595134347_rgbf000244-resize_1-target.png,125.0,1.8915,2.3715,1.0,926,1009,125,1006,115,508,,560556,38,Woman
67,476415,DepthScenes,v2_duration_discrimination,discrim_jsons/Discrim125_randls_7_rotated.json,http://54.235.29.9/FacialAge/BNav_EC2/DepthDuration/v2_depth_discrimination_MTurk/v2_DepthDiscrim_HTML.html#424,424,1229,692,1229,692,9-6-2022,13-7-46,68,depth_discrimination_stimuli/002467_2014-06-28_20-38-07_260595134347_rgbf000026-resize_2/002467_2014-06-28_20-38-07_260595134347_rgbf000026-resize_2-target.png,depth_discrimination_stimuli/002570_2014-06-24_13-59-54_094959634447_rgbf000059-resize_0/002570_2014-06-24_13-59-54_094959634447_rgbf000059-resize_0-target.png,125.0,4.742,4.037,1.0,1043,1009,127,989,130,503,,560556,38,Woman
68,476415,DepthScenes,v2_duration_discrimination,discrim_jsons/Discrim125_randls_7_rotated.json,http://54.235.29.9/FacialAge/BNav_EC2/DepthDuration/v2_depth_discrimination_MTurk/v2_DepthDiscrim_HTML.html#424,424,1229,692,1229,692,9-6-2022,13-7-46,69,depth_discrimination_stimuli/001094_2014-06-15_17-36-00_260595134347_rgbf000205-resize_0/001094_2014-06-15_17-36-00_260595134347_rgbf000205-resize_0-target.png,depth_discrimination_stimuli/000692_2014-06-08_13-09-42_260595134347_rgbf000199-resize_2/000692_2014-06-08_13-09-42_260595134347_rgbf000199-resize_2-target.png,125.0,4.2175,3.661,0.0,1395,1015,123,993,130,498,,560556,38,Woman
69,476415,DepthScenes,v2_duration_discrimination,discrim_jsons/Discrim125_randls_7_rotated.json,http://54.235.29.9/FacialAge/BNav_EC2/DepthDuration/v2_depth_discrimination_MTurk/v2_DepthDiscrim_HTML.html#424,424,1229,692,1229,692,9-6-2022,13-7-46,70,depth_discrimination_stimuli/001100_2014-06-15_17-46-26_260595134347_rgbf000225-resize_2/001100_2014-06-15_17-46-26_260595134347_rgbf000225-resize_2-target.png,depth_discrimination_stimuli/002784_2014-06-22_19-26-30_094959634447_rgbf000083-resize_3/002784_2014-06-22_19-26-30_094959634447_rgbf000083-resize_3-target.png,125.0,2.24,1.8046666666667,1.0,912,1013,121,993,138,501,,560556,38,Woman
70,476415,DepthScenes,v2_duration_discrimination,discrim_jsons/Discrim125_randls_7_rotated.json,http://54.235.29.9/FacialAge/BNav_EC2/DepthDuration/v2_depth_discrimination_MTurk/v2_DepthDiscrim_HTML.html#424,424,1229,692,1229,692,9-6-2022,13-7-46,71,depth_discrimination_stimuli/000375_2014-06-08_11-17-29_260595134347_rgbf000133-resize_2/000375_2014-06-08_11-17-29_260595134347_rgbf000133-resize_2-target.png,depth_discrimination_stimuli/000375_2014-06-08_11-17-29_260595134347_rgbf000133-resize_2/000375_2014-06-08_11-17-29_260595134347_rgbf000133-resize_2-target.png,125.0,4.718,4.718,3.0,793,1016,114,1006,122,493,,560556,38,Woman
71,476415,DepthScenes,v2_duration_discrimination,discrim_jsons/Discrim125_randls_7_rotated.json,http://54.235.29.9/FacialAge/BNav_EC2/DepthDuration/v2_depth_discrimination_MTurk/v2_DepthDiscrim_HTML.html#424,424,1229,692,1229,692,9-6-2022,13-7-46,72,depth_discrimination_stimuli/001571_2014-06-20_17-21-32_260595134347_rgbf000089-resize_1/001571_2014-06-20_17-21-32_260595134347_rgbf000089-resize_1-target.png,depth_discrimination_stimuli/002272_2014-06-28_18-53-56_260595134347_rgbf000067-resize_2/002272_2014-06-28_18-53-56_260595134347_rgbf000067-resize_2-target.png,125.0,1.86,1.138,1.0,958,1017,120,990,125,507,,560556,38,Woman
72,476415,DepthScenes,v2_duration_discrimination,discrim_jsons/Discrim125_randls_7_rotated.json,http://54.235.29.9/FacialAge/BNav_EC2/DepthDuration/v2_depth_discrimination_MTurk/v2_DepthDiscrim_HTML.html#424,424,1229,692,1229,692,9-6-2022,13-7-46,73,depth_discrimination_stimuli/002678_2014-06-13_16-15-32_094959634447_rgbf000151-resize_6/002678_2014-06-13_16-15-32_094959634447_rgbf000151-resize_6-target.png,depth_discrimination_stimuli/000368_2014-06-09_15-53-01_260595134347_rgbf000155-resize_2/000368_2014-06-09_15-53-01_260595134347_rgbf000155-resize_2-target.png,125.0,2.1830000000000003,2.4859999999999998,1.0,981,1014,121,1000,129,493,,560556,38,Woman
73,476415,DepthScenes,v2_duration_discrimination,discrim_jsons/Discrim125_randls_7_rotated.json,http://54.235.29.9/FacialAge/BNav_EC2/DepthDuration/v2_depth_discrimination_MTurk/v2_DepthDiscrim_HTML.html#424,424,1229,692,1229,692,9-6-2022,13-7-46,74,depth_discrimination_stimuli/002199_2014-06-28_18-33-56_260595134347_rgbf000074-resize_0/002199_2014-06-28_18-33-56_260595134347_rgbf000074-resize_0-target.png,depth_discrimination_stimuli/001056_2014-06-08_18-46-44_260595134347_rgbf000068-resize_0/001056_2014-06-08_18-46-44_260595134347_rgbf000068-resize_0-target.png,125.0,1.996,2.6625,0.0,1465,1015,117,1001,123,503,,560556,38,Woman
74,476415,DepthScenes,v2_duration_discrimination,discrim_jsons/Discrim125_randls_7_rotated.json,http://54.235.29.9/FacialAge/BNav_EC2/DepthDuration/v2_depth_discrimination_MTurk/v2_DepthDiscrim_HTML.html#424,424,1229,692,1229,692,9-6-2022,13-7-46,75,depth_discrimination_stimuli/002425_2014-06-28_20-27-29_260595134347_rgbf000031-resize_8/002425_2014-06-28_20-27-29_260595134347_rgbf000031-resize_8-target.png,depth_discrimination_stimuli/000642_2014-06-08_16-59-25_260595134347_rgbf000098-resize_2/000642_2014-06-08_16-59-25_260595134347_rgbf000098-resize_2-target.png,125.0,3.8960000000000004,2.8815,1.0,1154,1002,137,988,128,506,,560556,38,Woman
75,476415,DepthScenes,v2_duration_discrimination,discrim_jsons/Discrim125_randls_7_rotated.json,http://54.235.29.9/FacialAge/BNav_EC2/DepthDuration/v2_depth_discrimination_MTurk/v2_DepthDiscrim_HTML.html#424,424,1229,692,1229,692,9-6-2022,13-7-46,76,depth_discrimination_stimuli/000734_2014-06-08_17-39-11_260595134347_rgbf000128-resize_2/000734_2014-06-08_17-39-11_260595134347_rgbf000128-resize_2-target.png,depth_discrimination_stimuli/000739_2014-06-08_18-45-58_260595134347_rgbf000068-resize_1/000739_2014-06-08_18-45-58_260595134347_rgbf000068-resize_1-target.png,125.0,4.098,3.534,0.0,1138,1005,128,993,135,500,,560556,38,Woman
76,476415,DepthScenes,v2_duration_discrimination,discrim_jsons/Discrim125_randls_7_rotated.json,http://54.235.29.9/FacialAge/BNav_EC2/DepthDuration/v2_depth_discrimination_MTurk/v2_DepthDiscrim_HTML.html#424,424,1229,692,1229,692,9-6-2022,13-7-46,77,depth_discrimination_stimuli/001815_2014-06-26_20-52-55_260595134347_rgbf000020-resize_0/001815_2014-06-26_20-52-55_260595134347_rgbf000020-resize_0-target.png,depth_discrimination_stimuli/001808_2014-06-26_20-50-58_260595134347_rgbf000029-resize_1/001808_2014-06-26_20-50-58_260595134347_rgbf000029-resize_1-target.png,125.0,3.3865,4.249,0.0,2602,1013,128,989,122,511,,560556,38,Woman
77,476415,DepthScenes,v2_duration_discrimination,discrim_jsons/Discrim125_randls_7_rotated.json,http://54.235.29.9/FacialAge/BNav_EC2/DepthDuration/v2_depth_discrimination_MTurk/v2_DepthDiscrim_HTML.html#424,424,1229,692,1229,692,9-6-2022,13-7-46,78,depth_discrimination_stimuli/002637_2014-06-24_14-51-13_094959634447_rgbf000066-resize_4/002637_2014-06-24_14-51-13_094959634447_rgbf000066-resize_4-target.png,depth_discrimination_stimuli/003534_2014-05-22_15-06-10_094959634447_rgbf000102-resize_4/003534_2014-05-22_15-06-10_094959634447_rgbf000102-resize_4-target.png,125.0,1.9955,1.426,1.0,837,1003,134,999,125,495,,560556,38,Woman
78,476415,DepthScenes,v2_duration_discrimination,discrim_jsons/Discrim125_randls_7_rotated.json,http://54.235.29.9/FacialAge/BNav_EC2/DepthDuration/v2_depth_discrimination_MTurk/v2_DepthDiscrim_HTML.html#424,424,1229,692,1229,692,9-6-2022,13-7-46,79,depth_discrimination_stimuli/003048_2014-06-15_13-49-43_094959634447_rgbf000150-resize_1/003048_2014-06-15_13-49-43_094959634447_rgbf000150-resize_1-target.png,depth_discrimination_stimuli/002043_2014-06-24_20-29-38_260595134347_rgbf000039-resize_4/002043_2014-06-24_20-29-38_260595134347_rgbf000039-resize_4-target.png,125.0,4.0035,2.8435,1.0,1511,1015,116,1006,125,502,,560556,38,Woman
79,476415,DepthScenes,v2_duration_discrimination,discrim_jsons/Discrim125_randls_7_rotated.json,http://54.235.29.9/FacialAge/BNav_EC2/DepthDuration/v2_depth_discrimination_MTurk/v2_DepthDiscrim_HTML.html#424,424,1229,692,1229,692,9-6-2022,13-7-46,80,depth_discrimination_stimuli/000569_2014-06-09_22-51-47_260595134347_rgbf000141-resize_3/000569_2014-06-09_22-51-47_260595134347_rgbf000141-resize_3-target.png,depth_discrimination_stimuli/000569_2014-06-09_22-51-47_260595134347_rgbf000141-resize_3/000569_2014-06-09_22-51-47_260595134347_rgbf000141-resize_3-target.png,125.0,4.512,4.512,3.0,943,1007,123,1008,117,496,,560556,38,Woman
80,476415,DepthScenes,v2_duration_discrimination,discrim_jsons/Discrim125_randls_7_rotated.json,http://54.235.29.9/FacialAge/BNav_EC2/DepthDuration/v2_depth_discrimination_MTurk/v2_DepthDiscrim_HTML.html#424,424,1229,692,1229,692,9-6-2022,13-7-46,81,depth_discrimination_stimuli/001516_2014-06-20_16-25-09_260595134347_rgbf000076-resize_2/001516_2014-06-20_16-25-09_260595134347_rgbf000076-resize_2-target.png,depth_discrimination_stimuli/002118_2014-06-25_20-32-08_260595134347_rgbf000078-resize_1/002118_2014-06-25_20-32-08_260595134347_rgbf000078-resize_1-target.png,125.0,1.7445,2.6460000000000004,0.0,1099,1021,119,985,131,500,,560556,38,Woman
81,476415,DepthScenes,v2_duration_discrimination,discrim_jsons/Discrim125_randls_7_rotated.json,http://54.235.29.9/FacialAge/BNav_EC2/DepthDuration/v2_depth_discrimination_MTurk/v2_DepthDiscrim_HTML.html#424,424,1229,692,1229,692,9-6-2022,13-7-46,82,depth_discrimination_stimuli/001617_2014-06-20_11-35-32_260595134347_rgbf000066-resize_1/001617_2014-06-20_11-35-32_260595134347_rgbf000066-resize_1-target.png,depth_discrimination_stimuli/001806_2014-06-26_20-50-20_260595134347_rgbf000091-resize_1/001806_2014-06-26_20-50-20_260595134347_rgbf000091-resize_1-target.png,125.0,3.7910000000000004,2.7305,1.0,873,1010,122,999,124,503,,560556,38,Woman
82,476415,DepthScenes,v2_duration_discrimination,discrim_jsons/Discrim125_randls_7_rotated.json,http://54.235.29.9/FacialAge/BNav_EC2/DepthDuration/v2_depth_discrimination_MTurk/v2_DepthDiscrim_HTML.html#424,424,1229,692,1229,692,9-6-2022,13-7-46,83,depth_discrimination_stimuli/001032_2014-06-08_13-23-17_260595134347_rgbf000021-resize_3/001032_2014-06-08_13-23-17_260595134347_rgbf000021-resize_3-target.png,depth_discrimination_stimuli/001059_2014-06-08_21-53-27_260595134347_rgbf000061-resize_4/001059_2014-06-08_21-53-27_260595134347_rgbf000061-resize_4-target.png,125.0,3.2725,2.4185,0.0,2086,1003,123,1008,124,504,,560556,38,Woman
83,476415,DepthScenes,v2_duration_discrimination,discrim_jsons/Discrim125_randls_7_rotated.json,http://54.235.29.9/FacialAge/BNav_EC2/DepthDuration/v2_depth_discrimination_MTurk/v2_DepthDiscrim_HTML.html#424,424,1229,692,1229,692,9-6-2022,13-7-46,84,depth_discrimination_stimuli/003010_2014-06-15_12-54-35_094959634447_rgbf000112-resize_0/003010_2014-06-15_12-54-35_094959634447_rgbf000112-resize_0-target.png,depth_discrimination_stimuli/001810_2014-06-26_20-51-35_260595134347_rgbf000040-resize_3/001810_2014-06-26_20-51-35_260595134347_rgbf000040-resize_3-target.png,125.0,3.1185,2.2525,1.0,756,1012,113,1009,127,500,,560556,38,Woman
84,476415,DepthScenes,v2_duration_discrimination,discrim_jsons/Discrim125_randls_7_rotated.json,http://54.235.29.9/FacialAge/BNav_EC2/DepthDuration/v2_depth_discrimination_MTurk/v2_DepthDiscrim_HTML.html#424,424,1229,692,1229,692,9-6-2022,13-7-46,85,depth_discrimination_stimuli/001828_2014-06-26_21-40-03_260595134347_rgbf000024-resize_0/001828_2014-06-26_21-40-03_260595134347_rgbf000024-resize_0-target.png,depth_discrimination_stimuli/000009_2014-05-26_14-32-05_260595134347_rgbf000034-resize_3/000009_2014-05-26_14-32-05_260595134347_rgbf000034-resize_3-target.png,125.0,4.8260000000000005,3.8715,1.0,1301,1007,124,998,132,495,,560556,38,Woman
85,476415,DepthScenes,v2_duration_discrimination,discrim_jsons/Discrim125_randls_7_rotated.json,http://54.235.29.9/FacialAge/BNav_EC2/DepthDuration/v2_depth_discrimination_MTurk/v2_DepthDiscrim_HTML.html#424,424,1229,692,1229,692,9-6-2022,13-7-46,86,depth_discrimination_stimuli/000780_2014-06-08_22-28-29_260595134347_rgbf000126-resize_1/000780_2014-06-08_22-28-29_260595134347_rgbf000126-resize_1-target.png,depth_discrimination_stimuli/002445_2014-06-28_20-32-16_260595134347_rgbf000029-resize_4/002445_2014-06-28_20-32-16_260595134347_rgbf000029-resize_4-target.png,125.0,3.3825,2.5315,1.0,654,1013,119,1008,115,505,,560556,38,Woman
86,476415,DepthScenes,v2_duration_discrimination,discrim_jsons/Discrim125_randls_7_rotated.json,http://54.235.29.9/FacialAge/BNav_EC2/DepthDuration/v2_depth_discrimination_MTurk/v2_DepthDiscrim_HTML.html#424,424,1229,692,1229,692,9-6-2022,13-7-46,86,,,,,,,654,1013,119,1008,115,505,,560556,38,Woman
