,subjID,experimentName,versionName,sequenceName,url,selected_row,windowWidth,windowHeight,screenWidth,screenHeight,startDate,startTime,trial,stimulus_0,stimulus_1,duration,actual_depth_0,actual_depth_1,discrim_choice,trial_RT,log_fixation,log_sceneDuration1,log_mask1,log_sceneDuration2,log_mask2,experimentTime,totalTime,age,gender
0,496800,DepthScenes,v2_duration_discrimination,discrim_jsons/Discrim250_randls_31_rotated.json,http://54.235.29.9/FacialAge/BNav_EC2/DepthDuration/v2_depth_discrimination_MTurk/v2_DepthDiscrim_HTML.html#52,52,1366,649,1366,768,9-21-2022,9-59-20,1,depth_discrimination_stimuli/001136_2014-06-17_15-19-41_260595134347_rgbf000076-resize_3/001136_2014-06-17_15-19-41_260595134347_rgbf000076-resize_3-target.png,depth_discrimination_stimuli/001164_2014-06-17_15-35-46_260595134347_rgbf000085-resize_3/001164_2014-06-17_15-35-46_260595134347_rgbf000085-resize_3-target.png,250.0,1.8655,2.354,0.0,1114,1009,248,1012,237,499,,532577,41,Woman
1,496800,DepthScenes,v2_duration_discrimination,discrim_jsons/Discrim250_randls_31_rotated.json,http://54.235.29.9/FacialAge/BNav_EC2/DepthDuration/v2_depth_discrimination_MTurk/v2_DepthDiscrim_HTML.html#52,52,1366,649,1366,768,9-21-2022,9-59-20,2,depth_discrimination_stimuli/001828_2014-06-26_21-40-03_260595134347_rgbf000024-resize_0/001828_2014-06-26_21-40-03_260595134347_rgbf000024-resize_0-target.png,depth_discrimination_stimuli/000009_2014-05-26_14-32-05_260595134347_rgbf000034-resize_3/000009_2014-05-26_14-32-05_260595134347_rgbf000034-resize_3-target.png,250.0,4.8260000000000005,3.8715,0.0,952,1009,245,999,248,503,,532577,41,Woman
2,496800,DepthScenes,v2_duration_discrimination,discrim_jsons/Discrim250_randls_31_rotated.json,http://54.235.29.9/FacialAge/BNav_EC2/DepthDuration/v2_depth_discrimination_MTurk/v2_DepthDiscrim_HTML.html#52,52,1366,649,1366,768,9-21-2022,9-59-20,3,depth_discrimination_stimuli/002340_2014-06-28_20-05-46_260595134347_rgbf000113-resize_0/002340_2014-06-28_20-05-46_260595134347_rgbf000113-resize_0-target.png,depth_discrimination_stimuli/001016_2014-06-09_16-16-10_260595134347_rgbf000112-resize_5/001016_2014-06-09_16-16-10_260595134347_rgbf000112-resize_5-target.png,250.0,2.4735,1.6565,0.0,966,1012,250,996,249,501,,532577,41,Woman
3,496800,DepthScenes,v2_duration_discrimination,discrim_jsons/Discrim250_randls_31_rotated.json,http://54.235.29.9/FacialAge/BNav_EC2/DepthDuration/v2_depth_discrimination_MTurk/v2_DepthDiscrim_HTML.html#52,52,1366,649,1366,768,9-21-2022,9-59-20,4,depth_discrimination_stimuli/001617_2014-06-20_11-35-32_260595134347_rgbf000066-resize_1/001617_2014-06-20_11-35-32_260595134347_rgbf000066-resize_1-target.png,depth_discrimination_stimuli/001806_2014-06-26_20-50-20_260595134347_rgbf000091-resize_1/001806_2014-06-26_20-50-20_260595134347_rgbf000091-resize_1-target.png,250.0,3.7910000000000004,2.7305,1.0,2647,1015,250,999,241,507,,532577,41,Woman
4,496800,DepthScenes,v2_duration_discrimination,discrim_jsons/Discrim250_randls_31_rotated.json,http://54.235.29.9/FacialAge/BNav_EC2/DepthDuration/v2_depth_discrimination_MTurk/v2_DepthDiscrim_HTML.html#52,52,1366,649,1366,768,9-21-2022,9-59-20,5,depth_discrimination_stimuli/000502_2014-06-08_23-02-32_260595134347_rgbf000063-resize_4/000502_2014-06-08_23-02-32_260595134347_rgbf000063-resize_4-target.png,depth_discrimination_stimuli/001199_2014-06-17_16-03-48_260595134347_rgbf000077-resize_0/001199_2014-06-17_16-03-48_260595134347_rgbf000077-resize_0-target.png,250.0,2.431,3.4375,0.0,1145,1016,235,1015,249,499,,532577,41,Woman
5,496800,DepthScenes,v2_duration_discrimination,discrim_jsons/Discrim250_randls_31_rotated.json,http://54.235.29.9/FacialAge/BNav_EC2/DepthDuration/v2_depth_discrimination_MTurk/v2_DepthDiscrim_HTML.html#52,52,1366,649,1366,768,9-21-2022,9-59-20,6,depth_discrimination_stimuli/000709_2014-06-08_13-51-55_260595134347_rgbf000068-resize_3/000709_2014-06-08_13-51-55_260595134347_rgbf000068-resize_3-target.png,depth_discrimination_stimuli/002057_2014-06-24_21-00-13_260595134347_rgbf000120-resize_1/002057_2014-06-24_21-00-13_260595134347_rgbf000120-resize_1-target.png,250.0,1.8030000000000002,2.967,3.0,1405,1008,247,1001,259,485,,532577,41,Woman
6,496800,DepthScenes,v2_duration_discrimination,discrim_jsons/Discrim250_randls_31_rotated.json,http://54.235.29.9/FacialAge/BNav_EC2/DepthDuration/v2_depth_discrimination_MTurk/v2_DepthDiscrim_HTML.html#52,52,1366,649,1366,768,9-21-2022,9-59-20,7,depth_discrimination_stimuli/000665_2014-06-09_20-42-35_260595134347_rgbf000110-resize_1/000665_2014-06-09_20-42-35_260595134347_rgbf000110-resize_1-target.png,depth_discrimination_stimuli/001150_2014-06-17_15-27-34_260595134347_rgbf000108-resize_2/001150_2014-06-17_15-27-34_260595134347_rgbf000108-resize_2-target.png,250.0,3.057,4.0325,0.0,1797,1003,248,1000,258,492,,532577,41,Woman
7,496800,DepthScenes,v2_duration_discrimination,discrim_jsons/Discrim250_randls_31_rotated.json,http://54.235.29.9/FacialAge/BNav_EC2/DepthDuration/v2_depth_discrimination_MTurk/v2_DepthDiscrim_HTML.html#52,52,1366,649,1366,768,9-21-2022,9-59-20,8,depth_discrimination_stimuli/000734_2014-06-08_17-39-11_260595134347_rgbf000128-resize_2/000734_2014-06-08_17-39-11_260595134347_rgbf000128-resize_2-target.png,depth_discrimination_stimuli/000739_2014-06-08_18-45-58_260595134347_rgbf000068-resize_1/000739_2014-06-08_18-45-58_260595134347_rgbf000068-resize_1-target.png,250.0,4.098,3.534,1.0,1245,1020,232,1000,252,511,,532577,41,Woman
8,496800,DepthScenes,v2_duration_discrimination,discrim_jsons/Discrim250_randls_31_rotated.json,http://54.235.29.9/FacialAge/BNav_EC2/DepthDuration/v2_depth_discrimination_MTurk/v2_DepthDiscrim_HTML.html#52,52,1366,649,1366,768,9-21-2022,9-59-20,9,depth_discrimination_stimuli/000635_2014-06-08_16-38-42_260595134347_rgbf000106-resize_1/000635_2014-06-08_16-38-42_260595134347_rgbf000106-resize_1-target.png,depth_discrimination_stimuli/002279_2014-06-28_18-55-32_260595134347_rgbf000040-resize_5/002279_2014-06-28_18-55-32_260595134347_rgbf000040-resize_5-target.png,250.0,2.074,1.5043333333333,1.0,955,1008,258,998,251,488,,532577,41,Woman
9,496800,DepthScenes,v2_duration_discrimination,discrim_jsons/Discrim250_randls_31_rotated.json,http://54.235.29.9/FacialAge/BNav_EC2/DepthDuration/v2_depth_discrimination_MTurk/v2_DepthDiscrim_HTML.html#52,52,1366,649,1366,768,9-21-2022,9-59-20,10,depth_discrimination_stimuli/001498_2014-06-19_17-45-14_260595134347_rgbf000129-resize_4/001498_2014-06-19_17-45-14_260595134347_rgbf000129-resize_4-target.png,depth_discrimination_stimuli/001498_2014-06-19_17-45-14_260595134347_rgbf000129-resize_4/001498_2014-06-19_17-45-14_260595134347_rgbf000129-resize_4-target.png,250.0,1.4075,1.4075,3.0,1081,1008,251,998,250,499,,532577,41,Woman
10,496800,DepthScenes,v2_duration_discrimination,discrim_jsons/Discrim250_randls_31_rotated.json,http://54.235.29.9/FacialAge/BNav_EC2/DepthDuration/v2_depth_discrimination_MTurk/v2_DepthDiscrim_HTML.html#52,52,1366,649,1366,768,9-21-2022,9-59-20,11,depth_discrimination_stimuli/003083_2014-06-15_15-21-03_094959634447_rgbf000063-resize_1/003083_2014-06-15_15-21-03_094959634447_rgbf000063-resize_1-target.png,depth_discrimination_stimuli/000486_2014-06-09_20-47-20_260595134347_rgbf000143-resize_2/000486_2014-06-09_20-47-20_260595134347_rgbf000143-resize_2-target.png,250.0,4.1405,4.8325,0.0,1036,1016,249,996,238,515,,532577,41,Woman
11,496800,DepthScenes,v2_duration_discrimination,discrim_jsons/Discrim250_randls_31_rotated.json,http://54.235.29.9/FacialAge/BNav_EC2/DepthDuration/v2_depth_discrimination_MTurk/v2_DepthDiscrim_HTML.html#52,52,1366,649,1366,768,9-21-2022,9-59-20,12,depth_discrimination_stimuli/001132_2014-06-17_14-48-54_260595134347_rgbf000100-resize_2/001132_2014-06-17_14-48-54_260595134347_rgbf000100-resize_2-target.png,depth_discrimination_stimuli/001133_2014-06-17_14-49-16_260595134347_rgbf000100-resize_0/001133_2014-06-17_14-49-16_260595134347_rgbf000100-resize_0-target.png,250.0,3.753,4.2115,1.0,1266,1014,250,1001,249,499,,532577,41,Woman
12,496800,DepthScenes,v2_duration_discrimination,discrim_jsons/Discrim250_randls_31_rotated.json,http://54.235.29.9/FacialAge/BNav_EC2/DepthDuration/v2_depth_discrimination_MTurk/v2_DepthDiscrim_HTML.html#52,52,1366,649,1366,768,9-21-2022,9-59-20,13,depth_discrimination_stimuli/001650_2014-06-20_12-09-00_260595134347_rgbf000087-resize_3/001650_2014-06-20_12-09-00_260595134347_rgbf000087-resize_3-target.png,depth_discrimination_stimuli/000682_2014-06-08_23-14-58_260595134347_rgbf000041-resize_5/000682_2014-06-08_23-14-58_260595134347_rgbf000041-resize_5-target.png,250.0,1.9505,2.7239999999999998,0.0,1326,1013,250,991,257,499,,532577,41,Woman
13,496800,DepthScenes,v2_duration_discrimination,discrim_jsons/Discrim250_randls_31_rotated.json,http://54.235.29.9/FacialAge/BNav_EC2/DepthDuration/v2_depth_discrimination_MTurk/v2_DepthDiscrim_HTML.html#52,52,1366,649,1366,768,9-21-2022,9-59-20,14,depth_discrimination_stimuli/000691_2014-06-08_13-08-50_260595134347_rgbf000132-resize_3/000691_2014-06-08_13-08-50_260595134347_rgbf000132-resize_3-target.png,depth_discrimination_stimuli/002213_2014-06-28_18-37-58_260595134347_rgbf000055-resize_1/002213_2014-06-28_18-37-58_260595134347_rgbf000055-resize_1-target.png,250.0,4.1530000000000005,3.62,0.0,1292,1012,248,1006,243,501,,532577,41,Woman
14,496800,DepthScenes,v2_duration_discrimination,discrim_jsons/Discrim250_randls_31_rotated.json,http://54.235.29.9/FacialAge/BNav_EC2/DepthDuration/v2_depth_discrimination_MTurk/v2_DepthDiscrim_HTML.html#52,52,1366,649,1366,768,9-21-2022,9-59-20,15,depth_discrimination_stimuli/002637_2014-06-24_14-51-13_094959634447_rgbf000066-resize_4/002637_2014-06-24_14-51-13_094959634447_rgbf000066-resize_4-target.png,depth_discrimination_stimuli/003534_2014-05-22_15-06-10_094959634447_rgbf000102-resize_4/003534_2014-05-22_15-06-10_094959634447_rgbf000102-resize_4-target.png,250.0,1.9955,1.426,0.0,1268,1013,252,998,251,497,,532577,41,Woman
15,496800,DepthScenes,v2_duration_discrimination,discrim_jsons/Discrim250_randls_31_rotated.json,http://54.235.29.9/FacialAge/BNav_EC2/DepthDuration/v2_depth_discrimination_MTurk/v2_DepthDiscrim_HTML.html#52,52,1366,649,1366,768,9-21-2022,9-59-20,16,depth_discrimination_stimuli/002072_2014-06-24_21-48-06_260595134347_rgbf000115-resize_0/002072_2014-06-24_21-48-06_260595134347_rgbf000115-resize_0-target.png,depth_discrimination_stimuli/002072_2014-06-24_21-48-06_260595134347_rgbf000115-resize_0/002072_2014-06-24_21-48-06_260595134347_rgbf000115-resize_0-target.png,250.0,4.702,4.702,3.0,1224,1014,247,1000,248,501,,532577,41,Woman
16,496800,DepthScenes,v2_duration_discrimination,discrim_jsons/Discrim250_randls_31_rotated.json,http://54.235.29.9/FacialAge/BNav_EC2/DepthDuration/v2_depth_discrimination_MTurk/v2_DepthDiscrim_HTML.html#52,52,1366,649,1366,768,9-21-2022,9-59-20,17,depth_discrimination_stimuli/001235_2014-06-17_16-37-36_260595134347_rgbf000084-resize_4/001235_2014-06-17_16-37-36_260595134347_rgbf000084-resize_4-target.png,depth_discrimination_stimuli/000788_2014-06-08_22-34-36_260595134347_rgbf000131-resize_1/000788_2014-06-08_22-34-36_260595134347_rgbf000131-resize_1-target.png,250.0,3.6605,3.359,1.0,1044,1006,251,997,249,500,,532577,41,Woman
17,496800,DepthScenes,v2_duration_discrimination,discrim_jsons/Discrim250_randls_31_rotated.json,http://54.235.29.9/FacialAge/BNav_EC2/DepthDuration/v2_depth_discrimination_MTurk/v2_DepthDiscrim_HTML.html#52,52,1366,649,1366,768,9-21-2022,9-59-20,18,depth_discrimination_stimuli/002136_2014-06-25_21-18-03_260595134347_rgbf000109-resize_3/002136_2014-06-25_21-18-03_260595134347_rgbf000109-resize_3-target.png,depth_discrimination_stimuli/002964_2014-06-08_17-46-11_094959634447_rgbf000091-resize_4/002964_2014-06-08_17-46-11_094959634447_rgbf000091-resize_4-target.png,250.0,1.9569999999999999,1.6909999999999998,1.0,1231,1003,263,1000,235,514,,532577,41,Woman
18,496800,DepthScenes,v2_duration_discrimination,discrim_jsons/Discrim250_randls_31_rotated.json,http://54.235.29.9/FacialAge/BNav_EC2/DepthDuration/v2_depth_discrimination_MTurk/v2_DepthDiscrim_HTML.html#52,52,1366,649,1366,768,9-21-2022,9-59-20,19,depth_discrimination_stimuli/001815_2014-06-26_20-52-55_260595134347_rgbf000020-resize_0/001815_2014-06-26_20-52-55_260595134347_rgbf000020-resize_0-target.png,depth_discrimination_stimuli/001808_2014-06-26_20-50-58_260595134347_rgbf000029-resize_1/001808_2014-06-26_20-50-58_260595134347_rgbf000029-resize_1-target.png,250.0,3.3865,4.249,3.0,1184,1008,244,999,264,500,,532577,41,Woman
19,496800,DepthScenes,v2_duration_discrimination,discrim_jsons/Discrim250_randls_31_rotated.json,http://54.235.29.9/FacialAge/BNav_EC2/DepthDuration/v2_depth_discrimination_MTurk/v2_DepthDiscrim_HTML.html#52,52,1366,649,1366,768,9-21-2022,9-59-20,20,depth_discrimination_stimuli/000103_2014-05-14_22-01-17_260595134347_rgbf000152-resize_5/000103_2014-05-14_22-01-17_260595134347_rgbf000152-resize_5-target.png,depth_discrimination_stimuli/001555_2014-06-20_17-12-10_260595134347_rgbf000065-resize_4/001555_2014-06-20_17-12-10_260595134347_rgbf000065-resize_4-target.png,250.0,1.993,1.633,1.0,1095,1012,251,992,253,501,,532577,41,Woman
20,496800,DepthScenes,v2_duration_discrimination,discrim_jsons/Discrim250_randls_31_rotated.json,http://54.235.29.9/FacialAge/BNav_EC2/DepthDuration/v2_depth_discrimination_MTurk/v2_DepthDiscrim_HTML.html#52,52,1366,649,1366,768,9-21-2022,9-59-20,21,depth_discrimination_stimuli/001100_2014-06-15_17-46-26_260595134347_rgbf000225-resize_2/001100_2014-06-15_17-46-26_260595134347_rgbf000225-resize_2-target.png,depth_discrimination_stimuli/002784_2014-06-22_19-26-30_094959634447_rgbf000083-resize_3/002784_2014-06-22_19-26-30_094959634447_rgbf000083-resize_3-target.png,250.0,2.24,1.8046666666667,3.0,1050,1006,248,1000,249,500,,532577,41,Woman
21,496800,DepthScenes,v2_duration_discrimination,discrim_jsons/Discrim250_randls_31_rotated.json,http://54.235.29.9/FacialAge/BNav_EC2/DepthDuration/v2_depth_discrimination_MTurk/v2_DepthDiscrim_HTML.html#52,52,1366,649,1366,768,9-21-2022,9-59-20,22,depth_discrimination_stimuli/002444_2014-06-28_20-32-08_260595134347_rgbf000027-resize_0/002444_2014-06-28_20-32-08_260595134347_rgbf000027-resize_0-target.png,depth_discrimination_stimuli/000436_2014-06-09_22-25-11_260595134347_rgbf000137-resize_1/000436_2014-06-09_22-25-11_260595134347_rgbf000137-resize_1-target.png,250.0,4.388999999999999,4.0705,0.0,1149,1031,249,997,241,508,,532577,41,Woman
22,496800,DepthScenes,v2_duration_discrimination,discrim_jsons/Discrim250_randls_31_rotated.json,http://54.235.29.9/FacialAge/BNav_EC2/DepthDuration/v2_depth_discrimination_MTurk/v2_DepthDiscrim_HTML.html#52,52,1366,649,1366,768,9-21-2022,9-59-20,23,depth_discrimination_stimuli/002414_2014-06-28_20-24-58_260595134347_rgbf000067-resize_4/002414_2014-06-28_20-24-58_260595134347_rgbf000067-resize_4-target.png,depth_discrimination_stimuli/000773_2014-06-08_22-24-54_260595134347_rgbf000093-resize_1/000773_2014-06-08_22-24-54_260595134347_rgbf000093-resize_1-target.png,250.0,4.363,4.973,0.0,1640,1001,261,996,252,500,,532577,41,Woman
23,496800,DepthScenes,v2_duration_discrimination,discrim_jsons/Discrim250_randls_31_rotated.json,http://54.235.29.9/FacialAge/BNav_EC2/DepthDuration/v2_depth_discrimination_MTurk/v2_DepthDiscrim_HTML.html#52,52,1366,649,1366,768,9-21-2022,9-59-20,24,depth_discrimination_stimuli/002568_2014-06-24_13-59-21_094959634447_rgbf000062-resize_4/002568_2014-06-24_13-59-21_094959634447_rgbf000062-resize_4-target.png,depth_discrimination_stimuli/003492_2014-05-21_15-50-55_094959634447_rgbf000828-resize_1/003492_2014-05-21_15-50-55_094959634447_rgbf000828-resize_1-target.png,250.0,3.015,4.06875,3.0,927,1011,255,994,248,501,,532577,41,Woman
24,496800,DepthScenes,v2_duration_discrimination,discrim_jsons/Discrim250_randls_31_rotated.json,http://54.235.29.9/FacialAge/BNav_EC2/DepthDuration/v2_depth_discrimination_MTurk/v2_DepthDiscrim_HTML.html#52,52,1366,649,1366,768,9-21-2022,9-59-20,25,depth_discrimination_stimuli/003079_2014-06-15_15-18-20_094959634447_rgbf000152-resize_8/003079_2014-06-15_15-18-20_094959634447_rgbf000152-resize_8-target.png,depth_discrimination_stimuli/000506_2014-06-08_23-21-00_260595134347_rgbf000070-resize_7/000506_2014-06-08_23-21-00_260595134347_rgbf000070-resize_7-target.png,250.0,2.8775,4.0585,1.0,1212,1012,241,1013,235,499,,532577,41,Woman
25,496800,DepthScenes,v2_duration_discrimination,discrim_jsons/Discrim250_randls_31_rotated.json,http://54.235.29.9/FacialAge/BNav_EC2/DepthDuration/v2_depth_discrimination_MTurk/v2_DepthDiscrim_HTML.html#52,52,1366,649,1366,768,9-21-2022,9-59-20,26,depth_discrimination_stimuli/001170_2014-06-17_15-43-44_260595134347_rgbf000096-resize_6/001170_2014-06-17_15-43-44_260595134347_rgbf000096-resize_6-target.png,depth_discrimination_stimuli/001170_2014-06-17_15-43-44_260595134347_rgbf000096-resize_6/001170_2014-06-17_15-43-44_260595134347_rgbf000096-resize_6-target.png,250.0,1.1909999999999998,1.1909999999999998,3.0,892,1007,249,998,257,491,,532577,41,Woman
26,496800,DepthScenes,v2_duration_discrimination,discrim_jsons/Discrim250_randls_31_rotated.json,http://54.235.29.9/FacialAge/BNav_EC2/DepthDuration/v2_depth_discrimination_MTurk/v2_DepthDiscrim_HTML.html#52,52,1366,649,1366,768,9-21-2022,9-59-20,27,depth_discrimination_stimuli/002949_2014-06-26_15-57-42_094959634447_rgbf000079-resize_1/002949_2014-06-26_15-57-42_094959634447_rgbf000079-resize_1-target.png,depth_discrimination_stimuli/000522_2014-06-08_13-35-06_260595134347_rgbf000244-resize_1/000522_2014-06-08_13-35-06_260595134347_rgbf000244-resize_1-target.png,250.0,1.8915,2.3715,3.0,1114,1005,251,997,249,501,,532577,41,Woman
27,496800,DepthScenes,v2_duration_discrimination,discrim_jsons/Discrim250_randls_31_rotated.json,http://54.235.29.9/FacialAge/BNav_EC2/DepthDuration/v2_depth_discrimination_MTurk/v2_DepthDiscrim_HTML.html#52,52,1366,649,1366,768,9-21-2022,9-59-20,28,depth_discrimination_stimuli/001571_2014-06-20_17-21-32_260595134347_rgbf000089-resize_1/001571_2014-06-20_17-21-32_260595134347_rgbf000089-resize_1-target.png,depth_discrimination_stimuli/002272_2014-06-28_18-53-56_260595134347_rgbf000067-resize_2/002272_2014-06-28_18-53-56_260595134347_rgbf000067-resize_2-target.png,250.0,1.86,1.138,3.0,1180,1016,248,993,256,500,,532577,41,Woman
28,496800,DepthScenes,v2_duration_discrimination,discrim_jsons/Discrim250_randls_31_rotated.json,http://54.235.29.9/FacialAge/BNav_EC2/DepthDuration/v2_depth_discrimination_MTurk/v2_DepthDiscrim_HTML.html#52,52,1366,649,1366,768,9-21-2022,9-59-20,29,depth_discrimination_stimuli/000549_2014-06-08_22-10-24_260595134347_rgbf000247-resize_3/000549_2014-06-08_22-10-24_260595134347_rgbf000247-resize_3-target.png,depth_discrimination_stimuli/001055_2014-06-08_18-45-35_260595134347_rgbf000111-resize_4/001055_2014-06-08_18-45-35_260595134347_rgbf000111-resize_4-target.png,250.0,1.841,2.4290000000000003,0.0,1203,1008,251,997,248,515,,532577,41,Woman
29,496800,DepthScenes,v2_duration_discrimination,discrim_jsons/Discrim250_randls_31_rotated.json,http://54.235.29.9/FacialAge/BNav_EC2/DepthDuration/v2_depth_discrimination_MTurk/v2_DepthDiscrim_HTML.html#52,52,1366,649,1366,768,9-21-2022,9-59-20,30,depth_discrimination_stimuli/003495_2014-05-21_16-01-51_094959634447_rgbf000100-resize_3/003495_2014-05-21_16-01-51_094959634447_rgbf000100-resize_3-target.png,depth_discrimination_stimuli/001244_2014-06-17_16-47-45_260595134347_rgbf000030-resize_4/001244_2014-06-17_16-47-45_260595134347_rgbf000030-resize_4-target.png,250.0,1.6255,2.0425,0.0,1516,1004,257,1003,246,498,,532577,41,Woman
30,496800,DepthScenes,v2_duration_discrimination,discrim_jsons/Discrim250_randls_31_rotated.json,http://54.235.29.9/FacialAge/BNav_EC2/DepthDuration/v2_depth_discrimination_MTurk/v2_DepthDiscrim_HTML.html#52,52,1366,649,1366,768,9-21-2022,9-59-20,31,depth_discrimination_stimuli/003081_2014-06-15_15-19-16_094959634447_rgbf000150-resize_1/003081_2014-06-15_15-19-16_094959634447_rgbf000150-resize_1-target.png,depth_discrimination_stimuli/001417_2014-06-19_16-25-36_260595134347_rgbf000115-resize_5/001417_2014-06-19_16-25-36_260595134347_rgbf000115-resize_5-target.png,250.0,3.9125,4.6255,3.0,865,1014,244,999,248,501,,532577,41,Woman
31,496800,DepthScenes,v2_duration_discrimination,discrim_jsons/Discrim250_randls_31_rotated.json,http://54.235.29.9/FacialAge/BNav_EC2/DepthDuration/v2_depth_discrimination_MTurk/v2_DepthDiscrim_HTML.html#52,52,1366,649,1366,768,9-21-2022,9-59-20,32,depth_discrimination_stimuli/000943_2014-06-09_19-31-07_260595134347_rgbf000128-resize_1/000943_2014-06-09_19-31-07_260595134347_rgbf000128-resize_1-target.png,depth_discrimination_stimuli/003070_2014-06-15_14-58-27_094959634447_rgbf000150-resize_3/003070_2014-06-15_14-58-27_094959634447_rgbf000150-resize_3-target.png,250.0,1.9765,2.9415,3.0,1063,1016,247,990,253,506,,532577,41,Woman
32,496800,DepthScenes,v2_duration_discrimination,discrim_jsons/Discrim250_randls_31_rotated.json,http://54.235.29.9/FacialAge/BNav_EC2/DepthDuration/v2_depth_discrimination_MTurk/v2_DepthDiscrim_HTML.html#52,52,1366,649,1366,768,9-21-2022,9-59-20,33,depth_discrimination_stimuli/000556_2014-06-09_22-42-56_260595134347_rgbf000214-resize_1/000556_2014-06-09_22-42-56_260595134347_rgbf000214-resize_1-target.png,depth_discrimination_stimuli/001158_2014-06-17_15-32-16_260595134347_rgbf000138-resize_2/001158_2014-06-17_15-32-16_260595134347_rgbf000138-resize_2-target.png,250.0,4.8415,4.5315,0.0,1248,1015,247,999,251,500,,532577,41,Woman
33,496800,DepthScenes,v2_duration_discrimination,discrim_jsons/Discrim250_randls_31_rotated.json,http://54.235.29.9/FacialAge/BNav_EC2/DepthDuration/v2_depth_discrimination_MTurk/v2_DepthDiscrim_HTML.html#52,52,1366,649,1366,768,9-21-2022,9-59-20,34,depth_discrimination_stimuli/002657_2014-06-13_15-29-54_094959634447_rgbf000150-resize_1/002657_2014-06-13_15-29-54_094959634447_rgbf000150-resize_1-target.png,depth_discrimination_stimuli/002375_2014-06-28_20-13-44_260595134347_rgbf000032-resize_1/002375_2014-06-28_20-13-44_260595134347_rgbf000032-resize_1-target.png,250.0,4.919,4.0175,3.0,1038,1009,255,990,256,495,,532577,41,Woman
34,496800,DepthScenes,v2_duration_discrimination,discrim_jsons/Discrim250_randls_31_rotated.json,http://54.235.29.9/FacialAge/BNav_EC2/DepthDuration/v2_depth_discrimination_MTurk/v2_DepthDiscrim_HTML.html#52,52,1366,649,1366,768,9-21-2022,9-59-20,35,depth_discrimination_stimuli/001540_2014-06-20_17-01-05_260595134347_rgbf000086-resize_2/001540_2014-06-20_17-01-05_260595134347_rgbf000086-resize_2-target.png,depth_discrimination_stimuli/001540_2014-06-20_17-01-05_260595134347_rgbf000086-resize_2/001540_2014-06-20_17-01-05_260595134347_rgbf000086-resize_2-target.png,250.0,1.459,1.459,3.0,1101,1017,234,1012,252,501,,532577,41,Woman
35,496800,DepthScenes,v2_duration_discrimination,discrim_jsons/Discrim250_randls_31_rotated.json,http://54.235.29.9/FacialAge/BNav_EC2/DepthDuration/v2_depth_discrimination_MTurk/v2_DepthDiscrim_HTML.html#52,52,1366,649,1366,768,9-21-2022,9-59-20,36,depth_discrimination_stimuli/003010_2014-06-15_12-54-35_094959634447_rgbf000112-resize_0/003010_2014-06-15_12-54-35_094959634447_rgbf000112-resize_0-target.png,depth_discrimination_stimuli/001810_2014-06-26_20-51-35_260595134347_rgbf000040-resize_3/001810_2014-06-26_20-51-35_260595134347_rgbf000040-resize_3-target.png,250.0,3.1185,2.2525,1.0,1242,1007,244,1014,249,492,,532577,41,Woman
36,496800,DepthScenes,v2_duration_discrimination,discrim_jsons/Discrim250_randls_31_rotated.json,http://54.235.29.9/FacialAge/BNav_EC2/DepthDuration/v2_depth_discrimination_MTurk/v2_DepthDiscrim_HTML.html#52,52,1366,649,1366,768,9-21-2022,9-59-20,37,depth_discrimination_stimuli/002678_2014-06-13_16-15-32_094959634447_rgbf000151-resize_6/002678_2014-06-13_16-15-32_094959634447_rgbf000151-resize_6-target.png,depth_discrimination_stimuli/000368_2014-06-09_15-53-01_260595134347_rgbf000155-resize_2/000368_2014-06-09_15-53-01_260595134347_rgbf000155-resize_2-target.png,250.0,2.1830000000000003,2.4859999999999998,1.0,818,1003,259,1002,240,499,,532577,41,Woman
37,496800,DepthScenes,v2_duration_discrimination,discrim_jsons/Discrim250_randls_31_rotated.json,http://54.235.29.9/FacialAge/BNav_EC2/DepthDuration/v2_depth_discrimination_MTurk/v2_DepthDiscrim_HTML.html#52,52,1366,649,1366,768,9-21-2022,9-59-20,38,depth_discrimination_stimuli/002660_2014-06-13_15-44-18_094959634447_rgbf001878-resize_2/002660_2014-06-13_15-44-18_094959634447_rgbf001878-resize_2-target.png,depth_discrimination_stimuli/002153_2014-06-25_21-27-18_260595134347_rgbf000038-resize_5/002153_2014-06-25_21-27-18_260595134347_rgbf000038-resize_5-target.png,250.0,3.576,2.505,3.0,1351,1003,249,1001,262,486,,532577,41,Woman
38,496800,DepthScenes,v2_duration_discrimination,discrim_jsons/Discrim250_randls_31_rotated.json,http://54.235.29.9/FacialAge/BNav_EC2/DepthDuration/v2_depth_discrimination_MTurk/v2_DepthDiscrim_HTML.html#52,52,1366,649,1366,768,9-21-2022,9-59-20,39,depth_discrimination_stimuli/001094_2014-06-15_17-36-00_260595134347_rgbf000205-resize_0/001094_2014-06-15_17-36-00_260595134347_rgbf000205-resize_0-target.png,depth_discrimination_stimuli/000692_2014-06-08_13-09-42_260595134347_rgbf000199-resize_2/000692_2014-06-08_13-09-42_260595134347_rgbf000199-resize_2-target.png,250.0,4.2175,3.661,1.0,1811,1012,249,998,245,504,,532577,41,Woman
39,496800,DepthScenes,v2_duration_discrimination,discrim_jsons/Discrim250_randls_31_rotated.json,http://54.235.29.9/FacialAge/BNav_EC2/DepthDuration/v2_depth_discrimination_MTurk/v2_DepthDiscrim_HTML.html#52,52,1366,649,1366,768,9-21-2022,9-59-20,40,depth_discrimination_stimuli/001447_2014-06-19_17-00-32_260595134347_rgbf000082-resize_5/001447_2014-06-19_17-00-32_260595134347_rgbf000082-resize_5-target.png,depth_discrimination_stimuli/000447_2014-06-08_16-15-46_260595134347_rgbf000130-resize_1/000447_2014-06-08_16-15-46_260595134347_rgbf000130-resize_1-target.png,250.0,4.13775,4.479,3.0,1566,1015,251,986,253,507,,532577,41,Woman
40,496800,DepthScenes,v2_duration_discrimination,discrim_jsons/Discrim250_randls_31_rotated.json,http://54.235.29.9/FacialAge/BNav_EC2/DepthDuration/v2_depth_discrimination_MTurk/v2_DepthDiscrim_HTML.html#52,52,1366,649,1366,768,9-21-2022,9-59-20,41,depth_discrimination_stimuli/001214_2014-06-17_16-13-55_260595134347_rgbf000111-resize_0/001214_2014-06-17_16-13-55_260595134347_rgbf000111-resize_0-target.png,depth_discrimination_stimuli/000810_2014-06-08_17-20-01_260595134347_rgbf000105-resize_0/000810_2014-06-08_17-20-01_260595134347_rgbf000105-resize_0-target.png,250.0,2.6505,1.4865,0.0,1126,1012,248,997,249,500,,532577,41,Woman
41,496800,DepthScenes,v2_duration_discrimination,discrim_jsons/Discrim250_randls_31_rotated.json,http://54.235.29.9/FacialAge/BNav_EC2/DepthDuration/v2_depth_discrimination_MTurk/v2_DepthDiscrim_HTML.html#52,52,1366,649,1366,768,9-21-2022,9-59-20,42,depth_discrimination_stimuli/003423_2014-05-21_10-23-26_094959634447_rgbf002665-resize_2/003423_2014-05-21_10-23-26_094959634447_rgbf002665-resize_2-target.png,depth_discrimination_stimuli/002905_2014-06-03_18-04-43_094959634447_rgbf000151-resize_2/002905_2014-06-03_18-04-43_094959634447_rgbf000151-resize_2-target.png,250.0,3.2575,2.0295,3.0,1054,1006,254,994,247,500,,532577,41,Woman
42,496800,DepthScenes,v2_duration_discrimination,discrim_jsons/Discrim250_randls_31_rotated.json,http://54.235.29.9/FacialAge/BNav_EC2/DepthDuration/v2_depth_discrimination_MTurk/v2_DepthDiscrim_HTML.html#52,52,1366,649,1366,768,9-21-2022,9-59-20,43,depth_discrimination_stimuli/002875_2014-06-01_15-19-00_094959634447_rgbf000151-resize_1/002875_2014-06-01_15-19-00_094959634447_rgbf000151-resize_1-target.png,depth_discrimination_stimuli/001011_2014-06-08_23-18-54_260595134347_rgbf000044-resize_4/001011_2014-06-08_23-18-54_260595134347_rgbf000044-resize_4-target.png,250.0,1.9675,2.4730000000000003,1.0,937,1015,242,1005,244,499,,532577,41,Woman
43,496800,DepthScenes,v2_duration_discrimination,discrim_jsons/Discrim250_randls_31_rotated.json,http://54.235.29.9/FacialAge/BNav_EC2/DepthDuration/v2_depth_discrimination_MTurk/v2_DepthDiscrim_HTML.html#52,52,1366,649,1366,768,9-21-2022,9-59-20,44,depth_discrimination_stimuli/001450_2014-06-19_17-02-03_260595134347_rgbf000203-resize_4/001450_2014-06-19_17-02-03_260595134347_rgbf000203-resize_4-target.png,depth_discrimination_stimuli/001449_2014-06-19_17-01-27_260595134347_rgbf000116-resize_2/001449_2014-06-19_17-01-27_260595134347_rgbf000116-resize_2-target.png,250.0,4.0106666666667,3.452,1.0,1471,1013,241,999,246,509,,532577,41,Woman
44,496800,DepthScenes,v2_duration_discrimination,discrim_jsons/Discrim250_randls_31_rotated.json,http://54.235.29.9/FacialAge/BNav_EC2/DepthDuration/v2_depth_discrimination_MTurk/v2_DepthDiscrim_HTML.html#52,52,1366,649,1366,768,9-21-2022,9-59-20,45,depth_discrimination_stimuli/003129_2014-05-12_10-48-10_094959634447_rgbf000100-resize_0/003129_2014-05-12_10-48-10_094959634447_rgbf000100-resize_0-target.png,depth_discrimination_stimuli/000414_2014-06-04_19-49-13_260595134347_rgbf000044-resize_0/000414_2014-06-04_19-49-13_260595134347_rgbf000044-resize_0-target.png,250.0,4.9305,4.329,3.0,1035,1006,250,1000,249,509,,532577,41,Woman
45,496800,DepthScenes,v2_duration_discrimination,discrim_jsons/Discrim250_randls_31_rotated.json,http://54.235.29.9/FacialAge/BNav_EC2/DepthDuration/v2_depth_discrimination_MTurk/v2_DepthDiscrim_HTML.html#52,52,1366,649,1366,768,9-21-2022,9-59-20,46,depth_discrimination_stimuli/002103_2014-06-25_20-00-40_260595134347_rgbf000049-resize_0/002103_2014-06-25_20-00-40_260595134347_rgbf000049-resize_0-target.png,depth_discrimination_stimuli/002039_2014-06-24_20-22-38_260595134347_rgbf000084-resize_1/002039_2014-06-24_20-22-38_260595134347_rgbf000084-resize_1-target.png,250.0,4.105,4.408,3.0,1202,1014,248,998,251,499,,532577,41,Woman
46,496800,DepthScenes,v2_duration_discrimination,discrim_jsons/Discrim250_randls_31_rotated.json,http://54.235.29.9/FacialAge/BNav_EC2/DepthDuration/v2_depth_discrimination_MTurk/v2_DepthDiscrim_HTML.html#52,52,1366,649,1366,768,9-21-2022,9-59-20,47,depth_discrimination_stimuli/000457_2014-06-08_16-52-43_260595134347_rgbf000199-resize_1/000457_2014-06-08_16-52-43_260595134347_rgbf000199-resize_1-target.png,depth_discrimination_stimuli/000929_2014-06-09_16-33-19_260595134347_rgbf000139-resize_0/000929_2014-06-09_16-33-19_260595134347_rgbf000139-resize_0-target.png,250.0,3.6489999999999996,2.8680000000000003,1.0,929,1011,246,995,256,492,,532577,41,Woman
47,496800,DepthScenes,v2_duration_discrimination,discrim_jsons/Discrim250_randls_31_rotated.json,http://54.235.29.9/FacialAge/BNav_EC2/DepthDuration/v2_depth_discrimination_MTurk/v2_DepthDiscrim_HTML.html#52,52,1366,649,1366,768,9-21-2022,9-59-20,48,depth_discrimination_stimuli/002995_2014-06-15_12-31-26_094959634447_rgbf000150-resize_1/002995_2014-06-15_12-31-26_094959634447_rgbf000150-resize_1-target.png,depth_discrimination_stimuli/002748_2014-06-22_19-07-22_094959634447_rgbf000078-resize_1/002748_2014-06-22_19-07-22_094959634447_rgbf000078-resize_1-target.png,250.0,3.8360000000000003,4.6705,0.0,1355,1011,249,999,250,510,,532577,41,Woman
48,496800,DepthScenes,v2_duration_discrimination,discrim_jsons/Discrim250_randls_31_rotated.json,http://54.235.29.9/FacialAge/BNav_EC2/DepthDuration/v2_depth_discrimination_MTurk/v2_DepthDiscrim_HTML.html#52,52,1366,649,1366,768,9-21-2022,9-59-20,49,depth_discrimination_stimuli/000109_2014-05-14_23-41-52_260595134347_rgbf000035-resize_9/000109_2014-05-14_23-41-52_260595134347_rgbf000035-resize_9-target.png,depth_discrimination_stimuli/000470_2014-06-09_19-42-40_260595134347_rgbf000094-resize_1/000470_2014-06-09_19-42-40_260595134347_rgbf000094-resize_1-target.png,250.0,1.3545,1.831,0.0,1132,1009,244,1006,250,497,,532577,41,Woman
49,496800,DepthScenes,v2_duration_discrimination,discrim_jsons/Discrim250_randls_31_rotated.json,http://54.235.29.9/FacialAge/BNav_EC2/DepthDuration/v2_depth_discrimination_MTurk/v2_DepthDiscrim_HTML.html#52,52,1366,649,1366,768,9-21-2022,9-59-20,50,depth_discrimination_stimuli/000137_2014-05-20_17-04-49_260595134347_rgbf000120-resize_1/000137_2014-05-20_17-04-49_260595134347_rgbf000120-resize_1-target.png,depth_discrimination_stimuli/000736_2014-06-08_18-24-15_260595134347_rgbf000206-resize_3/000736_2014-06-08_18-24-15_260595134347_rgbf000206-resize_3-target.png,250.0,3.786,3.515,1.0,1180,1015,247,1000,249,500,,532577,41,Woman
50,496800,DepthScenes,v2_duration_discrimination,discrim_jsons/Discrim250_randls_31_rotated.json,http://54.235.29.9/FacialAge/BNav_EC2/DepthDuration/v2_depth_discrimination_MTurk/v2_DepthDiscrim_HTML.html#52,52,1366,649,1366,768,9-21-2022,9-59-20,51,depth_discrimination_stimuli/002545_2014-06-24_13-38-53_094959634447_rgbf000080-resize_4/002545_2014-06-24_13-38-53_094959634447_rgbf000080-resize_4-target.png,depth_discrimination_stimuli/001092_2014-06-15_17-34-58_260595134347_rgbf000171-resize_3/001092_2014-06-15_17-34-58_260595134347_rgbf000171-resize_3-target.png,250.0,1.9205,2.6935,1.0,1449,1003,263,998,250,501,,532577,41,Woman
51,496800,DepthScenes,v2_duration_discrimination,discrim_jsons/Discrim250_randls_31_rotated.json,http://54.235.29.9/FacialAge/BNav_EC2/DepthDuration/v2_depth_discrimination_MTurk/v2_DepthDiscrim_HTML.html#52,52,1366,649,1366,768,9-21-2022,9-59-20,52,depth_discrimination_stimuli/001222_2014-06-17_16-24-06_260595134347_rgbf000073-resize_0/001222_2014-06-17_16-24-06_260595134347_rgbf000073-resize_0-target.png,depth_discrimination_stimuli/001222_2014-06-17_16-24-06_260595134347_rgbf000073-resize_0/001222_2014-06-17_16-24-06_260595134347_rgbf000073-resize_0-target.png,250.0,1.4385,1.4385,3.0,1067,1003,261,1010,239,502,,532577,41,Woman
52,496800,DepthScenes,v2_duration_discrimination,discrim_jsons/Discrim250_randls_31_rotated.json,http://54.235.29.9/FacialAge/BNav_EC2/DepthDuration/v2_depth_discrimination_MTurk/v2_DepthDiscrim_HTML.html#52,52,1366,649,1366,768,9-21-2022,9-59-20,53,depth_discrimination_stimuli/001052_2014-06-08_18-24-54_260595134347_rgbf000130-resize_1/001052_2014-06-08_18-24-54_260595134347_rgbf000130-resize_1-target.png,depth_discrimination_stimuli/002988_2014-06-15_12-24-20_094959634447_rgbf000150-resize_1/002988_2014-06-15_12-24-20_094959634447_rgbf000150-resize_1-target.png,250.0,4.1045,4.7669999999999995,3.0,1201,1005,247,999,250,512,,532577,41,Woman
53,496800,DepthScenes,v2_duration_discrimination,discrim_jsons/Discrim250_randls_31_rotated.json,http://54.235.29.9/FacialAge/BNav_EC2/DepthDuration/v2_depth_discrimination_MTurk/v2_DepthDiscrim_HTML.html#52,52,1366,649,1366,768,9-21-2022,9-59-20,54,depth_discrimination_stimuli/002209_2014-06-28_18-36-10_260595134347_rgbf000051-resize_1/002209_2014-06-28_18-36-10_260595134347_rgbf000051-resize_1-target.png,depth_discrimination_stimuli/002763_2014-06-22_19-13-10_094959634447_rgbf000075-resize_4/002763_2014-06-22_19-13-10_094959634447_rgbf000075-resize_4-target.png,250.0,2.057,1.68375,1.0,1243,1015,247,1008,240,500,,532577,41,Woman
54,496800,DepthScenes,v2_duration_discrimination,discrim_jsons/Discrim250_randls_31_rotated.json,http://54.235.29.9/FacialAge/BNav_EC2/DepthDuration/v2_depth_discrimination_MTurk/v2_DepthDiscrim_HTML.html#52,52,1366,649,1366,768,9-21-2022,9-59-20,55,depth_discrimination_stimuli/001584_2014-06-20_11-07-43_260595134347_rgbf000002-resize_1/001584_2014-06-20_11-07-43_260595134347_rgbf000002-resize_1-target.png,depth_discrimination_stimuli/003621_2014-05-23_18-06-08_094959634447_rgbf000101-resize_1/003621_2014-05-23_18-06-08_094959634447_rgbf000101-resize_1-target.png,250.0,3.53,3.9835,3.0,1024,1011,239,1009,249,503,,532577,41,Woman
55,496800,DepthScenes,v2_duration_discrimination,discrim_jsons/Discrim250_randls_31_rotated.json,http://54.235.29.9/FacialAge/BNav_EC2/DepthDuration/v2_depth_discrimination_MTurk/v2_DepthDiscrim_HTML.html#52,52,1366,649,1366,768,9-21-2022,9-59-20,56,depth_discrimination_stimuli/002467_2014-06-28_20-38-07_260595134347_rgbf000026-resize_2/002467_2014-06-28_20-38-07_260595134347_rgbf000026-resize_2-target.png,depth_discrimination_stimuli/002570_2014-06-24_13-59-54_094959634447_rgbf000059-resize_0/002570_2014-06-24_13-59-54_094959634447_rgbf000059-resize_0-target.png,250.0,4.742,4.037,1.0,1685,1026,231,997,249,499,,532577,41,Woman
56,496800,DepthScenes,v2_duration_discrimination,discrim_jsons/Discrim250_randls_31_rotated.json,http://54.235.29.9/FacialAge/BNav_EC2/DepthDuration/v2_depth_discrimination_MTurk/v2_DepthDiscrim_HTML.html#52,52,1366,649,1366,768,9-21-2022,9-59-20,57,depth_discrimination_stimuli/000483_2014-06-09_20-41-45_260595134347_rgbf000116-resize_4/000483_2014-06-09_20-41-45_260595134347_rgbf000116-resize_4-target.png,depth_discrimination_stimuli/000469_2014-06-09_19-42-10_260595134347_rgbf000081-resize_1/000469_2014-06-09_19-42-10_260595134347_rgbf000081-resize_1-target.png,250.0,1.337,1.652,0.0,1148,1015,248,1001,248,499,,532577,41,Woman
57,496800,DepthScenes,v2_duration_discrimination,discrim_jsons/Discrim250_randls_31_rotated.json,http://54.235.29.9/FacialAge/BNav_EC2/DepthDuration/v2_depth_discrimination_MTurk/v2_DepthDiscrim_HTML.html#52,52,1366,649,1366,768,9-21-2022,9-59-20,58,depth_discrimination_stimuli/002805_2014-06-22_19-54-03_094959634447_rgbf000079-resize_1/002805_2014-06-22_19-54-03_094959634447_rgbf000079-resize_1-target.png,depth_discrimination_stimuli/000906_2014-06-08_13-35-43_260595134347_rgbf000155-resize_1/000906_2014-06-08_13-35-43_260595134347_rgbf000155-resize_1-target.png,250.0,3.1439999999999997,2.8489999999999998,1.0,1497,1014,250,990,258,500,,532577,41,Woman
58,496800,DepthScenes,v2_duration_discrimination,discrim_jsons/Discrim250_randls_31_rotated.json,http://54.235.29.9/FacialAge/BNav_EC2/DepthDuration/v2_depth_discrimination_MTurk/v2_DepthDiscrim_HTML.html#52,52,1366,649,1366,768,9-21-2022,9-59-20,59,depth_discrimination_stimuli/003587_2014-05-23_16-48-02_094959634447_rgbf002384-resize_2/003587_2014-05-23_16-48-02_094959634447_rgbf002384-resize_2-target.png,depth_discrimination_stimuli/001167_2014-06-17_15-38-07_260595134347_rgbf000108-resize_0/001167_2014-06-17_15-38-07_260595134347_rgbf000108-resize_0-target.png,250.0,1.357,1.8505,0.0,1370,1010,249,1006,243,498,,532577,41,Woman
59,496800,DepthScenes,v2_duration_discrimination,discrim_jsons/Discrim250_randls_31_rotated.json,http://54.235.29.9/FacialAge/BNav_EC2/DepthDuration/v2_depth_discrimination_MTurk/v2_DepthDiscrim_HTML.html#52,52,1366,649,1366,768,9-21-2022,9-59-20,60,depth_discrimination_stimuli/001516_2014-06-20_16-25-09_260595134347_rgbf000076-resize_2/001516_2014-06-20_16-25-09_260595134347_rgbf000076-resize_2-target.png,depth_discrimination_stimuli/002118_2014-06-25_20-32-08_260595134347_rgbf000078-resize_1/002118_2014-06-25_20-32-08_260595134347_rgbf000078-resize_1-target.png,250.0,1.7445,2.6460000000000004,1.0,1226,1003,247,1000,250,500,,532577,41,Woman
60,496800,DepthScenes,v2_duration_discrimination,discrim_jsons/Discrim250_randls_31_rotated.json,http://54.235.29.9/FacialAge/BNav_EC2/DepthDuration/v2_depth_discrimination_MTurk/v2_DepthDiscrim_HTML.html#52,52,1366,649,1366,768,9-21-2022,9-59-20,61,depth_discrimination_stimuli/002758_2014-06-22_19-11-20_094959634447_rgbf000128-resize_1/002758_2014-06-22_19-11-20_094959634447_rgbf000128-resize_1-target.png,depth_discrimination_stimuli/002630_2014-06-24_14-47-50_094959634447_rgbf000055-resize_1/002630_2014-06-24_14-47-50_094959634447_rgbf000055-resize_1-target.png,250.0,2.555,3.0095,1.0,1497,1005,248,1007,240,504,,532577,41,Woman
61,496800,DepthScenes,v2_duration_discrimination,discrim_jsons/Discrim250_randls_31_rotated.json,http://54.235.29.9/FacialAge/BNav_EC2/DepthDuration/v2_depth_discrimination_MTurk/v2_DepthDiscrim_HTML.html#52,52,1366,649,1366,768,9-21-2022,9-59-20,62,depth_discrimination_stimuli/003338_2014-05-20_11-01-23_094959634447_rgbf000051-resize_6/003338_2014-05-20_11-01-23_094959634447_rgbf000051-resize_6-target.png,depth_discrimination_stimuli/002509_2014-06-24_13-19-22_094959634447_rgbf000077-resize_0/002509_2014-06-24_13-19-22_094959634447_rgbf000077-resize_0-target.png,250.0,1.693,1.3065,1.0,1190,1009,249,1000,249,499,,532577,41,Woman
62,496800,DepthScenes,v2_duration_discrimination,discrim_jsons/Discrim250_randls_31_rotated.json,http://54.235.29.9/FacialAge/BNav_EC2/DepthDuration/v2_depth_discrimination_MTurk/v2_DepthDiscrim_HTML.html#52,52,1366,649,1366,768,9-21-2022,9-59-20,63,depth_discrimination_stimuli/000787_2014-06-08_22-33-53_260595134347_rgbf000175-resize_1/000787_2014-06-08_22-33-53_260595134347_rgbf000175-resize_1-target.png,depth_discrimination_stimuli/000787_2014-06-08_22-33-53_260595134347_rgbf000175-resize_1/000787_2014-06-08_22-33-53_260595134347_rgbf000175-resize_1-target.png,250.0,4.784,4.784,3.0,1021,1007,250,1001,245,501,,532577,41,Woman
63,496800,DepthScenes,v2_duration_discrimination,discrim_jsons/Discrim250_randls_31_rotated.json,http://54.235.29.9/FacialAge/BNav_EC2/DepthDuration/v2_depth_discrimination_MTurk/v2_DepthDiscrim_HTML.html#52,52,1366,649,1366,768,9-21-2022,9-59-20,64,depth_discrimination_stimuli/000749_2014-06-08_21-55-06_260595134347_rgbf000070-resize_2/000749_2014-06-08_21-55-06_260595134347_rgbf000070-resize_2-target.png,depth_discrimination_stimuli/002788_2014-06-22_19-36-03_094959634447_rgbf000088-resize_2/002788_2014-06-22_19-36-03_094959634447_rgbf000088-resize_2-target.png,250.0,2.331,1.6465,1.0,1907,1007,247,1001,251,497,,532577,41,Woman
64,496800,DepthScenes,v2_duration_discrimination,discrim_jsons/Discrim250_randls_31_rotated.json,http://54.235.29.9/FacialAge/BNav_EC2/DepthDuration/v2_depth_discrimination_MTurk/v2_DepthDiscrim_HTML.html#52,52,1366,649,1366,768,9-21-2022,9-59-20,65,depth_discrimination_stimuli/002953_2014-06-08_17-32-18_094959634447_rgbf000059-resize_5/002953_2014-06-08_17-32-18_094959634447_rgbf000059-resize_5-target.png,depth_discrimination_stimuli/000878_2014-06-08_22-52-45_260595134347_rgbf000045-resize_2/000878_2014-06-08_22-52-45_260595134347_rgbf000045-resize_2-target.png,250.0,1.551,2.092,0.0,1206,1005,249,999,253,494,,532577,41,Woman
65,496800,DepthScenes,v2_duration_discrimination,discrim_jsons/Discrim250_randls_31_rotated.json,http://54.235.29.9/FacialAge/BNav_EC2/DepthDuration/v2_depth_discrimination_MTurk/v2_DepthDiscrim_HTML.html#52,52,1366,649,1366,768,9-21-2022,9-59-20,66,depth_discrimination_stimuli/002639_2014-06-24_14-51-37_094959634447_rgbf000074-resize_4/002639_2014-06-24_14-51-37_094959634447_rgbf000074-resize_4-target.png,depth_discrimination_stimuli/003292_2014-05-14_21-53-49_094959634447_rgbf000100-resize_2/003292_2014-05-14_21-53-49_094959634447_rgbf000100-resize_2-target.png,250.0,4.0375,3.4815,3.0,1103,1015,241,998,248,506,,532577,41,Woman
66,496800,DepthScenes,v2_duration_discrimination,discrim_jsons/Discrim250_randls_31_rotated.json,http://54.235.29.9/FacialAge/BNav_EC2/DepthDuration/v2_depth_discrimination_MTurk/v2_DepthDiscrim_HTML.html#52,52,1366,649,1366,768,9-21-2022,9-59-20,67,depth_discrimination_stimuli/000927_2014-06-09_16-32-30_260595134347_rgbf000123-resize_3/000927_2014-06-09_16-32-30_260595134347_rgbf000123-resize_3-target.png,depth_discrimination_stimuli/001110_2014-06-15_17-25-28_260595134347_rgbf000150-resize_1/001110_2014-06-15_17-25-28_260595134347_rgbf000150-resize_1-target.png,250.0,2.6785,1.7115,1.0,1158,1012,248,1000,250,498,,532577,41,Woman
67,496800,DepthScenes,v2_duration_discrimination,discrim_jsons/Discrim250_randls_31_rotated.json,http://54.235.29.9/FacialAge/BNav_EC2/DepthDuration/v2_depth_discrimination_MTurk/v2_DepthDiscrim_HTML.html#52,52,1366,649,1366,768,9-21-2022,9-59-20,68,depth_discrimination_stimuli/000409_2014-06-04_19-23-33_260595134347_rgbf000067-resize_0/000409_2014-06-04_19-23-33_260595134347_rgbf000067-resize_0-target.png,depth_discrimination_stimuli/002663_2014-06-13_15-50-26_094959634447_rgbf000075-resize_1/002663_2014-06-13_15-50-26_094959634447_rgbf000075-resize_1-target.png,250.0,3.7335,4.7495,0.0,1237,1010,245,1004,244,498,,532577,41,Woman
68,496800,DepthScenes,v2_duration_discrimination,discrim_jsons/Discrim250_randls_31_rotated.json,http://54.235.29.9/FacialAge/BNav_EC2/DepthDuration/v2_depth_discrimination_MTurk/v2_DepthDiscrim_HTML.html#52,52,1366,649,1366,768,9-21-2022,9-59-20,69,depth_discrimination_stimuli/002750_2014-06-22_19-08-03_094959634447_rgbf000094-resize_4/002750_2014-06-22_19-08-03_094959634447_rgbf000094-resize_4-target.png,depth_discrimination_stimuli/002549_2014-06-24_13-41-39_094959634447_rgbf000022-resize_3/002549_2014-06-24_13-41-39_094959634447_rgbf000022-resize_3-target.png,250.0,2.354,1.476,1.0,1247,1010,244,999,248,507,,532577,41,Woman
69,496800,DepthScenes,v2_duration_discrimination,discrim_jsons/Discrim250_randls_31_rotated.json,http://54.235.29.9/FacialAge/BNav_EC2/DepthDuration/v2_depth_discrimination_MTurk/v2_DepthDiscrim_HTML.html#52,52,1366,649,1366,768,9-21-2022,9-59-20,70,depth_discrimination_stimuli/002344_2014-06-28_20-06-29_260595134347_rgbf000030-resize_1/002344_2014-06-28_20-06-29_260595134347_rgbf000030-resize_1-target.png,depth_discrimination_stimuli/002725_2014-06-22_11-47-51_094959634447_rgbf000070-resize_1/002725_2014-06-22_11-47-51_094959634447_rgbf000070-resize_1-target.png,250.0,1.5795,2.195,0.0,1274,1001,254,1011,249,499,,532577,41,Woman
70,496800,DepthScenes,v2_duration_discrimination,discrim_jsons/Discrim250_randls_31_rotated.json,http://54.235.29.9/FacialAge/BNav_EC2/DepthDuration/v2_depth_discrimination_MTurk/v2_DepthDiscrim_HTML.html#52,52,1366,649,1366,768,9-21-2022,9-59-20,71,depth_discrimination_stimuli/000375_2014-06-08_11-17-29_260595134347_rgbf000133-resize_2/000375_2014-06-08_11-17-29_260595134347_rgbf000133-resize_2-target.png,depth_discrimination_stimuli/000375_2014-06-08_11-17-29_260595134347_rgbf000133-resize_2/000375_2014-06-08_11-17-29_260595134347_rgbf000133-resize_2-target.png,250.0,4.718,4.718,3.0,1303,1006,249,999,248,503,,532577,41,Woman
71,496800,DepthScenes,v2_duration_discrimination,discrim_jsons/Discrim250_randls_31_rotated.json,http://54.235.29.9/FacialAge/BNav_EC2/DepthDuration/v2_depth_discrimination_MTurk/v2_DepthDiscrim_HTML.html#52,52,1366,649,1366,768,9-21-2022,9-59-20,72,depth_discrimination_stimuli/000742_2014-06-08_18-48-09_260595134347_rgbf000164-resize_4/000742_2014-06-08_18-48-09_260595134347_rgbf000164-resize_4-target.png,depth_discrimination_stimuli/001066_2014-06-08_22-03-20_260595134347_rgbf000066-resize_4/001066_2014-06-08_22-03-20_260595134347_rgbf000066-resize_4-target.png,250.0,4.632,4.2330000000000005,3.0,1923,1004,255,1000,248,503,,532577,41,Woman
72,496800,DepthScenes,v2_duration_discrimination,discrim_jsons/Discrim250_randls_31_rotated.json,http://54.235.29.9/FacialAge/BNav_EC2/DepthDuration/v2_depth_discrimination_MTurk/v2_DepthDiscrim_HTML.html#52,52,1366,649,1366,768,9-21-2022,9-59-20,73,depth_discrimination_stimuli/002323_2014-06-28_20-01-54_260595134347_rgbf000051-resize_4/002323_2014-06-28_20-01-54_260595134347_rgbf000051-resize_4-target.png,depth_discrimination_stimuli/000917_2014-06-09_22-45-29_260595134347_rgbf000149-resize_3/000917_2014-06-09_22-45-29_260595134347_rgbf000149-resize_3-target.png,250.0,3.7310000000000003,4.1865,0.0,1654,1007,250,1004,245,498,,532577,41,Woman
73,496800,DepthScenes,v2_duration_discrimination,discrim_jsons/Discrim250_randls_31_rotated.json,http://54.235.29.9/FacialAge/BNav_EC2/DepthDuration/v2_depth_discrimination_MTurk/v2_DepthDiscrim_HTML.html#52,52,1366,649,1366,768,9-21-2022,9-59-20,74,depth_discrimination_stimuli/003048_2014-06-15_13-49-43_094959634447_rgbf000150-resize_1/003048_2014-06-15_13-49-43_094959634447_rgbf000150-resize_1-target.png,depth_discrimination_stimuli/002043_2014-06-24_20-29-38_260595134347_rgbf000039-resize_4/002043_2014-06-24_20-29-38_260595134347_rgbf000039-resize_4-target.png,250.0,4.0035,2.8435,3.0,1230,1012,269,970,256,494,,532577,41,Woman
74,496800,DepthScenes,v2_duration_discrimination,discrim_jsons/Discrim250_randls_31_rotated.json,http://54.235.29.9/FacialAge/BNav_EC2/DepthDuration/v2_depth_discrimination_MTurk/v2_DepthDiscrim_HTML.html#52,52,1366,649,1366,768,9-21-2022,9-59-20,75,depth_discrimination_stimuli/001032_2014-06-08_13-23-17_260595134347_rgbf000021-resize_3/001032_2014-06-08_13-23-17_260595134347_rgbf000021-resize_3-target.png,depth_discrimination_stimuli/001059_2014-06-08_21-53-27_260595134347_rgbf000061-resize_4/001059_2014-06-08_21-53-27_260595134347_rgbf000061-resize_4-target.png,250.0,3.2725,2.4185,0.0,1580,1007,252,998,258,490,,532577,41,Woman
75,496800,DepthScenes,v2_duration_discrimination,discrim_jsons/Discrim250_randls_31_rotated.json,http://54.235.29.9/FacialAge/BNav_EC2/DepthDuration/v2_depth_discrimination_MTurk/v2_DepthDiscrim_HTML.html#52,52,1366,649,1366,768,9-21-2022,9-59-20,76,depth_discrimination_stimuli/001392_2014-06-19_16-07-59_260595134347_rgbf000046-resize_1/001392_2014-06-19_16-07-59_260595134347_rgbf000046-resize_1-target.png,depth_discrimination_stimuli/001570_2014-06-20_17-21-09_260595134347_rgbf000135-resize_4/001570_2014-06-20_17-21-09_260595134347_rgbf000135-resize_4-target.png,250.0,4.135,4.467,0.0,1352,1006,245,999,263,489,,532577,41,Woman
76,496800,DepthScenes,v2_duration_discrimination,discrim_jsons/Discrim250_randls_31_rotated.json,http://54.235.29.9/FacialAge/BNav_EC2/DepthDuration/v2_depth_discrimination_MTurk/v2_DepthDiscrim_HTML.html#52,52,1366,649,1366,768,9-21-2022,9-59-20,77,depth_discrimination_stimuli/000191_2014-05-12_17-07-38_260595134347_rgbf000199-resize_0/000191_2014-05-12_17-07-38_260595134347_rgbf000199-resize_0-target.png,depth_discrimination_stimuli/000493_2014-06-09_21-01-18_260595134347_rgbf000196-resize_3/000493_2014-06-09_21-01-18_260595134347_rgbf000196-resize_3-target.png,250.0,3.7995,3.44,1.0,1070,1011,248,1000,249,500,,532577,41,Woman
77,496800,DepthScenes,v2_duration_discrimination,discrim_jsons/Discrim250_randls_31_rotated.json,http://54.235.29.9/FacialAge/BNav_EC2/DepthDuration/v2_depth_discrimination_MTurk/v2_DepthDiscrim_HTML.html#52,52,1366,649,1366,768,9-21-2022,9-59-20,78,depth_discrimination_stimuli/000677_2014-06-08_23-10-32_260595134347_rgbf000158-resize_6/000677_2014-06-08_23-10-32_260595134347_rgbf000158-resize_6-target.png,depth_discrimination_stimuli/001029_2014-06-08_13-17-57_260595134347_rgbf000065-resize_1/001029_2014-06-08_13-17-57_260595134347_rgbf000065-resize_1-target.png,250.0,3.556,3.0835,1.0,1509,1010,249,998,250,500,,532577,41,Woman
78,496800,DepthScenes,v2_duration_discrimination,discrim_jsons/Discrim250_randls_31_rotated.json,http://54.235.29.9/FacialAge/BNav_EC2/DepthDuration/v2_depth_discrimination_MTurk/v2_DepthDiscrim_HTML.html#52,52,1366,649,1366,768,9-21-2022,9-59-20,79,depth_discrimination_stimuli/000854_2014-06-09_19-43-13_260595134347_rgbf000066-resize_0/000854_2014-06-09_19-43-13_260595134347_rgbf000066-resize_0-target.png,depth_discrimination_stimuli/000758_2014-06-08_22-05-08_260595134347_rgbf000085-resize_0/000758_2014-06-08_22-05-08_260595134347_rgbf000085-resize_0-target.png,250.0,3.068,3.3810000000000002,0.0,1361,1007,249,1005,243,499,,532577,41,Woman
79,496800,DepthScenes,v2_duration_discrimination,discrim_jsons/Discrim250_randls_31_rotated.json,http://54.235.29.9/FacialAge/BNav_EC2/DepthDuration/v2_depth_discrimination_MTurk/v2_DepthDiscrim_HTML.html#52,52,1366,649,1366,768,9-21-2022,9-59-20,80,depth_discrimination_stimuli/000569_2014-06-09_22-51-47_260595134347_rgbf000141-resize_3/000569_2014-06-09_22-51-47_260595134347_rgbf000141-resize_3-target.png,depth_discrimination_stimuli/000569_2014-06-09_22-51-47_260595134347_rgbf000141-resize_3/000569_2014-06-09_22-51-47_260595134347_rgbf000141-resize_3-target.png,250.0,4.512,4.512,3.0,993,1012,250,1006,236,499,,532577,41,Woman
80,496800,DepthScenes,v2_duration_discrimination,discrim_jsons/Discrim250_randls_31_rotated.json,http://54.235.29.9/FacialAge/BNav_EC2/DepthDuration/v2_depth_discrimination_MTurk/v2_DepthDiscrim_HTML.html#52,52,1366,649,1366,768,9-21-2022,9-59-20,81,depth_discrimination_stimuli/003490_2014-05-21_15-50-11_094959634447_rgbf000101-resize_3/003490_2014-05-21_15-50-11_094959634447_rgbf000101-resize_3-target.png,depth_discrimination_stimuli/001175_2014-06-17_15-45-55_260595134347_rgbf000129-resize_4/001175_2014-06-17_15-45-55_260595134347_rgbf000129-resize_4-target.png,250.0,3.6445,4.255,0.0,1088,1011,248,998,270,481,,532577,41,Woman
81,496800,DepthScenes,v2_duration_discrimination,discrim_jsons/Discrim250_randls_31_rotated.json,http://54.235.29.9/FacialAge/BNav_EC2/DepthDuration/v2_depth_discrimination_MTurk/v2_DepthDiscrim_HTML.html#52,52,1366,649,1366,768,9-21-2022,9-59-20,82,depth_discrimination_stimuli/000866_2014-06-09_20-45-42_260595134347_rgbf000139-resize_1/000866_2014-06-09_20-45-42_260595134347_rgbf000139-resize_1-target.png,depth_discrimination_stimuli/002989_2014-06-15_12-25-03_094959634447_rgbf000150-resize_3/002989_2014-06-15_12-25-03_094959634447_rgbf000150-resize_3-target.png,250.0,3.2155,4.1975,0.0,1174,1012,249,997,251,498,,532577,41,Woman
82,496800,DepthScenes,v2_duration_discrimination,discrim_jsons/Discrim250_randls_31_rotated.json,http://54.235.29.9/FacialAge/BNav_EC2/DepthDuration/v2_depth_discrimination_MTurk/v2_DepthDiscrim_HTML.html#52,52,1366,649,1366,768,9-21-2022,9-59-20,83,depth_discrimination_stimuli/000780_2014-06-08_22-28-29_260595134347_rgbf000126-resize_1/000780_2014-06-08_22-28-29_260595134347_rgbf000126-resize_1-target.png,depth_discrimination_stimuli/002445_2014-06-28_20-32-16_260595134347_rgbf000029-resize_4/002445_2014-06-28_20-32-16_260595134347_rgbf000029-resize_4-target.png,250.0,3.3825,2.5315,0.0,1187,1011,247,1011,238,499,,532577,41,Woman
83,496800,DepthScenes,v2_duration_discrimination,discrim_jsons/Discrim250_randls_31_rotated.json,http://54.235.29.9/FacialAge/BNav_EC2/DepthDuration/v2_depth_discrimination_MTurk/v2_DepthDiscrim_HTML.html#52,52,1366,649,1366,768,9-21-2022,9-59-20,84,depth_discrimination_stimuli/003228_2014-05-14_13-42-35_094959634447_rgbf000101-resize_1/003228_2014-05-14_13-42-35_094959634447_rgbf000101-resize_1-target.png,depth_discrimination_stimuli/002600_2014-06-24_14-27-04_094959634447_rgbf000074-resize_2/002600_2014-06-24_14-27-04_094959634447_rgbf000074-resize_2-target.png,250.0,1.9680000000000002,2.7575,3.0,1337,1003,259,1000,248,501,,532577,41,Woman
84,496800,DepthScenes,v2_duration_discrimination,discrim_jsons/Discrim250_randls_31_rotated.json,http://54.235.29.9/FacialAge/BNav_EC2/DepthDuration/v2_depth_discrimination_MTurk/v2_DepthDiscrim_HTML.html#52,52,1366,649,1366,768,9-21-2022,9-59-20,85,depth_discrimination_stimuli/002425_2014-06-28_20-27-29_260595134347_rgbf000031-resize_8/002425_2014-06-28_20-27-29_260595134347_rgbf000031-resize_8-target.png,depth_discrimination_stimuli/000642_2014-06-08_16-59-25_260595134347_rgbf000098-resize_2/000642_2014-06-08_16-59-25_260595134347_rgbf000098-resize_2-target.png,250.0,3.8960000000000004,2.8815,1.0,1291,1009,242,1007,249,500,,532577,41,Woman
85,496800,DepthScenes,v2_duration_discrimination,discrim_jsons/Discrim250_randls_31_rotated.json,http://54.235.29.9/FacialAge/BNav_EC2/DepthDuration/v2_depth_discrimination_MTurk/v2_DepthDiscrim_HTML.html#52,52,1366,649,1366,768,9-21-2022,9-59-20,86,depth_discrimination_stimuli/002199_2014-06-28_18-33-56_260595134347_rgbf000074-resize_0/002199_2014-06-28_18-33-56_260595134347_rgbf000074-resize_0-target.png,depth_discrimination_stimuli/001056_2014-06-08_18-46-44_260595134347_rgbf000068-resize_0/001056_2014-06-08_18-46-44_260595134347_rgbf000068-resize_0-target.png,250.0,1.996,2.6625,0.0,1059,1006,249,999,250,499,,532577,41,Woman
86,496800,DepthScenes,v2_duration_discrimination,discrim_jsons/Discrim250_randls_31_rotated.json,http://54.235.29.9/FacialAge/BNav_EC2/DepthDuration/v2_depth_discrimination_MTurk/v2_DepthDiscrim_HTML.html#52,52,1366,649,1366,768,9-21-2022,9-59-20,86,,,,,,,1059,1006,249,999,250,499,,532577,41,Woman
