,subjID,experimentName,versionName,sequenceName,url,selected_row,windowWidth,windowHeight,screenWidth,screenHeight,startDate,startTime,trial,stimulus_0,stimulus_1,duration,actual_depth_0,actual_depth_1,discrim_choice,trial_RT,log_fixation,log_sceneDuration1,log_mask1,log_sceneDuration2,log_mask2,experimentTime,totalTime,age,gender
0,517056,DepthScenes,v2_duration_discrimination,discrim_jsons/Discrim1000_randls_49_rotated.json,http://54.235.29.9/FacialAge/BNav_EC2/DepthDuration/v2_depth_discrimination_MTurk/v2_DepthDiscrim_HTML.html#456,456,1366,625,1366,768,9-21-2022,11-7-0,1,depth_discrimination_stimuli/000665_2014-06-09_20-42-35_260595134347_rgbf000110-resize_1/000665_2014-06-09_20-42-35_260595134347_rgbf000110-resize_1-target.png,depth_discrimination_stimuli/001150_2014-06-17_15-27-34_260595134347_rgbf000108-resize_2/001150_2014-06-17_15-27-34_260595134347_rgbf000108-resize_2-target.png,1000.0,3.057,4.0325,3.0,3977,1029,972,1008,1001,500,,1232452,34,Woman
1,517056,DepthScenes,v2_duration_discrimination,discrim_jsons/Discrim1000_randls_49_rotated.json,http://54.235.29.9/FacialAge/BNav_EC2/DepthDuration/v2_depth_discrimination_MTurk/v2_DepthDiscrim_HTML.html#456,456,1366,625,1366,768,9-21-2022,11-7-0,2,depth_discrimination_stimuli/002444_2014-06-28_20-32-08_260595134347_rgbf000027-resize_0/002444_2014-06-28_20-32-08_260595134347_rgbf000027-resize_0-target.png,depth_discrimination_stimuli/000436_2014-06-09_22-25-11_260595134347_rgbf000137-resize_1/000436_2014-06-09_22-25-11_260595134347_rgbf000137-resize_1-target.png,1000.0,4.388999999999999,4.0705,0.0,3866,1010,992,1007,997,502,,1232452,34,Woman
2,517056,DepthScenes,v2_duration_discrimination,discrim_jsons/Discrim1000_randls_49_rotated.json,http://54.235.29.9/FacialAge/BNav_EC2/DepthDuration/v2_depth_discrimination_MTurk/v2_DepthDiscrim_HTML.html#456,456,1366,625,1366,768,9-21-2022,11-7-0,3,depth_discrimination_stimuli/001032_2014-06-08_13-23-17_260595134347_rgbf000021-resize_3/001032_2014-06-08_13-23-17_260595134347_rgbf000021-resize_3-target.png,depth_discrimination_stimuli/001059_2014-06-08_21-53-27_260595134347_rgbf000061-resize_4/001059_2014-06-08_21-53-27_260595134347_rgbf000061-resize_4-target.png,1000.0,3.2725,2.4185,0.0,4121,1000,1002,1005,998,503,,1232452,34,Woman
3,517056,DepthScenes,v2_duration_discrimination,discrim_jsons/Discrim1000_randls_49_rotated.json,http://54.235.29.9/FacialAge/BNav_EC2/DepthDuration/v2_depth_discrimination_MTurk/v2_DepthDiscrim_HTML.html#456,456,1366,625,1366,768,9-21-2022,11-7-0,4,depth_discrimination_stimuli/002323_2014-06-28_20-01-54_260595134347_rgbf000051-resize_4/002323_2014-06-28_20-01-54_260595134347_rgbf000051-resize_4-target.png,depth_discrimination_stimuli/000917_2014-06-09_22-45-29_260595134347_rgbf000149-resize_3/000917_2014-06-09_22-45-29_260595134347_rgbf000149-resize_3-target.png,1000.0,3.7310000000000003,4.1865,1.0,3533,1012,1004,987,998,504,,1232452,34,Woman
4,517056,DepthScenes,v2_duration_discrimination,discrim_jsons/Discrim1000_randls_49_rotated.json,http://54.235.29.9/FacialAge/BNav_EC2/DepthDuration/v2_depth_discrimination_MTurk/v2_DepthDiscrim_HTML.html#456,456,1366,625,1366,768,9-21-2022,11-7-0,5,depth_discrimination_stimuli/000691_2014-06-08_13-08-50_260595134347_rgbf000132-resize_3/000691_2014-06-08_13-08-50_260595134347_rgbf000132-resize_3-target.png,depth_discrimination_stimuli/002213_2014-06-28_18-37-58_260595134347_rgbf000055-resize_1/002213_2014-06-28_18-37-58_260595134347_rgbf000055-resize_1-target.png,1000.0,4.1530000000000005,3.62,1.0,3188,1002,1003,1002,1006,503,,1232452,34,Woman
5,517056,DepthScenes,v2_duration_discrimination,discrim_jsons/Discrim1000_randls_49_rotated.json,http://54.235.29.9/FacialAge/BNav_EC2/DepthDuration/v2_depth_discrimination_MTurk/v2_DepthDiscrim_HTML.html#456,456,1366,625,1366,768,9-21-2022,11-7-0,6,depth_discrimination_stimuli/000457_2014-06-08_16-52-43_260595134347_rgbf000199-resize_1/000457_2014-06-08_16-52-43_260595134347_rgbf000199-resize_1-target.png,depth_discrimination_stimuli/000929_2014-06-09_16-33-19_260595134347_rgbf000139-resize_0/000929_2014-06-09_16-33-19_260595134347_rgbf000139-resize_0-target.png,1000.0,3.6489999999999996,2.8680000000000003,1.0,2695,1015,991,999,1006,498,,1232452,34,Woman
6,517056,DepthScenes,v2_duration_discrimination,discrim_jsons/Discrim1000_randls_49_rotated.json,http://54.235.29.9/FacialAge/BNav_EC2/DepthDuration/v2_depth_discrimination_MTurk/v2_DepthDiscrim_HTML.html#456,456,1366,625,1366,768,9-21-2022,11-7-0,7,depth_discrimination_stimuli/001584_2014-06-20_11-07-43_260595134347_rgbf000002-resize_1/001584_2014-06-20_11-07-43_260595134347_rgbf000002-resize_1-target.png,depth_discrimination_stimuli/003621_2014-05-23_18-06-08_094959634447_rgbf000101-resize_1/003621_2014-05-23_18-06-08_094959634447_rgbf000101-resize_1-target.png,1000.0,3.53,3.9835,0.0,3271,1002,1014,986,998,500,,1232452,34,Woman
7,517056,DepthScenes,v2_duration_discrimination,discrim_jsons/Discrim1000_randls_49_rotated.json,http://54.235.29.9/FacialAge/BNav_EC2/DepthDuration/v2_depth_discrimination_MTurk/v2_DepthDiscrim_HTML.html#456,456,1366,625,1366,768,9-21-2022,11-7-0,8,depth_discrimination_stimuli/003228_2014-05-14_13-42-35_094959634447_rgbf000101-resize_1/003228_2014-05-14_13-42-35_094959634447_rgbf000101-resize_1-target.png,depth_discrimination_stimuli/002600_2014-06-24_14-27-04_094959634447_rgbf000074-resize_2/002600_2014-06-24_14-27-04_094959634447_rgbf000074-resize_2-target.png,1000.0,1.9680000000000002,2.7575,0.0,2633,1001,1000,1000,1000,500,,1232452,34,Woman
8,517056,DepthScenes,v2_duration_discrimination,discrim_jsons/Discrim1000_randls_49_rotated.json,http://54.235.29.9/FacialAge/BNav_EC2/DepthDuration/v2_depth_discrimination_MTurk/v2_DepthDiscrim_HTML.html#456,456,1366,625,1366,768,9-21-2022,11-7-0,9,depth_discrimination_stimuli/000191_2014-05-12_17-07-38_260595134347_rgbf000199-resize_0/000191_2014-05-12_17-07-38_260595134347_rgbf000199-resize_0-target.png,depth_discrimination_stimuli/000493_2014-06-09_21-01-18_260595134347_rgbf000196-resize_3/000493_2014-06-09_21-01-18_260595134347_rgbf000196-resize_3-target.png,1000.0,3.7995,3.44,1.0,20478,1002,999,1011,989,500,,1232452,34,Woman
9,517056,DepthScenes,v2_duration_discrimination,discrim_jsons/Discrim1000_randls_49_rotated.json,http://54.235.29.9/FacialAge/BNav_EC2/DepthDuration/v2_depth_discrimination_MTurk/v2_DepthDiscrim_HTML.html#456,456,1366,625,1366,768,9-21-2022,11-7-0,10,depth_discrimination_stimuli/001498_2014-06-19_17-45-14_260595134347_rgbf000129-resize_4/001498_2014-06-19_17-45-14_260595134347_rgbf000129-resize_4-target.png,depth_discrimination_stimuli/001498_2014-06-19_17-45-14_260595134347_rgbf000129-resize_4/001498_2014-06-19_17-45-14_260595134347_rgbf000129-resize_4-target.png,1000.0,1.4075,1.4075,3.0,2667,1001,1009,990,1007,504,,1232452,34,Woman
10,517056,DepthScenes,v2_duration_discrimination,discrim_jsons/Discrim1000_randls_49_rotated.json,http://54.235.29.9/FacialAge/BNav_EC2/DepthDuration/v2_depth_discrimination_MTurk/v2_DepthDiscrim_HTML.html#456,456,1366,625,1366,768,9-21-2022,11-7-0,11,depth_discrimination_stimuli/000635_2014-06-08_16-38-42_260595134347_rgbf000106-resize_1/000635_2014-06-08_16-38-42_260595134347_rgbf000106-resize_1-target.png,depth_discrimination_stimuli/002279_2014-06-28_18-55-32_260595134347_rgbf000040-resize_5/002279_2014-06-28_18-55-32_260595134347_rgbf000040-resize_5-target.png,1000.0,2.074,1.5043333333333,1.0,3359,1013,987,1002,1011,488,,1232452,34,Woman
11,517056,DepthScenes,v2_duration_discrimination,discrim_jsons/Discrim1000_randls_49_rotated.json,http://54.235.29.9/FacialAge/BNav_EC2/DepthDuration/v2_depth_discrimination_MTurk/v2_DepthDiscrim_HTML.html#456,456,1366,625,1366,768,9-21-2022,11-7-0,12,depth_discrimination_stimuli/002545_2014-06-24_13-38-53_094959634447_rgbf000080-resize_4/002545_2014-06-24_13-38-53_094959634447_rgbf000080-resize_4-target.png,depth_discrimination_stimuli/001092_2014-06-15_17-34-58_260595134347_rgbf000171-resize_3/001092_2014-06-15_17-34-58_260595134347_rgbf000171-resize_3-target.png,1000.0,1.9205,2.6935,0.0,6105,1003,1012,992,1003,491,,1232452,34,Woman
12,517056,DepthScenes,v2_duration_discrimination,discrim_jsons/Discrim1000_randls_49_rotated.json,http://54.235.29.9/FacialAge/BNav_EC2/DepthDuration/v2_depth_discrimination_MTurk/v2_DepthDiscrim_HTML.html#456,456,1366,625,1366,768,9-21-2022,11-7-0,13,depth_discrimination_stimuli/002758_2014-06-22_19-11-20_094959634447_rgbf000128-resize_1/002758_2014-06-22_19-11-20_094959634447_rgbf000128-resize_1-target.png,depth_discrimination_stimuli/002630_2014-06-24_14-47-50_094959634447_rgbf000055-resize_1/002630_2014-06-24_14-47-50_094959634447_rgbf000055-resize_1-target.png,1000.0,2.555,3.0095,1.0,2536,1004,998,1014,998,496,,1232452,34,Woman
13,517056,DepthScenes,v2_duration_discrimination,discrim_jsons/Discrim1000_randls_49_rotated.json,http://54.235.29.9/FacialAge/BNav_EC2/DepthDuration/v2_depth_discrimination_MTurk/v2_DepthDiscrim_HTML.html#456,456,1366,625,1366,768,9-21-2022,11-7-0,14,depth_discrimination_stimuli/002875_2014-06-01_15-19-00_094959634447_rgbf000151-resize_1/002875_2014-06-01_15-19-00_094959634447_rgbf000151-resize_1-target.png,depth_discrimination_stimuli/001011_2014-06-08_23-18-54_260595134347_rgbf000044-resize_4/001011_2014-06-08_23-18-54_260595134347_rgbf000044-resize_4-target.png,1000.0,1.9675,2.4730000000000003,0.0,2284,1012,1003,988,1009,496,,1232452,34,Woman
14,517056,DepthScenes,v2_duration_discrimination,discrim_jsons/Discrim1000_randls_49_rotated.json,http://54.235.29.9/FacialAge/BNav_EC2/DepthDuration/v2_depth_discrimination_MTurk/v2_DepthDiscrim_HTML.html#456,456,1366,625,1366,768,9-21-2022,11-7-0,15,depth_discrimination_stimuli/000709_2014-06-08_13-51-55_260595134347_rgbf000068-resize_3/000709_2014-06-08_13-51-55_260595134347_rgbf000068-resize_3-target.png,depth_discrimination_stimuli/002057_2014-06-24_21-00-13_260595134347_rgbf000120-resize_1/002057_2014-06-24_21-00-13_260595134347_rgbf000120-resize_1-target.png,1000.0,1.8030000000000002,2.967,0.0,2891,1004,1006,997,1005,502,,1232452,34,Woman
15,517056,DepthScenes,v2_duration_discrimination,discrim_jsons/Discrim1000_randls_49_rotated.json,http://54.235.29.9/FacialAge/BNav_EC2/DepthDuration/v2_depth_discrimination_MTurk/v2_DepthDiscrim_HTML.html#456,456,1366,625,1366,768,9-21-2022,11-7-0,16,depth_discrimination_stimuli/002072_2014-06-24_21-48-06_260595134347_rgbf000115-resize_0/002072_2014-06-24_21-48-06_260595134347_rgbf000115-resize_0-target.png,depth_discrimination_stimuli/002072_2014-06-24_21-48-06_260595134347_rgbf000115-resize_0/002072_2014-06-24_21-48-06_260595134347_rgbf000115-resize_0-target.png,1000.0,4.702,4.702,3.0,2424,1014,990,1002,999,500,,1232452,34,Woman
16,517056,DepthScenes,v2_duration_discrimination,discrim_jsons/Discrim1000_randls_49_rotated.json,http://54.235.29.9/FacialAge/BNav_EC2/DepthDuration/v2_depth_discrimination_MTurk/v2_DepthDiscrim_HTML.html#456,456,1366,625,1366,768,9-21-2022,11-7-0,17,depth_discrimination_stimuli/001516_2014-06-20_16-25-09_260595134347_rgbf000076-resize_2/001516_2014-06-20_16-25-09_260595134347_rgbf000076-resize_2-target.png,depth_discrimination_stimuli/002118_2014-06-25_20-32-08_260595134347_rgbf000078-resize_1/002118_2014-06-25_20-32-08_260595134347_rgbf000078-resize_1-target.png,1000.0,1.7445,2.6460000000000004,0.0,2366,1001,999,1001,999,500,,1232452,34,Woman
17,517056,DepthScenes,v2_duration_discrimination,discrim_jsons/Discrim1000_randls_49_rotated.json,http://54.235.29.9/FacialAge/BNav_EC2/DepthDuration/v2_depth_discrimination_MTurk/v2_DepthDiscrim_HTML.html#456,456,1366,625,1366,768,9-21-2022,11-7-0,18,depth_discrimination_stimuli/000854_2014-06-09_19-43-13_260595134347_rgbf000066-resize_0/000854_2014-06-09_19-43-13_260595134347_rgbf000066-resize_0-target.png,depth_discrimination_stimuli/000758_2014-06-08_22-05-08_260595134347_rgbf000085-resize_0/000758_2014-06-08_22-05-08_260595134347_rgbf000085-resize_0-target.png,1000.0,3.068,3.3810000000000002,0.0,2875,1003,998,1004,998,502,,1232452,34,Woman
18,517056,DepthScenes,v2_duration_discrimination,discrim_jsons/Discrim1000_randls_49_rotated.json,http://54.235.29.9/FacialAge/BNav_EC2/DepthDuration/v2_depth_discrimination_MTurk/v2_DepthDiscrim_HTML.html#456,456,1366,625,1366,768,9-21-2022,11-7-0,19,depth_discrimination_stimuli/000137_2014-05-20_17-04-49_260595134347_rgbf000120-resize_1/000137_2014-05-20_17-04-49_260595134347_rgbf000120-resize_1-target.png,depth_discrimination_stimuli/000736_2014-06-08_18-24-15_260595134347_rgbf000206-resize_3/000736_2014-06-08_18-24-15_260595134347_rgbf000206-resize_3-target.png,1000.0,3.786,3.515,1.0,3675,1012,991,1002,995,505,,1232452,34,Woman
19,517056,DepthScenes,v2_duration_discrimination,discrim_jsons/Discrim1000_randls_49_rotated.json,http://54.235.29.9/FacialAge/BNav_EC2/DepthDuration/v2_depth_discrimination_MTurk/v2_DepthDiscrim_HTML.html#456,456,1366,625,1366,768,9-21-2022,11-7-0,20,depth_discrimination_stimuli/002199_2014-06-28_18-33-56_260595134347_rgbf000074-resize_0/002199_2014-06-28_18-33-56_260595134347_rgbf000074-resize_0-target.png,depth_discrimination_stimuli/001056_2014-06-08_18-46-44_260595134347_rgbf000068-resize_0/001056_2014-06-08_18-46-44_260595134347_rgbf000068-resize_0-target.png,1000.0,1.996,2.6625,0.0,2563,1009,992,1014,998,502,,1232452,34,Woman
20,517056,DepthScenes,v2_duration_discrimination,discrim_jsons/Discrim1000_randls_49_rotated.json,http://54.235.29.9/FacialAge/BNav_EC2/DepthDuration/v2_depth_discrimination_MTurk/v2_DepthDiscrim_HTML.html#456,456,1366,625,1366,768,9-21-2022,11-7-0,21,depth_discrimination_stimuli/000409_2014-06-04_19-23-33_260595134347_rgbf000067-resize_0/000409_2014-06-04_19-23-33_260595134347_rgbf000067-resize_0-target.png,depth_discrimination_stimuli/002663_2014-06-13_15-50-26_094959634447_rgbf000075-resize_1/002663_2014-06-13_15-50-26_094959634447_rgbf000075-resize_1-target.png,1000.0,3.7335,4.7495,1.0,2768,1008,1005,1000,989,514,,1232452,34,Woman
21,517056,DepthScenes,v2_duration_discrimination,discrim_jsons/Discrim1000_randls_49_rotated.json,http://54.235.29.9/FacialAge/BNav_EC2/DepthDuration/v2_depth_discrimination_MTurk/v2_DepthDiscrim_HTML.html#456,456,1366,625,1366,768,9-21-2022,11-7-0,22,depth_discrimination_stimuli/001052_2014-06-08_18-24-54_260595134347_rgbf000130-resize_1/001052_2014-06-08_18-24-54_260595134347_rgbf000130-resize_1-target.png,depth_discrimination_stimuli/002988_2014-06-15_12-24-20_094959634447_rgbf000150-resize_1/002988_2014-06-15_12-24-20_094959634447_rgbf000150-resize_1-target.png,1000.0,4.1045,4.7669999999999995,0.0,2379,1003,999,1001,1011,488,,1232452,34,Woman
22,517056,DepthScenes,v2_duration_discrimination,discrim_jsons/Discrim1000_randls_49_rotated.json,http://54.235.29.9/FacialAge/BNav_EC2/DepthDuration/v2_depth_discrimination_MTurk/v2_DepthDiscrim_HTML.html#456,456,1366,625,1366,768,9-21-2022,11-7-0,23,depth_discrimination_stimuli/002750_2014-06-22_19-08-03_094959634447_rgbf000094-resize_4/002750_2014-06-22_19-08-03_094959634447_rgbf000094-resize_4-target.png,depth_discrimination_stimuli/002549_2014-06-24_13-41-39_094959634447_rgbf000022-resize_3/002549_2014-06-24_13-41-39_094959634447_rgbf000022-resize_3-target.png,1000.0,2.354,1.476,1.0,2501,1015,994,1000,1005,490,,1232452,34,Woman
23,517056,DepthScenes,v2_duration_discrimination,discrim_jsons/Discrim1000_randls_49_rotated.json,http://54.235.29.9/FacialAge/BNav_EC2/DepthDuration/v2_depth_discrimination_MTurk/v2_DepthDiscrim_HTML.html#456,456,1366,625,1366,768,9-21-2022,11-7-0,24,depth_discrimination_stimuli/001392_2014-06-19_16-07-59_260595134347_rgbf000046-resize_1/001392_2014-06-19_16-07-59_260595134347_rgbf000046-resize_1-target.png,depth_discrimination_stimuli/001570_2014-06-20_17-21-09_260595134347_rgbf000135-resize_4/001570_2014-06-20_17-21-09_260595134347_rgbf000135-resize_4-target.png,1000.0,4.135,4.467,1.0,2487,1014,988,1003,1008,493,,1232452,34,Woman
24,517056,DepthScenes,v2_duration_discrimination,discrim_jsons/Discrim1000_randls_49_rotated.json,http://54.235.29.9/FacialAge/BNav_EC2/DepthDuration/v2_depth_discrimination_MTurk/v2_DepthDiscrim_HTML.html#456,456,1366,625,1366,768,9-21-2022,11-7-0,25,depth_discrimination_stimuli/001571_2014-06-20_17-21-32_260595134347_rgbf000089-resize_1/001571_2014-06-20_17-21-32_260595134347_rgbf000089-resize_1-target.png,depth_discrimination_stimuli/002272_2014-06-28_18-53-56_260595134347_rgbf000067-resize_2/002272_2014-06-28_18-53-56_260595134347_rgbf000067-resize_2-target.png,1000.0,1.86,1.138,1.0,2279,1002,1007,998,1008,493,,1232452,34,Woman
25,517056,DepthScenes,v2_duration_discrimination,discrim_jsons/Discrim1000_randls_49_rotated.json,http://54.235.29.9/FacialAge/BNav_EC2/DepthDuration/v2_depth_discrimination_MTurk/v2_DepthDiscrim_HTML.html#456,456,1366,625,1366,768,9-21-2022,11-7-0,26,depth_discrimination_stimuli/001170_2014-06-17_15-43-44_260595134347_rgbf000096-resize_6/001170_2014-06-17_15-43-44_260595134347_rgbf000096-resize_6-target.png,depth_discrimination_stimuli/001170_2014-06-17_15-43-44_260595134347_rgbf000096-resize_6/001170_2014-06-17_15-43-44_260595134347_rgbf000096-resize_6-target.png,1000.0,1.1909999999999998,1.1909999999999998,3.0,2208,1003,1001,1004,1001,492,,1232452,34,Woman
26,517056,DepthScenes,v2_duration_discrimination,discrim_jsons/Discrim1000_randls_49_rotated.json,http://54.235.29.9/FacialAge/BNav_EC2/DepthDuration/v2_depth_discrimination_MTurk/v2_DepthDiscrim_HTML.html#456,456,1366,625,1366,768,9-21-2022,11-7-0,27,depth_discrimination_stimuli/000742_2014-06-08_18-48-09_260595134347_rgbf000164-resize_4/000742_2014-06-08_18-48-09_260595134347_rgbf000164-resize_4-target.png,depth_discrimination_stimuli/001066_2014-06-08_22-03-20_260595134347_rgbf000066-resize_4/001066_2014-06-08_22-03-20_260595134347_rgbf000066-resize_4-target.png,1000.0,4.632,4.2330000000000005,3.0,8903,1006,1004,1003,1000,503,,1232452,34,Woman
27,517056,DepthScenes,v2_duration_discrimination,discrim_jsons/Discrim1000_randls_49_rotated.json,http://54.235.29.9/FacialAge/BNav_EC2/DepthDuration/v2_depth_discrimination_MTurk/v2_DepthDiscrim_HTML.html#456,456,1366,625,1366,768,9-21-2022,11-7-0,28,depth_discrimination_stimuli/000780_2014-06-08_22-28-29_260595134347_rgbf000126-resize_1/000780_2014-06-08_22-28-29_260595134347_rgbf000126-resize_1-target.png,depth_discrimination_stimuli/002445_2014-06-28_20-32-16_260595134347_rgbf000029-resize_4/002445_2014-06-28_20-32-16_260595134347_rgbf000029-resize_4-target.png,1000.0,3.3825,2.5315,0.0,8107,1010,991,1001,1008,495,,1232452,34,Woman
28,517056,DepthScenes,v2_duration_discrimination,discrim_jsons/Discrim1000_randls_49_rotated.json,http://54.235.29.9/FacialAge/BNav_EC2/DepthDuration/v2_depth_discrimination_MTurk/v2_DepthDiscrim_HTML.html#456,456,1366,625,1366,768,9-21-2022,11-7-0,29,depth_discrimination_stimuli/002995_2014-06-15_12-31-26_094959634447_rgbf000150-resize_1/002995_2014-06-15_12-31-26_094959634447_rgbf000150-resize_1-target.png,depth_discrimination_stimuli/002748_2014-06-22_19-07-22_094959634447_rgbf000078-resize_1/002748_2014-06-22_19-07-22_094959634447_rgbf000078-resize_1-target.png,1000.0,3.8360000000000003,4.6705,0.0,21457,1007,1007,987,1007,495,,1232452,34,Woman
29,517056,DepthScenes,v2_duration_discrimination,discrim_jsons/Discrim1000_randls_49_rotated.json,http://54.235.29.9/FacialAge/BNav_EC2/DepthDuration/v2_depth_discrimination_MTurk/v2_DepthDiscrim_HTML.html#456,456,1366,625,1366,768,9-21-2022,11-7-0,30,depth_discrimination_stimuli/002949_2014-06-26_15-57-42_094959634447_rgbf000079-resize_1/002949_2014-06-26_15-57-42_094959634447_rgbf000079-resize_1-target.png,depth_discrimination_stimuli/000522_2014-06-08_13-35-06_260595134347_rgbf000244-resize_1/000522_2014-06-08_13-35-06_260595134347_rgbf000244-resize_1-target.png,1000.0,1.8915,2.3715,1.0,2751,1017,985,1000,1012,488,,1232452,34,Woman
30,517056,DepthScenes,v2_duration_discrimination,discrim_jsons/Discrim1000_randls_49_rotated.json,http://54.235.29.9/FacialAge/BNav_EC2/DepthDuration/v2_depth_discrimination_MTurk/v2_DepthDiscrim_HTML.html#456,456,1366,625,1366,768,9-21-2022,11-7-0,31,depth_discrimination_stimuli/002660_2014-06-13_15-44-18_094959634447_rgbf001878-resize_2/002660_2014-06-13_15-44-18_094959634447_rgbf001878-resize_2-target.png,depth_discrimination_stimuli/002153_2014-06-25_21-27-18_260595134347_rgbf000038-resize_5/002153_2014-06-25_21-27-18_260595134347_rgbf000038-resize_5-target.png,1000.0,3.576,2.505,1.0,2593,1005,1010,986,1003,503,,1232452,34,Woman
31,517056,DepthScenes,v2_duration_discrimination,discrim_jsons/Discrim1000_randls_49_rotated.json,http://54.235.29.9/FacialAge/BNav_EC2/DepthDuration/v2_depth_discrimination_MTurk/v2_DepthDiscrim_HTML.html#456,456,1366,625,1366,768,9-21-2022,11-7-0,32,depth_discrimination_stimuli/001450_2014-06-19_17-02-03_260595134347_rgbf000203-resize_4/001450_2014-06-19_17-02-03_260595134347_rgbf000203-resize_4-target.png,depth_discrimination_stimuli/001449_2014-06-19_17-01-27_260595134347_rgbf000116-resize_2/001449_2014-06-19_17-01-27_260595134347_rgbf000116-resize_2-target.png,1000.0,4.0106666666667,3.452,1.0,3027,1001,1002,1011,989,500,,1232452,34,Woman
32,517056,DepthScenes,v2_duration_discrimination,discrim_jsons/Discrim1000_randls_49_rotated.json,http://54.235.29.9/FacialAge/BNav_EC2/DepthDuration/v2_depth_discrimination_MTurk/v2_DepthDiscrim_HTML.html#456,456,1366,625,1366,768,9-21-2022,11-7-0,33,depth_discrimination_stimuli/003495_2014-05-21_16-01-51_094959634447_rgbf000100-resize_3/003495_2014-05-21_16-01-51_094959634447_rgbf000100-resize_3-target.png,depth_discrimination_stimuli/001244_2014-06-17_16-47-45_260595134347_rgbf000030-resize_4/001244_2014-06-17_16-47-45_260595134347_rgbf000030-resize_4-target.png,1000.0,1.6255,2.0425,0.0,2178,1010,993,1011,998,489,,1232452,34,Woman
33,517056,DepthScenes,v2_duration_discrimination,discrim_jsons/Discrim1000_randls_49_rotated.json,http://54.235.29.9/FacialAge/BNav_EC2/DepthDuration/v2_depth_discrimination_MTurk/v2_DepthDiscrim_HTML.html#456,456,1366,625,1366,768,9-21-2022,11-7-0,34,depth_discrimination_stimuli/002639_2014-06-24_14-51-37_094959634447_rgbf000074-resize_4/002639_2014-06-24_14-51-37_094959634447_rgbf000074-resize_4-target.png,depth_discrimination_stimuli/003292_2014-05-14_21-53-49_094959634447_rgbf000100-resize_2/003292_2014-05-14_21-53-49_094959634447_rgbf000100-resize_2-target.png,1000.0,4.0375,3.4815,1.0,3258,1005,1002,1003,1003,489,,1232452,34,Woman
34,517056,DepthScenes,v2_duration_discrimination,discrim_jsons/Discrim1000_randls_49_rotated.json,http://54.235.29.9/FacialAge/BNav_EC2/DepthDuration/v2_depth_discrimination_MTurk/v2_DepthDiscrim_HTML.html#456,456,1366,625,1366,768,9-21-2022,11-7-0,35,depth_discrimination_stimuli/001540_2014-06-20_17-01-05_260595134347_rgbf000086-resize_2/001540_2014-06-20_17-01-05_260595134347_rgbf000086-resize_2-target.png,depth_discrimination_stimuli/001540_2014-06-20_17-01-05_260595134347_rgbf000086-resize_2/001540_2014-06-20_17-01-05_260595134347_rgbf000086-resize_2-target.png,1000.0,1.459,1.459,3.0,2252,1001,1000,1000,1000,500,,1232452,34,Woman
35,517056,DepthScenes,v2_duration_discrimination,discrim_jsons/Discrim1000_randls_49_rotated.json,http://54.235.29.9/FacialAge/BNav_EC2/DepthDuration/v2_depth_discrimination_MTurk/v2_DepthDiscrim_HTML.html#456,456,1366,625,1366,768,9-21-2022,11-7-0,36,depth_discrimination_stimuli/002568_2014-06-24_13-59-21_094959634447_rgbf000062-resize_4/002568_2014-06-24_13-59-21_094959634447_rgbf000062-resize_4-target.png,depth_discrimination_stimuli/003492_2014-05-21_15-50-55_094959634447_rgbf000828-resize_1/003492_2014-05-21_15-50-55_094959634447_rgbf000828-resize_1-target.png,1000.0,3.015,4.06875,0.0,3115,1002,1010,1000,1000,499,,1232452,34,Woman
36,517056,DepthScenes,v2_duration_discrimination,discrim_jsons/Discrim1000_randls_49_rotated.json,http://54.235.29.9/FacialAge/BNav_EC2/DepthDuration/v2_depth_discrimination_MTurk/v2_DepthDiscrim_HTML.html#456,456,1366,625,1366,768,9-21-2022,11-7-0,37,depth_discrimination_stimuli/002414_2014-06-28_20-24-58_260595134347_rgbf000067-resize_4/002414_2014-06-28_20-24-58_260595134347_rgbf000067-resize_4-target.png,depth_discrimination_stimuli/000773_2014-06-08_22-24-54_260595134347_rgbf000093-resize_1/000773_2014-06-08_22-24-54_260595134347_rgbf000093-resize_1-target.png,1000.0,4.363,4.973,0.0,2768,1001,1001,999,999,500,,1232452,34,Woman
37,517056,DepthScenes,v2_duration_discrimination,discrim_jsons/Discrim1000_randls_49_rotated.json,http://54.235.29.9/FacialAge/BNav_EC2/DepthDuration/v2_depth_discrimination_MTurk/v2_DepthDiscrim_HTML.html#456,456,1366,625,1366,768,9-21-2022,11-7-0,38,depth_discrimination_stimuli/001235_2014-06-17_16-37-36_260595134347_rgbf000084-resize_4/001235_2014-06-17_16-37-36_260595134347_rgbf000084-resize_4-target.png,depth_discrimination_stimuli/000788_2014-06-08_22-34-36_260595134347_rgbf000131-resize_1/000788_2014-06-08_22-34-36_260595134347_rgbf000131-resize_1-target.png,1000.0,3.6605,3.359,0.0,2593,1005,1000,1000,999,500,,1232452,34,Woman
38,517056,DepthScenes,v2_duration_discrimination,discrim_jsons/Discrim1000_randls_49_rotated.json,http://54.235.29.9/FacialAge/BNav_EC2/DepthDuration/v2_depth_discrimination_MTurk/v2_DepthDiscrim_HTML.html#456,456,1366,625,1366,768,9-21-2022,11-7-0,39,depth_discrimination_stimuli/000103_2014-05-14_22-01-17_260595134347_rgbf000152-resize_5/000103_2014-05-14_22-01-17_260595134347_rgbf000152-resize_5-target.png,depth_discrimination_stimuli/001555_2014-06-20_17-12-10_260595134347_rgbf000065-resize_4/001555_2014-06-20_17-12-10_260595134347_rgbf000065-resize_4-target.png,1000.0,1.993,1.633,1.0,2623,1013,996,1005,997,491,,1232452,34,Woman
39,517056,DepthScenes,v2_duration_discrimination,discrim_jsons/Discrim1000_randls_49_rotated.json,http://54.235.29.9/FacialAge/BNav_EC2/DepthDuration/v2_depth_discrimination_MTurk/v2_DepthDiscrim_HTML.html#456,456,1366,625,1366,768,9-21-2022,11-7-0,40,depth_discrimination_stimuli/000549_2014-06-08_22-10-24_260595134347_rgbf000247-resize_3/000549_2014-06-08_22-10-24_260595134347_rgbf000247-resize_3-target.png,depth_discrimination_stimuli/001055_2014-06-08_18-45-35_260595134347_rgbf000111-resize_4/001055_2014-06-08_18-45-35_260595134347_rgbf000111-resize_4-target.png,1000.0,1.841,2.4290000000000003,0.0,2171,1006,1001,1004,1003,486,,1232452,34,Woman
40,517056,DepthScenes,v2_duration_discrimination,discrim_jsons/Discrim1000_randls_49_rotated.json,http://54.235.29.9/FacialAge/BNav_EC2/DepthDuration/v2_depth_discrimination_MTurk/v2_DepthDiscrim_HTML.html#456,456,1366,625,1366,768,9-21-2022,11-7-0,41,depth_discrimination_stimuli/002637_2014-06-24_14-51-13_094959634447_rgbf000066-resize_4/002637_2014-06-24_14-51-13_094959634447_rgbf000066-resize_4-target.png,depth_discrimination_stimuli/003534_2014-05-22_15-06-10_094959634447_rgbf000102-resize_4/003534_2014-05-22_15-06-10_094959634447_rgbf000102-resize_4-target.png,1000.0,1.9955,1.426,1.0,2507,1007,1006,1000,989,501,,1232452,34,Woman
41,517056,DepthScenes,v2_duration_discrimination,discrim_jsons/Discrim1000_randls_49_rotated.json,http://54.235.29.9/FacialAge/BNav_EC2/DepthDuration/v2_depth_discrimination_MTurk/v2_DepthDiscrim_HTML.html#456,456,1366,625,1366,768,9-21-2022,11-7-0,42,depth_discrimination_stimuli/000734_2014-06-08_17-39-11_260595134347_rgbf000128-resize_2/000734_2014-06-08_17-39-11_260595134347_rgbf000128-resize_2-target.png,depth_discrimination_stimuli/000739_2014-06-08_18-45-58_260595134347_rgbf000068-resize_1/000739_2014-06-08_18-45-58_260595134347_rgbf000068-resize_1-target.png,1000.0,4.098,3.534,0.0,2628,1005,994,1000,1001,498,,1232452,34,Woman
42,517056,DepthScenes,v2_duration_discrimination,discrim_jsons/Discrim1000_randls_49_rotated.json,http://54.235.29.9/FacialAge/BNav_EC2/DepthDuration/v2_depth_discrimination_MTurk/v2_DepthDiscrim_HTML.html#456,456,1366,625,1366,768,9-21-2022,11-7-0,43,depth_discrimination_stimuli/000943_2014-06-09_19-31-07_260595134347_rgbf000128-resize_1/000943_2014-06-09_19-31-07_260595134347_rgbf000128-resize_1-target.png,depth_discrimination_stimuli/003070_2014-06-15_14-58-27_094959634447_rgbf000150-resize_3/003070_2014-06-15_14-58-27_094959634447_rgbf000150-resize_3-target.png,1000.0,1.9765,2.9415,1.0,2537,1002,999,1000,1006,498,,1232452,34,Woman
43,517056,DepthScenes,v2_duration_discrimination,discrim_jsons/Discrim1000_randls_49_rotated.json,http://54.235.29.9/FacialAge/BNav_EC2/DepthDuration/v2_depth_discrimination_MTurk/v2_DepthDiscrim_HTML.html#456,456,1366,625,1366,768,9-21-2022,11-7-0,44,depth_discrimination_stimuli/002805_2014-06-22_19-54-03_094959634447_rgbf000079-resize_1/002805_2014-06-22_19-54-03_094959634447_rgbf000079-resize_1-target.png,depth_discrimination_stimuli/000906_2014-06-08_13-35-43_260595134347_rgbf000155-resize_1/000906_2014-06-08_13-35-43_260595134347_rgbf000155-resize_1-target.png,1000.0,3.1439999999999997,2.8489999999999998,0.0,2553,1014,1001,986,1009,495,,1232452,34,Woman
44,517056,DepthScenes,v2_duration_discrimination,discrim_jsons/Discrim1000_randls_49_rotated.json,http://54.235.29.9/FacialAge/BNav_EC2/DepthDuration/v2_depth_discrimination_MTurk/v2_DepthDiscrim_HTML.html#456,456,1366,625,1366,768,9-21-2022,11-7-0,45,depth_discrimination_stimuli/002136_2014-06-25_21-18-03_260595134347_rgbf000109-resize_3/002136_2014-06-25_21-18-03_260595134347_rgbf000109-resize_3-target.png,depth_discrimination_stimuli/002964_2014-06-08_17-46-11_094959634447_rgbf000091-resize_4/002964_2014-06-08_17-46-11_094959634447_rgbf000091-resize_4-target.png,1000.0,1.9569999999999999,1.6909999999999998,1.0,2440,1006,1002,1001,1003,499,,1232452,34,Woman
45,517056,DepthScenes,v2_duration_discrimination,discrim_jsons/Discrim1000_randls_49_rotated.json,http://54.235.29.9/FacialAge/BNav_EC2/DepthDuration/v2_depth_discrimination_MTurk/v2_DepthDiscrim_HTML.html#456,456,1366,625,1366,768,9-21-2022,11-7-0,46,depth_discrimination_stimuli/002467_2014-06-28_20-38-07_260595134347_rgbf000026-resize_2/002467_2014-06-28_20-38-07_260595134347_rgbf000026-resize_2-target.png,depth_discrimination_stimuli/002570_2014-06-24_13-59-54_094959634447_rgbf000059-resize_0/002570_2014-06-24_13-59-54_094959634447_rgbf000059-resize_0-target.png,1000.0,4.742,4.037,1.0,2375,1005,1002,1006,999,487,,1232452,34,Woman
46,517056,DepthScenes,v2_duration_discrimination,discrim_jsons/Discrim1000_randls_49_rotated.json,http://54.235.29.9/FacialAge/BNav_EC2/DepthDuration/v2_depth_discrimination_MTurk/v2_DepthDiscrim_HTML.html#456,456,1366,625,1366,768,9-21-2022,11-7-0,47,depth_discrimination_stimuli/001136_2014-06-17_15-19-41_260595134347_rgbf000076-resize_3/001136_2014-06-17_15-19-41_260595134347_rgbf000076-resize_3-target.png,depth_discrimination_stimuli/001164_2014-06-17_15-35-46_260595134347_rgbf000085-resize_3/001164_2014-06-17_15-35-46_260595134347_rgbf000085-resize_3-target.png,1000.0,1.8655,2.354,0.0,2318,1004,1002,1001,995,506,,1232452,34,Woman
47,517056,DepthScenes,v2_duration_discrimination,discrim_jsons/Discrim1000_randls_49_rotated.json,http://54.235.29.9/FacialAge/BNav_EC2/DepthDuration/v2_depth_discrimination_MTurk/v2_DepthDiscrim_HTML.html#456,456,1366,625,1366,768,9-21-2022,11-7-0,48,depth_discrimination_stimuli/003129_2014-05-12_10-48-10_094959634447_rgbf000100-resize_0/003129_2014-05-12_10-48-10_094959634447_rgbf000100-resize_0-target.png,depth_discrimination_stimuli/000414_2014-06-04_19-49-13_260595134347_rgbf000044-resize_0/000414_2014-06-04_19-49-13_260595134347_rgbf000044-resize_0-target.png,1000.0,4.9305,4.329,0.0,2173,1008,1005,1002,988,502,,1232452,34,Woman
48,517056,DepthScenes,v2_duration_discrimination,discrim_jsons/Discrim1000_randls_49_rotated.json,http://54.235.29.9/FacialAge/BNav_EC2/DepthDuration/v2_depth_discrimination_MTurk/v2_DepthDiscrim_HTML.html#456,456,1366,625,1366,768,9-21-2022,11-7-0,49,depth_discrimination_stimuli/002103_2014-06-25_20-00-40_260595134347_rgbf000049-resize_0/002103_2014-06-25_20-00-40_260595134347_rgbf000049-resize_0-target.png,depth_discrimination_stimuli/002039_2014-06-24_20-22-38_260595134347_rgbf000084-resize_1/002039_2014-06-24_20-22-38_260595134347_rgbf000084-resize_1-target.png,1000.0,4.105,4.408,0.0,2322,1009,1002,990,1001,508,,1232452,34,Woman
49,517056,DepthScenes,v2_duration_discrimination,discrim_jsons/Discrim1000_randls_49_rotated.json,http://54.235.29.9/FacialAge/BNav_EC2/DepthDuration/v2_depth_discrimination_MTurk/v2_DepthDiscrim_HTML.html#456,456,1366,625,1366,768,9-21-2022,11-7-0,50,depth_discrimination_stimuli/001132_2014-06-17_14-48-54_260595134347_rgbf000100-resize_2/001132_2014-06-17_14-48-54_260595134347_rgbf000100-resize_2-target.png,depth_discrimination_stimuli/001133_2014-06-17_14-49-16_260595134347_rgbf000100-resize_0/001133_2014-06-17_14-49-16_260595134347_rgbf000100-resize_0-target.png,1000.0,3.753,4.2115,0.0,2578,1002,1004,1001,1003,499,,1232452,34,Woman
50,517056,DepthScenes,v2_duration_discrimination,discrim_jsons/Discrim1000_randls_49_rotated.json,http://54.235.29.9/FacialAge/BNav_EC2/DepthDuration/v2_depth_discrimination_MTurk/v2_DepthDiscrim_HTML.html#456,456,1366,625,1366,768,9-21-2022,11-7-0,51,depth_discrimination_stimuli/002657_2014-06-13_15-29-54_094959634447_rgbf000150-resize_1/002657_2014-06-13_15-29-54_094959634447_rgbf000150-resize_1-target.png,depth_discrimination_stimuli/002375_2014-06-28_20-13-44_260595134347_rgbf000032-resize_1/002375_2014-06-28_20-13-44_260595134347_rgbf000032-resize_1-target.png,1000.0,4.919,4.0175,1.0,2580,1007,999,1003,999,502,,1232452,34,Woman
51,517056,DepthScenes,v2_duration_discrimination,discrim_jsons/Discrim1000_randls_49_rotated.json,http://54.235.29.9/FacialAge/BNav_EC2/DepthDuration/v2_depth_discrimination_MTurk/v2_DepthDiscrim_HTML.html#456,456,1366,625,1366,768,9-21-2022,11-7-0,52,depth_discrimination_stimuli/001222_2014-06-17_16-24-06_260595134347_rgbf000073-resize_0/001222_2014-06-17_16-24-06_260595134347_rgbf000073-resize_0-target.png,depth_discrimination_stimuli/001222_2014-06-17_16-24-06_260595134347_rgbf000073-resize_0/001222_2014-06-17_16-24-06_260595134347_rgbf000073-resize_0-target.png,1000.0,1.4385,1.4385,3.0,2229,1002,1006,1002,1003,487,,1232452,34,Woman
52,517056,DepthScenes,v2_duration_discrimination,discrim_jsons/Discrim1000_randls_49_rotated.json,http://54.235.29.9/FacialAge/BNav_EC2/DepthDuration/v2_depth_discrimination_MTurk/v2_DepthDiscrim_HTML.html#456,456,1366,625,1366,768,9-21-2022,11-7-0,53,depth_discrimination_stimuli/000749_2014-06-08_21-55-06_260595134347_rgbf000070-resize_2/000749_2014-06-08_21-55-06_260595134347_rgbf000070-resize_2-target.png,depth_discrimination_stimuli/002788_2014-06-22_19-36-03_094959634447_rgbf000088-resize_2/002788_2014-06-22_19-36-03_094959634447_rgbf000088-resize_2-target.png,1000.0,2.331,1.6465,1.0,2453,1014,997,1004,1000,500,,1232452,34,Woman
53,517056,DepthScenes,v2_duration_discrimination,discrim_jsons/Discrim1000_randls_49_rotated.json,http://54.235.29.9/FacialAge/BNav_EC2/DepthDuration/v2_depth_discrimination_MTurk/v2_DepthDiscrim_HTML.html#456,456,1366,625,1366,768,9-21-2022,11-7-0,54,depth_discrimination_stimuli/003083_2014-06-15_15-21-03_094959634447_rgbf000063-resize_1/003083_2014-06-15_15-21-03_094959634447_rgbf000063-resize_1-target.png,depth_discrimination_stimuli/000486_2014-06-09_20-47-20_260595134347_rgbf000143-resize_2/000486_2014-06-09_20-47-20_260595134347_rgbf000143-resize_2-target.png,1000.0,4.1405,4.8325,1.0,2653,1006,1004,1004,996,501,,1232452,34,Woman
54,517056,DepthScenes,v2_duration_discrimination,discrim_jsons/Discrim1000_randls_49_rotated.json,http://54.235.29.9/FacialAge/BNav_EC2/DepthDuration/v2_depth_discrimination_MTurk/v2_DepthDiscrim_HTML.html#456,456,1366,625,1366,768,9-21-2022,11-7-0,55,depth_discrimination_stimuli/000866_2014-06-09_20-45-42_260595134347_rgbf000139-resize_1/000866_2014-06-09_20-45-42_260595134347_rgbf000139-resize_1-target.png,depth_discrimination_stimuli/002989_2014-06-15_12-25-03_094959634447_rgbf000150-resize_3/002989_2014-06-15_12-25-03_094959634447_rgbf000150-resize_3-target.png,1000.0,3.2155,4.1975,0.0,2607,1003,1002,1001,1001,500,,1232452,34,Woman
55,517056,DepthScenes,v2_duration_discrimination,discrim_jsons/Discrim1000_randls_49_rotated.json,http://54.235.29.9/FacialAge/BNav_EC2/DepthDuration/v2_depth_discrimination_MTurk/v2_DepthDiscrim_HTML.html#456,456,1366,625,1366,768,9-21-2022,11-7-0,56,depth_discrimination_stimuli/003048_2014-06-15_13-49-43_094959634447_rgbf000150-resize_1/003048_2014-06-15_13-49-43_094959634447_rgbf000150-resize_1-target.png,depth_discrimination_stimuli/002043_2014-06-24_20-29-38_260595134347_rgbf000039-resize_4/002043_2014-06-24_20-29-38_260595134347_rgbf000039-resize_4-target.png,1000.0,4.0035,2.8435,1.0,3280,1004,1003,1002,998,498,,1232452,34,Woman
56,517056,DepthScenes,v2_duration_discrimination,discrim_jsons/Discrim1000_randls_49_rotated.json,http://54.235.29.9/FacialAge/BNav_EC2/DepthDuration/v2_depth_discrimination_MTurk/v2_DepthDiscrim_HTML.html#456,456,1366,625,1366,768,9-21-2022,11-7-0,57,depth_discrimination_stimuli/000556_2014-06-09_22-42-56_260595134347_rgbf000214-resize_1/000556_2014-06-09_22-42-56_260595134347_rgbf000214-resize_1-target.png,depth_discrimination_stimuli/001158_2014-06-17_15-32-16_260595134347_rgbf000138-resize_2/001158_2014-06-17_15-32-16_260595134347_rgbf000138-resize_2-target.png,1000.0,4.8415,4.5315,0.0,2618,1002,1006,992,1010,492,,1232452,34,Woman
57,517056,DepthScenes,v2_duration_discrimination,discrim_jsons/Discrim1000_randls_49_rotated.json,http://54.235.29.9/FacialAge/BNav_EC2/DepthDuration/v2_depth_discrimination_MTurk/v2_DepthDiscrim_HTML.html#456,456,1366,625,1366,768,9-21-2022,11-7-0,58,depth_discrimination_stimuli/001828_2014-06-26_21-40-03_260595134347_rgbf000024-resize_0/001828_2014-06-26_21-40-03_260595134347_rgbf000024-resize_0-target.png,depth_discrimination_stimuli/000009_2014-05-26_14-32-05_260595134347_rgbf000034-resize_3/000009_2014-05-26_14-32-05_260595134347_rgbf000034-resize_3-target.png,1000.0,4.8260000000000005,3.8715,0.0,2467,1004,1001,1000,1001,500,,1232452,34,Woman
58,517056,DepthScenes,v2_duration_discrimination,discrim_jsons/Discrim1000_randls_49_rotated.json,http://54.235.29.9/FacialAge/BNav_EC2/DepthDuration/v2_depth_discrimination_MTurk/v2_DepthDiscrim_HTML.html#456,456,1366,625,1366,768,9-21-2022,11-7-0,59,depth_discrimination_stimuli/003079_2014-06-15_15-18-20_094959634447_rgbf000152-resize_8/003079_2014-06-15_15-18-20_094959634447_rgbf000152-resize_8-target.png,depth_discrimination_stimuli/000506_2014-06-08_23-21-00_260595134347_rgbf000070-resize_7/000506_2014-06-08_23-21-00_260595134347_rgbf000070-resize_7-target.png,1000.0,2.8775,4.0585,1.0,2658,1018,994,1001,988,513,,1232452,34,Woman
59,517056,DepthScenes,v2_duration_discrimination,discrim_jsons/Discrim1000_randls_49_rotated.json,http://54.235.29.9/FacialAge/BNav_EC2/DepthDuration/v2_depth_discrimination_MTurk/v2_DepthDiscrim_HTML.html#456,456,1366,625,1366,768,9-21-2022,11-7-0,60,depth_discrimination_stimuli/000677_2014-06-08_23-10-32_260595134347_rgbf000158-resize_6/000677_2014-06-08_23-10-32_260595134347_rgbf000158-resize_6-target.png,depth_discrimination_stimuli/001029_2014-06-08_13-17-57_260595134347_rgbf000065-resize_1/001029_2014-06-08_13-17-57_260595134347_rgbf000065-resize_1-target.png,1000.0,3.556,3.0835,0.0,3183,1012,994,1006,1003,493,,1232452,34,Woman
60,517056,DepthScenes,v2_duration_discrimination,discrim_jsons/Discrim1000_randls_49_rotated.json,http://54.235.29.9/FacialAge/BNav_EC2/DepthDuration/v2_depth_discrimination_MTurk/v2_DepthDiscrim_HTML.html#456,456,1366,625,1366,768,9-21-2022,11-7-0,61,depth_discrimination_stimuli/003423_2014-05-21_10-23-26_094959634447_rgbf002665-resize_2/003423_2014-05-21_10-23-26_094959634447_rgbf002665-resize_2-target.png,depth_discrimination_stimuli/002905_2014-06-03_18-04-43_094959634447_rgbf000151-resize_2/002905_2014-06-03_18-04-43_094959634447_rgbf000151-resize_2-target.png,1000.0,3.2575,2.0295,1.0,2432,1015,989,1001,1004,498,,1232452,34,Woman
61,517056,DepthScenes,v2_duration_discrimination,discrim_jsons/Discrim1000_randls_49_rotated.json,http://54.235.29.9/FacialAge/BNav_EC2/DepthDuration/v2_depth_discrimination_MTurk/v2_DepthDiscrim_HTML.html#456,456,1366,625,1366,768,9-21-2022,11-7-0,62,depth_discrimination_stimuli/003587_2014-05-23_16-48-02_094959634447_rgbf002384-resize_2/003587_2014-05-23_16-48-02_094959634447_rgbf002384-resize_2-target.png,depth_discrimination_stimuli/001167_2014-06-17_15-38-07_260595134347_rgbf000108-resize_0/001167_2014-06-17_15-38-07_260595134347_rgbf000108-resize_0-target.png,1000.0,1.357,1.8505,0.0,3636,1012,994,1005,1004,495,,1232452,34,Woman
62,517056,DepthScenes,v2_duration_discrimination,discrim_jsons/Discrim1000_randls_49_rotated.json,http://54.235.29.9/FacialAge/BNav_EC2/DepthDuration/v2_depth_discrimination_MTurk/v2_DepthDiscrim_HTML.html#456,456,1366,625,1366,768,9-21-2022,11-7-0,63,depth_discrimination_stimuli/000787_2014-06-08_22-33-53_260595134347_rgbf000175-resize_1/000787_2014-06-08_22-33-53_260595134347_rgbf000175-resize_1-target.png,depth_discrimination_stimuli/000787_2014-06-08_22-33-53_260595134347_rgbf000175-resize_1/000787_2014-06-08_22-33-53_260595134347_rgbf000175-resize_1-target.png,1000.0,4.784,4.784,3.0,86204,1002,1004,1005,1002,498,,1232452,34,Woman
63,517056,DepthScenes,v2_duration_discrimination,discrim_jsons/Discrim1000_randls_49_rotated.json,http://54.235.29.9/FacialAge/BNav_EC2/DepthDuration/v2_depth_discrimination_MTurk/v2_DepthDiscrim_HTML.html#456,456,1366,625,1366,768,9-21-2022,11-7-0,64,depth_discrimination_stimuli/001100_2014-06-15_17-46-26_260595134347_rgbf000225-resize_2/001100_2014-06-15_17-46-26_260595134347_rgbf000225-resize_2-target.png,depth_discrimination_stimuli/002784_2014-06-22_19-26-30_094959634447_rgbf000083-resize_3/002784_2014-06-22_19-26-30_094959634447_rgbf000083-resize_3-target.png,1000.0,2.24,1.8046666666667,0.0,3564,1010,992,1002,1005,496,,1232452,34,Woman
64,517056,DepthScenes,v2_duration_discrimination,discrim_jsons/Discrim1000_randls_49_rotated.json,http://54.235.29.9/FacialAge/BNav_EC2/DepthDuration/v2_depth_discrimination_MTurk/v2_DepthDiscrim_HTML.html#456,456,1366,625,1366,768,9-21-2022,11-7-0,65,depth_discrimination_stimuli/003338_2014-05-20_11-01-23_094959634447_rgbf000051-resize_6/003338_2014-05-20_11-01-23_094959634447_rgbf000051-resize_6-target.png,depth_discrimination_stimuli/002509_2014-06-24_13-19-22_094959634447_rgbf000077-resize_0/002509_2014-06-24_13-19-22_094959634447_rgbf000077-resize_0-target.png,1000.0,1.693,1.3065,1.0,2357,1009,994,997,999,501,,1232452,34,Woman
65,517056,DepthScenes,v2_duration_discrimination,discrim_jsons/Discrim1000_randls_49_rotated.json,http://54.235.29.9/FacialAge/BNav_EC2/DepthDuration/v2_depth_discrimination_MTurk/v2_DepthDiscrim_HTML.html#456,456,1366,625,1366,768,9-21-2022,11-7-0,66,depth_discrimination_stimuli/000502_2014-06-08_23-02-32_260595134347_rgbf000063-resize_4/000502_2014-06-08_23-02-32_260595134347_rgbf000063-resize_4-target.png,depth_discrimination_stimuli/001199_2014-06-17_16-03-48_260595134347_rgbf000077-resize_0/001199_2014-06-17_16-03-48_260595134347_rgbf000077-resize_0-target.png,1000.0,2.431,3.4375,0.0,2318,1002,998,1000,1000,500,,1232452,34,Woman
66,517056,DepthScenes,v2_duration_discrimination,discrim_jsons/Discrim1000_randls_49_rotated.json,http://54.235.29.9/FacialAge/BNav_EC2/DepthDuration/v2_depth_discrimination_MTurk/v2_DepthDiscrim_HTML.html#456,456,1366,625,1366,768,9-21-2022,11-7-0,67,depth_discrimination_stimuli/000483_2014-06-09_20-41-45_260595134347_rgbf000116-resize_4/000483_2014-06-09_20-41-45_260595134347_rgbf000116-resize_4-target.png,depth_discrimination_stimuli/000469_2014-06-09_19-42-10_260595134347_rgbf000081-resize_1/000469_2014-06-09_19-42-10_260595134347_rgbf000081-resize_1-target.png,1000.0,1.337,1.652,0.0,2702,1004,1004,998,1006,502,,1232452,34,Woman
67,517056,DepthScenes,v2_duration_discrimination,discrim_jsons/Discrim1000_randls_49_rotated.json,http://54.235.29.9/FacialAge/BNav_EC2/DepthDuration/v2_depth_discrimination_MTurk/v2_DepthDiscrim_HTML.html#456,456,1366,625,1366,768,9-21-2022,11-7-0,68,depth_discrimination_stimuli/003490_2014-05-21_15-50-11_094959634447_rgbf000101-resize_3/003490_2014-05-21_15-50-11_094959634447_rgbf000101-resize_3-target.png,depth_discrimination_stimuli/001175_2014-06-17_15-45-55_260595134347_rgbf000129-resize_4/001175_2014-06-17_15-45-55_260595134347_rgbf000129-resize_4-target.png,1000.0,3.6445,4.255,0.0,7073,1009,995,1002,1002,499,,1232452,34,Woman
68,517056,DepthScenes,v2_duration_discrimination,discrim_jsons/Discrim1000_randls_49_rotated.json,http://54.235.29.9/FacialAge/BNav_EC2/DepthDuration/v2_depth_discrimination_MTurk/v2_DepthDiscrim_HTML.html#456,456,1366,625,1366,768,9-21-2022,11-7-0,69,depth_discrimination_stimuli/000109_2014-05-14_23-41-52_260595134347_rgbf000035-resize_9/000109_2014-05-14_23-41-52_260595134347_rgbf000035-resize_9-target.png,depth_discrimination_stimuli/000470_2014-06-09_19-42-40_260595134347_rgbf000094-resize_1/000470_2014-06-09_19-42-40_260595134347_rgbf000094-resize_1-target.png,1000.0,1.3545,1.831,0.0,2988,1009,1001,996,997,497,,1232452,34,Woman
69,517056,DepthScenes,v2_duration_discrimination,discrim_jsons/Discrim1000_randls_49_rotated.json,http://54.235.29.9/FacialAge/BNav_EC2/DepthDuration/v2_depth_discrimination_MTurk/v2_DepthDiscrim_HTML.html#456,456,1366,625,1366,768,9-21-2022,11-7-0,70,depth_discrimination_stimuli/001094_2014-06-15_17-36-00_260595134347_rgbf000205-resize_0/001094_2014-06-15_17-36-00_260595134347_rgbf000205-resize_0-target.png,depth_discrimination_stimuli/000692_2014-06-08_13-09-42_260595134347_rgbf000199-resize_2/000692_2014-06-08_13-09-42_260595134347_rgbf000199-resize_2-target.png,1000.0,4.2175,3.661,0.0,2287,1016,983,1003,1001,499,,1232452,34,Woman
70,517056,DepthScenes,v2_duration_discrimination,discrim_jsons/Discrim1000_randls_49_rotated.json,http://54.235.29.9/FacialAge/BNav_EC2/DepthDuration/v2_depth_discrimination_MTurk/v2_DepthDiscrim_HTML.html#456,456,1366,625,1366,768,9-21-2022,11-7-0,71,depth_discrimination_stimuli/000375_2014-06-08_11-17-29_260595134347_rgbf000133-resize_2/000375_2014-06-08_11-17-29_260595134347_rgbf000133-resize_2-target.png,depth_discrimination_stimuli/000375_2014-06-08_11-17-29_260595134347_rgbf000133-resize_2/000375_2014-06-08_11-17-29_260595134347_rgbf000133-resize_2-target.png,1000.0,4.718,4.718,3.0,2859,1007,1003,1004,997,493,,1232452,34,Woman
71,517056,DepthScenes,v2_duration_discrimination,discrim_jsons/Discrim1000_randls_49_rotated.json,http://54.235.29.9/FacialAge/BNav_EC2/DepthDuration/v2_depth_discrimination_MTurk/v2_DepthDiscrim_HTML.html#456,456,1366,625,1366,768,9-21-2022,11-7-0,72,depth_discrimination_stimuli/001214_2014-06-17_16-13-55_260595134347_rgbf000111-resize_0/001214_2014-06-17_16-13-55_260595134347_rgbf000111-resize_0-target.png,depth_discrimination_stimuli/000810_2014-06-08_17-20-01_260595134347_rgbf000105-resize_0/000810_2014-06-08_17-20-01_260595134347_rgbf000105-resize_0-target.png,1000.0,2.6505,1.4865,1.0,2996,1030,978,1001,993,522,,1232452,34,Woman
72,517056,DepthScenes,v2_duration_discrimination,discrim_jsons/Discrim1000_randls_49_rotated.json,http://54.235.29.9/FacialAge/BNav_EC2/DepthDuration/v2_depth_discrimination_MTurk/v2_DepthDiscrim_HTML.html#456,456,1366,625,1366,768,9-21-2022,11-7-0,73,depth_discrimination_stimuli/002209_2014-06-28_18-36-10_260595134347_rgbf000051-resize_1/002209_2014-06-28_18-36-10_260595134347_rgbf000051-resize_1-target.png,depth_discrimination_stimuli/002763_2014-06-22_19-13-10_094959634447_rgbf000075-resize_4/002763_2014-06-22_19-13-10_094959634447_rgbf000075-resize_4-target.png,1000.0,2.057,1.68375,1.0,3850,1010,1003,989,1013,497,,1232452,34,Woman
73,517056,DepthScenes,v2_duration_discrimination,discrim_jsons/Discrim1000_randls_49_rotated.json,http://54.235.29.9/FacialAge/BNav_EC2/DepthDuration/v2_depth_discrimination_MTurk/v2_DepthDiscrim_HTML.html#456,456,1366,625,1366,768,9-21-2022,11-7-0,74,depth_discrimination_stimuli/000927_2014-06-09_16-32-30_260595134347_rgbf000123-resize_3/000927_2014-06-09_16-32-30_260595134347_rgbf000123-resize_3-target.png,depth_discrimination_stimuli/001110_2014-06-15_17-25-28_260595134347_rgbf000150-resize_1/001110_2014-06-15_17-25-28_260595134347_rgbf000150-resize_1-target.png,1000.0,2.6785,1.7115,1.0,2437,1009,1002,991,1002,501,,1232452,34,Woman
74,517056,DepthScenes,v2_duration_discrimination,discrim_jsons/Discrim1000_randls_49_rotated.json,http://54.235.29.9/FacialAge/BNav_EC2/DepthDuration/v2_depth_discrimination_MTurk/v2_DepthDiscrim_HTML.html#456,456,1366,625,1366,768,9-21-2022,11-7-0,75,depth_discrimination_stimuli/003081_2014-06-15_15-19-16_094959634447_rgbf000150-resize_1/003081_2014-06-15_15-19-16_094959634447_rgbf000150-resize_1-target.png,depth_discrimination_stimuli/001417_2014-06-19_16-25-36_260595134347_rgbf000115-resize_5/001417_2014-06-19_16-25-36_260595134347_rgbf000115-resize_5-target.png,1000.0,3.9125,4.6255,0.0,2138,1008,998,1003,1005,489,,1232452,34,Woman
75,517056,DepthScenes,v2_duration_discrimination,discrim_jsons/Discrim1000_randls_49_rotated.json,http://54.235.29.9/FacialAge/BNav_EC2/DepthDuration/v2_depth_discrimination_MTurk/v2_DepthDiscrim_HTML.html#456,456,1366,625,1366,768,9-21-2022,11-7-0,76,depth_discrimination_stimuli/003010_2014-06-15_12-54-35_094959634447_rgbf000112-resize_0/003010_2014-06-15_12-54-35_094959634447_rgbf000112-resize_0-target.png,depth_discrimination_stimuli/001810_2014-06-26_20-51-35_260595134347_rgbf000040-resize_3/001810_2014-06-26_20-51-35_260595134347_rgbf000040-resize_3-target.png,1000.0,3.1185,2.2525,1.0,2346,1002,998,1005,1001,501,,1232452,34,Woman
76,517056,DepthScenes,v2_duration_discrimination,discrim_jsons/Discrim1000_randls_49_rotated.json,http://54.235.29.9/FacialAge/BNav_EC2/DepthDuration/v2_depth_discrimination_MTurk/v2_DepthDiscrim_HTML.html#456,456,1366,625,1366,768,9-21-2022,11-7-0,77,depth_discrimination_stimuli/001617_2014-06-20_11-35-32_260595134347_rgbf000066-resize_1/001617_2014-06-20_11-35-32_260595134347_rgbf000066-resize_1-target.png,depth_discrimination_stimuli/001806_2014-06-26_20-50-20_260595134347_rgbf000091-resize_1/001806_2014-06-26_20-50-20_260595134347_rgbf000091-resize_1-target.png,1000.0,3.7910000000000004,2.7305,1.0,2562,1008,1001,1002,999,501,,1232452,34,Woman
77,517056,DepthScenes,v2_duration_discrimination,discrim_jsons/Discrim1000_randls_49_rotated.json,http://54.235.29.9/FacialAge/BNav_EC2/DepthDuration/v2_depth_discrimination_MTurk/v2_DepthDiscrim_HTML.html#456,456,1366,625,1366,768,9-21-2022,11-7-0,78,depth_discrimination_stimuli/001650_2014-06-20_12-09-00_260595134347_rgbf000087-resize_3/001650_2014-06-20_12-09-00_260595134347_rgbf000087-resize_3-target.png,depth_discrimination_stimuli/000682_2014-06-08_23-14-58_260595134347_rgbf000041-resize_5/000682_2014-06-08_23-14-58_260595134347_rgbf000041-resize_5-target.png,1000.0,1.9505,2.7239999999999998,0.0,2230,1010,1003,1000,987,502,,1232452,34,Woman
78,517056,DepthScenes,v2_duration_discrimination,discrim_jsons/Discrim1000_randls_49_rotated.json,http://54.235.29.9/FacialAge/BNav_EC2/DepthDuration/v2_depth_discrimination_MTurk/v2_DepthDiscrim_HTML.html#456,456,1366,625,1366,768,9-21-2022,11-7-0,79,depth_discrimination_stimuli/002344_2014-06-28_20-06-29_260595134347_rgbf000030-resize_1/002344_2014-06-28_20-06-29_260595134347_rgbf000030-resize_1-target.png,depth_discrimination_stimuli/002725_2014-06-22_11-47-51_094959634447_rgbf000070-resize_1/002725_2014-06-22_11-47-51_094959634447_rgbf000070-resize_1-target.png,1000.0,1.5795,2.195,0.0,2155,1008,1000,1001,1002,497,,1232452,34,Woman
79,517056,DepthScenes,v2_duration_discrimination,discrim_jsons/Discrim1000_randls_49_rotated.json,http://54.235.29.9/FacialAge/BNav_EC2/DepthDuration/v2_depth_discrimination_MTurk/v2_DepthDiscrim_HTML.html#456,456,1366,625,1366,768,9-21-2022,11-7-0,80,depth_discrimination_stimuli/000569_2014-06-09_22-51-47_260595134347_rgbf000141-resize_3/000569_2014-06-09_22-51-47_260595134347_rgbf000141-resize_3-target.png,depth_discrimination_stimuli/000569_2014-06-09_22-51-47_260595134347_rgbf000141-resize_3/000569_2014-06-09_22-51-47_260595134347_rgbf000141-resize_3-target.png,1000.0,4.512,4.512,3.0,2338,1003,1011,996,1001,500,,1232452,34,Woman
80,517056,DepthScenes,v2_duration_discrimination,discrim_jsons/Discrim1000_randls_49_rotated.json,http://54.235.29.9/FacialAge/BNav_EC2/DepthDuration/v2_depth_discrimination_MTurk/v2_DepthDiscrim_HTML.html#456,456,1366,625,1366,768,9-21-2022,11-7-0,81,depth_discrimination_stimuli/001447_2014-06-19_17-00-32_260595134347_rgbf000082-resize_5/001447_2014-06-19_17-00-32_260595134347_rgbf000082-resize_5-target.png,depth_discrimination_stimuli/000447_2014-06-08_16-15-46_260595134347_rgbf000130-resize_1/000447_2014-06-08_16-15-46_260595134347_rgbf000130-resize_1-target.png,1000.0,4.13775,4.479,1.0,2414,1011,996,1007,998,498,,1232452,34,Woman
81,517056,DepthScenes,v2_duration_discrimination,discrim_jsons/Discrim1000_randls_49_rotated.json,http://54.235.29.9/FacialAge/BNav_EC2/DepthDuration/v2_depth_discrimination_MTurk/v2_DepthDiscrim_HTML.html#456,456,1366,625,1366,768,9-21-2022,11-7-0,82,depth_discrimination_stimuli/002678_2014-06-13_16-15-32_094959634447_rgbf000151-resize_6/002678_2014-06-13_16-15-32_094959634447_rgbf000151-resize_6-target.png,depth_discrimination_stimuli/000368_2014-06-09_15-53-01_260595134347_rgbf000155-resize_2/000368_2014-06-09_15-53-01_260595134347_rgbf000155-resize_2-target.png,1000.0,2.1830000000000003,2.4859999999999998,1.0,2231,1009,1000,1002,1001,498,,1232452,34,Woman
82,517056,DepthScenes,v2_duration_discrimination,discrim_jsons/Discrim1000_randls_49_rotated.json,http://54.235.29.9/FacialAge/BNav_EC2/DepthDuration/v2_depth_discrimination_MTurk/v2_DepthDiscrim_HTML.html#456,456,1366,625,1366,768,9-21-2022,11-7-0,83,depth_discrimination_stimuli/002953_2014-06-08_17-32-18_094959634447_rgbf000059-resize_5/002953_2014-06-08_17-32-18_094959634447_rgbf000059-resize_5-target.png,depth_discrimination_stimuli/000878_2014-06-08_22-52-45_260595134347_rgbf000045-resize_2/000878_2014-06-08_22-52-45_260595134347_rgbf000045-resize_2-target.png,1000.0,1.551,2.092,0.0,2381,1007,1000,1003,997,506,,1232452,34,Woman
83,517056,DepthScenes,v2_duration_discrimination,discrim_jsons/Discrim1000_randls_49_rotated.json,http://54.235.29.9/FacialAge/BNav_EC2/DepthDuration/v2_depth_discrimination_MTurk/v2_DepthDiscrim_HTML.html#456,456,1366,625,1366,768,9-21-2022,11-7-0,84,depth_discrimination_stimuli/001815_2014-06-26_20-52-55_260595134347_rgbf000020-resize_0/001815_2014-06-26_20-52-55_260595134347_rgbf000020-resize_0-target.png,depth_discrimination_stimuli/001808_2014-06-26_20-50-58_260595134347_rgbf000029-resize_1/001808_2014-06-26_20-50-58_260595134347_rgbf000029-resize_1-target.png,1000.0,3.3865,4.249,0.0,2746,1012,990,1002,1010,490,,1232452,34,Woman
84,517056,DepthScenes,v2_duration_discrimination,discrim_jsons/Discrim1000_randls_49_rotated.json,http://54.235.29.9/FacialAge/BNav_EC2/DepthDuration/v2_depth_discrimination_MTurk/v2_DepthDiscrim_HTML.html#456,456,1366,625,1366,768,9-21-2022,11-7-0,85,depth_discrimination_stimuli/002340_2014-06-28_20-05-46_260595134347_rgbf000113-resize_0/002340_2014-06-28_20-05-46_260595134347_rgbf000113-resize_0-target.png,depth_discrimination_stimuli/001016_2014-06-09_16-16-10_260595134347_rgbf000112-resize_5/001016_2014-06-09_16-16-10_260595134347_rgbf000112-resize_5-target.png,1000.0,2.4735,1.6565,0.0,3957,1006,1002,1000,1002,499,,1232452,34,Woman
85,517056,DepthScenes,v2_duration_discrimination,discrim_jsons/Discrim1000_randls_49_rotated.json,http://54.235.29.9/FacialAge/BNav_EC2/DepthDuration/v2_depth_discrimination_MTurk/v2_DepthDiscrim_HTML.html#456,456,1366,625,1366,768,9-21-2022,11-7-0,86,depth_discrimination_stimuli/002425_2014-06-28_20-27-29_260595134347_rgbf000031-resize_8/002425_2014-06-28_20-27-29_260595134347_rgbf000031-resize_8-target.png,depth_discrimination_stimuli/000642_2014-06-08_16-59-25_260595134347_rgbf000098-resize_2/000642_2014-06-08_16-59-25_260595134347_rgbf000098-resize_2-target.png,1000.0,3.8960000000000004,2.8815,1.0,2611,1002,1014,988,1006,495,,1232452,34,Woman
86,517056,DepthScenes,v2_duration_discrimination,discrim_jsons/Discrim1000_randls_49_rotated.json,http://54.235.29.9/FacialAge/BNav_EC2/DepthDuration/v2_depth_discrimination_MTurk/v2_DepthDiscrim_HTML.html#456,456,1366,625,1366,768,9-21-2022,11-7-0,86,,,,,,,2611,1002,1014,988,1006,495,,1232452,34,Woman
