,subjID,experimentName,versionName,sequenceName,url,selected_row,windowWidth,windowHeight,screenWidth,screenHeight,startDate,startTime,trial,stimulus_0,stimulus_1,duration,actual_depth_0,actual_depth_1,discrim_choice,trial_RT,log_fixation,log_sceneDuration1,log_mask1,log_sceneDuration2,log_mask2,experimentTime,totalTime,age,gender
0,526787,DepthScenes,v2_duration_discrimination,discrim_jsons/Discrim125_randls_28_rotated.json,http://54.235.29.9/FacialAge/BNav_EC2/DepthDuration/v2_depth_discrimination_MTurk/v2_DepthDiscrim_HTML.html#373,373,1536,722,1536,864,9-6-2022,16-6-57,1,depth_discrimination_stimuli/002136_2014-06-25_21-18-03_260595134347_rgbf000109-resize_3/002136_2014-06-25_21-18-03_260595134347_rgbf000109-resize_3-target.png,depth_discrimination_stimuli/002964_2014-06-08_17-46-11_094959634447_rgbf000091-resize_4/002964_2014-06-08_17-46-11_094959634447_rgbf000091-resize_4-target.png,125.0,1.9569999999999999,1.6909999999999998,1.0,955,1002,128,997,136,490,,462372,36,Man
1,526787,DepthScenes,v2_duration_discrimination,discrim_jsons/Discrim125_randls_28_rotated.json,http://54.235.29.9/FacialAge/BNav_EC2/DepthDuration/v2_depth_discrimination_MTurk/v2_DepthDiscrim_HTML.html#373,373,1536,722,1536,864,9-6-2022,16-6-57,2,depth_discrimination_stimuli/000866_2014-06-09_20-45-42_260595134347_rgbf000139-resize_1/000866_2014-06-09_20-45-42_260595134347_rgbf000139-resize_1-target.png,depth_discrimination_stimuli/002989_2014-06-15_12-25-03_094959634447_rgbf000150-resize_3/002989_2014-06-15_12-25-03_094959634447_rgbf000150-resize_3-target.png,125.0,3.2155,4.1975,0.0,1020,1009,125,997,132,496,,462372,36,Man
2,526787,DepthScenes,v2_duration_discrimination,discrim_jsons/Discrim125_randls_28_rotated.json,http://54.235.29.9/FacialAge/BNav_EC2/DepthDuration/v2_depth_discrimination_MTurk/v2_DepthDiscrim_HTML.html#373,373,1536,722,1536,864,9-6-2022,16-6-57,3,depth_discrimination_stimuli/000409_2014-06-04_19-23-33_260595134347_rgbf000067-resize_0/000409_2014-06-04_19-23-33_260595134347_rgbf000067-resize_0-target.png,depth_discrimination_stimuli/002663_2014-06-13_15-50-26_094959634447_rgbf000075-resize_1/002663_2014-06-13_15-50-26_094959634447_rgbf000075-resize_1-target.png,125.0,3.7335,4.7495,1.0,1151,1003,125,1010,121,492,,462372,36,Man
3,526787,DepthScenes,v2_duration_discrimination,discrim_jsons/Discrim125_randls_28_rotated.json,http://54.235.29.9/FacialAge/BNav_EC2/DepthDuration/v2_depth_discrimination_MTurk/v2_DepthDiscrim_HTML.html#373,373,1536,722,1536,864,9-6-2022,16-6-57,4,depth_discrimination_stimuli/003495_2014-05-21_16-01-51_094959634447_rgbf000100-resize_3/003495_2014-05-21_16-01-51_094959634447_rgbf000100-resize_3-target.png,depth_discrimination_stimuli/001244_2014-06-17_16-47-45_260595134347_rgbf000030-resize_4/001244_2014-06-17_16-47-45_260595134347_rgbf000030-resize_4-target.png,125.0,1.6255,2.0425,0.0,938,1003,134,992,124,499,,462372,36,Man
4,526787,DepthScenes,v2_duration_discrimination,discrim_jsons/Discrim125_randls_28_rotated.json,http://54.235.29.9/FacialAge/BNav_EC2/DepthDuration/v2_depth_discrimination_MTurk/v2_DepthDiscrim_HTML.html#373,373,1536,722,1536,864,9-6-2022,16-6-57,5,depth_discrimination_stimuli/000854_2014-06-09_19-43-13_260595134347_rgbf000066-resize_0/000854_2014-06-09_19-43-13_260595134347_rgbf000066-resize_0-target.png,depth_discrimination_stimuli/000758_2014-06-08_22-05-08_260595134347_rgbf000085-resize_0/000758_2014-06-08_22-05-08_260595134347_rgbf000085-resize_0-target.png,125.0,3.068,3.3810000000000002,3.0,1289,1011,129,989,123,507,,462372,36,Man
5,526787,DepthScenes,v2_duration_discrimination,discrim_jsons/Discrim125_randls_28_rotated.json,http://54.235.29.9/FacialAge/BNav_EC2/DepthDuration/v2_depth_discrimination_MTurk/v2_DepthDiscrim_HTML.html#373,373,1536,722,1536,864,9-6-2022,16-6-57,6,depth_discrimination_stimuli/001450_2014-06-19_17-02-03_260595134347_rgbf000203-resize_4/001450_2014-06-19_17-02-03_260595134347_rgbf000203-resize_4-target.png,depth_discrimination_stimuli/001449_2014-06-19_17-01-27_260595134347_rgbf000116-resize_2/001449_2014-06-19_17-01-27_260595134347_rgbf000116-resize_2-target.png,125.0,4.0106666666667,3.452,3.0,1361,1014,120,991,126,507,,462372,36,Man
6,526787,DepthScenes,v2_duration_discrimination,discrim_jsons/Discrim125_randls_28_rotated.json,http://54.235.29.9/FacialAge/BNav_EC2/DepthDuration/v2_depth_discrimination_MTurk/v2_DepthDiscrim_HTML.html#373,373,1536,722,1536,864,9-6-2022,16-6-57,7,depth_discrimination_stimuli/001617_2014-06-20_11-35-32_260595134347_rgbf000066-resize_1/001617_2014-06-20_11-35-32_260595134347_rgbf000066-resize_1-target.png,depth_discrimination_stimuli/001806_2014-06-26_20-50-20_260595134347_rgbf000091-resize_1/001806_2014-06-26_20-50-20_260595134347_rgbf000091-resize_1-target.png,125.0,3.7910000000000004,2.7305,1.0,1009,1016,117,1005,127,500,,462372,36,Man
7,526787,DepthScenes,v2_duration_discrimination,discrim_jsons/Discrim125_randls_28_rotated.json,http://54.235.29.9/FacialAge/BNav_EC2/DepthDuration/v2_depth_discrimination_MTurk/v2_DepthDiscrim_HTML.html#373,373,1536,722,1536,864,9-6-2022,16-6-57,8,depth_discrimination_stimuli/002750_2014-06-22_19-08-03_094959634447_rgbf000094-resize_4/002750_2014-06-22_19-08-03_094959634447_rgbf000094-resize_4-target.png,depth_discrimination_stimuli/002549_2014-06-24_13-41-39_094959634447_rgbf000022-resize_3/002549_2014-06-24_13-41-39_094959634447_rgbf000022-resize_3-target.png,125.0,2.354,1.476,1.0,1387,1007,124,1007,128,490,,462372,36,Man
8,526787,DepthScenes,v2_duration_discrimination,discrim_jsons/Discrim125_randls_28_rotated.json,http://54.235.29.9/FacialAge/BNav_EC2/DepthDuration/v2_depth_discrimination_MTurk/v2_DepthDiscrim_HTML.html#373,373,1536,722,1536,864,9-6-2022,16-6-57,9,depth_discrimination_stimuli/003423_2014-05-21_10-23-26_094959634447_rgbf002665-resize_2/003423_2014-05-21_10-23-26_094959634447_rgbf002665-resize_2-target.png,depth_discrimination_stimuli/002905_2014-06-03_18-04-43_094959634447_rgbf000151-resize_2/002905_2014-06-03_18-04-43_094959634447_rgbf000151-resize_2-target.png,125.0,3.2575,2.0295,1.0,1271,1015,126,998,117,508,,462372,36,Man
9,526787,DepthScenes,v2_duration_discrimination,discrim_jsons/Discrim125_randls_28_rotated.json,http://54.235.29.9/FacialAge/BNav_EC2/DepthDuration/v2_depth_discrimination_MTurk/v2_DepthDiscrim_HTML.html#373,373,1536,722,1536,864,9-6-2022,16-6-57,10,depth_discrimination_stimuli/001498_2014-06-19_17-45-14_260595134347_rgbf000129-resize_4/001498_2014-06-19_17-45-14_260595134347_rgbf000129-resize_4-target.png,depth_discrimination_stimuli/001498_2014-06-19_17-45-14_260595134347_rgbf000129-resize_4/001498_2014-06-19_17-45-14_260595134347_rgbf000129-resize_4-target.png,125.0,1.4075,1.4075,0.0,1149,1010,120,1020,114,495,,462372,36,Man
10,526787,DepthScenes,v2_duration_discrimination,discrim_jsons/Discrim125_randls_28_rotated.json,http://54.235.29.9/FacialAge/BNav_EC2/DepthDuration/v2_depth_discrimination_MTurk/v2_DepthDiscrim_HTML.html#373,373,1536,722,1536,864,9-6-2022,16-6-57,11,depth_discrimination_stimuli/000137_2014-05-20_17-04-49_260595134347_rgbf000120-resize_1/000137_2014-05-20_17-04-49_260595134347_rgbf000120-resize_1-target.png,depth_discrimination_stimuli/000736_2014-06-08_18-24-15_260595134347_rgbf000206-resize_3/000736_2014-06-08_18-24-15_260595134347_rgbf000206-resize_3-target.png,125.0,3.786,3.515,1.0,1108,1006,123,1006,126,491,,462372,36,Man
11,526787,DepthScenes,v2_duration_discrimination,discrim_jsons/Discrim125_randls_28_rotated.json,http://54.235.29.9/FacialAge/BNav_EC2/DepthDuration/v2_depth_discrimination_MTurk/v2_DepthDiscrim_HTML.html#373,373,1536,722,1536,864,9-6-2022,16-6-57,12,depth_discrimination_stimuli/000709_2014-06-08_13-51-55_260595134347_rgbf000068-resize_3/000709_2014-06-08_13-51-55_260595134347_rgbf000068-resize_3-target.png,depth_discrimination_stimuli/002057_2014-06-24_21-00-13_260595134347_rgbf000120-resize_1/002057_2014-06-24_21-00-13_260595134347_rgbf000120-resize_1-target.png,125.0,1.8030000000000002,2.967,0.0,1643,1009,126,1003,115,505,,462372,36,Man
12,526787,DepthScenes,v2_duration_discrimination,discrim_jsons/Discrim125_randls_28_rotated.json,http://54.235.29.9/FacialAge/BNav_EC2/DepthDuration/v2_depth_discrimination_MTurk/v2_DepthDiscrim_HTML.html#373,373,1536,722,1536,864,9-6-2022,16-6-57,13,depth_discrimination_stimuli/002209_2014-06-28_18-36-10_260595134347_rgbf000051-resize_1/002209_2014-06-28_18-36-10_260595134347_rgbf000051-resize_1-target.png,depth_discrimination_stimuli/002763_2014-06-22_19-13-10_094959634447_rgbf000075-resize_4/002763_2014-06-22_19-13-10_094959634447_rgbf000075-resize_4-target.png,125.0,2.057,1.68375,0.0,1039,1015,121,1000,118,506,,462372,36,Man
13,526787,DepthScenes,v2_duration_discrimination,discrim_jsons/Discrim125_randls_28_rotated.json,http://54.235.29.9/FacialAge/BNav_EC2/DepthDuration/v2_depth_discrimination_MTurk/v2_DepthDiscrim_HTML.html#373,373,1536,722,1536,864,9-6-2022,16-6-57,14,depth_discrimination_stimuli/000191_2014-05-12_17-07-38_260595134347_rgbf000199-resize_0/000191_2014-05-12_17-07-38_260595134347_rgbf000199-resize_0-target.png,depth_discrimination_stimuli/000493_2014-06-09_21-01-18_260595134347_rgbf000196-resize_3/000493_2014-06-09_21-01-18_260595134347_rgbf000196-resize_3-target.png,125.0,3.7995,3.44,3.0,1221,1006,121,1011,121,497,,462372,36,Man
14,526787,DepthScenes,v2_duration_discrimination,discrim_jsons/Discrim125_randls_28_rotated.json,http://54.235.29.9/FacialAge/BNav_EC2/DepthDuration/v2_depth_discrimination_MTurk/v2_DepthDiscrim_HTML.html#373,373,1536,722,1536,864,9-6-2022,16-6-57,15,depth_discrimination_stimuli/001650_2014-06-20_12-09-00_260595134347_rgbf000087-resize_3/001650_2014-06-20_12-09-00_260595134347_rgbf000087-resize_3-target.png,depth_discrimination_stimuli/000682_2014-06-08_23-14-58_260595134347_rgbf000041-resize_5/000682_2014-06-08_23-14-58_260595134347_rgbf000041-resize_5-target.png,125.0,1.9505,2.7239999999999998,1.0,1098,1009,115,1012,119,502,,462372,36,Man
15,526787,DepthScenes,v2_duration_discrimination,discrim_jsons/Discrim125_randls_28_rotated.json,http://54.235.29.9/FacialAge/BNav_EC2/DepthDuration/v2_depth_discrimination_MTurk/v2_DepthDiscrim_HTML.html#373,373,1536,722,1536,864,9-6-2022,16-6-57,16,depth_discrimination_stimuli/002072_2014-06-24_21-48-06_260595134347_rgbf000115-resize_0/002072_2014-06-24_21-48-06_260595134347_rgbf000115-resize_0-target.png,depth_discrimination_stimuli/002072_2014-06-24_21-48-06_260595134347_rgbf000115-resize_0/002072_2014-06-24_21-48-06_260595134347_rgbf000115-resize_0-target.png,125.0,4.702,4.702,3.0,1018,1001,132,997,135,490,,462372,36,Man
16,526787,DepthScenes,v2_duration_discrimination,discrim_jsons/Discrim125_randls_28_rotated.json,http://54.235.29.9/FacialAge/BNav_EC2/DepthDuration/v2_depth_discrimination_MTurk/v2_DepthDiscrim_HTML.html#373,373,1536,722,1536,864,9-6-2022,16-6-57,17,depth_discrimination_stimuli/000943_2014-06-09_19-31-07_260595134347_rgbf000128-resize_1/000943_2014-06-09_19-31-07_260595134347_rgbf000128-resize_1-target.png,depth_discrimination_stimuli/003070_2014-06-15_14-58-27_094959634447_rgbf000150-resize_3/003070_2014-06-15_14-58-27_094959634447_rgbf000150-resize_3-target.png,125.0,1.9765,2.9415,1.0,1140,1016,116,993,139,490,,462372,36,Man
17,526787,DepthScenes,v2_duration_discrimination,discrim_jsons/Discrim125_randls_28_rotated.json,http://54.235.29.9/FacialAge/BNav_EC2/DepthDuration/v2_depth_discrimination_MTurk/v2_DepthDiscrim_HTML.html#373,373,1536,722,1536,864,9-6-2022,16-6-57,18,depth_discrimination_stimuli/000635_2014-06-08_16-38-42_260595134347_rgbf000106-resize_1/000635_2014-06-08_16-38-42_260595134347_rgbf000106-resize_1-target.png,depth_discrimination_stimuli/002279_2014-06-28_18-55-32_260595134347_rgbf000040-resize_5/002279_2014-06-28_18-55-32_260595134347_rgbf000040-resize_5-target.png,125.0,2.074,1.5043333333333,1.0,1289,1009,123,1005,113,505,,462372,36,Man
18,526787,DepthScenes,v2_duration_discrimination,discrim_jsons/Discrim125_randls_28_rotated.json,http://54.235.29.9/FacialAge/BNav_EC2/DepthDuration/v2_depth_discrimination_MTurk/v2_DepthDiscrim_HTML.html#373,373,1536,722,1536,864,9-6-2022,16-6-57,19,depth_discrimination_stimuli/002340_2014-06-28_20-05-46_260595134347_rgbf000113-resize_0/002340_2014-06-28_20-05-46_260595134347_rgbf000113-resize_0-target.png,depth_discrimination_stimuli/001016_2014-06-09_16-16-10_260595134347_rgbf000112-resize_5/001016_2014-06-09_16-16-10_260595134347_rgbf000112-resize_5-target.png,125.0,2.4735,1.6565,1.0,2071,1007,132,992,126,499,,462372,36,Man
19,526787,DepthScenes,v2_duration_discrimination,discrim_jsons/Discrim125_randls_28_rotated.json,http://54.235.29.9/FacialAge/BNav_EC2/DepthDuration/v2_depth_discrimination_MTurk/v2_DepthDiscrim_HTML.html#373,373,1536,722,1536,864,9-6-2022,16-6-57,20,depth_discrimination_stimuli/003587_2014-05-23_16-48-02_094959634447_rgbf002384-resize_2/003587_2014-05-23_16-48-02_094959634447_rgbf002384-resize_2-target.png,depth_discrimination_stimuli/001167_2014-06-17_15-38-07_260595134347_rgbf000108-resize_0/001167_2014-06-17_15-38-07_260595134347_rgbf000108-resize_0-target.png,125.0,1.357,1.8505,1.0,1509,1014,123,996,122,504,,462372,36,Man
20,526787,DepthScenes,v2_duration_discrimination,discrim_jsons/Discrim125_randls_28_rotated.json,http://54.235.29.9/FacialAge/BNav_EC2/DepthDuration/v2_depth_discrimination_MTurk/v2_DepthDiscrim_HTML.html#373,373,1536,722,1536,864,9-6-2022,16-6-57,21,depth_discrimination_stimuli/002657_2014-06-13_15-29-54_094959634447_rgbf000150-resize_1/002657_2014-06-13_15-29-54_094959634447_rgbf000150-resize_1-target.png,depth_discrimination_stimuli/002375_2014-06-28_20-13-44_260595134347_rgbf000032-resize_1/002375_2014-06-28_20-13-44_260595134347_rgbf000032-resize_1-target.png,125.0,4.919,4.0175,0.0,1079,1013,116,1001,130,495,,462372,36,Man
21,526787,DepthScenes,v2_duration_discrimination,discrim_jsons/Discrim125_randls_28_rotated.json,http://54.235.29.9/FacialAge/BNav_EC2/DepthDuration/v2_depth_discrimination_MTurk/v2_DepthDiscrim_HTML.html#373,373,1536,722,1536,864,9-6-2022,16-6-57,22,depth_discrimination_stimuli/000665_2014-06-09_20-42-35_260595134347_rgbf000110-resize_1/000665_2014-06-09_20-42-35_260595134347_rgbf000110-resize_1-target.png,depth_discrimination_stimuli/001150_2014-06-17_15-27-34_260595134347_rgbf000108-resize_2/001150_2014-06-17_15-27-34_260595134347_rgbf000108-resize_2-target.png,125.0,3.057,4.0325,1.0,1576,1010,125,992,124,507,,462372,36,Man
22,526787,DepthScenes,v2_duration_discrimination,discrim_jsons/Discrim125_randls_28_rotated.json,http://54.235.29.9/FacialAge/BNav_EC2/DepthDuration/v2_depth_discrimination_MTurk/v2_DepthDiscrim_HTML.html#373,373,1536,722,1536,864,9-6-2022,16-6-57,23,depth_discrimination_stimuli/002199_2014-06-28_18-33-56_260595134347_rgbf000074-resize_0/002199_2014-06-28_18-33-56_260595134347_rgbf000074-resize_0-target.png,depth_discrimination_stimuli/001056_2014-06-08_18-46-44_260595134347_rgbf000068-resize_0/001056_2014-06-08_18-46-44_260595134347_rgbf000068-resize_0-target.png,125.0,1.996,2.6625,0.0,1065,1008,124,993,136,495,,462372,36,Man
23,526787,DepthScenes,v2_duration_discrimination,discrim_jsons/Discrim125_randls_28_rotated.json,http://54.235.29.9/FacialAge/BNav_EC2/DepthDuration/v2_depth_discrimination_MTurk/v2_DepthDiscrim_HTML.html#373,373,1536,722,1536,864,9-6-2022,16-6-57,24,depth_discrimination_stimuli/002660_2014-06-13_15-44-18_094959634447_rgbf001878-resize_2/002660_2014-06-13_15-44-18_094959634447_rgbf001878-resize_2-target.png,depth_discrimination_stimuli/002153_2014-06-25_21-27-18_260595134347_rgbf000038-resize_5/002153_2014-06-25_21-27-18_260595134347_rgbf000038-resize_5-target.png,125.0,3.576,2.505,1.0,1028,1013,113,1006,130,500,,462372,36,Man
24,526787,DepthScenes,v2_duration_discrimination,discrim_jsons/Discrim125_randls_28_rotated.json,http://54.235.29.9/FacialAge/BNav_EC2/DepthDuration/v2_depth_discrimination_MTurk/v2_DepthDiscrim_HTML.html#373,373,1536,722,1536,864,9-6-2022,16-6-57,25,depth_discrimination_stimuli/002323_2014-06-28_20-01-54_260595134347_rgbf000051-resize_4/002323_2014-06-28_20-01-54_260595134347_rgbf000051-resize_4-target.png,depth_discrimination_stimuli/000917_2014-06-09_22-45-29_260595134347_rgbf000149-resize_3/000917_2014-06-09_22-45-29_260595134347_rgbf000149-resize_3-target.png,125.0,3.7310000000000003,4.1865,0.0,981,1001,132,1006,124,492,,462372,36,Man
25,526787,DepthScenes,v2_duration_discrimination,discrim_jsons/Discrim125_randls_28_rotated.json,http://54.235.29.9/FacialAge/BNav_EC2/DepthDuration/v2_depth_discrimination_MTurk/v2_DepthDiscrim_HTML.html#373,373,1536,722,1536,864,9-6-2022,16-6-57,26,depth_discrimination_stimuli/001170_2014-06-17_15-43-44_260595134347_rgbf000096-resize_6/001170_2014-06-17_15-43-44_260595134347_rgbf000096-resize_6-target.png,depth_discrimination_stimuli/001170_2014-06-17_15-43-44_260595134347_rgbf000096-resize_6/001170_2014-06-17_15-43-44_260595134347_rgbf000096-resize_6-target.png,125.0,1.1909999999999998,1.1909999999999998,3.0,1044,1002,126,1009,123,501,,462372,36,Man
26,526787,DepthScenes,v2_duration_discrimination,discrim_jsons/Discrim125_randls_28_rotated.json,http://54.235.29.9/FacialAge/BNav_EC2/DepthDuration/v2_depth_discrimination_MTurk/v2_DepthDiscrim_HTML.html#373,373,1536,722,1536,864,9-6-2022,16-6-57,27,depth_discrimination_stimuli/003081_2014-06-15_15-19-16_094959634447_rgbf000150-resize_1/003081_2014-06-15_15-19-16_094959634447_rgbf000150-resize_1-target.png,depth_discrimination_stimuli/001417_2014-06-19_16-25-36_260595134347_rgbf000115-resize_5/001417_2014-06-19_16-25-36_260595134347_rgbf000115-resize_5-target.png,125.0,3.9125,4.6255,1.0,1064,1003,126,1007,126,490,,462372,36,Man
27,526787,DepthScenes,v2_duration_discrimination,discrim_jsons/Discrim125_randls_28_rotated.json,http://54.235.29.9/FacialAge/BNav_EC2/DepthDuration/v2_depth_discrimination_MTurk/v2_DepthDiscrim_HTML.html#373,373,1536,722,1536,864,9-6-2022,16-6-57,28,depth_discrimination_stimuli/000927_2014-06-09_16-32-30_260595134347_rgbf000123-resize_3/000927_2014-06-09_16-32-30_260595134347_rgbf000123-resize_3-target.png,depth_discrimination_stimuli/001110_2014-06-15_17-25-28_260595134347_rgbf000150-resize_1/001110_2014-06-15_17-25-28_260595134347_rgbf000150-resize_1-target.png,125.0,2.6785,1.7115,1.0,889,1003,127,1000,132,492,,462372,36,Man
28,526787,DepthScenes,v2_duration_discrimination,discrim_jsons/Discrim125_randls_28_rotated.json,http://54.235.29.9/FacialAge/BNav_EC2/DepthDuration/v2_depth_discrimination_MTurk/v2_DepthDiscrim_HTML.html#373,373,1536,722,1536,864,9-6-2022,16-6-57,29,depth_discrimination_stimuli/001136_2014-06-17_15-19-41_260595134347_rgbf000076-resize_3/001136_2014-06-17_15-19-41_260595134347_rgbf000076-resize_3-target.png,depth_discrimination_stimuli/001164_2014-06-17_15-35-46_260595134347_rgbf000085-resize_3/001164_2014-06-17_15-35-46_260595134347_rgbf000085-resize_3-target.png,125.0,1.8655,2.354,1.0,988,1015,113,1005,125,507,,462372,36,Man
29,526787,DepthScenes,v2_duration_discrimination,discrim_jsons/Discrim125_randls_28_rotated.json,http://54.235.29.9/FacialAge/BNav_EC2/DepthDuration/v2_depth_discrimination_MTurk/v2_DepthDiscrim_HTML.html#373,373,1536,722,1536,864,9-6-2022,16-6-57,30,depth_discrimination_stimuli/001132_2014-06-17_14-48-54_260595134347_rgbf000100-resize_2/001132_2014-06-17_14-48-54_260595134347_rgbf000100-resize_2-target.png,depth_discrimination_stimuli/001133_2014-06-17_14-49-16_260595134347_rgbf000100-resize_0/001133_2014-06-17_14-49-16_260595134347_rgbf000100-resize_0-target.png,125.0,3.753,4.2115,3.0,1972,1015,121,993,123,512,,462372,36,Man
30,526787,DepthScenes,v2_duration_discrimination,discrim_jsons/Discrim125_randls_28_rotated.json,http://54.235.29.9/FacialAge/BNav_EC2/DepthDuration/v2_depth_discrimination_MTurk/v2_DepthDiscrim_HTML.html#373,373,1536,722,1536,864,9-6-2022,16-6-57,31,depth_discrimination_stimuli/002425_2014-06-28_20-27-29_260595134347_rgbf000031-resize_8/002425_2014-06-28_20-27-29_260595134347_rgbf000031-resize_8-target.png,depth_discrimination_stimuli/000642_2014-06-08_16-59-25_260595134347_rgbf000098-resize_2/000642_2014-06-08_16-59-25_260595134347_rgbf000098-resize_2-target.png,125.0,3.8960000000000004,2.8815,1.0,967,1001,133,1001,114,507,,462372,36,Man
31,526787,DepthScenes,v2_duration_discrimination,discrim_jsons/Discrim125_randls_28_rotated.json,http://54.235.29.9/FacialAge/BNav_EC2/DepthDuration/v2_depth_discrimination_MTurk/v2_DepthDiscrim_HTML.html#373,373,1536,722,1536,864,9-6-2022,16-6-57,32,depth_discrimination_stimuli/000780_2014-06-08_22-28-29_260595134347_rgbf000126-resize_1/000780_2014-06-08_22-28-29_260595134347_rgbf000126-resize_1-target.png,depth_discrimination_stimuli/002445_2014-06-28_20-32-16_260595134347_rgbf000029-resize_4/002445_2014-06-28_20-32-16_260595134347_rgbf000029-resize_4-target.png,125.0,3.3825,2.5315,0.0,1105,1002,131,992,128,499,,462372,36,Man
32,526787,DepthScenes,v2_duration_discrimination,discrim_jsons/Discrim125_randls_28_rotated.json,http://54.235.29.9/FacialAge/BNav_EC2/DepthDuration/v2_depth_discrimination_MTurk/v2_DepthDiscrim_HTML.html#373,373,1536,722,1536,864,9-6-2022,16-6-57,33,depth_discrimination_stimuli/002758_2014-06-22_19-11-20_094959634447_rgbf000128-resize_1/002758_2014-06-22_19-11-20_094959634447_rgbf000128-resize_1-target.png,depth_discrimination_stimuli/002630_2014-06-24_14-47-50_094959634447_rgbf000055-resize_1/002630_2014-06-24_14-47-50_094959634447_rgbf000055-resize_1-target.png,125.0,2.555,3.0095,0.0,908,1005,129,992,140,493,,462372,36,Man
33,526787,DepthScenes,v2_duration_discrimination,discrim_jsons/Discrim125_randls_28_rotated.json,http://54.235.29.9/FacialAge/BNav_EC2/DepthDuration/v2_depth_discrimination_MTurk/v2_DepthDiscrim_HTML.html#373,373,1536,722,1536,864,9-6-2022,16-6-57,34,depth_discrimination_stimuli/002953_2014-06-08_17-32-18_094959634447_rgbf000059-resize_5/002953_2014-06-08_17-32-18_094959634447_rgbf000059-resize_5-target.png,depth_discrimination_stimuli/000878_2014-06-08_22-52-45_260595134347_rgbf000045-resize_2/000878_2014-06-08_22-52-45_260595134347_rgbf000045-resize_2-target.png,125.0,1.551,2.092,0.0,928,1006,127,994,137,486,,462372,36,Man
34,526787,DepthScenes,v2_duration_discrimination,discrim_jsons/Discrim125_randls_28_rotated.json,http://54.235.29.9/FacialAge/BNav_EC2/DepthDuration/v2_depth_discrimination_MTurk/v2_DepthDiscrim_HTML.html#373,373,1536,722,1536,864,9-6-2022,16-6-57,35,depth_discrimination_stimuli/001540_2014-06-20_17-01-05_260595134347_rgbf000086-resize_2/001540_2014-06-20_17-01-05_260595134347_rgbf000086-resize_2-target.png,depth_discrimination_stimuli/001540_2014-06-20_17-01-05_260595134347_rgbf000086-resize_2/001540_2014-06-20_17-01-05_260595134347_rgbf000086-resize_2-target.png,125.0,1.459,1.459,3.0,952,1011,116,1007,125,490,,462372,36,Man
35,526787,DepthScenes,v2_duration_discrimination,discrim_jsons/Discrim125_randls_28_rotated.json,http://54.235.29.9/FacialAge/BNav_EC2/DepthDuration/v2_depth_discrimination_MTurk/v2_DepthDiscrim_HTML.html#373,373,1536,722,1536,864,9-6-2022,16-6-57,36,depth_discrimination_stimuli/002344_2014-06-28_20-06-29_260595134347_rgbf000030-resize_1/002344_2014-06-28_20-06-29_260595134347_rgbf000030-resize_1-target.png,depth_discrimination_stimuli/002725_2014-06-22_11-47-51_094959634447_rgbf000070-resize_1/002725_2014-06-22_11-47-51_094959634447_rgbf000070-resize_1-target.png,125.0,1.5795,2.195,0.0,968,1015,125,985,131,495,,462372,36,Man
36,526787,DepthScenes,v2_duration_discrimination,discrim_jsons/Discrim125_randls_28_rotated.json,http://54.235.29.9/FacialAge/BNav_EC2/DepthDuration/v2_depth_discrimination_MTurk/v2_DepthDiscrim_HTML.html#373,373,1536,722,1536,864,9-6-2022,16-6-57,37,depth_discrimination_stimuli/000549_2014-06-08_22-10-24_260595134347_rgbf000247-resize_3/000549_2014-06-08_22-10-24_260595134347_rgbf000247-resize_3-target.png,depth_discrimination_stimuli/001055_2014-06-08_18-45-35_260595134347_rgbf000111-resize_4/001055_2014-06-08_18-45-35_260595134347_rgbf000111-resize_4-target.png,125.0,1.841,2.4290000000000003,0.0,793,1001,126,1010,124,502,,462372,36,Man
37,526787,DepthScenes,v2_duration_discrimination,discrim_jsons/Discrim125_randls_28_rotated.json,http://54.235.29.9/FacialAge/BNav_EC2/DepthDuration/v2_depth_discrimination_MTurk/v2_DepthDiscrim_HTML.html#373,373,1536,722,1536,864,9-6-2022,16-6-57,38,depth_discrimination_stimuli/001516_2014-06-20_16-25-09_260595134347_rgbf000076-resize_2/001516_2014-06-20_16-25-09_260595134347_rgbf000076-resize_2-target.png,depth_discrimination_stimuli/002118_2014-06-25_20-32-08_260595134347_rgbf000078-resize_1/002118_2014-06-25_20-32-08_260595134347_rgbf000078-resize_1-target.png,125.0,1.7445,2.6460000000000004,0.0,879,1008,124,998,135,490,,462372,36,Man
38,526787,DepthScenes,v2_duration_discrimination,discrim_jsons/Discrim125_randls_28_rotated.json,http://54.235.29.9/FacialAge/BNav_EC2/DepthDuration/v2_depth_discrimination_MTurk/v2_DepthDiscrim_HTML.html#373,373,1536,722,1536,864,9-6-2022,16-6-57,39,depth_discrimination_stimuli/001828_2014-06-26_21-40-03_260595134347_rgbf000024-resize_0/001828_2014-06-26_21-40-03_260595134347_rgbf000024-resize_0-target.png,depth_discrimination_stimuli/000009_2014-05-26_14-32-05_260595134347_rgbf000034-resize_3/000009_2014-05-26_14-32-05_260595134347_rgbf000034-resize_3-target.png,125.0,4.8260000000000005,3.8715,0.0,1325,1013,125,991,126,506,,462372,36,Man
39,526787,DepthScenes,v2_duration_discrimination,discrim_jsons/Discrim125_randls_28_rotated.json,http://54.235.29.9/FacialAge/BNav_EC2/DepthDuration/v2_depth_discrimination_MTurk/v2_DepthDiscrim_HTML.html#373,373,1536,722,1536,864,9-6-2022,16-6-57,40,depth_discrimination_stimuli/000109_2014-05-14_23-41-52_260595134347_rgbf000035-resize_9/000109_2014-05-14_23-41-52_260595134347_rgbf000035-resize_9-target.png,depth_discrimination_stimuli/000470_2014-06-09_19-42-40_260595134347_rgbf000094-resize_1/000470_2014-06-09_19-42-40_260595134347_rgbf000094-resize_1-target.png,125.0,1.3545,1.831,3.0,1035,1010,124,1003,115,506,,462372,36,Man
40,526787,DepthScenes,v2_duration_discrimination,discrim_jsons/Discrim125_randls_28_rotated.json,http://54.235.29.9/FacialAge/BNav_EC2/DepthDuration/v2_depth_discrimination_MTurk/v2_DepthDiscrim_HTML.html#373,373,1536,722,1536,864,9-6-2022,16-6-57,41,depth_discrimination_stimuli/001815_2014-06-26_20-52-55_260595134347_rgbf000020-resize_0/001815_2014-06-26_20-52-55_260595134347_rgbf000020-resize_0-target.png,depth_discrimination_stimuli/001808_2014-06-26_20-50-58_260595134347_rgbf000029-resize_1/001808_2014-06-26_20-50-58_260595134347_rgbf000029-resize_1-target.png,125.0,3.3865,4.249,0.0,989,1010,119,1007,125,498,,462372,36,Man
41,526787,DepthScenes,v2_duration_discrimination,discrim_jsons/Discrim125_randls_28_rotated.json,http://54.235.29.9/FacialAge/BNav_EC2/DepthDuration/v2_depth_discrimination_MTurk/v2_DepthDiscrim_HTML.html#373,373,1536,722,1536,864,9-6-2022,16-6-57,42,depth_discrimination_stimuli/000502_2014-06-08_23-02-32_260595134347_rgbf000063-resize_4/000502_2014-06-08_23-02-32_260595134347_rgbf000063-resize_4-target.png,depth_discrimination_stimuli/001199_2014-06-17_16-03-48_260595134347_rgbf000077-resize_0/001199_2014-06-17_16-03-48_260595134347_rgbf000077-resize_0-target.png,125.0,2.431,3.4375,0.0,773,1010,126,999,119,507,,462372,36,Man
42,526787,DepthScenes,v2_duration_discrimination,discrim_jsons/Discrim125_randls_28_rotated.json,http://54.235.29.9/FacialAge/BNav_EC2/DepthDuration/v2_depth_discrimination_MTurk/v2_DepthDiscrim_HTML.html#373,373,1536,722,1536,864,9-6-2022,16-6-57,43,depth_discrimination_stimuli/003048_2014-06-15_13-49-43_094959634447_rgbf000150-resize_1/003048_2014-06-15_13-49-43_094959634447_rgbf000150-resize_1-target.png,depth_discrimination_stimuli/002043_2014-06-24_20-29-38_260595134347_rgbf000039-resize_4/002043_2014-06-24_20-29-38_260595134347_rgbf000039-resize_4-target.png,125.0,4.0035,2.8435,3.0,1002,1008,124,1000,127,495,,462372,36,Man
43,526787,DepthScenes,v2_duration_discrimination,discrim_jsons/Discrim125_randls_28_rotated.json,http://54.235.29.9/FacialAge/BNav_EC2/DepthDuration/v2_depth_discrimination_MTurk/v2_DepthDiscrim_HTML.html#373,373,1536,722,1536,864,9-6-2022,16-6-57,44,depth_discrimination_stimuli/000691_2014-06-08_13-08-50_260595134347_rgbf000132-resize_3/000691_2014-06-08_13-08-50_260595134347_rgbf000132-resize_3-target.png,depth_discrimination_stimuli/002213_2014-06-28_18-37-58_260595134347_rgbf000055-resize_1/002213_2014-06-28_18-37-58_260595134347_rgbf000055-resize_1-target.png,125.0,4.1530000000000005,3.62,3.0,879,1012,115,1007,125,491,,462372,36,Man
44,526787,DepthScenes,v2_duration_discrimination,discrim_jsons/Discrim125_randls_28_rotated.json,http://54.235.29.9/FacialAge/BNav_EC2/DepthDuration/v2_depth_discrimination_MTurk/v2_DepthDiscrim_HTML.html#373,373,1536,722,1536,864,9-6-2022,16-6-57,45,depth_discrimination_stimuli/001235_2014-06-17_16-37-36_260595134347_rgbf000084-resize_4/001235_2014-06-17_16-37-36_260595134347_rgbf000084-resize_4-target.png,depth_discrimination_stimuli/000788_2014-06-08_22-34-36_260595134347_rgbf000131-resize_1/000788_2014-06-08_22-34-36_260595134347_rgbf000131-resize_1-target.png,125.0,3.6605,3.359,3.0,969,1005,125,1010,122,504,,462372,36,Man
45,526787,DepthScenes,v2_duration_discrimination,discrim_jsons/Discrim125_randls_28_rotated.json,http://54.235.29.9/FacialAge/BNav_EC2/DepthDuration/v2_depth_discrimination_MTurk/v2_DepthDiscrim_HTML.html#373,373,1536,722,1536,864,9-6-2022,16-6-57,46,depth_discrimination_stimuli/002875_2014-06-01_15-19-00_094959634447_rgbf000151-resize_1/002875_2014-06-01_15-19-00_094959634447_rgbf000151-resize_1-target.png,depth_discrimination_stimuli/001011_2014-06-08_23-18-54_260595134347_rgbf000044-resize_4/001011_2014-06-08_23-18-54_260595134347_rgbf000044-resize_4-target.png,125.0,1.9675,2.4730000000000003,3.0,669,1001,135,995,120,508,,462372,36,Man
46,526787,DepthScenes,v2_duration_discrimination,discrim_jsons/Discrim125_randls_28_rotated.json,http://54.235.29.9/FacialAge/BNav_EC2/DepthDuration/v2_depth_discrimination_MTurk/v2_DepthDiscrim_HTML.html#373,373,1536,722,1536,864,9-6-2022,16-6-57,47,depth_discrimination_stimuli/002637_2014-06-24_14-51-13_094959634447_rgbf000066-resize_4/002637_2014-06-24_14-51-13_094959634447_rgbf000066-resize_4-target.png,depth_discrimination_stimuli/003534_2014-05-22_15-06-10_094959634447_rgbf000102-resize_4/003534_2014-05-22_15-06-10_094959634447_rgbf000102-resize_4-target.png,125.0,1.9955,1.426,0.0,1106,1001,134,1001,116,508,,462372,36,Man
47,526787,DepthScenes,v2_duration_discrimination,discrim_jsons/Discrim125_randls_28_rotated.json,http://54.235.29.9/FacialAge/BNav_EC2/DepthDuration/v2_depth_discrimination_MTurk/v2_DepthDiscrim_HTML.html#373,373,1536,722,1536,864,9-6-2022,16-6-57,48,depth_discrimination_stimuli/002805_2014-06-22_19-54-03_094959634447_rgbf000079-resize_1/002805_2014-06-22_19-54-03_094959634447_rgbf000079-resize_1-target.png,depth_discrimination_stimuli/000906_2014-06-08_13-35-43_260595134347_rgbf000155-resize_1/000906_2014-06-08_13-35-43_260595134347_rgbf000155-resize_1-target.png,125.0,3.1439999999999997,2.8489999999999998,3.0,721,1003,138,992,126,500,,462372,36,Man
48,526787,DepthScenes,v2_duration_discrimination,discrim_jsons/Discrim125_randls_28_rotated.json,http://54.235.29.9/FacialAge/BNav_EC2/DepthDuration/v2_depth_discrimination_MTurk/v2_DepthDiscrim_HTML.html#373,373,1536,722,1536,864,9-6-2022,16-6-57,49,depth_discrimination_stimuli/000103_2014-05-14_22-01-17_260595134347_rgbf000152-resize_5/000103_2014-05-14_22-01-17_260595134347_rgbf000152-resize_5-target.png,depth_discrimination_stimuli/001555_2014-06-20_17-12-10_260595134347_rgbf000065-resize_4/001555_2014-06-20_17-12-10_260595134347_rgbf000065-resize_4-target.png,125.0,1.993,1.633,1.0,965,1013,124,996,120,503,,462372,36,Man
49,526787,DepthScenes,v2_duration_discrimination,discrim_jsons/Discrim125_randls_28_rotated.json,http://54.235.29.9/FacialAge/BNav_EC2/DepthDuration/v2_depth_discrimination_MTurk/v2_DepthDiscrim_HTML.html#373,373,1536,722,1536,864,9-6-2022,16-6-57,50,depth_discrimination_stimuli/002678_2014-06-13_16-15-32_094959634447_rgbf000151-resize_6/002678_2014-06-13_16-15-32_094959634447_rgbf000151-resize_6-target.png,depth_discrimination_stimuli/000368_2014-06-09_15-53-01_260595134347_rgbf000155-resize_2/000368_2014-06-09_15-53-01_260595134347_rgbf000155-resize_2-target.png,125.0,2.1830000000000003,2.4859999999999998,1.0,1046,1003,135,991,125,502,,462372,36,Man
50,526787,DepthScenes,v2_duration_discrimination,discrim_jsons/Discrim125_randls_28_rotated.json,http://54.235.29.9/FacialAge/BNav_EC2/DepthDuration/v2_depth_discrimination_MTurk/v2_DepthDiscrim_HTML.html#373,373,1536,722,1536,864,9-6-2022,16-6-57,51,depth_discrimination_stimuli/002568_2014-06-24_13-59-21_094959634447_rgbf000062-resize_4/002568_2014-06-24_13-59-21_094959634447_rgbf000062-resize_4-target.png,depth_discrimination_stimuli/003492_2014-05-21_15-50-55_094959634447_rgbf000828-resize_1/003492_2014-05-21_15-50-55_094959634447_rgbf000828-resize_1-target.png,125.0,3.015,4.06875,0.0,793,1013,130,999,121,489,,462372,36,Man
51,526787,DepthScenes,v2_duration_discrimination,discrim_jsons/Discrim125_randls_28_rotated.json,http://54.235.29.9/FacialAge/BNav_EC2/DepthDuration/v2_depth_discrimination_MTurk/v2_DepthDiscrim_HTML.html#373,373,1536,722,1536,864,9-6-2022,16-6-57,52,depth_discrimination_stimuli/001222_2014-06-17_16-24-06_260595134347_rgbf000073-resize_0/001222_2014-06-17_16-24-06_260595134347_rgbf000073-resize_0-target.png,depth_discrimination_stimuli/001222_2014-06-17_16-24-06_260595134347_rgbf000073-resize_0/001222_2014-06-17_16-24-06_260595134347_rgbf000073-resize_0-target.png,125.0,1.4385,1.4385,3.0,843,1020,107,1010,129,486,,462372,36,Man
52,526787,DepthScenes,v2_duration_discrimination,discrim_jsons/Discrim125_randls_28_rotated.json,http://54.235.29.9/FacialAge/BNav_EC2/DepthDuration/v2_depth_discrimination_MTurk/v2_DepthDiscrim_HTML.html#373,373,1536,722,1536,864,9-6-2022,16-6-57,53,depth_discrimination_stimuli/000457_2014-06-08_16-52-43_260595134347_rgbf000199-resize_1/000457_2014-06-08_16-52-43_260595134347_rgbf000199-resize_1-target.png,depth_discrimination_stimuli/000929_2014-06-09_16-33-19_260595134347_rgbf000139-resize_0/000929_2014-06-09_16-33-19_260595134347_rgbf000139-resize_0-target.png,125.0,3.6489999999999996,2.8680000000000003,1.0,857,1007,120,1010,130,490,,462372,36,Man
53,526787,DepthScenes,v2_duration_discrimination,discrim_jsons/Discrim125_randls_28_rotated.json,http://54.235.29.9/FacialAge/BNav_EC2/DepthDuration/v2_depth_discrimination_MTurk/v2_DepthDiscrim_HTML.html#373,373,1536,722,1536,864,9-6-2022,16-6-57,54,depth_discrimination_stimuli/001100_2014-06-15_17-46-26_260595134347_rgbf000225-resize_2/001100_2014-06-15_17-46-26_260595134347_rgbf000225-resize_2-target.png,depth_discrimination_stimuli/002784_2014-06-22_19-26-30_094959634447_rgbf000083-resize_3/002784_2014-06-22_19-26-30_094959634447_rgbf000083-resize_3-target.png,125.0,2.24,1.8046666666667,0.0,755,1023,113,999,115,503,,462372,36,Man
54,526787,DepthScenes,v2_duration_discrimination,discrim_jsons/Discrim125_randls_28_rotated.json,http://54.235.29.9/FacialAge/BNav_EC2/DepthDuration/v2_depth_discrimination_MTurk/v2_DepthDiscrim_HTML.html#373,373,1536,722,1536,864,9-6-2022,16-6-57,55,depth_discrimination_stimuli/000677_2014-06-08_23-10-32_260595134347_rgbf000158-resize_6/000677_2014-06-08_23-10-32_260595134347_rgbf000158-resize_6-target.png,depth_discrimination_stimuli/001029_2014-06-08_13-17-57_260595134347_rgbf000065-resize_1/001029_2014-06-08_13-17-57_260595134347_rgbf000065-resize_1-target.png,125.0,3.556,3.0835,3.0,967,1013,122,1004,115,502,,462372,36,Man
55,526787,DepthScenes,v2_duration_discrimination,discrim_jsons/Discrim125_randls_28_rotated.json,http://54.235.29.9/FacialAge/BNav_EC2/DepthDuration/v2_depth_discrimination_MTurk/v2_DepthDiscrim_HTML.html#373,373,1536,722,1536,864,9-6-2022,16-6-57,56,depth_discrimination_stimuli/003129_2014-05-12_10-48-10_094959634447_rgbf000100-resize_0/003129_2014-05-12_10-48-10_094959634447_rgbf000100-resize_0-target.png,depth_discrimination_stimuli/000414_2014-06-04_19-49-13_260595134347_rgbf000044-resize_0/000414_2014-06-04_19-49-13_260595134347_rgbf000044-resize_0-target.png,125.0,4.9305,4.329,3.0,1055,1010,126,991,127,505,,462372,36,Man
56,526787,DepthScenes,v2_duration_discrimination,discrim_jsons/Discrim125_randls_28_rotated.json,http://54.235.29.9/FacialAge/BNav_EC2/DepthDuration/v2_depth_discrimination_MTurk/v2_DepthDiscrim_HTML.html#373,373,1536,722,1536,864,9-6-2022,16-6-57,57,depth_discrimination_stimuli/003083_2014-06-15_15-21-03_094959634447_rgbf000063-resize_1/003083_2014-06-15_15-21-03_094959634447_rgbf000063-resize_1-target.png,depth_discrimination_stimuli/000486_2014-06-09_20-47-20_260595134347_rgbf000143-resize_2/000486_2014-06-09_20-47-20_260595134347_rgbf000143-resize_2-target.png,125.0,4.1405,4.8325,1.0,1009,1012,126,1003,115,507,,462372,36,Man
57,526787,DepthScenes,v2_duration_discrimination,discrim_jsons/Discrim125_randls_28_rotated.json,http://54.235.29.9/FacialAge/BNav_EC2/DepthDuration/v2_depth_discrimination_MTurk/v2_DepthDiscrim_HTML.html#373,373,1536,722,1536,864,9-6-2022,16-6-57,58,depth_discrimination_stimuli/002639_2014-06-24_14-51-37_094959634447_rgbf000074-resize_4/002639_2014-06-24_14-51-37_094959634447_rgbf000074-resize_4-target.png,depth_discrimination_stimuli/003292_2014-05-14_21-53-49_094959634447_rgbf000100-resize_2/003292_2014-05-14_21-53-49_094959634447_rgbf000100-resize_2-target.png,125.0,4.0375,3.4815,1.0,709,1004,131,993,127,499,,462372,36,Man
58,526787,DepthScenes,v2_duration_discrimination,discrim_jsons/Discrim125_randls_28_rotated.json,http://54.235.29.9/FacialAge/BNav_EC2/DepthDuration/v2_depth_discrimination_MTurk/v2_DepthDiscrim_HTML.html#373,373,1536,722,1536,864,9-6-2022,16-6-57,59,depth_discrimination_stimuli/003228_2014-05-14_13-42-35_094959634447_rgbf000101-resize_1/003228_2014-05-14_13-42-35_094959634447_rgbf000101-resize_1-target.png,depth_discrimination_stimuli/002600_2014-06-24_14-27-04_094959634447_rgbf000074-resize_2/002600_2014-06-24_14-27-04_094959634447_rgbf000074-resize_2-target.png,125.0,1.9680000000000002,2.7575,3.0,956,1006,128,1001,129,490,,462372,36,Man
59,526787,DepthScenes,v2_duration_discrimination,discrim_jsons/Discrim125_randls_28_rotated.json,http://54.235.29.9/FacialAge/BNav_EC2/DepthDuration/v2_depth_discrimination_MTurk/v2_DepthDiscrim_HTML.html#373,373,1536,722,1536,864,9-6-2022,16-6-57,60,depth_discrimination_stimuli/002103_2014-06-25_20-00-40_260595134347_rgbf000049-resize_0/002103_2014-06-25_20-00-40_260595134347_rgbf000049-resize_0-target.png,depth_discrimination_stimuli/002039_2014-06-24_20-22-38_260595134347_rgbf000084-resize_1/002039_2014-06-24_20-22-38_260595134347_rgbf000084-resize_1-target.png,125.0,4.105,4.408,3.0,1024,1015,124,992,123,507,,462372,36,Man
60,526787,DepthScenes,v2_duration_discrimination,discrim_jsons/Discrim125_randls_28_rotated.json,http://54.235.29.9/FacialAge/BNav_EC2/DepthDuration/v2_depth_discrimination_MTurk/v2_DepthDiscrim_HTML.html#373,373,1536,722,1536,864,9-6-2022,16-6-57,61,depth_discrimination_stimuli/002995_2014-06-15_12-31-26_094959634447_rgbf000150-resize_1/002995_2014-06-15_12-31-26_094959634447_rgbf000150-resize_1-target.png,depth_discrimination_stimuli/002748_2014-06-22_19-07-22_094959634447_rgbf000078-resize_1/002748_2014-06-22_19-07-22_094959634447_rgbf000078-resize_1-target.png,125.0,3.8360000000000003,4.6705,1.0,1377,1010,124,1004,112,504,,462372,36,Man
61,526787,DepthScenes,v2_duration_discrimination,discrim_jsons/Discrim125_randls_28_rotated.json,http://54.235.29.9/FacialAge/BNav_EC2/DepthDuration/v2_depth_discrimination_MTurk/v2_DepthDiscrim_HTML.html#373,373,1536,722,1536,864,9-6-2022,16-6-57,62,depth_discrimination_stimuli/001052_2014-06-08_18-24-54_260595134347_rgbf000130-resize_1/001052_2014-06-08_18-24-54_260595134347_rgbf000130-resize_1-target.png,depth_discrimination_stimuli/002988_2014-06-15_12-24-20_094959634447_rgbf000150-resize_1/002988_2014-06-15_12-24-20_094959634447_rgbf000150-resize_1-target.png,125.0,4.1045,4.7669999999999995,3.0,1032,1015,121,1003,115,509,,462372,36,Man
62,526787,DepthScenes,v2_duration_discrimination,discrim_jsons/Discrim125_randls_28_rotated.json,http://54.235.29.9/FacialAge/BNav_EC2/DepthDuration/v2_depth_discrimination_MTurk/v2_DepthDiscrim_HTML.html#373,373,1536,722,1536,864,9-6-2022,16-6-57,63,depth_discrimination_stimuli/000787_2014-06-08_22-33-53_260595134347_rgbf000175-resize_1/000787_2014-06-08_22-33-53_260595134347_rgbf000175-resize_1-target.png,depth_discrimination_stimuli/000787_2014-06-08_22-33-53_260595134347_rgbf000175-resize_1/000787_2014-06-08_22-33-53_260595134347_rgbf000175-resize_1-target.png,125.0,4.784,4.784,3.0,708,1014,116,1006,127,499,,462372,36,Man
63,526787,DepthScenes,v2_duration_discrimination,discrim_jsons/Discrim125_randls_28_rotated.json,http://54.235.29.9/FacialAge/BNav_EC2/DepthDuration/v2_depth_discrimination_MTurk/v2_DepthDiscrim_HTML.html#373,373,1536,722,1536,864,9-6-2022,16-6-57,64,depth_discrimination_stimuli/001571_2014-06-20_17-21-32_260595134347_rgbf000089-resize_1/001571_2014-06-20_17-21-32_260595134347_rgbf000089-resize_1-target.png,depth_discrimination_stimuli/002272_2014-06-28_18-53-56_260595134347_rgbf000067-resize_2/002272_2014-06-28_18-53-56_260595134347_rgbf000067-resize_2-target.png,125.0,1.86,1.138,1.0,852,1011,125,1002,115,511,,462372,36,Man
64,526787,DepthScenes,v2_duration_discrimination,discrim_jsons/Discrim125_randls_28_rotated.json,http://54.235.29.9/FacialAge/BNav_EC2/DepthDuration/v2_depth_discrimination_MTurk/v2_DepthDiscrim_HTML.html#373,373,1536,722,1536,864,9-6-2022,16-6-57,65,depth_discrimination_stimuli/002545_2014-06-24_13-38-53_094959634447_rgbf000080-resize_4/002545_2014-06-24_13-38-53_094959634447_rgbf000080-resize_4-target.png,depth_discrimination_stimuli/001092_2014-06-15_17-34-58_260595134347_rgbf000171-resize_3/001092_2014-06-15_17-34-58_260595134347_rgbf000171-resize_3-target.png,125.0,1.9205,2.6935,1.0,818,1006,120,1008,125,491,,462372,36,Man
65,526787,DepthScenes,v2_duration_discrimination,discrim_jsons/Discrim125_randls_28_rotated.json,http://54.235.29.9/FacialAge/BNav_EC2/DepthDuration/v2_depth_discrimination_MTurk/v2_DepthDiscrim_HTML.html#373,373,1536,722,1536,864,9-6-2022,16-6-57,66,depth_discrimination_stimuli/003079_2014-06-15_15-18-20_094959634447_rgbf000152-resize_8/003079_2014-06-15_15-18-20_094959634447_rgbf000152-resize_8-target.png,depth_discrimination_stimuli/000506_2014-06-08_23-21-00_260595134347_rgbf000070-resize_7/000506_2014-06-08_23-21-00_260595134347_rgbf000070-resize_7-target.png,125.0,2.8775,4.0585,3.0,858,1008,118,1009,120,496,,462372,36,Man
66,526787,DepthScenes,v2_duration_discrimination,discrim_jsons/Discrim125_randls_28_rotated.json,http://54.235.29.9/FacialAge/BNav_EC2/DepthDuration/v2_depth_discrimination_MTurk/v2_DepthDiscrim_HTML.html#373,373,1536,722,1536,864,9-6-2022,16-6-57,67,depth_discrimination_stimuli/000556_2014-06-09_22-42-56_260595134347_rgbf000214-resize_1/000556_2014-06-09_22-42-56_260595134347_rgbf000214-resize_1-target.png,depth_discrimination_stimuli/001158_2014-06-17_15-32-16_260595134347_rgbf000138-resize_2/001158_2014-06-17_15-32-16_260595134347_rgbf000138-resize_2-target.png,125.0,4.8415,4.5315,3.0,1270,1002,139,991,119,500,,462372,36,Man
67,526787,DepthScenes,v2_duration_discrimination,discrim_jsons/Discrim125_randls_28_rotated.json,http://54.235.29.9/FacialAge/BNav_EC2/DepthDuration/v2_depth_discrimination_MTurk/v2_DepthDiscrim_HTML.html#373,373,1536,722,1536,864,9-6-2022,16-6-57,68,depth_discrimination_stimuli/001214_2014-06-17_16-13-55_260595134347_rgbf000111-resize_0/001214_2014-06-17_16-13-55_260595134347_rgbf000111-resize_0-target.png,depth_discrimination_stimuli/000810_2014-06-08_17-20-01_260595134347_rgbf000105-resize_0/000810_2014-06-08_17-20-01_260595134347_rgbf000105-resize_0-target.png,125.0,2.6505,1.4865,0.0,1152,1010,118,1011,130,500,,462372,36,Man
68,526787,DepthScenes,v2_duration_discrimination,discrim_jsons/Discrim125_randls_28_rotated.json,http://54.235.29.9/FacialAge/BNav_EC2/DepthDuration/v2_depth_discrimination_MTurk/v2_DepthDiscrim_HTML.html#373,373,1536,722,1536,864,9-6-2022,16-6-57,69,depth_discrimination_stimuli/003490_2014-05-21_15-50-11_094959634447_rgbf000101-resize_3/003490_2014-05-21_15-50-11_094959634447_rgbf000101-resize_3-target.png,depth_discrimination_stimuli/001175_2014-06-17_15-45-55_260595134347_rgbf000129-resize_4/001175_2014-06-17_15-45-55_260595134347_rgbf000129-resize_4-target.png,125.0,3.6445,4.255,0.0,1282,1006,129,1009,119,490,,462372,36,Man
69,526787,DepthScenes,v2_duration_discrimination,discrim_jsons/Discrim125_randls_28_rotated.json,http://54.235.29.9/FacialAge/BNav_EC2/DepthDuration/v2_depth_discrimination_MTurk/v2_DepthDiscrim_HTML.html#373,373,1536,722,1536,864,9-6-2022,16-6-57,70,depth_discrimination_stimuli/002444_2014-06-28_20-32-08_260595134347_rgbf000027-resize_0/002444_2014-06-28_20-32-08_260595134347_rgbf000027-resize_0-target.png,depth_discrimination_stimuli/000436_2014-06-09_22-25-11_260595134347_rgbf000137-resize_1/000436_2014-06-09_22-25-11_260595134347_rgbf000137-resize_1-target.png,125.0,4.388999999999999,4.0705,3.0,976,1004,131,1005,117,501,,462372,36,Man
70,526787,DepthScenes,v2_duration_discrimination,discrim_jsons/Discrim125_randls_28_rotated.json,http://54.235.29.9/FacialAge/BNav_EC2/DepthDuration/v2_depth_discrimination_MTurk/v2_DepthDiscrim_HTML.html#373,373,1536,722,1536,864,9-6-2022,16-6-57,71,depth_discrimination_stimuli/000375_2014-06-08_11-17-29_260595134347_rgbf000133-resize_2/000375_2014-06-08_11-17-29_260595134347_rgbf000133-resize_2-target.png,depth_discrimination_stimuli/000375_2014-06-08_11-17-29_260595134347_rgbf000133-resize_2/000375_2014-06-08_11-17-29_260595134347_rgbf000133-resize_2-target.png,125.0,4.718,4.718,3.0,860,1013,126,992,123,508,,462372,36,Man
71,526787,DepthScenes,v2_duration_discrimination,discrim_jsons/Discrim125_randls_28_rotated.json,http://54.235.29.9/FacialAge/BNav_EC2/DepthDuration/v2_depth_discrimination_MTurk/v2_DepthDiscrim_HTML.html#373,373,1536,722,1536,864,9-6-2022,16-6-57,72,depth_discrimination_stimuli/001032_2014-06-08_13-23-17_260595134347_rgbf000021-resize_3/001032_2014-06-08_13-23-17_260595134347_rgbf000021-resize_3-target.png,depth_discrimination_stimuli/001059_2014-06-08_21-53-27_260595134347_rgbf000061-resize_4/001059_2014-06-08_21-53-27_260595134347_rgbf000061-resize_4-target.png,125.0,3.2725,2.4185,3.0,663,1013,119,1007,125,498,,462372,36,Man
72,526787,DepthScenes,v2_duration_discrimination,discrim_jsons/Discrim125_randls_28_rotated.json,http://54.235.29.9/FacialAge/BNav_EC2/DepthDuration/v2_depth_discrimination_MTurk/v2_DepthDiscrim_HTML.html#373,373,1536,722,1536,864,9-6-2022,16-6-57,73,depth_discrimination_stimuli/003010_2014-06-15_12-54-35_094959634447_rgbf000112-resize_0/003010_2014-06-15_12-54-35_094959634447_rgbf000112-resize_0-target.png,depth_discrimination_stimuli/001810_2014-06-26_20-51-35_260595134347_rgbf000040-resize_3/001810_2014-06-26_20-51-35_260595134347_rgbf000040-resize_3-target.png,125.0,3.1185,2.2525,1.0,716,1010,121,1010,120,495,,462372,36,Man
73,526787,DepthScenes,v2_duration_discrimination,discrim_jsons/Discrim125_randls_28_rotated.json,http://54.235.29.9/FacialAge/BNav_EC2/DepthDuration/v2_depth_discrimination_MTurk/v2_DepthDiscrim_HTML.html#373,373,1536,722,1536,864,9-6-2022,16-6-57,74,depth_discrimination_stimuli/000483_2014-06-09_20-41-45_260595134347_rgbf000116-resize_4/000483_2014-06-09_20-41-45_260595134347_rgbf000116-resize_4-target.png,depth_discrimination_stimuli/000469_2014-06-09_19-42-10_260595134347_rgbf000081-resize_1/000469_2014-06-09_19-42-10_260595134347_rgbf000081-resize_1-target.png,125.0,1.337,1.652,3.0,1501,1027,111,997,121,506,,462372,36,Man
74,526787,DepthScenes,v2_duration_discrimination,discrim_jsons/Discrim125_randls_28_rotated.json,http://54.235.29.9/FacialAge/BNav_EC2/DepthDuration/v2_depth_discrimination_MTurk/v2_DepthDiscrim_HTML.html#373,373,1536,722,1536,864,9-6-2022,16-6-57,75,depth_discrimination_stimuli/000742_2014-06-08_18-48-09_260595134347_rgbf000164-resize_4/000742_2014-06-08_18-48-09_260595134347_rgbf000164-resize_4-target.png,depth_discrimination_stimuli/001066_2014-06-08_22-03-20_260595134347_rgbf000066-resize_4/001066_2014-06-08_22-03-20_260595134347_rgbf000066-resize_4-target.png,125.0,4.632,4.2330000000000005,3.0,1044,1011,125,1004,113,506,,462372,36,Man
75,526787,DepthScenes,v2_duration_discrimination,discrim_jsons/Discrim125_randls_28_rotated.json,http://54.235.29.9/FacialAge/BNav_EC2/DepthDuration/v2_depth_discrimination_MTurk/v2_DepthDiscrim_HTML.html#373,373,1536,722,1536,864,9-6-2022,16-6-57,76,depth_discrimination_stimuli/001447_2014-06-19_17-00-32_260595134347_rgbf000082-resize_5/001447_2014-06-19_17-00-32_260595134347_rgbf000082-resize_5-target.png,depth_discrimination_stimuli/000447_2014-06-08_16-15-46_260595134347_rgbf000130-resize_1/000447_2014-06-08_16-15-46_260595134347_rgbf000130-resize_1-target.png,125.0,4.13775,4.479,0.0,719,1013,120,992,127,500,,462372,36,Man
76,526787,DepthScenes,v2_duration_discrimination,discrim_jsons/Discrim125_randls_28_rotated.json,http://54.235.29.9/FacialAge/BNav_EC2/DepthDuration/v2_depth_discrimination_MTurk/v2_DepthDiscrim_HTML.html#373,373,1536,722,1536,864,9-6-2022,16-6-57,77,depth_discrimination_stimuli/000734_2014-06-08_17-39-11_260595134347_rgbf000128-resize_2/000734_2014-06-08_17-39-11_260595134347_rgbf000128-resize_2-target.png,depth_discrimination_stimuli/000739_2014-06-08_18-45-58_260595134347_rgbf000068-resize_1/000739_2014-06-08_18-45-58_260595134347_rgbf000068-resize_1-target.png,125.0,4.098,3.534,1.0,864,1015,124,1002,124,498,,462372,36,Man
77,526787,DepthScenes,v2_duration_discrimination,discrim_jsons/Discrim125_randls_28_rotated.json,http://54.235.29.9/FacialAge/BNav_EC2/DepthDuration/v2_depth_discrimination_MTurk/v2_DepthDiscrim_HTML.html#373,373,1536,722,1536,864,9-6-2022,16-6-57,78,depth_discrimination_stimuli/000749_2014-06-08_21-55-06_260595134347_rgbf000070-resize_2/000749_2014-06-08_21-55-06_260595134347_rgbf000070-resize_2-target.png,depth_discrimination_stimuli/002788_2014-06-22_19-36-03_094959634447_rgbf000088-resize_2/002788_2014-06-22_19-36-03_094959634447_rgbf000088-resize_2-target.png,125.0,2.331,1.6465,3.0,1269,1012,122,1006,111,511,,462372,36,Man
78,526787,DepthScenes,v2_duration_discrimination,discrim_jsons/Discrim125_randls_28_rotated.json,http://54.235.29.9/FacialAge/BNav_EC2/DepthDuration/v2_depth_discrimination_MTurk/v2_DepthDiscrim_HTML.html#373,373,1536,722,1536,864,9-6-2022,16-6-57,79,depth_discrimination_stimuli/001584_2014-06-20_11-07-43_260595134347_rgbf000002-resize_1/001584_2014-06-20_11-07-43_260595134347_rgbf000002-resize_1-target.png,depth_discrimination_stimuli/003621_2014-05-23_18-06-08_094959634447_rgbf000101-resize_1/003621_2014-05-23_18-06-08_094959634447_rgbf000101-resize_1-target.png,125.0,3.53,3.9835,0.0,1123,1007,133,994,125,501,,462372,36,Man
79,526787,DepthScenes,v2_duration_discrimination,discrim_jsons/Discrim125_randls_28_rotated.json,http://54.235.29.9/FacialAge/BNav_EC2/DepthDuration/v2_depth_discrimination_MTurk/v2_DepthDiscrim_HTML.html#373,373,1536,722,1536,864,9-6-2022,16-6-57,80,depth_discrimination_stimuli/000569_2014-06-09_22-51-47_260595134347_rgbf000141-resize_3/000569_2014-06-09_22-51-47_260595134347_rgbf000141-resize_3-target.png,depth_discrimination_stimuli/000569_2014-06-09_22-51-47_260595134347_rgbf000141-resize_3/000569_2014-06-09_22-51-47_260595134347_rgbf000141-resize_3-target.png,125.0,4.512,4.512,3.0,721,1009,125,993,127,506,,462372,36,Man
80,526787,DepthScenes,v2_duration_discrimination,discrim_jsons/Discrim125_randls_28_rotated.json,http://54.235.29.9/FacialAge/BNav_EC2/DepthDuration/v2_depth_discrimination_MTurk/v2_DepthDiscrim_HTML.html#373,373,1536,722,1536,864,9-6-2022,16-6-57,81,depth_discrimination_stimuli/001094_2014-06-15_17-36-00_260595134347_rgbf000205-resize_0/001094_2014-06-15_17-36-00_260595134347_rgbf000205-resize_0-target.png,depth_discrimination_stimuli/000692_2014-06-08_13-09-42_260595134347_rgbf000199-resize_2/000692_2014-06-08_13-09-42_260595134347_rgbf000199-resize_2-target.png,125.0,4.2175,3.661,3.0,901,1012,125,998,119,511,,462372,36,Man
81,526787,DepthScenes,v2_duration_discrimination,discrim_jsons/Discrim125_randls_28_rotated.json,http://54.235.29.9/FacialAge/BNav_EC2/DepthDuration/v2_depth_discrimination_MTurk/v2_DepthDiscrim_HTML.html#373,373,1536,722,1536,864,9-6-2022,16-6-57,82,depth_discrimination_stimuli/002949_2014-06-26_15-57-42_094959634447_rgbf000079-resize_1/002949_2014-06-26_15-57-42_094959634447_rgbf000079-resize_1-target.png,depth_discrimination_stimuli/000522_2014-06-08_13-35-06_260595134347_rgbf000244-resize_1/000522_2014-06-08_13-35-06_260595134347_rgbf000244-resize_1-target.png,125.0,1.8915,2.3715,3.0,734,1009,125,1000,132,492,,462372,36,Man
82,526787,DepthScenes,v2_duration_discrimination,discrim_jsons/Discrim125_randls_28_rotated.json,http://54.235.29.9/FacialAge/BNav_EC2/DepthDuration/v2_depth_discrimination_MTurk/v2_DepthDiscrim_HTML.html#373,373,1536,722,1536,864,9-6-2022,16-6-57,83,depth_discrimination_stimuli/003338_2014-05-20_11-01-23_094959634447_rgbf000051-resize_6/003338_2014-05-20_11-01-23_094959634447_rgbf000051-resize_6-target.png,depth_discrimination_stimuli/002509_2014-06-24_13-19-22_094959634447_rgbf000077-resize_0/002509_2014-06-24_13-19-22_094959634447_rgbf000077-resize_0-target.png,125.0,1.693,1.3065,0.0,905,1013,120,1006,114,504,,462372,36,Man
83,526787,DepthScenes,v2_duration_discrimination,discrim_jsons/Discrim125_randls_28_rotated.json,http://54.235.29.9/FacialAge/BNav_EC2/DepthDuration/v2_depth_discrimination_MTurk/v2_DepthDiscrim_HTML.html#373,373,1536,722,1536,864,9-6-2022,16-6-57,84,depth_discrimination_stimuli/002414_2014-06-28_20-24-58_260595134347_rgbf000067-resize_4/002414_2014-06-28_20-24-58_260595134347_rgbf000067-resize_4-target.png,depth_discrimination_stimuli/000773_2014-06-08_22-24-54_260595134347_rgbf000093-resize_1/000773_2014-06-08_22-24-54_260595134347_rgbf000093-resize_1-target.png,125.0,4.363,4.973,1.0,1532,1012,126,990,126,498,,462372,36,Man
84,526787,DepthScenes,v2_duration_discrimination,discrim_jsons/Discrim125_randls_28_rotated.json,http://54.235.29.9/FacialAge/BNav_EC2/DepthDuration/v2_depth_discrimination_MTurk/v2_DepthDiscrim_HTML.html#373,373,1536,722,1536,864,9-6-2022,16-6-57,85,depth_discrimination_stimuli/002467_2014-06-28_20-38-07_260595134347_rgbf000026-resize_2/002467_2014-06-28_20-38-07_260595134347_rgbf000026-resize_2-target.png,depth_discrimination_stimuli/002570_2014-06-24_13-59-54_094959634447_rgbf000059-resize_0/002570_2014-06-24_13-59-54_094959634447_rgbf000059-resize_0-target.png,125.0,4.742,4.037,3.0,971,1012,118,1006,126,499,,462372,36,Man
85,526787,DepthScenes,v2_duration_discrimination,discrim_jsons/Discrim125_randls_28_rotated.json,http://54.235.29.9/FacialAge/BNav_EC2/DepthDuration/v2_depth_discrimination_MTurk/v2_DepthDiscrim_HTML.html#373,373,1536,722,1536,864,9-6-2022,16-6-57,86,depth_discrimination_stimuli/001392_2014-06-19_16-07-59_260595134347_rgbf000046-resize_1/001392_2014-06-19_16-07-59_260595134347_rgbf000046-resize_1-target.png,depth_discrimination_stimuli/001570_2014-06-20_17-21-09_260595134347_rgbf000135-resize_4/001570_2014-06-20_17-21-09_260595134347_rgbf000135-resize_4-target.png,125.0,4.135,4.467,3.0,766,1012,128,990,122,508,,462372,36,Man
86,526787,DepthScenes,v2_duration_discrimination,discrim_jsons/Discrim125_randls_28_rotated.json,http://54.235.29.9/FacialAge/BNav_EC2/DepthDuration/v2_depth_discrimination_MTurk/v2_DepthDiscrim_HTML.html#373,373,1536,722,1536,864,9-6-2022,16-6-57,86,,,,,,,766,1012,128,990,122,508,,462372,36,Man
