,subjID,experimentName,versionName,sequenceName,url,selected_row,windowWidth,windowHeight,screenWidth,screenHeight,startDate,startTime,trial,stimulus_0,stimulus_1,duration,actual_depth_0,actual_depth_1,discrim_choice,trial_RT,log_fixation,log_sceneDuration1,log_mask1,log_sceneDuration2,log_mask2,experimentTime,totalTime,age,gender
0,569243.0,DepthScenes,v2_duration_discrimination,discrim_jsons/Discrim1000_randls_53_rotated.json,http://54.235.29.9/FacialAge/BNav_EC2/DepthDuration/v2_depth_discrimination_MTurk/v2_DepthDiscrim_HTML.html#186,186.0,1821.0,876.0,1366.0,768.0,9-6-2022,6-59-41,2.0,depth_discrimination_stimuli/000635_2014-06-08_16-38-42_260595134347_rgbf000106-resize_1/000635_2014-06-08_16-38-42_260595134347_rgbf000106-resize_1-target.png,depth_discrimination_stimuli/002279_2014-06-28_18-55-32_260595134347_rgbf000040-resize_5/002279_2014-06-28_18-55-32_260595134347_rgbf000040-resize_5-target.png,1000.0,2.074,1.5043333333333,2.0,7703.0,1002.0,999.0,1000.0,998.0,500.0,,1287340,68,Man
1,569243.0,DepthScenes,v2_duration_discrimination,discrim_jsons/Discrim1000_randls_53_rotated.json,http://54.235.29.9/FacialAge/BNav_EC2/DepthDuration/v2_depth_discrimination_MTurk/v2_DepthDiscrim_HTML.html#186,186.0,1821.0,876.0,1366.0,768.0,9-6-2022,6-59-41,3.0,depth_discrimination_stimuli/000677_2014-06-08_23-10-32_260595134347_rgbf000158-resize_6/000677_2014-06-08_23-10-32_260595134347_rgbf000158-resize_6-target.png,depth_discrimination_stimuli/001029_2014-06-08_13-17-57_260595134347_rgbf000065-resize_1/001029_2014-06-08_13-17-57_260595134347_rgbf000065-resize_1-target.png,1000.0,3.556,3.0835,2.0,4077.0,1002.0,998.0,1001.0,999.0,500.0,,1287340,68,Man
2,569243.0,DepthScenes,v2_duration_discrimination,discrim_jsons/Discrim1000_randls_53_rotated.json,http://54.235.29.9/FacialAge/BNav_EC2/DepthDuration/v2_depth_discrimination_MTurk/v2_DepthDiscrim_HTML.html#186,186.0,1821.0,876.0,1366.0,768.0,9-6-2022,6-59-41,4.0,depth_discrimination_stimuli/003081_2014-06-15_15-19-16_094959634447_rgbf000150-resize_1/003081_2014-06-15_15-19-16_094959634447_rgbf000150-resize_1-target.png,depth_discrimination_stimuli/001417_2014-06-19_16-25-36_260595134347_rgbf000115-resize_5/001417_2014-06-19_16-25-36_260595134347_rgbf000115-resize_5-target.png,1000.0,3.9125,4.6255,2.0,3857.0,1002.0,997.0,1002.0,999.0,501.0,,1287340,68,Man
3,569243.0,DepthScenes,v2_duration_discrimination,discrim_jsons/Discrim1000_randls_53_rotated.json,http://54.235.29.9/FacialAge/BNav_EC2/DepthDuration/v2_depth_discrimination_MTurk/v2_DepthDiscrim_HTML.html#186,186.0,1821.0,876.0,1366.0,768.0,9-6-2022,6-59-41,5.0,depth_discrimination_stimuli/000549_2014-06-08_22-10-24_260595134347_rgbf000247-resize_3/000549_2014-06-08_22-10-24_260595134347_rgbf000247-resize_3-target.png,depth_discrimination_stimuli/001055_2014-06-08_18-45-35_260595134347_rgbf000111-resize_4/001055_2014-06-08_18-45-35_260595134347_rgbf000111-resize_4-target.png,1000.0,1.841,2.4290000000000003,2.0,3628.0,1002.0,1000.0,1000.0,999.0,500.0,,1287340,68,Man
4,569243.0,DepthScenes,v2_duration_discrimination,discrim_jsons/Discrim1000_randls_53_rotated.json,http://54.235.29.9/FacialAge/BNav_EC2/DepthDuration/v2_depth_discrimination_MTurk/v2_DepthDiscrim_HTML.html#186,186.0,1821.0,876.0,1366.0,768.0,9-6-2022,6-59-41,6.0,depth_discrimination_stimuli/001650_2014-06-20_12-09-00_260595134347_rgbf000087-resize_3/001650_2014-06-20_12-09-00_260595134347_rgbf000087-resize_3-target.png,depth_discrimination_stimuli/000682_2014-06-08_23-14-58_260595134347_rgbf000041-resize_5/000682_2014-06-08_23-14-58_260595134347_rgbf000041-resize_5-target.png,1000.0,1.9505,2.7239999999999998,2.0,3809.0,1001.0,1000.0,1000.0,1002.0,499.0,,1287340,68,Man
5,569243.0,DepthScenes,v2_duration_discrimination,discrim_jsons/Discrim1000_randls_53_rotated.json,http://54.235.29.9/FacialAge/BNav_EC2/DepthDuration/v2_depth_discrimination_MTurk/v2_DepthDiscrim_HTML.html#186,186.0,1821.0,876.0,1366.0,768.0,9-6-2022,6-59-41,7.0,depth_discrimination_stimuli/003490_2014-05-21_15-50-11_094959634447_rgbf000101-resize_3/003490_2014-05-21_15-50-11_094959634447_rgbf000101-resize_3-target.png,depth_discrimination_stimuli/001175_2014-06-17_15-45-55_260595134347_rgbf000129-resize_4/001175_2014-06-17_15-45-55_260595134347_rgbf000129-resize_4-target.png,1000.0,3.6445,4.255,2.0,4088.0,999.0,998.0,1000.0,1000.0,499.0,,1287340,68,Man
6,569243.0,DepthScenes,v2_duration_discrimination,discrim_jsons/Discrim1000_randls_53_rotated.json,http://54.235.29.9/FacialAge/BNav_EC2/DepthDuration/v2_depth_discrimination_MTurk/v2_DepthDiscrim_HTML.html#186,186.0,1821.0,876.0,1366.0,768.0,9-6-2022,6-59-41,8.0,depth_discrimination_stimuli/001828_2014-06-26_21-40-03_260595134347_rgbf000024-resize_0/001828_2014-06-26_21-40-03_260595134347_rgbf000024-resize_0-target.png,depth_discrimination_stimuli/000009_2014-05-26_14-32-05_260595134347_rgbf000034-resize_3/000009_2014-05-26_14-32-05_260595134347_rgbf000034-resize_3-target.png,1000.0,4.8260000000000005,3.8715,2.0,3289.0,1001.0,1000.0,999.0,999.0,501.0,,1287340,68,Man
7,569243.0,DepthScenes,v2_duration_discrimination,discrim_jsons/Discrim1000_randls_53_rotated.json,http://54.235.29.9/FacialAge/BNav_EC2/DepthDuration/v2_depth_discrimination_MTurk/v2_DepthDiscrim_HTML.html#186,186.0,1821.0,876.0,1366.0,768.0,9-6-2022,6-59-41,9.0,depth_discrimination_stimuli/002949_2014-06-26_15-57-42_094959634447_rgbf000079-resize_1/002949_2014-06-26_15-57-42_094959634447_rgbf000079-resize_1-target.png,depth_discrimination_stimuli/000522_2014-06-08_13-35-06_260595134347_rgbf000244-resize_1/000522_2014-06-08_13-35-06_260595134347_rgbf000244-resize_1-target.png,1000.0,1.8915,2.3715,2.0,4199.0,1000.0,1000.0,999.0,1000.0,500.0,,1287340,68,Man
8,569243.0,DepthScenes,v2_duration_discrimination,discrim_jsons/Discrim1000_randls_53_rotated.json,http://54.235.29.9/FacialAge/BNav_EC2/DepthDuration/v2_depth_discrimination_MTurk/v2_DepthDiscrim_HTML.html#186,186.0,1821.0,876.0,1366.0,768.0,9-6-2022,6-59-41,10.0,depth_discrimination_stimuli/003129_2014-05-12_10-48-10_094959634447_rgbf000100-resize_0/003129_2014-05-12_10-48-10_094959634447_rgbf000100-resize_0-target.png,depth_discrimination_stimuli/000414_2014-06-04_19-49-13_260595134347_rgbf000044-resize_0/000414_2014-06-04_19-49-13_260595134347_rgbf000044-resize_0-target.png,1000.0,4.9305,4.329,2.0,3318.0,1002.0,998.0,1000.0,1000.0,500.0,,1287340,68,Man
9,569243.0,DepthScenes,v2_duration_discrimination,discrim_jsons/Discrim1000_randls_53_rotated.json,http://54.235.29.9/FacialAge/BNav_EC2/DepthDuration/v2_depth_discrimination_MTurk/v2_DepthDiscrim_HTML.html#186,186.0,1821.0,876.0,1366.0,768.0,9-6-2022,6-59-41,11.0,depth_discrimination_stimuli/001498_2014-06-19_17-45-14_260595134347_rgbf000129-resize_4/001498_2014-06-19_17-45-14_260595134347_rgbf000129-resize_4-target.png,depth_discrimination_stimuli/001498_2014-06-19_17-45-14_260595134347_rgbf000129-resize_4/001498_2014-06-19_17-45-14_260595134347_rgbf000129-resize_4-target.png,1000.0,1.4075,1.4075,2.0,3676.0,1003.0,999.0,1001.0,1000.0,500.0,,1287340,68,Man
10,569243.0,DepthScenes,v2_duration_discrimination,discrim_jsons/Discrim1000_randls_53_rotated.json,http://54.235.29.9/FacialAge/BNav_EC2/DepthDuration/v2_depth_discrimination_MTurk/v2_DepthDiscrim_HTML.html#186,186.0,1821.0,876.0,1366.0,768.0,9-6-2022,6-59-41,12.0,depth_discrimination_stimuli/002199_2014-06-28_18-33-56_260595134347_rgbf000074-resize_0/002199_2014-06-28_18-33-56_260595134347_rgbf000074-resize_0-target.png,depth_discrimination_stimuli/001056_2014-06-08_18-46-44_260595134347_rgbf000068-resize_0/001056_2014-06-08_18-46-44_260595134347_rgbf000068-resize_0-target.png,1000.0,1.996,2.6625,2.0,3457.0,1002.0,999.0,1001.0,1000.0,499.0,,1287340,68,Man
11,569243.0,DepthScenes,v2_duration_discrimination,discrim_jsons/Discrim1000_randls_53_rotated.json,http://54.235.29.9/FacialAge/BNav_EC2/DepthDuration/v2_depth_discrimination_MTurk/v2_DepthDiscrim_HTML.html#186,186.0,1821.0,876.0,1366.0,768.0,9-6-2022,6-59-41,13.0,depth_discrimination_stimuli/000191_2014-05-12_17-07-38_260595134347_rgbf000199-resize_0/000191_2014-05-12_17-07-38_260595134347_rgbf000199-resize_0-target.png,depth_discrimination_stimuli/000493_2014-06-09_21-01-18_260595134347_rgbf000196-resize_3/000493_2014-06-09_21-01-18_260595134347_rgbf000196-resize_3-target.png,1000.0,3.7995,3.44,2.0,3798.0,1002.0,999.0,1000.0,1000.0,501.0,,1287340,68,Man
12,569243.0,DepthScenes,v2_duration_discrimination,discrim_jsons/Discrim1000_randls_53_rotated.json,http://54.235.29.9/FacialAge/BNav_EC2/DepthDuration/v2_depth_discrimination_MTurk/v2_DepthDiscrim_HTML.html#186,186.0,1821.0,876.0,1366.0,768.0,9-6-2022,6-59-41,14.0,depth_discrimination_stimuli/002323_2014-06-28_20-01-54_260595134347_rgbf000051-resize_4/002323_2014-06-28_20-01-54_260595134347_rgbf000051-resize_4-target.png,depth_discrimination_stimuli/000917_2014-06-09_22-45-29_260595134347_rgbf000149-resize_3/000917_2014-06-09_22-45-29_260595134347_rgbf000149-resize_3-target.png,1000.0,3.7310000000000003,4.1865,2.0,5339.0,1003.0,999.0,1000.0,1000.0,501.0,,1287340,68,Man
13,569243.0,DepthScenes,v2_duration_discrimination,discrim_jsons/Discrim1000_randls_53_rotated.json,http://54.235.29.9/FacialAge/BNav_EC2/DepthDuration/v2_depth_discrimination_MTurk/v2_DepthDiscrim_HTML.html#186,186.0,1821.0,876.0,1366.0,768.0,9-6-2022,6-59-41,15.0,depth_discrimination_stimuli/002425_2014-06-28_20-27-29_260595134347_rgbf000031-resize_8/002425_2014-06-28_20-27-29_260595134347_rgbf000031-resize_8-target.png,depth_discrimination_stimuli/000642_2014-06-08_16-59-25_260595134347_rgbf000098-resize_2/000642_2014-06-08_16-59-25_260595134347_rgbf000098-resize_2-target.png,1000.0,3.8960000000000004,2.8815,2.0,4056.0,1002.0,999.0,1000.0,1000.0,500.0,,1287340,68,Man
14,569243.0,DepthScenes,v2_duration_discrimination,discrim_jsons/Discrim1000_randls_53_rotated.json,http://54.235.29.9/FacialAge/BNav_EC2/DepthDuration/v2_depth_discrimination_MTurk/v2_DepthDiscrim_HTML.html#186,186.0,1821.0,876.0,1366.0,768.0,9-6-2022,6-59-41,16.0,depth_discrimination_stimuli/003587_2014-05-23_16-48-02_094959634447_rgbf002384-resize_2/003587_2014-05-23_16-48-02_094959634447_rgbf002384-resize_2-target.png,depth_discrimination_stimuli/001167_2014-06-17_15-38-07_260595134347_rgbf000108-resize_0/001167_2014-06-17_15-38-07_260595134347_rgbf000108-resize_0-target.png,1000.0,1.357,1.8505,2.0,3638.0,1002.0,999.0,1000.0,999.0,500.0,,1287340,68,Man
15,569243.0,DepthScenes,v2_duration_discrimination,discrim_jsons/Discrim1000_randls_53_rotated.json,http://54.235.29.9/FacialAge/BNav_EC2/DepthDuration/v2_depth_discrimination_MTurk/v2_DepthDiscrim_HTML.html#186,186.0,1821.0,876.0,1366.0,768.0,9-6-2022,6-59-41,17.0,depth_discrimination_stimuli/002072_2014-06-24_21-48-06_260595134347_rgbf000115-resize_0/002072_2014-06-24_21-48-06_260595134347_rgbf000115-resize_0-target.png,depth_discrimination_stimuli/002072_2014-06-24_21-48-06_260595134347_rgbf000115-resize_0/002072_2014-06-24_21-48-06_260595134347_rgbf000115-resize_0-target.png,1000.0,4.702,4.702,2.0,3038.0,1001.0,999.0,1000.0,998.0,501.0,,1287340,68,Man
16,569243.0,DepthScenes,v2_duration_discrimination,discrim_jsons/Discrim1000_randls_53_rotated.json,http://54.235.29.9/FacialAge/BNav_EC2/DepthDuration/v2_depth_discrimination_MTurk/v2_DepthDiscrim_HTML.html#186,186.0,1821.0,876.0,1366.0,768.0,9-6-2022,6-59-41,18.0,depth_discrimination_stimuli/002545_2014-06-24_13-38-53_094959634447_rgbf000080-resize_4/002545_2014-06-24_13-38-53_094959634447_rgbf000080-resize_4-target.png,depth_discrimination_stimuli/001092_2014-06-15_17-34-58_260595134347_rgbf000171-resize_3/001092_2014-06-15_17-34-58_260595134347_rgbf000171-resize_3-target.png,1000.0,1.9205,2.6935,2.0,3359.0,1002.0,999.0,999.0,1000.0,500.0,,1287340,68,Man
17,569243.0,DepthScenes,v2_duration_discrimination,discrim_jsons/Discrim1000_randls_53_rotated.json,http://54.235.29.9/FacialAge/BNav_EC2/DepthDuration/v2_depth_discrimination_MTurk/v2_DepthDiscrim_HTML.html#186,186.0,1821.0,876.0,1366.0,768.0,9-6-2022,6-59-41,19.0,depth_discrimination_stimuli/001214_2014-06-17_16-13-55_260595134347_rgbf000111-resize_0/001214_2014-06-17_16-13-55_260595134347_rgbf000111-resize_0-target.png,depth_discrimination_stimuli/000810_2014-06-08_17-20-01_260595134347_rgbf000105-resize_0/000810_2014-06-08_17-20-01_260595134347_rgbf000105-resize_0-target.png,1000.0,2.6505,1.4865,2.0,4004.0,1001.0,1000.0,1000.0,1000.0,500.0,,1287340,68,Man
18,569243.0,DepthScenes,v2_duration_discrimination,discrim_jsons/Discrim1000_randls_53_rotated.json,http://54.235.29.9/FacialAge/BNav_EC2/DepthDuration/v2_depth_discrimination_MTurk/v2_DepthDiscrim_HTML.html#186,186.0,1821.0,876.0,1366.0,768.0,9-6-2022,6-59-41,20.0,depth_discrimination_stimuli/001052_2014-06-08_18-24-54_260595134347_rgbf000130-resize_1/001052_2014-06-08_18-24-54_260595134347_rgbf000130-resize_1-target.png,depth_discrimination_stimuli/002988_2014-06-15_12-24-20_094959634447_rgbf000150-resize_1/002988_2014-06-15_12-24-20_094959634447_rgbf000150-resize_1-target.png,1000.0,4.1045,4.7669999999999995,2.0,7533.0,1001.0,999.0,1000.0,999.0,501.0,,1287340,68,Man
19,569243.0,DepthScenes,v2_duration_discrimination,discrim_jsons/Discrim1000_randls_53_rotated.json,http://54.235.29.9/FacialAge/BNav_EC2/DepthDuration/v2_depth_discrimination_MTurk/v2_DepthDiscrim_HTML.html#186,186.0,1821.0,876.0,1366.0,768.0,9-6-2022,6-59-41,21.0,depth_discrimination_stimuli/002637_2014-06-24_14-51-13_094959634447_rgbf000066-resize_4/002637_2014-06-24_14-51-13_094959634447_rgbf000066-resize_4-target.png,depth_discrimination_stimuli/003534_2014-05-22_15-06-10_094959634447_rgbf000102-resize_4/003534_2014-05-22_15-06-10_094959634447_rgbf000102-resize_4-target.png,1000.0,1.9955,1.426,2.0,3994.0,1001.0,1000.0,1000.0,1000.0,500.0,,1287340,68,Man
20,569243.0,DepthScenes,v2_duration_discrimination,discrim_jsons/Discrim1000_randls_53_rotated.json,http://54.235.29.9/FacialAge/BNav_EC2/DepthDuration/v2_depth_discrimination_MTurk/v2_DepthDiscrim_HTML.html#186,186.0,1821.0,876.0,1366.0,768.0,9-6-2022,6-59-41,22.0,depth_discrimination_stimuli/000665_2014-06-09_20-42-35_260595134347_rgbf000110-resize_1/000665_2014-06-09_20-42-35_260595134347_rgbf000110-resize_1-target.png,depth_discrimination_stimuli/001150_2014-06-17_15-27-34_260595134347_rgbf000108-resize_2/001150_2014-06-17_15-27-34_260595134347_rgbf000108-resize_2-target.png,1000.0,3.057,4.0325,2.0,3088.0,1001.0,999.0,1001.0,1000.0,500.0,,1287340,68,Man
21,569243.0,DepthScenes,v2_duration_discrimination,discrim_jsons/Discrim1000_randls_53_rotated.json,http://54.235.29.9/FacialAge/BNav_EC2/DepthDuration/v2_depth_discrimination_MTurk/v2_DepthDiscrim_HTML.html#186,186.0,1821.0,876.0,1366.0,768.0,9-6-2022,6-59-41,23.0,depth_discrimination_stimuli/001617_2014-06-20_11-35-32_260595134347_rgbf000066-resize_1/001617_2014-06-20_11-35-32_260595134347_rgbf000066-resize_1-target.png,depth_discrimination_stimuli/001806_2014-06-26_20-50-20_260595134347_rgbf000091-resize_1/001806_2014-06-26_20-50-20_260595134347_rgbf000091-resize_1-target.png,1000.0,3.7910000000000004,2.7305,2.0,3653.0,1002.0,1000.0,999.0,1000.0,500.0,,1287340,68,Man
22,569243.0,DepthScenes,v2_duration_discrimination,discrim_jsons/Discrim1000_randls_53_rotated.json,http://54.235.29.9/FacialAge/BNav_EC2/DepthDuration/v2_depth_discrimination_MTurk/v2_DepthDiscrim_HTML.html#186,186.0,1821.0,876.0,1366.0,768.0,9-6-2022,6-59-41,24.0,depth_discrimination_stimuli/003083_2014-06-15_15-21-03_094959634447_rgbf000063-resize_1/003083_2014-06-15_15-21-03_094959634447_rgbf000063-resize_1-target.png,depth_discrimination_stimuli/000486_2014-06-09_20-47-20_260595134347_rgbf000143-resize_2/000486_2014-06-09_20-47-20_260595134347_rgbf000143-resize_2-target.png,1000.0,4.1405,4.8325,2.0,3957.0,1002.0,999.0,1000.0,998.0,499.0,,1287340,68,Man
23,569243.0,DepthScenes,v2_duration_discrimination,discrim_jsons/Discrim1000_randls_53_rotated.json,http://54.235.29.9/FacialAge/BNav_EC2/DepthDuration/v2_depth_discrimination_MTurk/v2_DepthDiscrim_HTML.html#186,186.0,1821.0,876.0,1366.0,768.0,9-6-2022,6-59-41,25.0,depth_discrimination_stimuli/001815_2014-06-26_20-52-55_260595134347_rgbf000020-resize_0/001815_2014-06-26_20-52-55_260595134347_rgbf000020-resize_0-target.png,depth_discrimination_stimuli/001808_2014-06-26_20-50-58_260595134347_rgbf000029-resize_1/001808_2014-06-26_20-50-58_260595134347_rgbf000029-resize_1-target.png,1000.0,3.3865,4.249,2.0,3858.0,1002.0,1000.0,1000.0,998.0,500.0,,1287340,68,Man
24,569243.0,DepthScenes,v2_duration_discrimination,discrim_jsons/Discrim1000_randls_53_rotated.json,http://54.235.29.9/FacialAge/BNav_EC2/DepthDuration/v2_depth_discrimination_MTurk/v2_DepthDiscrim_HTML.html#186,186.0,1821.0,876.0,1366.0,768.0,9-6-2022,6-59-41,26.0,depth_discrimination_stimuli/002758_2014-06-22_19-11-20_094959634447_rgbf000128-resize_1/002758_2014-06-22_19-11-20_094959634447_rgbf000128-resize_1-target.png,depth_discrimination_stimuli/002630_2014-06-24_14-47-50_094959634447_rgbf000055-resize_1/002630_2014-06-24_14-47-50_094959634447_rgbf000055-resize_1-target.png,1000.0,2.555,3.0095,2.0,3177.0,1002.0,999.0,1000.0,999.0,500.0,,1287340,68,Man
25,569243.0,DepthScenes,v2_duration_discrimination,discrim_jsons/Discrim1000_randls_53_rotated.json,http://54.235.29.9/FacialAge/BNav_EC2/DepthDuration/v2_depth_discrimination_MTurk/v2_DepthDiscrim_HTML.html#186,186.0,1821.0,876.0,1366.0,768.0,9-6-2022,6-59-41,27.0,depth_discrimination_stimuli/001170_2014-06-17_15-43-44_260595134347_rgbf000096-resize_6/001170_2014-06-17_15-43-44_260595134347_rgbf000096-resize_6-target.png,depth_discrimination_stimuli/001170_2014-06-17_15-43-44_260595134347_rgbf000096-resize_6/001170_2014-06-17_15-43-44_260595134347_rgbf000096-resize_6-target.png,1000.0,1.1909999999999998,1.1909999999999998,2.0,2940.0,1001.0,999.0,999.0,1000.0,501.0,,1287340,68,Man
26,569243.0,DepthScenes,v2_duration_discrimination,discrim_jsons/Discrim1000_randls_53_rotated.json,http://54.235.29.9/FacialAge/BNav_EC2/DepthDuration/v2_depth_discrimination_MTurk/v2_DepthDiscrim_HTML.html#186,186.0,1821.0,876.0,1366.0,768.0,9-6-2022,6-59-41,28.0,depth_discrimination_stimuli/002444_2014-06-28_20-32-08_260595134347_rgbf000027-resize_0/002444_2014-06-28_20-32-08_260595134347_rgbf000027-resize_0-target.png,depth_discrimination_stimuli/000436_2014-06-09_22-25-11_260595134347_rgbf000137-resize_1/000436_2014-06-09_22-25-11_260595134347_rgbf000137-resize_1-target.png,1000.0,4.388999999999999,4.0705,2.0,6979.0,1002.0,999.0,999.0,1000.0,500.0,,1287340,68,Man
27,569243.0,DepthScenes,v2_duration_discrimination,discrim_jsons/Discrim1000_randls_53_rotated.json,http://54.235.29.9/FacialAge/BNav_EC2/DepthDuration/v2_depth_discrimination_MTurk/v2_DepthDiscrim_HTML.html#186,186.0,1821.0,876.0,1366.0,768.0,9-6-2022,6-59-41,29.0,depth_discrimination_stimuli/002209_2014-06-28_18-36-10_260595134347_rgbf000051-resize_1/002209_2014-06-28_18-36-10_260595134347_rgbf000051-resize_1-target.png,depth_discrimination_stimuli/002763_2014-06-22_19-13-10_094959634447_rgbf000075-resize_4/002763_2014-06-22_19-13-10_094959634447_rgbf000075-resize_4-target.png,1000.0,2.057,1.68375,2.0,4108.0,1002.0,1000.0,999.0,999.0,500.0,,1287340,68,Man
28,569243.0,DepthScenes,v2_duration_discrimination,discrim_jsons/Discrim1000_randls_53_rotated.json,http://54.235.29.9/FacialAge/BNav_EC2/DepthDuration/v2_depth_discrimination_MTurk/v2_DepthDiscrim_HTML.html#186,186.0,1821.0,876.0,1366.0,768.0,9-6-2022,6-59-41,30.0,depth_discrimination_stimuli/000103_2014-05-14_22-01-17_260595134347_rgbf000152-resize_5/000103_2014-05-14_22-01-17_260595134347_rgbf000152-resize_5-target.png,depth_discrimination_stimuli/001555_2014-06-20_17-12-10_260595134347_rgbf000065-resize_4/001555_2014-06-20_17-12-10_260595134347_rgbf000065-resize_4-target.png,1000.0,1.993,1.633,2.0,3177.0,1001.0,1000.0,1000.0,1000.0,500.0,,1287340,68,Man
29,569243.0,DepthScenes,v2_duration_discrimination,discrim_jsons/Discrim1000_randls_53_rotated.json,http://54.235.29.9/FacialAge/BNav_EC2/DepthDuration/v2_depth_discrimination_MTurk/v2_DepthDiscrim_HTML.html#186,186.0,1821.0,876.0,1366.0,768.0,9-6-2022,6-59-41,31.0,depth_discrimination_stimuli/002678_2014-06-13_16-15-32_094959634447_rgbf000151-resize_6/002678_2014-06-13_16-15-32_094959634447_rgbf000151-resize_6-target.png,depth_discrimination_stimuli/000368_2014-06-09_15-53-01_260595134347_rgbf000155-resize_2/000368_2014-06-09_15-53-01_260595134347_rgbf000155-resize_2-target.png,1000.0,2.1830000000000003,2.4859999999999998,2.0,3308.0,1002.0,1000.0,1000.0,1000.0,500.0,,1287340,68,Man
30,569243.0,DepthScenes,v2_duration_discrimination,discrim_jsons/Discrim1000_randls_53_rotated.json,http://54.235.29.9/FacialAge/BNav_EC2/DepthDuration/v2_depth_discrimination_MTurk/v2_DepthDiscrim_HTML.html#186,186.0,1821.0,876.0,1366.0,768.0,9-6-2022,6-59-41,32.0,depth_discrimination_stimuli/001447_2014-06-19_17-00-32_260595134347_rgbf000082-resize_5/001447_2014-06-19_17-00-32_260595134347_rgbf000082-resize_5-target.png,depth_discrimination_stimuli/000447_2014-06-08_16-15-46_260595134347_rgbf000130-resize_1/000447_2014-06-08_16-15-46_260595134347_rgbf000130-resize_1-target.png,1000.0,4.13775,4.479,2.0,3273.0,1001.0,1001.0,1000.0,999.0,499.0,,1287340,68,Man
31,569243.0,DepthScenes,v2_duration_discrimination,discrim_jsons/Discrim1000_randls_53_rotated.json,http://54.235.29.9/FacialAge/BNav_EC2/DepthDuration/v2_depth_discrimination_MTurk/v2_DepthDiscrim_HTML.html#186,186.0,1821.0,876.0,1366.0,768.0,9-6-2022,6-59-41,33.0,depth_discrimination_stimuli/003079_2014-06-15_15-18-20_094959634447_rgbf000152-resize_8/003079_2014-06-15_15-18-20_094959634447_rgbf000152-resize_8-target.png,depth_discrimination_stimuli/000506_2014-06-08_23-21-00_260595134347_rgbf000070-resize_7/000506_2014-06-08_23-21-00_260595134347_rgbf000070-resize_7-target.png,1000.0,2.8775,4.0585,2.0,2923.0,1002.0,998.0,999.0,999.0,499.0,,1287340,68,Man
32,569243.0,DepthScenes,v2_duration_discrimination,discrim_jsons/Discrim1000_randls_53_rotated.json,http://54.235.29.9/FacialAge/BNav_EC2/DepthDuration/v2_depth_discrimination_MTurk/v2_DepthDiscrim_HTML.html#186,186.0,1821.0,876.0,1366.0,768.0,9-6-2022,6-59-41,34.0,depth_discrimination_stimuli/002340_2014-06-28_20-05-46_260595134347_rgbf000113-resize_0/002340_2014-06-28_20-05-46_260595134347_rgbf000113-resize_0-target.png,depth_discrimination_stimuli/001016_2014-06-09_16-16-10_260595134347_rgbf000112-resize_5/001016_2014-06-09_16-16-10_260595134347_rgbf000112-resize_5-target.png,1000.0,2.4735,1.6565,2.0,3158.0,1002.0,999.0,1000.0,999.0,500.0,,1287340,68,Man
33,569243.0,DepthScenes,v2_duration_discrimination,discrim_jsons/Discrim1000_randls_53_rotated.json,http://54.235.29.9/FacialAge/BNav_EC2/DepthDuration/v2_depth_discrimination_MTurk/v2_DepthDiscrim_HTML.html#186,186.0,1821.0,876.0,1366.0,768.0,9-6-2022,6-59-41,35.0,depth_discrimination_stimuli/000734_2014-06-08_17-39-11_260595134347_rgbf000128-resize_2/000734_2014-06-08_17-39-11_260595134347_rgbf000128-resize_2-target.png,depth_discrimination_stimuli/000739_2014-06-08_18-45-58_260595134347_rgbf000068-resize_1/000739_2014-06-08_18-45-58_260595134347_rgbf000068-resize_1-target.png,1000.0,4.098,3.534,2.0,2858.0,1002.0,1000.0,1000.0,999.0,500.0,,1287340,68,Man
34,569243.0,DepthScenes,v2_duration_discrimination,discrim_jsons/Discrim1000_randls_53_rotated.json,http://54.235.29.9/FacialAge/BNav_EC2/DepthDuration/v2_depth_discrimination_MTurk/v2_DepthDiscrim_HTML.html#186,186.0,1821.0,876.0,1366.0,768.0,9-6-2022,6-59-41,36.0,depth_discrimination_stimuli/001540_2014-06-20_17-01-05_260595134347_rgbf000086-resize_2/001540_2014-06-20_17-01-05_260595134347_rgbf000086-resize_2-target.png,depth_discrimination_stimuli/001540_2014-06-20_17-01-05_260595134347_rgbf000086-resize_2/001540_2014-06-20_17-01-05_260595134347_rgbf000086-resize_2-target.png,1000.0,1.459,1.459,2.0,3339.0,1002.0,999.0,1000.0,999.0,500.0,,1287340,68,Man
35,569243.0,DepthScenes,v2_duration_discrimination,discrim_jsons/Discrim1000_randls_53_rotated.json,http://54.235.29.9/FacialAge/BNav_EC2/DepthDuration/v2_depth_discrimination_MTurk/v2_DepthDiscrim_HTML.html#186,186.0,1821.0,876.0,1366.0,768.0,9-6-2022,6-59-41,37.0,depth_discrimination_stimuli/000502_2014-06-08_23-02-32_260595134347_rgbf000063-resize_4/000502_2014-06-08_23-02-32_260595134347_rgbf000063-resize_4-target.png,depth_discrimination_stimuli/001199_2014-06-17_16-03-48_260595134347_rgbf000077-resize_0/001199_2014-06-17_16-03-48_260595134347_rgbf000077-resize_0-target.png,1000.0,2.431,3.4375,2.0,4078.0,1001.0,1000.0,1001.0,999.0,500.0,,1287340,68,Man
36,569243.0,DepthScenes,v2_duration_discrimination,discrim_jsons/Discrim1000_randls_53_rotated.json,http://54.235.29.9/FacialAge/BNav_EC2/DepthDuration/v2_depth_discrimination_MTurk/v2_DepthDiscrim_HTML.html#186,186.0,1821.0,876.0,1366.0,768.0,9-6-2022,6-59-41,38.0,depth_discrimination_stimuli/000749_2014-06-08_21-55-06_260595134347_rgbf000070-resize_2/000749_2014-06-08_21-55-06_260595134347_rgbf000070-resize_2-target.png,depth_discrimination_stimuli/002788_2014-06-22_19-36-03_094959634447_rgbf000088-resize_2/002788_2014-06-22_19-36-03_094959634447_rgbf000088-resize_2-target.png,1000.0,2.331,1.6465,2.0,3036.0,1001.0,1000.0,1000.0,1000.0,499.0,,1287340,68,Man
37,569243.0,DepthScenes,v2_duration_discrimination,discrim_jsons/Discrim1000_randls_53_rotated.json,http://54.235.29.9/FacialAge/BNav_EC2/DepthDuration/v2_depth_discrimination_MTurk/v2_DepthDiscrim_HTML.html#186,186.0,1821.0,876.0,1366.0,768.0,9-6-2022,6-59-41,39.0,depth_discrimination_stimuli/002995_2014-06-15_12-31-26_094959634447_rgbf000150-resize_1/002995_2014-06-15_12-31-26_094959634447_rgbf000150-resize_1-target.png,depth_discrimination_stimuli/002748_2014-06-22_19-07-22_094959634447_rgbf000078-resize_1/002748_2014-06-22_19-07-22_094959634447_rgbf000078-resize_1-target.png,1000.0,3.8360000000000003,4.6705,2.0,3158.0,1001.0,999.0,1000.0,999.0,500.0,,1287340,68,Man
38,569243.0,DepthScenes,v2_duration_discrimination,discrim_jsons/Discrim1000_randls_53_rotated.json,http://54.235.29.9/FacialAge/BNav_EC2/DepthDuration/v2_depth_discrimination_MTurk/v2_DepthDiscrim_HTML.html#186,186.0,1821.0,876.0,1366.0,768.0,9-6-2022,6-59-41,40.0,depth_discrimination_stimuli/000709_2014-06-08_13-51-55_260595134347_rgbf000068-resize_3/000709_2014-06-08_13-51-55_260595134347_rgbf000068-resize_3-target.png,depth_discrimination_stimuli/002057_2014-06-24_21-00-13_260595134347_rgbf000120-resize_1/002057_2014-06-24_21-00-13_260595134347_rgbf000120-resize_1-target.png,1000.0,1.8030000000000002,2.967,2.0,3137.0,1001.0,1001.0,1000.0,999.0,499.0,,1287340,68,Man
39,569243.0,DepthScenes,v2_duration_discrimination,discrim_jsons/Discrim1000_randls_53_rotated.json,http://54.235.29.9/FacialAge/BNav_EC2/DepthDuration/v2_depth_discrimination_MTurk/v2_DepthDiscrim_HTML.html#186,186.0,1821.0,876.0,1366.0,768.0,9-6-2022,6-59-41,41.0,depth_discrimination_stimuli/000742_2014-06-08_18-48-09_260595134347_rgbf000164-resize_4/000742_2014-06-08_18-48-09_260595134347_rgbf000164-resize_4-target.png,depth_discrimination_stimuli/001066_2014-06-08_22-03-20_260595134347_rgbf000066-resize_4/001066_2014-06-08_22-03-20_260595134347_rgbf000066-resize_4-target.png,1000.0,4.632,4.2330000000000005,2.0,2879.0,1001.0,1000.0,1000.0,1000.0,501.0,,1287340,68,Man
40,569243.0,DepthScenes,v2_duration_discrimination,discrim_jsons/Discrim1000_randls_53_rotated.json,http://54.235.29.9/FacialAge/BNav_EC2/DepthDuration/v2_depth_discrimination_MTurk/v2_DepthDiscrim_HTML.html#186,186.0,1821.0,876.0,1366.0,768.0,9-6-2022,6-59-41,42.0,depth_discrimination_stimuli/001516_2014-06-20_16-25-09_260595134347_rgbf000076-resize_2/001516_2014-06-20_16-25-09_260595134347_rgbf000076-resize_2-target.png,depth_discrimination_stimuli/002118_2014-06-25_20-32-08_260595134347_rgbf000078-resize_1/002118_2014-06-25_20-32-08_260595134347_rgbf000078-resize_1-target.png,1000.0,1.7445,2.6460000000000004,2.0,3179.0,1002.0,999.0,1001.0,1000.0,499.0,,1287340,68,Man
41,569243.0,DepthScenes,v2_duration_discrimination,discrim_jsons/Discrim1000_randls_53_rotated.json,http://54.235.29.9/FacialAge/BNav_EC2/DepthDuration/v2_depth_discrimination_MTurk/v2_DepthDiscrim_HTML.html#186,186.0,1821.0,876.0,1366.0,768.0,9-6-2022,6-59-41,43.0,depth_discrimination_stimuli/002657_2014-06-13_15-29-54_094959634447_rgbf000150-resize_1/002657_2014-06-13_15-29-54_094959634447_rgbf000150-resize_1-target.png,depth_discrimination_stimuli/002375_2014-06-28_20-13-44_260595134347_rgbf000032-resize_1/002375_2014-06-28_20-13-44_260595134347_rgbf000032-resize_1-target.png,1000.0,4.919,4.0175,2.0,2758.0,1000.0,1000.0,1001.0,999.0,500.0,,1287340,68,Man
42,569243.0,DepthScenes,v2_duration_discrimination,discrim_jsons/Discrim1000_randls_53_rotated.json,http://54.235.29.9/FacialAge/BNav_EC2/DepthDuration/v2_depth_discrimination_MTurk/v2_DepthDiscrim_HTML.html#186,186.0,1821.0,876.0,1366.0,768.0,9-6-2022,6-59-41,44.0,depth_discrimination_stimuli/000109_2014-05-14_23-41-52_260595134347_rgbf000035-resize_9/000109_2014-05-14_23-41-52_260595134347_rgbf000035-resize_9-target.png,depth_discrimination_stimuli/000470_2014-06-09_19-42-40_260595134347_rgbf000094-resize_1/000470_2014-06-09_19-42-40_260595134347_rgbf000094-resize_1-target.png,1000.0,1.3545,1.831,2.0,4457.0,1001.0,1001.0,1000.0,999.0,500.0,,1287340,68,Man
43,569243.0,DepthScenes,v2_duration_discrimination,discrim_jsons/Discrim1000_randls_53_rotated.json,http://54.235.29.9/FacialAge/BNav_EC2/DepthDuration/v2_depth_discrimination_MTurk/v2_DepthDiscrim_HTML.html#186,186.0,1821.0,876.0,1366.0,768.0,9-6-2022,6-59-41,45.0,depth_discrimination_stimuli/001571_2014-06-20_17-21-32_260595134347_rgbf000089-resize_1/001571_2014-06-20_17-21-32_260595134347_rgbf000089-resize_1-target.png,depth_discrimination_stimuli/002272_2014-06-28_18-53-56_260595134347_rgbf000067-resize_2/002272_2014-06-28_18-53-56_260595134347_rgbf000067-resize_2-target.png,1000.0,1.86,1.138,2.0,3100.0,1001.0,1001.0,999.0,1001.0,500.0,,1287340,68,Man
44,569243.0,DepthScenes,v2_duration_discrimination,discrim_jsons/Discrim1000_randls_53_rotated.json,http://54.235.29.9/FacialAge/BNav_EC2/DepthDuration/v2_depth_discrimination_MTurk/v2_DepthDiscrim_HTML.html#186,186.0,1821.0,876.0,1366.0,768.0,9-6-2022,6-59-41,46.0,depth_discrimination_stimuli/000556_2014-06-09_22-42-56_260595134347_rgbf000214-resize_1/000556_2014-06-09_22-42-56_260595134347_rgbf000214-resize_1-target.png,depth_discrimination_stimuli/001158_2014-06-17_15-32-16_260595134347_rgbf000138-resize_2/001158_2014-06-17_15-32-16_260595134347_rgbf000138-resize_2-target.png,1000.0,4.8415,4.5315,2.0,3035.0,1002.0,1000.0,1000.0,1001.0,498.0,,1287340,68,Man
45,569243.0,DepthScenes,v2_duration_discrimination,discrim_jsons/Discrim1000_randls_53_rotated.json,http://54.235.29.9/FacialAge/BNav_EC2/DepthDuration/v2_depth_discrimination_MTurk/v2_DepthDiscrim_HTML.html#186,186.0,1821.0,876.0,1366.0,768.0,9-6-2022,6-59-41,47.0,depth_discrimination_stimuli/001100_2014-06-15_17-46-26_260595134347_rgbf000225-resize_2/001100_2014-06-15_17-46-26_260595134347_rgbf000225-resize_2-target.png,depth_discrimination_stimuli/002784_2014-06-22_19-26-30_094959634447_rgbf000083-resize_3/002784_2014-06-22_19-26-30_094959634447_rgbf000083-resize_3-target.png,1000.0,2.24,1.8046666666667,2.0,5098.0,1003.0,998.0,999.0,1000.0,500.0,,1287340,68,Man
46,569243.0,DepthScenes,v2_duration_discrimination,discrim_jsons/Discrim1000_randls_53_rotated.json,http://54.235.29.9/FacialAge/BNav_EC2/DepthDuration/v2_depth_discrimination_MTurk/v2_DepthDiscrim_HTML.html#186,186.0,1821.0,876.0,1366.0,768.0,9-6-2022,6-59-41,48.0,depth_discrimination_stimuli/000854_2014-06-09_19-43-13_260595134347_rgbf000066-resize_0/000854_2014-06-09_19-43-13_260595134347_rgbf000066-resize_0-target.png,depth_discrimination_stimuli/000758_2014-06-08_22-05-08_260595134347_rgbf000085-resize_0/000758_2014-06-08_22-05-08_260595134347_rgbf000085-resize_0-target.png,1000.0,3.068,3.3810000000000002,2.0,2838.0,1001.0,999.0,1000.0,998.0,500.0,,1287340,68,Man
47,569243.0,DepthScenes,v2_duration_discrimination,discrim_jsons/Discrim1000_randls_53_rotated.json,http://54.235.29.9/FacialAge/BNav_EC2/DepthDuration/v2_depth_discrimination_MTurk/v2_DepthDiscrim_HTML.html#186,186.0,1821.0,876.0,1366.0,768.0,9-6-2022,6-59-41,49.0,depth_discrimination_stimuli/001584_2014-06-20_11-07-43_260595134347_rgbf000002-resize_1/001584_2014-06-20_11-07-43_260595134347_rgbf000002-resize_1-target.png,depth_discrimination_stimuli/003621_2014-05-23_18-06-08_094959634447_rgbf000101-resize_1/003621_2014-05-23_18-06-08_094959634447_rgbf000101-resize_1-target.png,1000.0,3.53,3.9835,2.0,3019.0,1001.0,999.0,1000.0,1000.0,501.0,,1287340,68,Man
48,569243.0,DepthScenes,v2_duration_discrimination,discrim_jsons/Discrim1000_randls_53_rotated.json,http://54.235.29.9/FacialAge/BNav_EC2/DepthDuration/v2_depth_discrimination_MTurk/v2_DepthDiscrim_HTML.html#186,186.0,1821.0,876.0,1366.0,768.0,9-6-2022,6-59-41,50.0,depth_discrimination_stimuli/002467_2014-06-28_20-38-07_260595134347_rgbf000026-resize_2/002467_2014-06-28_20-38-07_260595134347_rgbf000026-resize_2-target.png,depth_discrimination_stimuli/002570_2014-06-24_13-59-54_094959634447_rgbf000059-resize_0/002570_2014-06-24_13-59-54_094959634447_rgbf000059-resize_0-target.png,1000.0,4.742,4.037,2.0,3078.0,1001.0,998.0,1001.0,998.0,500.0,,1287340,68,Man
49,569243.0,DepthScenes,v2_duration_discrimination,discrim_jsons/Discrim1000_randls_53_rotated.json,http://54.235.29.9/FacialAge/BNav_EC2/DepthDuration/v2_depth_discrimination_MTurk/v2_DepthDiscrim_HTML.html#186,186.0,1821.0,876.0,1366.0,768.0,9-6-2022,6-59-41,51.0,depth_discrimination_stimuli/001450_2014-06-19_17-02-03_260595134347_rgbf000203-resize_4/001450_2014-06-19_17-02-03_260595134347_rgbf000203-resize_4-target.png,depth_discrimination_stimuli/001449_2014-06-19_17-01-27_260595134347_rgbf000116-resize_2/001449_2014-06-19_17-01-27_260595134347_rgbf000116-resize_2-target.png,1000.0,4.0106666666667,3.452,2.0,2838.0,1001.0,1001.0,999.0,999.0,500.0,,1287340,68,Man
50,569243.0,DepthScenes,v2_duration_discrimination,discrim_jsons/Discrim1000_randls_53_rotated.json,http://54.235.29.9/FacialAge/BNav_EC2/DepthDuration/v2_depth_discrimination_MTurk/v2_DepthDiscrim_HTML.html#186,186.0,1821.0,876.0,1366.0,768.0,9-6-2022,6-59-41,52.0,depth_discrimination_stimuli/002136_2014-06-25_21-18-03_260595134347_rgbf000109-resize_3/002136_2014-06-25_21-18-03_260595134347_rgbf000109-resize_3-target.png,depth_discrimination_stimuli/002964_2014-06-08_17-46-11_094959634447_rgbf000091-resize_4/002964_2014-06-08_17-46-11_094959634447_rgbf000091-resize_4-target.png,1000.0,1.9569999999999999,1.6909999999999998,2.0,2936.0,1002.0,999.0,1000.0,997.0,500.0,,1287340,68,Man
51,569243.0,DepthScenes,v2_duration_discrimination,discrim_jsons/Discrim1000_randls_53_rotated.json,http://54.235.29.9/FacialAge/BNav_EC2/DepthDuration/v2_depth_discrimination_MTurk/v2_DepthDiscrim_HTML.html#186,186.0,1821.0,876.0,1366.0,768.0,9-6-2022,6-59-41,53.0,depth_discrimination_stimuli/001222_2014-06-17_16-24-06_260595134347_rgbf000073-resize_0/001222_2014-06-17_16-24-06_260595134347_rgbf000073-resize_0-target.png,depth_discrimination_stimuli/001222_2014-06-17_16-24-06_260595134347_rgbf000073-resize_0/001222_2014-06-17_16-24-06_260595134347_rgbf000073-resize_0-target.png,1000.0,1.4385,1.4385,2.0,2639.0,1001.0,1001.0,999.0,1000.0,500.0,,1287340,68,Man
52,569243.0,DepthScenes,v2_duration_discrimination,discrim_jsons/Discrim1000_randls_53_rotated.json,http://54.235.29.9/FacialAge/BNav_EC2/DepthDuration/v2_depth_discrimination_MTurk/v2_DepthDiscrim_HTML.html#186,186.0,1821.0,876.0,1366.0,768.0,9-6-2022,6-59-41,54.0,depth_discrimination_stimuli/000780_2014-06-08_22-28-29_260595134347_rgbf000126-resize_1/000780_2014-06-08_22-28-29_260595134347_rgbf000126-resize_1-target.png,depth_discrimination_stimuli/002445_2014-06-28_20-32-16_260595134347_rgbf000029-resize_4/002445_2014-06-28_20-32-16_260595134347_rgbf000029-resize_4-target.png,1000.0,3.3825,2.5315,2.0,3345.0,1001.0,1000.0,1000.0,1002.0,499.0,,1287340,68,Man
53,569243.0,DepthScenes,v2_duration_discrimination,discrim_jsons/Discrim1000_randls_53_rotated.json,http://54.235.29.9/FacialAge/BNav_EC2/DepthDuration/v2_depth_discrimination_MTurk/v2_DepthDiscrim_HTML.html#186,186.0,1821.0,876.0,1366.0,768.0,9-6-2022,6-59-41,55.0,depth_discrimination_stimuli/002344_2014-06-28_20-06-29_260595134347_rgbf000030-resize_1/002344_2014-06-28_20-06-29_260595134347_rgbf000030-resize_1-target.png,depth_discrimination_stimuli/002725_2014-06-22_11-47-51_094959634447_rgbf000070-resize_1/002725_2014-06-22_11-47-51_094959634447_rgbf000070-resize_1-target.png,1000.0,1.5795,2.195,2.0,4103.0,1002.0,999.0,1000.0,999.0,500.0,,1287340,68,Man
54,569243.0,DepthScenes,v2_duration_discrimination,discrim_jsons/Discrim1000_randls_53_rotated.json,http://54.235.29.9/FacialAge/BNav_EC2/DepthDuration/v2_depth_discrimination_MTurk/v2_DepthDiscrim_HTML.html#186,186.0,1821.0,876.0,1366.0,768.0,9-6-2022,6-59-41,56.0,depth_discrimination_stimuli/002414_2014-06-28_20-24-58_260595134347_rgbf000067-resize_4/002414_2014-06-28_20-24-58_260595134347_rgbf000067-resize_4-target.png,depth_discrimination_stimuli/000773_2014-06-08_22-24-54_260595134347_rgbf000093-resize_1/000773_2014-06-08_22-24-54_260595134347_rgbf000093-resize_1-target.png,1000.0,4.363,4.973,2.0,2887.0,1001.0,999.0,1000.0,999.0,501.0,,1287340,68,Man
55,569243.0,DepthScenes,v2_duration_discrimination,discrim_jsons/Discrim1000_randls_53_rotated.json,http://54.235.29.9/FacialAge/BNav_EC2/DepthDuration/v2_depth_discrimination_MTurk/v2_DepthDiscrim_HTML.html#186,186.0,1821.0,876.0,1366.0,768.0,9-6-2022,6-59-41,57.0,depth_discrimination_stimuli/002805_2014-06-22_19-54-03_094959634447_rgbf000079-resize_1/002805_2014-06-22_19-54-03_094959634447_rgbf000079-resize_1-target.png,depth_discrimination_stimuli/000906_2014-06-08_13-35-43_260595134347_rgbf000155-resize_1/000906_2014-06-08_13-35-43_260595134347_rgbf000155-resize_1-target.png,1000.0,3.1439999999999997,2.8489999999999998,2.0,3339.0,1001.0,999.0,1000.0,1000.0,499.0,,1287340,68,Man
56,569243.0,DepthScenes,v2_duration_discrimination,discrim_jsons/Discrim1000_randls_53_rotated.json,http://54.235.29.9/FacialAge/BNav_EC2/DepthDuration/v2_depth_discrimination_MTurk/v2_DepthDiscrim_HTML.html#186,186.0,1821.0,876.0,1366.0,768.0,9-6-2022,6-59-41,58.0,depth_discrimination_stimuli/000409_2014-06-04_19-23-33_260595134347_rgbf000067-resize_0/000409_2014-06-04_19-23-33_260595134347_rgbf000067-resize_0-target.png,depth_discrimination_stimuli/002663_2014-06-13_15-50-26_094959634447_rgbf000075-resize_1/002663_2014-06-13_15-50-26_094959634447_rgbf000075-resize_1-target.png,1000.0,3.7335,4.7495,2.0,2859.0,1002.0,998.0,1001.0,999.0,500.0,,1287340,68,Man
57,569243.0,DepthScenes,v2_duration_discrimination,discrim_jsons/Discrim1000_randls_53_rotated.json,http://54.235.29.9/FacialAge/BNav_EC2/DepthDuration/v2_depth_discrimination_MTurk/v2_DepthDiscrim_HTML.html#186,186.0,1821.0,876.0,1366.0,768.0,9-6-2022,6-59-41,59.0,depth_discrimination_stimuli/003423_2014-05-21_10-23-26_094959634447_rgbf002665-resize_2/003423_2014-05-21_10-23-26_094959634447_rgbf002665-resize_2-target.png,depth_discrimination_stimuli/002905_2014-06-03_18-04-43_094959634447_rgbf000151-resize_2/002905_2014-06-03_18-04-43_094959634447_rgbf000151-resize_2-target.png,1000.0,3.2575,2.0295,2.0,3283.0,1002.0,999.0,999.0,999.0,501.0,,1287340,68,Man
58,569243.0,DepthScenes,v2_duration_discrimination,discrim_jsons/Discrim1000_randls_53_rotated.json,http://54.235.29.9/FacialAge/BNav_EC2/DepthDuration/v2_depth_discrimination_MTurk/v2_DepthDiscrim_HTML.html#186,186.0,1821.0,876.0,1366.0,768.0,9-6-2022,6-59-41,60.0,depth_discrimination_stimuli/002639_2014-06-24_14-51-37_094959634447_rgbf000074-resize_4/002639_2014-06-24_14-51-37_094959634447_rgbf000074-resize_4-target.png,depth_discrimination_stimuli/003292_2014-05-14_21-53-49_094959634447_rgbf000100-resize_2/003292_2014-05-14_21-53-49_094959634447_rgbf000100-resize_2-target.png,1000.0,4.0375,3.4815,2.0,4554.0,1001.0,999.0,1001.0,999.0,500.0,,1287340,68,Man
59,569243.0,DepthScenes,v2_duration_discrimination,discrim_jsons/Discrim1000_randls_53_rotated.json,http://54.235.29.9/FacialAge/BNav_EC2/DepthDuration/v2_depth_discrimination_MTurk/v2_DepthDiscrim_HTML.html#186,186.0,1821.0,876.0,1366.0,768.0,9-6-2022,6-59-41,61.0,depth_discrimination_stimuli/000943_2014-06-09_19-31-07_260595134347_rgbf000128-resize_1/000943_2014-06-09_19-31-07_260595134347_rgbf000128-resize_1-target.png,depth_discrimination_stimuli/003070_2014-06-15_14-58-27_094959634447_rgbf000150-resize_3/003070_2014-06-15_14-58-27_094959634447_rgbf000150-resize_3-target.png,1000.0,1.9765,2.9415,2.0,3323.0,1001.0,1001.0,1000.0,1000.0,499.0,,1287340,68,Man
60,569243.0,DepthScenes,v2_duration_discrimination,discrim_jsons/Discrim1000_randls_53_rotated.json,http://54.235.29.9/FacialAge/BNav_EC2/DepthDuration/v2_depth_discrimination_MTurk/v2_DepthDiscrim_HTML.html#186,186.0,1821.0,876.0,1366.0,768.0,9-6-2022,6-59-41,62.0,depth_discrimination_stimuli/002750_2014-06-22_19-08-03_094959634447_rgbf000094-resize_4/002750_2014-06-22_19-08-03_094959634447_rgbf000094-resize_4-target.png,depth_discrimination_stimuli/002549_2014-06-24_13-41-39_094959634447_rgbf000022-resize_3/002549_2014-06-24_13-41-39_094959634447_rgbf000022-resize_3-target.png,1000.0,2.354,1.476,2.0,4495.0,1000.0,1000.0,999.0,999.0,500.0,,1287340,68,Man
61,569243.0,DepthScenes,v2_duration_discrimination,discrim_jsons/Discrim1000_randls_53_rotated.json,http://54.235.29.9/FacialAge/BNav_EC2/DepthDuration/v2_depth_discrimination_MTurk/v2_DepthDiscrim_HTML.html#186,186.0,1821.0,876.0,1366.0,768.0,9-6-2022,6-59-41,63.0,depth_discrimination_stimuli/003010_2014-06-15_12-54-35_094959634447_rgbf000112-resize_0/003010_2014-06-15_12-54-35_094959634447_rgbf000112-resize_0-target.png,depth_discrimination_stimuli/001810_2014-06-26_20-51-35_260595134347_rgbf000040-resize_3/001810_2014-06-26_20-51-35_260595134347_rgbf000040-resize_3-target.png,1000.0,3.1185,2.2525,2.0,2837.0,1002.0,999.0,1000.0,999.0,500.0,,1287340,68,Man
62,569243.0,DepthScenes,v2_duration_discrimination,discrim_jsons/Discrim1000_randls_53_rotated.json,http://54.235.29.9/FacialAge/BNav_EC2/DepthDuration/v2_depth_discrimination_MTurk/v2_DepthDiscrim_HTML.html#186,186.0,1821.0,876.0,1366.0,768.0,9-6-2022,6-59-41,64.0,depth_discrimination_stimuli/000787_2014-06-08_22-33-53_260595134347_rgbf000175-resize_1/000787_2014-06-08_22-33-53_260595134347_rgbf000175-resize_1-target.png,depth_discrimination_stimuli/000787_2014-06-08_22-33-53_260595134347_rgbf000175-resize_1/000787_2014-06-08_22-33-53_260595134347_rgbf000175-resize_1-target.png,1000.0,4.784,4.784,2.0,3001.0,1000.0,1000.0,999.0,999.0,501.0,,1287340,68,Man
63,569243.0,DepthScenes,v2_duration_discrimination,discrim_jsons/Discrim1000_randls_53_rotated.json,http://54.235.29.9/FacialAge/BNav_EC2/DepthDuration/v2_depth_discrimination_MTurk/v2_DepthDiscrim_HTML.html#186,186.0,1821.0,876.0,1366.0,768.0,9-6-2022,6-59-41,65.0,depth_discrimination_stimuli/001392_2014-06-19_16-07-59_260595134347_rgbf000046-resize_1/001392_2014-06-19_16-07-59_260595134347_rgbf000046-resize_1-target.png,depth_discrimination_stimuli/001570_2014-06-20_17-21-09_260595134347_rgbf000135-resize_4/001570_2014-06-20_17-21-09_260595134347_rgbf000135-resize_4-target.png,1000.0,4.135,4.467,2.0,3219.0,1000.0,999.0,1001.0,999.0,500.0,,1287340,68,Man
64,569243.0,DepthScenes,v2_duration_discrimination,discrim_jsons/Discrim1000_randls_53_rotated.json,http://54.235.29.9/FacialAge/BNav_EC2/DepthDuration/v2_depth_discrimination_MTurk/v2_DepthDiscrim_HTML.html#186,186.0,1821.0,876.0,1366.0,768.0,9-6-2022,6-59-41,66.0,depth_discrimination_stimuli/000483_2014-06-09_20-41-45_260595134347_rgbf000116-resize_4/000483_2014-06-09_20-41-45_260595134347_rgbf000116-resize_4-target.png,depth_discrimination_stimuli/000469_2014-06-09_19-42-10_260595134347_rgbf000081-resize_1/000469_2014-06-09_19-42-10_260595134347_rgbf000081-resize_1-target.png,1000.0,1.337,1.652,2.0,3138.0,1001.0,999.0,1000.0,999.0,500.0,,1287340,68,Man
65,569243.0,DepthScenes,v2_duration_discrimination,discrim_jsons/Discrim1000_randls_53_rotated.json,http://54.235.29.9/FacialAge/BNav_EC2/DepthDuration/v2_depth_discrimination_MTurk/v2_DepthDiscrim_HTML.html#186,186.0,1821.0,876.0,1366.0,768.0,9-6-2022,6-59-41,67.0,depth_discrimination_stimuli/000137_2014-05-20_17-04-49_260595134347_rgbf000120-resize_1/000137_2014-05-20_17-04-49_260595134347_rgbf000120-resize_1-target.png,depth_discrimination_stimuli/000736_2014-06-08_18-24-15_260595134347_rgbf000206-resize_3/000736_2014-06-08_18-24-15_260595134347_rgbf000206-resize_3-target.png,1000.0,3.786,3.515,2.0,4094.0,1001.0,1000.0,999.0,1000.0,501.0,,1287340,68,Man
66,569243.0,DepthScenes,v2_duration_discrimination,discrim_jsons/Discrim1000_randls_53_rotated.json,http://54.235.29.9/FacialAge/BNav_EC2/DepthDuration/v2_depth_discrimination_MTurk/v2_DepthDiscrim_HTML.html#186,186.0,1821.0,876.0,1366.0,768.0,9-6-2022,6-59-41,68.0,depth_discrimination_stimuli/002568_2014-06-24_13-59-21_094959634447_rgbf000062-resize_4/002568_2014-06-24_13-59-21_094959634447_rgbf000062-resize_4-target.png,depth_discrimination_stimuli/003492_2014-05-21_15-50-55_094959634447_rgbf000828-resize_1/003492_2014-05-21_15-50-55_094959634447_rgbf000828-resize_1-target.png,1000.0,3.015,4.06875,2.0,3023.0,1002.0,1000.0,999.0,1001.0,500.0,,1287340,68,Man
67,569243.0,DepthScenes,v2_duration_discrimination,discrim_jsons/Discrim1000_randls_53_rotated.json,http://54.235.29.9/FacialAge/BNav_EC2/DepthDuration/v2_depth_discrimination_MTurk/v2_DepthDiscrim_HTML.html#186,186.0,1821.0,876.0,1366.0,768.0,9-6-2022,6-59-41,69.0,depth_discrimination_stimuli/001235_2014-06-17_16-37-36_260595134347_rgbf000084-resize_4/001235_2014-06-17_16-37-36_260595134347_rgbf000084-resize_4-target.png,depth_discrimination_stimuli/000788_2014-06-08_22-34-36_260595134347_rgbf000131-resize_1/000788_2014-06-08_22-34-36_260595134347_rgbf000131-resize_1-target.png,1000.0,3.6605,3.359,2.0,2853.0,1000.0,1001.0,1000.0,999.0,499.0,,1287340,68,Man
68,569243.0,DepthScenes,v2_duration_discrimination,discrim_jsons/Discrim1000_randls_53_rotated.json,http://54.235.29.9/FacialAge/BNav_EC2/DepthDuration/v2_depth_discrimination_MTurk/v2_DepthDiscrim_HTML.html#186,186.0,1821.0,876.0,1366.0,768.0,9-6-2022,6-59-41,70.0,depth_discrimination_stimuli/000866_2014-06-09_20-45-42_260595134347_rgbf000139-resize_1/000866_2014-06-09_20-45-42_260595134347_rgbf000139-resize_1-target.png,depth_discrimination_stimuli/002989_2014-06-15_12-25-03_094959634447_rgbf000150-resize_3/002989_2014-06-15_12-25-03_094959634447_rgbf000150-resize_3-target.png,1000.0,3.2155,4.1975,2.0,3278.0,1001.0,1000.0,1000.0,1001.0,500.0,,1287340,68,Man
69,569243.0,DepthScenes,v2_duration_discrimination,discrim_jsons/Discrim1000_randls_53_rotated.json,http://54.235.29.9/FacialAge/BNav_EC2/DepthDuration/v2_depth_discrimination_MTurk/v2_DepthDiscrim_HTML.html#186,186.0,1821.0,876.0,1366.0,768.0,9-6-2022,6-59-41,71.0,depth_discrimination_stimuli/002660_2014-06-13_15-44-18_094959634447_rgbf001878-resize_2/002660_2014-06-13_15-44-18_094959634447_rgbf001878-resize_2-target.png,depth_discrimination_stimuli/002153_2014-06-25_21-27-18_260595134347_rgbf000038-resize_5/002153_2014-06-25_21-27-18_260595134347_rgbf000038-resize_5-target.png,1000.0,3.576,2.505,2.0,3663.0,1001.0,1000.0,1000.0,999.0,499.0,,1287340,68,Man
70,569243.0,DepthScenes,v2_duration_discrimination,discrim_jsons/Discrim1000_randls_53_rotated.json,http://54.235.29.9/FacialAge/BNav_EC2/DepthDuration/v2_depth_discrimination_MTurk/v2_DepthDiscrim_HTML.html#186,186.0,1821.0,876.0,1366.0,768.0,9-6-2022,6-59-41,72.0,depth_discrimination_stimuli/000375_2014-06-08_11-17-29_260595134347_rgbf000133-resize_2/000375_2014-06-08_11-17-29_260595134347_rgbf000133-resize_2-target.png,depth_discrimination_stimuli/000375_2014-06-08_11-17-29_260595134347_rgbf000133-resize_2/000375_2014-06-08_11-17-29_260595134347_rgbf000133-resize_2-target.png,1000.0,4.718,4.718,2.0,2996.0,1002.0,999.0,999.0,1001.0,499.0,,1287340,68,Man
71,569243.0,DepthScenes,v2_duration_discrimination,discrim_jsons/Discrim1000_randls_53_rotated.json,http://54.235.29.9/FacialAge/BNav_EC2/DepthDuration/v2_depth_discrimination_MTurk/v2_DepthDiscrim_HTML.html#186,186.0,1821.0,876.0,1366.0,768.0,9-6-2022,6-59-41,73.0,depth_discrimination_stimuli/003338_2014-05-20_11-01-23_094959634447_rgbf000051-resize_6/003338_2014-05-20_11-01-23_094959634447_rgbf000051-resize_6-target.png,depth_discrimination_stimuli/002509_2014-06-24_13-19-22_094959634447_rgbf000077-resize_0/002509_2014-06-24_13-19-22_094959634447_rgbf000077-resize_0-target.png,1000.0,1.693,1.3065,2.0,4598.0,1002.0,999.0,1001.0,1000.0,500.0,,1287340,68,Man
72,569243.0,DepthScenes,v2_duration_discrimination,discrim_jsons/Discrim1000_randls_53_rotated.json,http://54.235.29.9/FacialAge/BNav_EC2/DepthDuration/v2_depth_discrimination_MTurk/v2_DepthDiscrim_HTML.html#186,186.0,1821.0,876.0,1366.0,768.0,9-6-2022,6-59-41,74.0,depth_discrimination_stimuli/003228_2014-05-14_13-42-35_094959634447_rgbf000101-resize_1/003228_2014-05-14_13-42-35_094959634447_rgbf000101-resize_1-target.png,depth_discrimination_stimuli/002600_2014-06-24_14-27-04_094959634447_rgbf000074-resize_2/002600_2014-06-24_14-27-04_094959634447_rgbf000074-resize_2-target.png,1000.0,1.9680000000000002,2.7575,2.0,3027.0,1001.0,999.0,1001.0,1000.0,500.0,,1287340,68,Man
73,569243.0,DepthScenes,v2_duration_discrimination,discrim_jsons/Discrim1000_randls_53_rotated.json,http://54.235.29.9/FacialAge/BNav_EC2/DepthDuration/v2_depth_discrimination_MTurk/v2_DepthDiscrim_HTML.html#186,186.0,1821.0,876.0,1366.0,768.0,9-6-2022,6-59-41,75.0,depth_discrimination_stimuli/001032_2014-06-08_13-23-17_260595134347_rgbf000021-resize_3/001032_2014-06-08_13-23-17_260595134347_rgbf000021-resize_3-target.png,depth_discrimination_stimuli/001059_2014-06-08_21-53-27_260595134347_rgbf000061-resize_4/001059_2014-06-08_21-53-27_260595134347_rgbf000061-resize_4-target.png,1000.0,3.2725,2.4185,2.0,3354.0,1001.0,1001.0,1000.0,999.0,501.0,,1287340,68,Man
74,569243.0,DepthScenes,v2_duration_discrimination,discrim_jsons/Discrim1000_randls_53_rotated.json,http://54.235.29.9/FacialAge/BNav_EC2/DepthDuration/v2_depth_discrimination_MTurk/v2_DepthDiscrim_HTML.html#186,186.0,1821.0,876.0,1366.0,768.0,9-6-2022,6-59-41,76.0,depth_discrimination_stimuli/001136_2014-06-17_15-19-41_260595134347_rgbf000076-resize_3/001136_2014-06-17_15-19-41_260595134347_rgbf000076-resize_3-target.png,depth_discrimination_stimuli/001164_2014-06-17_15-35-46_260595134347_rgbf000085-resize_3/001164_2014-06-17_15-35-46_260595134347_rgbf000085-resize_3-target.png,1000.0,1.8655,2.354,2.0,3332.0,1002.0,999.0,1000.0,998.0,500.0,,1287340,68,Man
75,569243.0,DepthScenes,v2_duration_discrimination,discrim_jsons/Discrim1000_randls_53_rotated.json,http://54.235.29.9/FacialAge/BNav_EC2/DepthDuration/v2_depth_discrimination_MTurk/v2_DepthDiscrim_HTML.html#186,186.0,1821.0,876.0,1366.0,768.0,9-6-2022,6-59-41,77.0,depth_discrimination_stimuli/003048_2014-06-15_13-49-43_094959634447_rgbf000150-resize_1/003048_2014-06-15_13-49-43_094959634447_rgbf000150-resize_1-target.png,depth_discrimination_stimuli/002043_2014-06-24_20-29-38_260595134347_rgbf000039-resize_4/002043_2014-06-24_20-29-38_260595134347_rgbf000039-resize_4-target.png,1000.0,4.0035,2.8435,2.0,8359.0,1002.0,999.0,1000.0,999.0,500.0,,1287340,68,Man
76,569243.0,DepthScenes,v2_duration_discrimination,discrim_jsons/Discrim1000_randls_53_rotated.json,http://54.235.29.9/FacialAge/BNav_EC2/DepthDuration/v2_depth_discrimination_MTurk/v2_DepthDiscrim_HTML.html#186,186.0,1821.0,876.0,1366.0,768.0,9-6-2022,6-59-41,78.0,depth_discrimination_stimuli/000927_2014-06-09_16-32-30_260595134347_rgbf000123-resize_3/000927_2014-06-09_16-32-30_260595134347_rgbf000123-resize_3-target.png,depth_discrimination_stimuli/001110_2014-06-15_17-25-28_260595134347_rgbf000150-resize_1/001110_2014-06-15_17-25-28_260595134347_rgbf000150-resize_1-target.png,1000.0,2.6785,1.7115,2.0,2676.0,1000.0,1000.0,1000.0,1000.0,499.0,,1287340,68,Man
77,569243.0,DepthScenes,v2_duration_discrimination,discrim_jsons/Discrim1000_randls_53_rotated.json,http://54.235.29.9/FacialAge/BNav_EC2/DepthDuration/v2_depth_discrimination_MTurk/v2_DepthDiscrim_HTML.html#186,186.0,1821.0,876.0,1366.0,768.0,9-6-2022,6-59-41,79.0,depth_discrimination_stimuli/002875_2014-06-01_15-19-00_094959634447_rgbf000151-resize_1/002875_2014-06-01_15-19-00_094959634447_rgbf000151-resize_1-target.png,depth_discrimination_stimuli/001011_2014-06-08_23-18-54_260595134347_rgbf000044-resize_4/001011_2014-06-08_23-18-54_260595134347_rgbf000044-resize_4-target.png,1000.0,1.9675,2.4730000000000003,2.0,2753.0,1002.0,998.0,1001.0,998.0,501.0,,1287340,68,Man
78,569243.0,DepthScenes,v2_duration_discrimination,discrim_jsons/Discrim1000_randls_53_rotated.json,http://54.235.29.9/FacialAge/BNav_EC2/DepthDuration/v2_depth_discrimination_MTurk/v2_DepthDiscrim_HTML.html#186,186.0,1821.0,876.0,1366.0,768.0,9-6-2022,6-59-41,80.0,depth_discrimination_stimuli/001132_2014-06-17_14-48-54_260595134347_rgbf000100-resize_2/001132_2014-06-17_14-48-54_260595134347_rgbf000100-resize_2-target.png,depth_discrimination_stimuli/001133_2014-06-17_14-49-16_260595134347_rgbf000100-resize_0/001133_2014-06-17_14-49-16_260595134347_rgbf000100-resize_0-target.png,1000.0,3.753,4.2115,2.0,4883.0,1001.0,999.0,1000.0,999.0,500.0,,1287340,68,Man
79,569243.0,DepthScenes,v2_duration_discrimination,discrim_jsons/Discrim1000_randls_53_rotated.json,http://54.235.29.9/FacialAge/BNav_EC2/DepthDuration/v2_depth_discrimination_MTurk/v2_DepthDiscrim_HTML.html#186,186.0,1821.0,876.0,1366.0,768.0,9-6-2022,6-59-41,81.0,depth_discrimination_stimuli/000569_2014-06-09_22-51-47_260595134347_rgbf000141-resize_3/000569_2014-06-09_22-51-47_260595134347_rgbf000141-resize_3-target.png,depth_discrimination_stimuli/000569_2014-06-09_22-51-47_260595134347_rgbf000141-resize_3/000569_2014-06-09_22-51-47_260595134347_rgbf000141-resize_3-target.png,1000.0,4.512,4.512,2.0,3327.0,1002.0,999.0,1000.0,998.0,501.0,,1287340,68,Man
80,569243.0,DepthScenes,v2_duration_discrimination,discrim_jsons/Discrim1000_randls_53_rotated.json,http://54.235.29.9/FacialAge/BNav_EC2/DepthDuration/v2_depth_discrimination_MTurk/v2_DepthDiscrim_HTML.html#186,186.0,1821.0,876.0,1366.0,768.0,9-6-2022,6-59-41,82.0,depth_discrimination_stimuli/000691_2014-06-08_13-08-50_260595134347_rgbf000132-resize_3/000691_2014-06-08_13-08-50_260595134347_rgbf000132-resize_3-target.png,depth_discrimination_stimuli/002213_2014-06-28_18-37-58_260595134347_rgbf000055-resize_1/002213_2014-06-28_18-37-58_260595134347_rgbf000055-resize_1-target.png,1000.0,4.1530000000000005,3.62,2.0,2765.0,1001.0,999.0,999.0,1000.0,501.0,,1287340,68,Man
81,569243.0,DepthScenes,v2_duration_discrimination,discrim_jsons/Discrim1000_randls_53_rotated.json,http://54.235.29.9/FacialAge/BNav_EC2/DepthDuration/v2_depth_discrimination_MTurk/v2_DepthDiscrim_HTML.html#186,186.0,1821.0,876.0,1366.0,768.0,9-6-2022,6-59-41,83.0,depth_discrimination_stimuli/000457_2014-06-08_16-52-43_260595134347_rgbf000199-resize_1/000457_2014-06-08_16-52-43_260595134347_rgbf000199-resize_1-target.png,depth_discrimination_stimuli/000929_2014-06-09_16-33-19_260595134347_rgbf000139-resize_0/000929_2014-06-09_16-33-19_260595134347_rgbf000139-resize_0-target.png,1000.0,3.6489999999999996,2.8680000000000003,2.0,3444.0,1002.0,999.0,1001.0,999.0,500.0,,1287340,68,Man
82,569243.0,DepthScenes,v2_duration_discrimination,discrim_jsons/Discrim1000_randls_53_rotated.json,http://54.235.29.9/FacialAge/BNav_EC2/DepthDuration/v2_depth_discrimination_MTurk/v2_DepthDiscrim_HTML.html#186,186.0,1821.0,876.0,1366.0,768.0,9-6-2022,6-59-41,84.0,depth_discrimination_stimuli/002103_2014-06-25_20-00-40_260595134347_rgbf000049-resize_0/002103_2014-06-25_20-00-40_260595134347_rgbf000049-resize_0-target.png,depth_discrimination_stimuli/002039_2014-06-24_20-22-38_260595134347_rgbf000084-resize_1/002039_2014-06-24_20-22-38_260595134347_rgbf000084-resize_1-target.png,1000.0,4.105,4.408,2.0,4508.0,1002.0,999.0,1000.0,1001.0,499.0,,1287340,68,Man
83,569243.0,DepthScenes,v2_duration_discrimination,discrim_jsons/Discrim1000_randls_53_rotated.json,http://54.235.29.9/FacialAge/BNav_EC2/DepthDuration/v2_depth_discrimination_MTurk/v2_DepthDiscrim_HTML.html#186,186.0,1821.0,876.0,1366.0,768.0,9-6-2022,6-59-41,85.0,depth_discrimination_stimuli/001094_2014-06-15_17-36-00_260595134347_rgbf000205-resize_0/001094_2014-06-15_17-36-00_260595134347_rgbf000205-resize_0-target.png,depth_discrimination_stimuli/000692_2014-06-08_13-09-42_260595134347_rgbf000199-resize_2/000692_2014-06-08_13-09-42_260595134347_rgbf000199-resize_2-target.png,1000.0,4.2175,3.661,2.0,3607.0,1001.0,1000.0,1001.0,998.0,501.0,,1287340,68,Man
84,569243.0,DepthScenes,v2_duration_discrimination,discrim_jsons/Discrim1000_randls_53_rotated.json,http://54.235.29.9/FacialAge/BNav_EC2/DepthDuration/v2_depth_discrimination_MTurk/v2_DepthDiscrim_HTML.html#186,186.0,1821.0,876.0,1366.0,768.0,9-6-2022,6-59-41,86.0,depth_discrimination_stimuli/002953_2014-06-08_17-32-18_094959634447_rgbf000059-resize_5/002953_2014-06-08_17-32-18_094959634447_rgbf000059-resize_5-target.png,depth_discrimination_stimuli/000878_2014-06-08_22-52-45_260595134347_rgbf000045-resize_2/000878_2014-06-08_22-52-45_260595134347_rgbf000045-resize_2-target.png,1000.0,1.551,2.092,2.0,5157.0,1001.0,1000.0,1000.0,998.0,500.0,,1287340,68,Man
85,569243.0,DepthScenes,v2_duration_discrimination,discrim_jsons/Discrim1000_randls_53_rotated.json,http://54.235.29.9/FacialAge/BNav_EC2/DepthDuration/v2_depth_discrimination_MTurk/v2_DepthDiscrim_HTML.html#186,186.0,1821.0,876.0,1366.0,768.0,9-6-2022,6-59-41,86.0,,,,,,,5157.0,1001.0,1000.0,1000.0,998.0,500.0,,1287340,68,Man
86,,,,,,,,,,,,,,,,,,,,,,,,,,,1287340,68,Man
