,subjID,experimentName,versionName,sequenceName,url,selected_row,windowWidth,windowHeight,screenWidth,screenHeight,startDate,startTime,trial,stimulus_0,stimulus_1,duration,actual_depth_0,actual_depth_1,discrim_choice,trial_RT,log_fixation,log_sceneDuration1,log_mask1,log_sceneDuration2,log_mask2,experimentTime,totalTime,age,gender
0,600778,DepthScenes,v2_duration_discrimination,discrim_jsons/Discrim1000_randls_69_rotated.json,http://54.235.29.9/FacialAge/BNav_EC2/DepthDuration/v2_depth_discrimination_MTurk/v2_DepthDiscrim_HTML.html#59,59,1366,625,1366,768,9-5-2022,7-51-14,1,depth_discrimination_stimuli/000780_2014-06-08_22-28-29_260595134347_rgbf000126-resize_1/000780_2014-06-08_22-28-29_260595134347_rgbf000126-resize_1-target.png,depth_discrimination_stimuli/002445_2014-06-28_20-32-16_260595134347_rgbf000029-resize_4/002445_2014-06-28_20-32-16_260595134347_rgbf000029-resize_4-target.png,1000.0,3.3825,2.5315,1.0,2491,1001,1001,1014,999,497,,1000181,46,Woman
1,600778,DepthScenes,v2_duration_discrimination,discrim_jsons/Discrim1000_randls_69_rotated.json,http://54.235.29.9/FacialAge/BNav_EC2/DepthDuration/v2_depth_discrimination_MTurk/v2_DepthDiscrim_HTML.html#59,59,1366,625,1366,768,9-5-2022,7-51-14,2,depth_discrimination_stimuli/000691_2014-06-08_13-08-50_260595134347_rgbf000132-resize_3/000691_2014-06-08_13-08-50_260595134347_rgbf000132-resize_3-target.png,depth_discrimination_stimuli/002213_2014-06-28_18-37-58_260595134347_rgbf000055-resize_1/002213_2014-06-28_18-37-58_260595134347_rgbf000055-resize_1-target.png,1000.0,4.1530000000000005,3.62,0.0,2256,1001,1003,997,1000,500,,1000181,46,Woman
2,600778,DepthScenes,v2_duration_discrimination,discrim_jsons/Discrim1000_randls_69_rotated.json,http://54.235.29.9/FacialAge/BNav_EC2/DepthDuration/v2_depth_discrimination_MTurk/v2_DepthDiscrim_HTML.html#59,59,1366,625,1366,768,9-5-2022,7-51-14,3,depth_discrimination_stimuli/001447_2014-06-19_17-00-32_260595134347_rgbf000082-resize_5/001447_2014-06-19_17-00-32_260595134347_rgbf000082-resize_5-target.png,depth_discrimination_stimuli/000447_2014-06-08_16-15-46_260595134347_rgbf000130-resize_1/000447_2014-06-08_16-15-46_260595134347_rgbf000130-resize_1-target.png,1000.0,4.13775,4.479,0.0,2020,1001,1002,1000,1001,498,,1000181,46,Woman
3,600778,DepthScenes,v2_duration_discrimination,discrim_jsons/Discrim1000_randls_69_rotated.json,http://54.235.29.9/FacialAge/BNav_EC2/DepthDuration/v2_depth_discrimination_MTurk/v2_DepthDiscrim_HTML.html#59,59,1366,625,1366,768,9-5-2022,7-51-14,4,depth_discrimination_stimuli/000502_2014-06-08_23-02-32_260595134347_rgbf000063-resize_4/000502_2014-06-08_23-02-32_260595134347_rgbf000063-resize_4-target.png,depth_discrimination_stimuli/001199_2014-06-17_16-03-48_260595134347_rgbf000077-resize_0/001199_2014-06-17_16-03-48_260595134347_rgbf000077-resize_0-target.png,1000.0,2.431,3.4375,0.0,1939,1007,1004,996,999,498,,1000181,46,Woman
4,600778,DepthScenes,v2_duration_discrimination,discrim_jsons/Discrim1000_randls_69_rotated.json,http://54.235.29.9/FacialAge/BNav_EC2/DepthDuration/v2_depth_discrimination_MTurk/v2_DepthDiscrim_HTML.html#59,59,1366,625,1366,768,9-5-2022,7-51-14,5,depth_discrimination_stimuli/003129_2014-05-12_10-48-10_094959634447_rgbf000100-resize_0/003129_2014-05-12_10-48-10_094959634447_rgbf000100-resize_0-target.png,depth_discrimination_stimuli/000414_2014-06-04_19-49-13_260595134347_rgbf000044-resize_0/000414_2014-06-04_19-49-13_260595134347_rgbf000044-resize_0-target.png,1000.0,4.9305,4.329,0.0,2323,1006,1006,997,1004,494,,1000181,46,Woman
5,600778,DepthScenes,v2_duration_discrimination,discrim_jsons/Discrim1000_randls_69_rotated.json,http://54.235.29.9/FacialAge/BNav_EC2/DepthDuration/v2_depth_discrimination_MTurk/v2_DepthDiscrim_HTML.html#59,59,1366,625,1366,768,9-5-2022,7-51-14,6,depth_discrimination_stimuli/003587_2014-05-23_16-48-02_094959634447_rgbf002384-resize_2/003587_2014-05-23_16-48-02_094959634447_rgbf002384-resize_2-target.png,depth_discrimination_stimuli/001167_2014-06-17_15-38-07_260595134347_rgbf000108-resize_0/001167_2014-06-17_15-38-07_260595134347_rgbf000108-resize_0-target.png,1000.0,1.357,1.8505,1.0,1871,1016,998,1000,999,502,,1000181,46,Woman
6,600778,DepthScenes,v2_duration_discrimination,discrim_jsons/Discrim1000_randls_69_rotated.json,http://54.235.29.9/FacialAge/BNav_EC2/DepthDuration/v2_depth_discrimination_MTurk/v2_DepthDiscrim_HTML.html#59,59,1366,625,1366,768,9-5-2022,7-51-14,7,depth_discrimination_stimuli/002637_2014-06-24_14-51-13_094959634447_rgbf000066-resize_4/002637_2014-06-24_14-51-13_094959634447_rgbf000066-resize_4-target.png,depth_discrimination_stimuli/003534_2014-05-22_15-06-10_094959634447_rgbf000102-resize_4/003534_2014-05-22_15-06-10_094959634447_rgbf000102-resize_4-target.png,1000.0,1.9955,1.426,1.0,1777,1016,1000,999,997,495,,1000181,46,Woman
7,600778,DepthScenes,v2_duration_discrimination,discrim_jsons/Discrim1000_randls_69_rotated.json,http://54.235.29.9/FacialAge/BNav_EC2/DepthDuration/v2_depth_discrimination_MTurk/v2_DepthDiscrim_HTML.html#59,59,1366,625,1366,768,9-5-2022,7-51-14,8,depth_discrimination_stimuli/000409_2014-06-04_19-23-33_260595134347_rgbf000067-resize_0/000409_2014-06-04_19-23-33_260595134347_rgbf000067-resize_0-target.png,depth_discrimination_stimuli/002663_2014-06-13_15-50-26_094959634447_rgbf000075-resize_1/002663_2014-06-13_15-50-26_094959634447_rgbf000075-resize_1-target.png,1000.0,3.7335,4.7495,0.0,2056,1010,992,998,1015,495,,1000181,46,Woman
8,600778,DepthScenes,v2_duration_discrimination,discrim_jsons/Discrim1000_randls_69_rotated.json,http://54.235.29.9/FacialAge/BNav_EC2/DepthDuration/v2_depth_discrimination_MTurk/v2_DepthDiscrim_HTML.html#59,59,1366,625,1366,768,9-5-2022,7-51-14,9,depth_discrimination_stimuli/000749_2014-06-08_21-55-06_260595134347_rgbf000070-resize_2/000749_2014-06-08_21-55-06_260595134347_rgbf000070-resize_2-target.png,depth_discrimination_stimuli/002788_2014-06-22_19-36-03_094959634447_rgbf000088-resize_2/002788_2014-06-22_19-36-03_094959634447_rgbf000088-resize_2-target.png,1000.0,2.331,1.6465,0.0,2076,1014,999,1001,998,488,,1000181,46,Woman
9,600778,DepthScenes,v2_duration_discrimination,discrim_jsons/Discrim1000_randls_69_rotated.json,http://54.235.29.9/FacialAge/BNav_EC2/DepthDuration/v2_depth_discrimination_MTurk/v2_DepthDiscrim_HTML.html#59,59,1366,625,1366,768,9-5-2022,7-51-14,10,depth_discrimination_stimuli/001498_2014-06-19_17-45-14_260595134347_rgbf000129-resize_4/001498_2014-06-19_17-45-14_260595134347_rgbf000129-resize_4-target.png,depth_discrimination_stimuli/001498_2014-06-19_17-45-14_260595134347_rgbf000129-resize_4/001498_2014-06-19_17-45-14_260595134347_rgbf000129-resize_4-target.png,1000.0,1.4075,1.4075,3.0,1767,1013,1000,996,998,507,,1000181,46,Woman
10,600778,DepthScenes,v2_duration_discrimination,discrim_jsons/Discrim1000_randls_69_rotated.json,http://54.235.29.9/FacialAge/BNav_EC2/DepthDuration/v2_depth_discrimination_MTurk/v2_DepthDiscrim_HTML.html#59,59,1366,625,1366,768,9-5-2022,7-51-14,11,depth_discrimination_stimuli/003048_2014-06-15_13-49-43_094959634447_rgbf000150-resize_1/003048_2014-06-15_13-49-43_094959634447_rgbf000150-resize_1-target.png,depth_discrimination_stimuli/002043_2014-06-24_20-29-38_260595134347_rgbf000039-resize_4/002043_2014-06-24_20-29-38_260595134347_rgbf000039-resize_4-target.png,1000.0,4.0035,2.8435,1.0,2117,1006,1006,992,1011,494,,1000181,46,Woman
11,600778,DepthScenes,v2_duration_discrimination,discrim_jsons/Discrim1000_randls_69_rotated.json,http://54.235.29.9/FacialAge/BNav_EC2/DepthDuration/v2_depth_discrimination_MTurk/v2_DepthDiscrim_HTML.html#59,59,1366,625,1366,768,9-5-2022,7-51-14,12,depth_discrimination_stimuli/000137_2014-05-20_17-04-49_260595134347_rgbf000120-resize_1/000137_2014-05-20_17-04-49_260595134347_rgbf000120-resize_1-target.png,depth_discrimination_stimuli/000736_2014-06-08_18-24-15_260595134347_rgbf000206-resize_3/000736_2014-06-08_18-24-15_260595134347_rgbf000206-resize_3-target.png,1000.0,3.786,3.515,1.0,2409,1003,1004,1009,991,501,,1000181,46,Woman
12,600778,DepthScenes,v2_duration_discrimination,discrim_jsons/Discrim1000_randls_69_rotated.json,http://54.235.29.9/FacialAge/BNav_EC2/DepthDuration/v2_depth_discrimination_MTurk/v2_DepthDiscrim_HTML.html#59,59,1366,625,1366,768,9-5-2022,7-51-14,13,depth_discrimination_stimuli/002639_2014-06-24_14-51-37_094959634447_rgbf000074-resize_4/002639_2014-06-24_14-51-37_094959634447_rgbf000074-resize_4-target.png,depth_discrimination_stimuli/003292_2014-05-14_21-53-49_094959634447_rgbf000100-resize_2/003292_2014-05-14_21-53-49_094959634447_rgbf000100-resize_2-target.png,1000.0,4.0375,3.4815,1.0,1811,1004,1000,1000,1000,500,,1000181,46,Woman
13,600778,DepthScenes,v2_duration_discrimination,discrim_jsons/Discrim1000_randls_69_rotated.json,http://54.235.29.9/FacialAge/BNav_EC2/DepthDuration/v2_depth_discrimination_MTurk/v2_DepthDiscrim_HTML.html#59,59,1366,625,1366,768,9-5-2022,7-51-14,14,depth_discrimination_stimuli/001132_2014-06-17_14-48-54_260595134347_rgbf000100-resize_2/001132_2014-06-17_14-48-54_260595134347_rgbf000100-resize_2-target.png,depth_discrimination_stimuli/001133_2014-06-17_14-49-16_260595134347_rgbf000100-resize_0/001133_2014-06-17_14-49-16_260595134347_rgbf000100-resize_0-target.png,1000.0,3.753,4.2115,0.0,2030,1009,1000,1000,1010,490,,1000181,46,Woman
14,600778,DepthScenes,v2_duration_discrimination,discrim_jsons/Discrim1000_randls_69_rotated.json,http://54.235.29.9/FacialAge/BNav_EC2/DepthDuration/v2_depth_discrimination_MTurk/v2_DepthDiscrim_HTML.html#59,59,1366,625,1366,768,9-5-2022,7-51-14,15,depth_discrimination_stimuli/003081_2014-06-15_15-19-16_094959634447_rgbf000150-resize_1/003081_2014-06-15_15-19-16_094959634447_rgbf000150-resize_1-target.png,depth_discrimination_stimuli/001417_2014-06-19_16-25-36_260595134347_rgbf000115-resize_5/001417_2014-06-19_16-25-36_260595134347_rgbf000115-resize_5-target.png,1000.0,3.9125,4.6255,1.0,1892,1012,1001,1002,987,501,,1000181,46,Woman
15,600778,DepthScenes,v2_duration_discrimination,discrim_jsons/Discrim1000_randls_69_rotated.json,http://54.235.29.9/FacialAge/BNav_EC2/DepthDuration/v2_depth_discrimination_MTurk/v2_DepthDiscrim_HTML.html#59,59,1366,625,1366,768,9-5-2022,7-51-14,16,depth_discrimination_stimuli/002072_2014-06-24_21-48-06_260595134347_rgbf000115-resize_0/002072_2014-06-24_21-48-06_260595134347_rgbf000115-resize_0-target.png,depth_discrimination_stimuli/002072_2014-06-24_21-48-06_260595134347_rgbf000115-resize_0/002072_2014-06-24_21-48-06_260595134347_rgbf000115-resize_0-target.png,1000.0,4.702,4.702,3.0,1876,1009,1000,998,999,507,,1000181,46,Woman
16,600778,DepthScenes,v2_duration_discrimination,discrim_jsons/Discrim1000_randls_69_rotated.json,http://54.235.29.9/FacialAge/BNav_EC2/DepthDuration/v2_depth_discrimination_MTurk/v2_DepthDiscrim_HTML.html#59,59,1366,625,1366,768,9-5-2022,7-51-14,17,depth_discrimination_stimuli/003423_2014-05-21_10-23-26_094959634447_rgbf002665-resize_2/003423_2014-05-21_10-23-26_094959634447_rgbf002665-resize_2-target.png,depth_discrimination_stimuli/002905_2014-06-03_18-04-43_094959634447_rgbf000151-resize_2/002905_2014-06-03_18-04-43_094959634447_rgbf000151-resize_2-target.png,1000.0,3.2575,2.0295,1.0,1908,1013,1007,983,1003,500,,1000181,46,Woman
17,600778,DepthScenes,v2_duration_discrimination,discrim_jsons/Discrim1000_randls_69_rotated.json,http://54.235.29.9/FacialAge/BNav_EC2/DepthDuration/v2_depth_discrimination_MTurk/v2_DepthDiscrim_HTML.html#59,59,1366,625,1366,768,9-5-2022,7-51-14,18,depth_discrimination_stimuli/002340_2014-06-28_20-05-46_260595134347_rgbf000113-resize_0/002340_2014-06-28_20-05-46_260595134347_rgbf000113-resize_0-target.png,depth_discrimination_stimuli/001016_2014-06-09_16-16-10_260595134347_rgbf000112-resize_5/001016_2014-06-09_16-16-10_260595134347_rgbf000112-resize_5-target.png,1000.0,2.4735,1.6565,1.0,1860,1003,998,1000,1005,500,,1000181,46,Woman
18,600778,DepthScenes,v2_duration_discrimination,discrim_jsons/Discrim1000_randls_69_rotated.json,http://54.235.29.9/FacialAge/BNav_EC2/DepthDuration/v2_depth_discrimination_MTurk/v2_DepthDiscrim_HTML.html#59,59,1366,625,1366,768,9-5-2022,7-51-14,19,depth_discrimination_stimuli/002414_2014-06-28_20-24-58_260595134347_rgbf000067-resize_4/002414_2014-06-28_20-24-58_260595134347_rgbf000067-resize_4-target.png,depth_discrimination_stimuli/000773_2014-06-08_22-24-54_260595134347_rgbf000093-resize_1/000773_2014-06-08_22-24-54_260595134347_rgbf000093-resize_1-target.png,1000.0,4.363,4.973,1.0,2758,1004,1002,1000,1006,495,,1000181,46,Woman
19,600778,DepthScenes,v2_duration_discrimination,discrim_jsons/Discrim1000_randls_69_rotated.json,http://54.235.29.9/FacialAge/BNav_EC2/DepthDuration/v2_depth_discrimination_MTurk/v2_DepthDiscrim_HTML.html#59,59,1366,625,1366,768,9-5-2022,7-51-14,20,depth_discrimination_stimuli/000483_2014-06-09_20-41-45_260595134347_rgbf000116-resize_4/000483_2014-06-09_20-41-45_260595134347_rgbf000116-resize_4-target.png,depth_discrimination_stimuli/000469_2014-06-09_19-42-10_260595134347_rgbf000081-resize_1/000469_2014-06-09_19-42-10_260595134347_rgbf000081-resize_1-target.png,1000.0,1.337,1.652,1.0,1833,1011,996,1004,994,498,,1000181,46,Woman
20,600778,DepthScenes,v2_duration_discrimination,discrim_jsons/Discrim1000_randls_69_rotated.json,http://54.235.29.9/FacialAge/BNav_EC2/DepthDuration/v2_depth_discrimination_MTurk/v2_DepthDiscrim_HTML.html#59,59,1366,625,1366,768,9-5-2022,7-51-14,21,depth_discrimination_stimuli/003079_2014-06-15_15-18-20_094959634447_rgbf000152-resize_8/003079_2014-06-15_15-18-20_094959634447_rgbf000152-resize_8-target.png,depth_discrimination_stimuli/000506_2014-06-08_23-21-00_260595134347_rgbf000070-resize_7/000506_2014-06-08_23-21-00_260595134347_rgbf000070-resize_7-target.png,1000.0,2.8775,4.0585,1.0,1921,1002,1012,1000,998,500,,1000181,46,Woman
21,600778,DepthScenes,v2_duration_discrimination,discrim_jsons/Discrim1000_randls_69_rotated.json,http://54.235.29.9/FacialAge/BNav_EC2/DepthDuration/v2_depth_discrimination_MTurk/v2_DepthDiscrim_HTML.html#59,59,1366,625,1366,768,9-5-2022,7-51-14,22,depth_discrimination_stimuli/000457_2014-06-08_16-52-43_260595134347_rgbf000199-resize_1/000457_2014-06-08_16-52-43_260595134347_rgbf000199-resize_1-target.png,depth_discrimination_stimuli/000929_2014-06-09_16-33-19_260595134347_rgbf000139-resize_0/000929_2014-06-09_16-33-19_260595134347_rgbf000139-resize_0-target.png,1000.0,3.6489999999999996,2.8680000000000003,1.0,1785,1016,997,1000,997,494,,1000181,46,Woman
22,600778,DepthScenes,v2_duration_discrimination,discrim_jsons/Discrim1000_randls_69_rotated.json,http://54.235.29.9/FacialAge/BNav_EC2/DepthDuration/v2_depth_discrimination_MTurk/v2_DepthDiscrim_HTML.html#59,59,1366,625,1366,768,9-5-2022,7-51-14,23,depth_discrimination_stimuli/002103_2014-06-25_20-00-40_260595134347_rgbf000049-resize_0/002103_2014-06-25_20-00-40_260595134347_rgbf000049-resize_0-target.png,depth_discrimination_stimuli/002039_2014-06-24_20-22-38_260595134347_rgbf000084-resize_1/002039_2014-06-24_20-22-38_260595134347_rgbf000084-resize_1-target.png,1000.0,4.105,4.408,0.0,1935,1008,1002,995,999,496,,1000181,46,Woman
23,600778,DepthScenes,v2_duration_discrimination,discrim_jsons/Discrim1000_randls_69_rotated.json,http://54.235.29.9/FacialAge/BNav_EC2/DepthDuration/v2_depth_discrimination_MTurk/v2_DepthDiscrim_HTML.html#59,59,1366,625,1366,768,9-5-2022,7-51-14,24,depth_discrimination_stimuli/003338_2014-05-20_11-01-23_094959634447_rgbf000051-resize_6/003338_2014-05-20_11-01-23_094959634447_rgbf000051-resize_6-target.png,depth_discrimination_stimuli/002509_2014-06-24_13-19-22_094959634447_rgbf000077-resize_0/002509_2014-06-24_13-19-22_094959634447_rgbf000077-resize_0-target.png,1000.0,1.693,1.3065,1.0,1849,1002,1012,1000,998,491,,1000181,46,Woman
24,600778,DepthScenes,v2_duration_discrimination,discrim_jsons/Discrim1000_randls_69_rotated.json,http://54.235.29.9/FacialAge/BNav_EC2/DepthDuration/v2_depth_discrimination_MTurk/v2_DepthDiscrim_HTML.html#59,59,1366,625,1366,768,9-5-2022,7-51-14,25,depth_discrimination_stimuli/002344_2014-06-28_20-06-29_260595134347_rgbf000030-resize_1/002344_2014-06-28_20-06-29_260595134347_rgbf000030-resize_1-target.png,depth_discrimination_stimuli/002725_2014-06-22_11-47-51_094959634447_rgbf000070-resize_1/002725_2014-06-22_11-47-51_094959634447_rgbf000070-resize_1-target.png,1000.0,1.5795,2.195,0.0,1825,1007,1005,993,1001,495,,1000181,46,Woman
25,600778,DepthScenes,v2_duration_discrimination,discrim_jsons/Discrim1000_randls_69_rotated.json,http://54.235.29.9/FacialAge/BNav_EC2/DepthDuration/v2_depth_discrimination_MTurk/v2_DepthDiscrim_HTML.html#59,59,1366,625,1366,768,9-5-2022,7-51-14,26,depth_discrimination_stimuli/001170_2014-06-17_15-43-44_260595134347_rgbf000096-resize_6/001170_2014-06-17_15-43-44_260595134347_rgbf000096-resize_6-target.png,depth_discrimination_stimuli/001170_2014-06-17_15-43-44_260595134347_rgbf000096-resize_6/001170_2014-06-17_15-43-44_260595134347_rgbf000096-resize_6-target.png,1000.0,1.1909999999999998,1.1909999999999998,3.0,1968,1009,994,1004,1004,501,,1000181,46,Woman
26,600778,DepthScenes,v2_duration_discrimination,discrim_jsons/Discrim1000_randls_69_rotated.json,http://54.235.29.9/FacialAge/BNav_EC2/DepthDuration/v2_depth_discrimination_MTurk/v2_DepthDiscrim_HTML.html#59,59,1366,625,1366,768,9-5-2022,7-51-14,27,depth_discrimination_stimuli/000665_2014-06-09_20-42-35_260595134347_rgbf000110-resize_1/000665_2014-06-09_20-42-35_260595134347_rgbf000110-resize_1-target.png,depth_discrimination_stimuli/001150_2014-06-17_15-27-34_260595134347_rgbf000108-resize_2/001150_2014-06-17_15-27-34_260595134347_rgbf000108-resize_2-target.png,1000.0,3.057,4.0325,0.0,1916,1006,996,1002,1014,495,,1000181,46,Woman
27,600778,DepthScenes,v2_duration_discrimination,discrim_jsons/Discrim1000_randls_69_rotated.json,http://54.235.29.9/FacialAge/BNav_EC2/DepthDuration/v2_depth_discrimination_MTurk/v2_DepthDiscrim_HTML.html#59,59,1366,625,1366,768,9-5-2022,7-51-14,28,depth_discrimination_stimuli/002678_2014-06-13_16-15-32_094959634447_rgbf000151-resize_6/002678_2014-06-13_16-15-32_094959634447_rgbf000151-resize_6-target.png,depth_discrimination_stimuli/000368_2014-06-09_15-53-01_260595134347_rgbf000155-resize_2/000368_2014-06-09_15-53-01_260595134347_rgbf000155-resize_2-target.png,1000.0,2.1830000000000003,2.4859999999999998,0.0,1972,1012,996,1002,1001,500,,1000181,46,Woman
28,600778,DepthScenes,v2_duration_discrimination,discrim_jsons/Discrim1000_randls_69_rotated.json,http://54.235.29.9/FacialAge/BNav_EC2/DepthDuration/v2_depth_discrimination_MTurk/v2_DepthDiscrim_HTML.html#59,59,1366,625,1366,768,9-5-2022,7-51-14,29,depth_discrimination_stimuli/001392_2014-06-19_16-07-59_260595134347_rgbf000046-resize_1/001392_2014-06-19_16-07-59_260595134347_rgbf000046-resize_1-target.png,depth_discrimination_stimuli/001570_2014-06-20_17-21-09_260595134347_rgbf000135-resize_4/001570_2014-06-20_17-21-09_260595134347_rgbf000135-resize_4-target.png,1000.0,4.135,4.467,0.0,1593,1001,1001,1005,993,503,,1000181,46,Woman
29,600778,DepthScenes,v2_duration_discrimination,discrim_jsons/Discrim1000_randls_69_rotated.json,http://54.235.29.9/FacialAge/BNav_EC2/DepthDuration/v2_depth_discrimination_MTurk/v2_DepthDiscrim_HTML.html#59,59,1366,625,1366,768,9-5-2022,7-51-14,30,depth_discrimination_stimuli/003228_2014-05-14_13-42-35_094959634447_rgbf000101-resize_1/003228_2014-05-14_13-42-35_094959634447_rgbf000101-resize_1-target.png,depth_discrimination_stimuli/002600_2014-06-24_14-27-04_094959634447_rgbf000074-resize_2/002600_2014-06-24_14-27-04_094959634447_rgbf000074-resize_2-target.png,1000.0,1.9680000000000002,2.7575,0.0,1939,1016,1000,997,1001,488,,1000181,46,Woman
30,600778,DepthScenes,v2_duration_discrimination,discrim_jsons/Discrim1000_randls_69_rotated.json,http://54.235.29.9/FacialAge/BNav_EC2/DepthDuration/v2_depth_discrimination_MTurk/v2_DepthDiscrim_HTML.html#59,59,1366,625,1366,768,9-5-2022,7-51-14,31,depth_discrimination_stimuli/001214_2014-06-17_16-13-55_260595134347_rgbf000111-resize_0/001214_2014-06-17_16-13-55_260595134347_rgbf000111-resize_0-target.png,depth_discrimination_stimuli/000810_2014-06-08_17-20-01_260595134347_rgbf000105-resize_0/000810_2014-06-08_17-20-01_260595134347_rgbf000105-resize_0-target.png,1000.0,2.6505,1.4865,0.0,2171,1012,1000,999,997,505,,1000181,46,Woman
31,600778,DepthScenes,v2_duration_discrimination,discrim_jsons/Discrim1000_randls_69_rotated.json,http://54.235.29.9/FacialAge/BNav_EC2/DepthDuration/v2_depth_discrimination_MTurk/v2_DepthDiscrim_HTML.html#59,59,1366,625,1366,768,9-5-2022,7-51-14,32,depth_discrimination_stimuli/000556_2014-06-09_22-42-56_260595134347_rgbf000214-resize_1/000556_2014-06-09_22-42-56_260595134347_rgbf000214-resize_1-target.png,depth_discrimination_stimuli/001158_2014-06-17_15-32-16_260595134347_rgbf000138-resize_2/001158_2014-06-17_15-32-16_260595134347_rgbf000138-resize_2-target.png,1000.0,4.8415,4.5315,0.0,1830,1004,999,999,999,511,,1000181,46,Woman
32,600778,DepthScenes,v2_duration_discrimination,discrim_jsons/Discrim1000_randls_69_rotated.json,http://54.235.29.9/FacialAge/BNav_EC2/DepthDuration/v2_depth_discrimination_MTurk/v2_DepthDiscrim_HTML.html#59,59,1366,625,1366,768,9-5-2022,7-51-14,33,depth_discrimination_stimuli/003010_2014-06-15_12-54-35_094959634447_rgbf000112-resize_0/003010_2014-06-15_12-54-35_094959634447_rgbf000112-resize_0-target.png,depth_discrimination_stimuli/001810_2014-06-26_20-51-35_260595134347_rgbf000040-resize_3/001810_2014-06-26_20-51-35_260595134347_rgbf000040-resize_3-target.png,1000.0,3.1185,2.2525,1.0,2412,1011,997,1000,997,502,,1000181,46,Woman
33,600778,DepthScenes,v2_duration_discrimination,discrim_jsons/Discrim1000_randls_69_rotated.json,http://54.235.29.9/FacialAge/BNav_EC2/DepthDuration/v2_depth_discrimination_MTurk/v2_DepthDiscrim_HTML.html#59,59,1366,625,1366,768,9-5-2022,7-51-14,34,depth_discrimination_stimuli/002568_2014-06-24_13-59-21_094959634447_rgbf000062-resize_4/002568_2014-06-24_13-59-21_094959634447_rgbf000062-resize_4-target.png,depth_discrimination_stimuli/003492_2014-05-21_15-50-55_094959634447_rgbf000828-resize_1/003492_2014-05-21_15-50-55_094959634447_rgbf000828-resize_1-target.png,1000.0,3.015,4.06875,0.0,1931,1003,1002,1011,988,497,,1000181,46,Woman
34,600778,DepthScenes,v2_duration_discrimination,discrim_jsons/Discrim1000_randls_69_rotated.json,http://54.235.29.9/FacialAge/BNav_EC2/DepthDuration/v2_depth_discrimination_MTurk/v2_DepthDiscrim_HTML.html#59,59,1366,625,1366,768,9-5-2022,7-51-14,35,depth_discrimination_stimuli/001540_2014-06-20_17-01-05_260595134347_rgbf000086-resize_2/001540_2014-06-20_17-01-05_260595134347_rgbf000086-resize_2-target.png,depth_discrimination_stimuli/001540_2014-06-20_17-01-05_260595134347_rgbf000086-resize_2/001540_2014-06-20_17-01-05_260595134347_rgbf000086-resize_2-target.png,1000.0,1.459,1.459,3.0,2010,1016,991,1006,992,499,,1000181,46,Woman
35,600778,DepthScenes,v2_duration_discrimination,discrim_jsons/Discrim1000_randls_69_rotated.json,http://54.235.29.9/FacialAge/BNav_EC2/DepthDuration/v2_depth_discrimination_MTurk/v2_DepthDiscrim_HTML.html#59,59,1366,625,1366,768,9-5-2022,7-51-14,36,depth_discrimination_stimuli/000854_2014-06-09_19-43-13_260595134347_rgbf000066-resize_0/000854_2014-06-09_19-43-13_260595134347_rgbf000066-resize_0-target.png,depth_discrimination_stimuli/000758_2014-06-08_22-05-08_260595134347_rgbf000085-resize_0/000758_2014-06-08_22-05-08_260595134347_rgbf000085-resize_0-target.png,1000.0,3.068,3.3810000000000002,0.0,1966,1006,1004,993,1003,499,,1000181,46,Woman
36,600778,DepthScenes,v2_duration_discrimination,discrim_jsons/Discrim1000_randls_69_rotated.json,http://54.235.29.9/FacialAge/BNav_EC2/DepthDuration/v2_depth_discrimination_MTurk/v2_DepthDiscrim_HTML.html#59,59,1366,625,1366,768,9-5-2022,7-51-14,37,depth_discrimination_stimuli/000109_2014-05-14_23-41-52_260595134347_rgbf000035-resize_9/000109_2014-05-14_23-41-52_260595134347_rgbf000035-resize_9-target.png,depth_discrimination_stimuli/000470_2014-06-09_19-42-40_260595134347_rgbf000094-resize_1/000470_2014-06-09_19-42-40_260595134347_rgbf000094-resize_1-target.png,1000.0,1.3545,1.831,1.0,1879,1013,990,1009,990,500,,1000181,46,Woman
37,600778,DepthScenes,v2_duration_discrimination,discrim_jsons/Discrim1000_randls_69_rotated.json,http://54.235.29.9/FacialAge/BNav_EC2/DepthDuration/v2_depth_discrimination_MTurk/v2_DepthDiscrim_HTML.html#59,59,1366,625,1366,768,9-5-2022,7-51-14,38,depth_discrimination_stimuli/002444_2014-06-28_20-32-08_260595134347_rgbf000027-resize_0/002444_2014-06-28_20-32-08_260595134347_rgbf000027-resize_0-target.png,depth_discrimination_stimuli/000436_2014-06-09_22-25-11_260595134347_rgbf000137-resize_1/000436_2014-06-09_22-25-11_260595134347_rgbf000137-resize_1-target.png,1000.0,4.388999999999999,4.0705,1.0,1899,1001,1012,990,1008,489,,1000181,46,Woman
38,600778,DepthScenes,v2_duration_discrimination,discrim_jsons/Discrim1000_randls_69_rotated.json,http://54.235.29.9/FacialAge/BNav_EC2/DepthDuration/v2_depth_discrimination_MTurk/v2_DepthDiscrim_HTML.html#59,59,1366,625,1366,768,9-5-2022,7-51-14,39,depth_discrimination_stimuli/001136_2014-06-17_15-19-41_260595134347_rgbf000076-resize_3/001136_2014-06-17_15-19-41_260595134347_rgbf000076-resize_3-target.png,depth_discrimination_stimuli/001164_2014-06-17_15-35-46_260595134347_rgbf000085-resize_3/001164_2014-06-17_15-35-46_260595134347_rgbf000085-resize_3-target.png,1000.0,1.8655,2.354,1.0,1969,1012,998,1001,997,494,,1000181,46,Woman
39,600778,DepthScenes,v2_duration_discrimination,discrim_jsons/Discrim1000_randls_69_rotated.json,http://54.235.29.9/FacialAge/BNav_EC2/DepthDuration/v2_depth_discrimination_MTurk/v2_DepthDiscrim_HTML.html#59,59,1366,625,1366,768,9-5-2022,7-51-14,40,depth_discrimination_stimuli/001650_2014-06-20_12-09-00_260595134347_rgbf000087-resize_3/001650_2014-06-20_12-09-00_260595134347_rgbf000087-resize_3-target.png,depth_discrimination_stimuli/000682_2014-06-08_23-14-58_260595134347_rgbf000041-resize_5/000682_2014-06-08_23-14-58_260595134347_rgbf000041-resize_5-target.png,1000.0,1.9505,2.7239999999999998,0.0,1883,1010,994,996,1002,510,,1000181,46,Woman
40,600778,DepthScenes,v2_duration_discrimination,discrim_jsons/Discrim1000_randls_69_rotated.json,http://54.235.29.9/FacialAge/BNav_EC2/DepthDuration/v2_depth_discrimination_MTurk/v2_DepthDiscrim_HTML.html#59,59,1366,625,1366,768,9-5-2022,7-51-14,41,depth_discrimination_stimuli/000549_2014-06-08_22-10-24_260595134347_rgbf000247-resize_3/000549_2014-06-08_22-10-24_260595134347_rgbf000247-resize_3-target.png,depth_discrimination_stimuli/001055_2014-06-08_18-45-35_260595134347_rgbf000111-resize_4/001055_2014-06-08_18-45-35_260595134347_rgbf000111-resize_4-target.png,1000.0,1.841,2.4290000000000003,0.0,1821,1026,974,1014,995,506,,1000181,46,Woman
41,600778,DepthScenes,v2_duration_discrimination,discrim_jsons/Discrim1000_randls_69_rotated.json,http://54.235.29.9/FacialAge/BNav_EC2/DepthDuration/v2_depth_discrimination_MTurk/v2_DepthDiscrim_HTML.html#59,59,1366,625,1366,768,9-5-2022,7-51-14,42,depth_discrimination_stimuli/002209_2014-06-28_18-36-10_260595134347_rgbf000051-resize_1/002209_2014-06-28_18-36-10_260595134347_rgbf000051-resize_1-target.png,depth_discrimination_stimuli/002763_2014-06-22_19-13-10_094959634447_rgbf000075-resize_4/002763_2014-06-22_19-13-10_094959634447_rgbf000075-resize_4-target.png,1000.0,2.057,1.68375,1.0,2259,1015,999,999,999,492,,1000181,46,Woman
42,600778,DepthScenes,v2_duration_discrimination,discrim_jsons/Discrim1000_randls_69_rotated.json,http://54.235.29.9/FacialAge/BNav_EC2/DepthDuration/v2_depth_discrimination_MTurk/v2_DepthDiscrim_HTML.html#59,59,1366,625,1366,768,9-5-2022,7-51-14,43,depth_discrimination_stimuli/001032_2014-06-08_13-23-17_260595134347_rgbf000021-resize_3/001032_2014-06-08_13-23-17_260595134347_rgbf000021-resize_3-target.png,depth_discrimination_stimuli/001059_2014-06-08_21-53-27_260595134347_rgbf000061-resize_4/001059_2014-06-08_21-53-27_260595134347_rgbf000061-resize_4-target.png,1000.0,3.2725,2.4185,0.0,1809,1002,1007,993,997,502,,1000181,46,Woman
43,600778,DepthScenes,v2_duration_discrimination,discrim_jsons/Discrim1000_randls_69_rotated.json,http://54.235.29.9/FacialAge/BNav_EC2/DepthDuration/v2_depth_discrimination_MTurk/v2_DepthDiscrim_HTML.html#59,59,1366,625,1366,768,9-5-2022,7-51-14,44,depth_discrimination_stimuli/000734_2014-06-08_17-39-11_260595134347_rgbf000128-resize_2/000734_2014-06-08_17-39-11_260595134347_rgbf000128-resize_2-target.png,depth_discrimination_stimuli/000739_2014-06-08_18-45-58_260595134347_rgbf000068-resize_1/000739_2014-06-08_18-45-58_260595134347_rgbf000068-resize_1-target.png,1000.0,4.098,3.534,0.0,1528,1025,998,999,999,498,,1000181,46,Woman
44,600778,DepthScenes,v2_duration_discrimination,discrim_jsons/Discrim1000_randls_69_rotated.json,http://54.235.29.9/FacialAge/BNav_EC2/DepthDuration/v2_depth_discrimination_MTurk/v2_DepthDiscrim_HTML.html#59,59,1366,625,1366,768,9-5-2022,7-51-14,45,depth_discrimination_stimuli/002199_2014-06-28_18-33-56_260595134347_rgbf000074-resize_0/002199_2014-06-28_18-33-56_260595134347_rgbf000074-resize_0-target.png,depth_discrimination_stimuli/001056_2014-06-08_18-46-44_260595134347_rgbf000068-resize_0/001056_2014-06-08_18-46-44_260595134347_rgbf000068-resize_0-target.png,1000.0,1.996,2.6625,0.0,1900,1002,1014,999,992,503,,1000181,46,Woman
45,600778,DepthScenes,v2_duration_discrimination,discrim_jsons/Discrim1000_randls_69_rotated.json,http://54.235.29.9/FacialAge/BNav_EC2/DepthDuration/v2_depth_discrimination_MTurk/v2_DepthDiscrim_HTML.html#59,59,1366,625,1366,768,9-5-2022,7-51-14,46,depth_discrimination_stimuli/003490_2014-05-21_15-50-11_094959634447_rgbf000101-resize_3/003490_2014-05-21_15-50-11_094959634447_rgbf000101-resize_3-target.png,depth_discrimination_stimuli/001175_2014-06-17_15-45-55_260595134347_rgbf000129-resize_4/001175_2014-06-17_15-45-55_260595134347_rgbf000129-resize_4-target.png,1000.0,3.6445,4.255,0.0,1955,1003,999,1009,992,511,,1000181,46,Woman
46,600778,DepthScenes,v2_duration_discrimination,discrim_jsons/Discrim1000_randls_69_rotated.json,http://54.235.29.9/FacialAge/BNav_EC2/DepthDuration/v2_depth_discrimination_MTurk/v2_DepthDiscrim_HTML.html#59,59,1366,625,1366,768,9-5-2022,7-51-14,47,depth_discrimination_stimuli/002657_2014-06-13_15-29-54_094959634447_rgbf000150-resize_1/002657_2014-06-13_15-29-54_094959634447_rgbf000150-resize_1-target.png,depth_discrimination_stimuli/002375_2014-06-28_20-13-44_260595134347_rgbf000032-resize_1/002375_2014-06-28_20-13-44_260595134347_rgbf000032-resize_1-target.png,1000.0,4.919,4.0175,0.0,1851,1008,1000,998,1005,499,,1000181,46,Woman
47,600778,DepthScenes,v2_duration_discrimination,discrim_jsons/Discrim1000_randls_69_rotated.json,http://54.235.29.9/FacialAge/BNav_EC2/DepthDuration/v2_depth_discrimination_MTurk/v2_DepthDiscrim_HTML.html#59,59,1366,625,1366,768,9-5-2022,7-51-14,48,depth_discrimination_stimuli/002425_2014-06-28_20-27-29_260595134347_rgbf000031-resize_8/002425_2014-06-28_20-27-29_260595134347_rgbf000031-resize_8-target.png,depth_discrimination_stimuli/000642_2014-06-08_16-59-25_260595134347_rgbf000098-resize_2/000642_2014-06-08_16-59-25_260595134347_rgbf000098-resize_2-target.png,1000.0,3.8960000000000004,2.8815,1.0,1976,1008,1002,1001,989,509,,1000181,46,Woman
48,600778,DepthScenes,v2_duration_discrimination,discrim_jsons/Discrim1000_randls_69_rotated.json,http://54.235.29.9/FacialAge/BNav_EC2/DepthDuration/v2_depth_discrimination_MTurk/v2_DepthDiscrim_HTML.html#59,59,1366,625,1366,768,9-5-2022,7-51-14,49,depth_discrimination_stimuli/001450_2014-06-19_17-02-03_260595134347_rgbf000203-resize_4/001450_2014-06-19_17-02-03_260595134347_rgbf000203-resize_4-target.png,depth_discrimination_stimuli/001449_2014-06-19_17-01-27_260595134347_rgbf000116-resize_2/001449_2014-06-19_17-01-27_260595134347_rgbf000116-resize_2-target.png,1000.0,4.0106666666667,3.452,1.0,2116,1003,1002,997,1012,491,,1000181,46,Woman
49,600778,DepthScenes,v2_duration_discrimination,discrim_jsons/Discrim1000_randls_69_rotated.json,http://54.235.29.9/FacialAge/BNav_EC2/DepthDuration/v2_depth_discrimination_MTurk/v2_DepthDiscrim_HTML.html#59,59,1366,625,1366,768,9-5-2022,7-51-14,50,depth_discrimination_stimuli/000709_2014-06-08_13-51-55_260595134347_rgbf000068-resize_3/000709_2014-06-08_13-51-55_260595134347_rgbf000068-resize_3-target.png,depth_discrimination_stimuli/002057_2014-06-24_21-00-13_260595134347_rgbf000120-resize_1/002057_2014-06-24_21-00-13_260595134347_rgbf000120-resize_1-target.png,1000.0,1.8030000000000002,2.967,0.0,1894,1015,990,1006,1005,485,,1000181,46,Woman
50,600778,DepthScenes,v2_duration_discrimination,discrim_jsons/Discrim1000_randls_69_rotated.json,http://54.235.29.9/FacialAge/BNav_EC2/DepthDuration/v2_depth_discrimination_MTurk/v2_DepthDiscrim_HTML.html#59,59,1366,625,1366,768,9-5-2022,7-51-14,51,depth_discrimination_stimuli/002949_2014-06-26_15-57-42_094959634447_rgbf000079-resize_1/002949_2014-06-26_15-57-42_094959634447_rgbf000079-resize_1-target.png,depth_discrimination_stimuli/000522_2014-06-08_13-35-06_260595134347_rgbf000244-resize_1/000522_2014-06-08_13-35-06_260595134347_rgbf000244-resize_1-target.png,1000.0,1.8915,2.3715,1.0,1932,1002,998,1001,1011,490,,1000181,46,Woman
51,600778,DepthScenes,v2_duration_discrimination,discrim_jsons/Discrim1000_randls_69_rotated.json,http://54.235.29.9/FacialAge/BNav_EC2/DepthDuration/v2_depth_discrimination_MTurk/v2_DepthDiscrim_HTML.html#59,59,1366,625,1366,768,9-5-2022,7-51-14,52,depth_discrimination_stimuli/001222_2014-06-17_16-24-06_260595134347_rgbf000073-resize_0/001222_2014-06-17_16-24-06_260595134347_rgbf000073-resize_0-target.png,depth_discrimination_stimuli/001222_2014-06-17_16-24-06_260595134347_rgbf000073-resize_0/001222_2014-06-17_16-24-06_260595134347_rgbf000073-resize_0-target.png,1000.0,1.4385,1.4385,3.0,1590,1001,1014,999,999,495,,1000181,46,Woman
52,600778,DepthScenes,v2_duration_discrimination,discrim_jsons/Discrim1000_randls_69_rotated.json,http://54.235.29.9/FacialAge/BNav_EC2/DepthDuration/v2_depth_discrimination_MTurk/v2_DepthDiscrim_HTML.html#59,59,1366,625,1366,768,9-5-2022,7-51-14,53,depth_discrimination_stimuli/001235_2014-06-17_16-37-36_260595134347_rgbf000084-resize_4/001235_2014-06-17_16-37-36_260595134347_rgbf000084-resize_4-target.png,depth_discrimination_stimuli/000788_2014-06-08_22-34-36_260595134347_rgbf000131-resize_1/000788_2014-06-08_22-34-36_260595134347_rgbf000131-resize_1-target.png,1000.0,3.6605,3.359,0.0,1838,1016,1000,1000,998,488,,1000181,46,Woman
53,600778,DepthScenes,v2_duration_discrimination,discrim_jsons/Discrim1000_randls_69_rotated.json,http://54.235.29.9/FacialAge/BNav_EC2/DepthDuration/v2_depth_discrimination_MTurk/v2_DepthDiscrim_HTML.html#59,59,1366,625,1366,768,9-5-2022,7-51-14,54,depth_discrimination_stimuli/000191_2014-05-12_17-07-38_260595134347_rgbf000199-resize_0/000191_2014-05-12_17-07-38_260595134347_rgbf000199-resize_0-target.png,depth_discrimination_stimuli/000493_2014-06-09_21-01-18_260595134347_rgbf000196-resize_3/000493_2014-06-09_21-01-18_260595134347_rgbf000196-resize_3-target.png,1000.0,3.7995,3.44,1.0,2537,1012,991,1009,987,515,,1000181,46,Woman
54,600778,DepthScenes,v2_duration_discrimination,discrim_jsons/Discrim1000_randls_69_rotated.json,http://54.235.29.9/FacialAge/BNav_EC2/DepthDuration/v2_depth_discrimination_MTurk/v2_DepthDiscrim_HTML.html#59,59,1366,625,1366,768,9-5-2022,7-51-14,55,depth_discrimination_stimuli/000742_2014-06-08_18-48-09_260595134347_rgbf000164-resize_4/000742_2014-06-08_18-48-09_260595134347_rgbf000164-resize_4-target.png,depth_discrimination_stimuli/001066_2014-06-08_22-03-20_260595134347_rgbf000066-resize_4/001066_2014-06-08_22-03-20_260595134347_rgbf000066-resize_4-target.png,1000.0,4.632,4.2330000000000005,0.0,1997,1015,992,1000,998,495,,1000181,46,Woman
55,600778,DepthScenes,v2_duration_discrimination,discrim_jsons/Discrim1000_randls_69_rotated.json,http://54.235.29.9/FacialAge/BNav_EC2/DepthDuration/v2_depth_discrimination_MTurk/v2_DepthDiscrim_HTML.html#59,59,1366,625,1366,768,9-5-2022,7-51-14,56,depth_discrimination_stimuli/000677_2014-06-08_23-10-32_260595134347_rgbf000158-resize_6/000677_2014-06-08_23-10-32_260595134347_rgbf000158-resize_6-target.png,depth_discrimination_stimuli/001029_2014-06-08_13-17-57_260595134347_rgbf000065-resize_1/001029_2014-06-08_13-17-57_260595134347_rgbf000065-resize_1-target.png,1000.0,3.556,3.0835,1.0,2060,1017,998,999,999,503,,1000181,46,Woman
56,600778,DepthScenes,v2_duration_discrimination,discrim_jsons/Discrim1000_randls_69_rotated.json,http://54.235.29.9/FacialAge/BNav_EC2/DepthDuration/v2_depth_discrimination_MTurk/v2_DepthDiscrim_HTML.html#59,59,1366,625,1366,768,9-5-2022,7-51-14,57,depth_discrimination_stimuli/001584_2014-06-20_11-07-43_260595134347_rgbf000002-resize_1/001584_2014-06-20_11-07-43_260595134347_rgbf000002-resize_1-target.png,depth_discrimination_stimuli/003621_2014-05-23_18-06-08_094959634447_rgbf000101-resize_1/003621_2014-05-23_18-06-08_094959634447_rgbf000101-resize_1-target.png,1000.0,3.53,3.9835,0.0,2161,1002,1000,1010,999,496,,1000181,46,Woman
57,600778,DepthScenes,v2_duration_discrimination,discrim_jsons/Discrim1000_randls_69_rotated.json,http://54.235.29.9/FacialAge/BNav_EC2/DepthDuration/v2_depth_discrimination_MTurk/v2_DepthDiscrim_HTML.html#59,59,1366,625,1366,768,9-5-2022,7-51-14,58,depth_discrimination_stimuli/000943_2014-06-09_19-31-07_260595134347_rgbf000128-resize_1/000943_2014-06-09_19-31-07_260595134347_rgbf000128-resize_1-target.png,depth_discrimination_stimuli/003070_2014-06-15_14-58-27_094959634447_rgbf000150-resize_3/003070_2014-06-15_14-58-27_094959634447_rgbf000150-resize_3-target.png,1000.0,1.9765,2.9415,0.0,1761,1016,991,996,1001,501,,1000181,46,Woman
58,600778,DepthScenes,v2_duration_discrimination,discrim_jsons/Discrim1000_randls_69_rotated.json,http://54.235.29.9/FacialAge/BNav_EC2/DepthDuration/v2_depth_discrimination_MTurk/v2_DepthDiscrim_HTML.html#59,59,1366,625,1366,768,9-5-2022,7-51-14,59,depth_discrimination_stimuli/002467_2014-06-28_20-38-07_260595134347_rgbf000026-resize_2/002467_2014-06-28_20-38-07_260595134347_rgbf000026-resize_2-target.png,depth_discrimination_stimuli/002570_2014-06-24_13-59-54_094959634447_rgbf000059-resize_0/002570_2014-06-24_13-59-54_094959634447_rgbf000059-resize_0-target.png,1000.0,4.742,4.037,1.0,2508,1004,999,999,1007,504,,1000181,46,Woman
59,600778,DepthScenes,v2_duration_discrimination,discrim_jsons/Discrim1000_randls_69_rotated.json,http://54.235.29.9/FacialAge/BNav_EC2/DepthDuration/v2_depth_discrimination_MTurk/v2_DepthDiscrim_HTML.html#59,59,1366,625,1366,768,9-5-2022,7-51-14,60,depth_discrimination_stimuli/001100_2014-06-15_17-46-26_260595134347_rgbf000225-resize_2/001100_2014-06-15_17-46-26_260595134347_rgbf000225-resize_2-target.png,depth_discrimination_stimuli/002784_2014-06-22_19-26-30_094959634447_rgbf000083-resize_3/002784_2014-06-22_19-26-30_094959634447_rgbf000083-resize_3-target.png,1000.0,2.24,1.8046666666667,0.0,2738,1008,1000,996,1002,495,,1000181,46,Woman
60,600778,DepthScenes,v2_duration_discrimination,discrim_jsons/Discrim1000_randls_69_rotated.json,http://54.235.29.9/FacialAge/BNav_EC2/DepthDuration/v2_depth_discrimination_MTurk/v2_DepthDiscrim_HTML.html#59,59,1366,625,1366,768,9-5-2022,7-51-14,61,depth_discrimination_stimuli/001094_2014-06-15_17-36-00_260595134347_rgbf000205-resize_0/001094_2014-06-15_17-36-00_260595134347_rgbf000205-resize_0-target.png,depth_discrimination_stimuli/000692_2014-06-08_13-09-42_260595134347_rgbf000199-resize_2/000692_2014-06-08_13-09-42_260595134347_rgbf000199-resize_2-target.png,1000.0,4.2175,3.661,0.0,2357,1006,1001,1004,996,495,,1000181,46,Woman
61,600778,DepthScenes,v2_duration_discrimination,discrim_jsons/Discrim1000_randls_69_rotated.json,http://54.235.29.9/FacialAge/BNav_EC2/DepthDuration/v2_depth_discrimination_MTurk/v2_DepthDiscrim_HTML.html#59,59,1366,625,1366,768,9-5-2022,7-51-14,62,depth_discrimination_stimuli/002758_2014-06-22_19-11-20_094959634447_rgbf000128-resize_1/002758_2014-06-22_19-11-20_094959634447_rgbf000128-resize_1-target.png,depth_discrimination_stimuli/002630_2014-06-24_14-47-50_094959634447_rgbf000055-resize_1/002630_2014-06-24_14-47-50_094959634447_rgbf000055-resize_1-target.png,1000.0,2.555,3.0095,0.0,1852,1007,999,999,998,507,,1000181,46,Woman
62,600778,DepthScenes,v2_duration_discrimination,discrim_jsons/Discrim1000_randls_69_rotated.json,http://54.235.29.9/FacialAge/BNav_EC2/DepthDuration/v2_depth_discrimination_MTurk/v2_DepthDiscrim_HTML.html#59,59,1366,625,1366,768,9-5-2022,7-51-14,63,depth_discrimination_stimuli/000787_2014-06-08_22-33-53_260595134347_rgbf000175-resize_1/000787_2014-06-08_22-33-53_260595134347_rgbf000175-resize_1-target.png,depth_discrimination_stimuli/000787_2014-06-08_22-33-53_260595134347_rgbf000175-resize_1/000787_2014-06-08_22-33-53_260595134347_rgbf000175-resize_1-target.png,1000.0,4.784,4.784,1.0,2407,1004,1001,998,1003,506,,1000181,46,Woman
63,600778,DepthScenes,v2_duration_discrimination,discrim_jsons/Discrim1000_randls_69_rotated.json,http://54.235.29.9/FacialAge/BNav_EC2/DepthDuration/v2_depth_discrimination_MTurk/v2_DepthDiscrim_HTML.html#59,59,1366,625,1366,768,9-5-2022,7-51-14,64,depth_discrimination_stimuli/003083_2014-06-15_15-21-03_094959634447_rgbf000063-resize_1/003083_2014-06-15_15-21-03_094959634447_rgbf000063-resize_1-target.png,depth_discrimination_stimuli/000486_2014-06-09_20-47-20_260595134347_rgbf000143-resize_2/000486_2014-06-09_20-47-20_260595134347_rgbf000143-resize_2-target.png,1000.0,4.1405,4.8325,0.0,2129,1009,1004,991,1000,510,,1000181,46,Woman
64,600778,DepthScenes,v2_duration_discrimination,discrim_jsons/Discrim1000_randls_69_rotated.json,http://54.235.29.9/FacialAge/BNav_EC2/DepthDuration/v2_depth_discrimination_MTurk/v2_DepthDiscrim_HTML.html#59,59,1366,625,1366,768,9-5-2022,7-51-14,65,depth_discrimination_stimuli/002805_2014-06-22_19-54-03_094959634447_rgbf000079-resize_1/002805_2014-06-22_19-54-03_094959634447_rgbf000079-resize_1-target.png,depth_discrimination_stimuli/000906_2014-06-08_13-35-43_260595134347_rgbf000155-resize_1/000906_2014-06-08_13-35-43_260595134347_rgbf000155-resize_1-target.png,1000.0,3.1439999999999997,2.8489999999999998,0.0,5566,1002,1017,990,998,500,,1000181,46,Woman
65,600778,DepthScenes,v2_duration_discrimination,discrim_jsons/Discrim1000_randls_69_rotated.json,http://54.235.29.9/FacialAge/BNav_EC2/DepthDuration/v2_depth_discrimination_MTurk/v2_DepthDiscrim_HTML.html#59,59,1366,625,1366,768,9-5-2022,7-51-14,66,depth_discrimination_stimuli/001571_2014-06-20_17-21-32_260595134347_rgbf000089-resize_1/001571_2014-06-20_17-21-32_260595134347_rgbf000089-resize_1-target.png,depth_discrimination_stimuli/002272_2014-06-28_18-53-56_260595134347_rgbf000067-resize_2/002272_2014-06-28_18-53-56_260595134347_rgbf000067-resize_2-target.png,1000.0,1.86,1.138,0.0,3278,1003,1000,998,1000,505,,1000181,46,Woman
66,600778,DepthScenes,v2_duration_discrimination,discrim_jsons/Discrim1000_randls_69_rotated.json,http://54.235.29.9/FacialAge/BNav_EC2/DepthDuration/v2_depth_discrimination_MTurk/v2_DepthDiscrim_HTML.html#59,59,1366,625,1366,768,9-5-2022,7-51-14,67,depth_discrimination_stimuli/000866_2014-06-09_20-45-42_260595134347_rgbf000139-resize_1/000866_2014-06-09_20-45-42_260595134347_rgbf000139-resize_1-target.png,depth_discrimination_stimuli/002989_2014-06-15_12-25-03_094959634447_rgbf000150-resize_3/002989_2014-06-15_12-25-03_094959634447_rgbf000150-resize_3-target.png,1000.0,3.2155,4.1975,0.0,2141,1002,1014,996,1001,494,,1000181,46,Woman
67,600778,DepthScenes,v2_duration_discrimination,discrim_jsons/Discrim1000_randls_69_rotated.json,http://54.235.29.9/FacialAge/BNav_EC2/DepthDuration/v2_depth_discrimination_MTurk/v2_DepthDiscrim_HTML.html#59,59,1366,625,1366,768,9-5-2022,7-51-14,68,depth_discrimination_stimuli/001052_2014-06-08_18-24-54_260595134347_rgbf000130-resize_1/001052_2014-06-08_18-24-54_260595134347_rgbf000130-resize_1-target.png,depth_discrimination_stimuli/002988_2014-06-15_12-24-20_094959634447_rgbf000150-resize_1/002988_2014-06-15_12-24-20_094959634447_rgbf000150-resize_1-target.png,1000.0,4.1045,4.7669999999999995,3.0,1819,1015,998,997,1000,504,,1000181,46,Woman
68,600778,DepthScenes,v2_duration_discrimination,discrim_jsons/Discrim1000_randls_69_rotated.json,http://54.235.29.9/FacialAge/BNav_EC2/DepthDuration/v2_depth_discrimination_MTurk/v2_DepthDiscrim_HTML.html#59,59,1366,625,1366,768,9-5-2022,7-51-14,69,depth_discrimination_stimuli/003495_2014-05-21_16-01-51_094959634447_rgbf000100-resize_3/003495_2014-05-21_16-01-51_094959634447_rgbf000100-resize_3-target.png,depth_discrimination_stimuli/001244_2014-06-17_16-47-45_260595134347_rgbf000030-resize_4/001244_2014-06-17_16-47-45_260595134347_rgbf000030-resize_4-target.png,1000.0,1.6255,2.0425,1.0,2166,1009,999,998,999,510,,1000181,46,Woman
69,600778,DepthScenes,v2_duration_discrimination,discrim_jsons/Discrim1000_randls_69_rotated.json,http://54.235.29.9/FacialAge/BNav_EC2/DepthDuration/v2_depth_discrimination_MTurk/v2_DepthDiscrim_HTML.html#59,59,1366,625,1366,768,9-5-2022,7-51-14,70,depth_discrimination_stimuli/002136_2014-06-25_21-18-03_260595134347_rgbf000109-resize_3/002136_2014-06-25_21-18-03_260595134347_rgbf000109-resize_3-target.png,depth_discrimination_stimuli/002964_2014-06-08_17-46-11_094959634447_rgbf000091-resize_4/002964_2014-06-08_17-46-11_094959634447_rgbf000091-resize_4-target.png,1000.0,1.9569999999999999,1.6909999999999998,1.0,2297,1003,999,1013,984,503,,1000181,46,Woman
70,600778,DepthScenes,v2_duration_discrimination,discrim_jsons/Discrim1000_randls_69_rotated.json,http://54.235.29.9/FacialAge/BNav_EC2/DepthDuration/v2_depth_discrimination_MTurk/v2_DepthDiscrim_HTML.html#59,59,1366,625,1366,768,9-5-2022,7-51-14,71,depth_discrimination_stimuli/000375_2014-06-08_11-17-29_260595134347_rgbf000133-resize_2/000375_2014-06-08_11-17-29_260595134347_rgbf000133-resize_2-target.png,depth_discrimination_stimuli/000375_2014-06-08_11-17-29_260595134347_rgbf000133-resize_2/000375_2014-06-08_11-17-29_260595134347_rgbf000133-resize_2-target.png,1000.0,4.718,4.718,3.0,1861,1009,992,1014,994,502,,1000181,46,Woman
71,600778,DepthScenes,v2_duration_discrimination,discrim_jsons/Discrim1000_randls_69_rotated.json,http://54.235.29.9/FacialAge/BNav_EC2/DepthDuration/v2_depth_discrimination_MTurk/v2_DepthDiscrim_HTML.html#59,59,1366,625,1366,768,9-5-2022,7-51-14,72,depth_discrimination_stimuli/002660_2014-06-13_15-44-18_094959634447_rgbf001878-resize_2/002660_2014-06-13_15-44-18_094959634447_rgbf001878-resize_2-target.png,depth_discrimination_stimuli/002153_2014-06-25_21-27-18_260595134347_rgbf000038-resize_5/002153_2014-06-25_21-27-18_260595134347_rgbf000038-resize_5-target.png,1000.0,3.576,2.505,0.0,2021,1005,1001,994,1003,499,,1000181,46,Woman
72,600778,DepthScenes,v2_duration_discrimination,discrim_jsons/Discrim1000_randls_69_rotated.json,http://54.235.29.9/FacialAge/BNav_EC2/DepthDuration/v2_depth_discrimination_MTurk/v2_DepthDiscrim_HTML.html#59,59,1366,625,1366,768,9-5-2022,7-51-14,73,depth_discrimination_stimuli/000927_2014-06-09_16-32-30_260595134347_rgbf000123-resize_3/000927_2014-06-09_16-32-30_260595134347_rgbf000123-resize_3-target.png,depth_discrimination_stimuli/001110_2014-06-15_17-25-28_260595134347_rgbf000150-resize_1/001110_2014-06-15_17-25-28_260595134347_rgbf000150-resize_1-target.png,1000.0,2.6785,1.7115,1.0,2884,1012,1000,996,1001,498,,1000181,46,Woman
73,600778,DepthScenes,v2_duration_discrimination,discrim_jsons/Discrim1000_randls_69_rotated.json,http://54.235.29.9/FacialAge/BNav_EC2/DepthDuration/v2_depth_discrimination_MTurk/v2_DepthDiscrim_HTML.html#59,59,1366,625,1366,768,9-5-2022,7-51-14,74,depth_discrimination_stimuli/001516_2014-06-20_16-25-09_260595134347_rgbf000076-resize_2/001516_2014-06-20_16-25-09_260595134347_rgbf000076-resize_2-target.png,depth_discrimination_stimuli/002118_2014-06-25_20-32-08_260595134347_rgbf000078-resize_1/002118_2014-06-25_20-32-08_260595134347_rgbf000078-resize_1-target.png,1000.0,1.7445,2.6460000000000004,0.0,2174,1012,995,993,1003,498,,1000181,46,Woman
74,600778,DepthScenes,v2_duration_discrimination,discrim_jsons/Discrim1000_randls_69_rotated.json,http://54.235.29.9/FacialAge/BNav_EC2/DepthDuration/v2_depth_discrimination_MTurk/v2_DepthDiscrim_HTML.html#59,59,1366,625,1366,768,9-5-2022,7-51-14,75,depth_discrimination_stimuli/002995_2014-06-15_12-31-26_094959634447_rgbf000150-resize_1/002995_2014-06-15_12-31-26_094959634447_rgbf000150-resize_1-target.png,depth_discrimination_stimuli/002748_2014-06-22_19-07-22_094959634447_rgbf000078-resize_1/002748_2014-06-22_19-07-22_094959634447_rgbf000078-resize_1-target.png,1000.0,3.8360000000000003,4.6705,0.0,2190,1019,982,1015,992,500,,1000181,46,Woman
75,600778,DepthScenes,v2_duration_discrimination,discrim_jsons/Discrim1000_randls_69_rotated.json,http://54.235.29.9/FacialAge/BNav_EC2/DepthDuration/v2_depth_discrimination_MTurk/v2_DepthDiscrim_HTML.html#59,59,1366,625,1366,768,9-5-2022,7-51-14,76,depth_discrimination_stimuli/000103_2014-05-14_22-01-17_260595134347_rgbf000152-resize_5/000103_2014-05-14_22-01-17_260595134347_rgbf000152-resize_5-target.png,depth_discrimination_stimuli/001555_2014-06-20_17-12-10_260595134347_rgbf000065-resize_4/001555_2014-06-20_17-12-10_260595134347_rgbf000065-resize_4-target.png,1000.0,1.993,1.633,1.0,1895,1010,995,999,1001,496,,1000181,46,Woman
76,600778,DepthScenes,v2_duration_discrimination,discrim_jsons/Discrim1000_randls_69_rotated.json,http://54.235.29.9/FacialAge/BNav_EC2/DepthDuration/v2_depth_discrimination_MTurk/v2_DepthDiscrim_HTML.html#59,59,1366,625,1366,768,9-5-2022,7-51-14,77,depth_discrimination_stimuli/000635_2014-06-08_16-38-42_260595134347_rgbf000106-resize_1/000635_2014-06-08_16-38-42_260595134347_rgbf000106-resize_1-target.png,depth_discrimination_stimuli/002279_2014-06-28_18-55-32_260595134347_rgbf000040-resize_5/002279_2014-06-28_18-55-32_260595134347_rgbf000040-resize_5-target.png,1000.0,2.074,1.5043333333333,1.0,1778,1001,1010,1003,991,496,,1000181,46,Woman
77,600778,DepthScenes,v2_duration_discrimination,discrim_jsons/Discrim1000_randls_69_rotated.json,http://54.235.29.9/FacialAge/BNav_EC2/DepthDuration/v2_depth_discrimination_MTurk/v2_DepthDiscrim_HTML.html#59,59,1366,625,1366,768,9-5-2022,7-51-14,78,depth_discrimination_stimuli/001617_2014-06-20_11-35-32_260595134347_rgbf000066-resize_1/001617_2014-06-20_11-35-32_260595134347_rgbf000066-resize_1-target.png,depth_discrimination_stimuli/001806_2014-06-26_20-50-20_260595134347_rgbf000091-resize_1/001806_2014-06-26_20-50-20_260595134347_rgbf000091-resize_1-target.png,1000.0,3.7910000000000004,2.7305,1.0,2449,1002,1006,1007,988,498,,1000181,46,Woman
78,600778,DepthScenes,v2_duration_discrimination,discrim_jsons/Discrim1000_randls_69_rotated.json,http://54.235.29.9/FacialAge/BNav_EC2/DepthDuration/v2_depth_discrimination_MTurk/v2_DepthDiscrim_HTML.html#59,59,1366,625,1366,768,9-5-2022,7-51-14,79,depth_discrimination_stimuli/002323_2014-06-28_20-01-54_260595134347_rgbf000051-resize_4/002323_2014-06-28_20-01-54_260595134347_rgbf000051-resize_4-target.png,depth_discrimination_stimuli/000917_2014-06-09_22-45-29_260595134347_rgbf000149-resize_3/000917_2014-06-09_22-45-29_260595134347_rgbf000149-resize_3-target.png,1000.0,3.7310000000000003,4.1865,0.0,3133,1004,1000,998,999,508,,1000181,46,Woman
79,600778,DepthScenes,v2_duration_discrimination,discrim_jsons/Discrim1000_randls_69_rotated.json,http://54.235.29.9/FacialAge/BNav_EC2/DepthDuration/v2_depth_discrimination_MTurk/v2_DepthDiscrim_HTML.html#59,59,1366,625,1366,768,9-5-2022,7-51-14,80,depth_discrimination_stimuli/000569_2014-06-09_22-51-47_260595134347_rgbf000141-resize_3/000569_2014-06-09_22-51-47_260595134347_rgbf000141-resize_3-target.png,depth_discrimination_stimuli/000569_2014-06-09_22-51-47_260595134347_rgbf000141-resize_3/000569_2014-06-09_22-51-47_260595134347_rgbf000141-resize_3-target.png,1000.0,4.512,4.512,3.0,1925,1002,999,1014,999,488,,1000181,46,Woman
80,600778,DepthScenes,v2_duration_discrimination,discrim_jsons/Discrim1000_randls_69_rotated.json,http://54.235.29.9/FacialAge/BNav_EC2/DepthDuration/v2_depth_discrimination_MTurk/v2_DepthDiscrim_HTML.html#59,59,1366,625,1366,768,9-5-2022,7-51-14,81,depth_discrimination_stimuli/001828_2014-06-26_21-40-03_260595134347_rgbf000024-resize_0/001828_2014-06-26_21-40-03_260595134347_rgbf000024-resize_0-target.png,depth_discrimination_stimuli/000009_2014-05-26_14-32-05_260595134347_rgbf000034-resize_3/000009_2014-05-26_14-32-05_260595134347_rgbf000034-resize_3-target.png,1000.0,4.8260000000000005,3.8715,0.0,1844,1011,1002,998,996,497,,1000181,46,Woman
81,600778,DepthScenes,v2_duration_discrimination,discrim_jsons/Discrim1000_randls_69_rotated.json,http://54.235.29.9/FacialAge/BNav_EC2/DepthDuration/v2_depth_discrimination_MTurk/v2_DepthDiscrim_HTML.html#59,59,1366,625,1366,768,9-5-2022,7-51-14,82,depth_discrimination_stimuli/001815_2014-06-26_20-52-55_260595134347_rgbf000020-resize_0/001815_2014-06-26_20-52-55_260595134347_rgbf000020-resize_0-target.png,depth_discrimination_stimuli/001808_2014-06-26_20-50-58_260595134347_rgbf000029-resize_1/001808_2014-06-26_20-50-58_260595134347_rgbf000029-resize_1-target.png,1000.0,3.3865,4.249,3.0,1805,1007,1007,992,1002,493,,1000181,46,Woman
82,600778,DepthScenes,v2_duration_discrimination,discrim_jsons/Discrim1000_randls_69_rotated.json,http://54.235.29.9/FacialAge/BNav_EC2/DepthDuration/v2_depth_discrimination_MTurk/v2_DepthDiscrim_HTML.html#59,59,1366,625,1366,768,9-5-2022,7-51-14,83,depth_discrimination_stimuli/002545_2014-06-24_13-38-53_094959634447_rgbf000080-resize_4/002545_2014-06-24_13-38-53_094959634447_rgbf000080-resize_4-target.png,depth_discrimination_stimuli/001092_2014-06-15_17-34-58_260595134347_rgbf000171-resize_3/001092_2014-06-15_17-34-58_260595134347_rgbf000171-resize_3-target.png,1000.0,1.9205,2.6935,0.0,2073,1003,1012,997,996,503,,1000181,46,Woman
83,600778,DepthScenes,v2_duration_discrimination,discrim_jsons/Discrim1000_randls_69_rotated.json,http://54.235.29.9/FacialAge/BNav_EC2/DepthDuration/v2_depth_discrimination_MTurk/v2_DepthDiscrim_HTML.html#59,59,1366,625,1366,768,9-5-2022,7-51-14,84,depth_discrimination_stimuli/002875_2014-06-01_15-19-00_094959634447_rgbf000151-resize_1/002875_2014-06-01_15-19-00_094959634447_rgbf000151-resize_1-target.png,depth_discrimination_stimuli/001011_2014-06-08_23-18-54_260595134347_rgbf000044-resize_4/001011_2014-06-08_23-18-54_260595134347_rgbf000044-resize_4-target.png,1000.0,1.9675,2.4730000000000003,0.0,1547,1011,990,1006,998,500,,1000181,46,Woman
84,600778,DepthScenes,v2_duration_discrimination,discrim_jsons/Discrim1000_randls_69_rotated.json,http://54.235.29.9/FacialAge/BNav_EC2/DepthDuration/v2_depth_discrimination_MTurk/v2_DepthDiscrim_HTML.html#59,59,1366,625,1366,768,9-5-2022,7-51-14,85,depth_discrimination_stimuli/002750_2014-06-22_19-08-03_094959634447_rgbf000094-resize_4/002750_2014-06-22_19-08-03_094959634447_rgbf000094-resize_4-target.png,depth_discrimination_stimuli/002549_2014-06-24_13-41-39_094959634447_rgbf000022-resize_3/002549_2014-06-24_13-41-39_094959634447_rgbf000022-resize_3-target.png,1000.0,2.354,1.476,1.0,1896,1016,996,995,1005,495,,1000181,46,Woman
85,600778,DepthScenes,v2_duration_discrimination,discrim_jsons/Discrim1000_randls_69_rotated.json,http://54.235.29.9/FacialAge/BNav_EC2/DepthDuration/v2_depth_discrimination_MTurk/v2_DepthDiscrim_HTML.html#59,59,1366,625,1366,768,9-5-2022,7-51-14,86,depth_discrimination_stimuli/002953_2014-06-08_17-32-18_094959634447_rgbf000059-resize_5/002953_2014-06-08_17-32-18_094959634447_rgbf000059-resize_5-target.png,depth_discrimination_stimuli/000878_2014-06-08_22-52-45_260595134347_rgbf000045-resize_2/000878_2014-06-08_22-52-45_260595134347_rgbf000045-resize_2-target.png,1000.0,1.551,2.092,0.0,1831,1009,1006,986,1010,492,,1000181,46,Woman
86,600778,DepthScenes,v2_duration_discrimination,discrim_jsons/Discrim1000_randls_69_rotated.json,http://54.235.29.9/FacialAge/BNav_EC2/DepthDuration/v2_depth_discrimination_MTurk/v2_DepthDiscrim_HTML.html#59,59,1366,625,1366,768,9-5-2022,7-51-14,86,,,,,,,1831,1009,1006,986,1010,492,,1000181,46,Woman
