,subjID,experimentName,versionName,sequenceName,url,selected_row,windowWidth,windowHeight,screenWidth,screenHeight,startDate,startTime,trial,stimulus_0,stimulus_1,duration,actual_depth_0,actual_depth_1,discrim_choice,trial_RT,log_fixation,log_sceneDuration1,log_mask1,log_sceneDuration2,log_mask2,experimentTime,totalTime,age,gender
0,607296,DepthScenes,v2_duration_discrimination,discrim_jsons/Discrim250_randls_58_rotated.json,http://54.235.29.9/FacialAge/BNav_EC2/DepthDuration/v2_depth_discrimination_MTurk/v2_DepthDiscrim_HTML.html#103,103,1366,625,1366,768,9-17-2022,11-9-50,1,depth_discrimination_stimuli/000742_2014-06-08_18-48-09_260595134347_rgbf000164-resize_4/000742_2014-06-08_18-48-09_260595134347_rgbf000164-resize_4-target.png,depth_discrimination_stimuli/001066_2014-06-08_22-03-20_260595134347_rgbf000066-resize_4/001066_2014-06-08_22-03-20_260595134347_rgbf000066-resize_4-target.png,250.0,4.632,4.2330000000000005,0.0,1279,1021,237,1020,237,498,,541649,36,Man
1,607296,DepthScenes,v2_duration_discrimination,discrim_jsons/Discrim250_randls_58_rotated.json,http://54.235.29.9/FacialAge/BNav_EC2/DepthDuration/v2_depth_discrimination_MTurk/v2_DepthDiscrim_HTML.html#103,103,1366,625,1366,768,9-17-2022,11-9-50,2,depth_discrimination_stimuli/001392_2014-06-19_16-07-59_260595134347_rgbf000046-resize_1/001392_2014-06-19_16-07-59_260595134347_rgbf000046-resize_1-target.png,depth_discrimination_stimuli/001570_2014-06-20_17-21-09_260595134347_rgbf000135-resize_4/001570_2014-06-20_17-21-09_260595134347_rgbf000135-resize_4-target.png,250.0,4.135,4.467,1.0,1639,1003,262,994,257,487,,541649,36,Man
2,607296,DepthScenes,v2_duration_discrimination,discrim_jsons/Discrim250_randls_58_rotated.json,http://54.235.29.9/FacialAge/BNav_EC2/DepthDuration/v2_depth_discrimination_MTurk/v2_DepthDiscrim_HTML.html#103,103,1366,625,1366,768,9-17-2022,11-9-50,3,depth_discrimination_stimuli/001815_2014-06-26_20-52-55_260595134347_rgbf000020-resize_0/001815_2014-06-26_20-52-55_260595134347_rgbf000020-resize_0-target.png,depth_discrimination_stimuli/001808_2014-06-26_20-50-58_260595134347_rgbf000029-resize_1/001808_2014-06-26_20-50-58_260595134347_rgbf000029-resize_1-target.png,250.0,3.3865,4.249,1.0,1525,1010,249,1006,254,495,,541649,36,Man
3,607296,DepthScenes,v2_duration_discrimination,discrim_jsons/Discrim250_randls_58_rotated.json,http://54.235.29.9/FacialAge/BNav_EC2/DepthDuration/v2_depth_discrimination_MTurk/v2_DepthDiscrim_HTML.html#103,103,1366,625,1366,768,9-17-2022,11-9-50,4,depth_discrimination_stimuli/002660_2014-06-13_15-44-18_094959634447_rgbf001878-resize_2/002660_2014-06-13_15-44-18_094959634447_rgbf001878-resize_2-target.png,depth_discrimination_stimuli/002153_2014-06-25_21-27-18_260595134347_rgbf000038-resize_5/002153_2014-06-25_21-27-18_260595134347_rgbf000038-resize_5-target.png,250.0,3.576,2.505,0.0,1042,1009,251,1000,241,507,,541649,36,Man
4,607296,DepthScenes,v2_duration_discrimination,discrim_jsons/Discrim250_randls_58_rotated.json,http://54.235.29.9/FacialAge/BNav_EC2/DepthDuration/v2_depth_discrimination_MTurk/v2_DepthDiscrim_HTML.html#103,103,1366,625,1366,768,9-17-2022,11-9-50,5,depth_discrimination_stimuli/000749_2014-06-08_21-55-06_260595134347_rgbf000070-resize_2/000749_2014-06-08_21-55-06_260595134347_rgbf000070-resize_2-target.png,depth_discrimination_stimuli/002788_2014-06-22_19-36-03_094959634447_rgbf000088-resize_2/002788_2014-06-22_19-36-03_094959634447_rgbf000088-resize_2-target.png,250.0,2.331,1.6465,0.0,1417,1006,252,1004,267,476,,541649,36,Man
5,607296,DepthScenes,v2_duration_discrimination,discrim_jsons/Discrim250_randls_58_rotated.json,http://54.235.29.9/FacialAge/BNav_EC2/DepthDuration/v2_depth_discrimination_MTurk/v2_DepthDiscrim_HTML.html#103,103,1366,625,1366,768,9-17-2022,11-9-50,6,depth_discrimination_stimuli/002323_2014-06-28_20-01-54_260595134347_rgbf000051-resize_4/002323_2014-06-28_20-01-54_260595134347_rgbf000051-resize_4-target.png,depth_discrimination_stimuli/000917_2014-06-09_22-45-29_260595134347_rgbf000149-resize_3/000917_2014-06-09_22-45-29_260595134347_rgbf000149-resize_3-target.png,250.0,3.7310000000000003,4.1865,1.0,1350,1007,246,1004,252,497,,541649,36,Man
6,607296,DepthScenes,v2_duration_discrimination,discrim_jsons/Discrim250_randls_58_rotated.json,http://54.235.29.9/FacialAge/BNav_EC2/DepthDuration/v2_depth_discrimination_MTurk/v2_DepthDiscrim_HTML.html#103,103,1366,625,1366,768,9-17-2022,11-9-50,7,depth_discrimination_stimuli/002136_2014-06-25_21-18-03_260595134347_rgbf000109-resize_3/002136_2014-06-25_21-18-03_260595134347_rgbf000109-resize_3-target.png,depth_discrimination_stimuli/002964_2014-06-08_17-46-11_094959634447_rgbf000091-resize_4/002964_2014-06-08_17-46-11_094959634447_rgbf000091-resize_4-target.png,250.0,1.9569999999999999,1.6909999999999998,0.0,1688,1006,244,1009,248,503,,541649,36,Man
7,607296,DepthScenes,v2_duration_discrimination,discrim_jsons/Discrim250_randls_58_rotated.json,http://54.235.29.9/FacialAge/BNav_EC2/DepthDuration/v2_depth_discrimination_MTurk/v2_DepthDiscrim_HTML.html#103,103,1366,625,1366,768,9-17-2022,11-9-50,8,depth_discrimination_stimuli/000635_2014-06-08_16-38-42_260595134347_rgbf000106-resize_1/000635_2014-06-08_16-38-42_260595134347_rgbf000106-resize_1-target.png,depth_discrimination_stimuli/002279_2014-06-28_18-55-32_260595134347_rgbf000040-resize_5/002279_2014-06-28_18-55-32_260595134347_rgbf000040-resize_5-target.png,250.0,2.074,1.5043333333333,1.0,1331,1019,243,997,252,500,,541649,36,Man
8,607296,DepthScenes,v2_duration_discrimination,discrim_jsons/Discrim250_randls_58_rotated.json,http://54.235.29.9/FacialAge/BNav_EC2/DepthDuration/v2_depth_discrimination_MTurk/v2_DepthDiscrim_HTML.html#103,103,1366,625,1366,768,9-17-2022,11-9-50,9,depth_discrimination_stimuli/000709_2014-06-08_13-51-55_260595134347_rgbf000068-resize_3/000709_2014-06-08_13-51-55_260595134347_rgbf000068-resize_3-target.png,depth_discrimination_stimuli/002057_2014-06-24_21-00-13_260595134347_rgbf000120-resize_1/002057_2014-06-24_21-00-13_260595134347_rgbf000120-resize_1-target.png,250.0,1.8030000000000002,2.967,0.0,1021,1012,265,975,251,498,,541649,36,Man
9,607296,DepthScenes,v2_duration_discrimination,discrim_jsons/Discrim250_randls_58_rotated.json,http://54.235.29.9/FacialAge/BNav_EC2/DepthDuration/v2_depth_discrimination_MTurk/v2_DepthDiscrim_HTML.html#103,103,1366,625,1366,768,9-17-2022,11-9-50,10,depth_discrimination_stimuli/001498_2014-06-19_17-45-14_260595134347_rgbf000129-resize_4/001498_2014-06-19_17-45-14_260595134347_rgbf000129-resize_4-target.png,depth_discrimination_stimuli/001498_2014-06-19_17-45-14_260595134347_rgbf000129-resize_4/001498_2014-06-19_17-45-14_260595134347_rgbf000129-resize_4-target.png,250.0,1.4075,1.4075,3.0,1082,1004,257,1000,248,493,,541649,36,Man
10,607296,DepthScenes,v2_duration_discrimination,discrim_jsons/Discrim250_randls_58_rotated.json,http://54.235.29.9/FacialAge/BNav_EC2/DepthDuration/v2_depth_discrimination_MTurk/v2_DepthDiscrim_HTML.html#103,103,1366,625,1366,768,9-17-2022,11-9-50,11,depth_discrimination_stimuli/002875_2014-06-01_15-19-00_094959634447_rgbf000151-resize_1/002875_2014-06-01_15-19-00_094959634447_rgbf000151-resize_1-target.png,depth_discrimination_stimuli/001011_2014-06-08_23-18-54_260595134347_rgbf000044-resize_4/001011_2014-06-08_23-18-54_260595134347_rgbf000044-resize_4-target.png,250.0,1.9675,2.4730000000000003,0.0,1021,1004,257,999,244,507,,541649,36,Man
11,607296,DepthScenes,v2_duration_discrimination,discrim_jsons/Discrim250_randls_58_rotated.json,http://54.235.29.9/FacialAge/BNav_EC2/DepthDuration/v2_depth_discrimination_MTurk/v2_DepthDiscrim_HTML.html#103,103,1366,625,1366,768,9-17-2022,11-9-50,12,depth_discrimination_stimuli/000866_2014-06-09_20-45-42_260595134347_rgbf000139-resize_1/000866_2014-06-09_20-45-42_260595134347_rgbf000139-resize_1-target.png,depth_discrimination_stimuli/002989_2014-06-15_12-25-03_094959634447_rgbf000150-resize_3/002989_2014-06-15_12-25-03_094959634447_rgbf000150-resize_3-target.png,250.0,3.2155,4.1975,0.0,966,1028,236,998,255,495,,541649,36,Man
12,607296,DepthScenes,v2_duration_discrimination,discrim_jsons/Discrim250_randls_58_rotated.json,http://54.235.29.9/FacialAge/BNav_EC2/DepthDuration/v2_depth_discrimination_MTurk/v2_DepthDiscrim_HTML.html#103,103,1366,625,1366,768,9-17-2022,11-9-50,13,depth_discrimination_stimuli/000109_2014-05-14_23-41-52_260595134347_rgbf000035-resize_9/000109_2014-05-14_23-41-52_260595134347_rgbf000035-resize_9-target.png,depth_discrimination_stimuli/000470_2014-06-09_19-42-40_260595134347_rgbf000094-resize_1/000470_2014-06-09_19-42-40_260595134347_rgbf000094-resize_1-target.png,250.0,1.3545,1.831,0.0,1175,1015,244,1006,245,492,,541649,36,Man
13,607296,DepthScenes,v2_duration_discrimination,discrim_jsons/Discrim250_randls_58_rotated.json,http://54.235.29.9/FacialAge/BNav_EC2/DepthDuration/v2_depth_discrimination_MTurk/v2_DepthDiscrim_HTML.html#103,103,1366,625,1366,768,9-17-2022,11-9-50,14,depth_discrimination_stimuli/003587_2014-05-23_16-48-02_094959634447_rgbf002384-resize_2/003587_2014-05-23_16-48-02_094959634447_rgbf002384-resize_2-target.png,depth_discrimination_stimuli/001167_2014-06-17_15-38-07_260595134347_rgbf000108-resize_0/001167_2014-06-17_15-38-07_260595134347_rgbf000108-resize_0-target.png,250.0,1.357,1.8505,0.0,948,1011,250,1003,240,511,,541649,36,Man
14,607296,DepthScenes,v2_duration_discrimination,discrim_jsons/Discrim250_randls_58_rotated.json,http://54.235.29.9/FacialAge/BNav_EC2/DepthDuration/v2_depth_discrimination_MTurk/v2_DepthDiscrim_HTML.html#103,103,1366,625,1366,768,9-17-2022,11-9-50,15,depth_discrimination_stimuli/002103_2014-06-25_20-00-40_260595134347_rgbf000049-resize_0/002103_2014-06-25_20-00-40_260595134347_rgbf000049-resize_0-target.png,depth_discrimination_stimuli/002039_2014-06-24_20-22-38_260595134347_rgbf000084-resize_1/002039_2014-06-24_20-22-38_260595134347_rgbf000084-resize_1-target.png,250.0,4.105,4.408,0.0,957,1010,253,1001,243,503,,541649,36,Man
15,607296,DepthScenes,v2_duration_discrimination,discrim_jsons/Discrim250_randls_58_rotated.json,http://54.235.29.9/FacialAge/BNav_EC2/DepthDuration/v2_depth_discrimination_MTurk/v2_DepthDiscrim_HTML.html#103,103,1366,625,1366,768,9-17-2022,11-9-50,16,depth_discrimination_stimuli/002072_2014-06-24_21-48-06_260595134347_rgbf000115-resize_0/002072_2014-06-24_21-48-06_260595134347_rgbf000115-resize_0-target.png,depth_discrimination_stimuli/002072_2014-06-24_21-48-06_260595134347_rgbf000115-resize_0/002072_2014-06-24_21-48-06_260595134347_rgbf000115-resize_0-target.png,250.0,4.702,4.702,3.0,1023,1015,245,1006,241,500,,541649,36,Man
16,607296,DepthScenes,v2_duration_discrimination,discrim_jsons/Discrim250_randls_58_rotated.json,http://54.235.29.9/FacialAge/BNav_EC2/DepthDuration/v2_depth_discrimination_MTurk/v2_DepthDiscrim_HTML.html#103,103,1366,625,1366,768,9-17-2022,11-9-50,17,depth_discrimination_stimuli/003129_2014-05-12_10-48-10_094959634447_rgbf000100-resize_0/003129_2014-05-12_10-48-10_094959634447_rgbf000100-resize_0-target.png,depth_discrimination_stimuli/000414_2014-06-04_19-49-13_260595134347_rgbf000044-resize_0/000414_2014-06-04_19-49-13_260595134347_rgbf000044-resize_0-target.png,250.0,4.9305,4.329,1.0,1226,1011,244,1003,254,514,,541649,36,Man
17,607296,DepthScenes,v2_duration_discrimination,discrim_jsons/Discrim250_randls_58_rotated.json,http://54.235.29.9/FacialAge/BNav_EC2/DepthDuration/v2_depth_discrimination_MTurk/v2_DepthDiscrim_HTML.html#103,103,1366,625,1366,768,9-17-2022,11-9-50,18,depth_discrimination_stimuli/002637_2014-06-24_14-51-13_094959634447_rgbf000066-resize_4/002637_2014-06-24_14-51-13_094959634447_rgbf000066-resize_4-target.png,depth_discrimination_stimuli/003534_2014-05-22_15-06-10_094959634447_rgbf000102-resize_4/003534_2014-05-22_15-06-10_094959634447_rgbf000102-resize_4-target.png,250.0,1.9955,1.426,1.0,1042,1008,244,1014,234,508,,541649,36,Man
18,607296,DepthScenes,v2_duration_discrimination,discrim_jsons/Discrim250_randls_58_rotated.json,http://54.235.29.9/FacialAge/BNav_EC2/DepthDuration/v2_depth_discrimination_MTurk/v2_DepthDiscrim_HTML.html#103,103,1366,625,1366,768,9-17-2022,11-9-50,19,depth_discrimination_stimuli/002953_2014-06-08_17-32-18_094959634447_rgbf000059-resize_5/002953_2014-06-08_17-32-18_094959634447_rgbf000059-resize_5-target.png,depth_discrimination_stimuli/000878_2014-06-08_22-52-45_260595134347_rgbf000045-resize_2/000878_2014-06-08_22-52-45_260595134347_rgbf000045-resize_2-target.png,250.0,1.551,2.092,0.0,1244,1012,240,1006,270,479,,541649,36,Man
19,607296,DepthScenes,v2_duration_discrimination,discrim_jsons/Discrim250_randls_58_rotated.json,http://54.235.29.9/FacialAge/BNav_EC2/DepthDuration/v2_depth_discrimination_MTurk/v2_DepthDiscrim_HTML.html#103,103,1366,625,1366,768,9-17-2022,11-9-50,20,depth_discrimination_stimuli/002750_2014-06-22_19-08-03_094959634447_rgbf000094-resize_4/002750_2014-06-22_19-08-03_094959634447_rgbf000094-resize_4-target.png,depth_discrimination_stimuli/002549_2014-06-24_13-41-39_094959634447_rgbf000022-resize_3/002549_2014-06-24_13-41-39_094959634447_rgbf000022-resize_3-target.png,250.0,2.354,1.476,1.0,996,1006,250,1000,249,499,,541649,36,Man
20,607296,DepthScenes,v2_duration_discrimination,discrim_jsons/Discrim250_randls_58_rotated.json,http://54.235.29.9/FacialAge/BNav_EC2/DepthDuration/v2_depth_discrimination_MTurk/v2_DepthDiscrim_HTML.html#103,103,1366,625,1366,768,9-17-2022,11-9-50,21,depth_discrimination_stimuli/003010_2014-06-15_12-54-35_094959634447_rgbf000112-resize_0/003010_2014-06-15_12-54-35_094959634447_rgbf000112-resize_0-target.png,depth_discrimination_stimuli/001810_2014-06-26_20-51-35_260595134347_rgbf000040-resize_3/001810_2014-06-26_20-51-35_260595134347_rgbf000040-resize_3-target.png,250.0,3.1185,2.2525,1.0,986,1015,240,998,257,501,,541649,36,Man
21,607296,DepthScenes,v2_duration_discrimination,discrim_jsons/Discrim250_randls_58_rotated.json,http://54.235.29.9/FacialAge/BNav_EC2/DepthDuration/v2_depth_discrimination_MTurk/v2_DepthDiscrim_HTML.html#103,103,1366,625,1366,768,9-17-2022,11-9-50,22,depth_discrimination_stimuli/000927_2014-06-09_16-32-30_260595134347_rgbf000123-resize_3/000927_2014-06-09_16-32-30_260595134347_rgbf000123-resize_3-target.png,depth_discrimination_stimuli/001110_2014-06-15_17-25-28_260595134347_rgbf000150-resize_1/001110_2014-06-15_17-25-28_260595134347_rgbf000150-resize_1-target.png,250.0,2.6785,1.7115,1.0,965,1008,245,1009,251,499,,541649,36,Man
22,607296,DepthScenes,v2_duration_discrimination,discrim_jsons/Discrim250_randls_58_rotated.json,http://54.235.29.9/FacialAge/BNav_EC2/DepthDuration/v2_depth_discrimination_MTurk/v2_DepthDiscrim_HTML.html#103,103,1366,625,1366,768,9-17-2022,11-9-50,23,depth_discrimination_stimuli/000137_2014-05-20_17-04-49_260595134347_rgbf000120-resize_1/000137_2014-05-20_17-04-49_260595134347_rgbf000120-resize_1-target.png,depth_discrimination_stimuli/000736_2014-06-08_18-24-15_260595134347_rgbf000206-resize_3/000736_2014-06-08_18-24-15_260595134347_rgbf000206-resize_3-target.png,250.0,3.786,3.515,1.0,1797,1002,266,989,254,529,,541649,36,Man
23,607296,DepthScenes,v2_duration_discrimination,discrim_jsons/Discrim250_randls_58_rotated.json,http://54.235.29.9/FacialAge/BNav_EC2/DepthDuration/v2_depth_discrimination_MTurk/v2_DepthDiscrim_HTML.html#103,103,1366,625,1366,768,9-17-2022,11-9-50,24,depth_discrimination_stimuli/001136_2014-06-17_15-19-41_260595134347_rgbf000076-resize_3/001136_2014-06-17_15-19-41_260595134347_rgbf000076-resize_3-target.png,depth_discrimination_stimuli/001164_2014-06-17_15-35-46_260595134347_rgbf000085-resize_3/001164_2014-06-17_15-35-46_260595134347_rgbf000085-resize_3-target.png,250.0,1.8655,2.354,1.0,1230,1007,259,998,237,511,,541649,36,Man
24,607296,DepthScenes,v2_duration_discrimination,discrim_jsons/Discrim250_randls_58_rotated.json,http://54.235.29.9/FacialAge/BNav_EC2/DepthDuration/v2_depth_discrimination_MTurk/v2_DepthDiscrim_HTML.html#103,103,1366,625,1366,768,9-17-2022,11-9-50,25,depth_discrimination_stimuli/002639_2014-06-24_14-51-37_094959634447_rgbf000074-resize_4/002639_2014-06-24_14-51-37_094959634447_rgbf000074-resize_4-target.png,depth_discrimination_stimuli/003292_2014-05-14_21-53-49_094959634447_rgbf000100-resize_2/003292_2014-05-14_21-53-49_094959634447_rgbf000100-resize_2-target.png,250.0,4.0375,3.4815,1.0,1405,1006,255,1002,242,500,,541649,36,Man
25,607296,DepthScenes,v2_duration_discrimination,discrim_jsons/Discrim250_randls_58_rotated.json,http://54.235.29.9/FacialAge/BNav_EC2/DepthDuration/v2_depth_discrimination_MTurk/v2_DepthDiscrim_HTML.html#103,103,1366,625,1366,768,9-17-2022,11-9-50,26,depth_discrimination_stimuli/001170_2014-06-17_15-43-44_260595134347_rgbf000096-resize_6/001170_2014-06-17_15-43-44_260595134347_rgbf000096-resize_6-target.png,depth_discrimination_stimuli/001170_2014-06-17_15-43-44_260595134347_rgbf000096-resize_6/001170_2014-06-17_15-43-44_260595134347_rgbf000096-resize_6-target.png,250.0,1.1909999999999998,1.1909999999999998,3.0,1045,1008,252,992,264,492,,541649,36,Man
26,607296,DepthScenes,v2_duration_discrimination,discrim_jsons/Discrim250_randls_58_rotated.json,http://54.235.29.9/FacialAge/BNav_EC2/DepthDuration/v2_depth_discrimination_MTurk/v2_DepthDiscrim_HTML.html#103,103,1366,625,1366,768,9-17-2022,11-9-50,27,depth_discrimination_stimuli/000409_2014-06-04_19-23-33_260595134347_rgbf000067-resize_0/000409_2014-06-04_19-23-33_260595134347_rgbf000067-resize_0-target.png,depth_discrimination_stimuli/002663_2014-06-13_15-50-26_094959634447_rgbf000075-resize_1/002663_2014-06-13_15-50-26_094959634447_rgbf000075-resize_1-target.png,250.0,3.7335,4.7495,0.0,988,1003,253,1004,245,496,,541649,36,Man
27,607296,DepthScenes,v2_duration_discrimination,discrim_jsons/Discrim250_randls_58_rotated.json,http://54.235.29.9/FacialAge/BNav_EC2/DepthDuration/v2_depth_discrimination_MTurk/v2_DepthDiscrim_HTML.html#103,103,1366,625,1366,768,9-17-2022,11-9-50,28,depth_discrimination_stimuli/000556_2014-06-09_22-42-56_260595134347_rgbf000214-resize_1/000556_2014-06-09_22-42-56_260595134347_rgbf000214-resize_1-target.png,depth_discrimination_stimuli/001158_2014-06-17_15-32-16_260595134347_rgbf000138-resize_2/001158_2014-06-17_15-32-16_260595134347_rgbf000138-resize_2-target.png,250.0,4.8415,4.5315,0.0,1335,1005,251,999,256,493,,541649,36,Man
28,607296,DepthScenes,v2_duration_discrimination,discrim_jsons/Discrim250_randls_58_rotated.json,http://54.235.29.9/FacialAge/BNav_EC2/DepthDuration/v2_depth_discrimination_MTurk/v2_DepthDiscrim_HTML.html#103,103,1366,625,1366,768,9-17-2022,11-9-50,29,depth_discrimination_stimuli/001032_2014-06-08_13-23-17_260595134347_rgbf000021-resize_3/001032_2014-06-08_13-23-17_260595134347_rgbf000021-resize_3-target.png,depth_discrimination_stimuli/001059_2014-06-08_21-53-27_260595134347_rgbf000061-resize_4/001059_2014-06-08_21-53-27_260595134347_rgbf000061-resize_4-target.png,250.0,3.2725,2.4185,0.0,1809,1002,252,1011,250,498,,541649,36,Man
29,607296,DepthScenes,v2_duration_discrimination,discrim_jsons/Discrim250_randls_58_rotated.json,http://54.235.29.9/FacialAge/BNav_EC2/DepthDuration/v2_depth_discrimination_MTurk/v2_DepthDiscrim_HTML.html#103,103,1366,625,1366,768,9-17-2022,11-9-50,30,depth_discrimination_stimuli/002209_2014-06-28_18-36-10_260595134347_rgbf000051-resize_1/002209_2014-06-28_18-36-10_260595134347_rgbf000051-resize_1-target.png,depth_discrimination_stimuli/002763_2014-06-22_19-13-10_094959634447_rgbf000075-resize_4/002763_2014-06-22_19-13-10_094959634447_rgbf000075-resize_4-target.png,250.0,2.057,1.68375,1.0,1108,1048,216,987,264,491,,541649,36,Man
30,607296,DepthScenes,v2_duration_discrimination,discrim_jsons/Discrim250_randls_58_rotated.json,http://54.235.29.9/FacialAge/BNav_EC2/DepthDuration/v2_depth_discrimination_MTurk/v2_DepthDiscrim_HTML.html#103,103,1366,625,1366,768,9-17-2022,11-9-50,31,depth_discrimination_stimuli/000549_2014-06-08_22-10-24_260595134347_rgbf000247-resize_3/000549_2014-06-08_22-10-24_260595134347_rgbf000247-resize_3-target.png,depth_discrimination_stimuli/001055_2014-06-08_18-45-35_260595134347_rgbf000111-resize_4/001055_2014-06-08_18-45-35_260595134347_rgbf000111-resize_4-target.png,250.0,1.841,2.4290000000000003,0.0,1015,1013,238,1011,241,511,,541649,36,Man
31,607296,DepthScenes,v2_duration_discrimination,discrim_jsons/Discrim250_randls_58_rotated.json,http://54.235.29.9/FacialAge/BNav_EC2/DepthDuration/v2_depth_discrimination_MTurk/v2_DepthDiscrim_HTML.html#103,103,1366,625,1366,768,9-17-2022,11-9-50,32,depth_discrimination_stimuli/002758_2014-06-22_19-11-20_094959634447_rgbf000128-resize_1/002758_2014-06-22_19-11-20_094959634447_rgbf000128-resize_1-target.png,depth_discrimination_stimuli/002630_2014-06-24_14-47-50_094959634447_rgbf000055-resize_1/002630_2014-06-24_14-47-50_094959634447_rgbf000055-resize_1-target.png,250.0,2.555,3.0095,0.0,1016,1015,241,998,260,492,,541649,36,Man
32,607296,DepthScenes,v2_duration_discrimination,discrim_jsons/Discrim250_randls_58_rotated.json,http://54.235.29.9/FacialAge/BNav_EC2/DepthDuration/v2_depth_discrimination_MTurk/v2_DepthDiscrim_HTML.html#103,103,1366,625,1366,768,9-17-2022,11-9-50,33,depth_discrimination_stimuli/001828_2014-06-26_21-40-03_260595134347_rgbf000024-resize_0/001828_2014-06-26_21-40-03_260595134347_rgbf000024-resize_0-target.png,depth_discrimination_stimuli/000009_2014-05-26_14-32-05_260595134347_rgbf000034-resize_3/000009_2014-05-26_14-32-05_260595134347_rgbf000034-resize_3-target.png,250.0,4.8260000000000005,3.8715,0.0,1177,1015,237,999,257,506,,541649,36,Man
33,607296,DepthScenes,v2_duration_discrimination,discrim_jsons/Discrim250_randls_58_rotated.json,http://54.235.29.9/FacialAge/BNav_EC2/DepthDuration/v2_depth_discrimination_MTurk/v2_DepthDiscrim_HTML.html#103,103,1366,625,1366,768,9-17-2022,11-9-50,34,depth_discrimination_stimuli/003079_2014-06-15_15-18-20_094959634447_rgbf000152-resize_8/003079_2014-06-15_15-18-20_094959634447_rgbf000152-resize_8-target.png,depth_discrimination_stimuli/000506_2014-06-08_23-21-00_260595134347_rgbf000070-resize_7/000506_2014-06-08_23-21-00_260595134347_rgbf000070-resize_7-target.png,250.0,2.8775,4.0585,1.0,966,1008,257,997,245,498,,541649,36,Man
34,607296,DepthScenes,v2_duration_discrimination,discrim_jsons/Discrim250_randls_58_rotated.json,http://54.235.29.9/FacialAge/BNav_EC2/DepthDuration/v2_depth_discrimination_MTurk/v2_DepthDiscrim_HTML.html#103,103,1366,625,1366,768,9-17-2022,11-9-50,35,depth_discrimination_stimuli/001540_2014-06-20_17-01-05_260595134347_rgbf000086-resize_2/001540_2014-06-20_17-01-05_260595134347_rgbf000086-resize_2-target.png,depth_discrimination_stimuli/001540_2014-06-20_17-01-05_260595134347_rgbf000086-resize_2/001540_2014-06-20_17-01-05_260595134347_rgbf000086-resize_2-target.png,250.0,1.459,1.459,3.0,893,1018,265,981,244,493,,541649,36,Man
35,607296,DepthScenes,v2_duration_discrimination,discrim_jsons/Discrim250_randls_58_rotated.json,http://54.235.29.9/FacialAge/BNav_EC2/DepthDuration/v2_depth_discrimination_MTurk/v2_DepthDiscrim_HTML.html#103,103,1366,625,1366,768,9-17-2022,11-9-50,36,depth_discrimination_stimuli/003423_2014-05-21_10-23-26_094959634447_rgbf002665-resize_2/003423_2014-05-21_10-23-26_094959634447_rgbf002665-resize_2-target.png,depth_discrimination_stimuli/002905_2014-06-03_18-04-43_094959634447_rgbf000151-resize_2/002905_2014-06-03_18-04-43_094959634447_rgbf000151-resize_2-target.png,250.0,3.2575,2.0295,1.0,1032,1012,242,1006,252,502,,541649,36,Man
36,607296,DepthScenes,v2_duration_discrimination,discrim_jsons/Discrim250_randls_58_rotated.json,http://54.235.29.9/FacialAge/BNav_EC2/DepthDuration/v2_depth_discrimination_MTurk/v2_DepthDiscrim_HTML.html#103,103,1366,625,1366,768,9-17-2022,11-9-50,37,depth_discrimination_stimuli/000854_2014-06-09_19-43-13_260595134347_rgbf000066-resize_0/000854_2014-06-09_19-43-13_260595134347_rgbf000066-resize_0-target.png,depth_discrimination_stimuli/000758_2014-06-08_22-05-08_260595134347_rgbf000085-resize_0/000758_2014-06-08_22-05-08_260595134347_rgbf000085-resize_0-target.png,250.0,3.068,3.3810000000000002,0.0,1426,1016,244,998,257,496,,541649,36,Man
37,607296,DepthScenes,v2_duration_discrimination,discrim_jsons/Discrim250_randls_58_rotated.json,http://54.235.29.9/FacialAge/BNav_EC2/DepthDuration/v2_depth_discrimination_MTurk/v2_DepthDiscrim_HTML.html#103,103,1366,625,1366,768,9-17-2022,11-9-50,38,depth_discrimination_stimuli/000502_2014-06-08_23-02-32_260595134347_rgbf000063-resize_4/000502_2014-06-08_23-02-32_260595134347_rgbf000063-resize_4-target.png,depth_discrimination_stimuli/001199_2014-06-17_16-03-48_260595134347_rgbf000077-resize_0/001199_2014-06-17_16-03-48_260595134347_rgbf000077-resize_0-target.png,250.0,2.431,3.4375,0.0,980,1013,245,994,262,492,,541649,36,Man
38,607296,DepthScenes,v2_duration_discrimination,discrim_jsons/Discrim250_randls_58_rotated.json,http://54.235.29.9/FacialAge/BNav_EC2/DepthDuration/v2_depth_discrimination_MTurk/v2_DepthDiscrim_HTML.html#103,103,1366,625,1366,768,9-17-2022,11-9-50,39,depth_discrimination_stimuli/001571_2014-06-20_17-21-32_260595134347_rgbf000089-resize_1/001571_2014-06-20_17-21-32_260595134347_rgbf000089-resize_1-target.png,depth_discrimination_stimuli/002272_2014-06-28_18-53-56_260595134347_rgbf000067-resize_2/002272_2014-06-28_18-53-56_260595134347_rgbf000067-resize_2-target.png,250.0,1.86,1.138,1.0,978,1005,252,1005,238,503,,541649,36,Man
39,607296,DepthScenes,v2_duration_discrimination,discrim_jsons/Discrim250_randls_58_rotated.json,http://54.235.29.9/FacialAge/BNav_EC2/DepthDuration/v2_depth_discrimination_MTurk/v2_DepthDiscrim_HTML.html#103,103,1366,625,1366,768,9-17-2022,11-9-50,40,depth_discrimination_stimuli/002995_2014-06-15_12-31-26_094959634447_rgbf000150-resize_1/002995_2014-06-15_12-31-26_094959634447_rgbf000150-resize_1-target.png,depth_discrimination_stimuli/002748_2014-06-22_19-07-22_094959634447_rgbf000078-resize_1/002748_2014-06-22_19-07-22_094959634447_rgbf000078-resize_1-target.png,250.0,3.8360000000000003,4.6705,0.0,1103,1013,237,1005,259,499,,541649,36,Man
40,607296,DepthScenes,v2_duration_discrimination,discrim_jsons/Discrim250_randls_58_rotated.json,http://54.235.29.9/FacialAge/BNav_EC2/DepthDuration/v2_depth_discrimination_MTurk/v2_DepthDiscrim_HTML.html#103,103,1366,625,1366,768,9-17-2022,11-9-50,41,depth_discrimination_stimuli/002467_2014-06-28_20-38-07_260595134347_rgbf000026-resize_2/002467_2014-06-28_20-38-07_260595134347_rgbf000026-resize_2-target.png,depth_discrimination_stimuli/002570_2014-06-24_13-59-54_094959634447_rgbf000059-resize_0/002570_2014-06-24_13-59-54_094959634447_rgbf000059-resize_0-target.png,250.0,4.742,4.037,1.0,1225,1005,259,988,252,507,,541649,36,Man
41,607296,DepthScenes,v2_duration_discrimination,discrim_jsons/Discrim250_randls_58_rotated.json,http://54.235.29.9/FacialAge/BNav_EC2/DepthDuration/v2_depth_discrimination_MTurk/v2_DepthDiscrim_HTML.html#103,103,1366,625,1366,768,9-17-2022,11-9-50,42,depth_discrimination_stimuli/002805_2014-06-22_19-54-03_094959634447_rgbf000079-resize_1/002805_2014-06-22_19-54-03_094959634447_rgbf000079-resize_1-target.png,depth_discrimination_stimuli/000906_2014-06-08_13-35-43_260595134347_rgbf000155-resize_1/000906_2014-06-08_13-35-43_260595134347_rgbf000155-resize_1-target.png,250.0,3.1439999999999997,2.8489999999999998,0.0,1941,1003,255,1001,253,490,,541649,36,Man
42,607296,DepthScenes,v2_duration_discrimination,discrim_jsons/Discrim250_randls_58_rotated.json,http://54.235.29.9/FacialAge/BNav_EC2/DepthDuration/v2_depth_discrimination_MTurk/v2_DepthDiscrim_HTML.html#103,103,1366,625,1366,768,9-17-2022,11-9-50,43,depth_discrimination_stimuli/001584_2014-06-20_11-07-43_260595134347_rgbf000002-resize_1/001584_2014-06-20_11-07-43_260595134347_rgbf000002-resize_1-target.png,depth_discrimination_stimuli/003621_2014-05-23_18-06-08_094959634447_rgbf000101-resize_1/003621_2014-05-23_18-06-08_094959634447_rgbf000101-resize_1-target.png,250.0,3.53,3.9835,1.0,1808,1006,254,1005,239,505,,541649,36,Man
43,607296,DepthScenes,v2_duration_discrimination,discrim_jsons/Discrim250_randls_58_rotated.json,http://54.235.29.9/FacialAge/BNav_EC2/DepthDuration/v2_depth_discrimination_MTurk/v2_DepthDiscrim_HTML.html#103,103,1366,625,1366,768,9-17-2022,11-9-50,44,depth_discrimination_stimuli/002340_2014-06-28_20-05-46_260595134347_rgbf000113-resize_0/002340_2014-06-28_20-05-46_260595134347_rgbf000113-resize_0-target.png,depth_discrimination_stimuli/001016_2014-06-09_16-16-10_260595134347_rgbf000112-resize_5/001016_2014-06-09_16-16-10_260595134347_rgbf000112-resize_5-target.png,250.0,2.4735,1.6565,1.0,1037,1003,252,1012,248,498,,541649,36,Man
44,607296,DepthScenes,v2_duration_discrimination,discrim_jsons/Discrim250_randls_58_rotated.json,http://54.235.29.9/FacialAge/BNav_EC2/DepthDuration/v2_depth_discrimination_MTurk/v2_DepthDiscrim_HTML.html#103,103,1366,625,1366,768,9-17-2022,11-9-50,45,depth_discrimination_stimuli/001132_2014-06-17_14-48-54_260595134347_rgbf000100-resize_2/001132_2014-06-17_14-48-54_260595134347_rgbf000100-resize_2-target.png,depth_discrimination_stimuli/001133_2014-06-17_14-49-16_260595134347_rgbf000100-resize_0/001133_2014-06-17_14-49-16_260595134347_rgbf000100-resize_0-target.png,250.0,3.753,4.2115,0.0,1336,1002,256,1000,250,498,,541649,36,Man
45,607296,DepthScenes,v2_duration_discrimination,discrim_jsons/Discrim250_randls_58_rotated.json,http://54.235.29.9/FacialAge/BNav_EC2/DepthDuration/v2_depth_discrimination_MTurk/v2_DepthDiscrim_HTML.html#103,103,1366,625,1366,768,9-17-2022,11-9-50,46,depth_discrimination_stimuli/002199_2014-06-28_18-33-56_260595134347_rgbf000074-resize_0/002199_2014-06-28_18-33-56_260595134347_rgbf000074-resize_0-target.png,depth_discrimination_stimuli/001056_2014-06-08_18-46-44_260595134347_rgbf000068-resize_0/001056_2014-06-08_18-46-44_260595134347_rgbf000068-resize_0-target.png,250.0,1.996,2.6625,0.0,952,1004,274,982,267,482,,541649,36,Man
46,607296,DepthScenes,v2_duration_discrimination,discrim_jsons/Discrim250_randls_58_rotated.json,http://54.235.29.9/FacialAge/BNav_EC2/DepthDuration/v2_depth_discrimination_MTurk/v2_DepthDiscrim_HTML.html#103,103,1366,625,1366,768,9-17-2022,11-9-50,47,depth_discrimination_stimuli/003083_2014-06-15_15-21-03_094959634447_rgbf000063-resize_1/003083_2014-06-15_15-21-03_094959634447_rgbf000063-resize_1-target.png,depth_discrimination_stimuli/000486_2014-06-09_20-47-20_260595134347_rgbf000143-resize_2/000486_2014-06-09_20-47-20_260595134347_rgbf000143-resize_2-target.png,250.0,4.1405,4.8325,1.0,1354,1007,258,1000,246,495,,541649,36,Man
47,607296,DepthScenes,v2_duration_discrimination,discrim_jsons/Discrim250_randls_58_rotated.json,http://54.235.29.9/FacialAge/BNav_EC2/DepthDuration/v2_depth_discrimination_MTurk/v2_DepthDiscrim_HTML.html#103,103,1366,625,1366,768,9-17-2022,11-9-50,48,depth_discrimination_stimuli/003048_2014-06-15_13-49-43_094959634447_rgbf000150-resize_1/003048_2014-06-15_13-49-43_094959634447_rgbf000150-resize_1-target.png,depth_discrimination_stimuli/002043_2014-06-24_20-29-38_260595134347_rgbf000039-resize_4/002043_2014-06-24_20-29-38_260595134347_rgbf000039-resize_4-target.png,250.0,4.0035,2.8435,1.0,921,1028,237,998,253,488,,541649,36,Man
48,607296,DepthScenes,v2_duration_discrimination,discrim_jsons/Discrim250_randls_58_rotated.json,http://54.235.29.9/FacialAge/BNav_EC2/DepthDuration/v2_depth_discrimination_MTurk/v2_DepthDiscrim_HTML.html#103,103,1366,625,1366,768,9-17-2022,11-9-50,49,depth_discrimination_stimuli/001447_2014-06-19_17-00-32_260595134347_rgbf000082-resize_5/001447_2014-06-19_17-00-32_260595134347_rgbf000082-resize_5-target.png,depth_discrimination_stimuli/000447_2014-06-08_16-15-46_260595134347_rgbf000130-resize_1/000447_2014-06-08_16-15-46_260595134347_rgbf000130-resize_1-target.png,250.0,4.13775,4.479,0.0,1208,1003,251,1007,252,503,,541649,36,Man
49,607296,DepthScenes,v2_duration_discrimination,discrim_jsons/Discrim250_randls_58_rotated.json,http://54.235.29.9/FacialAge/BNav_EC2/DepthDuration/v2_depth_discrimination_MTurk/v2_DepthDiscrim_HTML.html#103,103,1366,625,1366,768,9-17-2022,11-9-50,50,depth_discrimination_stimuli/001100_2014-06-15_17-46-26_260595134347_rgbf000225-resize_2/001100_2014-06-15_17-46-26_260595134347_rgbf000225-resize_2-target.png,depth_discrimination_stimuli/002784_2014-06-22_19-26-30_094959634447_rgbf000083-resize_3/002784_2014-06-22_19-26-30_094959634447_rgbf000083-resize_3-target.png,250.0,2.24,1.8046666666667,0.0,2023,1008,251,998,250,493,,541649,36,Man
50,607296,DepthScenes,v2_duration_discrimination,discrim_jsons/Discrim250_randls_58_rotated.json,http://54.235.29.9/FacialAge/BNav_EC2/DepthDuration/v2_depth_discrimination_MTurk/v2_DepthDiscrim_HTML.html#103,103,1366,625,1366,768,9-17-2022,11-9-50,51,depth_discrimination_stimuli/003081_2014-06-15_15-19-16_094959634447_rgbf000150-resize_1/003081_2014-06-15_15-19-16_094959634447_rgbf000150-resize_1-target.png,depth_discrimination_stimuli/001417_2014-06-19_16-25-36_260595134347_rgbf000115-resize_5/001417_2014-06-19_16-25-36_260595134347_rgbf000115-resize_5-target.png,250.0,3.9125,4.6255,0.0,999,1010,245,1000,250,499,,541649,36,Man
51,607296,DepthScenes,v2_duration_discrimination,discrim_jsons/Discrim250_randls_58_rotated.json,http://54.235.29.9/FacialAge/BNav_EC2/DepthDuration/v2_depth_discrimination_MTurk/v2_DepthDiscrim_HTML.html#103,103,1366,625,1366,768,9-17-2022,11-9-50,52,depth_discrimination_stimuli/001222_2014-06-17_16-24-06_260595134347_rgbf000073-resize_0/001222_2014-06-17_16-24-06_260595134347_rgbf000073-resize_0-target.png,depth_discrimination_stimuli/001222_2014-06-17_16-24-06_260595134347_rgbf000073-resize_0/001222_2014-06-17_16-24-06_260595134347_rgbf000073-resize_0-target.png,250.0,1.4385,1.4385,3.0,1056,1016,244,992,251,511,,541649,36,Man
52,607296,DepthScenes,v2_duration_discrimination,discrim_jsons/Discrim250_randls_58_rotated.json,http://54.235.29.9/FacialAge/BNav_EC2/DepthDuration/v2_depth_discrimination_MTurk/v2_DepthDiscrim_HTML.html#103,103,1366,625,1366,768,9-17-2022,11-9-50,53,depth_discrimination_stimuli/002678_2014-06-13_16-15-32_094959634447_rgbf000151-resize_6/002678_2014-06-13_16-15-32_094959634447_rgbf000151-resize_6-target.png,depth_discrimination_stimuli/000368_2014-06-09_15-53-01_260595134347_rgbf000155-resize_2/000368_2014-06-09_15-53-01_260595134347_rgbf000155-resize_2-target.png,250.0,2.1830000000000003,2.4859999999999998,1.0,968,1007,247,1010,237,512,,541649,36,Man
53,607296,DepthScenes,v2_duration_discrimination,discrim_jsons/Discrim250_randls_58_rotated.json,http://54.235.29.9/FacialAge/BNav_EC2/DepthDuration/v2_depth_discrimination_MTurk/v2_DepthDiscrim_HTML.html#103,103,1366,625,1366,768,9-17-2022,11-9-50,54,depth_discrimination_stimuli/002425_2014-06-28_20-27-29_260595134347_rgbf000031-resize_8/002425_2014-06-28_20-27-29_260595134347_rgbf000031-resize_8-target.png,depth_discrimination_stimuli/000642_2014-06-08_16-59-25_260595134347_rgbf000098-resize_2/000642_2014-06-08_16-59-25_260595134347_rgbf000098-resize_2-target.png,250.0,3.8960000000000004,2.8815,1.0,2069,1009,242,1000,257,500,,541649,36,Man
54,607296,DepthScenes,v2_duration_discrimination,discrim_jsons/Discrim250_randls_58_rotated.json,http://54.235.29.9/FacialAge/BNav_EC2/DepthDuration/v2_depth_discrimination_MTurk/v2_DepthDiscrim_HTML.html#103,103,1366,625,1366,768,9-17-2022,11-9-50,55,depth_discrimination_stimuli/000103_2014-05-14_22-01-17_260595134347_rgbf000152-resize_5/000103_2014-05-14_22-01-17_260595134347_rgbf000152-resize_5-target.png,depth_discrimination_stimuli/001555_2014-06-20_17-12-10_260595134347_rgbf000065-resize_4/001555_2014-06-20_17-12-10_260595134347_rgbf000065-resize_4-target.png,250.0,1.993,1.633,1.0,1091,1003,257,993,259,492,,541649,36,Man
55,607296,DepthScenes,v2_duration_discrimination,discrim_jsons/Discrim250_randls_58_rotated.json,http://54.235.29.9/FacialAge/BNav_EC2/DepthDuration/v2_depth_discrimination_MTurk/v2_DepthDiscrim_HTML.html#103,103,1366,625,1366,768,9-17-2022,11-9-50,56,depth_discrimination_stimuli/000483_2014-06-09_20-41-45_260595134347_rgbf000116-resize_4/000483_2014-06-09_20-41-45_260595134347_rgbf000116-resize_4-target.png,depth_discrimination_stimuli/000469_2014-06-09_19-42-10_260595134347_rgbf000081-resize_1/000469_2014-06-09_19-42-10_260595134347_rgbf000081-resize_1-target.png,250.0,1.337,1.652,0.0,2001,1009,245,999,254,499,,541649,36,Man
56,607296,DepthScenes,v2_duration_discrimination,discrim_jsons/Discrim250_randls_58_rotated.json,http://54.235.29.9/FacialAge/BNav_EC2/DepthDuration/v2_depth_discrimination_MTurk/v2_DepthDiscrim_HTML.html#103,103,1366,625,1366,768,9-17-2022,11-9-50,57,depth_discrimination_stimuli/002568_2014-06-24_13-59-21_094959634447_rgbf000062-resize_4/002568_2014-06-24_13-59-21_094959634447_rgbf000062-resize_4-target.png,depth_discrimination_stimuli/003492_2014-05-21_15-50-55_094959634447_rgbf000828-resize_1/003492_2014-05-21_15-50-55_094959634447_rgbf000828-resize_1-target.png,250.0,3.015,4.06875,0.0,1121,1003,249,999,260,496,,541649,36,Man
57,607296,DepthScenes,v2_duration_discrimination,discrim_jsons/Discrim250_randls_58_rotated.json,http://54.235.29.9/FacialAge/BNav_EC2/DepthDuration/v2_depth_discrimination_MTurk/v2_DepthDiscrim_HTML.html#103,103,1366,625,1366,768,9-17-2022,11-9-50,58,depth_discrimination_stimuli/000457_2014-06-08_16-52-43_260595134347_rgbf000199-resize_1/000457_2014-06-08_16-52-43_260595134347_rgbf000199-resize_1-target.png,depth_discrimination_stimuli/000929_2014-06-09_16-33-19_260595134347_rgbf000139-resize_0/000929_2014-06-09_16-33-19_260595134347_rgbf000139-resize_0-target.png,250.0,3.6489999999999996,2.8680000000000003,1.0,896,1003,253,1022,235,496,,541649,36,Man
58,607296,DepthScenes,v2_duration_discrimination,discrim_jsons/Discrim250_randls_58_rotated.json,http://54.235.29.9/FacialAge/BNav_EC2/DepthDuration/v2_depth_discrimination_MTurk/v2_DepthDiscrim_HTML.html#103,103,1366,625,1366,768,9-17-2022,11-9-50,59,depth_discrimination_stimuli/003490_2014-05-21_15-50-11_094959634447_rgbf000101-resize_3/003490_2014-05-21_15-50-11_094959634447_rgbf000101-resize_3-target.png,depth_discrimination_stimuli/001175_2014-06-17_15-45-55_260595134347_rgbf000129-resize_4/001175_2014-06-17_15-45-55_260595134347_rgbf000129-resize_4-target.png,250.0,3.6445,4.255,0.0,1164,1011,252,995,247,497,,541649,36,Man
59,607296,DepthScenes,v2_duration_discrimination,discrim_jsons/Discrim250_randls_58_rotated.json,http://54.235.29.9/FacialAge/BNav_EC2/DepthDuration/v2_depth_discrimination_MTurk/v2_DepthDiscrim_HTML.html#103,103,1366,625,1366,768,9-17-2022,11-9-50,60,depth_discrimination_stimuli/001214_2014-06-17_16-13-55_260595134347_rgbf000111-resize_0/001214_2014-06-17_16-13-55_260595134347_rgbf000111-resize_0-target.png,depth_discrimination_stimuli/000810_2014-06-08_17-20-01_260595134347_rgbf000105-resize_0/000810_2014-06-08_17-20-01_260595134347_rgbf000105-resize_0-target.png,250.0,2.6505,1.4865,1.0,1081,1006,252,1005,253,498,,541649,36,Man
60,607296,DepthScenes,v2_duration_discrimination,discrim_jsons/Discrim250_randls_58_rotated.json,http://54.235.29.9/FacialAge/BNav_EC2/DepthDuration/v2_depth_discrimination_MTurk/v2_DepthDiscrim_HTML.html#103,103,1366,625,1366,768,9-17-2022,11-9-50,61,depth_discrimination_stimuli/000665_2014-06-09_20-42-35_260595134347_rgbf000110-resize_1/000665_2014-06-09_20-42-35_260595134347_rgbf000110-resize_1-target.png,depth_discrimination_stimuli/001150_2014-06-17_15-27-34_260595134347_rgbf000108-resize_2/001150_2014-06-17_15-27-34_260595134347_rgbf000108-resize_2-target.png,250.0,3.057,4.0325,0.0,1384,1004,259,991,258,491,,541649,36,Man
61,607296,DepthScenes,v2_duration_discrimination,discrim_jsons/Discrim250_randls_58_rotated.json,http://54.235.29.9/FacialAge/BNav_EC2/DepthDuration/v2_depth_discrimination_MTurk/v2_DepthDiscrim_HTML.html#103,103,1366,625,1366,768,9-17-2022,11-9-50,62,depth_discrimination_stimuli/003228_2014-05-14_13-42-35_094959634447_rgbf000101-resize_1/003228_2014-05-14_13-42-35_094959634447_rgbf000101-resize_1-target.png,depth_discrimination_stimuli/002600_2014-06-24_14-27-04_094959634447_rgbf000074-resize_2/002600_2014-06-24_14-27-04_094959634447_rgbf000074-resize_2-target.png,250.0,1.9680000000000002,2.7575,0.0,968,1014,239,1011,250,500,,541649,36,Man
62,607296,DepthScenes,v2_duration_discrimination,discrim_jsons/Discrim250_randls_58_rotated.json,http://54.235.29.9/FacialAge/BNav_EC2/DepthDuration/v2_depth_discrimination_MTurk/v2_DepthDiscrim_HTML.html#103,103,1366,625,1366,768,9-17-2022,11-9-50,63,depth_discrimination_stimuli/000787_2014-06-08_22-33-53_260595134347_rgbf000175-resize_1/000787_2014-06-08_22-33-53_260595134347_rgbf000175-resize_1-target.png,depth_discrimination_stimuli/000787_2014-06-08_22-33-53_260595134347_rgbf000175-resize_1/000787_2014-06-08_22-33-53_260595134347_rgbf000175-resize_1-target.png,250.0,4.784,4.784,3.0,1071,1006,251,1000,248,509,,541649,36,Man
63,607296,DepthScenes,v2_duration_discrimination,discrim_jsons/Discrim250_randls_58_rotated.json,http://54.235.29.9/FacialAge/BNav_EC2/DepthDuration/v2_depth_discrimination_MTurk/v2_DepthDiscrim_HTML.html#103,103,1366,625,1366,768,9-17-2022,11-9-50,64,depth_discrimination_stimuli/002444_2014-06-28_20-32-08_260595134347_rgbf000027-resize_0/002444_2014-06-28_20-32-08_260595134347_rgbf000027-resize_0-target.png,depth_discrimination_stimuli/000436_2014-06-09_22-25-11_260595134347_rgbf000137-resize_1/000436_2014-06-09_22-25-11_260595134347_rgbf000137-resize_1-target.png,250.0,4.388999999999999,4.0705,1.0,1795,1011,244,1000,260,498,,541649,36,Man
64,607296,DepthScenes,v2_duration_discrimination,discrim_jsons/Discrim250_randls_58_rotated.json,http://54.235.29.9/FacialAge/BNav_EC2/DepthDuration/v2_depth_discrimination_MTurk/v2_DepthDiscrim_HTML.html#103,103,1366,625,1366,768,9-17-2022,11-9-50,65,depth_discrimination_stimuli/001094_2014-06-15_17-36-00_260595134347_rgbf000205-resize_0/001094_2014-06-15_17-36-00_260595134347_rgbf000205-resize_0-target.png,depth_discrimination_stimuli/000692_2014-06-08_13-09-42_260595134347_rgbf000199-resize_2/000692_2014-06-08_13-09-42_260595134347_rgbf000199-resize_2-target.png,250.0,4.2175,3.661,0.0,1068,1003,250,1000,252,497,,541649,36,Man
65,607296,DepthScenes,v2_duration_discrimination,discrim_jsons/Discrim250_randls_58_rotated.json,http://54.235.29.9/FacialAge/BNav_EC2/DepthDuration/v2_depth_discrimination_MTurk/v2_DepthDiscrim_HTML.html#103,103,1366,625,1366,768,9-17-2022,11-9-50,66,depth_discrimination_stimuli/001450_2014-06-19_17-02-03_260595134347_rgbf000203-resize_4/001450_2014-06-19_17-02-03_260595134347_rgbf000203-resize_4-target.png,depth_discrimination_stimuli/001449_2014-06-19_17-01-27_260595134347_rgbf000116-resize_2/001449_2014-06-19_17-01-27_260595134347_rgbf000116-resize_2-target.png,250.0,4.0106666666667,3.452,1.0,1104,1007,253,1006,251,498,,541649,36,Man
66,607296,DepthScenes,v2_duration_discrimination,discrim_jsons/Discrim250_randls_58_rotated.json,http://54.235.29.9/FacialAge/BNav_EC2/DepthDuration/v2_depth_discrimination_MTurk/v2_DepthDiscrim_HTML.html#103,103,1366,625,1366,768,9-17-2022,11-9-50,67,depth_discrimination_stimuli/000943_2014-06-09_19-31-07_260595134347_rgbf000128-resize_1/000943_2014-06-09_19-31-07_260595134347_rgbf000128-resize_1-target.png,depth_discrimination_stimuli/003070_2014-06-15_14-58-27_094959634447_rgbf000150-resize_3/003070_2014-06-15_14-58-27_094959634447_rgbf000150-resize_3-target.png,250.0,1.9765,2.9415,0.0,1013,1008,249,996,250,507,,541649,36,Man
67,607296,DepthScenes,v2_duration_discrimination,discrim_jsons/Discrim250_randls_58_rotated.json,http://54.235.29.9/FacialAge/BNav_EC2/DepthDuration/v2_depth_discrimination_MTurk/v2_DepthDiscrim_HTML.html#103,103,1366,625,1366,768,9-17-2022,11-9-50,68,depth_discrimination_stimuli/003338_2014-05-20_11-01-23_094959634447_rgbf000051-resize_6/003338_2014-05-20_11-01-23_094959634447_rgbf000051-resize_6-target.png,depth_discrimination_stimuli/002509_2014-06-24_13-19-22_094959634447_rgbf000077-resize_0/002509_2014-06-24_13-19-22_094959634447_rgbf000077-resize_0-target.png,250.0,1.693,1.3065,0.0,1284,1003,255,998,267,480,,541649,36,Man
68,607296,DepthScenes,v2_duration_discrimination,discrim_jsons/Discrim250_randls_58_rotated.json,http://54.235.29.9/FacialAge/BNav_EC2/DepthDuration/v2_depth_discrimination_MTurk/v2_DepthDiscrim_HTML.html#103,103,1366,625,1366,768,9-17-2022,11-9-50,69,depth_discrimination_stimuli/000780_2014-06-08_22-28-29_260595134347_rgbf000126-resize_1/000780_2014-06-08_22-28-29_260595134347_rgbf000126-resize_1-target.png,depth_discrimination_stimuli/002445_2014-06-28_20-32-16_260595134347_rgbf000029-resize_4/002445_2014-06-28_20-32-16_260595134347_rgbf000029-resize_4-target.png,250.0,3.3825,2.5315,0.0,1269,1003,261,1009,232,509,,541649,36,Man
69,607296,DepthScenes,v2_duration_discrimination,discrim_jsons/Discrim250_randls_58_rotated.json,http://54.235.29.9/FacialAge/BNav_EC2/DepthDuration/v2_depth_discrimination_MTurk/v2_DepthDiscrim_HTML.html#103,103,1366,625,1366,768,9-17-2022,11-9-50,70,depth_discrimination_stimuli/002657_2014-06-13_15-29-54_094959634447_rgbf000150-resize_1/002657_2014-06-13_15-29-54_094959634447_rgbf000150-resize_1-target.png,depth_discrimination_stimuli/002375_2014-06-28_20-13-44_260595134347_rgbf000032-resize_1/002375_2014-06-28_20-13-44_260595134347_rgbf000032-resize_1-target.png,250.0,4.919,4.0175,1.0,1891,1001,250,1001,248,507,,541649,36,Man
70,607296,DepthScenes,v2_duration_discrimination,discrim_jsons/Discrim250_randls_58_rotated.json,http://54.235.29.9/FacialAge/BNav_EC2/DepthDuration/v2_depth_discrimination_MTurk/v2_DepthDiscrim_HTML.html#103,103,1366,625,1366,768,9-17-2022,11-9-50,71,depth_discrimination_stimuli/000375_2014-06-08_11-17-29_260595134347_rgbf000133-resize_2/000375_2014-06-08_11-17-29_260595134347_rgbf000133-resize_2-target.png,depth_discrimination_stimuli/000375_2014-06-08_11-17-29_260595134347_rgbf000133-resize_2/000375_2014-06-08_11-17-29_260595134347_rgbf000133-resize_2-target.png,250.0,4.718,4.718,3.0,1028,1001,258,1005,250,499,,541649,36,Man
71,607296,DepthScenes,v2_duration_discrimination,discrim_jsons/Discrim250_randls_58_rotated.json,http://54.235.29.9/FacialAge/BNav_EC2/DepthDuration/v2_depth_discrimination_MTurk/v2_DepthDiscrim_HTML.html#103,103,1366,625,1366,768,9-17-2022,11-9-50,72,depth_discrimination_stimuli/002949_2014-06-26_15-57-42_094959634447_rgbf000079-resize_1/002949_2014-06-26_15-57-42_094959634447_rgbf000079-resize_1-target.png,depth_discrimination_stimuli/000522_2014-06-08_13-35-06_260595134347_rgbf000244-resize_1/000522_2014-06-08_13-35-06_260595134347_rgbf000244-resize_1-target.png,250.0,1.8915,2.3715,1.0,1399,1009,256,993,249,498,,541649,36,Man
72,607296,DepthScenes,v2_duration_discrimination,discrim_jsons/Discrim250_randls_58_rotated.json,http://54.235.29.9/FacialAge/BNav_EC2/DepthDuration/v2_depth_discrimination_MTurk/v2_DepthDiscrim_HTML.html#103,103,1366,625,1366,768,9-17-2022,11-9-50,73,depth_discrimination_stimuli/001516_2014-06-20_16-25-09_260595134347_rgbf000076-resize_2/001516_2014-06-20_16-25-09_260595134347_rgbf000076-resize_2-target.png,depth_discrimination_stimuli/002118_2014-06-25_20-32-08_260595134347_rgbf000078-resize_1/002118_2014-06-25_20-32-08_260595134347_rgbf000078-resize_1-target.png,250.0,1.7445,2.6460000000000004,0.0,949,1006,245,1015,235,513,,541649,36,Man
73,607296,DepthScenes,v2_duration_discrimination,discrim_jsons/Discrim250_randls_58_rotated.json,http://54.235.29.9/FacialAge/BNav_EC2/DepthDuration/v2_depth_discrimination_MTurk/v2_DepthDiscrim_HTML.html#103,103,1366,625,1366,768,9-17-2022,11-9-50,74,depth_discrimination_stimuli/001235_2014-06-17_16-37-36_260595134347_rgbf000084-resize_4/001235_2014-06-17_16-37-36_260595134347_rgbf000084-resize_4-target.png,depth_discrimination_stimuli/000788_2014-06-08_22-34-36_260595134347_rgbf000131-resize_1/000788_2014-06-08_22-34-36_260595134347_rgbf000131-resize_1-target.png,250.0,3.6605,3.359,0.0,1060,1016,235,1007,258,500,,541649,36,Man
74,607296,DepthScenes,v2_duration_discrimination,discrim_jsons/Discrim250_randls_58_rotated.json,http://54.235.29.9/FacialAge/BNav_EC2/DepthDuration/v2_depth_discrimination_MTurk/v2_DepthDiscrim_HTML.html#103,103,1366,625,1366,768,9-17-2022,11-9-50,75,depth_discrimination_stimuli/000191_2014-05-12_17-07-38_260595134347_rgbf000199-resize_0/000191_2014-05-12_17-07-38_260595134347_rgbf000199-resize_0-target.png,depth_discrimination_stimuli/000493_2014-06-09_21-01-18_260595134347_rgbf000196-resize_3/000493_2014-06-09_21-01-18_260595134347_rgbf000196-resize_3-target.png,250.0,3.7995,3.44,1.0,1068,1005,253,997,247,510,,541649,36,Man
75,607296,DepthScenes,v2_duration_discrimination,discrim_jsons/Discrim250_randls_58_rotated.json,http://54.235.29.9/FacialAge/BNav_EC2/DepthDuration/v2_depth_discrimination_MTurk/v2_DepthDiscrim_HTML.html#103,103,1366,625,1366,768,9-17-2022,11-9-50,76,depth_discrimination_stimuli/002545_2014-06-24_13-38-53_094959634447_rgbf000080-resize_4/002545_2014-06-24_13-38-53_094959634447_rgbf000080-resize_4-target.png,depth_discrimination_stimuli/001092_2014-06-15_17-34-58_260595134347_rgbf000171-resize_3/001092_2014-06-15_17-34-58_260595134347_rgbf000171-resize_3-target.png,250.0,1.9205,2.6935,1.0,1052,1006,249,999,251,499,,541649,36,Man
76,607296,DepthScenes,v2_duration_discrimination,discrim_jsons/Discrim250_randls_58_rotated.json,http://54.235.29.9/FacialAge/BNav_EC2/DepthDuration/v2_depth_discrimination_MTurk/v2_DepthDiscrim_HTML.html#103,103,1366,625,1366,768,9-17-2022,11-9-50,77,depth_discrimination_stimuli/002344_2014-06-28_20-06-29_260595134347_rgbf000030-resize_1/002344_2014-06-28_20-06-29_260595134347_rgbf000030-resize_1-target.png,depth_discrimination_stimuli/002725_2014-06-22_11-47-51_094959634447_rgbf000070-resize_1/002725_2014-06-22_11-47-51_094959634447_rgbf000070-resize_1-target.png,250.0,1.5795,2.195,0.0,932,1015,239,1001,246,511,,541649,36,Man
77,607296,DepthScenes,v2_duration_discrimination,discrim_jsons/Discrim250_randls_58_rotated.json,http://54.235.29.9/FacialAge/BNav_EC2/DepthDuration/v2_depth_discrimination_MTurk/v2_DepthDiscrim_HTML.html#103,103,1366,625,1366,768,9-17-2022,11-9-50,78,depth_discrimination_stimuli/003495_2014-05-21_16-01-51_094959634447_rgbf000100-resize_3/003495_2014-05-21_16-01-51_094959634447_rgbf000100-resize_3-target.png,depth_discrimination_stimuli/001244_2014-06-17_16-47-45_260595134347_rgbf000030-resize_4/001244_2014-06-17_16-47-45_260595134347_rgbf000030-resize_4-target.png,250.0,1.6255,2.0425,0.0,1260,1002,263,989,251,527,,541649,36,Man
78,607296,DepthScenes,v2_duration_discrimination,discrim_jsons/Discrim250_randls_58_rotated.json,http://54.235.29.9/FacialAge/BNav_EC2/DepthDuration/v2_depth_discrimination_MTurk/v2_DepthDiscrim_HTML.html#103,103,1366,625,1366,768,9-17-2022,11-9-50,79,depth_discrimination_stimuli/001617_2014-06-20_11-35-32_260595134347_rgbf000066-resize_1/001617_2014-06-20_11-35-32_260595134347_rgbf000066-resize_1-target.png,depth_discrimination_stimuli/001806_2014-06-26_20-50-20_260595134347_rgbf000091-resize_1/001806_2014-06-26_20-50-20_260595134347_rgbf000091-resize_1-target.png,250.0,3.7910000000000004,2.7305,1.0,870,1013,250,1006,235,508,,541649,36,Man
79,607296,DepthScenes,v2_duration_discrimination,discrim_jsons/Discrim250_randls_58_rotated.json,http://54.235.29.9/FacialAge/BNav_EC2/DepthDuration/v2_depth_discrimination_MTurk/v2_DepthDiscrim_HTML.html#103,103,1366,625,1366,768,9-17-2022,11-9-50,80,depth_discrimination_stimuli/000569_2014-06-09_22-51-47_260595134347_rgbf000141-resize_3/000569_2014-06-09_22-51-47_260595134347_rgbf000141-resize_3-target.png,depth_discrimination_stimuli/000569_2014-06-09_22-51-47_260595134347_rgbf000141-resize_3/000569_2014-06-09_22-51-47_260595134347_rgbf000141-resize_3-target.png,250.0,4.512,4.512,3.0,1037,1007,244,1001,255,508,,541649,36,Man
80,607296,DepthScenes,v2_duration_discrimination,discrim_jsons/Discrim250_randls_58_rotated.json,http://54.235.29.9/FacialAge/BNav_EC2/DepthDuration/v2_depth_discrimination_MTurk/v2_DepthDiscrim_HTML.html#103,103,1366,625,1366,768,9-17-2022,11-9-50,81,depth_discrimination_stimuli/001052_2014-06-08_18-24-54_260595134347_rgbf000130-resize_1/001052_2014-06-08_18-24-54_260595134347_rgbf000130-resize_1-target.png,depth_discrimination_stimuli/002988_2014-06-15_12-24-20_094959634447_rgbf000150-resize_1/002988_2014-06-15_12-24-20_094959634447_rgbf000150-resize_1-target.png,250.0,4.1045,4.7669999999999995,0.0,965,1010,240,1006,255,498,,541649,36,Man
81,607296,DepthScenes,v2_duration_discrimination,discrim_jsons/Discrim250_randls_58_rotated.json,http://54.235.29.9/FacialAge/BNav_EC2/DepthDuration/v2_depth_discrimination_MTurk/v2_DepthDiscrim_HTML.html#103,103,1366,625,1366,768,9-17-2022,11-9-50,82,depth_discrimination_stimuli/002414_2014-06-28_20-24-58_260595134347_rgbf000067-resize_4/002414_2014-06-28_20-24-58_260595134347_rgbf000067-resize_4-target.png,depth_discrimination_stimuli/000773_2014-06-08_22-24-54_260595134347_rgbf000093-resize_1/000773_2014-06-08_22-24-54_260595134347_rgbf000093-resize_1-target.png,250.0,4.363,4.973,0.0,1011,1001,262,994,254,496,,541649,36,Man
82,607296,DepthScenes,v2_duration_discrimination,discrim_jsons/Discrim250_randls_58_rotated.json,http://54.235.29.9/FacialAge/BNav_EC2/DepthDuration/v2_depth_discrimination_MTurk/v2_DepthDiscrim_HTML.html#103,103,1366,625,1366,768,9-17-2022,11-9-50,83,depth_discrimination_stimuli/000734_2014-06-08_17-39-11_260595134347_rgbf000128-resize_2/000734_2014-06-08_17-39-11_260595134347_rgbf000128-resize_2-target.png,depth_discrimination_stimuli/000739_2014-06-08_18-45-58_260595134347_rgbf000068-resize_1/000739_2014-06-08_18-45-58_260595134347_rgbf000068-resize_1-target.png,250.0,4.098,3.534,1.0,1352,1009,243,1004,247,512,,541649,36,Man
83,607296,DepthScenes,v2_duration_discrimination,discrim_jsons/Discrim250_randls_58_rotated.json,http://54.235.29.9/FacialAge/BNav_EC2/DepthDuration/v2_depth_discrimination_MTurk/v2_DepthDiscrim_HTML.html#103,103,1366,625,1366,768,9-17-2022,11-9-50,84,depth_discrimination_stimuli/000691_2014-06-08_13-08-50_260595134347_rgbf000132-resize_3/000691_2014-06-08_13-08-50_260595134347_rgbf000132-resize_3-target.png,depth_discrimination_stimuli/002213_2014-06-28_18-37-58_260595134347_rgbf000055-resize_1/002213_2014-06-28_18-37-58_260595134347_rgbf000055-resize_1-target.png,250.0,4.1530000000000005,3.62,0.0,1912,1012,240,1006,246,499,,541649,36,Man
84,607296,DepthScenes,v2_duration_discrimination,discrim_jsons/Discrim250_randls_58_rotated.json,http://54.235.29.9/FacialAge/BNav_EC2/DepthDuration/v2_depth_discrimination_MTurk/v2_DepthDiscrim_HTML.html#103,103,1366,625,1366,768,9-17-2022,11-9-50,85,depth_discrimination_stimuli/001650_2014-06-20_12-09-00_260595134347_rgbf000087-resize_3/001650_2014-06-20_12-09-00_260595134347_rgbf000087-resize_3-target.png,depth_discrimination_stimuli/000682_2014-06-08_23-14-58_260595134347_rgbf000041-resize_5/000682_2014-06-08_23-14-58_260595134347_rgbf000041-resize_5-target.png,250.0,1.9505,2.7239999999999998,0.0,886,1017,248,997,245,498,,541649,36,Man
85,607296,DepthScenes,v2_duration_discrimination,discrim_jsons/Discrim250_randls_58_rotated.json,http://54.235.29.9/FacialAge/BNav_EC2/DepthDuration/v2_depth_discrimination_MTurk/v2_DepthDiscrim_HTML.html#103,103,1366,625,1366,768,9-17-2022,11-9-50,86,depth_discrimination_stimuli/000677_2014-06-08_23-10-32_260595134347_rgbf000158-resize_6/000677_2014-06-08_23-10-32_260595134347_rgbf000158-resize_6-target.png,depth_discrimination_stimuli/001029_2014-06-08_13-17-57_260595134347_rgbf000065-resize_1/001029_2014-06-08_13-17-57_260595134347_rgbf000065-resize_1-target.png,250.0,3.556,3.0835,1.0,1024,1002,249,1008,256,496,,541649,36,Man
86,607296,DepthScenes,v2_duration_discrimination,discrim_jsons/Discrim250_randls_58_rotated.json,http://54.235.29.9/FacialAge/BNav_EC2/DepthDuration/v2_depth_discrimination_MTurk/v2_DepthDiscrim_HTML.html#103,103,1366,625,1366,768,9-17-2022,11-9-50,86,,,,,,,1024,1002,249,1008,256,496,,541649,36,Man
