,subjID,experimentName,versionName,sequenceName,url,selected_row,windowWidth,windowHeight,screenWidth,screenHeight,startDate,startTime,trial,stimulus_0,stimulus_1,duration,actual_depth_0,actual_depth_1,discrim_choice,trial_RT,log_fixation,log_sceneDuration1,log_mask1,log_sceneDuration2,log_mask2,experimentTime,totalTime,age,gender
0,773551,DepthScenes,v2_duration_discrimination,discrim_jsons/Discrim1000_randls_8_rotated.json,http://54.235.29.9/FacialAge/BNav_EC2/DepthDuration/v2_depth_discrimination_MTurk/v2_DepthDiscrim_HTML.html#97,97,1680,907,1680,1050,9-20-2022,11-38-7,1,depth_discrimination_stimuli/001447_2014-06-19_17-00-32_260595134347_rgbf000082-resize_5/001447_2014-06-19_17-00-32_260595134347_rgbf000082-resize_5-target.png,depth_discrimination_stimuli/000447_2014-06-08_16-15-46_260595134347_rgbf000130-resize_1/000447_2014-06-08_16-15-46_260595134347_rgbf000130-resize_1-target.png,1000.0,4.13775,4.479,0.0,4458,1006,985,1029,982,501,,1184125,1989,Man
1,773551,DepthScenes,v2_duration_discrimination,discrim_jsons/Discrim1000_randls_8_rotated.json,http://54.235.29.9/FacialAge/BNav_EC2/DepthDuration/v2_depth_discrimination_MTurk/v2_DepthDiscrim_HTML.html#97,97,1680,907,1680,1050,9-20-2022,11-38-7,2,depth_discrimination_stimuli/002136_2014-06-25_21-18-03_260595134347_rgbf000109-resize_3/002136_2014-06-25_21-18-03_260595134347_rgbf000109-resize_3-target.png,depth_discrimination_stimuli/002964_2014-06-08_17-46-11_094959634447_rgbf000091-resize_4/002964_2014-06-08_17-46-11_094959634447_rgbf000091-resize_4-target.png,1000.0,1.9569999999999999,1.6909999999999998,0.0,4227,1007,1005,1008,1053,436,,1184125,1989,Man
2,773551,DepthScenes,v2_duration_discrimination,discrim_jsons/Discrim1000_randls_8_rotated.json,http://54.235.29.9/FacialAge/BNav_EC2/DepthDuration/v2_depth_discrimination_MTurk/v2_DepthDiscrim_HTML.html#97,97,1680,907,1680,1050,9-20-2022,11-38-7,3,depth_discrimination_stimuli/000109_2014-05-14_23-41-52_260595134347_rgbf000035-resize_9/000109_2014-05-14_23-41-52_260595134347_rgbf000035-resize_9-target.png,depth_discrimination_stimuli/000470_2014-06-09_19-42-40_260595134347_rgbf000094-resize_1/000470_2014-06-09_19-42-40_260595134347_rgbf000094-resize_1-target.png,1000.0,1.3545,1.831,1.0,4070,1035,982,985,1027,535,,1184125,1989,Man
3,773551,DepthScenes,v2_duration_discrimination,discrim_jsons/Discrim1000_randls_8_rotated.json,http://54.235.29.9/FacialAge/BNav_EC2/DepthDuration/v2_depth_discrimination_MTurk/v2_DepthDiscrim_HTML.html#97,97,1680,907,1680,1050,9-20-2022,11-38-7,4,depth_discrimination_stimuli/002657_2014-06-13_15-29-54_094959634447_rgbf000150-resize_1/002657_2014-06-13_15-29-54_094959634447_rgbf000150-resize_1-target.png,depth_discrimination_stimuli/002375_2014-06-28_20-13-44_260595134347_rgbf000032-resize_1/002375_2014-06-28_20-13-44_260595134347_rgbf000032-resize_1-target.png,1000.0,4.919,4.0175,3.0,3198,1010,988,1010,996,527,,1184125,1989,Man
4,773551,DepthScenes,v2_duration_discrimination,discrim_jsons/Discrim1000_randls_8_rotated.json,http://54.235.29.9/FacialAge/BNav_EC2/DepthDuration/v2_depth_discrimination_MTurk/v2_DepthDiscrim_HTML.html#97,97,1680,907,1680,1050,9-20-2022,11-38-7,5,depth_discrimination_stimuli/001617_2014-06-20_11-35-32_260595134347_rgbf000066-resize_1/001617_2014-06-20_11-35-32_260595134347_rgbf000066-resize_1-target.png,depth_discrimination_stimuli/001806_2014-06-26_20-50-20_260595134347_rgbf000091-resize_1/001806_2014-06-26_20-50-20_260595134347_rgbf000091-resize_1-target.png,1000.0,3.7910000000000004,2.7305,1.0,5768,1018,1005,1006,997,491,,1184125,1989,Man
5,773551,DepthScenes,v2_duration_discrimination,discrim_jsons/Discrim1000_randls_8_rotated.json,http://54.235.29.9/FacialAge/BNav_EC2/DepthDuration/v2_depth_discrimination_MTurk/v2_DepthDiscrim_HTML.html#97,97,1680,907,1680,1050,9-20-2022,11-38-7,6,depth_discrimination_stimuli/002344_2014-06-28_20-06-29_260595134347_rgbf000030-resize_1/002344_2014-06-28_20-06-29_260595134347_rgbf000030-resize_1-target.png,depth_discrimination_stimuli/002725_2014-06-22_11-47-51_094959634447_rgbf000070-resize_1/002725_2014-06-22_11-47-51_094959634447_rgbf000070-resize_1-target.png,1000.0,1.5795,2.195,0.0,3592,1015,999,998,1048,426,,1184125,1989,Man
6,773551,DepthScenes,v2_duration_discrimination,discrim_jsons/Discrim1000_randls_8_rotated.json,http://54.235.29.9/FacialAge/BNav_EC2/DepthDuration/v2_depth_discrimination_MTurk/v2_DepthDiscrim_HTML.html#97,97,1680,907,1680,1050,9-20-2022,11-38-7,7,depth_discrimination_stimuli/002875_2014-06-01_15-19-00_094959634447_rgbf000151-resize_1/002875_2014-06-01_15-19-00_094959634447_rgbf000151-resize_1-target.png,depth_discrimination_stimuli/001011_2014-06-08_23-18-54_260595134347_rgbf000044-resize_4/001011_2014-06-08_23-18-54_260595134347_rgbf000044-resize_4-target.png,1000.0,1.9675,2.4730000000000003,1.0,5495,1002,1011,996,982,507,,1184125,1989,Man
7,773551,DepthScenes,v2_duration_discrimination,discrim_jsons/Discrim1000_randls_8_rotated.json,http://54.235.29.9/FacialAge/BNav_EC2/DepthDuration/v2_depth_discrimination_MTurk/v2_DepthDiscrim_HTML.html#97,97,1680,907,1680,1050,9-20-2022,11-38-7,8,depth_discrimination_stimuli/001815_2014-06-26_20-52-55_260595134347_rgbf000020-resize_0/001815_2014-06-26_20-52-55_260595134347_rgbf000020-resize_0-target.png,depth_discrimination_stimuli/001808_2014-06-26_20-50-58_260595134347_rgbf000029-resize_1/001808_2014-06-26_20-50-58_260595134347_rgbf000029-resize_1-target.png,1000.0,3.3865,4.249,3.0,3130,1001,1005,1000,995,498,,1184125,1989,Man
8,773551,DepthScenes,v2_duration_discrimination,discrim_jsons/Discrim1000_randls_8_rotated.json,http://54.235.29.9/FacialAge/BNav_EC2/DepthDuration/v2_depth_discrimination_MTurk/v2_DepthDiscrim_HTML.html#97,97,1680,907,1680,1050,9-20-2022,11-38-7,9,depth_discrimination_stimuli/000549_2014-06-08_22-10-24_260595134347_rgbf000247-resize_3/000549_2014-06-08_22-10-24_260595134347_rgbf000247-resize_3-target.png,depth_discrimination_stimuli/001055_2014-06-08_18-45-35_260595134347_rgbf000111-resize_4/001055_2014-06-08_18-45-35_260595134347_rgbf000111-resize_4-target.png,1000.0,1.841,2.4290000000000003,0.0,4315,1015,994,1009,991,501,,1184125,1989,Man
9,773551,DepthScenes,v2_duration_discrimination,discrim_jsons/Discrim1000_randls_8_rotated.json,http://54.235.29.9/FacialAge/BNav_EC2/DepthDuration/v2_depth_discrimination_MTurk/v2_DepthDiscrim_HTML.html#97,97,1680,907,1680,1050,9-20-2022,11-38-7,10,depth_discrimination_stimuli/001498_2014-06-19_17-45-14_260595134347_rgbf000129-resize_4/001498_2014-06-19_17-45-14_260595134347_rgbf000129-resize_4-target.png,depth_discrimination_stimuli/001498_2014-06-19_17-45-14_260595134347_rgbf000129-resize_4/001498_2014-06-19_17-45-14_260595134347_rgbf000129-resize_4-target.png,1000.0,1.4075,1.4075,3.0,5088,1026,990,1023,994,491,,1184125,1989,Man
10,773551,DepthScenes,v2_duration_discrimination,discrim_jsons/Discrim1000_randls_8_rotated.json,http://54.235.29.9/FacialAge/BNav_EC2/DepthDuration/v2_depth_discrimination_MTurk/v2_DepthDiscrim_HTML.html#97,97,1680,907,1680,1050,9-20-2022,11-38-7,11,depth_discrimination_stimuli/002340_2014-06-28_20-05-46_260595134347_rgbf000113-resize_0/002340_2014-06-28_20-05-46_260595134347_rgbf000113-resize_0-target.png,depth_discrimination_stimuli/001016_2014-06-09_16-16-10_260595134347_rgbf000112-resize_5/001016_2014-06-09_16-16-10_260595134347_rgbf000112-resize_5-target.png,1000.0,2.4735,1.6565,1.0,4173,1022,1006,1001,988,604,,1184125,1989,Man
11,773551,DepthScenes,v2_duration_discrimination,discrim_jsons/Discrim1000_randls_8_rotated.json,http://54.235.29.9/FacialAge/BNav_EC2/DepthDuration/v2_depth_discrimination_MTurk/v2_DepthDiscrim_HTML.html#97,97,1680,907,1680,1050,9-20-2022,11-38-7,12,depth_discrimination_stimuli/002953_2014-06-08_17-32-18_094959634447_rgbf000059-resize_5/002953_2014-06-08_17-32-18_094959634447_rgbf000059-resize_5-target.png,depth_discrimination_stimuli/000878_2014-06-08_22-52-45_260595134347_rgbf000045-resize_2/000878_2014-06-08_22-52-45_260595134347_rgbf000045-resize_2-target.png,1000.0,1.551,2.092,0.0,5205,1012,988,1033,973,494,,1184125,1989,Man
12,773551,DepthScenes,v2_duration_discrimination,discrim_jsons/Discrim1000_randls_8_rotated.json,http://54.235.29.9/FacialAge/BNav_EC2/DepthDuration/v2_depth_discrimination_MTurk/v2_DepthDiscrim_HTML.html#97,97,1680,907,1680,1050,9-20-2022,11-38-7,13,depth_discrimination_stimuli/002750_2014-06-22_19-08-03_094959634447_rgbf000094-resize_4/002750_2014-06-22_19-08-03_094959634447_rgbf000094-resize_4-target.png,depth_discrimination_stimuli/002549_2014-06-24_13-41-39_094959634447_rgbf000022-resize_3/002549_2014-06-24_13-41-39_094959634447_rgbf000022-resize_3-target.png,1000.0,2.354,1.476,1.0,6607,1011,963,993,1004,485,,1184125,1989,Man
13,773551,DepthScenes,v2_duration_discrimination,discrim_jsons/Discrim1000_randls_8_rotated.json,http://54.235.29.9/FacialAge/BNav_EC2/DepthDuration/v2_depth_discrimination_MTurk/v2_DepthDiscrim_HTML.html#97,97,1680,907,1680,1050,9-20-2022,11-38-7,14,depth_discrimination_stimuli/000780_2014-06-08_22-28-29_260595134347_rgbf000126-resize_1/000780_2014-06-08_22-28-29_260595134347_rgbf000126-resize_1-target.png,depth_discrimination_stimuli/002445_2014-06-28_20-32-16_260595134347_rgbf000029-resize_4/002445_2014-06-28_20-32-16_260595134347_rgbf000029-resize_4-target.png,1000.0,3.3825,2.5315,1.0,4945,1025,1001,993,979,557,,1184125,1989,Man
14,773551,DepthScenes,v2_duration_discrimination,discrim_jsons/Discrim1000_randls_8_rotated.json,http://54.235.29.9/FacialAge/BNav_EC2/DepthDuration/v2_depth_discrimination_MTurk/v2_DepthDiscrim_HTML.html#97,97,1680,907,1680,1050,9-20-2022,11-38-7,15,depth_discrimination_stimuli/003228_2014-05-14_13-42-35_094959634447_rgbf000101-resize_1/003228_2014-05-14_13-42-35_094959634447_rgbf000101-resize_1-target.png,depth_discrimination_stimuli/002600_2014-06-24_14-27-04_094959634447_rgbf000074-resize_2/002600_2014-06-24_14-27-04_094959634447_rgbf000074-resize_2-target.png,1000.0,1.9680000000000002,2.7575,1.0,4106,1022,1014,976,1001,630,,1184125,1989,Man
15,773551,DepthScenes,v2_duration_discrimination,discrim_jsons/Discrim1000_randls_8_rotated.json,http://54.235.29.9/FacialAge/BNav_EC2/DepthDuration/v2_depth_discrimination_MTurk/v2_DepthDiscrim_HTML.html#97,97,1680,907,1680,1050,9-20-2022,11-38-7,16,depth_discrimination_stimuli/002072_2014-06-24_21-48-06_260595134347_rgbf000115-resize_0/002072_2014-06-24_21-48-06_260595134347_rgbf000115-resize_0-target.png,depth_discrimination_stimuli/002072_2014-06-24_21-48-06_260595134347_rgbf000115-resize_0/002072_2014-06-24_21-48-06_260595134347_rgbf000115-resize_0-target.png,1000.0,4.702,4.702,3.0,2706,1014,1015,1006,978,515,,1184125,1989,Man
16,773551,DepthScenes,v2_duration_discrimination,discrim_jsons/Discrim1000_randls_8_rotated.json,http://54.235.29.9/FacialAge/BNav_EC2/DepthDuration/v2_depth_discrimination_MTurk/v2_DepthDiscrim_HTML.html#97,97,1680,907,1680,1050,9-20-2022,11-38-7,17,depth_discrimination_stimuli/000709_2014-06-08_13-51-55_260595134347_rgbf000068-resize_3/000709_2014-06-08_13-51-55_260595134347_rgbf000068-resize_3-target.png,depth_discrimination_stimuli/002057_2014-06-24_21-00-13_260595134347_rgbf000120-resize_1/002057_2014-06-24_21-00-13_260595134347_rgbf000120-resize_1-target.png,1000.0,1.8030000000000002,2.967,3.0,5048,1008,997,1044,986,468,,1184125,1989,Man
17,773551,DepthScenes,v2_duration_discrimination,discrim_jsons/Discrim1000_randls_8_rotated.json,http://54.235.29.9/FacialAge/BNav_EC2/DepthDuration/v2_depth_discrimination_MTurk/v2_DepthDiscrim_HTML.html#97,97,1680,907,1680,1050,9-20-2022,11-38-7,18,depth_discrimination_stimuli/000103_2014-05-14_22-01-17_260595134347_rgbf000152-resize_5/000103_2014-05-14_22-01-17_260595134347_rgbf000152-resize_5-target.png,depth_discrimination_stimuli/001555_2014-06-20_17-12-10_260595134347_rgbf000065-resize_4/001555_2014-06-20_17-12-10_260595134347_rgbf000065-resize_4-target.png,1000.0,1.993,1.633,1.0,4539,1023,986,1010,968,509,,1184125,1989,Man
18,773551,DepthScenes,v2_duration_discrimination,discrim_jsons/Discrim1000_randls_8_rotated.json,http://54.235.29.9/FacialAge/BNav_EC2/DepthDuration/v2_depth_discrimination_MTurk/v2_DepthDiscrim_HTML.html#97,97,1680,907,1680,1050,9-20-2022,11-38-7,19,depth_discrimination_stimuli/001094_2014-06-15_17-36-00_260595134347_rgbf000205-resize_0/001094_2014-06-15_17-36-00_260595134347_rgbf000205-resize_0-target.png,depth_discrimination_stimuli/000692_2014-06-08_13-09-42_260595134347_rgbf000199-resize_2/000692_2014-06-08_13-09-42_260595134347_rgbf000199-resize_2-target.png,1000.0,4.2175,3.661,1.0,5918,1010,1000,1004,987,545,,1184125,1989,Man
19,773551,DepthScenes,v2_duration_discrimination,discrim_jsons/Discrim1000_randls_8_rotated.json,http://54.235.29.9/FacialAge/BNav_EC2/DepthDuration/v2_depth_discrimination_MTurk/v2_DepthDiscrim_HTML.html#97,97,1680,907,1680,1050,9-20-2022,11-38-7,20,depth_discrimination_stimuli/001052_2014-06-08_18-24-54_260595134347_rgbf000130-resize_1/001052_2014-06-08_18-24-54_260595134347_rgbf000130-resize_1-target.png,depth_discrimination_stimuli/002988_2014-06-15_12-24-20_094959634447_rgbf000150-resize_1/002988_2014-06-15_12-24-20_094959634447_rgbf000150-resize_1-target.png,1000.0,4.1045,4.7669999999999995,1.0,5855,1009,1004,991,998,500,,1184125,1989,Man
20,773551,DepthScenes,v2_duration_discrimination,discrim_jsons/Discrim1000_randls_8_rotated.json,http://54.235.29.9/FacialAge/BNav_EC2/DepthDuration/v2_depth_discrimination_MTurk/v2_DepthDiscrim_HTML.html#97,97,1680,907,1680,1050,9-20-2022,11-38-7,21,depth_discrimination_stimuli/003048_2014-06-15_13-49-43_094959634447_rgbf000150-resize_1/003048_2014-06-15_13-49-43_094959634447_rgbf000150-resize_1-target.png,depth_discrimination_stimuli/002043_2014-06-24_20-29-38_260595134347_rgbf000039-resize_4/002043_2014-06-24_20-29-38_260595134347_rgbf000039-resize_4-target.png,1000.0,4.0035,2.8435,1.0,6870,1012,994,1002,1015,475,,1184125,1989,Man
21,773551,DepthScenes,v2_duration_discrimination,discrim_jsons/Discrim1000_randls_8_rotated.json,http://54.235.29.9/FacialAge/BNav_EC2/DepthDuration/v2_depth_discrimination_MTurk/v2_DepthDiscrim_HTML.html#97,97,1680,907,1680,1050,9-20-2022,11-38-7,22,depth_discrimination_stimuli/002467_2014-06-28_20-38-07_260595134347_rgbf000026-resize_2/002467_2014-06-28_20-38-07_260595134347_rgbf000026-resize_2-target.png,depth_discrimination_stimuli/002570_2014-06-24_13-59-54_094959634447_rgbf000059-resize_0/002570_2014-06-24_13-59-54_094959634447_rgbf000059-resize_0-target.png,1000.0,4.742,4.037,1.0,3249,1022,994,1008,1003,495,,1184125,1989,Man
22,773551,DepthScenes,v2_duration_discrimination,discrim_jsons/Discrim1000_randls_8_rotated.json,http://54.235.29.9/FacialAge/BNav_EC2/DepthDuration/v2_depth_discrimination_MTurk/v2_DepthDiscrim_HTML.html#97,97,1680,907,1680,1050,9-20-2022,11-38-7,23,depth_discrimination_stimuli/000691_2014-06-08_13-08-50_260595134347_rgbf000132-resize_3/000691_2014-06-08_13-08-50_260595134347_rgbf000132-resize_3-target.png,depth_discrimination_stimuli/002213_2014-06-28_18-37-58_260595134347_rgbf000055-resize_1/002213_2014-06-28_18-37-58_260595134347_rgbf000055-resize_1-target.png,1000.0,4.1530000000000005,3.62,0.0,3291,1022,994,1005,993,515,,1184125,1989,Man
23,773551,DepthScenes,v2_duration_discrimination,discrim_jsons/Discrim1000_randls_8_rotated.json,http://54.235.29.9/FacialAge/BNav_EC2/DepthDuration/v2_depth_discrimination_MTurk/v2_DepthDiscrim_HTML.html#97,97,1680,907,1680,1050,9-20-2022,11-38-7,24,depth_discrimination_stimuli/001571_2014-06-20_17-21-32_260595134347_rgbf000089-resize_1/001571_2014-06-20_17-21-32_260595134347_rgbf000089-resize_1-target.png,depth_discrimination_stimuli/002272_2014-06-28_18-53-56_260595134347_rgbf000067-resize_2/002272_2014-06-28_18-53-56_260595134347_rgbf000067-resize_2-target.png,1000.0,1.86,1.138,0.0,2786,1009,992,1006,1007,560,,1184125,1989,Man
24,773551,DepthScenes,v2_duration_discrimination,discrim_jsons/Discrim1000_randls_8_rotated.json,http://54.235.29.9/FacialAge/BNav_EC2/DepthDuration/v2_depth_discrimination_MTurk/v2_DepthDiscrim_HTML.html#97,97,1680,907,1680,1050,9-20-2022,11-38-7,25,depth_discrimination_stimuli/002949_2014-06-26_15-57-42_094959634447_rgbf000079-resize_1/002949_2014-06-26_15-57-42_094959634447_rgbf000079-resize_1-target.png,depth_discrimination_stimuli/000522_2014-06-08_13-35-06_260595134347_rgbf000244-resize_1/000522_2014-06-08_13-35-06_260595134347_rgbf000244-resize_1-target.png,1000.0,1.8915,2.3715,0.0,4372,1014,1002,986,1011,498,,1184125,1989,Man
25,773551,DepthScenes,v2_duration_discrimination,discrim_jsons/Discrim1000_randls_8_rotated.json,http://54.235.29.9/FacialAge/BNav_EC2/DepthDuration/v2_depth_discrimination_MTurk/v2_DepthDiscrim_HTML.html#97,97,1680,907,1680,1050,9-20-2022,11-38-7,26,depth_discrimination_stimuli/001170_2014-06-17_15-43-44_260595134347_rgbf000096-resize_6/001170_2014-06-17_15-43-44_260595134347_rgbf000096-resize_6-target.png,depth_discrimination_stimuli/001170_2014-06-17_15-43-44_260595134347_rgbf000096-resize_6/001170_2014-06-17_15-43-44_260595134347_rgbf000096-resize_6-target.png,1000.0,1.1909999999999998,1.1909999999999998,3.0,4764,1051,966,1044,954,513,,1184125,1989,Man
26,773551,DepthScenes,v2_duration_discrimination,discrim_jsons/Discrim1000_randls_8_rotated.json,http://54.235.29.9/FacialAge/BNav_EC2/DepthDuration/v2_depth_discrimination_MTurk/v2_DepthDiscrim_HTML.html#97,97,1680,907,1680,1050,9-20-2022,11-38-7,27,depth_discrimination_stimuli/002660_2014-06-13_15-44-18_094959634447_rgbf001878-resize_2/002660_2014-06-13_15-44-18_094959634447_rgbf001878-resize_2-target.png,depth_discrimination_stimuli/002153_2014-06-25_21-27-18_260595134347_rgbf000038-resize_5/002153_2014-06-25_21-27-18_260595134347_rgbf000038-resize_5-target.png,1000.0,3.576,2.505,0.0,3528,1015,1018,989,994,518,,1184125,1989,Man
27,773551,DepthScenes,v2_duration_discrimination,discrim_jsons/Discrim1000_randls_8_rotated.json,http://54.235.29.9/FacialAge/BNav_EC2/DepthDuration/v2_depth_discrimination_MTurk/v2_DepthDiscrim_HTML.html#97,97,1680,907,1680,1050,9-20-2022,11-38-7,28,depth_discrimination_stimuli/000635_2014-06-08_16-38-42_260595134347_rgbf000106-resize_1/000635_2014-06-08_16-38-42_260595134347_rgbf000106-resize_1-target.png,depth_discrimination_stimuli/002279_2014-06-28_18-55-32_260595134347_rgbf000040-resize_5/002279_2014-06-28_18-55-32_260595134347_rgbf000040-resize_5-target.png,1000.0,2.074,1.5043333333333,1.0,7316,1008,1005,1006,994,495,,1184125,1989,Man
28,773551,DepthScenes,v2_duration_discrimination,discrim_jsons/Discrim1000_randls_8_rotated.json,http://54.235.29.9/FacialAge/BNav_EC2/DepthDuration/v2_depth_discrimination_MTurk/v2_DepthDiscrim_HTML.html#97,97,1680,907,1680,1050,9-20-2022,11-38-7,29,depth_discrimination_stimuli/003423_2014-05-21_10-23-26_094959634447_rgbf002665-resize_2/003423_2014-05-21_10-23-26_094959634447_rgbf002665-resize_2-target.png,depth_discrimination_stimuli/002905_2014-06-03_18-04-43_094959634447_rgbf000151-resize_2/002905_2014-06-03_18-04-43_094959634447_rgbf000151-resize_2-target.png,1000.0,3.2575,2.0295,0.0,4650,1022,998,1015,984,500,,1184125,1989,Man
29,773551,DepthScenes,v2_duration_discrimination,discrim_jsons/Discrim1000_randls_8_rotated.json,http://54.235.29.9/FacialAge/BNav_EC2/DepthDuration/v2_depth_discrimination_MTurk/v2_DepthDiscrim_HTML.html#97,97,1680,907,1680,1050,9-20-2022,11-38-7,30,depth_discrimination_stimuli/000734_2014-06-08_17-39-11_260595134347_rgbf000128-resize_2/000734_2014-06-08_17-39-11_260595134347_rgbf000128-resize_2-target.png,depth_discrimination_stimuli/000739_2014-06-08_18-45-58_260595134347_rgbf000068-resize_1/000739_2014-06-08_18-45-58_260595134347_rgbf000068-resize_1-target.png,1000.0,4.098,3.534,0.0,6996,1017,991,1005,996,503,,1184125,1989,Man
30,773551,DepthScenes,v2_duration_discrimination,discrim_jsons/Discrim1000_randls_8_rotated.json,http://54.235.29.9/FacialAge/BNav_EC2/DepthDuration/v2_depth_discrimination_MTurk/v2_DepthDiscrim_HTML.html#97,97,1680,907,1680,1050,9-20-2022,11-38-7,31,depth_discrimination_stimuli/003083_2014-06-15_15-21-03_094959634447_rgbf000063-resize_1/003083_2014-06-15_15-21-03_094959634447_rgbf000063-resize_1-target.png,depth_discrimination_stimuli/000486_2014-06-09_20-47-20_260595134347_rgbf000143-resize_2/000486_2014-06-09_20-47-20_260595134347_rgbf000143-resize_2-target.png,1000.0,4.1405,4.8325,1.0,6710,1035,986,997,988,501,,1184125,1989,Man
31,773551,DepthScenes,v2_duration_discrimination,discrim_jsons/Discrim1000_randls_8_rotated.json,http://54.235.29.9/FacialAge/BNav_EC2/DepthDuration/v2_depth_discrimination_MTurk/v2_DepthDiscrim_HTML.html#97,97,1680,907,1680,1050,9-20-2022,11-38-7,32,depth_discrimination_stimuli/002545_2014-06-24_13-38-53_094959634447_rgbf000080-resize_4/002545_2014-06-24_13-38-53_094959634447_rgbf000080-resize_4-target.png,depth_discrimination_stimuli/001092_2014-06-15_17-34-58_260595134347_rgbf000171-resize_3/001092_2014-06-15_17-34-58_260595134347_rgbf000171-resize_3-target.png,1000.0,1.9205,2.6935,1.0,2916,1039,1011,1004,982,491,,1184125,1989,Man
32,773551,DepthScenes,v2_duration_discrimination,discrim_jsons/Discrim1000_randls_8_rotated.json,http://54.235.29.9/FacialAge/BNav_EC2/DepthDuration/v2_depth_discrimination_MTurk/v2_DepthDiscrim_HTML.html#97,97,1680,907,1680,1050,9-20-2022,11-38-7,33,depth_discrimination_stimuli/002103_2014-06-25_20-00-40_260595134347_rgbf000049-resize_0/002103_2014-06-25_20-00-40_260595134347_rgbf000049-resize_0-target.png,depth_discrimination_stimuli/002039_2014-06-24_20-22-38_260595134347_rgbf000084-resize_1/002039_2014-06-24_20-22-38_260595134347_rgbf000084-resize_1-target.png,1000.0,4.105,4.408,3.0,2315,1016,1002,991,1011,498,,1184125,1989,Man
33,773551,DepthScenes,v2_duration_discrimination,discrim_jsons/Discrim1000_randls_8_rotated.json,http://54.235.29.9/FacialAge/BNav_EC2/DepthDuration/v2_depth_discrimination_MTurk/v2_DepthDiscrim_HTML.html#97,97,1680,907,1680,1050,9-20-2022,11-38-7,34,depth_discrimination_stimuli/001136_2014-06-17_15-19-41_260595134347_rgbf000076-resize_3/001136_2014-06-17_15-19-41_260595134347_rgbf000076-resize_3-target.png,depth_discrimination_stimuli/001164_2014-06-17_15-35-46_260595134347_rgbf000085-resize_3/001164_2014-06-17_15-35-46_260595134347_rgbf000085-resize_3-target.png,1000.0,1.8655,2.354,3.0,3683,1022,1025,982,996,520,,1184125,1989,Man
34,773551,DepthScenes,v2_duration_discrimination,discrim_jsons/Discrim1000_randls_8_rotated.json,http://54.235.29.9/FacialAge/BNav_EC2/DepthDuration/v2_depth_discrimination_MTurk/v2_DepthDiscrim_HTML.html#97,97,1680,907,1680,1050,9-20-2022,11-38-7,35,depth_discrimination_stimuli/001540_2014-06-20_17-01-05_260595134347_rgbf000086-resize_2/001540_2014-06-20_17-01-05_260595134347_rgbf000086-resize_2-target.png,depth_discrimination_stimuli/001540_2014-06-20_17-01-05_260595134347_rgbf000086-resize_2/001540_2014-06-20_17-01-05_260595134347_rgbf000086-resize_2-target.png,1000.0,1.459,1.459,3.0,2244,1014,1014,1002,1001,488,,1184125,1989,Man
35,773551,DepthScenes,v2_duration_discrimination,discrim_jsons/Discrim1000_randls_8_rotated.json,http://54.235.29.9/FacialAge/BNav_EC2/DepthDuration/v2_depth_discrimination_MTurk/v2_DepthDiscrim_HTML.html#97,97,1680,907,1680,1050,9-20-2022,11-38-7,36,depth_discrimination_stimuli/000665_2014-06-09_20-42-35_260595134347_rgbf000110-resize_1/000665_2014-06-09_20-42-35_260595134347_rgbf000110-resize_1-target.png,depth_discrimination_stimuli/001150_2014-06-17_15-27-34_260595134347_rgbf000108-resize_2/001150_2014-06-17_15-27-34_260595134347_rgbf000108-resize_2-target.png,1000.0,3.057,4.0325,1.0,8130,1012,992,1008,1009,504,,1184125,1989,Man
36,773551,DepthScenes,v2_duration_discrimination,discrim_jsons/Discrim1000_randls_8_rotated.json,http://54.235.29.9/FacialAge/BNav_EC2/DepthDuration/v2_depth_discrimination_MTurk/v2_DepthDiscrim_HTML.html#97,97,1680,907,1680,1050,9-20-2022,11-38-7,37,depth_discrimination_stimuli/002425_2014-06-28_20-27-29_260595134347_rgbf000031-resize_8/002425_2014-06-28_20-27-29_260595134347_rgbf000031-resize_8-target.png,depth_discrimination_stimuli/000642_2014-06-08_16-59-25_260595134347_rgbf000098-resize_2/000642_2014-06-08_16-59-25_260595134347_rgbf000098-resize_2-target.png,1000.0,3.8960000000000004,2.8815,1.0,13509,1005,1014,985,1001,494,,1184125,1989,Man
37,773551,DepthScenes,v2_duration_discrimination,discrim_jsons/Discrim1000_randls_8_rotated.json,http://54.235.29.9/FacialAge/BNav_EC2/DepthDuration/v2_depth_discrimination_MTurk/v2_DepthDiscrim_HTML.html#97,97,1680,907,1680,1050,9-20-2022,11-38-7,38,depth_discrimination_stimuli/002323_2014-06-28_20-01-54_260595134347_rgbf000051-resize_4/002323_2014-06-28_20-01-54_260595134347_rgbf000051-resize_4-target.png,depth_discrimination_stimuli/000917_2014-06-09_22-45-29_260595134347_rgbf000149-resize_3/000917_2014-06-09_22-45-29_260595134347_rgbf000149-resize_3-target.png,1000.0,3.7310000000000003,4.1865,1.0,6645,1008,1006,1003,992,511,,1184125,1989,Man
38,773551,DepthScenes,v2_duration_discrimination,discrim_jsons/Discrim1000_randls_8_rotated.json,http://54.235.29.9/FacialAge/BNav_EC2/DepthDuration/v2_depth_discrimination_MTurk/v2_DepthDiscrim_HTML.html#97,97,1680,907,1680,1050,9-20-2022,11-38-7,39,depth_discrimination_stimuli/001516_2014-06-20_16-25-09_260595134347_rgbf000076-resize_2/001516_2014-06-20_16-25-09_260595134347_rgbf000076-resize_2-target.png,depth_discrimination_stimuli/002118_2014-06-25_20-32-08_260595134347_rgbf000078-resize_1/002118_2014-06-25_20-32-08_260595134347_rgbf000078-resize_1-target.png,1000.0,1.7445,2.6460000000000004,1.0,4420,1015,991,999,996,502,,1184125,1989,Man
39,773551,DepthScenes,v2_duration_discrimination,discrim_jsons/Discrim1000_randls_8_rotated.json,http://54.235.29.9/FacialAge/BNav_EC2/DepthDuration/v2_depth_discrimination_MTurk/v2_DepthDiscrim_HTML.html#97,97,1680,907,1680,1050,9-20-2022,11-38-7,40,depth_discrimination_stimuli/002637_2014-06-24_14-51-13_094959634447_rgbf000066-resize_4/002637_2014-06-24_14-51-13_094959634447_rgbf000066-resize_4-target.png,depth_discrimination_stimuli/003534_2014-05-22_15-06-10_094959634447_rgbf000102-resize_4/003534_2014-05-22_15-06-10_094959634447_rgbf000102-resize_4-target.png,1000.0,1.9955,1.426,0.0,4274,1003,1012,997,984,499,,1184125,1989,Man
40,773551,DepthScenes,v2_duration_discrimination,discrim_jsons/Discrim1000_randls_8_rotated.json,http://54.235.29.9/FacialAge/BNav_EC2/DepthDuration/v2_depth_discrimination_MTurk/v2_DepthDiscrim_HTML.html#97,97,1680,907,1680,1050,9-20-2022,11-38-7,41,depth_discrimination_stimuli/000677_2014-06-08_23-10-32_260595134347_rgbf000158-resize_6/000677_2014-06-08_23-10-32_260595134347_rgbf000158-resize_6-target.png,depth_discrimination_stimuli/001029_2014-06-08_13-17-57_260595134347_rgbf000065-resize_1/001029_2014-06-08_13-17-57_260595134347_rgbf000065-resize_1-target.png,1000.0,3.556,3.0835,3.0,4431,1001,1001,999,1000,517,,1184125,1989,Man
41,773551,DepthScenes,v2_duration_discrimination,discrim_jsons/Discrim1000_randls_8_rotated.json,http://54.235.29.9/FacialAge/BNav_EC2/DepthDuration/v2_depth_discrimination_MTurk/v2_DepthDiscrim_HTML.html#97,97,1680,907,1680,1050,9-20-2022,11-38-7,42,depth_discrimination_stimuli/001828_2014-06-26_21-40-03_260595134347_rgbf000024-resize_0/001828_2014-06-26_21-40-03_260595134347_rgbf000024-resize_0-target.png,depth_discrimination_stimuli/000009_2014-05-26_14-32-05_260595134347_rgbf000034-resize_3/000009_2014-05-26_14-32-05_260595134347_rgbf000034-resize_3-target.png,1000.0,4.8260000000000005,3.8715,0.0,5505,1065,924,1009,1015,642,,1184125,1989,Man
42,773551,DepthScenes,v2_duration_discrimination,discrim_jsons/Discrim1000_randls_8_rotated.json,http://54.235.29.9/FacialAge/BNav_EC2/DepthDuration/v2_depth_discrimination_MTurk/v2_DepthDiscrim_HTML.html#97,97,1680,907,1680,1050,9-20-2022,11-38-7,43,depth_discrimination_stimuli/000854_2014-06-09_19-43-13_260595134347_rgbf000066-resize_0/000854_2014-06-09_19-43-13_260595134347_rgbf000066-resize_0-target.png,depth_discrimination_stimuli/000758_2014-06-08_22-05-08_260595134347_rgbf000085-resize_0/000758_2014-06-08_22-05-08_260595134347_rgbf000085-resize_0-target.png,1000.0,3.068,3.3810000000000002,0.0,2964,1006,1004,1001,1007,490,,1184125,1989,Man
43,773551,DepthScenes,v2_duration_discrimination,discrim_jsons/Discrim1000_randls_8_rotated.json,http://54.235.29.9/FacialAge/BNav_EC2/DepthDuration/v2_depth_discrimination_MTurk/v2_DepthDiscrim_HTML.html#97,97,1680,907,1680,1050,9-20-2022,11-38-7,44,depth_discrimination_stimuli/002444_2014-06-28_20-32-08_260595134347_rgbf000027-resize_0/002444_2014-06-28_20-32-08_260595134347_rgbf000027-resize_0-target.png,depth_discrimination_stimuli/000436_2014-06-09_22-25-11_260595134347_rgbf000137-resize_1/000436_2014-06-09_22-25-11_260595134347_rgbf000137-resize_1-target.png,1000.0,4.388999999999999,4.0705,0.0,3866,1022,978,976,994,516,,1184125,1989,Man
44,773551,DepthScenes,v2_duration_discrimination,discrim_jsons/Discrim1000_randls_8_rotated.json,http://54.235.29.9/FacialAge/BNav_EC2/DepthDuration/v2_depth_discrimination_MTurk/v2_DepthDiscrim_HTML.html#97,97,1680,907,1680,1050,9-20-2022,11-38-7,45,depth_discrimination_stimuli/002995_2014-06-15_12-31-26_094959634447_rgbf000150-resize_1/002995_2014-06-15_12-31-26_094959634447_rgbf000150-resize_1-target.png,depth_discrimination_stimuli/002748_2014-06-22_19-07-22_094959634447_rgbf000078-resize_1/002748_2014-06-22_19-07-22_094959634447_rgbf000078-resize_1-target.png,1000.0,3.8360000000000003,4.6705,0.0,3262,1008,1004,1005,994,492,,1184125,1989,Man
45,773551,DepthScenes,v2_duration_discrimination,discrim_jsons/Discrim1000_randls_8_rotated.json,http://54.235.29.9/FacialAge/BNav_EC2/DepthDuration/v2_depth_discrimination_MTurk/v2_DepthDiscrim_HTML.html#97,97,1680,907,1680,1050,9-20-2022,11-38-7,46,depth_discrimination_stimuli/000556_2014-06-09_22-42-56_260595134347_rgbf000214-resize_1/000556_2014-06-09_22-42-56_260595134347_rgbf000214-resize_1-target.png,depth_discrimination_stimuli/001158_2014-06-17_15-32-16_260595134347_rgbf000138-resize_2/001158_2014-06-17_15-32-16_260595134347_rgbf000138-resize_2-target.png,1000.0,4.8415,4.5315,1.0,8052,1023,993,977,980,510,,1184125,1989,Man
46,773551,DepthScenes,v2_duration_discrimination,discrim_jsons/Discrim1000_randls_8_rotated.json,http://54.235.29.9/FacialAge/BNav_EC2/DepthDuration/v2_depth_discrimination_MTurk/v2_DepthDiscrim_HTML.html#97,97,1680,907,1680,1050,9-20-2022,11-38-7,47,depth_discrimination_stimuli/002199_2014-06-28_18-33-56_260595134347_rgbf000074-resize_0/002199_2014-06-28_18-33-56_260595134347_rgbf000074-resize_0-target.png,depth_discrimination_stimuli/001056_2014-06-08_18-46-44_260595134347_rgbf000068-resize_0/001056_2014-06-08_18-46-44_260595134347_rgbf000068-resize_0-target.png,1000.0,1.996,2.6625,0.0,6088,1025,974,1012,992,496,,1184125,1989,Man
47,773551,DepthScenes,v2_duration_discrimination,discrim_jsons/Discrim1000_randls_8_rotated.json,http://54.235.29.9/FacialAge/BNav_EC2/DepthDuration/v2_depth_discrimination_MTurk/v2_DepthDiscrim_HTML.html#97,97,1680,907,1680,1050,9-20-2022,11-38-7,48,depth_discrimination_stimuli/000502_2014-06-08_23-02-32_260595134347_rgbf000063-resize_4/000502_2014-06-08_23-02-32_260595134347_rgbf000063-resize_4-target.png,depth_discrimination_stimuli/001199_2014-06-17_16-03-48_260595134347_rgbf000077-resize_0/001199_2014-06-17_16-03-48_260595134347_rgbf000077-resize_0-target.png,1000.0,2.431,3.4375,0.0,2513,1007,993,1003,995,527,,1184125,1989,Man
48,773551,DepthScenes,v2_duration_discrimination,discrim_jsons/Discrim1000_randls_8_rotated.json,http://54.235.29.9/FacialAge/BNav_EC2/DepthDuration/v2_depth_discrimination_MTurk/v2_DepthDiscrim_HTML.html#97,97,1680,907,1680,1050,9-20-2022,11-38-7,49,depth_discrimination_stimuli/002805_2014-06-22_19-54-03_094959634447_rgbf000079-resize_1/002805_2014-06-22_19-54-03_094959634447_rgbf000079-resize_1-target.png,depth_discrimination_stimuli/000906_2014-06-08_13-35-43_260595134347_rgbf000155-resize_1/000906_2014-06-08_13-35-43_260595134347_rgbf000155-resize_1-target.png,1000.0,3.1439999999999997,2.8489999999999998,0.0,2114,1006,994,1042,972,487,,1184125,1989,Man
49,773551,DepthScenes,v2_duration_discrimination,discrim_jsons/Discrim1000_randls_8_rotated.json,http://54.235.29.9/FacialAge/BNav_EC2/DepthDuration/v2_depth_discrimination_MTurk/v2_DepthDiscrim_HTML.html#97,97,1680,907,1680,1050,9-20-2022,11-38-7,50,depth_discrimination_stimuli/003587_2014-05-23_16-48-02_094959634447_rgbf002384-resize_2/003587_2014-05-23_16-48-02_094959634447_rgbf002384-resize_2-target.png,depth_discrimination_stimuli/001167_2014-06-17_15-38-07_260595134347_rgbf000108-resize_0/001167_2014-06-17_15-38-07_260595134347_rgbf000108-resize_0-target.png,1000.0,1.357,1.8505,0.0,5539,1005,997,1005,1001,484,,1184125,1989,Man
50,773551,DepthScenes,v2_duration_discrimination,discrim_jsons/Discrim1000_randls_8_rotated.json,http://54.235.29.9/FacialAge/BNav_EC2/DepthDuration/v2_depth_discrimination_MTurk/v2_DepthDiscrim_HTML.html#97,97,1680,907,1680,1050,9-20-2022,11-38-7,51,depth_discrimination_stimuli/001100_2014-06-15_17-46-26_260595134347_rgbf000225-resize_2/001100_2014-06-15_17-46-26_260595134347_rgbf000225-resize_2-target.png,depth_discrimination_stimuli/002784_2014-06-22_19-26-30_094959634447_rgbf000083-resize_3/002784_2014-06-22_19-26-30_094959634447_rgbf000083-resize_3-target.png,1000.0,2.24,1.8046666666667,1.0,7114,1010,1049,943,983,500,,1184125,1989,Man
51,773551,DepthScenes,v2_duration_discrimination,discrim_jsons/Discrim1000_randls_8_rotated.json,http://54.235.29.9/FacialAge/BNav_EC2/DepthDuration/v2_depth_discrimination_MTurk/v2_DepthDiscrim_HTML.html#97,97,1680,907,1680,1050,9-20-2022,11-38-7,52,depth_discrimination_stimuli/001222_2014-06-17_16-24-06_260595134347_rgbf000073-resize_0/001222_2014-06-17_16-24-06_260595134347_rgbf000073-resize_0-target.png,depth_discrimination_stimuli/001222_2014-06-17_16-24-06_260595134347_rgbf000073-resize_0/001222_2014-06-17_16-24-06_260595134347_rgbf000073-resize_0-target.png,1000.0,1.4385,1.4385,3.0,2015,1012,1018,979,987,490,,1184125,1989,Man
52,773551,DepthScenes,v2_duration_discrimination,discrim_jsons/Discrim1000_randls_8_rotated.json,http://54.235.29.9/FacialAge/BNav_EC2/DepthDuration/v2_depth_discrimination_MTurk/v2_DepthDiscrim_HTML.html#97,97,1680,907,1680,1050,9-20-2022,11-38-7,53,depth_discrimination_stimuli/000927_2014-06-09_16-32-30_260595134347_rgbf000123-resize_3/000927_2014-06-09_16-32-30_260595134347_rgbf000123-resize_3-target.png,depth_discrimination_stimuli/001110_2014-06-15_17-25-28_260595134347_rgbf000150-resize_1/001110_2014-06-15_17-25-28_260595134347_rgbf000150-resize_1-target.png,1000.0,2.6785,1.7115,1.0,5019,1028,974,1013,1000,514,,1184125,1989,Man
53,773551,DepthScenes,v2_duration_discrimination,discrim_jsons/Discrim1000_randls_8_rotated.json,http://54.235.29.9/FacialAge/BNav_EC2/DepthDuration/v2_depth_discrimination_MTurk/v2_DepthDiscrim_HTML.html#97,97,1680,907,1680,1050,9-20-2022,11-38-7,54,depth_discrimination_stimuli/003079_2014-06-15_15-18-20_094959634447_rgbf000152-resize_8/003079_2014-06-15_15-18-20_094959634447_rgbf000152-resize_8-target.png,depth_discrimination_stimuli/000506_2014-06-08_23-21-00_260595134347_rgbf000070-resize_7/000506_2014-06-08_23-21-00_260595134347_rgbf000070-resize_7-target.png,1000.0,2.8775,4.0585,1.0,5784,1016,1001,989,993,587,,1184125,1989,Man
54,773551,DepthScenes,v2_duration_discrimination,discrim_jsons/Discrim1000_randls_8_rotated.json,http://54.235.29.9/FacialAge/BNav_EC2/DepthDuration/v2_depth_discrimination_MTurk/v2_DepthDiscrim_HTML.html#97,97,1680,907,1680,1050,9-20-2022,11-38-7,55,depth_discrimination_stimuli/001450_2014-06-19_17-02-03_260595134347_rgbf000203-resize_4/001450_2014-06-19_17-02-03_260595134347_rgbf000203-resize_4-target.png,depth_discrimination_stimuli/001449_2014-06-19_17-01-27_260595134347_rgbf000116-resize_2/001449_2014-06-19_17-01-27_260595134347_rgbf000116-resize_2-target.png,1000.0,4.0106666666667,3.452,1.0,5910,1000,990,1000,1002,498,,1184125,1989,Man
55,773551,DepthScenes,v2_duration_discrimination,discrim_jsons/Discrim1000_randls_8_rotated.json,http://54.235.29.9/FacialAge/BNav_EC2/DepthDuration/v2_depth_discrimination_MTurk/v2_DepthDiscrim_HTML.html#97,97,1680,907,1680,1050,9-20-2022,11-38-7,56,depth_discrimination_stimuli/002639_2014-06-24_14-51-37_094959634447_rgbf000074-resize_4/002639_2014-06-24_14-51-37_094959634447_rgbf000074-resize_4-target.png,depth_discrimination_stimuli/003292_2014-05-14_21-53-49_094959634447_rgbf000100-resize_2/003292_2014-05-14_21-53-49_094959634447_rgbf000100-resize_2-target.png,1000.0,4.0375,3.4815,1.0,7870,1022,1006,980,1001,499,,1184125,1989,Man
56,773551,DepthScenes,v2_duration_discrimination,discrim_jsons/Discrim1000_randls_8_rotated.json,http://54.235.29.9/FacialAge/BNav_EC2/DepthDuration/v2_depth_discrimination_MTurk/v2_DepthDiscrim_HTML.html#97,97,1680,907,1680,1050,9-20-2022,11-38-7,57,depth_discrimination_stimuli/000866_2014-06-09_20-45-42_260595134347_rgbf000139-resize_1/000866_2014-06-09_20-45-42_260595134347_rgbf000139-resize_1-target.png,depth_discrimination_stimuli/002989_2014-06-15_12-25-03_094959634447_rgbf000150-resize_3/002989_2014-06-15_12-25-03_094959634447_rgbf000150-resize_3-target.png,1000.0,3.2155,4.1975,0.0,5688,1029,1024,957,1001,520,,1184125,1989,Man
57,773551,DepthScenes,v2_duration_discrimination,discrim_jsons/Discrim1000_randls_8_rotated.json,http://54.235.29.9/FacialAge/BNav_EC2/DepthDuration/v2_depth_discrimination_MTurk/v2_DepthDiscrim_HTML.html#97,97,1680,907,1680,1050,9-20-2022,11-38-7,58,depth_discrimination_stimuli/001584_2014-06-20_11-07-43_260595134347_rgbf000002-resize_1/001584_2014-06-20_11-07-43_260595134347_rgbf000002-resize_1-target.png,depth_discrimination_stimuli/003621_2014-05-23_18-06-08_094959634447_rgbf000101-resize_1/003621_2014-05-23_18-06-08_094959634447_rgbf000101-resize_1-target.png,1000.0,3.53,3.9835,0.0,17351,1020,989,1013,987,503,,1184125,1989,Man
58,773551,DepthScenes,v2_duration_discrimination,discrim_jsons/Discrim1000_randls_8_rotated.json,http://54.235.29.9/FacialAge/BNav_EC2/DepthDuration/v2_depth_discrimination_MTurk/v2_DepthDiscrim_HTML.html#97,97,1680,907,1680,1050,9-20-2022,11-38-7,59,depth_discrimination_stimuli/002678_2014-06-13_16-15-32_094959634447_rgbf000151-resize_6/002678_2014-06-13_16-15-32_094959634447_rgbf000151-resize_6-target.png,depth_discrimination_stimuli/000368_2014-06-09_15-53-01_260595134347_rgbf000155-resize_2/000368_2014-06-09_15-53-01_260595134347_rgbf000155-resize_2-target.png,1000.0,2.1830000000000003,2.4859999999999998,0.0,5980,1010,1003,1010,1144,369,,1184125,1989,Man
59,773551,DepthScenes,v2_duration_discrimination,discrim_jsons/Discrim1000_randls_8_rotated.json,http://54.235.29.9/FacialAge/BNav_EC2/DepthDuration/v2_depth_discrimination_MTurk/v2_DepthDiscrim_HTML.html#97,97,1680,907,1680,1050,9-20-2022,11-38-7,60,depth_discrimination_stimuli/002568_2014-06-24_13-59-21_094959634447_rgbf000062-resize_4/002568_2014-06-24_13-59-21_094959634447_rgbf000062-resize_4-target.png,depth_discrimination_stimuli/003492_2014-05-21_15-50-55_094959634447_rgbf000828-resize_1/003492_2014-05-21_15-50-55_094959634447_rgbf000828-resize_1-target.png,1000.0,3.015,4.06875,0.0,5396,1040,1163,818,997,519,,1184125,1989,Man
60,773551,DepthScenes,v2_duration_discrimination,discrim_jsons/Discrim1000_randls_8_rotated.json,http://54.235.29.9/FacialAge/BNav_EC2/DepthDuration/v2_depth_discrimination_MTurk/v2_DepthDiscrim_HTML.html#97,97,1680,907,1680,1050,9-20-2022,11-38-7,61,depth_discrimination_stimuli/003338_2014-05-20_11-01-23_094959634447_rgbf000051-resize_6/003338_2014-05-20_11-01-23_094959634447_rgbf000051-resize_6-target.png,depth_discrimination_stimuli/002509_2014-06-24_13-19-22_094959634447_rgbf000077-resize_0/002509_2014-06-24_13-19-22_094959634447_rgbf000077-resize_0-target.png,1000.0,1.693,1.3065,0.0,3395,1004,965,1013,987,657,,1184125,1989,Man
61,773551,DepthScenes,v2_duration_discrimination,discrim_jsons/Discrim1000_randls_8_rotated.json,http://54.235.29.9/FacialAge/BNav_EC2/DepthDuration/v2_depth_discrimination_MTurk/v2_DepthDiscrim_HTML.html#97,97,1680,907,1680,1050,9-20-2022,11-38-7,62,depth_discrimination_stimuli/000749_2014-06-08_21-55-06_260595134347_rgbf000070-resize_2/000749_2014-06-08_21-55-06_260595134347_rgbf000070-resize_2-target.png,depth_discrimination_stimuli/002788_2014-06-22_19-36-03_094959634447_rgbf000088-resize_2/002788_2014-06-22_19-36-03_094959634447_rgbf000088-resize_2-target.png,1000.0,2.331,1.6465,3.0,2856,1082,906,993,1017,566,,1184125,1989,Man
62,773551,DepthScenes,v2_duration_discrimination,discrim_jsons/Discrim1000_randls_8_rotated.json,http://54.235.29.9/FacialAge/BNav_EC2/DepthDuration/v2_depth_discrimination_MTurk/v2_DepthDiscrim_HTML.html#97,97,1680,907,1680,1050,9-20-2022,11-38-7,63,depth_discrimination_stimuli/000787_2014-06-08_22-33-53_260595134347_rgbf000175-resize_1/000787_2014-06-08_22-33-53_260595134347_rgbf000175-resize_1-target.png,depth_discrimination_stimuli/000787_2014-06-08_22-33-53_260595134347_rgbf000175-resize_1/000787_2014-06-08_22-33-53_260595134347_rgbf000175-resize_1-target.png,1000.0,4.784,4.784,0.0,4769,1013,986,1021,983,515,,1184125,1989,Man
63,773551,DepthScenes,v2_duration_discrimination,discrim_jsons/Discrim1000_randls_8_rotated.json,http://54.235.29.9/FacialAge/BNav_EC2/DepthDuration/v2_depth_discrimination_MTurk/v2_DepthDiscrim_HTML.html#97,97,1680,907,1680,1050,9-20-2022,11-38-7,64,depth_discrimination_stimuli/000409_2014-06-04_19-23-33_260595134347_rgbf000067-resize_0/000409_2014-06-04_19-23-33_260595134347_rgbf000067-resize_0-target.png,depth_discrimination_stimuli/002663_2014-06-13_15-50-26_094959634447_rgbf000075-resize_1/002663_2014-06-13_15-50-26_094959634447_rgbf000075-resize_1-target.png,1000.0,3.7335,4.7495,0.0,4198,1111,940,970,989,525,,1184125,1989,Man
64,773551,DepthScenes,v2_duration_discrimination,discrim_jsons/Discrim1000_randls_8_rotated.json,http://54.235.29.9/FacialAge/BNav_EC2/DepthDuration/v2_depth_discrimination_MTurk/v2_DepthDiscrim_HTML.html#97,97,1680,907,1680,1050,9-20-2022,11-38-7,65,depth_discrimination_stimuli/002414_2014-06-28_20-24-58_260595134347_rgbf000067-resize_4/002414_2014-06-28_20-24-58_260595134347_rgbf000067-resize_4-target.png,depth_discrimination_stimuli/000773_2014-06-08_22-24-54_260595134347_rgbf000093-resize_1/000773_2014-06-08_22-24-54_260595134347_rgbf000093-resize_1-target.png,1000.0,4.363,4.973,3.0,2795,1030,984,1005,1007,490,,1184125,1989,Man
65,773551,DepthScenes,v2_duration_discrimination,discrim_jsons/Discrim1000_randls_8_rotated.json,http://54.235.29.9/FacialAge/BNav_EC2/DepthDuration/v2_depth_discrimination_MTurk/v2_DepthDiscrim_HTML.html#97,97,1680,907,1680,1050,9-20-2022,11-38-7,66,depth_discrimination_stimuli/000742_2014-06-08_18-48-09_260595134347_rgbf000164-resize_4/000742_2014-06-08_18-48-09_260595134347_rgbf000164-resize_4-target.png,depth_discrimination_stimuli/001066_2014-06-08_22-03-20_260595134347_rgbf000066-resize_4/001066_2014-06-08_22-03-20_260595134347_rgbf000066-resize_4-target.png,1000.0,4.632,4.2330000000000005,3.0,3120,1041,995,1006,1002,505,,1184125,1989,Man
66,773551,DepthScenes,v2_duration_discrimination,discrim_jsons/Discrim1000_randls_8_rotated.json,http://54.235.29.9/FacialAge/BNav_EC2/DepthDuration/v2_depth_discrimination_MTurk/v2_DepthDiscrim_HTML.html#97,97,1680,907,1680,1050,9-20-2022,11-38-7,67,depth_discrimination_stimuli/000457_2014-06-08_16-52-43_260595134347_rgbf000199-resize_1/000457_2014-06-08_16-52-43_260595134347_rgbf000199-resize_1-target.png,depth_discrimination_stimuli/000929_2014-06-09_16-33-19_260595134347_rgbf000139-resize_0/000929_2014-06-09_16-33-19_260595134347_rgbf000139-resize_0-target.png,1000.0,3.6489999999999996,2.8680000000000003,0.0,5175,1012,997,1011,989,504,,1184125,1989,Man
67,773551,DepthScenes,v2_duration_discrimination,discrim_jsons/Discrim1000_randls_8_rotated.json,http://54.235.29.9/FacialAge/BNav_EC2/DepthDuration/v2_depth_discrimination_MTurk/v2_DepthDiscrim_HTML.html#97,97,1680,907,1680,1050,9-20-2022,11-38-7,68,depth_discrimination_stimuli/003081_2014-06-15_15-19-16_094959634447_rgbf000150-resize_1/003081_2014-06-15_15-19-16_094959634447_rgbf000150-resize_1-target.png,depth_discrimination_stimuli/001417_2014-06-19_16-25-36_260595134347_rgbf000115-resize_5/001417_2014-06-19_16-25-36_260595134347_rgbf000115-resize_5-target.png,1000.0,3.9125,4.6255,3.0,4276,1002,998,1000,1001,517,,1184125,1989,Man
68,773551,DepthScenes,v2_duration_discrimination,discrim_jsons/Discrim1000_randls_8_rotated.json,http://54.235.29.9/FacialAge/BNav_EC2/DepthDuration/v2_depth_discrimination_MTurk/v2_DepthDiscrim_HTML.html#97,97,1680,907,1680,1050,9-20-2022,11-38-7,69,depth_discrimination_stimuli/003129_2014-05-12_10-48-10_094959634447_rgbf000100-resize_0/003129_2014-05-12_10-48-10_094959634447_rgbf000100-resize_0-target.png,depth_discrimination_stimuli/000414_2014-06-04_19-49-13_260595134347_rgbf000044-resize_0/000414_2014-06-04_19-49-13_260595134347_rgbf000044-resize_0-target.png,1000.0,4.9305,4.329,3.0,3444,1017,1003,1013,987,508,,1184125,1989,Man
69,773551,DepthScenes,v2_duration_discrimination,discrim_jsons/Discrim1000_randls_8_rotated.json,http://54.235.29.9/FacialAge/BNav_EC2/DepthDuration/v2_depth_discrimination_MTurk/v2_DepthDiscrim_HTML.html#97,97,1680,907,1680,1050,9-20-2022,11-38-7,70,depth_discrimination_stimuli/001392_2014-06-19_16-07-59_260595134347_rgbf000046-resize_1/001392_2014-06-19_16-07-59_260595134347_rgbf000046-resize_1-target.png,depth_discrimination_stimuli/001570_2014-06-20_17-21-09_260595134347_rgbf000135-resize_4/001570_2014-06-20_17-21-09_260595134347_rgbf000135-resize_4-target.png,1000.0,4.135,4.467,3.0,5239,1049,968,1130,868,501,,1184125,1989,Man
70,773551,DepthScenes,v2_duration_discrimination,discrim_jsons/Discrim1000_randls_8_rotated.json,http://54.235.29.9/FacialAge/BNav_EC2/DepthDuration/v2_depth_discrimination_MTurk/v2_DepthDiscrim_HTML.html#97,97,1680,907,1680,1050,9-20-2022,11-38-7,71,depth_discrimination_stimuli/000375_2014-06-08_11-17-29_260595134347_rgbf000133-resize_2/000375_2014-06-08_11-17-29_260595134347_rgbf000133-resize_2-target.png,depth_discrimination_stimuli/000375_2014-06-08_11-17-29_260595134347_rgbf000133-resize_2/000375_2014-06-08_11-17-29_260595134347_rgbf000133-resize_2-target.png,1000.0,4.718,4.718,0.0,4868,1025,988,989,1028,496,,1184125,1989,Man
71,773551,DepthScenes,v2_duration_discrimination,discrim_jsons/Discrim1000_randls_8_rotated.json,http://54.235.29.9/FacialAge/BNav_EC2/DepthDuration/v2_depth_discrimination_MTurk/v2_DepthDiscrim_HTML.html#97,97,1680,907,1680,1050,9-20-2022,11-38-7,72,depth_discrimination_stimuli/002209_2014-06-28_18-36-10_260595134347_rgbf000051-resize_1/002209_2014-06-28_18-36-10_260595134347_rgbf000051-resize_1-target.png,depth_discrimination_stimuli/002763_2014-06-22_19-13-10_094959634447_rgbf000075-resize_4/002763_2014-06-22_19-13-10_094959634447_rgbf000075-resize_4-target.png,1000.0,2.057,1.68375,3.0,3730,1003,1011,1003,999,516,,1184125,1989,Man
72,773551,DepthScenes,v2_duration_discrimination,discrim_jsons/Discrim1000_randls_8_rotated.json,http://54.235.29.9/FacialAge/BNav_EC2/DepthDuration/v2_depth_discrimination_MTurk/v2_DepthDiscrim_HTML.html#97,97,1680,907,1680,1050,9-20-2022,11-38-7,73,depth_discrimination_stimuli/003495_2014-05-21_16-01-51_094959634447_rgbf000100-resize_3/003495_2014-05-21_16-01-51_094959634447_rgbf000100-resize_3-target.png,depth_discrimination_stimuli/001244_2014-06-17_16-47-45_260595134347_rgbf000030-resize_4/001244_2014-06-17_16-47-45_260595134347_rgbf000030-resize_4-target.png,1000.0,1.6255,2.0425,0.0,5293,1005,1002,1004,1008,484,,1184125,1989,Man
73,773551,DepthScenes,v2_duration_discrimination,discrim_jsons/Discrim1000_randls_8_rotated.json,http://54.235.29.9/FacialAge/BNav_EC2/DepthDuration/v2_depth_discrimination_MTurk/v2_DepthDiscrim_HTML.html#97,97,1680,907,1680,1050,9-20-2022,11-38-7,74,depth_discrimination_stimuli/000191_2014-05-12_17-07-38_260595134347_rgbf000199-resize_0/000191_2014-05-12_17-07-38_260595134347_rgbf000199-resize_0-target.png,depth_discrimination_stimuli/000493_2014-06-09_21-01-18_260595134347_rgbf000196-resize_3/000493_2014-06-09_21-01-18_260595134347_rgbf000196-resize_3-target.png,1000.0,3.7995,3.44,1.0,3545,1007,984,1002,1002,499,,1184125,1989,Man
74,773551,DepthScenes,v2_duration_discrimination,discrim_jsons/Discrim1000_randls_8_rotated.json,http://54.235.29.9/FacialAge/BNav_EC2/DepthDuration/v2_depth_discrimination_MTurk/v2_DepthDiscrim_HTML.html#97,97,1680,907,1680,1050,9-20-2022,11-38-7,75,depth_discrimination_stimuli/000137_2014-05-20_17-04-49_260595134347_rgbf000120-resize_1/000137_2014-05-20_17-04-49_260595134347_rgbf000120-resize_1-target.png,depth_discrimination_stimuli/000736_2014-06-08_18-24-15_260595134347_rgbf000206-resize_3/000736_2014-06-08_18-24-15_260595134347_rgbf000206-resize_3-target.png,1000.0,3.786,3.515,1.0,4028,1007,1007,990,1075,432,,1184125,1989,Man
75,773551,DepthScenes,v2_duration_discrimination,discrim_jsons/Discrim1000_randls_8_rotated.json,http://54.235.29.9/FacialAge/BNav_EC2/DepthDuration/v2_depth_discrimination_MTurk/v2_DepthDiscrim_HTML.html#97,97,1680,907,1680,1050,9-20-2022,11-38-7,76,depth_discrimination_stimuli/001032_2014-06-08_13-23-17_260595134347_rgbf000021-resize_3/001032_2014-06-08_13-23-17_260595134347_rgbf000021-resize_3-target.png,depth_discrimination_stimuli/001059_2014-06-08_21-53-27_260595134347_rgbf000061-resize_4/001059_2014-06-08_21-53-27_260595134347_rgbf000061-resize_4-target.png,1000.0,3.2725,2.4185,3.0,3114,1044,987,970,996,503,,1184125,1989,Man
76,773551,DepthScenes,v2_duration_discrimination,discrim_jsons/Discrim1000_randls_8_rotated.json,http://54.235.29.9/FacialAge/BNav_EC2/DepthDuration/v2_depth_discrimination_MTurk/v2_DepthDiscrim_HTML.html#97,97,1680,907,1680,1050,9-20-2022,11-38-7,77,depth_discrimination_stimuli/001132_2014-06-17_14-48-54_260595134347_rgbf000100-resize_2/001132_2014-06-17_14-48-54_260595134347_rgbf000100-resize_2-target.png,depth_discrimination_stimuli/001133_2014-06-17_14-49-16_260595134347_rgbf000100-resize_0/001133_2014-06-17_14-49-16_260595134347_rgbf000100-resize_0-target.png,1000.0,3.753,4.2115,1.0,3462,1017,998,994,998,521,,1184125,1989,Man
77,773551,DepthScenes,v2_duration_discrimination,discrim_jsons/Discrim1000_randls_8_rotated.json,http://54.235.29.9/FacialAge/BNav_EC2/DepthDuration/v2_depth_discrimination_MTurk/v2_DepthDiscrim_HTML.html#97,97,1680,907,1680,1050,9-20-2022,11-38-7,78,depth_discrimination_stimuli/002758_2014-06-22_19-11-20_094959634447_rgbf000128-resize_1/002758_2014-06-22_19-11-20_094959634447_rgbf000128-resize_1-target.png,depth_discrimination_stimuli/002630_2014-06-24_14-47-50_094959634447_rgbf000055-resize_1/002630_2014-06-24_14-47-50_094959634447_rgbf000055-resize_1-target.png,1000.0,2.555,3.0095,0.0,2444,1032,990,1128,874,631,,1184125,1989,Man
78,773551,DepthScenes,v2_duration_discrimination,discrim_jsons/Discrim1000_randls_8_rotated.json,http://54.235.29.9/FacialAge/BNav_EC2/DepthDuration/v2_depth_discrimination_MTurk/v2_DepthDiscrim_HTML.html#97,97,1680,907,1680,1050,9-20-2022,11-38-7,79,depth_discrimination_stimuli/001650_2014-06-20_12-09-00_260595134347_rgbf000087-resize_3/001650_2014-06-20_12-09-00_260595134347_rgbf000087-resize_3-target.png,depth_discrimination_stimuli/000682_2014-06-08_23-14-58_260595134347_rgbf000041-resize_5/000682_2014-06-08_23-14-58_260595134347_rgbf000041-resize_5-target.png,1000.0,1.9505,2.7239999999999998,1.0,4525,1002,1013,987,996,566,,1184125,1989,Man
79,773551,DepthScenes,v2_duration_discrimination,discrim_jsons/Discrim1000_randls_8_rotated.json,http://54.235.29.9/FacialAge/BNav_EC2/DepthDuration/v2_depth_discrimination_MTurk/v2_DepthDiscrim_HTML.html#97,97,1680,907,1680,1050,9-20-2022,11-38-7,80,depth_discrimination_stimuli/000569_2014-06-09_22-51-47_260595134347_rgbf000141-resize_3/000569_2014-06-09_22-51-47_260595134347_rgbf000141-resize_3-target.png,depth_discrimination_stimuli/000569_2014-06-09_22-51-47_260595134347_rgbf000141-resize_3/000569_2014-06-09_22-51-47_260595134347_rgbf000141-resize_3-target.png,1000.0,4.512,4.512,3.0,2648,1020,991,1003,995,503,,1184125,1989,Man
80,773551,DepthScenes,v2_duration_discrimination,discrim_jsons/Discrim1000_randls_8_rotated.json,http://54.235.29.9/FacialAge/BNav_EC2/DepthDuration/v2_depth_discrimination_MTurk/v2_DepthDiscrim_HTML.html#97,97,1680,907,1680,1050,9-20-2022,11-38-7,81,depth_discrimination_stimuli/003010_2014-06-15_12-54-35_094959634447_rgbf000112-resize_0/003010_2014-06-15_12-54-35_094959634447_rgbf000112-resize_0-target.png,depth_discrimination_stimuli/001810_2014-06-26_20-51-35_260595134347_rgbf000040-resize_3/001810_2014-06-26_20-51-35_260595134347_rgbf000040-resize_3-target.png,1000.0,3.1185,2.2525,0.0,3746,1007,1015,981,996,494,,1184125,1989,Man
81,773551,DepthScenes,v2_duration_discrimination,discrim_jsons/Discrim1000_randls_8_rotated.json,http://54.235.29.9/FacialAge/BNav_EC2/DepthDuration/v2_depth_discrimination_MTurk/v2_DepthDiscrim_HTML.html#97,97,1680,907,1680,1050,9-20-2022,11-38-7,82,depth_discrimination_stimuli/000483_2014-06-09_20-41-45_260595134347_rgbf000116-resize_4/000483_2014-06-09_20-41-45_260595134347_rgbf000116-resize_4-target.png,depth_discrimination_stimuli/000469_2014-06-09_19-42-10_260595134347_rgbf000081-resize_1/000469_2014-06-09_19-42-10_260595134347_rgbf000081-resize_1-target.png,1000.0,1.337,1.652,3.0,3288,1052,956,1060,968,467,,1184125,1989,Man
82,773551,DepthScenes,v2_duration_discrimination,discrim_jsons/Discrim1000_randls_8_rotated.json,http://54.235.29.9/FacialAge/BNav_EC2/DepthDuration/v2_depth_discrimination_MTurk/v2_DepthDiscrim_HTML.html#97,97,1680,907,1680,1050,9-20-2022,11-38-7,83,depth_discrimination_stimuli/000943_2014-06-09_19-31-07_260595134347_rgbf000128-resize_1/000943_2014-06-09_19-31-07_260595134347_rgbf000128-resize_1-target.png,depth_discrimination_stimuli/003070_2014-06-15_14-58-27_094959634447_rgbf000150-resize_3/003070_2014-06-15_14-58-27_094959634447_rgbf000150-resize_3-target.png,1000.0,1.9765,2.9415,3.0,3199,1017,998,1027,955,525,,1184125,1989,Man
83,773551,DepthScenes,v2_duration_discrimination,discrim_jsons/Discrim1000_randls_8_rotated.json,http://54.235.29.9/FacialAge/BNav_EC2/DepthDuration/v2_depth_discrimination_MTurk/v2_DepthDiscrim_HTML.html#97,97,1680,907,1680,1050,9-20-2022,11-38-7,84,depth_discrimination_stimuli/001214_2014-06-17_16-13-55_260595134347_rgbf000111-resize_0/001214_2014-06-17_16-13-55_260595134347_rgbf000111-resize_0-target.png,depth_discrimination_stimuli/000810_2014-06-08_17-20-01_260595134347_rgbf000105-resize_0/000810_2014-06-08_17-20-01_260595134347_rgbf000105-resize_0-target.png,1000.0,2.6505,1.4865,3.0,3053,1011,1007,1009,984,605,,1184125,1989,Man
84,773551,DepthScenes,v2_duration_discrimination,discrim_jsons/Discrim1000_randls_8_rotated.json,http://54.235.29.9/FacialAge/BNav_EC2/DepthDuration/v2_depth_discrimination_MTurk/v2_DepthDiscrim_HTML.html#97,97,1680,907,1680,1050,9-20-2022,11-38-7,85,depth_discrimination_stimuli/003490_2014-05-21_15-50-11_094959634447_rgbf000101-resize_3/003490_2014-05-21_15-50-11_094959634447_rgbf000101-resize_3-target.png,depth_discrimination_stimuli/001175_2014-06-17_15-45-55_260595134347_rgbf000129-resize_4/001175_2014-06-17_15-45-55_260595134347_rgbf000129-resize_4-target.png,1000.0,3.6445,4.255,0.0,2989,1027,1370,628,986,488,,1184125,1989,Man
85,773551,DepthScenes,v2_duration_discrimination,discrim_jsons/Discrim1000_randls_8_rotated.json,http://54.235.29.9/FacialAge/BNav_EC2/DepthDuration/v2_depth_discrimination_MTurk/v2_DepthDiscrim_HTML.html#97,97,1680,907,1680,1050,9-20-2022,11-38-7,86,depth_discrimination_stimuli/001235_2014-06-17_16-37-36_260595134347_rgbf000084-resize_4/001235_2014-06-17_16-37-36_260595134347_rgbf000084-resize_4-target.png,depth_discrimination_stimuli/000788_2014-06-08_22-34-36_260595134347_rgbf000131-resize_1/000788_2014-06-08_22-34-36_260595134347_rgbf000131-resize_1-target.png,1000.0,3.6605,3.359,1.0,3647,1011,990,1020,981,510,,1184125,1989,Man
86,773551,DepthScenes,v2_duration_discrimination,discrim_jsons/Discrim1000_randls_8_rotated.json,http://54.235.29.9/FacialAge/BNav_EC2/DepthDuration/v2_depth_discrimination_MTurk/v2_DepthDiscrim_HTML.html#97,97,1680,907,1680,1050,9-20-2022,11-38-7,86,,,,,,,3647,1011,990,1020,981,510,,1184125,1989,Man
