,subjID,experimentName,versionName,sequenceName,url,selected_row,windowWidth,windowHeight,screenWidth,screenHeight,startDate,startTime,trial,stimulus_0,stimulus_1,duration,actual_depth_0,actual_depth_1,discrim_choice,trial_RT,log_fixation,log_sceneDuration1,log_mask1,log_sceneDuration2,log_mask2,experimentTime,totalTime,age,gender
0,824924,DepthScenes,v2_duration_discrimination,discrim_jsons/Discrim125_randls_4.json,http://54.235.29.9/FacialAge/BNav_EC2/DepthDuration/v2_depth_discrimination_MTurk/v2_DepthDiscrim_HTML.html#327,327,1504,694,1536,864,9-17-2022,13-45-50,1,depth_discrimination_stimuli/002989_2014-06-15_12-25-03_094959634447_rgbf000150-resize_3/002989_2014-06-15_12-25-03_094959634447_rgbf000150-resize_3-target.png,depth_discrimination_stimuli/000866_2014-06-09_20-45-42_260595134347_rgbf000139-resize_1/000866_2014-06-09_20-45-42_260595134347_rgbf000139-resize_1-target.png,125.0,4.1975,3.2155,0.0,2045,1004,122,1013,112,511,,594469,40,Woman
1,824924,DepthScenes,v2_duration_discrimination,discrim_jsons/Discrim125_randls_4.json,http://54.235.29.9/FacialAge/BNav_EC2/DepthDuration/v2_depth_discrimination_MTurk/v2_DepthDiscrim_HTML.html#327,327,1504,694,1536,864,9-17-2022,13-45-50,2,depth_discrimination_stimuli/001011_2014-06-08_23-18-54_260595134347_rgbf000044-resize_4/001011_2014-06-08_23-18-54_260595134347_rgbf000044-resize_4-target.png,depth_discrimination_stimuli/002875_2014-06-01_15-19-00_094959634447_rgbf000151-resize_1/002875_2014-06-01_15-19-00_094959634447_rgbf000151-resize_1-target.png,125.0,2.4730000000000003,1.9675,1.0,898,1005,120,1011,114,500,,594469,40,Woman
2,824924,DepthScenes,v2_duration_discrimination,discrim_jsons/Discrim125_randls_4.json,http://54.235.29.9/FacialAge/BNav_EC2/DepthDuration/v2_depth_discrimination_MTurk/v2_DepthDiscrim_HTML.html#327,327,1504,694,1536,864,9-17-2022,13-45-50,3,depth_discrimination_stimuli/000736_2014-06-08_18-24-15_260595134347_rgbf000206-resize_3/000736_2014-06-08_18-24-15_260595134347_rgbf000206-resize_3-target.png,depth_discrimination_stimuli/000137_2014-05-20_17-04-49_260595134347_rgbf000120-resize_1/000137_2014-05-20_17-04-49_260595134347_rgbf000120-resize_1-target.png,125.0,3.515,3.786,1.0,1011,1005,121,1013,112,500,,594469,40,Woman
3,824924,DepthScenes,v2_duration_discrimination,discrim_jsons/Discrim125_randls_4.json,http://54.235.29.9/FacialAge/BNav_EC2/DepthDuration/v2_depth_discrimination_MTurk/v2_DepthDiscrim_HTML.html#327,327,1504,694,1536,864,9-17-2022,13-45-50,4,depth_discrimination_stimuli/002600_2014-06-24_14-27-04_094959634447_rgbf000074-resize_2/002600_2014-06-24_14-27-04_094959634447_rgbf000074-resize_2-target.png,depth_discrimination_stimuli/003228_2014-05-14_13-42-35_094959634447_rgbf000101-resize_1/003228_2014-05-14_13-42-35_094959634447_rgbf000101-resize_1-target.png,125.0,2.7575,1.9680000000000002,1.0,841,1008,124,996,121,500,,594469,40,Woman
4,824924,DepthScenes,v2_duration_discrimination,discrim_jsons/Discrim125_randls_4.json,http://54.235.29.9/FacialAge/BNav_EC2/DepthDuration/v2_depth_discrimination_MTurk/v2_DepthDiscrim_HTML.html#327,327,1504,694,1536,864,9-17-2022,13-45-50,5,depth_discrimination_stimuli/000739_2014-06-08_18-45-58_260595134347_rgbf000068-resize_1/000739_2014-06-08_18-45-58_260595134347_rgbf000068-resize_1-target.png,depth_discrimination_stimuli/000734_2014-06-08_17-39-11_260595134347_rgbf000128-resize_2/000734_2014-06-08_17-39-11_260595134347_rgbf000128-resize_2-target.png,125.0,3.534,4.098,0.0,976,1005,120,1013,111,509,,594469,40,Woman
5,824924,DepthScenes,v2_duration_discrimination,discrim_jsons/Discrim125_randls_4.json,http://54.235.29.9/FacialAge/BNav_EC2/DepthDuration/v2_depth_discrimination_MTurk/v2_DepthDiscrim_HTML.html#327,327,1504,694,1536,864,9-17-2022,13-45-50,6,depth_discrimination_stimuli/001164_2014-06-17_15-35-46_260595134347_rgbf000085-resize_3/001164_2014-06-17_15-35-46_260595134347_rgbf000085-resize_3-target.png,depth_discrimination_stimuli/001136_2014-06-17_15-19-41_260595134347_rgbf000076-resize_3/001136_2014-06-17_15-19-41_260595134347_rgbf000076-resize_3-target.png,125.0,2.354,1.8655,1.0,676,1009,115,1014,112,500,,594469,40,Woman
6,824924,DepthScenes,v2_duration_discrimination,discrim_jsons/Discrim125_randls_4.json,http://54.235.29.9/FacialAge/BNav_EC2/DepthDuration/v2_depth_discrimination_MTurk/v2_DepthDiscrim_HTML.html#327,327,1504,694,1536,864,9-17-2022,13-45-50,7,depth_discrimination_stimuli/000569_2014-06-09_22-51-47_260595134347_rgbf000141-resize_3/000569_2014-06-09_22-51-47_260595134347_rgbf000141-resize_3-target.png,depth_discrimination_stimuli/000569_2014-06-09_22-51-47_260595134347_rgbf000141-resize_3/000569_2014-06-09_22-51-47_260595134347_rgbf000141-resize_3-target.png,125.0,4.512,4.512,3.0,1482,1006,123,1010,122,495,,594469,40,Woman
7,824924,DepthScenes,v2_duration_discrimination,discrim_jsons/Discrim125_randls_4.json,http://54.235.29.9/FacialAge/BNav_EC2/DepthDuration/v2_depth_discrimination_MTurk/v2_DepthDiscrim_HTML.html#327,327,1504,694,1536,864,9-17-2022,13-45-50,8,depth_discrimination_stimuli/000414_2014-06-04_19-49-13_260595134347_rgbf000044-resize_0/000414_2014-06-04_19-49-13_260595134347_rgbf000044-resize_0-target.png,depth_discrimination_stimuli/003129_2014-05-12_10-48-10_094959634447_rgbf000100-resize_0/003129_2014-05-12_10-48-10_094959634447_rgbf000100-resize_0-target.png,125.0,4.329,4.9305,1.0,976,1001,125,1006,123,497,,594469,40,Woman
8,824924,DepthScenes,v2_duration_discrimination,discrim_jsons/Discrim125_randls_4.json,http://54.235.29.9/FacialAge/BNav_EC2/DepthDuration/v2_depth_discrimination_MTurk/v2_DepthDiscrim_HTML.html#327,327,1504,694,1536,864,9-17-2022,13-45-50,9,depth_discrimination_stimuli/001133_2014-06-17_14-49-16_260595134347_rgbf000100-resize_0/001133_2014-06-17_14-49-16_260595134347_rgbf000100-resize_0-target.png,depth_discrimination_stimuli/001132_2014-06-17_14-48-54_260595134347_rgbf000100-resize_2/001132_2014-06-17_14-48-54_260595134347_rgbf000100-resize_2-target.png,125.0,4.2115,3.753,1.0,704,1001,136,994,119,515,,594469,40,Woman
9,824924,DepthScenes,v2_duration_discrimination,discrim_jsons/Discrim125_randls_4.json,http://54.235.29.9/FacialAge/BNav_EC2/DepthDuration/v2_depth_discrimination_MTurk/v2_DepthDiscrim_HTML.html#327,327,1504,694,1536,864,9-17-2022,13-45-50,10,depth_discrimination_stimuli/001570_2014-06-20_17-21-09_260595134347_rgbf000135-resize_4/001570_2014-06-20_17-21-09_260595134347_rgbf000135-resize_4-target.png,depth_discrimination_stimuli/001392_2014-06-19_16-07-59_260595134347_rgbf000046-resize_1/001392_2014-06-19_16-07-59_260595134347_rgbf000046-resize_1-target.png,125.0,4.467,4.135,1.0,1642,1002,123,1000,124,503,,594469,40,Woman
10,824924,DepthScenes,v2_duration_discrimination,discrim_jsons/Discrim125_randls_4.json,http://54.235.29.9/FacialAge/BNav_EC2/DepthDuration/v2_depth_discrimination_MTurk/v2_DepthDiscrim_HTML.html#327,327,1504,694,1536,864,9-17-2022,13-45-50,11,depth_discrimination_stimuli/002964_2014-06-08_17-46-11_094959634447_rgbf000091-resize_4/002964_2014-06-08_17-46-11_094959634447_rgbf000091-resize_4-target.png,depth_discrimination_stimuli/002136_2014-06-25_21-18-03_260595134347_rgbf000109-resize_3/002136_2014-06-25_21-18-03_260595134347_rgbf000109-resize_3-target.png,125.0,1.6909999999999998,1.9569999999999999,0.0,753,1004,124,1009,124,496,,594469,40,Woman
11,824924,DepthScenes,v2_duration_discrimination,discrim_jsons/Discrim125_randls_4.json,http://54.235.29.9/FacialAge/BNav_EC2/DepthDuration/v2_depth_discrimination_MTurk/v2_DepthDiscrim_HTML.html#327,327,1504,694,1536,864,9-17-2022,13-45-50,12,depth_discrimination_stimuli/002118_2014-06-25_20-32-08_260595134347_rgbf000078-resize_1/002118_2014-06-25_20-32-08_260595134347_rgbf000078-resize_1-target.png,depth_discrimination_stimuli/001516_2014-06-20_16-25-09_260595134347_rgbf000076-resize_2/001516_2014-06-20_16-25-09_260595134347_rgbf000076-resize_2-target.png,125.0,2.6460000000000004,1.7445,1.0,692,1012,123,991,124,510,,594469,40,Woman
12,824924,DepthScenes,v2_duration_discrimination,discrim_jsons/Discrim125_randls_4.json,http://54.235.29.9/FacialAge/BNav_EC2/DepthDuration/v2_depth_discrimination_MTurk/v2_DepthDiscrim_HTML.html#327,327,1504,694,1536,864,9-17-2022,13-45-50,13,depth_discrimination_stimuli/001158_2014-06-17_15-32-16_260595134347_rgbf000138-resize_2/001158_2014-06-17_15-32-16_260595134347_rgbf000138-resize_2-target.png,depth_discrimination_stimuli/000556_2014-06-09_22-42-56_260595134347_rgbf000214-resize_1/000556_2014-06-09_22-42-56_260595134347_rgbf000214-resize_1-target.png,125.0,4.5315,4.8415,1.0,1246,1000,140,993,124,492,,594469,40,Woman
13,824924,DepthScenes,v2_duration_discrimination,discrim_jsons/Discrim125_randls_4.json,http://54.235.29.9/FacialAge/BNav_EC2/DepthDuration/v2_depth_discrimination_MTurk/v2_DepthDiscrim_HTML.html#327,327,1504,694,1536,864,9-17-2022,13-45-50,14,depth_discrimination_stimuli/000486_2014-06-09_20-47-20_260595134347_rgbf000143-resize_2/000486_2014-06-09_20-47-20_260595134347_rgbf000143-resize_2-target.png,depth_discrimination_stimuli/003083_2014-06-15_15-21-03_094959634447_rgbf000063-resize_1/003083_2014-06-15_15-21-03_094959634447_rgbf000063-resize_1-target.png,125.0,4.8325,4.1405,1.0,1269,1015,111,1009,125,497,,594469,40,Woman
14,824924,DepthScenes,v2_duration_discrimination,discrim_jsons/Discrim125_randls_4.json,http://54.235.29.9/FacialAge/BNav_EC2/DepthDuration/v2_depth_discrimination_MTurk/v2_DepthDiscrim_HTML.html#327,327,1504,694,1536,864,9-17-2022,13-45-50,15,depth_discrimination_stimuli/001150_2014-06-17_15-27-34_260595134347_rgbf000108-resize_2/001150_2014-06-17_15-27-34_260595134347_rgbf000108-resize_2-target.png,depth_discrimination_stimuli/000665_2014-06-09_20-42-35_260595134347_rgbf000110-resize_1/000665_2014-06-09_20-42-35_260595134347_rgbf000110-resize_1-target.png,125.0,4.0325,3.057,1.0,838,1007,118,1000,125,512,,594469,40,Woman
15,824924,DepthScenes,v2_duration_discrimination,discrim_jsons/Discrim125_randls_4.json,http://54.235.29.9/FacialAge/BNav_EC2/DepthDuration/v2_depth_discrimination_MTurk/v2_DepthDiscrim_HTML.html#327,327,1504,694,1536,864,9-17-2022,13-45-50,16,depth_discrimination_stimuli/000375_2014-06-08_11-17-29_260595134347_rgbf000133-resize_2/000375_2014-06-08_11-17-29_260595134347_rgbf000133-resize_2-target.png,depth_discrimination_stimuli/000375_2014-06-08_11-17-29_260595134347_rgbf000133-resize_2/000375_2014-06-08_11-17-29_260595134347_rgbf000133-resize_2-target.png,125.0,4.718,4.718,0.0,843,1001,135,992,120,500,,594469,40,Woman
16,824924,DepthScenes,v2_duration_discrimination,discrim_jsons/Discrim125_randls_4.json,http://54.235.29.9/FacialAge/BNav_EC2/DepthDuration/v2_depth_discrimination_MTurk/v2_DepthDiscrim_HTML.html#327,327,1504,694,1536,864,9-17-2022,13-45-50,17,depth_discrimination_stimuli/002057_2014-06-24_21-00-13_260595134347_rgbf000120-resize_1/002057_2014-06-24_21-00-13_260595134347_rgbf000120-resize_1-target.png,depth_discrimination_stimuli/000709_2014-06-08_13-51-55_260595134347_rgbf000068-resize_3/000709_2014-06-08_13-51-55_260595134347_rgbf000068-resize_3-target.png,125.0,2.967,1.8030000000000002,1.0,928,1008,124,993,129,510,,594469,40,Woman
17,824924,DepthScenes,v2_duration_discrimination,discrim_jsons/Discrim125_randls_4.json,http://54.235.29.9/FacialAge/BNav_EC2/DepthDuration/v2_depth_discrimination_MTurk/v2_DepthDiscrim_HTML.html#327,327,1504,694,1536,864,9-17-2022,13-45-50,18,depth_discrimination_stimuli/002509_2014-06-24_13-19-22_094959634447_rgbf000077-resize_0/002509_2014-06-24_13-19-22_094959634447_rgbf000077-resize_0-target.png,depth_discrimination_stimuli/003338_2014-05-20_11-01-23_094959634447_rgbf000051-resize_6/003338_2014-05-20_11-01-23_094959634447_rgbf000051-resize_6-target.png,125.0,1.3065,1.693,0.0,660,1001,124,1012,126,497,,594469,40,Woman
18,824924,DepthScenes,v2_duration_discrimination,discrim_jsons/Discrim125_randls_4.json,http://54.235.29.9/FacialAge/BNav_EC2/DepthDuration/v2_depth_discrimination_MTurk/v2_DepthDiscrim_HTML.html#327,327,1504,694,1536,864,9-17-2022,13-45-50,19,depth_discrimination_stimuli/002630_2014-06-24_14-47-50_094959634447_rgbf000055-resize_1/002630_2014-06-24_14-47-50_094959634447_rgbf000055-resize_1-target.png,depth_discrimination_stimuli/002758_2014-06-22_19-11-20_094959634447_rgbf000128-resize_1/002758_2014-06-22_19-11-20_094959634447_rgbf000128-resize_1-target.png,125.0,3.0095,2.555,1.0,1570,1002,124,1000,125,507,,594469,40,Woman
19,824924,DepthScenes,v2_duration_discrimination,discrim_jsons/Discrim125_randls_4.json,http://54.235.29.9/FacialAge/BNav_EC2/DepthDuration/v2_depth_discrimination_MTurk/v2_DepthDiscrim_HTML.html#327,327,1504,694,1536,864,9-17-2022,13-45-50,20,depth_discrimination_stimuli/000788_2014-06-08_22-34-36_260595134347_rgbf000131-resize_1/000788_2014-06-08_22-34-36_260595134347_rgbf000131-resize_1-target.png,depth_discrimination_stimuli/001235_2014-06-17_16-37-36_260595134347_rgbf000084-resize_4/001235_2014-06-17_16-37-36_260595134347_rgbf000084-resize_4-target.png,125.0,3.359,3.6605,0.0,1280,1002,124,1014,111,500,,594469,40,Woman
20,824924,DepthScenes,v2_duration_discrimination,discrim_jsons/Discrim125_randls_4.json,http://54.235.29.9/FacialAge/BNav_EC2/DepthDuration/v2_depth_discrimination_MTurk/v2_DepthDiscrim_HTML.html#327,327,1504,694,1536,864,9-17-2022,13-45-50,21,depth_discrimination_stimuli/000758_2014-06-08_22-05-08_260595134347_rgbf000085-resize_0/000758_2014-06-08_22-05-08_260595134347_rgbf000085-resize_0-target.png,depth_discrimination_stimuli/000854_2014-06-09_19-43-13_260595134347_rgbf000066-resize_0/000854_2014-06-09_19-43-13_260595134347_rgbf000066-resize_0-target.png,125.0,3.3810000000000002,3.068,1.0,789,1001,126,1000,139,498,,594469,40,Woman
21,824924,DepthScenes,v2_duration_discrimination,discrim_jsons/Discrim125_randls_4.json,http://54.235.29.9/FacialAge/BNav_EC2/DepthDuration/v2_depth_discrimination_MTurk/v2_DepthDiscrim_HTML.html#327,327,1504,694,1536,864,9-17-2022,13-45-50,22,depth_discrimination_stimuli/001016_2014-06-09_16-16-10_260595134347_rgbf000112-resize_5/001016_2014-06-09_16-16-10_260595134347_rgbf000112-resize_5-target.png,depth_discrimination_stimuli/002340_2014-06-28_20-05-46_260595134347_rgbf000113-resize_0/002340_2014-06-28_20-05-46_260595134347_rgbf000113-resize_0-target.png,125.0,1.6565,2.4735,1.0,807,1004,122,1011,124,495,,594469,40,Woman
22,824924,DepthScenes,v2_duration_discrimination,discrim_jsons/Discrim125_randls_4.json,http://54.235.29.9/FacialAge/BNav_EC2/DepthDuration/v2_depth_discrimination_MTurk/v2_DepthDiscrim_HTML.html#327,327,1504,694,1536,864,9-17-2022,13-45-50,23,depth_discrimination_stimuli/003621_2014-05-23_18-06-08_094959634447_rgbf000101-resize_1/003621_2014-05-23_18-06-08_094959634447_rgbf000101-resize_1-target.png,depth_discrimination_stimuli/001584_2014-06-20_11-07-43_260595134347_rgbf000002-resize_1/001584_2014-06-20_11-07-43_260595134347_rgbf000002-resize_1-target.png,125.0,3.9835,3.53,1.0,1308,1005,121,1000,125,512,,594469,40,Woman
23,824924,DepthScenes,v2_duration_discrimination,discrim_jsons/Discrim125_randls_4.json,http://54.235.29.9/FacialAge/BNav_EC2/DepthDuration/v2_depth_discrimination_MTurk/v2_DepthDiscrim_HTML.html#327,327,1504,694,1536,864,9-17-2022,13-45-50,24,depth_discrimination_stimuli/000787_2014-06-08_22-33-53_260595134347_rgbf000175-resize_1/000787_2014-06-08_22-33-53_260595134347_rgbf000175-resize_1-target.png,depth_discrimination_stimuli/000787_2014-06-08_22-33-53_260595134347_rgbf000175-resize_1/000787_2014-06-08_22-33-53_260595134347_rgbf000175-resize_1-target.png,125.0,4.784,4.784,3.0,731,1015,110,1007,125,492,,594469,40,Woman
24,824924,DepthScenes,v2_duration_discrimination,discrim_jsons/Discrim125_randls_4.json,http://54.235.29.9/FacialAge/BNav_EC2/DepthDuration/v2_depth_discrimination_MTurk/v2_DepthDiscrim_HTML.html#327,327,1504,694,1536,864,9-17-2022,13-45-50,25,depth_discrimination_stimuli/000692_2014-06-08_13-09-42_260595134347_rgbf000199-resize_2/000692_2014-06-08_13-09-42_260595134347_rgbf000199-resize_2-target.png,depth_discrimination_stimuli/001094_2014-06-15_17-36-00_260595134347_rgbf000205-resize_0/001094_2014-06-15_17-36-00_260595134347_rgbf000205-resize_0-target.png,125.0,3.661,4.2175,1.0,788,1001,125,1011,123,494,,594469,40,Woman
25,824924,DepthScenes,v2_duration_discrimination,discrim_jsons/Discrim125_randls_4.json,http://54.235.29.9/FacialAge/BNav_EC2/DepthDuration/v2_depth_discrimination_MTurk/v2_DepthDiscrim_HTML.html#327,327,1504,694,1536,864,9-17-2022,13-45-50,26,depth_discrimination_stimuli/000506_2014-06-08_23-21-00_260595134347_rgbf000070-resize_7/000506_2014-06-08_23-21-00_260595134347_rgbf000070-resize_7-target.png,depth_discrimination_stimuli/003079_2014-06-15_15-18-20_094959634447_rgbf000152-resize_8/003079_2014-06-15_15-18-20_094959634447_rgbf000152-resize_8-target.png,125.0,4.0585,2.8775,0.0,994,1010,116,1000,124,515,,594469,40,Woman
26,824924,DepthScenes,v2_duration_discrimination,discrim_jsons/Discrim125_randls_4.json,http://54.235.29.9/FacialAge/BNav_EC2/DepthDuration/v2_depth_discrimination_MTurk/v2_DepthDiscrim_HTML.html#327,327,1504,694,1536,864,9-17-2022,13-45-50,27,depth_discrimination_stimuli/002375_2014-06-28_20-13-44_260595134347_rgbf000032-resize_1/002375_2014-06-28_20-13-44_260595134347_rgbf000032-resize_1-target.png,depth_discrimination_stimuli/002657_2014-06-13_15-29-54_094959634447_rgbf000150-resize_1/002657_2014-06-13_15-29-54_094959634447_rgbf000150-resize_1-target.png,125.0,4.0175,4.919,1.0,1669,1011,126,996,125,493,,594469,40,Woman
27,824924,DepthScenes,v2_duration_discrimination,discrim_jsons/Discrim125_randls_4.json,http://54.235.29.9/FacialAge/BNav_EC2/DepthDuration/v2_depth_discrimination_MTurk/v2_DepthDiscrim_HTML.html#327,327,1504,694,1536,864,9-17-2022,13-45-50,28,depth_discrimination_stimuli/002272_2014-06-28_18-53-56_260595134347_rgbf000067-resize_2/002272_2014-06-28_18-53-56_260595134347_rgbf000067-resize_2-target.png,depth_discrimination_stimuli/001571_2014-06-20_17-21-32_260595134347_rgbf000089-resize_1/001571_2014-06-20_17-21-32_260595134347_rgbf000089-resize_1-target.png,125.0,1.138,1.86,0.0,1597,1015,111,1001,124,504,,594469,40,Woman
28,824924,DepthScenes,v2_duration_discrimination,discrim_jsons/Discrim125_randls_4.json,http://54.235.29.9/FacialAge/BNav_EC2/DepthDuration/v2_depth_discrimination_MTurk/v2_DepthDiscrim_HTML.html#327,327,1504,694,1536,864,9-17-2022,13-45-50,29,depth_discrimination_stimuli/000682_2014-06-08_23-14-58_260595134347_rgbf000041-resize_5/000682_2014-06-08_23-14-58_260595134347_rgbf000041-resize_5-target.png,depth_discrimination_stimuli/001650_2014-06-20_12-09-00_260595134347_rgbf000087-resize_3/001650_2014-06-20_12-09-00_260595134347_rgbf000087-resize_3-target.png,125.0,2.7239999999999998,1.9505,1.0,1154,1009,117,1003,121,513,,594469,40,Woman
29,824924,DepthScenes,v2_duration_discrimination,discrim_jsons/Discrim125_randls_4.json,http://54.235.29.9/FacialAge/BNav_EC2/DepthDuration/v2_depth_discrimination_MTurk/v2_DepthDiscrim_HTML.html#327,327,1504,694,1536,864,9-17-2022,13-45-50,30,depth_discrimination_stimuli/002725_2014-06-22_11-47-51_094959634447_rgbf000070-resize_1/002725_2014-06-22_11-47-51_094959634447_rgbf000070-resize_1-target.png,depth_discrimination_stimuli/002344_2014-06-28_20-06-29_260595134347_rgbf000030-resize_1/002344_2014-06-28_20-06-29_260595134347_rgbf000030-resize_1-target.png,125.0,2.195,1.5795,1.0,1327,1016,109,1007,117,502,,594469,40,Woman
30,824924,DepthScenes,v2_duration_discrimination,discrim_jsons/Discrim125_randls_4.json,http://54.235.29.9/FacialAge/BNav_EC2/DepthDuration/v2_depth_discrimination_MTurk/v2_DepthDiscrim_HTML.html#327,327,1504,694,1536,864,9-17-2022,13-45-50,31,depth_discrimination_stimuli/000878_2014-06-08_22-52-45_260595134347_rgbf000045-resize_2/000878_2014-06-08_22-52-45_260595134347_rgbf000045-resize_2-target.png,depth_discrimination_stimuli/002953_2014-06-08_17-32-18_094959634447_rgbf000059-resize_5/002953_2014-06-08_17-32-18_094959634447_rgbf000059-resize_5-target.png,125.0,2.092,1.551,1.0,1085,1016,123,995,123,493,,594469,40,Woman
31,824924,DepthScenes,v2_duration_discrimination,discrim_jsons/Discrim125_randls_4.json,http://54.235.29.9/FacialAge/BNav_EC2/DepthDuration/v2_depth_discrimination_MTurk/v2_DepthDiscrim_HTML.html#327,327,1504,694,1536,864,9-17-2022,13-45-50,32,depth_discrimination_stimuli/002748_2014-06-22_19-07-22_094959634447_rgbf000078-resize_1/002748_2014-06-22_19-07-22_094959634447_rgbf000078-resize_1-target.png,depth_discrimination_stimuli/002995_2014-06-15_12-31-26_094959634447_rgbf000150-resize_1/002995_2014-06-15_12-31-26_094959634447_rgbf000150-resize_1-target.png,125.0,4.6705,3.8360000000000003,1.0,1114,1000,125,1007,118,501,,594469,40,Woman
32,824924,DepthScenes,v2_duration_discrimination,discrim_jsons/Discrim125_randls_4.json,http://54.235.29.9/FacialAge/BNav_EC2/DepthDuration/v2_depth_discrimination_MTurk/v2_DepthDiscrim_HTML.html#327,327,1504,694,1536,864,9-17-2022,13-45-50,33,depth_discrimination_stimuli/002905_2014-06-03_18-04-43_094959634447_rgbf000151-resize_2/002905_2014-06-03_18-04-43_094959634447_rgbf000151-resize_2-target.png,depth_discrimination_stimuli/003423_2014-05-21_10-23-26_094959634447_rgbf002665-resize_2/003423_2014-05-21_10-23-26_094959634447_rgbf002665-resize_2-target.png,125.0,2.0295,3.2575,1.0,1186,1009,124,1006,112,510,,594469,40,Woman
33,824924,DepthScenes,v2_duration_discrimination,discrim_jsons/Discrim125_randls_4.json,http://54.235.29.9/FacialAge/BNav_EC2/DepthDuration/v2_depth_discrimination_MTurk/v2_DepthDiscrim_HTML.html#327,327,1504,694,1536,864,9-17-2022,13-45-50,34,depth_discrimination_stimuli/000436_2014-06-09_22-25-11_260595134347_rgbf000137-resize_1/000436_2014-06-09_22-25-11_260595134347_rgbf000137-resize_1-target.png,depth_discrimination_stimuli/002444_2014-06-28_20-32-08_260595134347_rgbf000027-resize_0/002444_2014-06-28_20-32-08_260595134347_rgbf000027-resize_0-target.png,125.0,4.0705,4.388999999999999,1.0,801,1003,129,1008,111,512,,594469,40,Woman
34,824924,DepthScenes,v2_duration_discrimination,discrim_jsons/Discrim125_randls_4.json,http://54.235.29.9/FacialAge/BNav_EC2/DepthDuration/v2_depth_discrimination_MTurk/v2_DepthDiscrim_HTML.html#327,327,1504,694,1536,864,9-17-2022,13-45-50,35,depth_discrimination_stimuli/001222_2014-06-17_16-24-06_260595134347_rgbf000073-resize_0/001222_2014-06-17_16-24-06_260595134347_rgbf000073-resize_0-target.png,depth_discrimination_stimuli/001222_2014-06-17_16-24-06_260595134347_rgbf000073-resize_0/001222_2014-06-17_16-24-06_260595134347_rgbf000073-resize_0-target.png,125.0,1.4385,1.4385,3.0,932,1002,124,999,125,510,,594469,40,Woman
35,824924,DepthScenes,v2_duration_discrimination,discrim_jsons/Discrim125_randls_4.json,http://54.235.29.9/FacialAge/BNav_EC2/DepthDuration/v2_depth_discrimination_MTurk/v2_DepthDiscrim_HTML.html#327,327,1504,694,1536,864,9-17-2022,13-45-50,36,depth_discrimination_stimuli/003070_2014-06-15_14-58-27_094959634447_rgbf000150-resize_3/003070_2014-06-15_14-58-27_094959634447_rgbf000150-resize_3-target.png,depth_discrimination_stimuli/000943_2014-06-09_19-31-07_260595134347_rgbf000128-resize_1/000943_2014-06-09_19-31-07_260595134347_rgbf000128-resize_1-target.png,125.0,2.9415,1.9765,1.0,982,1001,131,998,124,511,,594469,40,Woman
36,824924,DepthScenes,v2_duration_discrimination,discrim_jsons/Discrim125_randls_4.json,http://54.235.29.9/FacialAge/BNav_EC2/DepthDuration/v2_depth_discrimination_MTurk/v2_DepthDiscrim_HTML.html#327,327,1504,694,1536,864,9-17-2022,13-45-50,37,depth_discrimination_stimuli/002279_2014-06-28_18-55-32_260595134347_rgbf000040-resize_5/002279_2014-06-28_18-55-32_260595134347_rgbf000040-resize_5-target.png,depth_discrimination_stimuli/000635_2014-06-08_16-38-42_260595134347_rgbf000106-resize_1/000635_2014-06-08_16-38-42_260595134347_rgbf000106-resize_1-target.png,125.0,1.5043333333333,2.074,0.0,1351,1015,112,1001,123,512,,594469,40,Woman
37,824924,DepthScenes,v2_duration_discrimination,discrim_jsons/Discrim125_randls_4.json,http://54.235.29.9/FacialAge/BNav_EC2/DepthDuration/v2_depth_discrimination_MTurk/v2_DepthDiscrim_HTML.html#327,327,1504,694,1536,864,9-17-2022,13-45-50,38,depth_discrimination_stimuli/000009_2014-05-26_14-32-05_260595134347_rgbf000034-resize_3/000009_2014-05-26_14-32-05_260595134347_rgbf000034-resize_3-target.png,depth_discrimination_stimuli/001828_2014-06-26_21-40-03_260595134347_rgbf000024-resize_0/001828_2014-06-26_21-40-03_260595134347_rgbf000024-resize_0-target.png,125.0,3.8715,4.8260000000000005,0.0,1093,1003,121,1011,123,496,,594469,40,Woman
38,824924,DepthScenes,v2_duration_discrimination,discrim_jsons/Discrim125_randls_4.json,http://54.235.29.9/FacialAge/BNav_EC2/DepthDuration/v2_depth_discrimination_MTurk/v2_DepthDiscrim_HTML.html#327,327,1504,694,1536,864,9-17-2022,13-45-50,39,depth_discrimination_stimuli/003534_2014-05-22_15-06-10_094959634447_rgbf000102-resize_4/003534_2014-05-22_15-06-10_094959634447_rgbf000102-resize_4-target.png,depth_discrimination_stimuli/002637_2014-06-24_14-51-13_094959634447_rgbf000066-resize_4/002637_2014-06-24_14-51-13_094959634447_rgbf000066-resize_4-target.png,125.0,1.426,1.9955,0.0,734,1003,123,1010,115,507,,594469,40,Woman
39,824924,DepthScenes,v2_duration_discrimination,discrim_jsons/Discrim125_randls_4.json,http://54.235.29.9/FacialAge/BNav_EC2/DepthDuration/v2_depth_discrimination_MTurk/v2_DepthDiscrim_HTML.html#327,327,1504,694,1536,864,9-17-2022,13-45-50,40,depth_discrimination_stimuli/002763_2014-06-22_19-13-10_094959634447_rgbf000075-resize_4/002763_2014-06-22_19-13-10_094959634447_rgbf000075-resize_4-target.png,depth_discrimination_stimuli/002209_2014-06-28_18-36-10_260595134347_rgbf000051-resize_1/002209_2014-06-28_18-36-10_260595134347_rgbf000051-resize_1-target.png,125.0,1.68375,2.057,1.0,655,1005,120,1011,115,499,,594469,40,Woman
40,824924,DepthScenes,v2_duration_discrimination,discrim_jsons/Discrim125_randls_4.json,http://54.235.29.9/FacialAge/BNav_EC2/DepthDuration/v2_depth_discrimination_MTurk/v2_DepthDiscrim_HTML.html#327,327,1504,694,1536,864,9-17-2022,13-45-50,41,depth_discrimination_stimuli/000447_2014-06-08_16-15-46_260595134347_rgbf000130-resize_1/000447_2014-06-08_16-15-46_260595134347_rgbf000130-resize_1-target.png,depth_discrimination_stimuli/001447_2014-06-19_17-00-32_260595134347_rgbf000082-resize_5/001447_2014-06-19_17-00-32_260595134347_rgbf000082-resize_5-target.png,125.0,4.479,4.13775,0.0,1040,1001,128,1011,110,507,,594469,40,Woman
41,824924,DepthScenes,v2_duration_discrimination,discrim_jsons/Discrim125_randls_4.json,http://54.235.29.9/FacialAge/BNav_EC2/DepthDuration/v2_depth_discrimination_MTurk/v2_DepthDiscrim_HTML.html#327,327,1504,694,1536,864,9-17-2022,13-45-50,42,depth_discrimination_stimuli/002213_2014-06-28_18-37-58_260595134347_rgbf000055-resize_1/002213_2014-06-28_18-37-58_260595134347_rgbf000055-resize_1-target.png,depth_discrimination_stimuli/000691_2014-06-08_13-08-50_260595134347_rgbf000132-resize_3/000691_2014-06-08_13-08-50_260595134347_rgbf000132-resize_3-target.png,125.0,3.62,4.1530000000000005,0.0,938,1004,124,1009,124,488,,594469,40,Woman
42,824924,DepthScenes,v2_duration_discrimination,discrim_jsons/Discrim125_randls_4.json,http://54.235.29.9/FacialAge/BNav_EC2/DepthDuration/v2_depth_discrimination_MTurk/v2_DepthDiscrim_HTML.html#327,327,1504,694,1536,864,9-17-2022,13-45-50,43,depth_discrimination_stimuli/001244_2014-06-17_16-47-45_260595134347_rgbf000030-resize_4/001244_2014-06-17_16-47-45_260595134347_rgbf000030-resize_4-target.png,depth_discrimination_stimuli/003495_2014-05-21_16-01-51_094959634447_rgbf000100-resize_3/003495_2014-05-21_16-01-51_094959634447_rgbf000100-resize_3-target.png,125.0,2.0425,1.6255,1.0,881,1004,125,1009,121,497,,594469,40,Woman
43,824924,DepthScenes,v2_duration_discrimination,discrim_jsons/Discrim125_randls_4.json,http://54.235.29.9/FacialAge/BNav_EC2/DepthDuration/v2_depth_discrimination_MTurk/v2_DepthDiscrim_HTML.html#327,327,1504,694,1536,864,9-17-2022,13-45-50,44,depth_discrimination_stimuli/000469_2014-06-09_19-42-10_260595134347_rgbf000081-resize_1/000469_2014-06-09_19-42-10_260595134347_rgbf000081-resize_1-target.png,depth_discrimination_stimuli/000483_2014-06-09_20-41-45_260595134347_rgbf000116-resize_4/000483_2014-06-09_20-41-45_260595134347_rgbf000116-resize_4-target.png,125.0,1.652,1.337,0.0,1087,1003,122,1008,118,500,,594469,40,Woman
44,824924,DepthScenes,v2_duration_discrimination,discrim_jsons/Discrim125_randls_4.json,http://54.235.29.9/FacialAge/BNav_EC2/DepthDuration/v2_depth_discrimination_MTurk/v2_DepthDiscrim_HTML.html#327,327,1504,694,1536,864,9-17-2022,13-45-50,45,depth_discrimination_stimuli/001056_2014-06-08_18-46-44_260595134347_rgbf000068-resize_0/001056_2014-06-08_18-46-44_260595134347_rgbf000068-resize_0-target.png,depth_discrimination_stimuli/002199_2014-06-28_18-33-56_260595134347_rgbf000074-resize_0/002199_2014-06-28_18-33-56_260595134347_rgbf000074-resize_0-target.png,125.0,2.6625,1.996,1.0,1658,1008,117,1014,111,510,,594469,40,Woman
45,824924,DepthScenes,v2_duration_discrimination,discrim_jsons/Discrim125_randls_4.json,http://54.235.29.9/FacialAge/BNav_EC2/DepthDuration/v2_depth_discrimination_MTurk/v2_DepthDiscrim_HTML.html#327,327,1504,694,1536,864,9-17-2022,13-45-50,46,depth_discrimination_stimuli/000906_2014-06-08_13-35-43_260595134347_rgbf000155-resize_1/000906_2014-06-08_13-35-43_260595134347_rgbf000155-resize_1-target.png,depth_discrimination_stimuli/002805_2014-06-22_19-54-03_094959634447_rgbf000079-resize_1/002805_2014-06-22_19-54-03_094959634447_rgbf000079-resize_1-target.png,125.0,2.8489999999999998,3.1439999999999997,1.0,935,1012,114,1015,124,485,,594469,40,Woman
46,824924,DepthScenes,v2_duration_discrimination,discrim_jsons/Discrim125_randls_4.json,http://54.235.29.9/FacialAge/BNav_EC2/DepthDuration/v2_depth_discrimination_MTurk/v2_DepthDiscrim_HTML.html#327,327,1504,694,1536,864,9-17-2022,13-45-50,47,depth_discrimination_stimuli/002445_2014-06-28_20-32-16_260595134347_rgbf000029-resize_4/002445_2014-06-28_20-32-16_260595134347_rgbf000029-resize_4-target.png,depth_discrimination_stimuli/000780_2014-06-08_22-28-29_260595134347_rgbf000126-resize_1/000780_2014-06-08_22-28-29_260595134347_rgbf000126-resize_1-target.png,125.0,2.5315,3.3825,0.0,1057,1001,125,1010,113,508,,594469,40,Woman
47,824924,DepthScenes,v2_duration_discrimination,discrim_jsons/Discrim125_randls_4.json,http://54.235.29.9/FacialAge/BNav_EC2/DepthDuration/v2_depth_discrimination_MTurk/v2_DepthDiscrim_HTML.html#327,327,1504,694,1536,864,9-17-2022,13-45-50,48,depth_discrimination_stimuli/001199_2014-06-17_16-03-48_260595134347_rgbf000077-resize_0/001199_2014-06-17_16-03-48_260595134347_rgbf000077-resize_0-target.png,depth_discrimination_stimuli/000502_2014-06-08_23-02-32_260595134347_rgbf000063-resize_4/000502_2014-06-08_23-02-32_260595134347_rgbf000063-resize_4-target.png,125.0,3.4375,2.431,1.0,916,1003,122,1008,118,503,,594469,40,Woman
48,824924,DepthScenes,v2_duration_discrimination,discrim_jsons/Discrim125_randls_4.json,http://54.235.29.9/FacialAge/BNav_EC2/DepthDuration/v2_depth_discrimination_MTurk/v2_DepthDiscrim_HTML.html#327,327,1504,694,1536,864,9-17-2022,13-45-50,49,depth_discrimination_stimuli/000642_2014-06-08_16-59-25_260595134347_rgbf000098-resize_2/000642_2014-06-08_16-59-25_260595134347_rgbf000098-resize_2-target.png,depth_discrimination_stimuli/002425_2014-06-28_20-27-29_260595134347_rgbf000031-resize_8/002425_2014-06-28_20-27-29_260595134347_rgbf000031-resize_8-target.png,125.0,2.8815,3.8960000000000004,1.0,1131,1003,122,1000,135,496,,594469,40,Woman
49,824924,DepthScenes,v2_duration_discrimination,discrim_jsons/Discrim125_randls_4.json,http://54.235.29.9/FacialAge/BNav_EC2/DepthDuration/v2_depth_discrimination_MTurk/v2_DepthDiscrim_HTML.html#327,327,1504,694,1536,864,9-17-2022,13-45-50,50,depth_discrimination_stimuli/001417_2014-06-19_16-25-36_260595134347_rgbf000115-resize_5/001417_2014-06-19_16-25-36_260595134347_rgbf000115-resize_5-target.png,depth_discrimination_stimuli/003081_2014-06-15_15-19-16_094959634447_rgbf000150-resize_1/003081_2014-06-15_15-19-16_094959634447_rgbf000150-resize_1-target.png,125.0,4.6255,3.9125,1.0,1155,1004,121,1012,123,494,,594469,40,Woman
50,824924,DepthScenes,v2_duration_discrimination,discrim_jsons/Discrim125_randls_4.json,http://54.235.29.9/FacialAge/BNav_EC2/DepthDuration/v2_depth_discrimination_MTurk/v2_DepthDiscrim_HTML.html#327,327,1504,694,1536,864,9-17-2022,13-45-50,51,depth_discrimination_stimuli/002663_2014-06-13_15-50-26_094959634447_rgbf000075-resize_1/002663_2014-06-13_15-50-26_094959634447_rgbf000075-resize_1-target.png,depth_discrimination_stimuli/000409_2014-06-04_19-23-33_260595134347_rgbf000067-resize_0/000409_2014-06-04_19-23-33_260595134347_rgbf000067-resize_0-target.png,125.0,4.7495,3.7335,0.0,1182,1002,125,1006,119,501,,594469,40,Woman
51,824924,DepthScenes,v2_duration_discrimination,discrim_jsons/Discrim125_randls_4.json,http://54.235.29.9/FacialAge/BNav_EC2/DepthDuration/v2_depth_discrimination_MTurk/v2_DepthDiscrim_HTML.html#327,327,1504,694,1536,864,9-17-2022,13-45-50,52,depth_discrimination_stimuli/001540_2014-06-20_17-01-05_260595134347_rgbf000086-resize_2/001540_2014-06-20_17-01-05_260595134347_rgbf000086-resize_2-target.png,depth_discrimination_stimuli/001540_2014-06-20_17-01-05_260595134347_rgbf000086-resize_2/001540_2014-06-20_17-01-05_260595134347_rgbf000086-resize_2-target.png,125.0,1.459,1.459,3.0,839,1007,123,1005,113,511,,594469,40,Woman
52,824924,DepthScenes,v2_duration_discrimination,discrim_jsons/Discrim125_randls_4.json,http://54.235.29.9/FacialAge/BNav_EC2/DepthDuration/v2_depth_discrimination_MTurk/v2_DepthDiscrim_HTML.html#327,327,1504,694,1536,864,9-17-2022,13-45-50,53,depth_discrimination_stimuli/001029_2014-06-08_13-17-57_260595134347_rgbf000065-resize_1/001029_2014-06-08_13-17-57_260595134347_rgbf000065-resize_1-target.png,depth_discrimination_stimuli/000677_2014-06-08_23-10-32_260595134347_rgbf000158-resize_6/000677_2014-06-08_23-10-32_260595134347_rgbf000158-resize_6-target.png,125.0,3.0835,3.556,0.0,1222,1013,128,991,120,504,,594469,40,Woman
53,824924,DepthScenes,v2_duration_discrimination,discrim_jsons/Discrim125_randls_4.json,http://54.235.29.9/FacialAge/BNav_EC2/DepthDuration/v2_depth_discrimination_MTurk/v2_DepthDiscrim_HTML.html#327,327,1504,694,1536,864,9-17-2022,13-45-50,54,depth_discrimination_stimuli/001055_2014-06-08_18-45-35_260595134347_rgbf000111-resize_4/001055_2014-06-08_18-45-35_260595134347_rgbf000111-resize_4-target.png,depth_discrimination_stimuli/000549_2014-06-08_22-10-24_260595134347_rgbf000247-resize_3/000549_2014-06-08_22-10-24_260595134347_rgbf000247-resize_3-target.png,125.0,2.4290000000000003,1.841,1.0,964,1015,110,1001,125,508,,594469,40,Woman
54,824924,DepthScenes,v2_duration_discrimination,discrim_jsons/Discrim125_randls_4.json,http://54.235.29.9/FacialAge/BNav_EC2/DepthDuration/v2_depth_discrimination_MTurk/v2_DepthDiscrim_HTML.html#327,327,1504,694,1536,864,9-17-2022,13-45-50,55,depth_discrimination_stimuli/001808_2014-06-26_20-50-58_260595134347_rgbf000029-resize_1/001808_2014-06-26_20-50-58_260595134347_rgbf000029-resize_1-target.png,depth_discrimination_stimuli/001815_2014-06-26_20-52-55_260595134347_rgbf000020-resize_0/001815_2014-06-26_20-52-55_260595134347_rgbf000020-resize_0-target.png,125.0,4.249,3.3865,0.0,1198,1003,122,1005,120,514,,594469,40,Woman
55,824924,DepthScenes,v2_duration_discrimination,discrim_jsons/Discrim125_randls_4.json,http://54.235.29.9/FacialAge/BNav_EC2/DepthDuration/v2_depth_discrimination_MTurk/v2_DepthDiscrim_HTML.html#327,327,1504,694,1536,864,9-17-2022,13-45-50,56,depth_discrimination_stimuli/001092_2014-06-15_17-34-58_260595134347_rgbf000171-resize_3/001092_2014-06-15_17-34-58_260595134347_rgbf000171-resize_3-target.png,depth_discrimination_stimuli/002545_2014-06-24_13-38-53_094959634447_rgbf000080-resize_4/002545_2014-06-24_13-38-53_094959634447_rgbf000080-resize_4-target.png,125.0,2.6935,1.9205,0.0,1153,1001,124,1010,125,495,,594469,40,Woman
56,824924,DepthScenes,v2_duration_discrimination,discrim_jsons/Discrim125_randls_4.json,http://54.235.29.9/FacialAge/BNav_EC2/DepthDuration/v2_depth_discrimination_MTurk/v2_DepthDiscrim_HTML.html#327,327,1504,694,1536,864,9-17-2022,13-45-50,57,depth_discrimination_stimuli/001806_2014-06-26_20-50-20_260595134347_rgbf000091-resize_1/001806_2014-06-26_20-50-20_260595134347_rgbf000091-resize_1-target.png,depth_discrimination_stimuli/001617_2014-06-20_11-35-32_260595134347_rgbf000066-resize_1/001617_2014-06-20_11-35-32_260595134347_rgbf000066-resize_1-target.png,125.0,2.7305,3.7910000000000004,0.0,650,1008,119,1010,114,507,,594469,40,Woman
57,824924,DepthScenes,v2_duration_discrimination,discrim_jsons/Discrim125_randls_4.json,http://54.235.29.9/FacialAge/BNav_EC2/DepthDuration/v2_depth_discrimination_MTurk/v2_DepthDiscrim_HTML.html#327,327,1504,694,1536,864,9-17-2022,13-45-50,58,depth_discrimination_stimuli/001175_2014-06-17_15-45-55_260595134347_rgbf000129-resize_4/001175_2014-06-17_15-45-55_260595134347_rgbf000129-resize_4-target.png,depth_discrimination_stimuli/003490_2014-05-21_15-50-11_094959634447_rgbf000101-resize_3/003490_2014-05-21_15-50-11_094959634447_rgbf000101-resize_3-target.png,125.0,4.255,3.6445,1.0,771,1010,115,1006,118,499,,594469,40,Woman
58,824924,DepthScenes,v2_duration_discrimination,discrim_jsons/Discrim125_randls_4.json,http://54.235.29.9/FacialAge/BNav_EC2/DepthDuration/v2_depth_discrimination_MTurk/v2_DepthDiscrim_HTML.html#327,327,1504,694,1536,864,9-17-2022,13-45-50,59,depth_discrimination_stimuli/001167_2014-06-17_15-38-07_260595134347_rgbf000108-resize_0/001167_2014-06-17_15-38-07_260595134347_rgbf000108-resize_0-target.png,depth_discrimination_stimuli/003587_2014-05-23_16-48-02_094959634447_rgbf002384-resize_2/003587_2014-05-23_16-48-02_094959634447_rgbf002384-resize_2-target.png,125.0,1.8505,1.357,0.0,1417,1001,136,995,124,508,,594469,40,Woman
59,824924,DepthScenes,v2_duration_discrimination,discrim_jsons/Discrim125_randls_4.json,http://54.235.29.9/FacialAge/BNav_EC2/DepthDuration/v2_depth_discrimination_MTurk/v2_DepthDiscrim_HTML.html#327,327,1504,694,1536,864,9-17-2022,13-45-50,60,depth_discrimination_stimuli/000917_2014-06-09_22-45-29_260595134347_rgbf000149-resize_3/000917_2014-06-09_22-45-29_260595134347_rgbf000149-resize_3-target.png,depth_discrimination_stimuli/002323_2014-06-28_20-01-54_260595134347_rgbf000051-resize_4/002323_2014-06-28_20-01-54_260595134347_rgbf000051-resize_4-target.png,125.0,4.1865,3.7310000000000003,0.0,979,1001,133,996,120,501,,594469,40,Woman
60,824924,DepthScenes,v2_duration_discrimination,discrim_jsons/Discrim125_randls_4.json,http://54.235.29.9/FacialAge/BNav_EC2/DepthDuration/v2_depth_discrimination_MTurk/v2_DepthDiscrim_HTML.html#327,327,1504,694,1536,864,9-17-2022,13-45-50,61,depth_discrimination_stimuli/001170_2014-06-17_15-43-44_260595134347_rgbf000096-resize_6/001170_2014-06-17_15-43-44_260595134347_rgbf000096-resize_6-target.png,depth_discrimination_stimuli/001170_2014-06-17_15-43-44_260595134347_rgbf000096-resize_6/001170_2014-06-17_15-43-44_260595134347_rgbf000096-resize_6-target.png,125.0,1.1909999999999998,1.1909999999999998,3.0,967,1002,123,1001,134,497,,594469,40,Woman
61,824924,DepthScenes,v2_duration_discrimination,discrim_jsons/Discrim125_randls_4.json,http://54.235.29.9/FacialAge/BNav_EC2/DepthDuration/v2_depth_discrimination_MTurk/v2_DepthDiscrim_HTML.html#327,327,1504,694,1536,864,9-17-2022,13-45-50,62,depth_discrimination_stimuli/002988_2014-06-15_12-24-20_094959634447_rgbf000150-resize_1/002988_2014-06-15_12-24-20_094959634447_rgbf000150-resize_1-target.png,depth_discrimination_stimuli/001052_2014-06-08_18-24-54_260595134347_rgbf000130-resize_1/001052_2014-06-08_18-24-54_260595134347_rgbf000130-resize_1-target.png,125.0,4.7669999999999995,4.1045,3.0,1393,1003,124,999,125,511,,594469,40,Woman
62,824924,DepthScenes,v2_duration_discrimination,discrim_jsons/Discrim125_randls_4.json,http://54.235.29.9/FacialAge/BNav_EC2/DepthDuration/v2_depth_discrimination_MTurk/v2_DepthDiscrim_HTML.html#327,327,1504,694,1536,864,9-17-2022,13-45-50,63,depth_discrimination_stimuli/000810_2014-06-08_17-20-01_260595134347_rgbf000105-resize_0/000810_2014-06-08_17-20-01_260595134347_rgbf000105-resize_0-target.png,depth_discrimination_stimuli/001214_2014-06-17_16-13-55_260595134347_rgbf000111-resize_0/001214_2014-06-17_16-13-55_260595134347_rgbf000111-resize_0-target.png,125.0,1.4865,2.6505,1.0,1398,1017,110,1004,119,505,,594469,40,Woman
63,824924,DepthScenes,v2_duration_discrimination,discrim_jsons/Discrim125_randls_4.json,http://54.235.29.9/FacialAge/BNav_EC2/DepthDuration/v2_depth_discrimination_MTurk/v2_DepthDiscrim_HTML.html#327,327,1504,694,1536,864,9-17-2022,13-45-50,64,depth_discrimination_stimuli/000929_2014-06-09_16-33-19_260595134347_rgbf000139-resize_0/000929_2014-06-09_16-33-19_260595134347_rgbf000139-resize_0-target.png,depth_discrimination_stimuli/000457_2014-06-08_16-52-43_260595134347_rgbf000199-resize_1/000457_2014-06-08_16-52-43_260595134347_rgbf000199-resize_1-target.png,125.0,2.8680000000000003,3.6489999999999996,1.0,1040,1012,115,1003,124,499,,594469,40,Woman
64,824924,DepthScenes,v2_duration_discrimination,discrim_jsons/Discrim125_randls_4.json,http://54.235.29.9/FacialAge/BNav_EC2/DepthDuration/v2_depth_discrimination_MTurk/v2_DepthDiscrim_HTML.html#327,327,1504,694,1536,864,9-17-2022,13-45-50,65,depth_discrimination_stimuli/000773_2014-06-08_22-24-54_260595134347_rgbf000093-resize_1/000773_2014-06-08_22-24-54_260595134347_rgbf000093-resize_1-target.png,depth_discrimination_stimuli/002414_2014-06-28_20-24-58_260595134347_rgbf000067-resize_4/002414_2014-06-28_20-24-58_260595134347_rgbf000067-resize_4-target.png,125.0,4.973,4.363,1.0,1107,1001,124,1015,109,500,,594469,40,Woman
65,824924,DepthScenes,v2_duration_discrimination,discrim_jsons/Discrim125_randls_4.json,http://54.235.29.9/FacialAge/BNav_EC2/DepthDuration/v2_depth_discrimination_MTurk/v2_DepthDiscrim_HTML.html#327,327,1504,694,1536,864,9-17-2022,13-45-50,66,depth_discrimination_stimuli/002788_2014-06-22_19-36-03_094959634447_rgbf000088-resize_2/002788_2014-06-22_19-36-03_094959634447_rgbf000088-resize_2-target.png,depth_discrimination_stimuli/000749_2014-06-08_21-55-06_260595134347_rgbf000070-resize_2/000749_2014-06-08_21-55-06_260595134347_rgbf000070-resize_2-target.png,125.0,1.6465,2.331,0.0,1052,1016,123,991,123,498,,594469,40,Woman
66,824924,DepthScenes,v2_duration_discrimination,discrim_jsons/Discrim125_randls_4.json,http://54.235.29.9/FacialAge/BNav_EC2/DepthDuration/v2_depth_discrimination_MTurk/v2_DepthDiscrim_HTML.html#327,327,1504,694,1536,864,9-17-2022,13-45-50,67,depth_discrimination_stimuli/000470_2014-06-09_19-42-40_260595134347_rgbf000094-resize_1/000470_2014-06-09_19-42-40_260595134347_rgbf000094-resize_1-target.png,depth_discrimination_stimuli/000109_2014-05-14_23-41-52_260595134347_rgbf000035-resize_9/000109_2014-05-14_23-41-52_260595134347_rgbf000035-resize_9-target.png,125.0,1.831,1.3545,1.0,1044,1010,124,997,119,502,,594469,40,Woman
67,824924,DepthScenes,v2_duration_discrimination,discrim_jsons/Discrim125_randls_4.json,http://54.235.29.9/FacialAge/BNav_EC2/DepthDuration/v2_depth_discrimination_MTurk/v2_DepthDiscrim_HTML.html#327,327,1504,694,1536,864,9-17-2022,13-45-50,68,depth_discrimination_stimuli/002570_2014-06-24_13-59-54_094959634447_rgbf000059-resize_0/002570_2014-06-24_13-59-54_094959634447_rgbf000059-resize_0-target.png,depth_discrimination_stimuli/002467_2014-06-28_20-38-07_260595134347_rgbf000026-resize_2/002467_2014-06-28_20-38-07_260595134347_rgbf000026-resize_2-target.png,125.0,4.037,4.742,0.0,1102,1010,117,1006,123,497,,594469,40,Woman
68,824924,DepthScenes,v2_duration_discrimination,discrim_jsons/Discrim125_randls_4.json,http://54.235.29.9/FacialAge/BNav_EC2/DepthDuration/v2_depth_discrimination_MTurk/v2_DepthDiscrim_HTML.html#327,327,1504,694,1536,864,9-17-2022,13-45-50,69,depth_discrimination_stimuli/002039_2014-06-24_20-22-38_260595134347_rgbf000084-resize_1/002039_2014-06-24_20-22-38_260595134347_rgbf000084-resize_1-target.png,depth_discrimination_stimuli/002103_2014-06-25_20-00-40_260595134347_rgbf000049-resize_0/002103_2014-06-25_20-00-40_260595134347_rgbf000049-resize_0-target.png,125.0,4.408,4.105,0.0,1369,1002,123,1008,123,497,,594469,40,Woman
69,824924,DepthScenes,v2_duration_discrimination,discrim_jsons/Discrim125_randls_4.json,http://54.235.29.9/FacialAge/BNav_EC2/DepthDuration/v2_depth_discrimination_MTurk/v2_DepthDiscrim_HTML.html#327,327,1504,694,1536,864,9-17-2022,13-45-50,70,depth_discrimination_stimuli/000522_2014-06-08_13-35-06_260595134347_rgbf000244-resize_1/000522_2014-06-08_13-35-06_260595134347_rgbf000244-resize_1-target.png,depth_discrimination_stimuli/002949_2014-06-26_15-57-42_094959634447_rgbf000079-resize_1/002949_2014-06-26_15-57-42_094959634447_rgbf000079-resize_1-target.png,125.0,2.3715,1.8915,0.0,1056,1003,122,1014,122,496,,594469,40,Woman
70,824924,DepthScenes,v2_duration_discrimination,discrim_jsons/Discrim125_randls_4.json,http://54.235.29.9/FacialAge/BNav_EC2/DepthDuration/v2_depth_discrimination_MTurk/v2_DepthDiscrim_HTML.html#327,327,1504,694,1536,864,9-17-2022,13-45-50,71,depth_discrimination_stimuli/002072_2014-06-24_21-48-06_260595134347_rgbf000115-resize_0/002072_2014-06-24_21-48-06_260595134347_rgbf000115-resize_0-target.png,depth_discrimination_stimuli/002072_2014-06-24_21-48-06_260595134347_rgbf000115-resize_0/002072_2014-06-24_21-48-06_260595134347_rgbf000115-resize_0-target.png,125.0,4.702,4.702,3.0,872,1012,113,1001,124,511,,594469,40,Woman
71,824924,DepthScenes,v2_duration_discrimination,discrim_jsons/Discrim125_randls_4.json,http://54.235.29.9/FacialAge/BNav_EC2/DepthDuration/v2_depth_discrimination_MTurk/v2_DepthDiscrim_HTML.html#327,327,1504,694,1536,864,9-17-2022,13-45-50,72,depth_discrimination_stimuli/003492_2014-05-21_15-50-55_094959634447_rgbf000828-resize_1/003492_2014-05-21_15-50-55_094959634447_rgbf000828-resize_1-target.png,depth_discrimination_stimuli/002568_2014-06-24_13-59-21_094959634447_rgbf000062-resize_4/002568_2014-06-24_13-59-21_094959634447_rgbf000062-resize_4-target.png,125.0,4.06875,3.015,1.0,1195,1004,123,999,125,502,,594469,40,Woman
72,824924,DepthScenes,v2_duration_discrimination,discrim_jsons/Discrim125_randls_4.json,http://54.235.29.9/FacialAge/BNav_EC2/DepthDuration/v2_depth_discrimination_MTurk/v2_DepthDiscrim_HTML.html#327,327,1504,694,1536,864,9-17-2022,13-45-50,73,depth_discrimination_stimuli/002153_2014-06-25_21-27-18_260595134347_rgbf000038-resize_5/002153_2014-06-25_21-27-18_260595134347_rgbf000038-resize_5-target.png,depth_discrimination_stimuli/002660_2014-06-13_15-44-18_094959634447_rgbf001878-resize_2/002660_2014-06-13_15-44-18_094959634447_rgbf001878-resize_2-target.png,125.0,2.505,3.576,0.0,790,1001,125,999,130,498,,594469,40,Woman
73,824924,DepthScenes,v2_duration_discrimination,discrim_jsons/Discrim125_randls_4.json,http://54.235.29.9/FacialAge/BNav_EC2/DepthDuration/v2_depth_discrimination_MTurk/v2_DepthDiscrim_HTML.html#327,327,1504,694,1536,864,9-17-2022,13-45-50,74,depth_discrimination_stimuli/002784_2014-06-22_19-26-30_094959634447_rgbf000083-resize_3/002784_2014-06-22_19-26-30_094959634447_rgbf000083-resize_3-target.png,depth_discrimination_stimuli/001100_2014-06-15_17-46-26_260595134347_rgbf000225-resize_2/001100_2014-06-15_17-46-26_260595134347_rgbf000225-resize_2-target.png,125.0,1.8046666666667,2.24,0.0,1517,1014,123,993,119,502,,594469,40,Woman
74,824924,DepthScenes,v2_duration_discrimination,discrim_jsons/Discrim125_randls_4.json,http://54.235.29.9/FacialAge/BNav_EC2/DepthDuration/v2_depth_discrimination_MTurk/v2_DepthDiscrim_HTML.html#327,327,1504,694,1536,864,9-17-2022,13-45-50,75,depth_discrimination_stimuli/001810_2014-06-26_20-51-35_260595134347_rgbf000040-resize_3/001810_2014-06-26_20-51-35_260595134347_rgbf000040-resize_3-target.png,depth_discrimination_stimuli/003010_2014-06-15_12-54-35_094959634447_rgbf000112-resize_0/003010_2014-06-15_12-54-35_094959634447_rgbf000112-resize_0-target.png,125.0,2.2525,3.1185,0.0,895,1013,124,993,122,499,,594469,40,Woman
75,824924,DepthScenes,v2_duration_discrimination,discrim_jsons/Discrim125_randls_4.json,http://54.235.29.9/FacialAge/BNav_EC2/DepthDuration/v2_depth_discrimination_MTurk/v2_DepthDiscrim_HTML.html#327,327,1504,694,1536,864,9-17-2022,13-45-50,76,depth_discrimination_stimuli/001059_2014-06-08_21-53-27_260595134347_rgbf000061-resize_4/001059_2014-06-08_21-53-27_260595134347_rgbf000061-resize_4-target.png,depth_discrimination_stimuli/001032_2014-06-08_13-23-17_260595134347_rgbf000021-resize_3/001032_2014-06-08_13-23-17_260595134347_rgbf000021-resize_3-target.png,125.0,2.4185,3.2725,1.0,992,1016,123,989,122,512,,594469,40,Woman
76,824924,DepthScenes,v2_duration_discrimination,discrim_jsons/Discrim125_randls_4.json,http://54.235.29.9/FacialAge/BNav_EC2/DepthDuration/v2_depth_discrimination_MTurk/v2_DepthDiscrim_HTML.html#327,327,1504,694,1536,864,9-17-2022,13-45-50,77,depth_discrimination_stimuli/001498_2014-06-19_17-45-14_260595134347_rgbf000129-resize_4/001498_2014-06-19_17-45-14_260595134347_rgbf000129-resize_4-target.png,depth_discrimination_stimuli/001498_2014-06-19_17-45-14_260595134347_rgbf000129-resize_4/001498_2014-06-19_17-45-14_260595134347_rgbf000129-resize_4-target.png,125.0,1.4075,1.4075,3.0,831,1008,126,995,125,512,,594469,40,Woman
77,824924,DepthScenes,v2_duration_discrimination,discrim_jsons/Discrim125_randls_4.json,http://54.235.29.9/FacialAge/BNav_EC2/DepthDuration/v2_depth_discrimination_MTurk/v2_DepthDiscrim_HTML.html#327,327,1504,694,1536,864,9-17-2022,13-45-50,78,depth_discrimination_stimuli/000368_2014-06-09_15-53-01_260595134347_rgbf000155-resize_2/000368_2014-06-09_15-53-01_260595134347_rgbf000155-resize_2-target.png,depth_discrimination_stimuli/002678_2014-06-13_16-15-32_094959634447_rgbf000151-resize_6/002678_2014-06-13_16-15-32_094959634447_rgbf000151-resize_6-target.png,125.0,2.4859999999999998,2.1830000000000003,0.0,894,1010,115,1005,121,511,,594469,40,Woman
78,824924,DepthScenes,v2_duration_discrimination,discrim_jsons/Discrim125_randls_4.json,http://54.235.29.9/FacialAge/BNav_EC2/DepthDuration/v2_depth_discrimination_MTurk/v2_DepthDiscrim_HTML.html#327,327,1504,694,1536,864,9-17-2022,13-45-50,79,depth_discrimination_stimuli/001555_2014-06-20_17-12-10_260595134347_rgbf000065-resize_4/001555_2014-06-20_17-12-10_260595134347_rgbf000065-resize_4-target.png,depth_discrimination_stimuli/000103_2014-05-14_22-01-17_260595134347_rgbf000152-resize_5/000103_2014-05-14_22-01-17_260595134347_rgbf000152-resize_5-target.png,125.0,1.633,1.993,0.0,972,1011,114,1003,122,512,,594469,40,Woman
79,824924,DepthScenes,v2_duration_discrimination,discrim_jsons/Discrim125_randls_4.json,http://54.235.29.9/FacialAge/BNav_EC2/DepthDuration/v2_depth_discrimination_MTurk/v2_DepthDiscrim_HTML.html#327,327,1504,694,1536,864,9-17-2022,13-45-50,80,depth_discrimination_stimuli/001066_2014-06-08_22-03-20_260595134347_rgbf000066-resize_4/001066_2014-06-08_22-03-20_260595134347_rgbf000066-resize_4-target.png,depth_discrimination_stimuli/000742_2014-06-08_18-48-09_260595134347_rgbf000164-resize_4/000742_2014-06-08_18-48-09_260595134347_rgbf000164-resize_4-target.png,125.0,4.2330000000000005,4.632,0.0,1188,1005,124,1005,123,494,,594469,40,Woman
80,824924,DepthScenes,v2_duration_discrimination,discrim_jsons/Discrim125_randls_4.json,http://54.235.29.9/FacialAge/BNav_EC2/DepthDuration/v2_depth_discrimination_MTurk/v2_DepthDiscrim_HTML.html#327,327,1504,694,1536,864,9-17-2022,13-45-50,81,depth_discrimination_stimuli/001110_2014-06-15_17-25-28_260595134347_rgbf000150-resize_1/001110_2014-06-15_17-25-28_260595134347_rgbf000150-resize_1-target.png,depth_discrimination_stimuli/000927_2014-06-09_16-32-30_260595134347_rgbf000123-resize_3/000927_2014-06-09_16-32-30_260595134347_rgbf000123-resize_3-target.png,125.0,1.7115,2.6785,1.0,1354,1009,115,1001,123,510,,594469,40,Woman
81,824924,DepthScenes,v2_duration_discrimination,discrim_jsons/Discrim125_randls_4.json,http://54.235.29.9/FacialAge/BNav_EC2/DepthDuration/v2_depth_discrimination_MTurk/v2_DepthDiscrim_HTML.html#327,327,1504,694,1536,864,9-17-2022,13-45-50,82,depth_discrimination_stimuli/003292_2014-05-14_21-53-49_094959634447_rgbf000100-resize_2/003292_2014-05-14_21-53-49_094959634447_rgbf000100-resize_2-target.png,depth_discrimination_stimuli/002639_2014-06-24_14-51-37_094959634447_rgbf000074-resize_4/002639_2014-06-24_14-51-37_094959634447_rgbf000074-resize_4-target.png,125.0,3.4815,4.0375,0.0,1498,1012,123,994,121,513,,594469,40,Woman
82,824924,DepthScenes,v2_duration_discrimination,discrim_jsons/Discrim125_randls_4.json,http://54.235.29.9/FacialAge/BNav_EC2/DepthDuration/v2_depth_discrimination_MTurk/v2_DepthDiscrim_HTML.html#327,327,1504,694,1536,864,9-17-2022,13-45-50,83,depth_discrimination_stimuli/002043_2014-06-24_20-29-38_260595134347_rgbf000039-resize_4/002043_2014-06-24_20-29-38_260595134347_rgbf000039-resize_4-target.png,depth_discrimination_stimuli/003048_2014-06-15_13-49-43_094959634447_rgbf000150-resize_1/003048_2014-06-15_13-49-43_094959634447_rgbf000150-resize_1-target.png,125.0,2.8435,4.0035,0.0,1457,1001,137,987,130,495,,594469,40,Woman
83,824924,DepthScenes,v2_duration_discrimination,discrim_jsons/Discrim125_randls_4.json,http://54.235.29.9/FacialAge/BNav_EC2/DepthDuration/v2_depth_discrimination_MTurk/v2_DepthDiscrim_HTML.html#327,327,1504,694,1536,864,9-17-2022,13-45-50,84,depth_discrimination_stimuli/000493_2014-06-09_21-01-18_260595134347_rgbf000196-resize_3/000493_2014-06-09_21-01-18_260595134347_rgbf000196-resize_3-target.png,depth_discrimination_stimuli/000191_2014-05-12_17-07-38_260595134347_rgbf000199-resize_0/000191_2014-05-12_17-07-38_260595134347_rgbf000199-resize_0-target.png,125.0,3.44,3.7995,0.0,1041,1007,124,994,125,507,,594469,40,Woman
84,824924,DepthScenes,v2_duration_discrimination,discrim_jsons/Discrim125_randls_4.json,http://54.235.29.9/FacialAge/BNav_EC2/DepthDuration/v2_depth_discrimination_MTurk/v2_DepthDiscrim_HTML.html#327,327,1504,694,1536,864,9-17-2022,13-45-50,85,depth_discrimination_stimuli/002549_2014-06-24_13-41-39_094959634447_rgbf000022-resize_3/002549_2014-06-24_13-41-39_094959634447_rgbf000022-resize_3-target.png,depth_discrimination_stimuli/002750_2014-06-22_19-08-03_094959634447_rgbf000094-resize_4/002750_2014-06-22_19-08-03_094959634447_rgbf000094-resize_4-target.png,125.0,1.476,2.354,0.0,931,1003,126,1003,126,497,,594469,40,Woman
85,824924,DepthScenes,v2_duration_discrimination,discrim_jsons/Discrim125_randls_4.json,http://54.235.29.9/FacialAge/BNav_EC2/DepthDuration/v2_depth_discrimination_MTurk/v2_DepthDiscrim_HTML.html#327,327,1504,694,1536,864,9-17-2022,13-45-50,86,depth_discrimination_stimuli/001449_2014-06-19_17-01-27_260595134347_rgbf000116-resize_2/001449_2014-06-19_17-01-27_260595134347_rgbf000116-resize_2-target.png,depth_discrimination_stimuli/001450_2014-06-19_17-02-03_260595134347_rgbf000203-resize_4/001450_2014-06-19_17-02-03_260595134347_rgbf000203-resize_4-target.png,125.0,3.452,4.0106666666667,0.0,1213,1001,126,1008,117,502,,594469,40,Woman
86,824924,DepthScenes,v2_duration_discrimination,discrim_jsons/Discrim125_randls_4.json,http://54.235.29.9/FacialAge/BNav_EC2/DepthDuration/v2_depth_discrimination_MTurk/v2_DepthDiscrim_HTML.html#327,327,1504,694,1536,864,9-17-2022,13-45-50,86,,,,,,,1213,1001,126,1008,117,502,,594469,40,Woman
