,subjID,experimentName,versionName,sequenceName,url,selected_row,windowWidth,windowHeight,screenWidth,screenHeight,startDate,startTime,trial,stimulus_0,stimulus_1,duration,actual_depth_0,actual_depth_1,discrim_choice,trial_RT,log_fixation,log_sceneDuration1,log_mask1,log_sceneDuration2,log_mask2,experimentTime,totalTime,age,gender
0,929106.0,DepthScenes,v2_duration_discrimination,discrim_jsons/Discrim125_randls_6_rotated.json,http://54.235.29.9/FacialAge/BNav_EC2/DepthDuration/v2_depth_discrimination_MTurk/v2_DepthDiscrim_HTML.html#381,381.0,1366.0,768.0,1366.0,768.0,9-6-2022,12-0-59,2.0,depth_discrimination_stimuli/001132_2014-06-17_14-48-54_260595134347_rgbf000100-resize_2/001132_2014-06-17_14-48-54_260595134347_rgbf000100-resize_2-target.png,depth_discrimination_stimuli/001133_2014-06-17_14-49-16_260595134347_rgbf000100-resize_0/001133_2014-06-17_14-49-16_260595134347_rgbf000100-resize_0-target.png,125.0,3.753,4.2115,0.0,7246.0,1004.0,123.0,990.0,139.0,486.0,,270443,35,Man
1,929106.0,DepthScenes,v2_duration_discrimination,discrim_jsons/Discrim125_randls_6_rotated.json,http://54.235.29.9/FacialAge/BNav_EC2/DepthDuration/v2_depth_discrimination_MTurk/v2_DepthDiscrim_HTML.html#381,381.0,1366.0,768.0,1366.0,768.0,9-6-2022,12-0-59,3.0,depth_discrimination_stimuli/002949_2014-06-26_15-57-42_094959634447_rgbf000079-resize_1/002949_2014-06-26_15-57-42_094959634447_rgbf000079-resize_1-target.png,depth_discrimination_stimuli/000522_2014-06-08_13-35-06_260595134347_rgbf000244-resize_1/000522_2014-06-08_13-35-06_260595134347_rgbf000244-resize_1-target.png,125.0,1.8915,2.3715,0.0,12966.0,1012.0,119.0,999.0,131.0,574.0,,270443,35,Man
2,929106.0,DepthScenes,v2_duration_discrimination,discrim_jsons/Discrim125_randls_6_rotated.json,http://54.235.29.9/FacialAge/BNav_EC2/DepthDuration/v2_depth_discrimination_MTurk/v2_DepthDiscrim_HTML.html#381,381.0,1366.0,768.0,1366.0,768.0,9-6-2022,12-0-59,4.0,depth_discrimination_stimuli/003083_2014-06-15_15-21-03_094959634447_rgbf000063-resize_1/003083_2014-06-15_15-21-03_094959634447_rgbf000063-resize_1-target.png,depth_discrimination_stimuli/000486_2014-06-09_20-47-20_260595134347_rgbf000143-resize_2/000486_2014-06-09_20-47-20_260595134347_rgbf000143-resize_2-target.png,125.0,4.1405,4.8325,0.0,12969.0,1012.0,119.0,999.0,131.0,574.0,,270443,35,Man
3,929106.0,DepthScenes,v2_duration_discrimination,discrim_jsons/Discrim125_randls_6_rotated.json,http://54.235.29.9/FacialAge/BNav_EC2/DepthDuration/v2_depth_discrimination_MTurk/v2_DepthDiscrim_HTML.html#381,381.0,1366.0,768.0,1366.0,768.0,9-6-2022,12-0-59,5.0,depth_discrimination_stimuli/003587_2014-05-23_16-48-02_094959634447_rgbf002384-resize_2/003587_2014-05-23_16-48-02_094959634447_rgbf002384-resize_2-target.png,depth_discrimination_stimuli/001167_2014-06-17_15-38-07_260595134347_rgbf000108-resize_0/001167_2014-06-17_15-38-07_260595134347_rgbf000108-resize_0-target.png,125.0,1.357,1.8505,0.0,12970.0,1012.0,119.0,999.0,131.0,574.0,,270443,35,Man
4,929106.0,DepthScenes,v2_duration_discrimination,discrim_jsons/Discrim125_randls_6_rotated.json,http://54.235.29.9/FacialAge/BNav_EC2/DepthDuration/v2_depth_discrimination_MTurk/v2_DepthDiscrim_HTML.html#381,381.0,1366.0,768.0,1366.0,768.0,9-6-2022,12-0-59,6.0,depth_discrimination_stimuli/001516_2014-06-20_16-25-09_260595134347_rgbf000076-resize_2/001516_2014-06-20_16-25-09_260595134347_rgbf000076-resize_2-target.png,depth_discrimination_stimuli/002118_2014-06-25_20-32-08_260595134347_rgbf000078-resize_1/002118_2014-06-25_20-32-08_260595134347_rgbf000078-resize_1-target.png,125.0,1.7445,2.6460000000000004,0.0,12971.0,1012.0,119.0,999.0,131.0,574.0,,270443,35,Man
5,929106.0,DepthScenes,v2_duration_discrimination,discrim_jsons/Discrim125_randls_6_rotated.json,http://54.235.29.9/FacialAge/BNav_EC2/DepthDuration/v2_depth_discrimination_MTurk/v2_DepthDiscrim_HTML.html#381,381.0,1366.0,768.0,1366.0,768.0,9-6-2022,12-0-59,7.0,depth_discrimination_stimuli/002340_2014-06-28_20-05-46_260595134347_rgbf000113-resize_0/002340_2014-06-28_20-05-46_260595134347_rgbf000113-resize_0-target.png,depth_discrimination_stimuli/001016_2014-06-09_16-16-10_260595134347_rgbf000112-resize_5/001016_2014-06-09_16-16-10_260595134347_rgbf000112-resize_5-target.png,125.0,2.4735,1.6565,0.0,12971.0,1012.0,119.0,999.0,131.0,574.0,,270443,35,Man
6,929106.0,DepthScenes,v2_duration_discrimination,discrim_jsons/Discrim125_randls_6_rotated.json,http://54.235.29.9/FacialAge/BNav_EC2/DepthDuration/v2_depth_discrimination_MTurk/v2_DepthDiscrim_HTML.html#381,381.0,1366.0,768.0,1366.0,768.0,9-6-2022,12-0-59,8.0,depth_discrimination_stimuli/003228_2014-05-14_13-42-35_094959634447_rgbf000101-resize_1/003228_2014-05-14_13-42-35_094959634447_rgbf000101-resize_1-target.png,depth_discrimination_stimuli/002600_2014-06-24_14-27-04_094959634447_rgbf000074-resize_2/002600_2014-06-24_14-27-04_094959634447_rgbf000074-resize_2-target.png,125.0,1.9680000000000002,2.7575,0.0,12972.0,1012.0,119.0,999.0,131.0,574.0,,270443,35,Man
7,929106.0,DepthScenes,v2_duration_discrimination,discrim_jsons/Discrim125_randls_6_rotated.json,http://54.235.29.9/FacialAge/BNav_EC2/DepthDuration/v2_depth_discrimination_MTurk/v2_DepthDiscrim_HTML.html#381,381.0,1366.0,768.0,1366.0,768.0,9-6-2022,12-0-59,9.0,depth_discrimination_stimuli/000854_2014-06-09_19-43-13_260595134347_rgbf000066-resize_0/000854_2014-06-09_19-43-13_260595134347_rgbf000066-resize_0-target.png,depth_discrimination_stimuli/000758_2014-06-08_22-05-08_260595134347_rgbf000085-resize_0/000758_2014-06-08_22-05-08_260595134347_rgbf000085-resize_0-target.png,125.0,3.068,3.3810000000000002,0.0,12972.0,1012.0,119.0,999.0,131.0,574.0,,270443,35,Man
8,929106.0,DepthScenes,v2_duration_discrimination,discrim_jsons/Discrim125_randls_6_rotated.json,http://54.235.29.9/FacialAge/BNav_EC2/DepthDuration/v2_depth_discrimination_MTurk/v2_DepthDiscrim_HTML.html#381,381.0,1366.0,768.0,1366.0,768.0,9-6-2022,12-0-59,10.0,depth_discrimination_stimuli/001650_2014-06-20_12-09-00_260595134347_rgbf000087-resize_3/001650_2014-06-20_12-09-00_260595134347_rgbf000087-resize_3-target.png,depth_discrimination_stimuli/000682_2014-06-08_23-14-58_260595134347_rgbf000041-resize_5/000682_2014-06-08_23-14-58_260595134347_rgbf000041-resize_5-target.png,125.0,1.9505,2.7239999999999998,0.0,20042.0,1028.0,102.0,1012.0,120.0,497.0,,270443,35,Man
9,929106.0,DepthScenes,v2_duration_discrimination,discrim_jsons/Discrim125_randls_6_rotated.json,http://54.235.29.9/FacialAge/BNav_EC2/DepthDuration/v2_depth_discrimination_MTurk/v2_DepthDiscrim_HTML.html#381,381.0,1366.0,768.0,1366.0,768.0,9-6-2022,12-0-59,11.0,depth_discrimination_stimuli/001498_2014-06-19_17-45-14_260595134347_rgbf000129-resize_4/001498_2014-06-19_17-45-14_260595134347_rgbf000129-resize_4-target.png,depth_discrimination_stimuli/001498_2014-06-19_17-45-14_260595134347_rgbf000129-resize_4/001498_2014-06-19_17-45-14_260595134347_rgbf000129-resize_4-target.png,125.0,1.4075,1.4075,0.0,20045.0,1028.0,102.0,1012.0,120.0,497.0,,270443,35,Man
10,929106.0,DepthScenes,v2_duration_discrimination,discrim_jsons/Discrim125_randls_6_rotated.json,http://54.235.29.9/FacialAge/BNav_EC2/DepthDuration/v2_depth_discrimination_MTurk/v2_DepthDiscrim_HTML.html#381,381.0,1366.0,768.0,1366.0,768.0,9-6-2022,12-0-59,12.0,depth_discrimination_stimuli/001815_2014-06-26_20-52-55_260595134347_rgbf000020-resize_0/001815_2014-06-26_20-52-55_260595134347_rgbf000020-resize_0-target.png,depth_discrimination_stimuli/001808_2014-06-26_20-50-58_260595134347_rgbf000029-resize_1/001808_2014-06-26_20-50-58_260595134347_rgbf000029-resize_1-target.png,125.0,3.3865,4.249,0.0,20046.0,1028.0,102.0,1012.0,120.0,497.0,,270443,35,Man
11,929106.0,DepthScenes,v2_duration_discrimination,discrim_jsons/Discrim125_randls_6_rotated.json,http://54.235.29.9/FacialAge/BNav_EC2/DepthDuration/v2_depth_discrimination_MTurk/v2_DepthDiscrim_HTML.html#381,381.0,1366.0,768.0,1366.0,768.0,9-6-2022,12-0-59,13.0,depth_discrimination_stimuli/000556_2014-06-09_22-42-56_260595134347_rgbf000214-resize_1/000556_2014-06-09_22-42-56_260595134347_rgbf000214-resize_1-target.png,depth_discrimination_stimuli/001158_2014-06-17_15-32-16_260595134347_rgbf000138-resize_2/001158_2014-06-17_15-32-16_260595134347_rgbf000138-resize_2-target.png,125.0,4.8415,4.5315,0.0,20047.0,1028.0,102.0,1012.0,120.0,497.0,,270443,35,Man
12,929106.0,DepthScenes,v2_duration_discrimination,discrim_jsons/Discrim125_randls_6_rotated.json,http://54.235.29.9/FacialAge/BNav_EC2/DepthDuration/v2_depth_discrimination_MTurk/v2_DepthDiscrim_HTML.html#381,381.0,1366.0,768.0,1366.0,768.0,9-6-2022,12-0-59,14.0,depth_discrimination_stimuli/002444_2014-06-28_20-32-08_260595134347_rgbf000027-resize_0/002444_2014-06-28_20-32-08_260595134347_rgbf000027-resize_0-target.png,depth_discrimination_stimuli/000436_2014-06-09_22-25-11_260595134347_rgbf000137-resize_1/000436_2014-06-09_22-25-11_260595134347_rgbf000137-resize_1-target.png,125.0,4.388999999999999,4.0705,0.0,20047.0,1028.0,102.0,1012.0,120.0,497.0,,270443,35,Man
13,929106.0,DepthScenes,v2_duration_discrimination,discrim_jsons/Discrim125_randls_6_rotated.json,http://54.235.29.9/FacialAge/BNav_EC2/DepthDuration/v2_depth_discrimination_MTurk/v2_DepthDiscrim_HTML.html#381,381.0,1366.0,768.0,1366.0,768.0,9-6-2022,12-0-59,15.0,depth_discrimination_stimuli/002199_2014-06-28_18-33-56_260595134347_rgbf000074-resize_0/002199_2014-06-28_18-33-56_260595134347_rgbf000074-resize_0-target.png,depth_discrimination_stimuli/001056_2014-06-08_18-46-44_260595134347_rgbf000068-resize_0/001056_2014-06-08_18-46-44_260595134347_rgbf000068-resize_0-target.png,125.0,1.996,2.6625,0.0,20047.0,1028.0,102.0,1012.0,120.0,497.0,,270443,35,Man
14,929106.0,DepthScenes,v2_duration_discrimination,discrim_jsons/Discrim125_randls_6_rotated.json,http://54.235.29.9/FacialAge/BNav_EC2/DepthDuration/v2_depth_discrimination_MTurk/v2_DepthDiscrim_HTML.html#381,381.0,1366.0,768.0,1366.0,768.0,9-6-2022,12-0-59,16.0,depth_discrimination_stimuli/000742_2014-06-08_18-48-09_260595134347_rgbf000164-resize_4/000742_2014-06-08_18-48-09_260595134347_rgbf000164-resize_4-target.png,depth_discrimination_stimuli/001066_2014-06-08_22-03-20_260595134347_rgbf000066-resize_4/001066_2014-06-08_22-03-20_260595134347_rgbf000066-resize_4-target.png,125.0,4.632,4.2330000000000005,0.0,20048.0,1028.0,102.0,1012.0,120.0,497.0,,270443,35,Man
15,929106.0,DepthScenes,v2_duration_discrimination,discrim_jsons/Discrim125_randls_6_rotated.json,http://54.235.29.9/FacialAge/BNav_EC2/DepthDuration/v2_depth_discrimination_MTurk/v2_DepthDiscrim_HTML.html#381,381.0,1366.0,768.0,1366.0,768.0,9-6-2022,12-0-59,17.0,depth_discrimination_stimuli/002072_2014-06-24_21-48-06_260595134347_rgbf000115-resize_0/002072_2014-06-24_21-48-06_260595134347_rgbf000115-resize_0-target.png,depth_discrimination_stimuli/002072_2014-06-24_21-48-06_260595134347_rgbf000115-resize_0/002072_2014-06-24_21-48-06_260595134347_rgbf000115-resize_0-target.png,125.0,4.702,4.702,0.0,5433.0,1041.0,90.0,1038.0,95.0,495.0,,270443,35,Man
16,929106.0,DepthScenes,v2_duration_discrimination,discrim_jsons/Discrim125_randls_6_rotated.json,http://54.235.29.9/FacialAge/BNav_EC2/DepthDuration/v2_depth_discrimination_MTurk/v2_DepthDiscrim_HTML.html#381,381.0,1366.0,768.0,1366.0,768.0,9-6-2022,12-0-59,18.0,depth_discrimination_stimuli/001032_2014-06-08_13-23-17_260595134347_rgbf000021-resize_3/001032_2014-06-08_13-23-17_260595134347_rgbf000021-resize_3-target.png,depth_discrimination_stimuli/001059_2014-06-08_21-53-27_260595134347_rgbf000061-resize_4/001059_2014-06-08_21-53-27_260595134347_rgbf000061-resize_4-target.png,125.0,3.2725,2.4185,0.0,5434.0,1041.0,90.0,1038.0,95.0,495.0,,270443,35,Man
17,929106.0,DepthScenes,v2_duration_discrimination,discrim_jsons/Discrim125_randls_6_rotated.json,http://54.235.29.9/FacialAge/BNav_EC2/DepthDuration/v2_depth_discrimination_MTurk/v2_DepthDiscrim_HTML.html#381,381.0,1366.0,768.0,1366.0,768.0,9-6-2022,12-0-59,19.0,depth_discrimination_stimuli/000191_2014-05-12_17-07-38_260595134347_rgbf000199-resize_0/000191_2014-05-12_17-07-38_260595134347_rgbf000199-resize_0-target.png,depth_discrimination_stimuli/000493_2014-06-09_21-01-18_260595134347_rgbf000196-resize_3/000493_2014-06-09_21-01-18_260595134347_rgbf000196-resize_3-target.png,125.0,3.7995,3.44,0.0,5436.0,1041.0,90.0,1038.0,95.0,495.0,,270443,35,Man
18,929106.0,DepthScenes,v2_duration_discrimination,discrim_jsons/Discrim125_randls_6_rotated.json,http://54.235.29.9/FacialAge/BNav_EC2/DepthDuration/v2_depth_discrimination_MTurk/v2_DepthDiscrim_HTML.html#381,381.0,1366.0,768.0,1366.0,768.0,9-6-2022,12-0-59,20.0,depth_discrimination_stimuli/001447_2014-06-19_17-00-32_260595134347_rgbf000082-resize_5/001447_2014-06-19_17-00-32_260595134347_rgbf000082-resize_5-target.png,depth_discrimination_stimuli/000447_2014-06-08_16-15-46_260595134347_rgbf000130-resize_1/000447_2014-06-08_16-15-46_260595134347_rgbf000130-resize_1-target.png,125.0,4.13775,4.479,0.0,5436.0,1041.0,90.0,1038.0,95.0,495.0,,270443,35,Man
19,929106.0,DepthScenes,v2_duration_discrimination,discrim_jsons/Discrim125_randls_6_rotated.json,http://54.235.29.9/FacialAge/BNav_EC2/DepthDuration/v2_depth_discrimination_MTurk/v2_DepthDiscrim_HTML.html#381,381.0,1366.0,768.0,1366.0,768.0,9-6-2022,12-0-59,21.0,depth_discrimination_stimuli/002953_2014-06-08_17-32-18_094959634447_rgbf000059-resize_5/002953_2014-06-08_17-32-18_094959634447_rgbf000059-resize_5-target.png,depth_discrimination_stimuli/000878_2014-06-08_22-52-45_260595134347_rgbf000045-resize_2/000878_2014-06-08_22-52-45_260595134347_rgbf000045-resize_2-target.png,125.0,1.551,2.092,0.0,5437.0,1041.0,90.0,1038.0,95.0,495.0,,270443,35,Man
20,929106.0,DepthScenes,v2_duration_discrimination,discrim_jsons/Discrim125_randls_6_rotated.json,http://54.235.29.9/FacialAge/BNav_EC2/DepthDuration/v2_depth_discrimination_MTurk/v2_DepthDiscrim_HTML.html#381,381.0,1366.0,768.0,1366.0,768.0,9-6-2022,12-0-59,22.0,depth_discrimination_stimuli/000866_2014-06-09_20-45-42_260595134347_rgbf000139-resize_1/000866_2014-06-09_20-45-42_260595134347_rgbf000139-resize_1-target.png,depth_discrimination_stimuli/002989_2014-06-15_12-25-03_094959634447_rgbf000150-resize_3/002989_2014-06-15_12-25-03_094959634447_rgbf000150-resize_3-target.png,125.0,3.2155,4.1975,0.0,5437.0,1041.0,90.0,1038.0,95.0,495.0,,270443,35,Man
21,929106.0,DepthScenes,v2_duration_discrimination,discrim_jsons/Discrim125_randls_6_rotated.json,http://54.235.29.9/FacialAge/BNav_EC2/DepthDuration/v2_depth_discrimination_MTurk/v2_DepthDiscrim_HTML.html#381,381.0,1366.0,768.0,1366.0,768.0,9-6-2022,12-0-59,23.0,depth_discrimination_stimuli/002545_2014-06-24_13-38-53_094959634447_rgbf000080-resize_4/002545_2014-06-24_13-38-53_094959634447_rgbf000080-resize_4-target.png,depth_discrimination_stimuli/001092_2014-06-15_17-34-58_260595134347_rgbf000171-resize_3/001092_2014-06-15_17-34-58_260595134347_rgbf000171-resize_3-target.png,125.0,1.9205,2.6935,0.0,5438.0,1041.0,90.0,1038.0,95.0,495.0,,270443,35,Man
22,929106.0,DepthScenes,v2_duration_discrimination,discrim_jsons/Discrim125_randls_6_rotated.json,http://54.235.29.9/FacialAge/BNav_EC2/DepthDuration/v2_depth_discrimination_MTurk/v2_DepthDiscrim_HTML.html#381,381.0,1366.0,768.0,1366.0,768.0,9-6-2022,12-0-59,24.0,depth_discrimination_stimuli/000749_2014-06-08_21-55-06_260595134347_rgbf000070-resize_2/000749_2014-06-08_21-55-06_260595134347_rgbf000070-resize_2-target.png,depth_discrimination_stimuli/002788_2014-06-22_19-36-03_094959634447_rgbf000088-resize_2/002788_2014-06-22_19-36-03_094959634447_rgbf000088-resize_2-target.png,125.0,2.331,1.6465,2.0,2960.0,1004.0,124.0,1042.0,82.0,507.0,,270443,35,Man
23,929106.0,DepthScenes,v2_duration_discrimination,discrim_jsons/Discrim125_randls_6_rotated.json,http://54.235.29.9/FacialAge/BNav_EC2/DepthDuration/v2_depth_discrimination_MTurk/v2_DepthDiscrim_HTML.html#381,381.0,1366.0,768.0,1366.0,768.0,9-6-2022,12-0-59,25.0,depth_discrimination_stimuli/000502_2014-06-08_23-02-32_260595134347_rgbf000063-resize_4/000502_2014-06-08_23-02-32_260595134347_rgbf000063-resize_4-target.png,depth_discrimination_stimuli/001199_2014-06-17_16-03-48_260595134347_rgbf000077-resize_0/001199_2014-06-17_16-03-48_260595134347_rgbf000077-resize_0-target.png,125.0,2.431,3.4375,2.0,2961.0,1004.0,124.0,1042.0,82.0,507.0,,270443,35,Man
24,929106.0,DepthScenes,v2_duration_discrimination,discrim_jsons/Discrim125_randls_6_rotated.json,http://54.235.29.9/FacialAge/BNav_EC2/DepthDuration/v2_depth_discrimination_MTurk/v2_DepthDiscrim_HTML.html#381,381.0,1366.0,768.0,1366.0,768.0,9-6-2022,12-0-59,26.0,depth_discrimination_stimuli/001094_2014-06-15_17-36-00_260595134347_rgbf000205-resize_0/001094_2014-06-15_17-36-00_260595134347_rgbf000205-resize_0-target.png,depth_discrimination_stimuli/000692_2014-06-08_13-09-42_260595134347_rgbf000199-resize_2/000692_2014-06-08_13-09-42_260595134347_rgbf000199-resize_2-target.png,125.0,4.2175,3.661,2.0,2962.0,1004.0,124.0,1042.0,82.0,507.0,,270443,35,Man
25,929106.0,DepthScenes,v2_duration_discrimination,discrim_jsons/Discrim125_randls_6_rotated.json,http://54.235.29.9/FacialAge/BNav_EC2/DepthDuration/v2_depth_discrimination_MTurk/v2_DepthDiscrim_HTML.html#381,381.0,1366.0,768.0,1366.0,768.0,9-6-2022,12-0-59,27.0,depth_discrimination_stimuli/001170_2014-06-17_15-43-44_260595134347_rgbf000096-resize_6/001170_2014-06-17_15-43-44_260595134347_rgbf000096-resize_6-target.png,depth_discrimination_stimuli/001170_2014-06-17_15-43-44_260595134347_rgbf000096-resize_6/001170_2014-06-17_15-43-44_260595134347_rgbf000096-resize_6-target.png,125.0,1.1909999999999998,1.1909999999999998,2.0,2963.0,1004.0,124.0,1042.0,82.0,507.0,,270443,35,Man
26,929106.0,DepthScenes,v2_duration_discrimination,discrim_jsons/Discrim125_randls_6_rotated.json,http://54.235.29.9/FacialAge/BNav_EC2/DepthDuration/v2_depth_discrimination_MTurk/v2_DepthDiscrim_HTML.html#381,381.0,1366.0,768.0,1366.0,768.0,9-6-2022,12-0-59,28.0,depth_discrimination_stimuli/000635_2014-06-08_16-38-42_260595134347_rgbf000106-resize_1/000635_2014-06-08_16-38-42_260595134347_rgbf000106-resize_1-target.png,depth_discrimination_stimuli/002279_2014-06-28_18-55-32_260595134347_rgbf000040-resize_5/002279_2014-06-28_18-55-32_260595134347_rgbf000040-resize_5-target.png,125.0,2.074,1.5043333333333,2.0,2963.0,1004.0,124.0,1042.0,82.0,507.0,,270443,35,Man
27,929106.0,DepthScenes,v2_duration_discrimination,discrim_jsons/Discrim125_randls_6_rotated.json,http://54.235.29.9/FacialAge/BNav_EC2/DepthDuration/v2_depth_discrimination_MTurk/v2_DepthDiscrim_HTML.html#381,381.0,1366.0,768.0,1366.0,768.0,9-6-2022,12-0-59,29.0,depth_discrimination_stimuli/000457_2014-06-08_16-52-43_260595134347_rgbf000199-resize_1/000457_2014-06-08_16-52-43_260595134347_rgbf000199-resize_1-target.png,depth_discrimination_stimuli/000929_2014-06-09_16-33-19_260595134347_rgbf000139-resize_0/000929_2014-06-09_16-33-19_260595134347_rgbf000139-resize_0-target.png,125.0,3.6489999999999996,2.8680000000000003,2.0,2964.0,1004.0,124.0,1042.0,82.0,507.0,,270443,35,Man
28,929106.0,DepthScenes,v2_duration_discrimination,discrim_jsons/Discrim125_randls_6_rotated.json,http://54.235.29.9/FacialAge/BNav_EC2/DepthDuration/v2_depth_discrimination_MTurk/v2_DepthDiscrim_HTML.html#381,381.0,1366.0,768.0,1366.0,768.0,9-6-2022,12-0-59,30.0,depth_discrimination_stimuli/002344_2014-06-28_20-06-29_260595134347_rgbf000030-resize_1/002344_2014-06-28_20-06-29_260595134347_rgbf000030-resize_1-target.png,depth_discrimination_stimuli/002725_2014-06-22_11-47-51_094959634447_rgbf000070-resize_1/002725_2014-06-22_11-47-51_094959634447_rgbf000070-resize_1-target.png,125.0,1.5795,2.195,2.0,2964.0,1004.0,124.0,1042.0,82.0,507.0,,270443,35,Man
29,929106.0,DepthScenes,v2_duration_discrimination,discrim_jsons/Discrim125_randls_6_rotated.json,http://54.235.29.9/FacialAge/BNav_EC2/DepthDuration/v2_depth_discrimination_MTurk/v2_DepthDiscrim_HTML.html#381,381.0,1366.0,768.0,1366.0,768.0,9-6-2022,12-0-59,31.0,depth_discrimination_stimuli/002639_2014-06-24_14-51-37_094959634447_rgbf000074-resize_4/002639_2014-06-24_14-51-37_094959634447_rgbf000074-resize_4-target.png,depth_discrimination_stimuli/003292_2014-05-14_21-53-49_094959634447_rgbf000100-resize_2/003292_2014-05-14_21-53-49_094959634447_rgbf000100-resize_2-target.png,125.0,4.0375,3.4815,1.0,4261.0,1009.0,123.0,1007.0,122.0,498.0,,270443,35,Man
30,929106.0,DepthScenes,v2_duration_discrimination,discrim_jsons/Discrim125_randls_6_rotated.json,http://54.235.29.9/FacialAge/BNav_EC2/DepthDuration/v2_depth_discrimination_MTurk/v2_DepthDiscrim_HTML.html#381,381.0,1366.0,768.0,1366.0,768.0,9-6-2022,12-0-59,32.0,depth_discrimination_stimuli/001136_2014-06-17_15-19-41_260595134347_rgbf000076-resize_3/001136_2014-06-17_15-19-41_260595134347_rgbf000076-resize_3-target.png,depth_discrimination_stimuli/001164_2014-06-17_15-35-46_260595134347_rgbf000085-resize_3/001164_2014-06-17_15-35-46_260595134347_rgbf000085-resize_3-target.png,125.0,1.8655,2.354,1.0,4263.0,1009.0,123.0,1007.0,122.0,498.0,,270443,35,Man
31,929106.0,DepthScenes,v2_duration_discrimination,discrim_jsons/Discrim125_randls_6_rotated.json,http://54.235.29.9/FacialAge/BNav_EC2/DepthDuration/v2_depth_discrimination_MTurk/v2_DepthDiscrim_HTML.html#381,381.0,1366.0,768.0,1366.0,768.0,9-6-2022,12-0-59,33.0,depth_discrimination_stimuli/000483_2014-06-09_20-41-45_260595134347_rgbf000116-resize_4/000483_2014-06-09_20-41-45_260595134347_rgbf000116-resize_4-target.png,depth_discrimination_stimuli/000469_2014-06-09_19-42-10_260595134347_rgbf000081-resize_1/000469_2014-06-09_19-42-10_260595134347_rgbf000081-resize_1-target.png,125.0,1.337,1.652,1.0,4264.0,1009.0,123.0,1007.0,122.0,498.0,,270443,35,Man
32,929106.0,DepthScenes,v2_duration_discrimination,discrim_jsons/Discrim125_randls_6_rotated.json,http://54.235.29.9/FacialAge/BNav_EC2/DepthDuration/v2_depth_discrimination_MTurk/v2_DepthDiscrim_HTML.html#381,381.0,1366.0,768.0,1366.0,768.0,9-6-2022,12-0-59,34.0,depth_discrimination_stimuli/000109_2014-05-14_23-41-52_260595134347_rgbf000035-resize_9/000109_2014-05-14_23-41-52_260595134347_rgbf000035-resize_9-target.png,depth_discrimination_stimuli/000470_2014-06-09_19-42-40_260595134347_rgbf000094-resize_1/000470_2014-06-09_19-42-40_260595134347_rgbf000094-resize_1-target.png,125.0,1.3545,1.831,1.0,4265.0,1009.0,123.0,1007.0,122.0,498.0,,270443,35,Man
33,929106.0,DepthScenes,v2_duration_discrimination,discrim_jsons/Discrim125_randls_6_rotated.json,http://54.235.29.9/FacialAge/BNav_EC2/DepthDuration/v2_depth_discrimination_MTurk/v2_DepthDiscrim_HTML.html#381,381.0,1366.0,768.0,1366.0,768.0,9-6-2022,12-0-59,35.0,depth_discrimination_stimuli/000549_2014-06-08_22-10-24_260595134347_rgbf000247-resize_3/000549_2014-06-08_22-10-24_260595134347_rgbf000247-resize_3-target.png,depth_discrimination_stimuli/001055_2014-06-08_18-45-35_260595134347_rgbf000111-resize_4/001055_2014-06-08_18-45-35_260595134347_rgbf000111-resize_4-target.png,125.0,1.841,2.4290000000000003,1.0,4265.0,1009.0,123.0,1007.0,122.0,498.0,,270443,35,Man
34,929106.0,DepthScenes,v2_duration_discrimination,discrim_jsons/Discrim125_randls_6_rotated.json,http://54.235.29.9/FacialAge/BNav_EC2/DepthDuration/v2_depth_discrimination_MTurk/v2_DepthDiscrim_HTML.html#381,381.0,1366.0,768.0,1366.0,768.0,9-6-2022,12-0-59,36.0,depth_discrimination_stimuli/001540_2014-06-20_17-01-05_260595134347_rgbf000086-resize_2/001540_2014-06-20_17-01-05_260595134347_rgbf000086-resize_2-target.png,depth_discrimination_stimuli/001540_2014-06-20_17-01-05_260595134347_rgbf000086-resize_2/001540_2014-06-20_17-01-05_260595134347_rgbf000086-resize_2-target.png,125.0,1.459,1.459,1.0,4266.0,1009.0,123.0,1007.0,122.0,498.0,,270443,35,Man
35,929106.0,DepthScenes,v2_duration_discrimination,discrim_jsons/Discrim125_randls_6_rotated.json,http://54.235.29.9/FacialAge/BNav_EC2/DepthDuration/v2_depth_discrimination_MTurk/v2_DepthDiscrim_HTML.html#381,381.0,1366.0,768.0,1366.0,768.0,9-6-2022,12-0-59,37.0,depth_discrimination_stimuli/002660_2014-06-13_15-44-18_094959634447_rgbf001878-resize_2/002660_2014-06-13_15-44-18_094959634447_rgbf001878-resize_2-target.png,depth_discrimination_stimuli/002153_2014-06-25_21-27-18_260595134347_rgbf000038-resize_5/002153_2014-06-25_21-27-18_260595134347_rgbf000038-resize_5-target.png,125.0,3.576,2.505,1.0,4266.0,1009.0,123.0,1007.0,122.0,498.0,,270443,35,Man
36,929106.0,DepthScenes,v2_duration_discrimination,discrim_jsons/Discrim125_randls_6_rotated.json,http://54.235.29.9/FacialAge/BNav_EC2/DepthDuration/v2_depth_discrimination_MTurk/v2_DepthDiscrim_HTML.html#381,381.0,1366.0,768.0,1366.0,768.0,9-6-2022,12-0-59,38.0,depth_discrimination_stimuli/001617_2014-06-20_11-35-32_260595134347_rgbf000066-resize_1/001617_2014-06-20_11-35-32_260595134347_rgbf000066-resize_1-target.png,depth_discrimination_stimuli/001806_2014-06-26_20-50-20_260595134347_rgbf000091-resize_1/001806_2014-06-26_20-50-20_260595134347_rgbf000091-resize_1-target.png,125.0,3.7910000000000004,2.7305,1.0,3240.0,1014.0,124.0,996.0,121.0,497.0,,270443,35,Man
37,929106.0,DepthScenes,v2_duration_discrimination,discrim_jsons/Discrim125_randls_6_rotated.json,http://54.235.29.9/FacialAge/BNav_EC2/DepthDuration/v2_depth_discrimination_MTurk/v2_DepthDiscrim_HTML.html#381,381.0,1366.0,768.0,1366.0,768.0,9-6-2022,12-0-59,39.0,depth_discrimination_stimuli/002467_2014-06-28_20-38-07_260595134347_rgbf000026-resize_2/002467_2014-06-28_20-38-07_260595134347_rgbf000026-resize_2-target.png,depth_discrimination_stimuli/002570_2014-06-24_13-59-54_094959634447_rgbf000059-resize_0/002570_2014-06-24_13-59-54_094959634447_rgbf000059-resize_0-target.png,125.0,4.742,4.037,1.0,3241.0,1014.0,124.0,996.0,121.0,497.0,,270443,35,Man
38,929106.0,DepthScenes,v2_duration_discrimination,discrim_jsons/Discrim125_randls_6_rotated.json,http://54.235.29.9/FacialAge/BNav_EC2/DepthDuration/v2_depth_discrimination_MTurk/v2_DepthDiscrim_HTML.html#381,381.0,1366.0,768.0,1366.0,768.0,9-6-2022,12-0-59,40.0,depth_discrimination_stimuli/002805_2014-06-22_19-54-03_094959634447_rgbf000079-resize_1/002805_2014-06-22_19-54-03_094959634447_rgbf000079-resize_1-target.png,depth_discrimination_stimuli/000906_2014-06-08_13-35-43_260595134347_rgbf000155-resize_1/000906_2014-06-08_13-35-43_260595134347_rgbf000155-resize_1-target.png,125.0,3.1439999999999997,2.8489999999999998,1.0,3242.0,1014.0,124.0,996.0,121.0,497.0,,270443,35,Man
39,929106.0,DepthScenes,v2_duration_discrimination,discrim_jsons/Discrim125_randls_6_rotated.json,http://54.235.29.9/FacialAge/BNav_EC2/DepthDuration/v2_depth_discrimination_MTurk/v2_DepthDiscrim_HTML.html#381,381.0,1366.0,768.0,1366.0,768.0,9-6-2022,12-0-59,41.0,depth_discrimination_stimuli/002414_2014-06-28_20-24-58_260595134347_rgbf000067-resize_4/002414_2014-06-28_20-24-58_260595134347_rgbf000067-resize_4-target.png,depth_discrimination_stimuli/000773_2014-06-08_22-24-54_260595134347_rgbf000093-resize_1/000773_2014-06-08_22-24-54_260595134347_rgbf000093-resize_1-target.png,125.0,4.363,4.973,1.0,3243.0,1014.0,124.0,996.0,121.0,497.0,,270443,35,Man
40,929106.0,DepthScenes,v2_duration_discrimination,discrim_jsons/Discrim125_randls_6_rotated.json,http://54.235.29.9/FacialAge/BNav_EC2/DepthDuration/v2_depth_discrimination_MTurk/v2_DepthDiscrim_HTML.html#381,381.0,1366.0,768.0,1366.0,768.0,9-6-2022,12-0-59,42.0,depth_discrimination_stimuli/000709_2014-06-08_13-51-55_260595134347_rgbf000068-resize_3/000709_2014-06-08_13-51-55_260595134347_rgbf000068-resize_3-target.png,depth_discrimination_stimuli/002057_2014-06-24_21-00-13_260595134347_rgbf000120-resize_1/002057_2014-06-24_21-00-13_260595134347_rgbf000120-resize_1-target.png,125.0,1.8030000000000002,2.967,1.0,3244.0,1014.0,124.0,996.0,121.0,497.0,,270443,35,Man
41,929106.0,DepthScenes,v2_duration_discrimination,discrim_jsons/Discrim125_randls_6_rotated.json,http://54.235.29.9/FacialAge/BNav_EC2/DepthDuration/v2_depth_discrimination_MTurk/v2_DepthDiscrim_HTML.html#381,381.0,1366.0,768.0,1366.0,768.0,9-6-2022,12-0-59,43.0,depth_discrimination_stimuli/002750_2014-06-22_19-08-03_094959634447_rgbf000094-resize_4/002750_2014-06-22_19-08-03_094959634447_rgbf000094-resize_4-target.png,depth_discrimination_stimuli/002549_2014-06-24_13-41-39_094959634447_rgbf000022-resize_3/002549_2014-06-24_13-41-39_094959634447_rgbf000022-resize_3-target.png,125.0,2.354,1.476,1.0,3244.0,1014.0,124.0,996.0,121.0,497.0,,270443,35,Man
42,929106.0,DepthScenes,v2_duration_discrimination,discrim_jsons/Discrim125_randls_6_rotated.json,http://54.235.29.9/FacialAge/BNav_EC2/DepthDuration/v2_depth_discrimination_MTurk/v2_DepthDiscrim_HTML.html#381,381.0,1366.0,768.0,1366.0,768.0,9-6-2022,12-0-59,44.0,depth_discrimination_stimuli/003338_2014-05-20_11-01-23_094959634447_rgbf000051-resize_6/003338_2014-05-20_11-01-23_094959634447_rgbf000051-resize_6-target.png,depth_discrimination_stimuli/002509_2014-06-24_13-19-22_094959634447_rgbf000077-resize_0/002509_2014-06-24_13-19-22_094959634447_rgbf000077-resize_0-target.png,125.0,1.693,1.3065,1.0,3245.0,1014.0,124.0,996.0,121.0,497.0,,270443,35,Man
43,929106.0,DepthScenes,v2_duration_discrimination,discrim_jsons/Discrim125_randls_6_rotated.json,http://54.235.29.9/FacialAge/BNav_EC2/DepthDuration/v2_depth_discrimination_MTurk/v2_DepthDiscrim_HTML.html#381,381.0,1366.0,768.0,1366.0,768.0,9-6-2022,12-0-59,45.0,depth_discrimination_stimuli/002657_2014-06-13_15-29-54_094959634447_rgbf000150-resize_1/002657_2014-06-13_15-29-54_094959634447_rgbf000150-resize_1-target.png,depth_discrimination_stimuli/002375_2014-06-28_20-13-44_260595134347_rgbf000032-resize_1/002375_2014-06-28_20-13-44_260595134347_rgbf000032-resize_1-target.png,125.0,4.919,4.0175,0.0,3083.0,1005.0,135.0,996.0,122.0,499.0,,270443,35,Man
44,929106.0,DepthScenes,v2_duration_discrimination,discrim_jsons/Discrim125_randls_6_rotated.json,http://54.235.29.9/FacialAge/BNav_EC2/DepthDuration/v2_depth_discrimination_MTurk/v2_DepthDiscrim_HTML.html#381,381.0,1366.0,768.0,1366.0,768.0,9-6-2022,12-0-59,46.0,depth_discrimination_stimuli/001584_2014-06-20_11-07-43_260595134347_rgbf000002-resize_1/001584_2014-06-20_11-07-43_260595134347_rgbf000002-resize_1-target.png,depth_discrimination_stimuli/003621_2014-05-23_18-06-08_094959634447_rgbf000101-resize_1/003621_2014-05-23_18-06-08_094959634447_rgbf000101-resize_1-target.png,125.0,3.53,3.9835,0.0,3084.0,1005.0,135.0,996.0,122.0,499.0,,270443,35,Man
45,929106.0,DepthScenes,v2_duration_discrimination,discrim_jsons/Discrim125_randls_6_rotated.json,http://54.235.29.9/FacialAge/BNav_EC2/DepthDuration/v2_depth_discrimination_MTurk/v2_DepthDiscrim_HTML.html#381,381.0,1366.0,768.0,1366.0,768.0,9-6-2022,12-0-59,47.0,depth_discrimination_stimuli/003081_2014-06-15_15-19-16_094959634447_rgbf000150-resize_1/003081_2014-06-15_15-19-16_094959634447_rgbf000150-resize_1-target.png,depth_discrimination_stimuli/001417_2014-06-19_16-25-36_260595134347_rgbf000115-resize_5/001417_2014-06-19_16-25-36_260595134347_rgbf000115-resize_5-target.png,125.0,3.9125,4.6255,0.0,3085.0,1005.0,135.0,996.0,122.0,499.0,,270443,35,Man
46,929106.0,DepthScenes,v2_duration_discrimination,discrim_jsons/Discrim125_randls_6_rotated.json,http://54.235.29.9/FacialAge/BNav_EC2/DepthDuration/v2_depth_discrimination_MTurk/v2_DepthDiscrim_HTML.html#381,381.0,1366.0,768.0,1366.0,768.0,9-6-2022,12-0-59,48.0,depth_discrimination_stimuli/003079_2014-06-15_15-18-20_094959634447_rgbf000152-resize_8/003079_2014-06-15_15-18-20_094959634447_rgbf000152-resize_8-target.png,depth_discrimination_stimuli/000506_2014-06-08_23-21-00_260595134347_rgbf000070-resize_7/000506_2014-06-08_23-21-00_260595134347_rgbf000070-resize_7-target.png,125.0,2.8775,4.0585,0.0,3086.0,1005.0,135.0,996.0,122.0,499.0,,270443,35,Man
47,929106.0,DepthScenes,v2_duration_discrimination,discrim_jsons/Discrim125_randls_6_rotated.json,http://54.235.29.9/FacialAge/BNav_EC2/DepthDuration/v2_depth_discrimination_MTurk/v2_DepthDiscrim_HTML.html#381,381.0,1366.0,768.0,1366.0,768.0,9-6-2022,12-0-59,49.0,depth_discrimination_stimuli/000677_2014-06-08_23-10-32_260595134347_rgbf000158-resize_6/000677_2014-06-08_23-10-32_260595134347_rgbf000158-resize_6-target.png,depth_discrimination_stimuli/001029_2014-06-08_13-17-57_260595134347_rgbf000065-resize_1/001029_2014-06-08_13-17-57_260595134347_rgbf000065-resize_1-target.png,125.0,3.556,3.0835,0.0,3086.0,1005.0,135.0,996.0,122.0,499.0,,270443,35,Man
48,929106.0,DepthScenes,v2_duration_discrimination,discrim_jsons/Discrim125_randls_6_rotated.json,http://54.235.29.9/FacialAge/BNav_EC2/DepthDuration/v2_depth_discrimination_MTurk/v2_DepthDiscrim_HTML.html#381,381.0,1366.0,768.0,1366.0,768.0,9-6-2022,12-0-59,50.0,depth_discrimination_stimuli/001214_2014-06-17_16-13-55_260595134347_rgbf000111-resize_0/001214_2014-06-17_16-13-55_260595134347_rgbf000111-resize_0-target.png,depth_discrimination_stimuli/000810_2014-06-08_17-20-01_260595134347_rgbf000105-resize_0/000810_2014-06-08_17-20-01_260595134347_rgbf000105-resize_0-target.png,125.0,2.6505,1.4865,0.0,3086.0,1005.0,135.0,996.0,122.0,499.0,,270443,35,Man
49,929106.0,DepthScenes,v2_duration_discrimination,discrim_jsons/Discrim125_randls_6_rotated.json,http://54.235.29.9/FacialAge/BNav_EC2/DepthDuration/v2_depth_discrimination_MTurk/v2_DepthDiscrim_HTML.html#381,381.0,1366.0,768.0,1366.0,768.0,9-6-2022,12-0-59,51.0,depth_discrimination_stimuli/003048_2014-06-15_13-49-43_094959634447_rgbf000150-resize_1/003048_2014-06-15_13-49-43_094959634447_rgbf000150-resize_1-target.png,depth_discrimination_stimuli/002043_2014-06-24_20-29-38_260595134347_rgbf000039-resize_4/002043_2014-06-24_20-29-38_260595134347_rgbf000039-resize_4-target.png,125.0,4.0035,2.8435,0.0,3087.0,1005.0,135.0,996.0,122.0,499.0,,270443,35,Man
50,929106.0,DepthScenes,v2_duration_discrimination,discrim_jsons/Discrim125_randls_6_rotated.json,http://54.235.29.9/FacialAge/BNav_EC2/DepthDuration/v2_depth_discrimination_MTurk/v2_DepthDiscrim_HTML.html#381,381.0,1366.0,768.0,1366.0,768.0,9-6-2022,12-0-59,52.0,depth_discrimination_stimuli/002678_2014-06-13_16-15-32_094959634447_rgbf000151-resize_6/002678_2014-06-13_16-15-32_094959634447_rgbf000151-resize_6-target.png,depth_discrimination_stimuli/000368_2014-06-09_15-53-01_260595134347_rgbf000155-resize_2/000368_2014-06-09_15-53-01_260595134347_rgbf000155-resize_2-target.png,125.0,2.1830000000000003,2.4859999999999998,3.0,7289.0,1015.0,122.0,994.0,122.0,501.0,,270443,35,Man
51,929106.0,DepthScenes,v2_duration_discrimination,discrim_jsons/Discrim125_randls_6_rotated.json,http://54.235.29.9/FacialAge/BNav_EC2/DepthDuration/v2_depth_discrimination_MTurk/v2_DepthDiscrim_HTML.html#381,381.0,1366.0,768.0,1366.0,768.0,9-6-2022,12-0-59,53.0,depth_discrimination_stimuli/001222_2014-06-17_16-24-06_260595134347_rgbf000073-resize_0/001222_2014-06-17_16-24-06_260595134347_rgbf000073-resize_0-target.png,depth_discrimination_stimuli/001222_2014-06-17_16-24-06_260595134347_rgbf000073-resize_0/001222_2014-06-17_16-24-06_260595134347_rgbf000073-resize_0-target.png,125.0,1.4385,1.4385,3.0,7290.0,1015.0,122.0,994.0,122.0,501.0,,270443,35,Man
52,929106.0,DepthScenes,v2_duration_discrimination,discrim_jsons/Discrim125_randls_6_rotated.json,http://54.235.29.9/FacialAge/BNav_EC2/DepthDuration/v2_depth_discrimination_MTurk/v2_DepthDiscrim_HTML.html#381,381.0,1366.0,768.0,1366.0,768.0,9-6-2022,12-0-59,54.0,depth_discrimination_stimuli/003129_2014-05-12_10-48-10_094959634447_rgbf000100-resize_0/003129_2014-05-12_10-48-10_094959634447_rgbf000100-resize_0-target.png,depth_discrimination_stimuli/000414_2014-06-04_19-49-13_260595134347_rgbf000044-resize_0/000414_2014-06-04_19-49-13_260595134347_rgbf000044-resize_0-target.png,125.0,4.9305,4.329,3.0,7291.0,1015.0,122.0,994.0,122.0,501.0,,270443,35,Man
53,929106.0,DepthScenes,v2_duration_discrimination,discrim_jsons/Discrim125_randls_6_rotated.json,http://54.235.29.9/FacialAge/BNav_EC2/DepthDuration/v2_depth_discrimination_MTurk/v2_DepthDiscrim_HTML.html#381,381.0,1366.0,768.0,1366.0,768.0,9-6-2022,12-0-59,55.0,depth_discrimination_stimuli/000665_2014-06-09_20-42-35_260595134347_rgbf000110-resize_1/000665_2014-06-09_20-42-35_260595134347_rgbf000110-resize_1-target.png,depth_discrimination_stimuli/001150_2014-06-17_15-27-34_260595134347_rgbf000108-resize_2/001150_2014-06-17_15-27-34_260595134347_rgbf000108-resize_2-target.png,125.0,3.057,4.0325,3.0,7292.0,1015.0,122.0,994.0,122.0,501.0,,270443,35,Man
54,929106.0,DepthScenes,v2_duration_discrimination,discrim_jsons/Discrim125_randls_6_rotated.json,http://54.235.29.9/FacialAge/BNav_EC2/DepthDuration/v2_depth_discrimination_MTurk/v2_DepthDiscrim_HTML.html#381,381.0,1366.0,768.0,1366.0,768.0,9-6-2022,12-0-59,56.0,depth_discrimination_stimuli/000943_2014-06-09_19-31-07_260595134347_rgbf000128-resize_1/000943_2014-06-09_19-31-07_260595134347_rgbf000128-resize_1-target.png,depth_discrimination_stimuli/003070_2014-06-15_14-58-27_094959634447_rgbf000150-resize_3/003070_2014-06-15_14-58-27_094959634447_rgbf000150-resize_3-target.png,125.0,1.9765,2.9415,3.0,7292.0,1015.0,122.0,994.0,122.0,501.0,,270443,35,Man
55,929106.0,DepthScenes,v2_duration_discrimination,discrim_jsons/Discrim125_randls_6_rotated.json,http://54.235.29.9/FacialAge/BNav_EC2/DepthDuration/v2_depth_discrimination_MTurk/v2_DepthDiscrim_HTML.html#381,381.0,1366.0,768.0,1366.0,768.0,9-6-2022,12-0-59,57.0,depth_discrimination_stimuli/002103_2014-06-25_20-00-40_260595134347_rgbf000049-resize_0/002103_2014-06-25_20-00-40_260595134347_rgbf000049-resize_0-target.png,depth_discrimination_stimuli/002039_2014-06-24_20-22-38_260595134347_rgbf000084-resize_1/002039_2014-06-24_20-22-38_260595134347_rgbf000084-resize_1-target.png,125.0,4.105,4.408,3.0,7293.0,1015.0,122.0,994.0,122.0,501.0,,270443,35,Man
56,929106.0,DepthScenes,v2_duration_discrimination,discrim_jsons/Discrim125_randls_6_rotated.json,http://54.235.29.9/FacialAge/BNav_EC2/DepthDuration/v2_depth_discrimination_MTurk/v2_DepthDiscrim_HTML.html#381,381.0,1366.0,768.0,1366.0,768.0,9-6-2022,12-0-59,58.0,depth_discrimination_stimuli/003495_2014-05-21_16-01-51_094959634447_rgbf000100-resize_3/003495_2014-05-21_16-01-51_094959634447_rgbf000100-resize_3-target.png,depth_discrimination_stimuli/001244_2014-06-17_16-47-45_260595134347_rgbf000030-resize_4/001244_2014-06-17_16-47-45_260595134347_rgbf000030-resize_4-target.png,125.0,1.6255,2.0425,3.0,7293.0,1015.0,122.0,994.0,122.0,501.0,,270443,35,Man
57,929106.0,DepthScenes,v2_duration_discrimination,discrim_jsons/Discrim125_randls_6_rotated.json,http://54.235.29.9/FacialAge/BNav_EC2/DepthDuration/v2_depth_discrimination_MTurk/v2_DepthDiscrim_HTML.html#381,381.0,1366.0,768.0,1366.0,768.0,9-6-2022,12-0-59,59.0,depth_discrimination_stimuli/000137_2014-05-20_17-04-49_260595134347_rgbf000120-resize_1/000137_2014-05-20_17-04-49_260595134347_rgbf000120-resize_1-target.png,depth_discrimination_stimuli/000736_2014-06-08_18-24-15_260595134347_rgbf000206-resize_3/000736_2014-06-08_18-24-15_260595134347_rgbf000206-resize_3-target.png,125.0,3.786,3.515,0.0,8013.0,1006.0,133.0,1021.0,98.0,495.0,,270443,35,Man
58,929106.0,DepthScenes,v2_duration_discrimination,discrim_jsons/Discrim125_randls_6_rotated.json,http://54.235.29.9/FacialAge/BNav_EC2/DepthDuration/v2_depth_discrimination_MTurk/v2_DepthDiscrim_HTML.html#381,381.0,1366.0,768.0,1366.0,768.0,9-6-2022,12-0-59,60.0,depth_discrimination_stimuli/000734_2014-06-08_17-39-11_260595134347_rgbf000128-resize_2/000734_2014-06-08_17-39-11_260595134347_rgbf000128-resize_2-target.png,depth_discrimination_stimuli/000739_2014-06-08_18-45-58_260595134347_rgbf000068-resize_1/000739_2014-06-08_18-45-58_260595134347_rgbf000068-resize_1-target.png,125.0,4.098,3.534,0.0,8014.0,1006.0,133.0,1021.0,98.0,495.0,,270443,35,Man
59,929106.0,DepthScenes,v2_duration_discrimination,discrim_jsons/Discrim125_randls_6_rotated.json,http://54.235.29.9/FacialAge/BNav_EC2/DepthDuration/v2_depth_discrimination_MTurk/v2_DepthDiscrim_HTML.html#381,381.0,1366.0,768.0,1366.0,768.0,9-6-2022,12-0-59,61.0,depth_discrimination_stimuli/001235_2014-06-17_16-37-36_260595134347_rgbf000084-resize_4/001235_2014-06-17_16-37-36_260595134347_rgbf000084-resize_4-target.png,depth_discrimination_stimuli/000788_2014-06-08_22-34-36_260595134347_rgbf000131-resize_1/000788_2014-06-08_22-34-36_260595134347_rgbf000131-resize_1-target.png,125.0,3.6605,3.359,0.0,8015.0,1006.0,133.0,1021.0,98.0,495.0,,270443,35,Man
60,929106.0,DepthScenes,v2_duration_discrimination,discrim_jsons/Discrim125_randls_6_rotated.json,http://54.235.29.9/FacialAge/BNav_EC2/DepthDuration/v2_depth_discrimination_MTurk/v2_DepthDiscrim_HTML.html#381,381.0,1366.0,768.0,1366.0,768.0,9-6-2022,12-0-59,62.0,depth_discrimination_stimuli/001392_2014-06-19_16-07-59_260595134347_rgbf000046-resize_1/001392_2014-06-19_16-07-59_260595134347_rgbf000046-resize_1-target.png,depth_discrimination_stimuli/001570_2014-06-20_17-21-09_260595134347_rgbf000135-resize_4/001570_2014-06-20_17-21-09_260595134347_rgbf000135-resize_4-target.png,125.0,4.135,4.467,0.0,8015.0,1006.0,133.0,1021.0,98.0,495.0,,270443,35,Man
61,929106.0,DepthScenes,v2_duration_discrimination,discrim_jsons/Discrim125_randls_6_rotated.json,http://54.235.29.9/FacialAge/BNav_EC2/DepthDuration/v2_depth_discrimination_MTurk/v2_DepthDiscrim_HTML.html#381,381.0,1366.0,768.0,1366.0,768.0,9-6-2022,12-0-59,63.0,depth_discrimination_stimuli/002323_2014-06-28_20-01-54_260595134347_rgbf000051-resize_4/002323_2014-06-28_20-01-54_260595134347_rgbf000051-resize_4-target.png,depth_discrimination_stimuli/000917_2014-06-09_22-45-29_260595134347_rgbf000149-resize_3/000917_2014-06-09_22-45-29_260595134347_rgbf000149-resize_3-target.png,125.0,3.7310000000000003,4.1865,0.0,8016.0,1006.0,133.0,1021.0,98.0,495.0,,270443,35,Man
62,929106.0,DepthScenes,v2_duration_discrimination,discrim_jsons/Discrim125_randls_6_rotated.json,http://54.235.29.9/FacialAge/BNav_EC2/DepthDuration/v2_depth_discrimination_MTurk/v2_DepthDiscrim_HTML.html#381,381.0,1366.0,768.0,1366.0,768.0,9-6-2022,12-0-59,64.0,depth_discrimination_stimuli/000787_2014-06-08_22-33-53_260595134347_rgbf000175-resize_1/000787_2014-06-08_22-33-53_260595134347_rgbf000175-resize_1-target.png,depth_discrimination_stimuli/000787_2014-06-08_22-33-53_260595134347_rgbf000175-resize_1/000787_2014-06-08_22-33-53_260595134347_rgbf000175-resize_1-target.png,125.0,4.784,4.784,0.0,8016.0,1006.0,133.0,1021.0,98.0,495.0,,270443,35,Man
63,929106.0,DepthScenes,v2_duration_discrimination,discrim_jsons/Discrim125_randls_6_rotated.json,http://54.235.29.9/FacialAge/BNav_EC2/DepthDuration/v2_depth_discrimination_MTurk/v2_DepthDiscrim_HTML.html#381,381.0,1366.0,768.0,1366.0,768.0,9-6-2022,12-0-59,65.0,depth_discrimination_stimuli/001828_2014-06-26_21-40-03_260595134347_rgbf000024-resize_0/001828_2014-06-26_21-40-03_260595134347_rgbf000024-resize_0-target.png,depth_discrimination_stimuli/000009_2014-05-26_14-32-05_260595134347_rgbf000034-resize_3/000009_2014-05-26_14-32-05_260595134347_rgbf000034-resize_3-target.png,125.0,4.8260000000000005,3.8715,0.0,8017.0,1006.0,133.0,1021.0,98.0,495.0,,270443,35,Man
64,929106.0,DepthScenes,v2_duration_discrimination,discrim_jsons/Discrim125_randls_6_rotated.json,http://54.235.29.9/FacialAge/BNav_EC2/DepthDuration/v2_depth_discrimination_MTurk/v2_DepthDiscrim_HTML.html#381,381.0,1366.0,768.0,1366.0,768.0,9-6-2022,12-0-59,66.0,depth_discrimination_stimuli/002209_2014-06-28_18-36-10_260595134347_rgbf000051-resize_1/002209_2014-06-28_18-36-10_260595134347_rgbf000051-resize_1-target.png,depth_discrimination_stimuli/002763_2014-06-22_19-13-10_094959634447_rgbf000075-resize_4/002763_2014-06-22_19-13-10_094959634447_rgbf000075-resize_4-target.png,125.0,2.057,1.68375,1.0,4142.0,1029.0,95.0,1008.0,122.0,499.0,,270443,35,Man
65,929106.0,DepthScenes,v2_duration_discrimination,discrim_jsons/Discrim125_randls_6_rotated.json,http://54.235.29.9/FacialAge/BNav_EC2/DepthDuration/v2_depth_discrimination_MTurk/v2_DepthDiscrim_HTML.html#381,381.0,1366.0,768.0,1366.0,768.0,9-6-2022,12-0-59,67.0,depth_discrimination_stimuli/000780_2014-06-08_22-28-29_260595134347_rgbf000126-resize_1/000780_2014-06-08_22-28-29_260595134347_rgbf000126-resize_1-target.png,depth_discrimination_stimuli/002445_2014-06-28_20-32-16_260595134347_rgbf000029-resize_4/002445_2014-06-28_20-32-16_260595134347_rgbf000029-resize_4-target.png,125.0,3.3825,2.5315,1.0,4143.0,1029.0,95.0,1008.0,122.0,499.0,,270443,35,Man
66,929106.0,DepthScenes,v2_duration_discrimination,discrim_jsons/Discrim125_randls_6_rotated.json,http://54.235.29.9/FacialAge/BNav_EC2/DepthDuration/v2_depth_discrimination_MTurk/v2_DepthDiscrim_HTML.html#381,381.0,1366.0,768.0,1366.0,768.0,9-6-2022,12-0-59,68.0,depth_discrimination_stimuli/003010_2014-06-15_12-54-35_094959634447_rgbf000112-resize_0/003010_2014-06-15_12-54-35_094959634447_rgbf000112-resize_0-target.png,depth_discrimination_stimuli/001810_2014-06-26_20-51-35_260595134347_rgbf000040-resize_3/001810_2014-06-26_20-51-35_260595134347_rgbf000040-resize_3-target.png,125.0,3.1185,2.2525,1.0,4144.0,1029.0,95.0,1008.0,122.0,499.0,,270443,35,Man
67,929106.0,DepthScenes,v2_duration_discrimination,discrim_jsons/Discrim125_randls_6_rotated.json,http://54.235.29.9/FacialAge/BNav_EC2/DepthDuration/v2_depth_discrimination_MTurk/v2_DepthDiscrim_HTML.html#381,381.0,1366.0,768.0,1366.0,768.0,9-6-2022,12-0-59,69.0,depth_discrimination_stimuli/000927_2014-06-09_16-32-30_260595134347_rgbf000123-resize_3/000927_2014-06-09_16-32-30_260595134347_rgbf000123-resize_3-target.png,depth_discrimination_stimuli/001110_2014-06-15_17-25-28_260595134347_rgbf000150-resize_1/001110_2014-06-15_17-25-28_260595134347_rgbf000150-resize_1-target.png,125.0,2.6785,1.7115,1.0,4145.0,1029.0,95.0,1008.0,122.0,499.0,,270443,35,Man
68,929106.0,DepthScenes,v2_duration_discrimination,discrim_jsons/Discrim125_randls_6_rotated.json,http://54.235.29.9/FacialAge/BNav_EC2/DepthDuration/v2_depth_discrimination_MTurk/v2_DepthDiscrim_HTML.html#381,381.0,1366.0,768.0,1366.0,768.0,9-6-2022,12-0-59,70.0,depth_discrimination_stimuli/002637_2014-06-24_14-51-13_094959634447_rgbf000066-resize_4/002637_2014-06-24_14-51-13_094959634447_rgbf000066-resize_4-target.png,depth_discrimination_stimuli/003534_2014-05-22_15-06-10_094959634447_rgbf000102-resize_4/003534_2014-05-22_15-06-10_094959634447_rgbf000102-resize_4-target.png,125.0,1.9955,1.426,1.0,4145.0,1029.0,95.0,1008.0,122.0,499.0,,270443,35,Man
69,929106.0,DepthScenes,v2_duration_discrimination,discrim_jsons/Discrim125_randls_6_rotated.json,http://54.235.29.9/FacialAge/BNav_EC2/DepthDuration/v2_depth_discrimination_MTurk/v2_DepthDiscrim_HTML.html#381,381.0,1366.0,768.0,1366.0,768.0,9-6-2022,12-0-59,71.0,depth_discrimination_stimuli/003490_2014-05-21_15-50-11_094959634447_rgbf000101-resize_3/003490_2014-05-21_15-50-11_094959634447_rgbf000101-resize_3-target.png,depth_discrimination_stimuli/001175_2014-06-17_15-45-55_260595134347_rgbf000129-resize_4/001175_2014-06-17_15-45-55_260595134347_rgbf000129-resize_4-target.png,125.0,3.6445,4.255,1.0,4146.0,1029.0,95.0,1008.0,122.0,499.0,,270443,35,Man
70,929106.0,DepthScenes,v2_duration_discrimination,discrim_jsons/Discrim125_randls_6_rotated.json,http://54.235.29.9/FacialAge/BNav_EC2/DepthDuration/v2_depth_discrimination_MTurk/v2_DepthDiscrim_HTML.html#381,381.0,1366.0,768.0,1366.0,768.0,9-6-2022,12-0-59,72.0,depth_discrimination_stimuli/000375_2014-06-08_11-17-29_260595134347_rgbf000133-resize_2/000375_2014-06-08_11-17-29_260595134347_rgbf000133-resize_2-target.png,depth_discrimination_stimuli/000375_2014-06-08_11-17-29_260595134347_rgbf000133-resize_2/000375_2014-06-08_11-17-29_260595134347_rgbf000133-resize_2-target.png,125.0,4.718,4.718,1.0,4146.0,1029.0,95.0,1008.0,122.0,499.0,,270443,35,Man
71,929106.0,DepthScenes,v2_duration_discrimination,discrim_jsons/Discrim125_randls_6_rotated.json,http://54.235.29.9/FacialAge/BNav_EC2/DepthDuration/v2_depth_discrimination_MTurk/v2_DepthDiscrim_HTML.html#381,381.0,1366.0,768.0,1366.0,768.0,9-6-2022,12-0-59,73.0,depth_discrimination_stimuli/000103_2014-05-14_22-01-17_260595134347_rgbf000152-resize_5/000103_2014-05-14_22-01-17_260595134347_rgbf000152-resize_5-target.png,depth_discrimination_stimuli/001555_2014-06-20_17-12-10_260595134347_rgbf000065-resize_4/001555_2014-06-20_17-12-10_260595134347_rgbf000065-resize_4-target.png,125.0,1.993,1.633,0.0,2564.0,1006.0,123.0,1038.0,96.0,493.0,,270443,35,Man
72,929106.0,DepthScenes,v2_duration_discrimination,discrim_jsons/Discrim125_randls_6_rotated.json,http://54.235.29.9/FacialAge/BNav_EC2/DepthDuration/v2_depth_discrimination_MTurk/v2_DepthDiscrim_HTML.html#381,381.0,1366.0,768.0,1366.0,768.0,9-6-2022,12-0-59,74.0,depth_discrimination_stimuli/002136_2014-06-25_21-18-03_260595134347_rgbf000109-resize_3/002136_2014-06-25_21-18-03_260595134347_rgbf000109-resize_3-target.png,depth_discrimination_stimuli/002964_2014-06-08_17-46-11_094959634447_rgbf000091-resize_4/002964_2014-06-08_17-46-11_094959634447_rgbf000091-resize_4-target.png,125.0,1.9569999999999999,1.6909999999999998,0.0,2564.0,1006.0,123.0,1038.0,96.0,493.0,,270443,35,Man
73,929106.0,DepthScenes,v2_duration_discrimination,discrim_jsons/Discrim125_randls_6_rotated.json,http://54.235.29.9/FacialAge/BNav_EC2/DepthDuration/v2_depth_discrimination_MTurk/v2_DepthDiscrim_HTML.html#381,381.0,1366.0,768.0,1366.0,768.0,9-6-2022,12-0-59,75.0,depth_discrimination_stimuli/002875_2014-06-01_15-19-00_094959634447_rgbf000151-resize_1/002875_2014-06-01_15-19-00_094959634447_rgbf000151-resize_1-target.png,depth_discrimination_stimuli/001011_2014-06-08_23-18-54_260595134347_rgbf000044-resize_4/001011_2014-06-08_23-18-54_260595134347_rgbf000044-resize_4-target.png,125.0,1.9675,2.4730000000000003,0.0,2565.0,1006.0,123.0,1038.0,96.0,493.0,,270443,35,Man
74,929106.0,DepthScenes,v2_duration_discrimination,discrim_jsons/Discrim125_randls_6_rotated.json,http://54.235.29.9/FacialAge/BNav_EC2/DepthDuration/v2_depth_discrimination_MTurk/v2_DepthDiscrim_HTML.html#381,381.0,1366.0,768.0,1366.0,768.0,9-6-2022,12-0-59,76.0,depth_discrimination_stimuli/002568_2014-06-24_13-59-21_094959634447_rgbf000062-resize_4/002568_2014-06-24_13-59-21_094959634447_rgbf000062-resize_4-target.png,depth_discrimination_stimuli/003492_2014-05-21_15-50-55_094959634447_rgbf000828-resize_1/003492_2014-05-21_15-50-55_094959634447_rgbf000828-resize_1-target.png,125.0,3.015,4.06875,0.0,2566.0,1006.0,123.0,1038.0,96.0,493.0,,270443,35,Man
75,929106.0,DepthScenes,v2_duration_discrimination,discrim_jsons/Discrim125_randls_6_rotated.json,http://54.235.29.9/FacialAge/BNav_EC2/DepthDuration/v2_depth_discrimination_MTurk/v2_DepthDiscrim_HTML.html#381,381.0,1366.0,768.0,1366.0,768.0,9-6-2022,12-0-59,77.0,depth_discrimination_stimuli/000691_2014-06-08_13-08-50_260595134347_rgbf000132-resize_3/000691_2014-06-08_13-08-50_260595134347_rgbf000132-resize_3-target.png,depth_discrimination_stimuli/002213_2014-06-28_18-37-58_260595134347_rgbf000055-resize_1/002213_2014-06-28_18-37-58_260595134347_rgbf000055-resize_1-target.png,125.0,4.1530000000000005,3.62,0.0,2567.0,1006.0,123.0,1038.0,96.0,493.0,,270443,35,Man
76,929106.0,DepthScenes,v2_duration_discrimination,discrim_jsons/Discrim125_randls_6_rotated.json,http://54.235.29.9/FacialAge/BNav_EC2/DepthDuration/v2_depth_discrimination_MTurk/v2_DepthDiscrim_HTML.html#381,381.0,1366.0,768.0,1366.0,768.0,9-6-2022,12-0-59,78.0,depth_discrimination_stimuli/002995_2014-06-15_12-31-26_094959634447_rgbf000150-resize_1/002995_2014-06-15_12-31-26_094959634447_rgbf000150-resize_1-target.png,depth_discrimination_stimuli/002748_2014-06-22_19-07-22_094959634447_rgbf000078-resize_1/002748_2014-06-22_19-07-22_094959634447_rgbf000078-resize_1-target.png,125.0,3.8360000000000003,4.6705,0.0,2568.0,1006.0,123.0,1038.0,96.0,493.0,,270443,35,Man
77,929106.0,DepthScenes,v2_duration_discrimination,discrim_jsons/Discrim125_randls_6_rotated.json,http://54.235.29.9/FacialAge/BNav_EC2/DepthDuration/v2_depth_discrimination_MTurk/v2_DepthDiscrim_HTML.html#381,381.0,1366.0,768.0,1366.0,768.0,9-6-2022,12-0-59,79.0,depth_discrimination_stimuli/001052_2014-06-08_18-24-54_260595134347_rgbf000130-resize_1/001052_2014-06-08_18-24-54_260595134347_rgbf000130-resize_1-target.png,depth_discrimination_stimuli/002988_2014-06-15_12-24-20_094959634447_rgbf000150-resize_1/002988_2014-06-15_12-24-20_094959634447_rgbf000150-resize_1-target.png,125.0,4.1045,4.7669999999999995,0.0,2568.0,1006.0,123.0,1038.0,96.0,493.0,,270443,35,Man
78,929106.0,DepthScenes,v2_duration_discrimination,discrim_jsons/Discrim125_randls_6_rotated.json,http://54.235.29.9/FacialAge/BNav_EC2/DepthDuration/v2_depth_discrimination_MTurk/v2_DepthDiscrim_HTML.html#381,381.0,1366.0,768.0,1366.0,768.0,9-6-2022,12-0-59,80.0,depth_discrimination_stimuli/001100_2014-06-15_17-46-26_260595134347_rgbf000225-resize_2/001100_2014-06-15_17-46-26_260595134347_rgbf000225-resize_2-target.png,depth_discrimination_stimuli/002784_2014-06-22_19-26-30_094959634447_rgbf000083-resize_3/002784_2014-06-22_19-26-30_094959634447_rgbf000083-resize_3-target.png,125.0,2.24,1.8046666666667,0.0,4736.0,1024.0,103.0,1012.0,122.0,496.0,,270443,35,Man
79,929106.0,DepthScenes,v2_duration_discrimination,discrim_jsons/Discrim125_randls_6_rotated.json,http://54.235.29.9/FacialAge/BNav_EC2/DepthDuration/v2_depth_discrimination_MTurk/v2_DepthDiscrim_HTML.html#381,381.0,1366.0,768.0,1366.0,768.0,9-6-2022,12-0-59,81.0,depth_discrimination_stimuli/000569_2014-06-09_22-51-47_260595134347_rgbf000141-resize_3/000569_2014-06-09_22-51-47_260595134347_rgbf000141-resize_3-target.png,depth_discrimination_stimuli/000569_2014-06-09_22-51-47_260595134347_rgbf000141-resize_3/000569_2014-06-09_22-51-47_260595134347_rgbf000141-resize_3-target.png,125.0,4.512,4.512,0.0,4737.0,1024.0,103.0,1012.0,122.0,496.0,,270443,35,Man
80,929106.0,DepthScenes,v2_duration_discrimination,discrim_jsons/Discrim125_randls_6_rotated.json,http://54.235.29.9/FacialAge/BNav_EC2/DepthDuration/v2_depth_discrimination_MTurk/v2_DepthDiscrim_HTML.html#381,381.0,1366.0,768.0,1366.0,768.0,9-6-2022,12-0-59,82.0,depth_discrimination_stimuli/002758_2014-06-22_19-11-20_094959634447_rgbf000128-resize_1/002758_2014-06-22_19-11-20_094959634447_rgbf000128-resize_1-target.png,depth_discrimination_stimuli/002630_2014-06-24_14-47-50_094959634447_rgbf000055-resize_1/002630_2014-06-24_14-47-50_094959634447_rgbf000055-resize_1-target.png,125.0,2.555,3.0095,0.0,4738.0,1024.0,103.0,1012.0,122.0,496.0,,270443,35,Man
81,929106.0,DepthScenes,v2_duration_discrimination,discrim_jsons/Discrim125_randls_6_rotated.json,http://54.235.29.9/FacialAge/BNav_EC2/DepthDuration/v2_depth_discrimination_MTurk/v2_DepthDiscrim_HTML.html#381,381.0,1366.0,768.0,1366.0,768.0,9-6-2022,12-0-59,83.0,depth_discrimination_stimuli/001571_2014-06-20_17-21-32_260595134347_rgbf000089-resize_1/001571_2014-06-20_17-21-32_260595134347_rgbf000089-resize_1-target.png,depth_discrimination_stimuli/002272_2014-06-28_18-53-56_260595134347_rgbf000067-resize_2/002272_2014-06-28_18-53-56_260595134347_rgbf000067-resize_2-target.png,125.0,1.86,1.138,0.0,4738.0,1024.0,103.0,1012.0,122.0,496.0,,270443,35,Man
82,929106.0,DepthScenes,v2_duration_discrimination,discrim_jsons/Discrim125_randls_6_rotated.json,http://54.235.29.9/FacialAge/BNav_EC2/DepthDuration/v2_depth_discrimination_MTurk/v2_DepthDiscrim_HTML.html#381,381.0,1366.0,768.0,1366.0,768.0,9-6-2022,12-0-59,84.0,depth_discrimination_stimuli/001450_2014-06-19_17-02-03_260595134347_rgbf000203-resize_4/001450_2014-06-19_17-02-03_260595134347_rgbf000203-resize_4-target.png,depth_discrimination_stimuli/001449_2014-06-19_17-01-27_260595134347_rgbf000116-resize_2/001449_2014-06-19_17-01-27_260595134347_rgbf000116-resize_2-target.png,125.0,4.0106666666667,3.452,0.0,4739.0,1024.0,103.0,1012.0,122.0,496.0,,270443,35,Man
83,929106.0,DepthScenes,v2_duration_discrimination,discrim_jsons/Discrim125_randls_6_rotated.json,http://54.235.29.9/FacialAge/BNav_EC2/DepthDuration/v2_depth_discrimination_MTurk/v2_DepthDiscrim_HTML.html#381,381.0,1366.0,768.0,1366.0,768.0,9-6-2022,12-0-59,85.0,depth_discrimination_stimuli/002425_2014-06-28_20-27-29_260595134347_rgbf000031-resize_8/002425_2014-06-28_20-27-29_260595134347_rgbf000031-resize_8-target.png,depth_discrimination_stimuli/000642_2014-06-08_16-59-25_260595134347_rgbf000098-resize_2/000642_2014-06-08_16-59-25_260595134347_rgbf000098-resize_2-target.png,125.0,3.8960000000000004,2.8815,0.0,4740.0,1024.0,103.0,1012.0,122.0,496.0,,270443,35,Man
84,929106.0,DepthScenes,v2_duration_discrimination,discrim_jsons/Discrim125_randls_6_rotated.json,http://54.235.29.9/FacialAge/BNav_EC2/DepthDuration/v2_depth_discrimination_MTurk/v2_DepthDiscrim_HTML.html#381,381.0,1366.0,768.0,1366.0,768.0,9-6-2022,12-0-59,86.0,depth_discrimination_stimuli/003423_2014-05-21_10-23-26_094959634447_rgbf002665-resize_2/003423_2014-05-21_10-23-26_094959634447_rgbf002665-resize_2-target.png,depth_discrimination_stimuli/002905_2014-06-03_18-04-43_094959634447_rgbf000151-resize_2/002905_2014-06-03_18-04-43_094959634447_rgbf000151-resize_2-target.png,125.0,3.2575,2.0295,0.0,4740.0,1024.0,103.0,1012.0,122.0,496.0,,270443,35,Man
85,929106.0,DepthScenes,v2_duration_discrimination,discrim_jsons/Discrim125_randls_6_rotated.json,http://54.235.29.9/FacialAge/BNav_EC2/DepthDuration/v2_depth_discrimination_MTurk/v2_DepthDiscrim_HTML.html#381,381.0,1366.0,768.0,1366.0,768.0,9-6-2022,12-0-59,87.0,depth_discrimination_stimuli/000409_2014-06-04_19-23-33_260595134347_rgbf000067-resize_0/000409_2014-06-04_19-23-33_260595134347_rgbf000067-resize_0-target.png,depth_discrimination_stimuli/002663_2014-06-13_15-50-26_094959634447_rgbf000075-resize_1/002663_2014-06-13_15-50-26_094959634447_rgbf000075-resize_1-target.png,125.0,3.7335,4.7495,3.0,6291.0,1010.0,103.0,996.0,122.0,500.0,,270443,35,Man
86,929106.0,DepthScenes,v2_duration_discrimination,discrim_jsons/Discrim125_randls_6_rotated.json,http://54.235.29.9/FacialAge/BNav_EC2/DepthDuration/v2_depth_discrimination_MTurk/v2_DepthDiscrim_HTML.html#381,381.0,1366.0,768.0,1366.0,768.0,9-6-2022,12-0-59,88.0,,,,,,3.0,6292.0,1010.0,103.0,996.0,122.0,500.0,,270443,35,Man
87,,,,,,,,,,,,,,,,,,,,,,,,,,,270443,35,Man
88,,,,,,,,,,,,,,,,,,,,,,,,,,,270443,35,Man
