,subjID,experimentName,versionName,sequenceName,url,selected_row,windowWidth,windowHeight,screenWidth,screenHeight,startDate,startTime,trial,stimulus,duration,actual_depth,depth_estimate,trial_RT,log_sceneDuration,unitSelection,seq_filepath,experimentTime,totalTime,age,gender
0,101836,DepthScenes,duration_manipulation_targetAtFixation,jsons/v1_VE1000_randls_2_rotated.json,http://54.235.29.9/FacialAge/BNav_EC2/DepthDuration/v2_depth_duration_MTurk/v2_DepthDuration_HTML.html#187,187,1366,768,1366,768,9-3-2022,9-9-58,1,depth_duration_stimuli/002209_2014-06-28_18-36-10_260595134347_rgbf000051-resize_1/002209_2014-06-28_18-36-10_260595134347_rgbf000051-resize_1-target.png,1000,2.057,0.8,8902,997,meters,jsons/v1_VE1000_randls_2_rotated.json,1599697,2022024,56,Woman
1,101836,DepthScenes,duration_manipulation_targetAtFixation,jsons/v1_VE1000_randls_2_rotated.json,http://54.235.29.9/FacialAge/BNav_EC2/DepthDuration/v2_depth_duration_MTurk/v2_DepthDuration_HTML.html#187,187,1366,768,1366,768,9-3-2022,9-9-58,2,depth_duration_stimuli/002763_2014-06-22_19-13-10_094959634447_rgbf000075-resize_4/002763_2014-06-22_19-13-10_094959634447_rgbf000075-resize_4-target.png,1000,1.68375,0.3,5771,998,meters,jsons/v1_VE1000_randls_2_rotated.json,1599697,2022024,56,Woman
2,101836,DepthScenes,duration_manipulation_targetAtFixation,jsons/v1_VE1000_randls_2_rotated.json,http://54.235.29.9/FacialAge/BNav_EC2/DepthDuration/v2_depth_duration_MTurk/v2_DepthDuration_HTML.html#187,187,1366,768,1366,768,9-3-2022,9-9-58,3,depth_duration_stimuli/000780_2014-06-08_22-28-29_260595134347_rgbf000126-resize_1/000780_2014-06-08_22-28-29_260595134347_rgbf000126-resize_1-target.png,1000,3.3825,0.5,7423,1091,meters,jsons/v1_VE1000_randls_2_rotated.json,1599697,2022024,56,Woman
3,101836,DepthScenes,duration_manipulation_targetAtFixation,jsons/v1_VE1000_randls_2_rotated.json,http://54.235.29.9/FacialAge/BNav_EC2/DepthDuration/v2_depth_duration_MTurk/v2_DepthDuration_HTML.html#187,187,1366,768,1366,768,9-3-2022,9-9-58,4,depth_duration_stimuli/002445_2014-06-28_20-32-16_260595134347_rgbf000029-resize_4/002445_2014-06-28_20-32-16_260595134347_rgbf000029-resize_4-target.png,1000,2.5315,0.2,5528,999,meters,jsons/v1_VE1000_randls_2_rotated.json,1599697,2022024,56,Woman
4,101836,DepthScenes,duration_manipulation_targetAtFixation,jsons/v1_VE1000_randls_2_rotated.json,http://54.235.29.9/FacialAge/BNav_EC2/DepthDuration/v2_depth_duration_MTurk/v2_DepthDuration_HTML.html#187,187,1366,768,1366,768,9-3-2022,9-9-58,5,depth_duration_stimuli/002805_2014-06-22_19-54-03_094959634447_rgbf000079-resize_1/002805_2014-06-22_19-54-03_094959634447_rgbf000079-resize_1-target.png,1000,3.1439999999999997,0.1,8490,1000,meters,jsons/v1_VE1000_randls_2_rotated.json,1599697,2022024,56,Woman
5,101836,DepthScenes,duration_manipulation_targetAtFixation,jsons/v1_VE1000_randls_2_rotated.json,http://54.235.29.9/FacialAge/BNav_EC2/DepthDuration/v2_depth_duration_MTurk/v2_DepthDuration_HTML.html#187,187,1366,768,1366,768,9-3-2022,9-9-58,6,depth_duration_stimuli/000906_2014-06-08_13-35-43_260595134347_rgbf000155-resize_1/000906_2014-06-08_13-35-43_260595134347_rgbf000155-resize_1-target.png,1000,2.8489999999999998,0.1,5521,999,meters,jsons/v1_VE1000_randls_2_rotated.json,1599697,2022024,56,Woman
6,101836,DepthScenes,duration_manipulation_targetAtFixation,jsons/v1_VE1000_randls_2_rotated.json,http://54.235.29.9/FacialAge/BNav_EC2/DepthDuration/v2_depth_duration_MTurk/v2_DepthDuration_HTML.html#187,187,1366,768,1366,768,9-3-2022,9-9-58,7,depth_duration_stimuli/000556_2014-06-09_22-42-56_260595134347_rgbf000214-resize_1/000556_2014-06-09_22-42-56_260595134347_rgbf000214-resize_1-target.png,1000,4.8415,0.1,8422,1003,meters,jsons/v1_VE1000_randls_2_rotated.json,1599697,2022024,56,Woman
7,101836,DepthScenes,duration_manipulation_targetAtFixation,jsons/v1_VE1000_randls_2_rotated.json,http://54.235.29.9/FacialAge/BNav_EC2/DepthDuration/v2_depth_duration_MTurk/v2_DepthDuration_HTML.html#187,187,1366,768,1366,768,9-3-2022,9-9-58,8,depth_duration_stimuli/001158_2014-06-17_15-32-16_260595134347_rgbf000138-resize_2/001158_2014-06-17_15-32-16_260595134347_rgbf000138-resize_2-target.png,1000,4.5315,0.3,5186,998,meters,jsons/v1_VE1000_randls_2_rotated.json,1599697,2022024,56,Woman
8,101836,DepthScenes,duration_manipulation_targetAtFixation,jsons/v1_VE1000_randls_2_rotated.json,http://54.235.29.9/FacialAge/BNav_EC2/DepthDuration/v2_depth_duration_MTurk/v2_DepthDuration_HTML.html#187,187,1366,768,1366,768,9-3-2022,9-9-58,9,depth_duration_stimuli/002444_2014-06-28_20-32-08_260595134347_rgbf000027-resize_0/002444_2014-06-28_20-32-08_260595134347_rgbf000027-resize_0-target.png,1000,4.388999999999999,0.5,9561,998,meters,jsons/v1_VE1000_randls_2_rotated.json,1599697,2022024,56,Woman
9,101836,DepthScenes,duration_manipulation_targetAtFixation,jsons/v1_VE1000_randls_2_rotated.json,http://54.235.29.9/FacialAge/BNav_EC2/DepthDuration/v2_depth_duration_MTurk/v2_DepthDuration_HTML.html#187,187,1366,768,1366,768,9-3-2022,9-9-58,10,depth_duration_stimuli/000436_2014-06-09_22-25-11_260595134347_rgbf000137-resize_1/000436_2014-06-09_22-25-11_260595134347_rgbf000137-resize_1-target.png,1000,4.0705,0.5,5649,998,meters,jsons/v1_VE1000_randls_2_rotated.json,1599697,2022024,56,Woman
10,101836,DepthScenes,duration_manipulation_targetAtFixation,jsons/v1_VE1000_randls_2_rotated.json,http://54.235.29.9/FacialAge/BNav_EC2/DepthDuration/v2_depth_duration_MTurk/v2_DepthDuration_HTML.html#187,187,1366,768,1366,768,9-3-2022,9-9-58,11,depth_duration_stimuli/002953_2014-06-08_17-32-18_094959634447_rgbf000059-resize_5/002953_2014-06-08_17-32-18_094959634447_rgbf000059-resize_5-target.png,1000,1.551,0.2,7342,999,meters,jsons/v1_VE1000_randls_2_rotated.json,1599697,2022024,56,Woman
11,101836,DepthScenes,duration_manipulation_targetAtFixation,jsons/v1_VE1000_randls_2_rotated.json,http://54.235.29.9/FacialAge/BNav_EC2/DepthDuration/v2_depth_duration_MTurk/v2_DepthDuration_HTML.html#187,187,1366,768,1366,768,9-3-2022,9-9-58,12,depth_duration_stimuli/000878_2014-06-08_22-52-45_260595134347_rgbf000045-resize_2/000878_2014-06-08_22-52-45_260595134347_rgbf000045-resize_2-target.png,1000,2.092,0.3,6002,998,meters,jsons/v1_VE1000_randls_2_rotated.json,1599697,2022024,56,Woman
12,101836,DepthScenes,duration_manipulation_targetAtFixation,jsons/v1_VE1000_randls_2_rotated.json,http://54.235.29.9/FacialAge/BNav_EC2/DepthDuration/v2_depth_duration_MTurk/v2_DepthDuration_HTML.html#187,187,1366,768,1366,768,9-3-2022,9-9-58,13,depth_duration_stimuli/001516_2014-06-20_16-25-09_260595134347_rgbf000076-resize_2/001516_2014-06-20_16-25-09_260595134347_rgbf000076-resize_2-target.png,1000,1.7445,0.1,8826,992,meters,jsons/v1_VE1000_randls_2_rotated.json,1599697,2022024,56,Woman
13,101836,DepthScenes,duration_manipulation_targetAtFixation,jsons/v1_VE1000_randls_2_rotated.json,http://54.235.29.9/FacialAge/BNav_EC2/DepthDuration/v2_depth_duration_MTurk/v2_DepthDuration_HTML.html#187,187,1366,768,1366,768,9-3-2022,9-9-58,14,depth_duration_stimuli/002118_2014-06-25_20-32-08_260595134347_rgbf000078-resize_1/002118_2014-06-25_20-32-08_260595134347_rgbf000078-resize_1-target.png,1000,2.6460000000000004,0.5,5522,999,meters,jsons/v1_VE1000_randls_2_rotated.json,1599697,2022024,56,Woman
14,101836,DepthScenes,duration_manipulation_targetAtFixation,jsons/v1_VE1000_randls_2_rotated.json,http://54.235.29.9/FacialAge/BNav_EC2/DepthDuration/v2_depth_duration_MTurk/v2_DepthDuration_HTML.html#187,187,1366,768,1366,768,9-3-2022,9-9-58,15,depth_duration_stimuli/003083_2014-06-15_15-21-03_094959634447_rgbf000063-resize_1/003083_2014-06-15_15-21-03_094959634447_rgbf000063-resize_1-target.png,1000,4.1405,0.15,10097,997,meters,jsons/v1_VE1000_randls_2_rotated.json,1599697,2022024,56,Woman
15,101836,DepthScenes,duration_manipulation_targetAtFixation,jsons/v1_VE1000_randls_2_rotated.json,http://54.235.29.9/FacialAge/BNav_EC2/DepthDuration/v2_depth_duration_MTurk/v2_DepthDuration_HTML.html#187,187,1366,768,1366,768,9-3-2022,9-9-58,16,depth_duration_stimuli/000486_2014-06-09_20-47-20_260595134347_rgbf000143-resize_2/000486_2014-06-09_20-47-20_260595134347_rgbf000143-resize_2-target.png,1000,4.8325,0.15,7962,998,meters,jsons/v1_VE1000_randls_2_rotated.json,1599697,2022024,56,Woman
16,101836,DepthScenes,duration_manipulation_targetAtFixation,jsons/v1_VE1000_randls_2_rotated.json,http://54.235.29.9/FacialAge/BNav_EC2/DepthDuration/v2_depth_duration_MTurk/v2_DepthDuration_HTML.html#187,187,1366,768,1366,768,9-3-2022,9-9-58,17,depth_duration_stimuli/000691_2014-06-08_13-08-50_260595134347_rgbf000132-resize_3/000691_2014-06-08_13-08-50_260595134347_rgbf000132-resize_3-target.png,1000,4.1530000000000005,0.2,10643,912,meters,jsons/v1_VE1000_randls_2_rotated.json,1599697,2022024,56,Woman
17,101836,DepthScenes,duration_manipulation_targetAtFixation,jsons/v1_VE1000_randls_2_rotated.json,http://54.235.29.9/FacialAge/BNav_EC2/DepthDuration/v2_depth_duration_MTurk/v2_DepthDuration_HTML.html#187,187,1366,768,1366,768,9-3-2022,9-9-58,18,depth_duration_stimuli/002213_2014-06-28_18-37-58_260595134347_rgbf000055-resize_1/002213_2014-06-28_18-37-58_260595134347_rgbf000055-resize_1-target.png,1000,3.62,0.15,5717,999,meters,jsons/v1_VE1000_randls_2_rotated.json,1599697,2022024,56,Woman
18,101836,DepthScenes,duration_manipulation_targetAtFixation,jsons/v1_VE1000_randls_2_rotated.json,http://54.235.29.9/FacialAge/BNav_EC2/DepthDuration/v2_depth_duration_MTurk/v2_DepthDuration_HTML.html#187,187,1366,768,1366,768,9-3-2022,9-9-58,19,depth_duration_stimuli/001498_2014-06-19_17-45-14_260595134347_rgbf000129-resize_4/001498_2014-06-19_17-45-14_260595134347_rgbf000129-resize-original.jpg,1000,1.4075,0.0,10347,998,meters,jsons/v1_VE1000_randls_2_rotated.json,1599697,2022024,56,Woman
19,101836,DepthScenes,duration_manipulation_targetAtFixation,jsons/v1_VE1000_randls_2_rotated.json,http://54.235.29.9/FacialAge/BNav_EC2/DepthDuration/v2_depth_duration_MTurk/v2_DepthDuration_HTML.html#187,187,1366,768,1366,768,9-3-2022,9-9-58,20,depth_duration_stimuli/003129_2014-05-12_10-48-10_094959634447_rgbf000100-resize_0/003129_2014-05-12_10-48-10_094959634447_rgbf000100-resize_0-target.png,1000,4.9305,0.2,10270,999,meters,jsons/v1_VE1000_randls_2_rotated.json,1599697,2022024,56,Woman
20,101836,DepthScenes,duration_manipulation_targetAtFixation,jsons/v1_VE1000_randls_2_rotated.json,http://54.235.29.9/FacialAge/BNav_EC2/DepthDuration/v2_depth_duration_MTurk/v2_DepthDuration_HTML.html#187,187,1366,768,1366,768,9-3-2022,9-9-58,21,depth_duration_stimuli/000414_2014-06-04_19-49-13_260595134347_rgbf000044-resize_0/000414_2014-06-04_19-49-13_260595134347_rgbf000044-resize_0-target.png,1000,4.329,0.1,5478,997,meters,jsons/v1_VE1000_randls_2_rotated.json,1599697,2022024,56,Woman
21,101836,DepthScenes,duration_manipulation_targetAtFixation,jsons/v1_VE1000_randls_2_rotated.json,http://54.235.29.9/FacialAge/BNav_EC2/DepthDuration/v2_depth_duration_MTurk/v2_DepthDuration_HTML.html#187,187,1366,768,1366,768,9-3-2022,9-9-58,22,depth_duration_stimuli/002103_2014-06-25_20-00-40_260595134347_rgbf000049-resize_0/002103_2014-06-25_20-00-40_260595134347_rgbf000049-resize_0-target.png,1000,4.105,0.5,9074,998,meters,jsons/v1_VE1000_randls_2_rotated.json,1599697,2022024,56,Woman
22,101836,DepthScenes,duration_manipulation_targetAtFixation,jsons/v1_VE1000_randls_2_rotated.json,http://54.235.29.9/FacialAge/BNav_EC2/DepthDuration/v2_depth_duration_MTurk/v2_DepthDuration_HTML.html#187,187,1366,768,1366,768,9-3-2022,9-9-58,23,depth_duration_stimuli/002039_2014-06-24_20-22-38_260595134347_rgbf000084-resize_1/002039_2014-06-24_20-22-38_260595134347_rgbf000084-resize_1-target.png,1000,4.408,0.5,4815,999,meters,jsons/v1_VE1000_randls_2_rotated.json,1599697,2022024,56,Woman
23,101836,DepthScenes,duration_manipulation_targetAtFixation,jsons/v1_VE1000_randls_2_rotated.json,http://54.235.29.9/FacialAge/BNav_EC2/DepthDuration/v2_depth_duration_MTurk/v2_DepthDuration_HTML.html#187,187,1366,768,1366,768,9-3-2022,9-9-58,24,depth_duration_stimuli/002414_2014-06-28_20-24-58_260595134347_rgbf000067-resize_4/002414_2014-06-28_20-24-58_260595134347_rgbf000067-resize_4-target.png,1000,4.363,0.5,7956,1000,meters,jsons/v1_VE1000_randls_2_rotated.json,1599697,2022024,56,Woman
24,101836,DepthScenes,duration_manipulation_targetAtFixation,jsons/v1_VE1000_randls_2_rotated.json,http://54.235.29.9/FacialAge/BNav_EC2/DepthDuration/v2_depth_duration_MTurk/v2_DepthDuration_HTML.html#187,187,1366,768,1366,768,9-3-2022,9-9-58,25,depth_duration_stimuli/000773_2014-06-08_22-24-54_260595134347_rgbf000093-resize_1/000773_2014-06-08_22-24-54_260595134347_rgbf000093-resize_1-target.png,1000,4.973,0.5,5327,992,meters,jsons/v1_VE1000_randls_2_rotated.json,1599697,2022024,56,Woman
25,101836,DepthScenes,duration_manipulation_targetAtFixation,jsons/v1_VE1000_randls_2_rotated.json,http://54.235.29.9/FacialAge/BNav_EC2/DepthDuration/v2_depth_duration_MTurk/v2_DepthDuration_HTML.html#187,187,1366,768,1366,768,9-3-2022,9-9-58,26,depth_duration_stimuli/003010_2014-06-15_12-54-35_094959634447_rgbf000112-resize_0/003010_2014-06-15_12-54-35_094959634447_rgbf000112-resize_0-target.png,1000,3.1185,0.1,8389,998,meters,jsons/v1_VE1000_randls_2_rotated.json,1599697,2022024,56,Woman
26,101836,DepthScenes,duration_manipulation_targetAtFixation,jsons/v1_VE1000_randls_2_rotated.json,http://54.235.29.9/FacialAge/BNav_EC2/DepthDuration/v2_depth_duration_MTurk/v2_DepthDuration_HTML.html#187,187,1366,768,1366,768,9-3-2022,9-9-58,27,depth_duration_stimuli/001810_2014-06-26_20-51-35_260595134347_rgbf000040-resize_3/001810_2014-06-26_20-51-35_260595134347_rgbf000040-resize_3-target.png,1000,2.2525,0.3,5086,999,meters,jsons/v1_VE1000_randls_2_rotated.json,1599697,2022024,56,Woman
27,101836,DepthScenes,duration_manipulation_targetAtFixation,jsons/v1_VE1000_randls_2_rotated.json,http://54.235.29.9/FacialAge/BNav_EC2/DepthDuration/v2_depth_duration_MTurk/v2_DepthDuration_HTML.html#187,187,1366,768,1366,768,9-3-2022,9-9-58,28,depth_duration_stimuli/001100_2014-06-15_17-46-26_260595134347_rgbf000225-resize_2/001100_2014-06-15_17-46-26_260595134347_rgbf000225-resize_2-target.png,1000,2.24,0.3,8150,1155,meters,jsons/v1_VE1000_randls_2_rotated.json,1599697,2022024,56,Woman
28,101836,DepthScenes,duration_manipulation_targetAtFixation,jsons/v1_VE1000_randls_2_rotated.json,http://54.235.29.9/FacialAge/BNav_EC2/DepthDuration/v2_depth_duration_MTurk/v2_DepthDuration_HTML.html#187,187,1366,768,1366,768,9-3-2022,9-9-58,29,depth_duration_stimuli/002784_2014-06-22_19-26-30_094959634447_rgbf000083-resize_3/002784_2014-06-22_19-26-30_094959634447_rgbf000083-resize_3-target.png,1000,1.8046666666667,0.3,6224,999,meters,jsons/v1_VE1000_randls_2_rotated.json,1599697,2022024,56,Woman
29,101836,DepthScenes,duration_manipulation_targetAtFixation,jsons/v1_VE1000_randls_2_rotated.json,http://54.235.29.9/FacialAge/BNav_EC2/DepthDuration/v2_depth_duration_MTurk/v2_DepthDuration_HTML.html#187,187,1366,768,1366,768,9-3-2022,9-9-58,30,depth_duration_stimuli/002072_2014-06-24_21-48-06_260595134347_rgbf000115-resize_0/002072_2014-06-24_21-48-06_260595134347_rgbf000115-resize-original.jpg,1000,4.702,0.0,5786,999,meters,jsons/v1_VE1000_randls_2_rotated.json,1599697,2022024,56,Woman
30,101836,DepthScenes,duration_manipulation_targetAtFixation,jsons/v1_VE1000_randls_2_rotated.json,http://54.235.29.9/FacialAge/BNav_EC2/DepthDuration/v2_depth_duration_MTurk/v2_DepthDuration_HTML.html#187,187,1366,768,1366,768,9-3-2022,9-9-58,31,depth_duration_stimuli/001392_2014-06-19_16-07-59_260595134347_rgbf000046-resize_1/001392_2014-06-19_16-07-59_260595134347_rgbf000046-resize_1-target.png,1000,4.135,0.1,7664,1000,meters,jsons/v1_VE1000_randls_2_rotated.json,1599697,2022024,56,Woman
31,101836,DepthScenes,duration_manipulation_targetAtFixation,jsons/v1_VE1000_randls_2_rotated.json,http://54.235.29.9/FacialAge/BNav_EC2/DepthDuration/v2_depth_duration_MTurk/v2_DepthDuration_HTML.html#187,187,1366,768,1366,768,9-3-2022,9-9-58,32,depth_duration_stimuli/001570_2014-06-20_17-21-09_260595134347_rgbf000135-resize_4/001570_2014-06-20_17-21-09_260595134347_rgbf000135-resize_4-target.png,1000,4.467,0.15,6081,1000,meters,jsons/v1_VE1000_randls_2_rotated.json,1599697,2022024,56,Woman
32,101836,DepthScenes,duration_manipulation_targetAtFixation,jsons/v1_VE1000_randls_2_rotated.json,http://54.235.29.9/FacialAge/BNav_EC2/DepthDuration/v2_depth_duration_MTurk/v2_DepthDuration_HTML.html#187,187,1366,768,1366,768,9-3-2022,9-9-58,33,depth_duration_stimuli/001052_2014-06-08_18-24-54_260595134347_rgbf000130-resize_1/001052_2014-06-08_18-24-54_260595134347_rgbf000130-resize_1-target.png,1000,4.1045,0.1,8987,998,meters,jsons/v1_VE1000_randls_2_rotated.json,1599697,2022024,56,Woman
33,101836,DepthScenes,duration_manipulation_targetAtFixation,jsons/v1_VE1000_randls_2_rotated.json,http://54.235.29.9/FacialAge/BNav_EC2/DepthDuration/v2_depth_duration_MTurk/v2_DepthDuration_HTML.html#187,187,1366,768,1366,768,9-3-2022,9-9-58,34,depth_duration_stimuli/002988_2014-06-15_12-24-20_094959634447_rgbf000150-resize_1/002988_2014-06-15_12-24-20_094959634447_rgbf000150-resize_1-target.png,1000,4.7669999999999995,0.1,5945,1000,meters,jsons/v1_VE1000_randls_2_rotated.json,1599697,2022024,56,Woman
34,101836,DepthScenes,duration_manipulation_targetAtFixation,jsons/v1_VE1000_randls_2_rotated.json,http://54.235.29.9/FacialAge/BNav_EC2/DepthDuration/v2_depth_duration_MTurk/v2_DepthDuration_HTML.html#187,187,1366,768,1366,768,9-3-2022,9-9-58,35,depth_duration_stimuli/000665_2014-06-09_20-42-35_260595134347_rgbf000110-resize_1/000665_2014-06-09_20-42-35_260595134347_rgbf000110-resize_1-target.png,1000,3.057,0.05,22345,999,meters,jsons/v1_VE1000_randls_2_rotated.json,1599697,2022024,56,Woman
35,101836,DepthScenes,duration_manipulation_targetAtFixation,jsons/v1_VE1000_randls_2_rotated.json,http://54.235.29.9/FacialAge/BNav_EC2/DepthDuration/v2_depth_duration_MTurk/v2_DepthDuration_HTML.html#187,187,1366,768,1366,768,9-3-2022,9-9-58,36,depth_duration_stimuli/001150_2014-06-17_15-27-34_260595134347_rgbf000108-resize_2/001150_2014-06-17_15-27-34_260595134347_rgbf000108-resize_2-target.png,1000,4.0325,0.3,7739,998,meters,jsons/v1_VE1000_randls_2_rotated.json,1599697,2022024,56,Woman
36,101836,DepthScenes,duration_manipulation_targetAtFixation,jsons/v1_VE1000_randls_2_rotated.json,http://54.235.29.9/FacialAge/BNav_EC2/DepthDuration/v2_depth_duration_MTurk/v2_DepthDuration_HTML.html#187,187,1366,768,1366,768,9-3-2022,9-9-58,37,depth_duration_stimuli/000137_2014-05-20_17-04-49_260595134347_rgbf000120-resize_1/000137_2014-05-20_17-04-49_260595134347_rgbf000120-resize_1-target.png,1000,3.786,0.5,15368,997,meters,jsons/v1_VE1000_randls_2_rotated.json,1599697,2022024,56,Woman
37,101836,DepthScenes,duration_manipulation_targetAtFixation,jsons/v1_VE1000_randls_2_rotated.json,http://54.235.29.9/FacialAge/BNav_EC2/DepthDuration/v2_depth_duration_MTurk/v2_DepthDuration_HTML.html#187,187,1366,768,1366,768,9-3-2022,9-9-58,38,depth_duration_stimuli/000736_2014-06-08_18-24-15_260595134347_rgbf000206-resize_3/000736_2014-06-08_18-24-15_260595134347_rgbf000206-resize_3-target.png,1000,3.515,0.5,5262,998,meters,jsons/v1_VE1000_randls_2_rotated.json,1599697,2022024,56,Woman
38,101836,DepthScenes,duration_manipulation_targetAtFixation,jsons/v1_VE1000_randls_2_rotated.json,http://54.235.29.9/FacialAge/BNav_EC2/DepthDuration/v2_depth_duration_MTurk/v2_DepthDuration_HTML.html#187,187,1366,768,1366,768,9-3-2022,9-9-58,39,depth_duration_stimuli/001235_2014-06-17_16-37-36_260595134347_rgbf000084-resize_4/001235_2014-06-17_16-37-36_260595134347_rgbf000084-resize_4-target.png,1000,3.6605,0.3,19694,999,meters,jsons/v1_VE1000_randls_2_rotated.json,1599697,2022024,56,Woman
39,101836,DepthScenes,duration_manipulation_targetAtFixation,jsons/v1_VE1000_randls_2_rotated.json,http://54.235.29.9/FacialAge/BNav_EC2/DepthDuration/v2_depth_duration_MTurk/v2_DepthDuration_HTML.html#187,187,1366,768,1366,768,9-3-2022,9-9-58,40,depth_duration_stimuli/000788_2014-06-08_22-34-36_260595134347_rgbf000131-resize_1/000788_2014-06-08_22-34-36_260595134347_rgbf000131-resize_1-target.png,1000,3.359,0.4,5674,998,meters,jsons/v1_VE1000_randls_2_rotated.json,1599697,2022024,56,Woman
40,101836,DepthScenes,duration_manipulation_targetAtFixation,jsons/v1_VE1000_randls_2_rotated.json,http://54.235.29.9/FacialAge/BNav_EC2/DepthDuration/v2_depth_duration_MTurk/v2_DepthDuration_HTML.html#187,187,1366,768,1366,768,9-3-2022,9-9-58,41,depth_duration_stimuli/002995_2014-06-15_12-31-26_094959634447_rgbf000150-resize_1/002995_2014-06-15_12-31-26_094959634447_rgbf000150-resize_1-target.png,1000,3.8360000000000003,0.5,13036,999,meters,jsons/v1_VE1000_randls_2_rotated.json,1599697,2022024,56,Woman
41,101836,DepthScenes,duration_manipulation_targetAtFixation,jsons/v1_VE1000_randls_2_rotated.json,http://54.235.29.9/FacialAge/BNav_EC2/DepthDuration/v2_depth_duration_MTurk/v2_DepthDuration_HTML.html#187,187,1366,768,1366,768,9-3-2022,9-9-58,42,depth_duration_stimuli/002748_2014-06-22_19-07-22_094959634447_rgbf000078-resize_1/002748_2014-06-22_19-07-22_094959634447_rgbf000078-resize_1-target.png,1000,4.6705,0.5,5496,998,meters,jsons/v1_VE1000_randls_2_rotated.json,1599697,2022024,56,Woman
42,101836,DepthScenes,duration_manipulation_targetAtFixation,jsons/v1_VE1000_randls_2_rotated.json,http://54.235.29.9/FacialAge/BNav_EC2/DepthDuration/v2_depth_duration_MTurk/v2_DepthDuration_HTML.html#187,187,1366,768,1366,768,9-3-2022,9-9-58,43,depth_duration_stimuli/000854_2014-06-09_19-43-13_260595134347_rgbf000066-resize_0/000854_2014-06-09_19-43-13_260595134347_rgbf000066-resize_0-target.png,1000,3.068,0.3,8118,1013,meters,jsons/v1_VE1000_randls_2_rotated.json,1599697,2022024,56,Woman
43,101836,DepthScenes,duration_manipulation_targetAtFixation,jsons/v1_VE1000_randls_2_rotated.json,http://54.235.29.9/FacialAge/BNav_EC2/DepthDuration/v2_depth_duration_MTurk/v2_DepthDuration_HTML.html#187,187,1366,768,1366,768,9-3-2022,9-9-58,44,depth_duration_stimuli/000758_2014-06-08_22-05-08_260595134347_rgbf000085-resize_0/000758_2014-06-08_22-05-08_260595134347_rgbf000085-resize_0-target.png,1000,3.3810000000000002,0.3,5678,998,meters,jsons/v1_VE1000_randls_2_rotated.json,1599697,2022024,56,Woman
44,101836,DepthScenes,duration_manipulation_targetAtFixation,jsons/v1_VE1000_randls_2_rotated.json,http://54.235.29.9/FacialAge/BNav_EC2/DepthDuration/v2_depth_duration_MTurk/v2_DepthDuration_HTML.html#187,187,1366,768,1366,768,9-3-2022,9-9-58,45,depth_duration_stimuli/001584_2014-06-20_11-07-43_260595134347_rgbf000002-resize_1/001584_2014-06-20_11-07-43_260595134347_rgbf000002-resize_1-target.png,1000,3.53,0.3,8046,1074,meters,jsons/v1_VE1000_randls_2_rotated.json,1599697,2022024,56,Woman
45,101836,DepthScenes,duration_manipulation_targetAtFixation,jsons/v1_VE1000_randls_2_rotated.json,http://54.235.29.9/FacialAge/BNav_EC2/DepthDuration/v2_depth_duration_MTurk/v2_DepthDuration_HTML.html#187,187,1366,768,1366,768,9-3-2022,9-9-58,46,depth_duration_stimuli/003621_2014-05-23_18-06-08_094959634447_rgbf000101-resize_1/003621_2014-05-23_18-06-08_094959634447_rgbf000101-resize_1-target.png,1000,3.9835,0.5,5605,998,meters,jsons/v1_VE1000_randls_2_rotated.json,1599697,2022024,56,Woman
46,101836,DepthScenes,duration_manipulation_targetAtFixation,jsons/v1_VE1000_randls_2_rotated.json,http://54.235.29.9/FacialAge/BNav_EC2/DepthDuration/v2_depth_duration_MTurk/v2_DepthDuration_HTML.html#187,187,1366,768,1366,768,9-3-2022,9-9-58,47,depth_duration_stimuli/000409_2014-06-04_19-23-33_260595134347_rgbf000067-resize_0/000409_2014-06-04_19-23-33_260595134347_rgbf000067-resize_0-target.png,1000,3.7335,0.3,10122,999,meters,jsons/v1_VE1000_randls_2_rotated.json,1599697,2022024,56,Woman
47,101836,DepthScenes,duration_manipulation_targetAtFixation,jsons/v1_VE1000_randls_2_rotated.json,http://54.235.29.9/FacialAge/BNav_EC2/DepthDuration/v2_depth_duration_MTurk/v2_DepthDuration_HTML.html#187,187,1366,768,1366,768,9-3-2022,9-9-58,48,depth_duration_stimuli/002663_2014-06-13_15-50-26_094959634447_rgbf000075-resize_1/002663_2014-06-13_15-50-26_094959634447_rgbf000075-resize_1-target.png,1000,4.7495,0.3,5760,997,meters,jsons/v1_VE1000_randls_2_rotated.json,1599697,2022024,56,Woman
48,101836,DepthScenes,duration_manipulation_targetAtFixation,jsons/v1_VE1000_randls_2_rotated.json,http://54.235.29.9/FacialAge/BNav_EC2/DepthDuration/v2_depth_duration_MTurk/v2_DepthDuration_HTML.html#187,187,1366,768,1366,768,9-3-2022,9-9-58,49,depth_duration_stimuli/001170_2014-06-17_15-43-44_260595134347_rgbf000096-resize_6/001170_2014-06-17_15-43-44_260595134347_rgbf000096-resize-original.jpg,1000,1.1909999999999998,0.0,12090,999,meters,jsons/v1_VE1000_randls_2_rotated.json,1599697,2022024,56,Woman
49,101836,DepthScenes,duration_manipulation_targetAtFixation,jsons/v1_VE1000_randls_2_rotated.json,http://54.235.29.9/FacialAge/BNav_EC2/DepthDuration/v2_depth_duration_MTurk/v2_DepthDuration_HTML.html#187,187,1366,768,1366,768,9-3-2022,9-9-58,50,depth_duration_stimuli/003079_2014-06-15_15-18-20_094959634447_rgbf000152-resize_8/003079_2014-06-15_15-18-20_094959634447_rgbf000152-resize_8-target.png,1000,2.8775,0.2,14000,999,meters,jsons/v1_VE1000_randls_2_rotated.json,1599697,2022024,56,Woman
50,101836,DepthScenes,duration_manipulation_targetAtFixation,jsons/v1_VE1000_randls_2_rotated.json,http://54.235.29.9/FacialAge/BNav_EC2/DepthDuration/v2_depth_duration_MTurk/v2_DepthDuration_HTML.html#187,187,1366,768,1366,768,9-3-2022,9-9-58,51,depth_duration_stimuli/000506_2014-06-08_23-21-00_260595134347_rgbf000070-resize_7/000506_2014-06-08_23-21-00_260595134347_rgbf000070-resize_7-target.png,1000,4.0585,0.3,7888,1024,meters,jsons/v1_VE1000_randls_2_rotated.json,1599697,2022024,56,Woman
51,101836,DepthScenes,duration_manipulation_targetAtFixation,jsons/v1_VE1000_randls_2_rotated.json,http://54.235.29.9/FacialAge/BNav_EC2/DepthDuration/v2_depth_duration_MTurk/v2_DepthDuration_HTML.html#187,187,1366,768,1366,768,9-3-2022,9-9-58,52,depth_duration_stimuli/001617_2014-06-20_11-35-32_260595134347_rgbf000066-resize_1/001617_2014-06-20_11-35-32_260595134347_rgbf000066-resize_1-target.png,1000,3.7910000000000004,0.2,23105,975,meters,jsons/v1_VE1000_randls_2_rotated.json,1599697,2022024,56,Woman
52,101836,DepthScenes,duration_manipulation_targetAtFixation,jsons/v1_VE1000_randls_2_rotated.json,http://54.235.29.9/FacialAge/BNav_EC2/DepthDuration/v2_depth_duration_MTurk/v2_DepthDuration_HTML.html#187,187,1366,768,1366,768,9-3-2022,9-9-58,53,depth_duration_stimuli/001806_2014-06-26_20-50-20_260595134347_rgbf000091-resize_1/001806_2014-06-26_20-50-20_260595134347_rgbf000091-resize_1-target.png,1000,2.7305,0.4,5380,999,meters,jsons/v1_VE1000_randls_2_rotated.json,1599697,2022024,56,Woman
53,101836,DepthScenes,duration_manipulation_targetAtFixation,jsons/v1_VE1000_randls_2_rotated.json,http://54.235.29.9/FacialAge/BNav_EC2/DepthDuration/v2_depth_duration_MTurk/v2_DepthDuration_HTML.html#187,187,1366,768,1366,768,9-3-2022,9-9-58,54,depth_duration_stimuli/000709_2014-06-08_13-51-55_260595134347_rgbf000068-resize_3/000709_2014-06-08_13-51-55_260595134347_rgbf000068-resize_3-target.png,1000,1.8030000000000002,0.2,11292,998,meters,jsons/v1_VE1000_randls_2_rotated.json,1599697,2022024,56,Woman
54,101836,DepthScenes,duration_manipulation_targetAtFixation,jsons/v1_VE1000_randls_2_rotated.json,http://54.235.29.9/FacialAge/BNav_EC2/DepthDuration/v2_depth_duration_MTurk/v2_DepthDuration_HTML.html#187,187,1366,768,1366,768,9-3-2022,9-9-58,55,depth_duration_stimuli/002057_2014-06-24_21-00-13_260595134347_rgbf000120-resize_1/002057_2014-06-24_21-00-13_260595134347_rgbf000120-resize_1-target.png,1000,2.967,0.3,5863,999,meters,jsons/v1_VE1000_randls_2_rotated.json,1599697,2022024,56,Woman
55,101836,DepthScenes,duration_manipulation_targetAtFixation,jsons/v1_VE1000_randls_2_rotated.json,http://54.235.29.9/FacialAge/BNav_EC2/DepthDuration/v2_depth_duration_MTurk/v2_DepthDuration_HTML.html#187,187,1366,768,1366,768,9-3-2022,9-9-58,56,depth_duration_stimuli/001032_2014-06-08_13-23-17_260595134347_rgbf000021-resize_3/001032_2014-06-08_13-23-17_260595134347_rgbf000021-resize_3-target.png,1000,3.2725,0.3,7486,1000,meters,jsons/v1_VE1000_randls_2_rotated.json,1599697,2022024,56,Woman
56,101836,DepthScenes,duration_manipulation_targetAtFixation,jsons/v1_VE1000_randls_2_rotated.json,http://54.235.29.9/FacialAge/BNav_EC2/DepthDuration/v2_depth_duration_MTurk/v2_DepthDuration_HTML.html#187,187,1366,768,1366,768,9-3-2022,9-9-58,57,depth_duration_stimuli/001059_2014-06-08_21-53-27_260595134347_rgbf000061-resize_4/001059_2014-06-08_21-53-27_260595134347_rgbf000061-resize_4-target.png,1000,2.4185,0.2,5617,999,meters,jsons/v1_VE1000_randls_2_rotated.json,1599697,2022024,56,Woman
57,101836,DepthScenes,duration_manipulation_targetAtFixation,jsons/v1_VE1000_randls_2_rotated.json,http://54.235.29.9/FacialAge/BNav_EC2/DepthDuration/v2_depth_duration_MTurk/v2_DepthDuration_HTML.html#187,187,1366,768,1366,768,9-3-2022,9-9-58,58,depth_duration_stimuli/001094_2014-06-15_17-36-00_260595134347_rgbf000205-resize_0/001094_2014-06-15_17-36-00_260595134347_rgbf000205-resize_0-target.png,1000,4.2175,0.3,8823,998,meters,jsons/v1_VE1000_randls_2_rotated.json,1599697,2022024,56,Woman
58,101836,DepthScenes,duration_manipulation_targetAtFixation,jsons/v1_VE1000_randls_2_rotated.json,http://54.235.29.9/FacialAge/BNav_EC2/DepthDuration/v2_depth_duration_MTurk/v2_DepthDuration_HTML.html#187,187,1366,768,1366,768,9-3-2022,9-9-58,59,depth_duration_stimuli/000692_2014-06-08_13-09-42_260595134347_rgbf000199-resize_2/000692_2014-06-08_13-09-42_260595134347_rgbf000199-resize_2-target.png,1000,3.661,0.2,5535,999,meters,jsons/v1_VE1000_randls_2_rotated.json,1599697,2022024,56,Woman
59,101836,DepthScenes,duration_manipulation_targetAtFixation,jsons/v1_VE1000_randls_2_rotated.json,http://54.235.29.9/FacialAge/BNav_EC2/DepthDuration/v2_depth_duration_MTurk/v2_DepthDuration_HTML.html#187,187,1366,768,1366,768,9-3-2022,9-9-58,60,depth_duration_stimuli/002344_2014-06-28_20-06-29_260595134347_rgbf000030-resize_1/002344_2014-06-28_20-06-29_260595134347_rgbf000030-resize_1-target.png,1000,1.5795,0.2,12378,998,meters,jsons/v1_VE1000_randls_2_rotated.json,1599697,2022024,56,Woman
60,101836,DepthScenes,duration_manipulation_targetAtFixation,jsons/v1_VE1000_randls_2_rotated.json,http://54.235.29.9/FacialAge/BNav_EC2/DepthDuration/v2_depth_duration_MTurk/v2_DepthDuration_HTML.html#187,187,1366,768,1366,768,9-3-2022,9-9-58,61,depth_duration_stimuli/002725_2014-06-22_11-47-51_094959634447_rgbf000070-resize_1/002725_2014-06-22_11-47-51_094959634447_rgbf000070-resize_1-target.png,1000,2.195,0.0,18496,996,meters,jsons/v1_VE1000_randls_2_rotated.json,1599697,2022024,56,Woman
61,101836,DepthScenes,duration_manipulation_targetAtFixation,jsons/v1_VE1000_randls_2_rotated.json,http://54.235.29.9/FacialAge/BNav_EC2/DepthDuration/v2_depth_duration_MTurk/v2_DepthDuration_HTML.html#187,187,1366,768,1366,768,9-3-2022,9-9-58,62,depth_duration_stimuli/000635_2014-06-08_16-38-42_260595134347_rgbf000106-resize_1/000635_2014-06-08_16-38-42_260595134347_rgbf000106-resize_1-target.png,1000,2.074,0.2,15003,999,meters,jsons/v1_VE1000_randls_2_rotated.json,1599697,2022024,56,Woman
62,101836,DepthScenes,duration_manipulation_targetAtFixation,jsons/v1_VE1000_randls_2_rotated.json,http://54.235.29.9/FacialAge/BNav_EC2/DepthDuration/v2_depth_duration_MTurk/v2_DepthDuration_HTML.html#187,187,1366,768,1366,768,9-3-2022,9-9-58,63,depth_duration_stimuli/002279_2014-06-28_18-55-32_260595134347_rgbf000040-resize_5/002279_2014-06-28_18-55-32_260595134347_rgbf000040-resize_5-target.png,1000,1.5043333333333,0.3,8312,1000,meters,jsons/v1_VE1000_randls_2_rotated.json,1599697,2022024,56,Woman
63,101836,DepthScenes,duration_manipulation_targetAtFixation,jsons/v1_VE1000_randls_2_rotated.json,http://54.235.29.9/FacialAge/BNav_EC2/DepthDuration/v2_depth_duration_MTurk/v2_DepthDuration_HTML.html#187,187,1366,768,1366,768,9-3-2022,9-9-58,64,depth_duration_stimuli/001828_2014-06-26_21-40-03_260595134347_rgbf000024-resize_0/001828_2014-06-26_21-40-03_260595134347_rgbf000024-resize_0-target.png,1000,4.8260000000000005,0.3,24223,999,meters,jsons/v1_VE1000_randls_2_rotated.json,1599697,2022024,56,Woman
64,101836,DepthScenes,duration_manipulation_targetAtFixation,jsons/v1_VE1000_randls_2_rotated.json,http://54.235.29.9/FacialAge/BNav_EC2/DepthDuration/v2_depth_duration_MTurk/v2_DepthDuration_HTML.html#187,187,1366,768,1366,768,9-3-2022,9-9-58,65,depth_duration_stimuli/000009_2014-05-26_14-32-05_260595134347_rgbf000034-resize_3/000009_2014-05-26_14-32-05_260595134347_rgbf000034-resize_3-target.png,1000,3.8715,0.2,5454,1025,meters,jsons/v1_VE1000_randls_2_rotated.json,1599697,2022024,56,Woman
65,101836,DepthScenes,duration_manipulation_targetAtFixation,jsons/v1_VE1000_randls_2_rotated.json,http://54.235.29.9/FacialAge/BNav_EC2/DepthDuration/v2_depth_duration_MTurk/v2_DepthDuration_HTML.html#187,187,1366,768,1366,768,9-3-2022,9-9-58,66,depth_duration_stimuli/001540_2014-06-20_17-01-05_260595134347_rgbf000086-resize_2/001540_2014-06-20_17-01-05_260595134347_rgbf000086-resize-original.jpg,1000,1.459,0.0,16775,999,meters,jsons/v1_VE1000_randls_2_rotated.json,1599697,2022024,56,Woman
66,101836,DepthScenes,duration_manipulation_targetAtFixation,jsons/v1_VE1000_randls_2_rotated.json,http://54.235.29.9/FacialAge/BNav_EC2/DepthDuration/v2_depth_duration_MTurk/v2_DepthDuration_HTML.html#187,187,1366,768,1366,768,9-3-2022,9-9-58,67,depth_duration_stimuli/003228_2014-05-14_13-42-35_094959634447_rgbf000101-resize_1/003228_2014-05-14_13-42-35_094959634447_rgbf000101-resize_1-target.png,1000,1.9680000000000002,0.3,13144,998,meters,jsons/v1_VE1000_randls_2_rotated.json,1599697,2022024,56,Woman
67,101836,DepthScenes,duration_manipulation_targetAtFixation,jsons/v1_VE1000_randls_2_rotated.json,http://54.235.29.9/FacialAge/BNav_EC2/DepthDuration/v2_depth_duration_MTurk/v2_DepthDuration_HTML.html#187,187,1366,768,1366,768,9-3-2022,9-9-58,68,depth_duration_stimuli/002600_2014-06-24_14-27-04_094959634447_rgbf000074-resize_2/002600_2014-06-24_14-27-04_094959634447_rgbf000074-resize_2-target.png,1000,2.7575,0.2,6060,1103,meters,jsons/v1_VE1000_randls_2_rotated.json,1599697,2022024,56,Woman
68,101836,DepthScenes,duration_manipulation_targetAtFixation,jsons/v1_VE1000_randls_2_rotated.json,http://54.235.29.9/FacialAge/BNav_EC2/DepthDuration/v2_depth_duration_MTurk/v2_DepthDuration_HTML.html#187,187,1366,768,1366,768,9-3-2022,9-9-58,69,depth_duration_stimuli/003490_2014-05-21_15-50-11_094959634447_rgbf000101-resize_3/003490_2014-05-21_15-50-11_094959634447_rgbf000101-resize_3-target.png,1000,3.6445,0.3,10170,999,meters,jsons/v1_VE1000_randls_2_rotated.json,1599697,2022024,56,Woman
69,101836,DepthScenes,duration_manipulation_targetAtFixation,jsons/v1_VE1000_randls_2_rotated.json,http://54.235.29.9/FacialAge/BNav_EC2/DepthDuration/v2_depth_duration_MTurk/v2_DepthDuration_HTML.html#187,187,1366,768,1366,768,9-3-2022,9-9-58,70,depth_duration_stimuli/001175_2014-06-17_15-45-55_260595134347_rgbf000129-resize_4/001175_2014-06-17_15-45-55_260595134347_rgbf000129-resize_4-target.png,1000,4.255,0.3,5548,998,meters,jsons/v1_VE1000_randls_2_rotated.json,1599697,2022024,56,Woman
70,101836,DepthScenes,duration_manipulation_targetAtFixation,jsons/v1_VE1000_randls_2_rotated.json,http://54.235.29.9/FacialAge/BNav_EC2/DepthDuration/v2_depth_duration_MTurk/v2_DepthDuration_HTML.html#187,187,1366,768,1366,768,9-3-2022,9-9-58,71,depth_duration_stimuli/000749_2014-06-08_21-55-06_260595134347_rgbf000070-resize_2/000749_2014-06-08_21-55-06_260595134347_rgbf000070-resize_2-target.png,1000,2.331,0.2,13487,997,meters,jsons/v1_VE1000_randls_2_rotated.json,1599697,2022024,56,Woman
71,101836,DepthScenes,duration_manipulation_targetAtFixation,jsons/v1_VE1000_randls_2_rotated.json,http://54.235.29.9/FacialAge/BNav_EC2/DepthDuration/v2_depth_duration_MTurk/v2_DepthDuration_HTML.html#187,187,1366,768,1366,768,9-3-2022,9-9-58,72,depth_duration_stimuli/002788_2014-06-22_19-36-03_094959634447_rgbf000088-resize_2/002788_2014-06-22_19-36-03_094959634447_rgbf000088-resize_2-target.png,1000,1.6465,0.3,8578,1004,meters,jsons/v1_VE1000_randls_2_rotated.json,1599697,2022024,56,Woman
72,101836,DepthScenes,duration_manipulation_targetAtFixation,jsons/v1_VE1000_randls_2_rotated.json,http://54.235.29.9/FacialAge/BNav_EC2/DepthDuration/v2_depth_duration_MTurk/v2_DepthDuration_HTML.html#187,187,1366,768,1366,768,9-3-2022,9-9-58,73,depth_duration_stimuli/002199_2014-06-28_18-33-56_260595134347_rgbf000074-resize_0/002199_2014-06-28_18-33-56_260595134347_rgbf000074-resize_0-target.png,1000,1.996,0.2,10259,998,meters,jsons/v1_VE1000_randls_2_rotated.json,1599697,2022024,56,Woman
73,101836,DepthScenes,duration_manipulation_targetAtFixation,jsons/v1_VE1000_randls_2_rotated.json,http://54.235.29.9/FacialAge/BNav_EC2/DepthDuration/v2_depth_duration_MTurk/v2_DepthDuration_HTML.html#187,187,1366,768,1366,768,9-3-2022,9-9-58,74,depth_duration_stimuli/001056_2014-06-08_18-46-44_260595134347_rgbf000068-resize_0/001056_2014-06-08_18-46-44_260595134347_rgbf000068-resize_0-target.png,1000,2.6625,0.3,7611,941,meters,jsons/v1_VE1000_randls_2_rotated.json,1599697,2022024,56,Woman
74,101836,DepthScenes,duration_manipulation_targetAtFixation,jsons/v1_VE1000_randls_2_rotated.json,http://54.235.29.9/FacialAge/BNav_EC2/DepthDuration/v2_depth_duration_MTurk/v2_DepthDuration_HTML.html#187,187,1366,768,1366,768,9-3-2022,9-9-58,75,depth_duration_stimuli/001571_2014-06-20_17-21-32_260595134347_rgbf000089-resize_1/001571_2014-06-20_17-21-32_260595134347_rgbf000089-resize_1-target.png,1000,1.86,0.2,20993,998,meters,jsons/v1_VE1000_randls_2_rotated.json,1599697,2022024,56,Woman
75,101836,DepthScenes,duration_manipulation_targetAtFixation,jsons/v1_VE1000_randls_2_rotated.json,http://54.235.29.9/FacialAge/BNav_EC2/DepthDuration/v2_depth_duration_MTurk/v2_DepthDuration_HTML.html#187,187,1366,768,1366,768,9-3-2022,9-9-58,76,depth_duration_stimuli/002272_2014-06-28_18-53-56_260595134347_rgbf000067-resize_2/002272_2014-06-28_18-53-56_260595134347_rgbf000067-resize_2-target.png,1000,1.138,0.2,8452,998,meters,jsons/v1_VE1000_randls_2_rotated.json,1599697,2022024,56,Woman
76,101836,DepthScenes,duration_manipulation_targetAtFixation,jsons/v1_VE1000_randls_2_rotated.json,http://54.235.29.9/FacialAge/BNav_EC2/DepthDuration/v2_depth_duration_MTurk/v2_DepthDuration_HTML.html#187,187,1366,768,1366,768,9-3-2022,9-9-58,77,depth_duration_stimuli/003587_2014-05-23_16-48-02_094959634447_rgbf002384-resize_2/003587_2014-05-23_16-48-02_094959634447_rgbf002384-resize_2-target.png,1000,1.357,0.2,16962,997,meters,jsons/v1_VE1000_randls_2_rotated.json,1599697,2022024,56,Woman
77,101836,DepthScenes,duration_manipulation_targetAtFixation,jsons/v1_VE1000_randls_2_rotated.json,http://54.235.29.9/FacialAge/BNav_EC2/DepthDuration/v2_depth_duration_MTurk/v2_DepthDuration_HTML.html#187,187,1366,768,1366,768,9-3-2022,9-9-58,78,depth_duration_stimuli/001167_2014-06-17_15-38-07_260595134347_rgbf000108-resize_0/001167_2014-06-17_15-38-07_260595134347_rgbf000108-resize_0-target.png,1000,1.8505,0.3,7162,997,meters,jsons/v1_VE1000_randls_2_rotated.json,1599697,2022024,56,Woman
78,101836,DepthScenes,duration_manipulation_targetAtFixation,jsons/v1_VE1000_randls_2_rotated.json,http://54.235.29.9/FacialAge/BNav_EC2/DepthDuration/v2_depth_duration_MTurk/v2_DepthDuration_HTML.html#187,187,1366,768,1366,768,9-3-2022,9-9-58,79,depth_duration_stimuli/001650_2014-06-20_12-09-00_260595134347_rgbf000087-resize_3/001650_2014-06-20_12-09-00_260595134347_rgbf000087-resize_3-target.png,1000,1.9505,0.2,12351,999,meters,jsons/v1_VE1000_randls_2_rotated.json,1599697,2022024,56,Woman
79,101836,DepthScenes,duration_manipulation_targetAtFixation,jsons/v1_VE1000_randls_2_rotated.json,http://54.235.29.9/FacialAge/BNav_EC2/DepthDuration/v2_depth_duration_MTurk/v2_DepthDuration_HTML.html#187,187,1366,768,1366,768,9-3-2022,9-9-58,80,depth_duration_stimuli/000682_2014-06-08_23-14-58_260595134347_rgbf000041-resize_5/000682_2014-06-08_23-14-58_260595134347_rgbf000041-resize_5-target.png,1000,2.7239999999999998,0.2,6748,998,meters,jsons/v1_VE1000_randls_2_rotated.json,1599697,2022024,56,Woman
80,101836,DepthScenes,duration_manipulation_targetAtFixation,jsons/v1_VE1000_randls_2_rotated.json,http://54.235.29.9/FacialAge/BNav_EC2/DepthDuration/v2_depth_duration_MTurk/v2_DepthDuration_HTML.html#187,187,1366,768,1366,768,9-3-2022,9-9-58,81,depth_duration_stimuli/002323_2014-06-28_20-01-54_260595134347_rgbf000051-resize_4/002323_2014-06-28_20-01-54_260595134347_rgbf000051-resize_4-target.png,1000,3.7310000000000003,0.3,12114,848,meters,jsons/v1_VE1000_randls_2_rotated.json,1599697,2022024,56,Woman
81,101836,DepthScenes,duration_manipulation_targetAtFixation,jsons/v1_VE1000_randls_2_rotated.json,http://54.235.29.9/FacialAge/BNav_EC2/DepthDuration/v2_depth_duration_MTurk/v2_DepthDuration_HTML.html#187,187,1366,768,1366,768,9-3-2022,9-9-58,82,depth_duration_stimuli/000917_2014-06-09_22-45-29_260595134347_rgbf000149-resize_3/000917_2014-06-09_22-45-29_260595134347_rgbf000149-resize_3-target.png,1000,4.1865,0.2,5444,1000,meters,jsons/v1_VE1000_randls_2_rotated.json,1599697,2022024,56,Woman
82,101836,DepthScenes,duration_manipulation_targetAtFixation,jsons/v1_VE1000_randls_2_rotated.json,http://54.235.29.9/FacialAge/BNav_EC2/DepthDuration/v2_depth_duration_MTurk/v2_DepthDuration_HTML.html#187,187,1366,768,1366,768,9-3-2022,9-9-58,83,depth_duration_stimuli/001447_2014-06-19_17-00-32_260595134347_rgbf000082-resize_5/001447_2014-06-19_17-00-32_260595134347_rgbf000082-resize_5-target.png,1000,4.13775,0.3,5959,999,meters,jsons/v1_VE1000_randls_2_rotated.json,1599697,2022024,56,Woman
83,101836,DepthScenes,duration_manipulation_targetAtFixation,jsons/v1_VE1000_randls_2_rotated.json,http://54.235.29.9/FacialAge/BNav_EC2/DepthDuration/v2_depth_duration_MTurk/v2_DepthDuration_HTML.html#187,187,1366,768,1366,768,9-3-2022,9-9-58,84,depth_duration_stimuli/000447_2014-06-08_16-15-46_260595134347_rgbf000130-resize_1/000447_2014-06-08_16-15-46_260595134347_rgbf000130-resize_1-target.png,1000,4.479,0.3,20154,999,meters,jsons/v1_VE1000_randls_2_rotated.json,1599697,2022024,56,Woman
84,101836,DepthScenes,duration_manipulation_targetAtFixation,jsons/v1_VE1000_randls_2_rotated.json,http://54.235.29.9/FacialAge/BNav_EC2/DepthDuration/v2_depth_duration_MTurk/v2_DepthDuration_HTML.html#187,187,1366,768,1366,768,9-3-2022,9-9-58,85,depth_duration_stimuli/002425_2014-06-28_20-27-29_260595134347_rgbf000031-resize_8/002425_2014-06-28_20-27-29_260595134347_rgbf000031-resize_8-target.png,1000,3.8960000000000004,0.2,9967,998,meters,jsons/v1_VE1000_randls_2_rotated.json,1599697,2022024,56,Woman
85,101836,DepthScenes,duration_manipulation_targetAtFixation,jsons/v1_VE1000_randls_2_rotated.json,http://54.235.29.9/FacialAge/BNav_EC2/DepthDuration/v2_depth_duration_MTurk/v2_DepthDuration_HTML.html#187,187,1366,768,1366,768,9-3-2022,9-9-58,86,depth_duration_stimuli/000642_2014-06-08_16-59-25_260595134347_rgbf000098-resize_2/000642_2014-06-08_16-59-25_260595134347_rgbf000098-resize_2-target.png,1000,2.8815,0.3,7326,997,meters,jsons/v1_VE1000_randls_2_rotated.json,1599697,2022024,56,Woman
86,101836,DepthScenes,duration_manipulation_targetAtFixation,jsons/v1_VE1000_randls_2_rotated.json,http://54.235.29.9/FacialAge/BNav_EC2/DepthDuration/v2_depth_duration_MTurk/v2_DepthDuration_HTML.html#187,187,1366,768,1366,768,9-3-2022,9-9-58,87,depth_duration_stimuli/000103_2014-05-14_22-01-17_260595134347_rgbf000152-resize_5/000103_2014-05-14_22-01-17_260595134347_rgbf000152-resize_5-target.png,1000,1.993,0.3,9017,999,meters,jsons/v1_VE1000_randls_2_rotated.json,1599697,2022024,56,Woman
87,101836,DepthScenes,duration_manipulation_targetAtFixation,jsons/v1_VE1000_randls_2_rotated.json,http://54.235.29.9/FacialAge/BNav_EC2/DepthDuration/v2_depth_duration_MTurk/v2_DepthDuration_HTML.html#187,187,1366,768,1366,768,9-3-2022,9-9-58,88,depth_duration_stimuli/001555_2014-06-20_17-12-10_260595134347_rgbf000065-resize_4/001555_2014-06-20_17-12-10_260595134347_rgbf000065-resize_4-target.png,1000,1.633,0.2,7763,997,meters,jsons/v1_VE1000_randls_2_rotated.json,1599697,2022024,56,Woman
88,101836,DepthScenes,duration_manipulation_targetAtFixation,jsons/v1_VE1000_randls_2_rotated.json,http://54.235.29.9/FacialAge/BNav_EC2/DepthDuration/v2_depth_duration_MTurk/v2_DepthDuration_HTML.html#187,187,1366,768,1366,768,9-3-2022,9-9-58,89,depth_duration_stimuli/003048_2014-06-15_13-49-43_094959634447_rgbf000150-resize_1/003048_2014-06-15_13-49-43_094959634447_rgbf000150-resize_1-target.png,1000,4.0035,0.3,10139,999,meters,jsons/v1_VE1000_randls_2_rotated.json,1599697,2022024,56,Woman
89,101836,DepthScenes,duration_manipulation_targetAtFixation,jsons/v1_VE1000_randls_2_rotated.json,http://54.235.29.9/FacialAge/BNav_EC2/DepthDuration/v2_depth_duration_MTurk/v2_DepthDuration_HTML.html#187,187,1366,768,1366,768,9-3-2022,9-9-58,90,depth_duration_stimuli/002043_2014-06-24_20-29-38_260595134347_rgbf000039-resize_4/002043_2014-06-24_20-29-38_260595134347_rgbf000039-resize_4-target.png,1000,2.8435,0.3,16198,999,meters,jsons/v1_VE1000_randls_2_rotated.json,1599697,2022024,56,Woman
90,101836,DepthScenes,duration_manipulation_targetAtFixation,jsons/v1_VE1000_randls_2_rotated.json,http://54.235.29.9/FacialAge/BNav_EC2/DepthDuration/v2_depth_duration_MTurk/v2_DepthDuration_HTML.html#187,187,1366,768,1366,768,9-3-2022,9-9-58,91,depth_duration_stimuli/002758_2014-06-22_19-11-20_094959634447_rgbf000128-resize_1/002758_2014-06-22_19-11-20_094959634447_rgbf000128-resize_1-target.png,1000,2.555,0.3,10515,999,meters,jsons/v1_VE1000_randls_2_rotated.json,1599697,2022024,56,Woman
91,101836,DepthScenes,duration_manipulation_targetAtFixation,jsons/v1_VE1000_randls_2_rotated.json,http://54.235.29.9/FacialAge/BNav_EC2/DepthDuration/v2_depth_duration_MTurk/v2_DepthDuration_HTML.html#187,187,1366,768,1366,768,9-3-2022,9-9-58,92,depth_duration_stimuli/002630_2014-06-24_14-47-50_094959634447_rgbf000055-resize_1/002630_2014-06-24_14-47-50_094959634447_rgbf000055-resize_1-target.png,1000,3.0095,0.3,6908,998,meters,jsons/v1_VE1000_randls_2_rotated.json,1599697,2022024,56,Woman
92,101836,DepthScenes,duration_manipulation_targetAtFixation,jsons/v1_VE1000_randls_2_rotated.json,http://54.235.29.9/FacialAge/BNav_EC2/DepthDuration/v2_depth_duration_MTurk/v2_DepthDuration_HTML.html#187,187,1366,768,1366,768,9-3-2022,9-9-58,93,depth_duration_stimuli/003495_2014-05-21_16-01-51_094959634447_rgbf000100-resize_3/003495_2014-05-21_16-01-51_094959634447_rgbf000100-resize_3-target.png,1000,1.6255,0.2,9453,998,meters,jsons/v1_VE1000_randls_2_rotated.json,1599697,2022024,56,Woman
93,101836,DepthScenes,duration_manipulation_targetAtFixation,jsons/v1_VE1000_randls_2_rotated.json,http://54.235.29.9/FacialAge/BNav_EC2/DepthDuration/v2_depth_duration_MTurk/v2_DepthDuration_HTML.html#187,187,1366,768,1366,768,9-3-2022,9-9-58,94,depth_duration_stimuli/001244_2014-06-17_16-47-45_260595134347_rgbf000030-resize_4/001244_2014-06-17_16-47-45_260595134347_rgbf000030-resize_4-target.png,1000,2.0425,0.3,6453,998,meters,jsons/v1_VE1000_randls_2_rotated.json,1599697,2022024,56,Woman
94,101836,DepthScenes,duration_manipulation_targetAtFixation,jsons/v1_VE1000_randls_2_rotated.json,http://54.235.29.9/FacialAge/BNav_EC2/DepthDuration/v2_depth_duration_MTurk/v2_DepthDuration_HTML.html#187,187,1366,768,1366,768,9-3-2022,9-9-58,95,depth_duration_stimuli/002639_2014-06-24_14-51-37_094959634447_rgbf000074-resize_4/002639_2014-06-24_14-51-37_094959634447_rgbf000074-resize_4-target.png,1000,4.0375,0.3,12440,997,meters,jsons/v1_VE1000_randls_2_rotated.json,1599697,2022024,56,Woman
95,101836,DepthScenes,duration_manipulation_targetAtFixation,jsons/v1_VE1000_randls_2_rotated.json,http://54.235.29.9/FacialAge/BNav_EC2/DepthDuration/v2_depth_duration_MTurk/v2_DepthDuration_HTML.html#187,187,1366,768,1366,768,9-3-2022,9-9-58,96,depth_duration_stimuli/003292_2014-05-14_21-53-49_094959634447_rgbf000100-resize_2/003292_2014-05-14_21-53-49_094959634447_rgbf000100-resize_2-target.png,1000,3.4815,0.3,6614,999,meters,jsons/v1_VE1000_randls_2_rotated.json,1599697,2022024,56,Woman
96,101836,DepthScenes,duration_manipulation_targetAtFixation,jsons/v1_VE1000_randls_2_rotated.json,http://54.235.29.9/FacialAge/BNav_EC2/DepthDuration/v2_depth_duration_MTurk/v2_DepthDuration_HTML.html#187,187,1366,768,1366,768,9-3-2022,9-9-58,97,depth_duration_stimuli/000457_2014-06-08_16-52-43_260595134347_rgbf000199-resize_1/000457_2014-06-08_16-52-43_260595134347_rgbf000199-resize_1-target.png,1000,3.6489999999999996,0.3,9519,998,meters,jsons/v1_VE1000_randls_2_rotated.json,1599697,2022024,56,Woman
97,101836,DepthScenes,duration_manipulation_targetAtFixation,jsons/v1_VE1000_randls_2_rotated.json,http://54.235.29.9/FacialAge/BNav_EC2/DepthDuration/v2_depth_duration_MTurk/v2_DepthDuration_HTML.html#187,187,1366,768,1366,768,9-3-2022,9-9-58,98,depth_duration_stimuli/000929_2014-06-09_16-33-19_260595134347_rgbf000139-resize_0/000929_2014-06-09_16-33-19_260595134347_rgbf000139-resize_0-target.png,1000,2.8680000000000003,0.3,5531,998,meters,jsons/v1_VE1000_randls_2_rotated.json,1599697,2022024,56,Woman
98,101836,DepthScenes,duration_manipulation_targetAtFixation,jsons/v1_VE1000_randls_2_rotated.json,http://54.235.29.9/FacialAge/BNav_EC2/DepthDuration/v2_depth_duration_MTurk/v2_DepthDuration_HTML.html#187,187,1366,768,1366,768,9-3-2022,9-9-58,99,depth_duration_stimuli/001222_2014-06-17_16-24-06_260595134347_rgbf000073-resize_0/001222_2014-06-17_16-24-06_260595134347_rgbf000073-resize-original.jpg,1000,1.4385,0.0,6615,999,meters,jsons/v1_VE1000_randls_2_rotated.json,1599697,2022024,56,Woman
99,101836,DepthScenes,duration_manipulation_targetAtFixation,jsons/v1_VE1000_randls_2_rotated.json,http://54.235.29.9/FacialAge/BNav_EC2/DepthDuration/v2_depth_duration_MTurk/v2_DepthDuration_HTML.html#187,187,1366,768,1366,768,9-3-2022,9-9-58,100,depth_duration_stimuli/003338_2014-05-20_11-01-23_094959634447_rgbf000051-resize_6/003338_2014-05-20_11-01-23_094959634447_rgbf000051-resize_6-target.png,1000,1.693,0.4,7271,998,meters,jsons/v1_VE1000_randls_2_rotated.json,1599697,2022024,56,Woman
100,101836,DepthScenes,duration_manipulation_targetAtFixation,jsons/v1_VE1000_randls_2_rotated.json,http://54.235.29.9/FacialAge/BNav_EC2/DepthDuration/v2_depth_duration_MTurk/v2_DepthDuration_HTML.html#187,187,1366,768,1366,768,9-3-2022,9-9-58,101,depth_duration_stimuli/002509_2014-06-24_13-19-22_094959634447_rgbf000077-resize_0/002509_2014-06-24_13-19-22_094959634447_rgbf000077-resize_0-target.png,1000,1.3065,0.2,5131,1000,meters,jsons/v1_VE1000_randls_2_rotated.json,1599697,2022024,56,Woman
101,101836,DepthScenes,duration_manipulation_targetAtFixation,jsons/v1_VE1000_randls_2_rotated.json,http://54.235.29.9/FacialAge/BNav_EC2/DepthDuration/v2_depth_duration_MTurk/v2_DepthDuration_HTML.html#187,187,1366,768,1366,768,9-3-2022,9-9-58,102,depth_duration_stimuli/002750_2014-06-22_19-08-03_094959634447_rgbf000094-resize_4/002750_2014-06-22_19-08-03_094959634447_rgbf000094-resize_4-target.png,1000,2.354,0.2,9861,1011,meters,jsons/v1_VE1000_randls_2_rotated.json,1599697,2022024,56,Woman
102,101836,DepthScenes,duration_manipulation_targetAtFixation,jsons/v1_VE1000_randls_2_rotated.json,http://54.235.29.9/FacialAge/BNav_EC2/DepthDuration/v2_depth_duration_MTurk/v2_DepthDuration_HTML.html#187,187,1366,768,1366,768,9-3-2022,9-9-58,103,depth_duration_stimuli/002549_2014-06-24_13-41-39_094959634447_rgbf000022-resize_3/002549_2014-06-24_13-41-39_094959634447_rgbf000022-resize_3-target.png,1000,1.476,0.2,7695,1000,meters,jsons/v1_VE1000_randls_2_rotated.json,1599697,2022024,56,Woman
103,101836,DepthScenes,duration_manipulation_targetAtFixation,jsons/v1_VE1000_randls_2_rotated.json,http://54.235.29.9/FacialAge/BNav_EC2/DepthDuration/v2_depth_duration_MTurk/v2_DepthDuration_HTML.html#187,187,1366,768,1366,768,9-3-2022,9-9-58,104,depth_duration_stimuli/000483_2014-06-09_20-41-45_260595134347_rgbf000116-resize_4/000483_2014-06-09_20-41-45_260595134347_rgbf000116-resize_4-target.png,1000,1.337,0.3,10847,999,meters,jsons/v1_VE1000_randls_2_rotated.json,1599697,2022024,56,Woman
104,101836,DepthScenes,duration_manipulation_targetAtFixation,jsons/v1_VE1000_randls_2_rotated.json,http://54.235.29.9/FacialAge/BNav_EC2/DepthDuration/v2_depth_duration_MTurk/v2_DepthDuration_HTML.html#187,187,1366,768,1366,768,9-3-2022,9-9-58,105,depth_duration_stimuli/000469_2014-06-09_19-42-10_260595134347_rgbf000081-resize_1/000469_2014-06-09_19-42-10_260595134347_rgbf000081-resize_1-target.png,1000,1.652,0.2,12246,999,meters,jsons/v1_VE1000_randls_2_rotated.json,1599697,2022024,56,Woman
105,101836,DepthScenes,duration_manipulation_targetAtFixation,jsons/v1_VE1000_randls_2_rotated.json,http://54.235.29.9/FacialAge/BNav_EC2/DepthDuration/v2_depth_duration_MTurk/v2_DepthDuration_HTML.html#187,187,1366,768,1366,768,9-3-2022,9-9-58,106,depth_duration_stimuli/002949_2014-06-26_15-57-42_094959634447_rgbf000079-resize_1/002949_2014-06-26_15-57-42_094959634447_rgbf000079-resize_1-target.png,1000,1.8915,0.2,13508,998,meters,jsons/v1_VE1000_randls_2_rotated.json,1599697,2022024,56,Woman
106,101836,DepthScenes,duration_manipulation_targetAtFixation,jsons/v1_VE1000_randls_2_rotated.json,http://54.235.29.9/FacialAge/BNav_EC2/DepthDuration/v2_depth_duration_MTurk/v2_DepthDuration_HTML.html#187,187,1366,768,1366,768,9-3-2022,9-9-58,107,depth_duration_stimuli/000522_2014-06-08_13-35-06_260595134347_rgbf000244-resize_1/000522_2014-06-08_13-35-06_260595134347_rgbf000244-resize_1-target.png,1000,2.3715,0.2,12096,998,meters,jsons/v1_VE1000_randls_2_rotated.json,1599697,2022024,56,Woman
107,101836,DepthScenes,duration_manipulation_targetAtFixation,jsons/v1_VE1000_randls_2_rotated.json,http://54.235.29.9/FacialAge/BNav_EC2/DepthDuration/v2_depth_duration_MTurk/v2_DepthDuration_HTML.html#187,187,1366,768,1366,768,9-3-2022,9-9-58,108,depth_duration_stimuli/003081_2014-06-15_15-19-16_094959634447_rgbf000150-resize_1/003081_2014-06-15_15-19-16_094959634447_rgbf000150-resize_1-target.png,1000,3.9125,0.2,12169,999,meters,jsons/v1_VE1000_randls_2_rotated.json,1599697,2022024,56,Woman
108,101836,DepthScenes,duration_manipulation_targetAtFixation,jsons/v1_VE1000_randls_2_rotated.json,http://54.235.29.9/FacialAge/BNav_EC2/DepthDuration/v2_depth_duration_MTurk/v2_DepthDuration_HTML.html#187,187,1366,768,1366,768,9-3-2022,9-9-58,109,depth_duration_stimuli/001417_2014-06-19_16-25-36_260595134347_rgbf000115-resize_5/001417_2014-06-19_16-25-36_260595134347_rgbf000115-resize_5-target.png,1000,4.6255,0.3,7075,998,meters,jsons/v1_VE1000_randls_2_rotated.json,1599697,2022024,56,Woman
109,101836,DepthScenes,duration_manipulation_targetAtFixation,jsons/v1_VE1000_randls_2_rotated.json,http://54.235.29.9/FacialAge/BNav_EC2/DepthDuration/v2_depth_duration_MTurk/v2_DepthDuration_HTML.html#187,187,1366,768,1366,768,9-3-2022,9-9-58,110,depth_duration_stimuli/001132_2014-06-17_14-48-54_260595134347_rgbf000100-resize_2/001132_2014-06-17_14-48-54_260595134347_rgbf000100-resize_2-target.png,1000,3.753,0.2,14513,998,meters,jsons/v1_VE1000_randls_2_rotated.json,1599697,2022024,56,Woman
110,101836,DepthScenes,duration_manipulation_targetAtFixation,jsons/v1_VE1000_randls_2_rotated.json,http://54.235.29.9/FacialAge/BNav_EC2/DepthDuration/v2_depth_duration_MTurk/v2_DepthDuration_HTML.html#187,187,1366,768,1366,768,9-3-2022,9-9-58,111,depth_duration_stimuli/001133_2014-06-17_14-49-16_260595134347_rgbf000100-resize_0/001133_2014-06-17_14-49-16_260595134347_rgbf000100-resize_0-target.png,1000,4.2115,0.3,6033,998,meters,jsons/v1_VE1000_randls_2_rotated.json,1599697,2022024,56,Woman
111,101836,DepthScenes,duration_manipulation_targetAtFixation,jsons/v1_VE1000_randls_2_rotated.json,http://54.235.29.9/FacialAge/BNav_EC2/DepthDuration/v2_depth_duration_MTurk/v2_DepthDuration_HTML.html#187,187,1366,768,1366,768,9-3-2022,9-9-58,112,depth_duration_stimuli/000742_2014-06-08_18-48-09_260595134347_rgbf000164-resize_4/000742_2014-06-08_18-48-09_260595134347_rgbf000164-resize_4-target.png,1000,4.632,0.3,11080,1000,meters,jsons/v1_VE1000_randls_2_rotated.json,1599697,2022024,56,Woman
112,101836,DepthScenes,duration_manipulation_targetAtFixation,jsons/v1_VE1000_randls_2_rotated.json,http://54.235.29.9/FacialAge/BNav_EC2/DepthDuration/v2_depth_duration_MTurk/v2_DepthDuration_HTML.html#187,187,1366,768,1366,768,9-3-2022,9-9-58,113,depth_duration_stimuli/001066_2014-06-08_22-03-20_260595134347_rgbf000066-resize_4/001066_2014-06-08_22-03-20_260595134347_rgbf000066-resize_4-target.png,1000,4.2330000000000005,0.3,7577,998,meters,jsons/v1_VE1000_randls_2_rotated.json,1599697,2022024,56,Woman
113,101836,DepthScenes,duration_manipulation_targetAtFixation,jsons/v1_VE1000_randls_2_rotated.json,http://54.235.29.9/FacialAge/BNav_EC2/DepthDuration/v2_depth_duration_MTurk/v2_DepthDuration_HTML.html#187,187,1366,768,1366,768,9-3-2022,9-9-58,114,depth_duration_stimuli/002136_2014-06-25_21-18-03_260595134347_rgbf000109-resize_3/002136_2014-06-25_21-18-03_260595134347_rgbf000109-resize_3-target.png,1000,1.9569999999999999,0.2,9936,1000,meters,jsons/v1_VE1000_randls_2_rotated.json,1599697,2022024,56,Woman
114,101836,DepthScenes,duration_manipulation_targetAtFixation,jsons/v1_VE1000_randls_2_rotated.json,http://54.235.29.9/FacialAge/BNav_EC2/DepthDuration/v2_depth_duration_MTurk/v2_DepthDuration_HTML.html#187,187,1366,768,1366,768,9-3-2022,9-9-58,115,depth_duration_stimuli/002964_2014-06-08_17-46-11_094959634447_rgbf000091-resize_4/002964_2014-06-08_17-46-11_094959634447_rgbf000091-resize_4-target.png,1000,1.6909999999999998,0.2,8180,997,meters,jsons/v1_VE1000_randls_2_rotated.json,1599697,2022024,56,Woman
115,101836,DepthScenes,duration_manipulation_targetAtFixation,jsons/v1_VE1000_randls_2_rotated.json,http://54.235.29.9/FacialAge/BNav_EC2/DepthDuration/v2_depth_duration_MTurk/v2_DepthDuration_HTML.html#187,187,1366,768,1366,768,9-3-2022,9-9-58,116,depth_duration_stimuli/001136_2014-06-17_15-19-41_260595134347_rgbf000076-resize_3/001136_2014-06-17_15-19-41_260595134347_rgbf000076-resize_3-target.png,1000,1.8655,0.2,18820,1000,meters,jsons/v1_VE1000_randls_2_rotated.json,1599697,2022024,56,Woman
116,101836,DepthScenes,duration_manipulation_targetAtFixation,jsons/v1_VE1000_randls_2_rotated.json,http://54.235.29.9/FacialAge/BNav_EC2/DepthDuration/v2_depth_duration_MTurk/v2_DepthDuration_HTML.html#187,187,1366,768,1366,768,9-3-2022,9-9-58,117,depth_duration_stimuli/001164_2014-06-17_15-35-46_260595134347_rgbf000085-resize_3/001164_2014-06-17_15-35-46_260595134347_rgbf000085-resize_3-target.png,1000,2.354,0.2,8060,1000,meters,jsons/v1_VE1000_randls_2_rotated.json,1599697,2022024,56,Woman
117,101836,DepthScenes,duration_manipulation_targetAtFixation,jsons/v1_VE1000_randls_2_rotated.json,http://54.235.29.9/FacialAge/BNav_EC2/DepthDuration/v2_depth_duration_MTurk/v2_DepthDuration_HTML.html#187,187,1366,768,1366,768,9-3-2022,9-9-58,118,depth_duration_stimuli/002568_2014-06-24_13-59-21_094959634447_rgbf000062-resize_4/002568_2014-06-24_13-59-21_094959634447_rgbf000062-resize_4-target.png,1000,3.015,0.3,12364,998,meters,jsons/v1_VE1000_randls_2_rotated.json,1599697,2022024,56,Woman
118,101836,DepthScenes,duration_manipulation_targetAtFixation,jsons/v1_VE1000_randls_2_rotated.json,http://54.235.29.9/FacialAge/BNav_EC2/DepthDuration/v2_depth_duration_MTurk/v2_DepthDuration_HTML.html#187,187,1366,768,1366,768,9-3-2022,9-9-58,119,depth_duration_stimuli/003492_2014-05-21_15-50-55_094959634447_rgbf000828-resize_1/003492_2014-05-21_15-50-55_094959634447_rgbf000828-resize_1-target.png,1000,4.06875,0.3,5268,998,meters,jsons/v1_VE1000_randls_2_rotated.json,1599697,2022024,56,Woman
119,101836,DepthScenes,duration_manipulation_targetAtFixation,jsons/v1_VE1000_randls_2_rotated.json,http://54.235.29.9/FacialAge/BNav_EC2/DepthDuration/v2_depth_duration_MTurk/v2_DepthDuration_HTML.html#187,187,1366,768,1366,768,9-3-2022,9-9-58,120,depth_duration_stimuli/000787_2014-06-08_22-33-53_260595134347_rgbf000175-resize_1/000787_2014-06-08_22-33-53_260595134347_rgbf000175-resize-original.jpg,1000,4.784,0.0,8225,998,meters,jsons/v1_VE1000_randls_2_rotated.json,1599697,2022024,56,Woman
120,101836,DepthScenes,duration_manipulation_targetAtFixation,jsons/v1_VE1000_randls_2_rotated.json,http://54.235.29.9/FacialAge/BNav_EC2/DepthDuration/v2_depth_duration_MTurk/v2_DepthDuration_HTML.html#187,187,1366,768,1366,768,9-3-2022,9-9-58,121,depth_duration_stimuli/002467_2014-06-28_20-38-07_260595134347_rgbf000026-resize_2/002467_2014-06-28_20-38-07_260595134347_rgbf000026-resize_2-target.png,1000,4.742,0.1,7869,1002,meters,jsons/v1_VE1000_randls_2_rotated.json,1599697,2022024,56,Woman
121,101836,DepthScenes,duration_manipulation_targetAtFixation,jsons/v1_VE1000_randls_2_rotated.json,http://54.235.29.9/FacialAge/BNav_EC2/DepthDuration/v2_depth_duration_MTurk/v2_DepthDuration_HTML.html#187,187,1366,768,1366,768,9-3-2022,9-9-58,122,depth_duration_stimuli/002570_2014-06-24_13-59-54_094959634447_rgbf000059-resize_0/002570_2014-06-24_13-59-54_094959634447_rgbf000059-resize_0-target.png,1000,4.037,0.2,5838,999,meters,jsons/v1_VE1000_randls_2_rotated.json,1599697,2022024,56,Woman
122,101836,DepthScenes,duration_manipulation_targetAtFixation,jsons/v1_VE1000_randls_2_rotated.json,http://54.235.29.9/FacialAge/BNav_EC2/DepthDuration/v2_depth_duration_MTurk/v2_DepthDuration_HTML.html#187,187,1366,768,1366,768,9-3-2022,9-9-58,123,depth_duration_stimuli/000866_2014-06-09_20-45-42_260595134347_rgbf000139-resize_1/000866_2014-06-09_20-45-42_260595134347_rgbf000139-resize_1-target.png,1000,3.2155,0.2,13607,976,meters,jsons/v1_VE1000_randls_2_rotated.json,1599697,2022024,56,Woman
123,101836,DepthScenes,duration_manipulation_targetAtFixation,jsons/v1_VE1000_randls_2_rotated.json,http://54.235.29.9/FacialAge/BNav_EC2/DepthDuration/v2_depth_duration_MTurk/v2_DepthDuration_HTML.html#187,187,1366,768,1366,768,9-3-2022,9-9-58,124,depth_duration_stimuli/002989_2014-06-15_12-25-03_094959634447_rgbf000150-resize_3/002989_2014-06-15_12-25-03_094959634447_rgbf000150-resize_3-target.png,1000,4.1975,0.2,7022,999,meters,jsons/v1_VE1000_randls_2_rotated.json,1599697,2022024,56,Woman
124,101836,DepthScenes,duration_manipulation_targetAtFixation,jsons/v1_VE1000_randls_2_rotated.json,http://54.235.29.9/FacialAge/BNav_EC2/DepthDuration/v2_depth_duration_MTurk/v2_DepthDuration_HTML.html#187,187,1366,768,1366,768,9-3-2022,9-9-58,125,depth_duration_stimuli/002678_2014-06-13_16-15-32_094959634447_rgbf000151-resize_6/002678_2014-06-13_16-15-32_094959634447_rgbf000151-resize_6-target.png,1000,2.1830000000000003,0.3,9438,1009,meters,jsons/v1_VE1000_randls_2_rotated.json,1599697,2022024,56,Woman
125,101836,DepthScenes,duration_manipulation_targetAtFixation,jsons/v1_VE1000_randls_2_rotated.json,http://54.235.29.9/FacialAge/BNav_EC2/DepthDuration/v2_depth_duration_MTurk/v2_DepthDuration_HTML.html#187,187,1366,768,1366,768,9-3-2022,9-9-58,126,depth_duration_stimuli/000368_2014-06-09_15-53-01_260595134347_rgbf000155-resize_2/000368_2014-06-09_15-53-01_260595134347_rgbf000155-resize_2-target.png,1000,2.4859999999999998,0.3,6030,1028,meters,jsons/v1_VE1000_randls_2_rotated.json,1599697,2022024,56,Woman
126,101836,DepthScenes,duration_manipulation_targetAtFixation,jsons/v1_VE1000_randls_2_rotated.json,http://54.235.29.9/FacialAge/BNav_EC2/DepthDuration/v2_depth_duration_MTurk/v2_DepthDuration_HTML.html#187,187,1366,768,1366,768,9-3-2022,9-9-58,127,depth_duration_stimuli/000502_2014-06-08_23-02-32_260595134347_rgbf000063-resize_4/000502_2014-06-08_23-02-32_260595134347_rgbf000063-resize_4-target.png,1000,2.431,0.2,11988,1000,meters,jsons/v1_VE1000_randls_2_rotated.json,1599697,2022024,56,Woman
127,101836,DepthScenes,duration_manipulation_targetAtFixation,jsons/v1_VE1000_randls_2_rotated.json,http://54.235.29.9/FacialAge/BNav_EC2/DepthDuration/v2_depth_duration_MTurk/v2_DepthDuration_HTML.html#187,187,1366,768,1366,768,9-3-2022,9-9-58,128,depth_duration_stimuli/001199_2014-06-17_16-03-48_260595134347_rgbf000077-resize_0/001199_2014-06-17_16-03-48_260595134347_rgbf000077-resize_0-target.png,1000,3.4375,0.3,7326,998,meters,jsons/v1_VE1000_randls_2_rotated.json,1599697,2022024,56,Woman
128,101836,DepthScenes,duration_manipulation_targetAtFixation,jsons/v1_VE1000_randls_2_rotated.json,http://54.235.29.9/FacialAge/BNav_EC2/DepthDuration/v2_depth_duration_MTurk/v2_DepthDuration_HTML.html#187,187,1366,768,1366,768,9-3-2022,9-9-58,129,depth_duration_stimuli/000943_2014-06-09_19-31-07_260595134347_rgbf000128-resize_1/000943_2014-06-09_19-31-07_260595134347_rgbf000128-resize_1-target.png,1000,1.9765,0.3,14764,999,meters,jsons/v1_VE1000_randls_2_rotated.json,1599697,2022024,56,Woman
129,101836,DepthScenes,duration_manipulation_targetAtFixation,jsons/v1_VE1000_randls_2_rotated.json,http://54.235.29.9/FacialAge/BNav_EC2/DepthDuration/v2_depth_duration_MTurk/v2_DepthDuration_HTML.html#187,187,1366,768,1366,768,9-3-2022,9-9-58,130,depth_duration_stimuli/003070_2014-06-15_14-58-27_094959634447_rgbf000150-resize_3/003070_2014-06-15_14-58-27_094959634447_rgbf000150-resize_3-target.png,1000,2.9415,0.3,6917,997,meters,jsons/v1_VE1000_randls_2_rotated.json,1599697,2022024,56,Woman
130,101836,DepthScenes,duration_manipulation_targetAtFixation,jsons/v1_VE1000_randls_2_rotated.json,http://54.235.29.9/FacialAge/BNav_EC2/DepthDuration/v2_depth_duration_MTurk/v2_DepthDuration_HTML.html#187,187,1366,768,1366,768,9-3-2022,9-9-58,131,depth_duration_stimuli/000191_2014-05-12_17-07-38_260595134347_rgbf000199-resize_0/000191_2014-05-12_17-07-38_260595134347_rgbf000199-resize_0-target.png,1000,3.7995,0.5,19908,999,meters,jsons/v1_VE1000_randls_2_rotated.json,1599697,2022024,56,Woman
131,101836,DepthScenes,duration_manipulation_targetAtFixation,jsons/v1_VE1000_randls_2_rotated.json,http://54.235.29.9/FacialAge/BNav_EC2/DepthDuration/v2_depth_duration_MTurk/v2_DepthDuration_HTML.html#187,187,1366,768,1366,768,9-3-2022,9-9-58,132,depth_duration_stimuli/000493_2014-06-09_21-01-18_260595134347_rgbf000196-resize_3/000493_2014-06-09_21-01-18_260595134347_rgbf000196-resize_3-target.png,1000,3.44,0.3,13137,999,meters,jsons/v1_VE1000_randls_2_rotated.json,1599697,2022024,56,Woman
132,101836,DepthScenes,duration_manipulation_targetAtFixation,jsons/v1_VE1000_randls_2_rotated.json,http://54.235.29.9/FacialAge/BNav_EC2/DepthDuration/v2_depth_duration_MTurk/v2_DepthDuration_HTML.html#187,187,1366,768,1366,768,9-3-2022,9-9-58,133,depth_duration_stimuli/001214_2014-06-17_16-13-55_260595134347_rgbf000111-resize_0/001214_2014-06-17_16-13-55_260595134347_rgbf000111-resize_0-target.png,1000,2.6505,0.3,17709,997,meters,jsons/v1_VE1000_randls_2_rotated.json,1599697,2022024,56,Woman
133,101836,DepthScenes,duration_manipulation_targetAtFixation,jsons/v1_VE1000_randls_2_rotated.json,http://54.235.29.9/FacialAge/BNav_EC2/DepthDuration/v2_depth_duration_MTurk/v2_DepthDuration_HTML.html#187,187,1366,768,1366,768,9-3-2022,9-9-58,134,depth_duration_stimuli/000810_2014-06-08_17-20-01_260595134347_rgbf000105-resize_0/000810_2014-06-08_17-20-01_260595134347_rgbf000105-resize_0-target.png,1000,1.4865,0.3,12587,1000,meters,jsons/v1_VE1000_randls_2_rotated.json,1599697,2022024,56,Woman
134,101836,DepthScenes,duration_manipulation_targetAtFixation,jsons/v1_VE1000_randls_2_rotated.json,http://54.235.29.9/FacialAge/BNav_EC2/DepthDuration/v2_depth_duration_MTurk/v2_DepthDuration_HTML.html#187,187,1366,768,1366,768,9-3-2022,9-9-58,135,depth_duration_stimuli/000375_2014-06-08_11-17-29_260595134347_rgbf000133-resize_2/000375_2014-06-08_11-17-29_260595134347_rgbf000133-resize-original.jpg,1000,4.718,0.0,4715,998,meters,jsons/v1_VE1000_randls_2_rotated.json,1599697,2022024,56,Woman
135,101836,DepthScenes,duration_manipulation_targetAtFixation,jsons/v1_VE1000_randls_2_rotated.json,http://54.235.29.9/FacialAge/BNav_EC2/DepthDuration/v2_depth_duration_MTurk/v2_DepthDuration_HTML.html#187,187,1366,768,1366,768,9-3-2022,9-9-58,136,depth_duration_stimuli/001815_2014-06-26_20-52-55_260595134347_rgbf000020-resize_0/001815_2014-06-26_20-52-55_260595134347_rgbf000020-resize_0-target.png,1000,3.3865,0.3,14463,1000,meters,jsons/v1_VE1000_randls_2_rotated.json,1599697,2022024,56,Woman
136,101836,DepthScenes,duration_manipulation_targetAtFixation,jsons/v1_VE1000_randls_2_rotated.json,http://54.235.29.9/FacialAge/BNav_EC2/DepthDuration/v2_depth_duration_MTurk/v2_DepthDuration_HTML.html#187,187,1366,768,1366,768,9-3-2022,9-9-58,137,depth_duration_stimuli/001808_2014-06-26_20-50-58_260595134347_rgbf000029-resize_1/001808_2014-06-26_20-50-58_260595134347_rgbf000029-resize_1-target.png,1000,4.249,0.3,8500,999,meters,jsons/v1_VE1000_randls_2_rotated.json,1599697,2022024,56,Woman
137,101836,DepthScenes,duration_manipulation_targetAtFixation,jsons/v1_VE1000_randls_2_rotated.json,http://54.235.29.9/FacialAge/BNav_EC2/DepthDuration/v2_depth_duration_MTurk/v2_DepthDuration_HTML.html#187,187,1366,768,1366,768,9-3-2022,9-9-58,138,depth_duration_stimuli/002545_2014-06-24_13-38-53_094959634447_rgbf000080-resize_4/002545_2014-06-24_13-38-53_094959634447_rgbf000080-resize_4-target.png,1000,1.9205,0.2,6491,1000,meters,jsons/v1_VE1000_randls_2_rotated.json,1599697,2022024,56,Woman
138,101836,DepthScenes,duration_manipulation_targetAtFixation,jsons/v1_VE1000_randls_2_rotated.json,http://54.235.29.9/FacialAge/BNav_EC2/DepthDuration/v2_depth_duration_MTurk/v2_DepthDuration_HTML.html#187,187,1366,768,1366,768,9-3-2022,9-9-58,139,depth_duration_stimuli/001092_2014-06-15_17-34-58_260595134347_rgbf000171-resize_3/001092_2014-06-15_17-34-58_260595134347_rgbf000171-resize_3-target.png,1000,2.6935,0.1,16630,998,meters,jsons/v1_VE1000_randls_2_rotated.json,1599697,2022024,56,Woman
139,101836,DepthScenes,duration_manipulation_targetAtFixation,jsons/v1_VE1000_randls_2_rotated.json,http://54.235.29.9/FacialAge/BNav_EC2/DepthDuration/v2_depth_duration_MTurk/v2_DepthDuration_HTML.html#187,187,1366,768,1366,768,9-3-2022,9-9-58,140,depth_duration_stimuli/003423_2014-05-21_10-23-26_094959634447_rgbf002665-resize_2/003423_2014-05-21_10-23-26_094959634447_rgbf002665-resize_2-target.png,1000,3.2575,0.2,10226,998,meters,jsons/v1_VE1000_randls_2_rotated.json,1599697,2022024,56,Woman
140,101836,DepthScenes,duration_manipulation_targetAtFixation,jsons/v1_VE1000_randls_2_rotated.json,http://54.235.29.9/FacialAge/BNav_EC2/DepthDuration/v2_depth_duration_MTurk/v2_DepthDuration_HTML.html#187,187,1366,768,1366,768,9-3-2022,9-9-58,141,depth_duration_stimuli/002905_2014-06-03_18-04-43_094959634447_rgbf000151-resize_2/002905_2014-06-03_18-04-43_094959634447_rgbf000151-resize_2-target.png,1000,2.0295,0.1,5167,999,meters,jsons/v1_VE1000_randls_2_rotated.json,1599697,2022024,56,Woman
141,101836,DepthScenes,duration_manipulation_targetAtFixation,jsons/v1_VE1000_randls_2_rotated.json,http://54.235.29.9/FacialAge/BNav_EC2/DepthDuration/v2_depth_duration_MTurk/v2_DepthDuration_HTML.html#187,187,1366,768,1366,768,9-3-2022,9-9-58,142,depth_duration_stimuli/000677_2014-06-08_23-10-32_260595134347_rgbf000158-resize_6/000677_2014-06-08_23-10-32_260595134347_rgbf000158-resize_6-target.png,1000,3.556,0.1,8473,998,meters,jsons/v1_VE1000_randls_2_rotated.json,1599697,2022024,56,Woman
142,101836,DepthScenes,duration_manipulation_targetAtFixation,jsons/v1_VE1000_randls_2_rotated.json,http://54.235.29.9/FacialAge/BNav_EC2/DepthDuration/v2_depth_duration_MTurk/v2_DepthDuration_HTML.html#187,187,1366,768,1366,768,9-3-2022,9-9-58,143,depth_duration_stimuli/001029_2014-06-08_13-17-57_260595134347_rgbf000065-resize_1/001029_2014-06-08_13-17-57_260595134347_rgbf000065-resize_1-target.png,1000,3.0835,0.1,5288,1000,meters,jsons/v1_VE1000_randls_2_rotated.json,1599697,2022024,56,Woman
143,101836,DepthScenes,duration_manipulation_targetAtFixation,jsons/v1_VE1000_randls_2_rotated.json,http://54.235.29.9/FacialAge/BNav_EC2/DepthDuration/v2_depth_duration_MTurk/v2_DepthDuration_HTML.html#187,187,1366,768,1366,768,9-3-2022,9-9-58,144,depth_duration_stimuli/001450_2014-06-19_17-02-03_260595134347_rgbf000203-resize_4/001450_2014-06-19_17-02-03_260595134347_rgbf000203-resize_4-target.png,1000,4.0106666666667,0.1,11163,997,meters,jsons/v1_VE1000_randls_2_rotated.json,1599697,2022024,56,Woman
144,101836,DepthScenes,duration_manipulation_targetAtFixation,jsons/v1_VE1000_randls_2_rotated.json,http://54.235.29.9/FacialAge/BNav_EC2/DepthDuration/v2_depth_duration_MTurk/v2_DepthDuration_HTML.html#187,187,1366,768,1366,768,9-3-2022,9-9-58,145,depth_duration_stimuli/001449_2014-06-19_17-01-27_260595134347_rgbf000116-resize_2/001449_2014-06-19_17-01-27_260595134347_rgbf000116-resize_2-target.png,1000,3.452,0.1,5617,999,meters,jsons/v1_VE1000_randls_2_rotated.json,1599697,2022024,56,Woman
145,101836,DepthScenes,duration_manipulation_targetAtFixation,jsons/v1_VE1000_randls_2_rotated.json,http://54.235.29.9/FacialAge/BNav_EC2/DepthDuration/v2_depth_duration_MTurk/v2_DepthDuration_HTML.html#187,187,1366,768,1366,768,9-3-2022,9-9-58,146,depth_duration_stimuli/002875_2014-06-01_15-19-00_094959634447_rgbf000151-resize_1/002875_2014-06-01_15-19-00_094959634447_rgbf000151-resize_1-target.png,1000,1.9675,0.1,13107,1000,meters,jsons/v1_VE1000_randls_2_rotated.json,1599697,2022024,56,Woman
146,101836,DepthScenes,duration_manipulation_targetAtFixation,jsons/v1_VE1000_randls_2_rotated.json,http://54.235.29.9/FacialAge/BNav_EC2/DepthDuration/v2_depth_duration_MTurk/v2_DepthDuration_HTML.html#187,187,1366,768,1366,768,9-3-2022,9-9-58,147,depth_duration_stimuli/001011_2014-06-08_23-18-54_260595134347_rgbf000044-resize_4/001011_2014-06-08_23-18-54_260595134347_rgbf000044-resize_4-target.png,1000,2.4730000000000003,0.1,5017,997,meters,jsons/v1_VE1000_randls_2_rotated.json,1599697,2022024,56,Woman
147,101836,DepthScenes,duration_manipulation_targetAtFixation,jsons/v1_VE1000_randls_2_rotated.json,http://54.235.29.9/FacialAge/BNav_EC2/DepthDuration/v2_depth_duration_MTurk/v2_DepthDuration_HTML.html#187,187,1366,768,1366,768,9-3-2022,9-9-58,148,depth_duration_stimuli/000927_2014-06-09_16-32-30_260595134347_rgbf000123-resize_3/000927_2014-06-09_16-32-30_260595134347_rgbf000123-resize_3-target.png,1000,2.6785,0.2,5438,999,meters,jsons/v1_VE1000_randls_2_rotated.json,1599697,2022024,56,Woman
148,101836,DepthScenes,duration_manipulation_targetAtFixation,jsons/v1_VE1000_randls_2_rotated.json,http://54.235.29.9/FacialAge/BNav_EC2/DepthDuration/v2_depth_duration_MTurk/v2_DepthDuration_HTML.html#187,187,1366,768,1366,768,9-3-2022,9-9-58,149,depth_duration_stimuli/001110_2014-06-15_17-25-28_260595134347_rgbf000150-resize_1/001110_2014-06-15_17-25-28_260595134347_rgbf000150-resize_1-target.png,1000,1.7115,0.1,9364,1000,meters,jsons/v1_VE1000_randls_2_rotated.json,1599697,2022024,56,Woman
149,101836,DepthScenes,duration_manipulation_targetAtFixation,jsons/v1_VE1000_randls_2_rotated.json,http://54.235.29.9/FacialAge/BNav_EC2/DepthDuration/v2_depth_duration_MTurk/v2_DepthDuration_HTML.html#187,187,1366,768,1366,768,9-3-2022,9-9-58,150,depth_duration_stimuli/000549_2014-06-08_22-10-24_260595134347_rgbf000247-resize_3/000549_2014-06-08_22-10-24_260595134347_rgbf000247-resize_3-target.png,1000,1.841,0.15,18463,998,meters,jsons/v1_VE1000_randls_2_rotated.json,1599697,2022024,56,Woman
150,101836,DepthScenes,duration_manipulation_targetAtFixation,jsons/v1_VE1000_randls_2_rotated.json,http://54.235.29.9/FacialAge/BNav_EC2/DepthDuration/v2_depth_duration_MTurk/v2_DepthDuration_HTML.html#187,187,1366,768,1366,768,9-3-2022,9-9-58,151,depth_duration_stimuli/001055_2014-06-08_18-45-35_260595134347_rgbf000111-resize_4/001055_2014-06-08_18-45-35_260595134347_rgbf000111-resize_4-target.png,1000,2.4290000000000003,0.2,5491,998,meters,jsons/v1_VE1000_randls_2_rotated.json,1599697,2022024,56,Woman
151,101836,DepthScenes,duration_manipulation_targetAtFixation,jsons/v1_VE1000_randls_2_rotated.json,http://54.235.29.9/FacialAge/BNav_EC2/DepthDuration/v2_depth_duration_MTurk/v2_DepthDuration_HTML.html#187,187,1366,768,1366,768,9-3-2022,9-9-58,152,depth_duration_stimuli/000569_2014-06-09_22-51-47_260595134347_rgbf000141-resize_3/000569_2014-06-09_22-51-47_260595134347_rgbf000141-resize-original.jpg,1000,4.512,0.0,4213,998,meters,jsons/v1_VE1000_randls_2_rotated.json,1599697,2022024,56,Woman
152,101836,DepthScenes,duration_manipulation_targetAtFixation,jsons/v1_VE1000_randls_2_rotated.json,http://54.235.29.9/FacialAge/BNav_EC2/DepthDuration/v2_depth_duration_MTurk/v2_DepthDuration_HTML.html#187,187,1366,768,1366,768,9-3-2022,9-9-58,153,depth_duration_stimuli/000734_2014-06-08_17-39-11_260595134347_rgbf000128-resize_2/000734_2014-06-08_17-39-11_260595134347_rgbf000128-resize_2-target.png,1000,4.098,0.1,8532,999,meters,jsons/v1_VE1000_randls_2_rotated.json,1599697,2022024,56,Woman
153,101836,DepthScenes,duration_manipulation_targetAtFixation,jsons/v1_VE1000_randls_2_rotated.json,http://54.235.29.9/FacialAge/BNav_EC2/DepthDuration/v2_depth_duration_MTurk/v2_DepthDuration_HTML.html#187,187,1366,768,1366,768,9-3-2022,9-9-58,154,depth_duration_stimuli/000739_2014-06-08_18-45-58_260595134347_rgbf000068-resize_1/000739_2014-06-08_18-45-58_260595134347_rgbf000068-resize_1-target.png,1000,3.534,0.1,4730,999,meters,jsons/v1_VE1000_randls_2_rotated.json,1599697,2022024,56,Woman
154,101836,DepthScenes,duration_manipulation_targetAtFixation,jsons/v1_VE1000_randls_2_rotated.json,http://54.235.29.9/FacialAge/BNav_EC2/DepthDuration/v2_depth_duration_MTurk/v2_DepthDuration_HTML.html#187,187,1366,768,1366,768,9-3-2022,9-9-58,155,depth_duration_stimuli/002637_2014-06-24_14-51-13_094959634447_rgbf000066-resize_4/002637_2014-06-24_14-51-13_094959634447_rgbf000066-resize_4-target.png,1000,1.9955,0.05,6146,999,meters,jsons/v1_VE1000_randls_2_rotated.json,1599697,2022024,56,Woman
155,101836,DepthScenes,duration_manipulation_targetAtFixation,jsons/v1_VE1000_randls_2_rotated.json,http://54.235.29.9/FacialAge/BNav_EC2/DepthDuration/v2_depth_duration_MTurk/v2_DepthDuration_HTML.html#187,187,1366,768,1366,768,9-3-2022,9-9-58,156,depth_duration_stimuli/003534_2014-05-22_15-06-10_094959634447_rgbf000102-resize_4/003534_2014-05-22_15-06-10_094959634447_rgbf000102-resize_4-target.png,1000,1.426,0.1,5166,997,meters,jsons/v1_VE1000_randls_2_rotated.json,1599697,2022024,56,Woman
156,101836,DepthScenes,duration_manipulation_targetAtFixation,jsons/v1_VE1000_randls_2_rotated.json,http://54.235.29.9/FacialAge/BNav_EC2/DepthDuration/v2_depth_duration_MTurk/v2_DepthDuration_HTML.html#187,187,1366,768,1366,768,9-3-2022,9-9-58,157,depth_duration_stimuli/002660_2014-06-13_15-44-18_094959634447_rgbf001878-resize_2/002660_2014-06-13_15-44-18_094959634447_rgbf001878-resize_2-target.png,1000,3.576,0.05,8838,998,meters,jsons/v1_VE1000_randls_2_rotated.json,1599697,2022024,56,Woman
157,101836,DepthScenes,duration_manipulation_targetAtFixation,jsons/v1_VE1000_randls_2_rotated.json,http://54.235.29.9/FacialAge/BNav_EC2/DepthDuration/v2_depth_duration_MTurk/v2_DepthDuration_HTML.html#187,187,1366,768,1366,768,9-3-2022,9-9-58,158,depth_duration_stimuli/002153_2014-06-25_21-27-18_260595134347_rgbf000038-resize_5/002153_2014-06-25_21-27-18_260595134347_rgbf000038-resize_5-target.png,1000,2.505,0.05,5051,998,meters,jsons/v1_VE1000_randls_2_rotated.json,1599697,2022024,56,Woman
158,101836,DepthScenes,duration_manipulation_targetAtFixation,jsons/v1_VE1000_randls_2_rotated.json,http://54.235.29.9/FacialAge/BNav_EC2/DepthDuration/v2_depth_duration_MTurk/v2_DepthDuration_HTML.html#187,187,1366,768,1366,768,9-3-2022,9-9-58,159,depth_duration_stimuli/002340_2014-06-28_20-05-46_260595134347_rgbf000113-resize_0/002340_2014-06-28_20-05-46_260595134347_rgbf000113-resize_0-target.png,1000,2.4735,0.15,10007,999,meters,jsons/v1_VE1000_randls_2_rotated.json,1599697,2022024,56,Woman
159,101836,DepthScenes,duration_manipulation_targetAtFixation,jsons/v1_VE1000_randls_2_rotated.json,http://54.235.29.9/FacialAge/BNav_EC2/DepthDuration/v2_depth_duration_MTurk/v2_DepthDuration_HTML.html#187,187,1366,768,1366,768,9-3-2022,9-9-58,160,depth_duration_stimuli/001016_2014-06-09_16-16-10_260595134347_rgbf000112-resize_5/001016_2014-06-09_16-16-10_260595134347_rgbf000112-resize_5-target.png,1000,1.6565,0.05,5038,990,meters,jsons/v1_VE1000_randls_2_rotated.json,1599697,2022024,56,Woman
160,101836,DepthScenes,duration_manipulation_targetAtFixation,jsons/v1_VE1000_randls_2_rotated.json,http://54.235.29.9/FacialAge/BNav_EC2/DepthDuration/v2_depth_duration_MTurk/v2_DepthDuration_HTML.html#187,187,1366,768,1366,768,9-3-2022,9-9-58,161,depth_duration_stimuli/000109_2014-05-14_23-41-52_260595134347_rgbf000035-resize_9/000109_2014-05-14_23-41-52_260595134347_rgbf000035-resize_9-target.png,1000,1.3545,0.1,7343,998,meters,jsons/v1_VE1000_randls_2_rotated.json,1599697,2022024,56,Woman
161,101836,DepthScenes,duration_manipulation_targetAtFixation,jsons/v1_VE1000_randls_2_rotated.json,http://54.235.29.9/FacialAge/BNav_EC2/DepthDuration/v2_depth_duration_MTurk/v2_DepthDuration_HTML.html#187,187,1366,768,1366,768,9-3-2022,9-9-58,162,depth_duration_stimuli/000470_2014-06-09_19-42-40_260595134347_rgbf000094-resize_1/000470_2014-06-09_19-42-40_260595134347_rgbf000094-resize_1-target.png,1000,1.831,0.05,5114,997,meters,jsons/v1_VE1000_randls_2_rotated.json,1599697,2022024,56,Woman
162,101836,DepthScenes,duration_manipulation_targetAtFixation,jsons/v1_VE1000_randls_2_rotated.json,http://54.235.29.9/FacialAge/BNav_EC2/DepthDuration/v2_depth_duration_MTurk/v2_DepthDuration_HTML.html#187,187,1366,768,1366,768,9-3-2022,9-9-58,163,depth_duration_stimuli/002657_2014-06-13_15-29-54_094959634447_rgbf000150-resize_1/002657_2014-06-13_15-29-54_094959634447_rgbf000150-resize_1-target.png,1000,4.919,0.05,6466,1000,meters,jsons/v1_VE1000_randls_2_rotated.json,1599697,2022024,56,Woman
163,101836,DepthScenes,duration_manipulation_targetAtFixation,jsons/v1_VE1000_randls_2_rotated.json,http://54.235.29.9/FacialAge/BNav_EC2/DepthDuration/v2_depth_duration_MTurk/v2_DepthDuration_HTML.html#187,187,1366,768,1366,768,9-3-2022,9-9-58,164,depth_duration_stimuli/002375_2014-06-28_20-13-44_260595134347_rgbf000032-resize_1/002375_2014-06-28_20-13-44_260595134347_rgbf000032-resize_1-target.png,1000,4.0175,0.05,5059,850,meters,jsons/v1_VE1000_randls_2_rotated.json,1599697,2022024,56,Woman
