,subjID,experimentName,versionName,sequenceName,url,selected_row,windowWidth,windowHeight,screenWidth,screenHeight,startDate,startTime,trial,stimulus,duration,actual_depth,depth_estimate,trial_RT,log_sceneDuration,unitSelection,seq_filepath,experimentTime,totalTime,age,gender
0,100413,DepthScenes,duration_manipulation_targetAtFixation,jsons/v1_VE1000_randls_18.json,http://54.235.29.9/FacialAge/BNav_EC2/DepthDuration/v2_depth_duration_MTurk/v2_DepthDuration_HTML.html#436,436,1536,864,1536,864,9-3-2022,9-8-44,1,depth_duration_stimuli/002509_2014-06-24_13-19-22_094959634447_rgbf000077-resize_0/002509_2014-06-24_13-19-22_094959634447_rgbf000077-resize_0-target.png,1000,1.3065,3,7101,1005,feet,jsons/v1_VE1000_randls_18.json,757067,925697,40,Man
1,100413,DepthScenes,duration_manipulation_targetAtFixation,jsons/v1_VE1000_randls_18.json,http://54.235.29.9/FacialAge/BNav_EC2/DepthDuration/v2_depth_duration_MTurk/v2_DepthDuration_HTML.html#436,436,1536,864,1536,864,9-3-2022,9-8-44,2,depth_duration_stimuli/003338_2014-05-20_11-01-23_094959634447_rgbf000051-resize_6/003338_2014-05-20_11-01-23_094959634447_rgbf000051-resize_6-target.png,1000,1.693,3,3595,997,feet,jsons/v1_VE1000_randls_18.json,757067,925697,40,Man
2,100413,DepthScenes,duration_manipulation_targetAtFixation,jsons/v1_VE1000_randls_18.json,http://54.235.29.9/FacialAge/BNav_EC2/DepthDuration/v2_depth_duration_MTurk/v2_DepthDuration_HTML.html#436,436,1536,864,1536,864,9-3-2022,9-8-44,3,depth_duration_stimuli/002375_2014-06-28_20-13-44_260595134347_rgbf000032-resize_1/002375_2014-06-28_20-13-44_260595134347_rgbf000032-resize_1-target.png,1000,4.0175,6,5877,995,feet,jsons/v1_VE1000_randls_18.json,757067,925697,40,Man
3,100413,DepthScenes,duration_manipulation_targetAtFixation,jsons/v1_VE1000_randls_18.json,http://54.235.29.9/FacialAge/BNav_EC2/DepthDuration/v2_depth_duration_MTurk/v2_DepthDuration_HTML.html#436,436,1536,864,1536,864,9-3-2022,9-8-44,4,depth_duration_stimuli/002657_2014-06-13_15-29-54_094959634447_rgbf000150-resize_1/002657_2014-06-13_15-29-54_094959634447_rgbf000150-resize_1-target.png,1000,4.919,10,6018,1010,feet,jsons/v1_VE1000_randls_18.json,757067,925697,40,Man
4,100413,DepthScenes,duration_manipulation_targetAtFixation,jsons/v1_VE1000_randls_18.json,http://54.235.29.9/FacialAge/BNav_EC2/DepthDuration/v2_depth_duration_MTurk/v2_DepthDuration_HTML.html#436,436,1536,864,1536,864,9-3-2022,9-8-44,5,depth_duration_stimuli/001110_2014-06-15_17-25-28_260595134347_rgbf000150-resize_1/001110_2014-06-15_17-25-28_260595134347_rgbf000150-resize_1-target.png,1000,1.7115,5,3576,979,feet,jsons/v1_VE1000_randls_18.json,757067,925697,40,Man
5,100413,DepthScenes,duration_manipulation_targetAtFixation,jsons/v1_VE1000_randls_18.json,http://54.235.29.9/FacialAge/BNav_EC2/DepthDuration/v2_depth_duration_MTurk/v2_DepthDuration_HTML.html#436,436,1536,864,1536,864,9-3-2022,9-8-44,6,depth_duration_stimuli/000927_2014-06-09_16-32-30_260595134347_rgbf000123-resize_3/000927_2014-06-09_16-32-30_260595134347_rgbf000123-resize_3-target.png,1000,2.6785,6,3398,994,feet,jsons/v1_VE1000_randls_18.json,757067,925697,40,Man
6,100413,DepthScenes,duration_manipulation_targetAtFixation,jsons/v1_VE1000_randls_18.json,http://54.235.29.9/FacialAge/BNav_EC2/DepthDuration/v2_depth_duration_MTurk/v2_DepthDuration_HTML.html#436,436,1536,864,1536,864,9-3-2022,9-8-44,7,depth_duration_stimuli/000692_2014-06-08_13-09-42_260595134347_rgbf000199-resize_2/000692_2014-06-08_13-09-42_260595134347_rgbf000199-resize_2-target.png,1000,3.661,10,3964,1009,feet,jsons/v1_VE1000_randls_18.json,757067,925697,40,Man
7,100413,DepthScenes,duration_manipulation_targetAtFixation,jsons/v1_VE1000_randls_18.json,http://54.235.29.9/FacialAge/BNav_EC2/DepthDuration/v2_depth_duration_MTurk/v2_DepthDuration_HTML.html#436,436,1536,864,1536,864,9-3-2022,9-8-44,8,depth_duration_stimuli/001094_2014-06-15_17-36-00_260595134347_rgbf000205-resize_0/001094_2014-06-15_17-36-00_260595134347_rgbf000205-resize_0-target.png,1000,4.2175,12,3969,990,feet,jsons/v1_VE1000_randls_18.json,757067,925697,40,Man
8,100413,DepthScenes,duration_manipulation_targetAtFixation,jsons/v1_VE1000_randls_18.json,http://54.235.29.9/FacialAge/BNav_EC2/DepthDuration/v2_depth_duration_MTurk/v2_DepthDuration_HTML.html#436,436,1536,864,1536,864,9-3-2022,9-8-44,9,depth_duration_stimuli/001417_2014-06-19_16-25-36_260595134347_rgbf000115-resize_5/001417_2014-06-19_16-25-36_260595134347_rgbf000115-resize_5-target.png,1000,4.6255,8,3601,994,feet,jsons/v1_VE1000_randls_18.json,757067,925697,40,Man
9,100413,DepthScenes,duration_manipulation_targetAtFixation,jsons/v1_VE1000_randls_18.json,http://54.235.29.9/FacialAge/BNav_EC2/DepthDuration/v2_depth_duration_MTurk/v2_DepthDuration_HTML.html#436,436,1536,864,1536,864,9-3-2022,9-8-44,10,depth_duration_stimuli/003081_2014-06-15_15-19-16_094959634447_rgbf000150-resize_1/003081_2014-06-15_15-19-16_094959634447_rgbf000150-resize_1-target.png,1000,3.9125,8,3821,992,feet,jsons/v1_VE1000_randls_18.json,757067,925697,40,Man
10,100413,DepthScenes,duration_manipulation_targetAtFixation,jsons/v1_VE1000_randls_18.json,http://54.235.29.9/FacialAge/BNav_EC2/DepthDuration/v2_depth_duration_MTurk/v2_DepthDuration_HTML.html#436,436,1536,864,1536,864,9-3-2022,9-8-44,11,depth_duration_stimuli/001055_2014-06-08_18-45-35_260595134347_rgbf000111-resize_4/001055_2014-06-08_18-45-35_260595134347_rgbf000111-resize_4-target.png,1000,2.4290000000000003,6,3749,992,feet,jsons/v1_VE1000_randls_18.json,757067,925697,40,Man
11,100413,DepthScenes,duration_manipulation_targetAtFixation,jsons/v1_VE1000_randls_18.json,http://54.235.29.9/FacialAge/BNav_EC2/DepthDuration/v2_depth_duration_MTurk/v2_DepthDuration_HTML.html#436,436,1536,864,1536,864,9-3-2022,9-8-44,12,depth_duration_stimuli/000549_2014-06-08_22-10-24_260595134347_rgbf000247-resize_3/000549_2014-06-08_22-10-24_260595134347_rgbf000247-resize_3-target.png,1000,1.841,3,3507,1000,feet,jsons/v1_VE1000_randls_18.json,757067,925697,40,Man
12,100413,DepthScenes,duration_manipulation_targetAtFixation,jsons/v1_VE1000_randls_18.json,http://54.235.29.9/FacialAge/BNav_EC2/DepthDuration/v2_depth_duration_MTurk/v2_DepthDuration_HTML.html#436,436,1536,864,1536,864,9-3-2022,9-8-44,13,depth_duration_stimuli/000569_2014-06-09_22-51-47_260595134347_rgbf000141-resize_3/000569_2014-06-09_22-51-47_260595134347_rgbf000141-resize-original.jpg,1000,4.512,0,3854,988,feet,jsons/v1_VE1000_randls_18.json,757067,925697,40,Man
13,100413,DepthScenes,duration_manipulation_targetAtFixation,jsons/v1_VE1000_randls_18.json,http://54.235.29.9/FacialAge/BNav_EC2/DepthDuration/v2_depth_duration_MTurk/v2_DepthDuration_HTML.html#436,436,1536,864,1536,864,9-3-2022,9-8-44,14,depth_duration_stimuli/001175_2014-06-17_15-45-55_260595134347_rgbf000129-resize_4/001175_2014-06-17_15-45-55_260595134347_rgbf000129-resize_4-target.png,1000,4.255,12,3818,999,feet,jsons/v1_VE1000_randls_18.json,757067,925697,40,Man
14,100413,DepthScenes,duration_manipulation_targetAtFixation,jsons/v1_VE1000_randls_18.json,http://54.235.29.9/FacialAge/BNav_EC2/DepthDuration/v2_depth_duration_MTurk/v2_DepthDuration_HTML.html#436,436,1536,864,1536,864,9-3-2022,9-8-44,15,depth_duration_stimuli/003490_2014-05-21_15-50-11_094959634447_rgbf000101-resize_3/003490_2014-05-21_15-50-11_094959634447_rgbf000101-resize_3-target.png,1000,3.6445,6,4301,993,feet,jsons/v1_VE1000_randls_18.json,757067,925697,40,Man
15,100413,DepthScenes,duration_manipulation_targetAtFixation,jsons/v1_VE1000_randls_18.json,http://54.235.29.9/FacialAge/BNav_EC2/DepthDuration/v2_depth_duration_MTurk/v2_DepthDuration_HTML.html#436,436,1536,864,1536,864,9-3-2022,9-8-44,16,depth_duration_stimuli/000788_2014-06-08_22-34-36_260595134347_rgbf000131-resize_1/000788_2014-06-08_22-34-36_260595134347_rgbf000131-resize_1-target.png,1000,3.359,7,4162,1007,feet,jsons/v1_VE1000_randls_18.json,757067,925697,40,Man
16,100413,DepthScenes,duration_manipulation_targetAtFixation,jsons/v1_VE1000_randls_18.json,http://54.235.29.9/FacialAge/BNav_EC2/DepthDuration/v2_depth_duration_MTurk/v2_DepthDuration_HTML.html#436,436,1536,864,1536,864,9-3-2022,9-8-44,17,depth_duration_stimuli/001235_2014-06-17_16-37-36_260595134347_rgbf000084-resize_4/001235_2014-06-17_16-37-36_260595134347_rgbf000084-resize_4-target.png,1000,3.6605,6,3582,1008,feet,jsons/v1_VE1000_randls_18.json,757067,925697,40,Man
17,100413,DepthScenes,duration_manipulation_targetAtFixation,jsons/v1_VE1000_randls_18.json,http://54.235.29.9/FacialAge/BNav_EC2/DepthDuration/v2_depth_duration_MTurk/v2_DepthDuration_HTML.html#436,436,1536,864,1536,864,9-3-2022,9-8-44,18,depth_duration_stimuli/000436_2014-06-09_22-25-11_260595134347_rgbf000137-resize_1/000436_2014-06-09_22-25-11_260595134347_rgbf000137-resize_1-target.png,1000,4.0705,12,3850,996,feet,jsons/v1_VE1000_randls_18.json,757067,925697,40,Man
18,100413,DepthScenes,duration_manipulation_targetAtFixation,jsons/v1_VE1000_randls_18.json,http://54.235.29.9/FacialAge/BNav_EC2/DepthDuration/v2_depth_duration_MTurk/v2_DepthDuration_HTML.html#436,436,1536,864,1536,864,9-3-2022,9-8-44,19,depth_duration_stimuli/002444_2014-06-28_20-32-08_260595134347_rgbf000027-resize_0/002444_2014-06-28_20-32-08_260595134347_rgbf000027-resize_0-target.png,1000,4.388999999999999,10,4050,989,feet,jsons/v1_VE1000_randls_18.json,757067,925697,40,Man
19,100413,DepthScenes,duration_manipulation_targetAtFixation,jsons/v1_VE1000_randls_18.json,http://54.235.29.9/FacialAge/BNav_EC2/DepthDuration/v2_depth_duration_MTurk/v2_DepthDuration_HTML.html#436,436,1536,864,1536,864,9-3-2022,9-8-44,20,depth_duration_stimuli/002570_2014-06-24_13-59-54_094959634447_rgbf000059-resize_0/002570_2014-06-24_13-59-54_094959634447_rgbf000059-resize_0-target.png,1000,4.037,6,4300,1000,feet,jsons/v1_VE1000_randls_18.json,757067,925697,40,Man
20,100413,DepthScenes,duration_manipulation_targetAtFixation,jsons/v1_VE1000_randls_18.json,http://54.235.29.9/FacialAge/BNav_EC2/DepthDuration/v2_depth_duration_MTurk/v2_DepthDuration_HTML.html#436,436,1536,864,1536,864,9-3-2022,9-8-44,21,depth_duration_stimuli/002467_2014-06-28_20-38-07_260595134347_rgbf000026-resize_2/002467_2014-06-28_20-38-07_260595134347_rgbf000026-resize_2-target.png,1000,4.742,10,3989,995,feet,jsons/v1_VE1000_randls_18.json,757067,925697,40,Man
21,100413,DepthScenes,duration_manipulation_targetAtFixation,jsons/v1_VE1000_randls_18.json,http://54.235.29.9/FacialAge/BNav_EC2/DepthDuration/v2_depth_duration_MTurk/v2_DepthDuration_HTML.html#436,436,1536,864,1536,864,9-3-2022,9-8-44,22,depth_duration_stimuli/002988_2014-06-15_12-24-20_094959634447_rgbf000150-resize_1/002988_2014-06-15_12-24-20_094959634447_rgbf000150-resize_1-target.png,1000,4.7669999999999995,12,3847,1001,feet,jsons/v1_VE1000_randls_18.json,757067,925697,40,Man
22,100413,DepthScenes,duration_manipulation_targetAtFixation,jsons/v1_VE1000_randls_18.json,http://54.235.29.9/FacialAge/BNav_EC2/DepthDuration/v2_depth_duration_MTurk/v2_DepthDuration_HTML.html#436,436,1536,864,1536,864,9-3-2022,9-8-44,23,depth_duration_stimuli/001052_2014-06-08_18-24-54_260595134347_rgbf000130-resize_1/001052_2014-06-08_18-24-54_260595134347_rgbf000130-resize_1-target.png,1000,4.1045,8,3594,1005,feet,jsons/v1_VE1000_randls_18.json,757067,925697,40,Man
23,100413,DepthScenes,duration_manipulation_targetAtFixation,jsons/v1_VE1000_randls_18.json,http://54.235.29.9/FacialAge/BNav_EC2/DepthDuration/v2_depth_duration_MTurk/v2_DepthDuration_HTML.html#436,436,1536,864,1536,864,9-3-2022,9-8-44,24,depth_duration_stimuli/000739_2014-06-08_18-45-58_260595134347_rgbf000068-resize_1/000739_2014-06-08_18-45-58_260595134347_rgbf000068-resize_1-target.png,1000,3.534,6,3727,1001,feet,jsons/v1_VE1000_randls_18.json,757067,925697,40,Man
24,100413,DepthScenes,duration_manipulation_targetAtFixation,jsons/v1_VE1000_randls_18.json,http://54.235.29.9/FacialAge/BNav_EC2/DepthDuration/v2_depth_duration_MTurk/v2_DepthDuration_HTML.html#436,436,1536,864,1536,864,9-3-2022,9-8-44,25,depth_duration_stimuli/000734_2014-06-08_17-39-11_260595134347_rgbf000128-resize_2/000734_2014-06-08_17-39-11_260595134347_rgbf000128-resize_2-target.png,1000,4.098,5,4456,1014,feet,jsons/v1_VE1000_randls_18.json,757067,925697,40,Man
25,100413,DepthScenes,duration_manipulation_targetAtFixation,jsons/v1_VE1000_randls_18.json,http://54.235.29.9/FacialAge/BNav_EC2/DepthDuration/v2_depth_duration_MTurk/v2_DepthDuration_HTML.html#436,436,1536,864,1536,864,9-3-2022,9-8-44,26,depth_duration_stimuli/002279_2014-06-28_18-55-32_260595134347_rgbf000040-resize_5/002279_2014-06-28_18-55-32_260595134347_rgbf000040-resize_5-target.png,1000,1.5043333333333,3,3274,987,feet,jsons/v1_VE1000_randls_18.json,757067,925697,40,Man
26,100413,DepthScenes,duration_manipulation_targetAtFixation,jsons/v1_VE1000_randls_18.json,http://54.235.29.9/FacialAge/BNav_EC2/DepthDuration/v2_depth_duration_MTurk/v2_DepthDuration_HTML.html#436,436,1536,864,1536,864,9-3-2022,9-8-44,27,depth_duration_stimuli/000635_2014-06-08_16-38-42_260595134347_rgbf000106-resize_1/000635_2014-06-08_16-38-42_260595134347_rgbf000106-resize_1-target.png,1000,2.074,5,3316,989,feet,jsons/v1_VE1000_randls_18.json,757067,925697,40,Man
27,100413,DepthScenes,duration_manipulation_targetAtFixation,jsons/v1_VE1000_randls_18.json,http://54.235.29.9/FacialAge/BNav_EC2/DepthDuration/v2_depth_duration_MTurk/v2_DepthDuration_HTML.html#436,436,1536,864,1536,864,9-3-2022,9-8-44,28,depth_duration_stimuli/001133_2014-06-17_14-49-16_260595134347_rgbf000100-resize_0/001133_2014-06-17_14-49-16_260595134347_rgbf000100-resize_0-target.png,1000,4.2115,8,3678,997,feet,jsons/v1_VE1000_randls_18.json,757067,925697,40,Man
28,100413,DepthScenes,duration_manipulation_targetAtFixation,jsons/v1_VE1000_randls_18.json,http://54.235.29.9/FacialAge/BNav_EC2/DepthDuration/v2_depth_duration_MTurk/v2_DepthDuration_HTML.html#436,436,1536,864,1536,864,9-3-2022,9-8-44,29,depth_duration_stimuli/001132_2014-06-17_14-48-54_260595134347_rgbf000100-resize_2/001132_2014-06-17_14-48-54_260595134347_rgbf000100-resize_2-target.png,1000,3.753,8,4071,1004,feet,jsons/v1_VE1000_randls_18.json,757067,925697,40,Man
29,100413,DepthScenes,duration_manipulation_targetAtFixation,jsons/v1_VE1000_randls_18.json,http://54.235.29.9/FacialAge/BNav_EC2/DepthDuration/v2_depth_duration_MTurk/v2_DepthDuration_HTML.html#436,436,1536,864,1536,864,9-3-2022,9-8-44,30,depth_duration_stimuli/000375_2014-06-08_11-17-29_260595134347_rgbf000133-resize_2/000375_2014-06-08_11-17-29_260595134347_rgbf000133-resize-original.jpg,1000,4.718,0,3360,1001,feet,jsons/v1_VE1000_randls_18.json,757067,925697,40,Man
30,100413,DepthScenes,duration_manipulation_targetAtFixation,jsons/v1_VE1000_randls_18.json,http://54.235.29.9/FacialAge/BNav_EC2/DepthDuration/v2_depth_duration_MTurk/v2_DepthDuration_HTML.html#436,436,1536,864,1536,864,9-3-2022,9-8-44,31,depth_duration_stimuli/001029_2014-06-08_13-17-57_260595134347_rgbf000065-resize_1/001029_2014-06-08_13-17-57_260595134347_rgbf000065-resize_1-target.png,1000,3.0835,5,3573,1008,feet,jsons/v1_VE1000_randls_18.json,757067,925697,40,Man
31,100413,DepthScenes,duration_manipulation_targetAtFixation,jsons/v1_VE1000_randls_18.json,http://54.235.29.9/FacialAge/BNav_EC2/DepthDuration/v2_depth_duration_MTurk/v2_DepthDuration_HTML.html#436,436,1536,864,1536,864,9-3-2022,9-8-44,32,depth_duration_stimuli/000677_2014-06-08_23-10-32_260595134347_rgbf000158-resize_6/000677_2014-06-08_23-10-32_260595134347_rgbf000158-resize_6-target.png,1000,3.556,5,3654,991,feet,jsons/v1_VE1000_randls_18.json,757067,925697,40,Man
32,100413,DepthScenes,duration_manipulation_targetAtFixation,jsons/v1_VE1000_randls_18.json,http://54.235.29.9/FacialAge/BNav_EC2/DepthDuration/v2_depth_duration_MTurk/v2_DepthDuration_HTML.html#436,436,1536,864,1536,864,9-3-2022,9-8-44,33,depth_duration_stimuli/001066_2014-06-08_22-03-20_260595134347_rgbf000066-resize_4/001066_2014-06-08_22-03-20_260595134347_rgbf000066-resize_4-target.png,1000,4.2330000000000005,15,4329,1002,feet,jsons/v1_VE1000_randls_18.json,757067,925697,40,Man
33,100413,DepthScenes,duration_manipulation_targetAtFixation,jsons/v1_VE1000_randls_18.json,http://54.235.29.9/FacialAge/BNav_EC2/DepthDuration/v2_depth_duration_MTurk/v2_DepthDuration_HTML.html#436,436,1536,864,1536,864,9-3-2022,9-8-44,34,depth_duration_stimuli/000742_2014-06-08_18-48-09_260595134347_rgbf000164-resize_4/000742_2014-06-08_18-48-09_260595134347_rgbf000164-resize_4-target.png,1000,4.632,10,4615,998,feet,jsons/v1_VE1000_randls_18.json,757067,925697,40,Man
34,100413,DepthScenes,duration_manipulation_targetAtFixation,jsons/v1_VE1000_randls_18.json,http://54.235.29.9/FacialAge/BNav_EC2/DepthDuration/v2_depth_duration_MTurk/v2_DepthDuration_HTML.html#436,436,1536,864,1536,864,9-3-2022,9-8-44,35,depth_duration_stimuli/001059_2014-06-08_21-53-27_260595134347_rgbf000061-resize_4/001059_2014-06-08_21-53-27_260595134347_rgbf000061-resize_4-target.png,1000,2.4185,5,3424,994,feet,jsons/v1_VE1000_randls_18.json,757067,925697,40,Man
35,100413,DepthScenes,duration_manipulation_targetAtFixation,jsons/v1_VE1000_randls_18.json,http://54.235.29.9/FacialAge/BNav_EC2/DepthDuration/v2_depth_duration_MTurk/v2_DepthDuration_HTML.html#436,436,1536,864,1536,864,9-3-2022,9-8-44,36,depth_duration_stimuli/001032_2014-06-08_13-23-17_260595134347_rgbf000021-resize_3/001032_2014-06-08_13-23-17_260595134347_rgbf000021-resize_3-target.png,1000,3.2725,5,3836,992,feet,jsons/v1_VE1000_randls_18.json,757067,925697,40,Man
36,100413,DepthScenes,duration_manipulation_targetAtFixation,jsons/v1_VE1000_randls_18.json,http://54.235.29.9/FacialAge/BNav_EC2/DepthDuration/v2_depth_duration_MTurk/v2_DepthDuration_HTML.html#436,436,1536,864,1536,864,9-3-2022,9-8-44,37,depth_duration_stimuli/000506_2014-06-08_23-21-00_260595134347_rgbf000070-resize_7/000506_2014-06-08_23-21-00_260595134347_rgbf000070-resize_7-target.png,1000,4.0585,8,3634,1001,feet,jsons/v1_VE1000_randls_18.json,757067,925697,40,Man
37,100413,DepthScenes,duration_manipulation_targetAtFixation,jsons/v1_VE1000_randls_18.json,http://54.235.29.9/FacialAge/BNav_EC2/DepthDuration/v2_depth_duration_MTurk/v2_DepthDuration_HTML.html#436,436,1536,864,1536,864,9-3-2022,9-8-44,38,depth_duration_stimuli/003079_2014-06-15_15-18-20_094959634447_rgbf000152-resize_8/003079_2014-06-15_15-18-20_094959634447_rgbf000152-resize_8-target.png,1000,2.8775,5,4002,1007,feet,jsons/v1_VE1000_randls_18.json,757067,925697,40,Man
38,100413,DepthScenes,duration_manipulation_targetAtFixation,jsons/v1_VE1000_randls_18.json,http://54.235.29.9/FacialAge/BNav_EC2/DepthDuration/v2_depth_duration_MTurk/v2_DepthDuration_HTML.html#436,436,1536,864,1536,864,9-3-2022,9-8-44,39,depth_duration_stimuli/001056_2014-06-08_18-46-44_260595134347_rgbf000068-resize_0/001056_2014-06-08_18-46-44_260595134347_rgbf000068-resize_0-target.png,1000,2.6625,6,3742,1001,feet,jsons/v1_VE1000_randls_18.json,757067,925697,40,Man
39,100413,DepthScenes,duration_manipulation_targetAtFixation,jsons/v1_VE1000_randls_18.json,http://54.235.29.9/FacialAge/BNav_EC2/DepthDuration/v2_depth_duration_MTurk/v2_DepthDuration_HTML.html#436,436,1536,864,1536,864,9-3-2022,9-8-44,40,depth_duration_stimuli/002199_2014-06-28_18-33-56_260595134347_rgbf000074-resize_0/002199_2014-06-28_18-33-56_260595134347_rgbf000074-resize_0-target.png,1000,1.996,2,3227,1001,feet,jsons/v1_VE1000_randls_18.json,757067,925697,40,Man
40,100413,DepthScenes,duration_manipulation_targetAtFixation,jsons/v1_VE1000_randls_18.json,http://54.235.29.9/FacialAge/BNav_EC2/DepthDuration/v2_depth_duration_MTurk/v2_DepthDuration_HTML.html#436,436,1536,864,1536,864,9-3-2022,9-8-44,41,depth_duration_stimuli/000368_2014-06-09_15-53-01_260595134347_rgbf000155-resize_2/000368_2014-06-09_15-53-01_260595134347_rgbf000155-resize_2-target.png,1000,2.4859999999999998,4,3442,1010,feet,jsons/v1_VE1000_randls_18.json,757067,925697,40,Man
41,100413,DepthScenes,duration_manipulation_targetAtFixation,jsons/v1_VE1000_randls_18.json,http://54.235.29.9/FacialAge/BNav_EC2/DepthDuration/v2_depth_duration_MTurk/v2_DepthDuration_HTML.html#436,436,1536,864,1536,864,9-3-2022,9-8-44,42,depth_duration_stimuli/002678_2014-06-13_16-15-32_094959634447_rgbf000151-resize_6/002678_2014-06-13_16-15-32_094959634447_rgbf000151-resize_6-target.png,1000,2.1830000000000003,5,3547,996,feet,jsons/v1_VE1000_randls_18.json,757067,925697,40,Man
42,100413,DepthScenes,duration_manipulation_targetAtFixation,jsons/v1_VE1000_randls_18.json,http://54.235.29.9/FacialAge/BNav_EC2/DepthDuration/v2_depth_duration_MTurk/v2_DepthDuration_HTML.html#436,436,1536,864,1536,864,9-3-2022,9-8-44,43,depth_duration_stimuli/001016_2014-06-09_16-16-10_260595134347_rgbf000112-resize_5/001016_2014-06-09_16-16-10_260595134347_rgbf000112-resize_5-target.png,1000,1.6565,5,3406,1000,feet,jsons/v1_VE1000_randls_18.json,757067,925697,40,Man
43,100413,DepthScenes,duration_manipulation_targetAtFixation,jsons/v1_VE1000_randls_18.json,http://54.235.29.9/FacialAge/BNav_EC2/DepthDuration/v2_depth_duration_MTurk/v2_DepthDuration_HTML.html#436,436,1536,864,1536,864,9-3-2022,9-8-44,44,depth_duration_stimuli/002340_2014-06-28_20-05-46_260595134347_rgbf000113-resize_0/002340_2014-06-28_20-05-46_260595134347_rgbf000113-resize_0-target.png,1000,2.4735,8,3641,1008,feet,jsons/v1_VE1000_randls_18.json,757067,925697,40,Man
44,100413,DepthScenes,duration_manipulation_targetAtFixation,jsons/v1_VE1000_randls_18.json,http://54.235.29.9/FacialAge/BNav_EC2/DepthDuration/v2_depth_duration_MTurk/v2_DepthDuration_HTML.html#436,436,1536,864,1536,864,9-3-2022,9-8-44,45,depth_duration_stimuli/000787_2014-06-08_22-33-53_260595134347_rgbf000175-resize_1/000787_2014-06-08_22-33-53_260595134347_rgbf000175-resize-original.jpg,1000,4.784,0,3448,1008,feet,jsons/v1_VE1000_randls_18.json,757067,925697,40,Man
45,100413,DepthScenes,duration_manipulation_targetAtFixation,jsons/v1_VE1000_randls_18.json,http://54.235.29.9/FacialAge/BNav_EC2/DepthDuration/v2_depth_duration_MTurk/v2_DepthDuration_HTML.html#436,436,1536,864,1536,864,9-3-2022,9-8-44,46,depth_duration_stimuli/000929_2014-06-09_16-33-19_260595134347_rgbf000139-resize_0/000929_2014-06-09_16-33-19_260595134347_rgbf000139-resize_0-target.png,1000,2.8680000000000003,4,4534,997,feet,jsons/v1_VE1000_randls_18.json,757067,925697,40,Man
46,100413,DepthScenes,duration_manipulation_targetAtFixation,jsons/v1_VE1000_randls_18.json,http://54.235.29.9/FacialAge/BNav_EC2/DepthDuration/v2_depth_duration_MTurk/v2_DepthDuration_HTML.html#436,436,1536,864,1536,864,9-3-2022,9-8-44,47,depth_duration_stimuli/000457_2014-06-08_16-52-43_260595134347_rgbf000199-resize_1/000457_2014-06-08_16-52-43_260595134347_rgbf000199-resize_1-target.png,1000,3.6489999999999996,4,4017,989,feet,jsons/v1_VE1000_randls_18.json,757067,925697,40,Man
47,100413,DepthScenes,duration_manipulation_targetAtFixation,jsons/v1_VE1000_randls_18.json,http://54.235.29.9/FacialAge/BNav_EC2/DepthDuration/v2_depth_duration_MTurk/v2_DepthDuration_HTML.html#436,436,1536,864,1536,864,9-3-2022,9-8-44,48,depth_duration_stimuli/000522_2014-06-08_13-35-06_260595134347_rgbf000244-resize_1/000522_2014-06-08_13-35-06_260595134347_rgbf000244-resize_1-target.png,1000,2.3715,1,3654,999,feet,jsons/v1_VE1000_randls_18.json,757067,925697,40,Man
48,100413,DepthScenes,duration_manipulation_targetAtFixation,jsons/v1_VE1000_randls_18.json,http://54.235.29.9/FacialAge/BNav_EC2/DepthDuration/v2_depth_duration_MTurk/v2_DepthDuration_HTML.html#436,436,1536,864,1536,864,9-3-2022,9-8-44,49,depth_duration_stimuli/002949_2014-06-26_15-57-42_094959634447_rgbf000079-resize_1/002949_2014-06-26_15-57-42_094959634447_rgbf000079-resize_1-target.png,1000,1.8915,3,4071,1004,feet,jsons/v1_VE1000_randls_18.json,757067,925697,40,Man
49,100413,DepthScenes,duration_manipulation_targetAtFixation,jsons/v1_VE1000_randls_18.json,http://54.235.29.9/FacialAge/BNav_EC2/DepthDuration/v2_depth_duration_MTurk/v2_DepthDuration_HTML.html#436,436,1536,864,1536,864,9-3-2022,9-8-44,50,depth_duration_stimuli/000414_2014-06-04_19-49-13_260595134347_rgbf000044-resize_0/000414_2014-06-04_19-49-13_260595134347_rgbf000044-resize_0-target.png,1000,4.329,8,5321,1007,feet,jsons/v1_VE1000_randls_18.json,757067,925697,40,Man
50,100413,DepthScenes,duration_manipulation_targetAtFixation,jsons/v1_VE1000_randls_18.json,http://54.235.29.9/FacialAge/BNav_EC2/DepthDuration/v2_depth_duration_MTurk/v2_DepthDuration_HTML.html#436,436,1536,864,1536,864,9-3-2022,9-8-44,51,depth_duration_stimuli/003129_2014-05-12_10-48-10_094959634447_rgbf000100-resize_0/003129_2014-05-12_10-48-10_094959634447_rgbf000100-resize_0-target.png,1000,4.9305,10,5142,1003,feet,jsons/v1_VE1000_randls_18.json,757067,925697,40,Man
51,100413,DepthScenes,duration_manipulation_targetAtFixation,jsons/v1_VE1000_randls_18.json,http://54.235.29.9/FacialAge/BNav_EC2/DepthDuration/v2_depth_duration_MTurk/v2_DepthDuration_HTML.html#436,436,1536,864,1536,864,9-3-2022,9-8-44,52,depth_duration_stimuli/000758_2014-06-08_22-05-08_260595134347_rgbf000085-resize_0/000758_2014-06-08_22-05-08_260595134347_rgbf000085-resize_0-target.png,1000,3.3810000000000002,10,3938,996,feet,jsons/v1_VE1000_randls_18.json,757067,925697,40,Man
52,100413,DepthScenes,duration_manipulation_targetAtFixation,jsons/v1_VE1000_randls_18.json,http://54.235.29.9/FacialAge/BNav_EC2/DepthDuration/v2_depth_duration_MTurk/v2_DepthDuration_HTML.html#436,436,1536,864,1536,864,9-3-2022,9-8-44,53,depth_duration_stimuli/000854_2014-06-09_19-43-13_260595134347_rgbf000066-resize_0/000854_2014-06-09_19-43-13_260595134347_rgbf000066-resize_0-target.png,1000,3.068,4,3399,1007,feet,jsons/v1_VE1000_randls_18.json,757067,925697,40,Man
53,100413,DepthScenes,duration_manipulation_targetAtFixation,jsons/v1_VE1000_randls_18.json,http://54.235.29.9/FacialAge/BNav_EC2/DepthDuration/v2_depth_duration_MTurk/v2_DepthDuration_HTML.html#436,436,1536,864,1536,864,9-3-2022,9-8-44,54,depth_duration_stimuli/000486_2014-06-09_20-47-20_260595134347_rgbf000143-resize_2/000486_2014-06-09_20-47-20_260595134347_rgbf000143-resize_2-target.png,1000,4.8325,4,5067,992,feet,jsons/v1_VE1000_randls_18.json,757067,925697,40,Man
54,100413,DepthScenes,duration_manipulation_targetAtFixation,jsons/v1_VE1000_randls_18.json,http://54.235.29.9/FacialAge/BNav_EC2/DepthDuration/v2_depth_duration_MTurk/v2_DepthDuration_HTML.html#436,436,1536,864,1536,864,9-3-2022,9-8-44,55,depth_duration_stimuli/003083_2014-06-15_15-21-03_094959634447_rgbf000063-resize_1/003083_2014-06-15_15-21-03_094959634447_rgbf000063-resize_1-target.png,1000,4.1405,8,4258,1001,feet,jsons/v1_VE1000_randls_18.json,757067,925697,40,Man
55,100413,DepthScenes,duration_manipulation_targetAtFixation,jsons/v1_VE1000_randls_18.json,http://54.235.29.9/FacialAge/BNav_EC2/DepthDuration/v2_depth_duration_MTurk/v2_DepthDuration_HTML.html#436,436,1536,864,1536,864,9-3-2022,9-8-44,56,depth_duration_stimuli/000773_2014-06-08_22-24-54_260595134347_rgbf000093-resize_1/000773_2014-06-08_22-24-54_260595134347_rgbf000093-resize_1-target.png,1000,4.973,8,4112,989,feet,jsons/v1_VE1000_randls_18.json,757067,925697,40,Man
56,100413,DepthScenes,duration_manipulation_targetAtFixation,jsons/v1_VE1000_randls_18.json,http://54.235.29.9/FacialAge/BNav_EC2/DepthDuration/v2_depth_duration_MTurk/v2_DepthDuration_HTML.html#436,436,1536,864,1536,864,9-3-2022,9-8-44,57,depth_duration_stimuli/002414_2014-06-28_20-24-58_260595134347_rgbf000067-resize_4/002414_2014-06-28_20-24-58_260595134347_rgbf000067-resize_4-target.png,1000,4.363,5,3952,993,feet,jsons/v1_VE1000_randls_18.json,757067,925697,40,Man
57,100413,DepthScenes,duration_manipulation_targetAtFixation,jsons/v1_VE1000_randls_18.json,http://54.235.29.9/FacialAge/BNav_EC2/DepthDuration/v2_depth_duration_MTurk/v2_DepthDuration_HTML.html#436,436,1536,864,1536,864,9-3-2022,9-8-44,58,depth_duration_stimuli/000493_2014-06-09_21-01-18_260595134347_rgbf000196-resize_3/000493_2014-06-09_21-01-18_260595134347_rgbf000196-resize_3-target.png,1000,3.44,4,3998,999,feet,jsons/v1_VE1000_randls_18.json,757067,925697,40,Man
58,100413,DepthScenes,duration_manipulation_targetAtFixation,jsons/v1_VE1000_randls_18.json,http://54.235.29.9/FacialAge/BNav_EC2/DepthDuration/v2_depth_duration_MTurk/v2_DepthDuration_HTML.html#436,436,1536,864,1536,864,9-3-2022,9-8-44,59,depth_duration_stimuli/000191_2014-05-12_17-07-38_260595134347_rgbf000199-resize_0/000191_2014-05-12_17-07-38_260595134347_rgbf000199-resize_0-target.png,1000,3.7995,6,3677,995,feet,jsons/v1_VE1000_randls_18.json,757067,925697,40,Man
59,100413,DepthScenes,duration_manipulation_targetAtFixation,jsons/v1_VE1000_randls_18.json,http://54.235.29.9/FacialAge/BNav_EC2/DepthDuration/v2_depth_duration_MTurk/v2_DepthDuration_HTML.html#436,436,1536,864,1536,864,9-3-2022,9-8-44,60,depth_duration_stimuli/002153_2014-06-25_21-27-18_260595134347_rgbf000038-resize_5/002153_2014-06-25_21-27-18_260595134347_rgbf000038-resize_5-target.png,1000,2.505,4,3625,985,feet,jsons/v1_VE1000_randls_18.json,757067,925697,40,Man
60,100413,DepthScenes,duration_manipulation_targetAtFixation,jsons/v1_VE1000_randls_18.json,http://54.235.29.9/FacialAge/BNav_EC2/DepthDuration/v2_depth_duration_MTurk/v2_DepthDuration_HTML.html#436,436,1536,864,1536,864,9-3-2022,9-8-44,61,depth_duration_stimuli/002660_2014-06-13_15-44-18_094959634447_rgbf001878-resize_2/002660_2014-06-13_15-44-18_094959634447_rgbf001878-resize_2-target.png,1000,3.576,6,4573,999,feet,jsons/v1_VE1000_randls_18.json,757067,925697,40,Man
61,100413,DepthScenes,duration_manipulation_targetAtFixation,jsons/v1_VE1000_randls_18.json,http://54.235.29.9/FacialAge/BNav_EC2/DepthDuration/v2_depth_duration_MTurk/v2_DepthDuration_HTML.html#436,436,1536,864,1536,864,9-3-2022,9-8-44,62,depth_duration_stimuli/002748_2014-06-22_19-07-22_094959634447_rgbf000078-resize_1/002748_2014-06-22_19-07-22_094959634447_rgbf000078-resize_1-target.png,1000,4.6705,10,3980,1011,feet,jsons/v1_VE1000_randls_18.json,757067,925697,40,Man
62,100413,DepthScenes,duration_manipulation_targetAtFixation,jsons/v1_VE1000_randls_18.json,http://54.235.29.9/FacialAge/BNav_EC2/DepthDuration/v2_depth_duration_MTurk/v2_DepthDuration_HTML.html#436,436,1536,864,1536,864,9-3-2022,9-8-44,63,depth_duration_stimuli/002995_2014-06-15_12-31-26_094959634447_rgbf000150-resize_1/002995_2014-06-15_12-31-26_094959634447_rgbf000150-resize_1-target.png,1000,3.8360000000000003,10,4231,998,feet,jsons/v1_VE1000_randls_18.json,757067,925697,40,Man
63,100413,DepthScenes,duration_manipulation_targetAtFixation,jsons/v1_VE1000_randls_18.json,http://54.235.29.9/FacialAge/BNav_EC2/DepthDuration/v2_depth_duration_MTurk/v2_DepthDuration_HTML.html#436,436,1536,864,1536,864,9-3-2022,9-8-44,64,depth_duration_stimuli/001092_2014-06-15_17-34-58_260595134347_rgbf000171-resize_3/001092_2014-06-15_17-34-58_260595134347_rgbf000171-resize_3-target.png,1000,2.6935,3,3603,995,feet,jsons/v1_VE1000_randls_18.json,757067,925697,40,Man
64,100413,DepthScenes,duration_manipulation_targetAtFixation,jsons/v1_VE1000_randls_18.json,http://54.235.29.9/FacialAge/BNav_EC2/DepthDuration/v2_depth_duration_MTurk/v2_DepthDuration_HTML.html#436,436,1536,864,1536,864,9-3-2022,9-8-44,65,depth_duration_stimuli/002545_2014-06-24_13-38-53_094959634447_rgbf000080-resize_4/002545_2014-06-24_13-38-53_094959634447_rgbf000080-resize_4-target.png,1000,1.9205,4,3798,993,feet,jsons/v1_VE1000_randls_18.json,757067,925697,40,Man
65,100413,DepthScenes,duration_manipulation_targetAtFixation,jsons/v1_VE1000_randls_18.json,http://54.235.29.9/FacialAge/BNav_EC2/DepthDuration/v2_depth_duration_MTurk/v2_DepthDuration_HTML.html#436,436,1536,864,1536,864,9-3-2022,9-8-44,66,depth_duration_stimuli/001222_2014-06-17_16-24-06_260595134347_rgbf000073-resize_0/001222_2014-06-17_16-24-06_260595134347_rgbf000073-resize-original.jpg,1000,1.4385,0,4533,998,feet,jsons/v1_VE1000_randls_18.json,757067,925697,40,Man
66,100413,DepthScenes,duration_manipulation_targetAtFixation,jsons/v1_VE1000_randls_18.json,http://54.235.29.9/FacialAge/BNav_EC2/DepthDuration/v2_depth_duration_MTurk/v2_DepthDuration_HTML.html#436,436,1536,864,1536,864,9-3-2022,9-8-44,67,depth_duration_stimuli/001555_2014-06-20_17-12-10_260595134347_rgbf000065-resize_4/001555_2014-06-20_17-12-10_260595134347_rgbf000065-resize_4-target.png,1000,1.633,1,5175,1002,feet,jsons/v1_VE1000_randls_18.json,757067,925697,40,Man
67,100413,DepthScenes,duration_manipulation_targetAtFixation,jsons/v1_VE1000_randls_18.json,http://54.235.29.9/FacialAge/BNav_EC2/DepthDuration/v2_depth_duration_MTurk/v2_DepthDuration_HTML.html#436,436,1536,864,1536,864,9-3-2022,9-8-44,68,depth_duration_stimuli/000103_2014-05-14_22-01-17_260595134347_rgbf000152-resize_5/000103_2014-05-14_22-01-17_260595134347_rgbf000152-resize_5-target.png,1000,1.993,4,3819,1005,feet,jsons/v1_VE1000_randls_18.json,757067,925697,40,Man
68,100413,DepthScenes,duration_manipulation_targetAtFixation,jsons/v1_VE1000_randls_18.json,http://54.235.29.9/FacialAge/BNav_EC2/DepthDuration/v2_depth_duration_MTurk/v2_DepthDuration_HTML.html#436,436,1536,864,1536,864,9-3-2022,9-8-44,69,depth_duration_stimuli/000447_2014-06-08_16-15-46_260595134347_rgbf000130-resize_1/000447_2014-06-08_16-15-46_260595134347_rgbf000130-resize_1-target.png,1000,4.479,4,6722,991,feet,jsons/v1_VE1000_randls_18.json,757067,925697,40,Man
69,100413,DepthScenes,duration_manipulation_targetAtFixation,jsons/v1_VE1000_randls_18.json,http://54.235.29.9/FacialAge/BNav_EC2/DepthDuration/v2_depth_duration_MTurk/v2_DepthDuration_HTML.html#436,436,1536,864,1536,864,9-3-2022,9-8-44,70,depth_duration_stimuli/001447_2014-06-19_17-00-32_260595134347_rgbf000082-resize_5/001447_2014-06-19_17-00-32_260595134347_rgbf000082-resize_5-target.png,1000,4.13775,2,3875,996,feet,jsons/v1_VE1000_randls_18.json,757067,925697,40,Man
70,100413,DepthScenes,duration_manipulation_targetAtFixation,jsons/v1_VE1000_randls_18.json,http://54.235.29.9/FacialAge/BNav_EC2/DepthDuration/v2_depth_duration_MTurk/v2_DepthDuration_HTML.html#436,436,1536,864,1536,864,9-3-2022,9-8-44,71,depth_duration_stimuli/001808_2014-06-26_20-50-58_260595134347_rgbf000029-resize_1/001808_2014-06-26_20-50-58_260595134347_rgbf000029-resize_1-target.png,1000,4.249,3,3862,1007,feet,jsons/v1_VE1000_randls_18.json,757067,925697,40,Man
71,100413,DepthScenes,duration_manipulation_targetAtFixation,jsons/v1_VE1000_randls_18.json,http://54.235.29.9/FacialAge/BNav_EC2/DepthDuration/v2_depth_duration_MTurk/v2_DepthDuration_HTML.html#436,436,1536,864,1536,864,9-3-2022,9-8-44,72,depth_duration_stimuli/001815_2014-06-26_20-52-55_260595134347_rgbf000020-resize_0/001815_2014-06-26_20-52-55_260595134347_rgbf000020-resize_0-target.png,1000,3.3865,4,6081,987,feet,jsons/v1_VE1000_randls_18.json,757067,925697,40,Man
72,100413,DepthScenes,duration_manipulation_targetAtFixation,jsons/v1_VE1000_randls_18.json,http://54.235.29.9/FacialAge/BNav_EC2/DepthDuration/v2_depth_duration_MTurk/v2_DepthDuration_HTML.html#436,436,1536,864,1536,864,9-3-2022,9-8-44,73,depth_duration_stimuli/000469_2014-06-09_19-42-10_260595134347_rgbf000081-resize_1/000469_2014-06-09_19-42-10_260595134347_rgbf000081-resize_1-target.png,1000,1.652,3,4632,1004,feet,jsons/v1_VE1000_randls_18.json,757067,925697,40,Man
73,100413,DepthScenes,duration_manipulation_targetAtFixation,jsons/v1_VE1000_randls_18.json,http://54.235.29.9/FacialAge/BNav_EC2/DepthDuration/v2_depth_duration_MTurk/v2_DepthDuration_HTML.html#436,436,1536,864,1536,864,9-3-2022,9-8-44,74,depth_duration_stimuli/000483_2014-06-09_20-41-45_260595134347_rgbf000116-resize_4/000483_2014-06-09_20-41-45_260595134347_rgbf000116-resize_4-target.png,1000,1.337,1,5075,992,feet,jsons/v1_VE1000_randls_18.json,757067,925697,40,Man
74,100413,DepthScenes,duration_manipulation_targetAtFixation,jsons/v1_VE1000_randls_18.json,http://54.235.29.9/FacialAge/BNav_EC2/DepthDuration/v2_depth_duration_MTurk/v2_DepthDuration_HTML.html#436,436,1536,864,1536,864,9-3-2022,9-8-44,75,depth_duration_stimuli/002600_2014-06-24_14-27-04_094959634447_rgbf000074-resize_2/002600_2014-06-24_14-27-04_094959634447_rgbf000074-resize_2-target.png,1000,2.7575,5,6158,996,feet,jsons/v1_VE1000_randls_18.json,757067,925697,40,Man
75,100413,DepthScenes,duration_manipulation_targetAtFixation,jsons/v1_VE1000_randls_18.json,http://54.235.29.9/FacialAge/BNav_EC2/DepthDuration/v2_depth_duration_MTurk/v2_DepthDuration_HTML.html#436,436,1536,864,1536,864,9-3-2022,9-8-44,76,depth_duration_stimuli/003228_2014-05-14_13-42-35_094959634447_rgbf000101-resize_1/003228_2014-05-14_13-42-35_094959634447_rgbf000101-resize_1-target.png,1000,1.9680000000000002,1,3669,992,feet,jsons/v1_VE1000_randls_18.json,757067,925697,40,Man
76,100413,DepthScenes,duration_manipulation_targetAtFixation,jsons/v1_VE1000_randls_18.json,http://54.235.29.9/FacialAge/BNav_EC2/DepthDuration/v2_depth_duration_MTurk/v2_DepthDuration_HTML.html#436,436,1536,864,1536,864,9-3-2022,9-8-44,77,depth_duration_stimuli/002989_2014-06-15_12-25-03_094959634447_rgbf000150-resize_3/002989_2014-06-15_12-25-03_094959634447_rgbf000150-resize_3-target.png,1000,4.1975,10,4082,998,feet,jsons/v1_VE1000_randls_18.json,757067,925697,40,Man
77,100413,DepthScenes,duration_manipulation_targetAtFixation,jsons/v1_VE1000_randls_18.json,http://54.235.29.9/FacialAge/BNav_EC2/DepthDuration/v2_depth_duration_MTurk/v2_DepthDuration_HTML.html#436,436,1536,864,1536,864,9-3-2022,9-8-44,78,depth_duration_stimuli/000866_2014-06-09_20-45-42_260595134347_rgbf000139-resize_1/000866_2014-06-09_20-45-42_260595134347_rgbf000139-resize_1-target.png,1000,3.2155,3,3677,1013,feet,jsons/v1_VE1000_randls_18.json,757067,925697,40,Man
78,100413,DepthScenes,duration_manipulation_targetAtFixation,jsons/v1_VE1000_randls_18.json,http://54.235.29.9/FacialAge/BNav_EC2/DepthDuration/v2_depth_duration_MTurk/v2_DepthDuration_HTML.html#436,436,1536,864,1536,864,9-3-2022,9-8-44,79,depth_duration_stimuli/001810_2014-06-26_20-51-35_260595134347_rgbf000040-resize_3/001810_2014-06-26_20-51-35_260595134347_rgbf000040-resize_3-target.png,1000,2.2525,3,6062,996,feet,jsons/v1_VE1000_randls_18.json,757067,925697,40,Man
79,100413,DepthScenes,duration_manipulation_targetAtFixation,jsons/v1_VE1000_randls_18.json,http://54.235.29.9/FacialAge/BNav_EC2/DepthDuration/v2_depth_duration_MTurk/v2_DepthDuration_HTML.html#436,436,1536,864,1536,864,9-3-2022,9-8-44,80,depth_duration_stimuli/003010_2014-06-15_12-54-35_094959634447_rgbf000112-resize_0/003010_2014-06-15_12-54-35_094959634447_rgbf000112-resize_0-target.png,1000,3.1185,5,4184,995,feet,jsons/v1_VE1000_randls_18.json,757067,925697,40,Man
80,100413,DepthScenes,duration_manipulation_targetAtFixation,jsons/v1_VE1000_randls_18.json,http://54.235.29.9/FacialAge/BNav_EC2/DepthDuration/v2_depth_duration_MTurk/v2_DepthDuration_HTML.html#436,436,1536,864,1536,864,9-3-2022,9-8-44,81,depth_duration_stimuli/000642_2014-06-08_16-59-25_260595134347_rgbf000098-resize_2/000642_2014-06-08_16-59-25_260595134347_rgbf000098-resize_2-target.png,1000,2.8815,5,3724,993,feet,jsons/v1_VE1000_randls_18.json,757067,925697,40,Man
81,100413,DepthScenes,duration_manipulation_targetAtFixation,jsons/v1_VE1000_randls_18.json,http://54.235.29.9/FacialAge/BNav_EC2/DepthDuration/v2_depth_duration_MTurk/v2_DepthDuration_HTML.html#436,436,1536,864,1536,864,9-3-2022,9-8-44,82,depth_duration_stimuli/002425_2014-06-28_20-27-29_260595134347_rgbf000031-resize_8/002425_2014-06-28_20-27-29_260595134347_rgbf000031-resize_8-target.png,1000,3.8960000000000004,4,4302,1005,feet,jsons/v1_VE1000_randls_18.json,757067,925697,40,Man
82,100413,DepthScenes,duration_manipulation_targetAtFixation,jsons/v1_VE1000_randls_18.json,http://54.235.29.9/FacialAge/BNav_EC2/DepthDuration/v2_depth_duration_MTurk/v2_DepthDuration_HTML.html#436,436,1536,864,1536,864,9-3-2022,9-8-44,83,depth_duration_stimuli/002057_2014-06-24_21-00-13_260595134347_rgbf000120-resize_1/002057_2014-06-24_21-00-13_260595134347_rgbf000120-resize_1-target.png,1000,2.967,2,4143,1004,feet,jsons/v1_VE1000_randls_18.json,757067,925697,40,Man
83,100413,DepthScenes,duration_manipulation_targetAtFixation,jsons/v1_VE1000_randls_18.json,http://54.235.29.9/FacialAge/BNav_EC2/DepthDuration/v2_depth_duration_MTurk/v2_DepthDuration_HTML.html#436,436,1536,864,1536,864,9-3-2022,9-8-44,84,depth_duration_stimuli/000709_2014-06-08_13-51-55_260595134347_rgbf000068-resize_3/000709_2014-06-08_13-51-55_260595134347_rgbf000068-resize_3-target.png,1000,1.8030000000000002,4,3833,990,feet,jsons/v1_VE1000_randls_18.json,757067,925697,40,Man
84,100413,DepthScenes,duration_manipulation_targetAtFixation,jsons/v1_VE1000_randls_18.json,http://54.235.29.9/FacialAge/BNav_EC2/DepthDuration/v2_depth_duration_MTurk/v2_DepthDuration_HTML.html#436,436,1536,864,1536,864,9-3-2022,9-8-44,85,depth_duration_stimuli/001449_2014-06-19_17-01-27_260595134347_rgbf000116-resize_2/001449_2014-06-19_17-01-27_260595134347_rgbf000116-resize_2-target.png,1000,3.452,4,3932,998,feet,jsons/v1_VE1000_randls_18.json,757067,925697,40,Man
85,100413,DepthScenes,duration_manipulation_targetAtFixation,jsons/v1_VE1000_randls_18.json,http://54.235.29.9/FacialAge/BNav_EC2/DepthDuration/v2_depth_duration_MTurk/v2_DepthDuration_HTML.html#436,436,1536,864,1536,864,9-3-2022,9-8-44,86,depth_duration_stimuli/001450_2014-06-19_17-02-03_260595134347_rgbf000203-resize_4/001450_2014-06-19_17-02-03_260595134347_rgbf000203-resize_4-target.png,1000,4.0106666666667,2,8008,1008,feet,jsons/v1_VE1000_randls_18.json,757067,925697,40,Man
86,100413,DepthScenes,duration_manipulation_targetAtFixation,jsons/v1_VE1000_randls_18.json,http://54.235.29.9/FacialAge/BNav_EC2/DepthDuration/v2_depth_duration_MTurk/v2_DepthDuration_HTML.html#436,436,1536,864,1536,864,9-3-2022,9-8-44,87,depth_duration_stimuli/000878_2014-06-08_22-52-45_260595134347_rgbf000045-resize_2/000878_2014-06-08_22-52-45_260595134347_rgbf000045-resize_2-target.png,1000,2.092,3,6950,996,feet,jsons/v1_VE1000_randls_18.json,757067,925697,40,Man
87,100413,DepthScenes,duration_manipulation_targetAtFixation,jsons/v1_VE1000_randls_18.json,http://54.235.29.9/FacialAge/BNav_EC2/DepthDuration/v2_depth_duration_MTurk/v2_DepthDuration_HTML.html#436,436,1536,864,1536,864,9-3-2022,9-8-44,88,depth_duration_stimuli/002953_2014-06-08_17-32-18_094959634447_rgbf000059-resize_5/002953_2014-06-08_17-32-18_094959634447_rgbf000059-resize_5-target.png,1000,1.551,1,3870,1005,feet,jsons/v1_VE1000_randls_18.json,757067,925697,40,Man
88,100413,DepthScenes,duration_manipulation_targetAtFixation,jsons/v1_VE1000_randls_18.json,http://54.235.29.9/FacialAge/BNav_EC2/DepthDuration/v2_depth_duration_MTurk/v2_DepthDuration_HTML.html#436,436,1536,864,1536,864,9-3-2022,9-8-44,89,depth_duration_stimuli/002118_2014-06-25_20-32-08_260595134347_rgbf000078-resize_1/002118_2014-06-25_20-32-08_260595134347_rgbf000078-resize_1-target.png,1000,2.6460000000000004,4,3897,985,feet,jsons/v1_VE1000_randls_18.json,757067,925697,40,Man
89,100413,DepthScenes,duration_manipulation_targetAtFixation,jsons/v1_VE1000_randls_18.json,http://54.235.29.9/FacialAge/BNav_EC2/DepthDuration/v2_depth_duration_MTurk/v2_DepthDuration_HTML.html#436,436,1536,864,1536,864,9-3-2022,9-8-44,90,depth_duration_stimuli/001516_2014-06-20_16-25-09_260595134347_rgbf000076-resize_2/001516_2014-06-20_16-25-09_260595134347_rgbf000076-resize_2-target.png,1000,1.7445,4,6688,992,feet,jsons/v1_VE1000_randls_18.json,757067,925697,40,Man
90,100413,DepthScenes,duration_manipulation_targetAtFixation,jsons/v1_VE1000_randls_18.json,http://54.235.29.9/FacialAge/BNav_EC2/DepthDuration/v2_depth_duration_MTurk/v2_DepthDuration_HTML.html#436,436,1536,864,1536,864,9-3-2022,9-8-44,91,depth_duration_stimuli/002549_2014-06-24_13-41-39_094959634447_rgbf000022-resize_3/002549_2014-06-24_13-41-39_094959634447_rgbf000022-resize_3-target.png,1000,1.476,2,3346,1001,feet,jsons/v1_VE1000_randls_18.json,757067,925697,40,Man
91,100413,DepthScenes,duration_manipulation_targetAtFixation,jsons/v1_VE1000_randls_18.json,http://54.235.29.9/FacialAge/BNav_EC2/DepthDuration/v2_depth_duration_MTurk/v2_DepthDuration_HTML.html#436,436,1536,864,1536,864,9-3-2022,9-8-44,92,depth_duration_stimuli/002750_2014-06-22_19-08-03_094959634447_rgbf000094-resize_4/002750_2014-06-22_19-08-03_094959634447_rgbf000094-resize_4-target.png,1000,2.354,5,3894,1000,feet,jsons/v1_VE1000_randls_18.json,757067,925697,40,Man
92,100413,DepthScenes,duration_manipulation_targetAtFixation,jsons/v1_VE1000_randls_18.json,http://54.235.29.9/FacialAge/BNav_EC2/DepthDuration/v2_depth_duration_MTurk/v2_DepthDuration_HTML.html#436,436,1536,864,1536,864,9-3-2022,9-8-44,93,depth_duration_stimuli/002663_2014-06-13_15-50-26_094959634447_rgbf000075-resize_1/002663_2014-06-13_15-50-26_094959634447_rgbf000075-resize_1-target.png,1000,4.7495,6,4292,990,feet,jsons/v1_VE1000_randls_18.json,757067,925697,40,Man
93,100413,DepthScenes,duration_manipulation_targetAtFixation,jsons/v1_VE1000_randls_18.json,http://54.235.29.9/FacialAge/BNav_EC2/DepthDuration/v2_depth_duration_MTurk/v2_DepthDuration_HTML.html#436,436,1536,864,1536,864,9-3-2022,9-8-44,94,depth_duration_stimuli/000409_2014-06-04_19-23-33_260595134347_rgbf000067-resize_0/000409_2014-06-04_19-23-33_260595134347_rgbf000067-resize_0-target.png,1000,3.7335,5,4091,997,feet,jsons/v1_VE1000_randls_18.json,757067,925697,40,Man
94,100413,DepthScenes,duration_manipulation_targetAtFixation,jsons/v1_VE1000_randls_18.json,http://54.235.29.9/FacialAge/BNav_EC2/DepthDuration/v2_depth_duration_MTurk/v2_DepthDuration_HTML.html#436,436,1536,864,1536,864,9-3-2022,9-8-44,95,depth_duration_stimuli/002272_2014-06-28_18-53-56_260595134347_rgbf000067-resize_2/002272_2014-06-28_18-53-56_260595134347_rgbf000067-resize_2-target.png,1000,1.138,1,3872,991,feet,jsons/v1_VE1000_randls_18.json,757067,925697,40,Man
95,100413,DepthScenes,duration_manipulation_targetAtFixation,jsons/v1_VE1000_randls_18.json,http://54.235.29.9/FacialAge/BNav_EC2/DepthDuration/v2_depth_duration_MTurk/v2_DepthDuration_HTML.html#436,436,1536,864,1536,864,9-3-2022,9-8-44,96,depth_duration_stimuli/001571_2014-06-20_17-21-32_260595134347_rgbf000089-resize_1/001571_2014-06-20_17-21-32_260595134347_rgbf000089-resize_1-target.png,1000,1.86,3,4540,988,feet,jsons/v1_VE1000_randls_18.json,757067,925697,40,Man
96,100413,DepthScenes,duration_manipulation_targetAtFixation,jsons/v1_VE1000_randls_18.json,http://54.235.29.9/FacialAge/BNav_EC2/DepthDuration/v2_depth_duration_MTurk/v2_DepthDuration_HTML.html#436,436,1536,864,1536,864,9-3-2022,9-8-44,97,depth_duration_stimuli/002630_2014-06-24_14-47-50_094959634447_rgbf000055-resize_1/002630_2014-06-24_14-47-50_094959634447_rgbf000055-resize_1-target.png,1000,3.0095,6,3529,991,feet,jsons/v1_VE1000_randls_18.json,757067,925697,40,Man
97,100413,DepthScenes,duration_manipulation_targetAtFixation,jsons/v1_VE1000_randls_18.json,http://54.235.29.9/FacialAge/BNav_EC2/DepthDuration/v2_depth_duration_MTurk/v2_DepthDuration_HTML.html#436,436,1536,864,1536,864,9-3-2022,9-8-44,98,depth_duration_stimuli/002758_2014-06-22_19-11-20_094959634447_rgbf000128-resize_1/002758_2014-06-22_19-11-20_094959634447_rgbf000128-resize_1-target.png,1000,2.555,4,3730,1001,feet,jsons/v1_VE1000_randls_18.json,757067,925697,40,Man
98,100413,DepthScenes,duration_manipulation_targetAtFixation,jsons/v1_VE1000_randls_18.json,http://54.235.29.9/FacialAge/BNav_EC2/DepthDuration/v2_depth_duration_MTurk/v2_DepthDuration_HTML.html#436,436,1536,864,1536,864,9-3-2022,9-8-44,99,depth_duration_stimuli/001540_2014-06-20_17-01-05_260595134347_rgbf000086-resize_2/001540_2014-06-20_17-01-05_260595134347_rgbf000086-resize-original.jpg,1000,1.459,0,3584,1001,feet,jsons/v1_VE1000_randls_18.json,757067,925697,40,Man
99,100413,DepthScenes,duration_manipulation_targetAtFixation,jsons/v1_VE1000_randls_18.json,http://54.235.29.9/FacialAge/BNav_EC2/DepthDuration/v2_depth_duration_MTurk/v2_DepthDuration_HTML.html#436,436,1536,864,1536,864,9-3-2022,9-8-44,100,depth_duration_stimuli/002788_2014-06-22_19-36-03_094959634447_rgbf000088-resize_2/002788_2014-06-22_19-36-03_094959634447_rgbf000088-resize_2-target.png,1000,1.6465,5,3950,986,feet,jsons/v1_VE1000_randls_18.json,757067,925697,40,Man
100,100413,DepthScenes,duration_manipulation_targetAtFixation,jsons/v1_VE1000_randls_18.json,http://54.235.29.9/FacialAge/BNav_EC2/DepthDuration/v2_depth_duration_MTurk/v2_DepthDuration_HTML.html#436,436,1536,864,1536,864,9-3-2022,9-8-44,101,depth_duration_stimuli/000749_2014-06-08_21-55-06_260595134347_rgbf000070-resize_2/000749_2014-06-08_21-55-06_260595134347_rgbf000070-resize_2-target.png,1000,2.331,4,3955,990,feet,jsons/v1_VE1000_randls_18.json,757067,925697,40,Man
101,100413,DepthScenes,duration_manipulation_targetAtFixation,jsons/v1_VE1000_randls_18.json,http://54.235.29.9/FacialAge/BNav_EC2/DepthDuration/v2_depth_duration_MTurk/v2_DepthDuration_HTML.html#436,436,1536,864,1536,864,9-3-2022,9-8-44,102,depth_duration_stimuli/000906_2014-06-08_13-35-43_260595134347_rgbf000155-resize_1/000906_2014-06-08_13-35-43_260595134347_rgbf000155-resize_1-target.png,1000,2.8489999999999998,6,3605,994,feet,jsons/v1_VE1000_randls_18.json,757067,925697,40,Man
102,100413,DepthScenes,duration_manipulation_targetAtFixation,jsons/v1_VE1000_randls_18.json,http://54.235.29.9/FacialAge/BNav_EC2/DepthDuration/v2_depth_duration_MTurk/v2_DepthDuration_HTML.html#436,436,1536,864,1536,864,9-3-2022,9-8-44,103,depth_duration_stimuli/002805_2014-06-22_19-54-03_094959634447_rgbf000079-resize_1/002805_2014-06-22_19-54-03_094959634447_rgbf000079-resize_1-target.png,1000,3.1439999999999997,8,5450,992,feet,jsons/v1_VE1000_randls_18.json,757067,925697,40,Man
103,100413,DepthScenes,duration_manipulation_targetAtFixation,jsons/v1_VE1000_randls_18.json,http://54.235.29.9/FacialAge/BNav_EC2/DepthDuration/v2_depth_duration_MTurk/v2_DepthDuration_HTML.html#436,436,1536,864,1536,864,9-3-2022,9-8-44,104,depth_duration_stimuli/001570_2014-06-20_17-21-09_260595134347_rgbf000135-resize_4/001570_2014-06-20_17-21-09_260595134347_rgbf000135-resize_4-target.png,1000,4.467,8,4141,1002,feet,jsons/v1_VE1000_randls_18.json,757067,925697,40,Man
104,100413,DepthScenes,duration_manipulation_targetAtFixation,jsons/v1_VE1000_randls_18.json,http://54.235.29.9/FacialAge/BNav_EC2/DepthDuration/v2_depth_duration_MTurk/v2_DepthDuration_HTML.html#436,436,1536,864,1536,864,9-3-2022,9-8-44,105,depth_duration_stimuli/001392_2014-06-19_16-07-59_260595134347_rgbf000046-resize_1/001392_2014-06-19_16-07-59_260595134347_rgbf000046-resize_1-target.png,1000,4.135,8,4218,989,feet,jsons/v1_VE1000_randls_18.json,757067,925697,40,Man
105,100413,DepthScenes,duration_manipulation_targetAtFixation,jsons/v1_VE1000_randls_18.json,http://54.235.29.9/FacialAge/BNav_EC2/DepthDuration/v2_depth_duration_MTurk/v2_DepthDuration_HTML.html#436,436,1536,864,1536,864,9-3-2022,9-8-44,106,depth_duration_stimuli/002905_2014-06-03_18-04-43_094959634447_rgbf000151-resize_2/002905_2014-06-03_18-04-43_094959634447_rgbf000151-resize_2-target.png,1000,2.0295,3,3524,1008,feet,jsons/v1_VE1000_randls_18.json,757067,925697,40,Man
106,100413,DepthScenes,duration_manipulation_targetAtFixation,jsons/v1_VE1000_randls_18.json,http://54.235.29.9/FacialAge/BNav_EC2/DepthDuration/v2_depth_duration_MTurk/v2_DepthDuration_HTML.html#436,436,1536,864,1536,864,9-3-2022,9-8-44,107,depth_duration_stimuli/003423_2014-05-21_10-23-26_094959634447_rgbf002665-resize_2/003423_2014-05-21_10-23-26_094959634447_rgbf002665-resize_2-target.png,1000,3.2575,10,3792,1001,feet,jsons/v1_VE1000_randls_18.json,757067,925697,40,Man
107,100413,DepthScenes,duration_manipulation_targetAtFixation,jsons/v1_VE1000_randls_18.json,http://54.235.29.9/FacialAge/BNav_EC2/DepthDuration/v2_depth_duration_MTurk/v2_DepthDuration_HTML.html#436,436,1536,864,1536,864,9-3-2022,9-8-44,108,depth_duration_stimuli/002725_2014-06-22_11-47-51_094959634447_rgbf000070-resize_1/002725_2014-06-22_11-47-51_094959634447_rgbf000070-resize_1-target.png,1000,2.195,4,3787,1007,feet,jsons/v1_VE1000_randls_18.json,757067,925697,40,Man
108,100413,DepthScenes,duration_manipulation_targetAtFixation,jsons/v1_VE1000_randls_18.json,http://54.235.29.9/FacialAge/BNav_EC2/DepthDuration/v2_depth_duration_MTurk/v2_DepthDuration_HTML.html#436,436,1536,864,1536,864,9-3-2022,9-8-44,109,depth_duration_stimuli/002344_2014-06-28_20-06-29_260595134347_rgbf000030-resize_1/002344_2014-06-28_20-06-29_260595134347_rgbf000030-resize_1-target.png,1000,1.5795,1,3850,993,feet,jsons/v1_VE1000_randls_18.json,757067,925697,40,Man
109,100413,DepthScenes,duration_manipulation_targetAtFixation,jsons/v1_VE1000_randls_18.json,http://54.235.29.9/FacialAge/BNav_EC2/DepthDuration/v2_depth_duration_MTurk/v2_DepthDuration_HTML.html#436,436,1536,864,1536,864,9-3-2022,9-8-44,110,depth_duration_stimuli/003621_2014-05-23_18-06-08_094959634447_rgbf000101-resize_1/003621_2014-05-23_18-06-08_094959634447_rgbf000101-resize_1-target.png,1000,3.9835,5,3921,986,feet,jsons/v1_VE1000_randls_18.json,757067,925697,40,Man
110,100413,DepthScenes,duration_manipulation_targetAtFixation,jsons/v1_VE1000_randls_18.json,http://54.235.29.9/FacialAge/BNav_EC2/DepthDuration/v2_depth_duration_MTurk/v2_DepthDuration_HTML.html#436,436,1536,864,1536,864,9-3-2022,9-8-44,111,depth_duration_stimuli/001584_2014-06-20_11-07-43_260595134347_rgbf000002-resize_1/001584_2014-06-20_11-07-43_260595134347_rgbf000002-resize_1-target.png,1000,3.53,4,4958,990,feet,jsons/v1_VE1000_randls_18.json,757067,925697,40,Man
111,100413,DepthScenes,duration_manipulation_targetAtFixation,jsons/v1_VE1000_randls_18.json,http://54.235.29.9/FacialAge/BNav_EC2/DepthDuration/v2_depth_duration_MTurk/v2_DepthDuration_HTML.html#436,436,1536,864,1536,864,9-3-2022,9-8-44,112,depth_duration_stimuli/002213_2014-06-28_18-37-58_260595134347_rgbf000055-resize_1/002213_2014-06-28_18-37-58_260595134347_rgbf000055-resize_1-target.png,1000,3.62,8,3874,992,feet,jsons/v1_VE1000_randls_18.json,757067,925697,40,Man
112,100413,DepthScenes,duration_manipulation_targetAtFixation,jsons/v1_VE1000_randls_18.json,http://54.235.29.9/FacialAge/BNav_EC2/DepthDuration/v2_depth_duration_MTurk/v2_DepthDuration_HTML.html#436,436,1536,864,1536,864,9-3-2022,9-8-44,113,depth_duration_stimuli/000691_2014-06-08_13-08-50_260595134347_rgbf000132-resize_3/000691_2014-06-08_13-08-50_260595134347_rgbf000132-resize_3-target.png,1000,4.1530000000000005,6,3463,990,feet,jsons/v1_VE1000_randls_18.json,757067,925697,40,Man
113,100413,DepthScenes,duration_manipulation_targetAtFixation,jsons/v1_VE1000_randls_18.json,http://54.235.29.9/FacialAge/BNav_EC2/DepthDuration/v2_depth_duration_MTurk/v2_DepthDuration_HTML.html#436,436,1536,864,1536,864,9-3-2022,9-8-44,114,depth_duration_stimuli/001199_2014-06-17_16-03-48_260595134347_rgbf000077-resize_0/001199_2014-06-17_16-03-48_260595134347_rgbf000077-resize_0-target.png,1000,3.4375,12,5187,1006,feet,jsons/v1_VE1000_randls_18.json,757067,925697,40,Man
114,100413,DepthScenes,duration_manipulation_targetAtFixation,jsons/v1_VE1000_randls_18.json,http://54.235.29.9/FacialAge/BNav_EC2/DepthDuration/v2_depth_duration_MTurk/v2_DepthDuration_HTML.html#436,436,1536,864,1536,864,9-3-2022,9-8-44,115,depth_duration_stimuli/000502_2014-06-08_23-02-32_260595134347_rgbf000063-resize_4/000502_2014-06-08_23-02-32_260595134347_rgbf000063-resize_4-target.png,1000,2.431,5,4314,992,feet,jsons/v1_VE1000_randls_18.json,757067,925697,40,Man
115,100413,DepthScenes,duration_manipulation_targetAtFixation,jsons/v1_VE1000_randls_18.json,http://54.235.29.9/FacialAge/BNav_EC2/DepthDuration/v2_depth_duration_MTurk/v2_DepthDuration_HTML.html#436,436,1536,864,1536,864,9-3-2022,9-8-44,116,depth_duration_stimuli/001170_2014-06-17_15-43-44_260595134347_rgbf000096-resize_6/001170_2014-06-17_15-43-44_260595134347_rgbf000096-resize-original.jpg,1000,1.1909999999999998,0,3199,1004,feet,jsons/v1_VE1000_randls_18.json,757067,925697,40,Man
116,100413,DepthScenes,duration_manipulation_targetAtFixation,jsons/v1_VE1000_randls_18.json,http://54.235.29.9/FacialAge/BNav_EC2/DepthDuration/v2_depth_duration_MTurk/v2_DepthDuration_HTML.html#436,436,1536,864,1536,864,9-3-2022,9-8-44,117,depth_duration_stimuli/003492_2014-05-21_15-50-55_094959634447_rgbf000828-resize_1/003492_2014-05-21_15-50-55_094959634447_rgbf000828-resize_1-target.png,1000,4.06875,8,3846,1007,feet,jsons/v1_VE1000_randls_18.json,757067,925697,40,Man
117,100413,DepthScenes,duration_manipulation_targetAtFixation,jsons/v1_VE1000_randls_18.json,http://54.235.29.9/FacialAge/BNav_EC2/DepthDuration/v2_depth_duration_MTurk/v2_DepthDuration_HTML.html#436,436,1536,864,1536,864,9-3-2022,9-8-44,118,depth_duration_stimuli/002568_2014-06-24_13-59-21_094959634447_rgbf000062-resize_4/002568_2014-06-24_13-59-21_094959634447_rgbf000062-resize_4-target.png,1000,3.015,5,4650,1004,feet,jsons/v1_VE1000_randls_18.json,757067,925697,40,Man
118,100413,DepthScenes,duration_manipulation_targetAtFixation,jsons/v1_VE1000_randls_18.json,http://54.235.29.9/FacialAge/BNav_EC2/DepthDuration/v2_depth_duration_MTurk/v2_DepthDuration_HTML.html#436,436,1536,864,1536,864,9-3-2022,9-8-44,119,depth_duration_stimuli/001158_2014-06-17_15-32-16_260595134347_rgbf000138-resize_2/001158_2014-06-17_15-32-16_260595134347_rgbf000138-resize_2-target.png,1000,4.5315,9,5611,995,feet,jsons/v1_VE1000_randls_18.json,757067,925697,40,Man
119,100413,DepthScenes,duration_manipulation_targetAtFixation,jsons/v1_VE1000_randls_18.json,http://54.235.29.9/FacialAge/BNav_EC2/DepthDuration/v2_depth_duration_MTurk/v2_DepthDuration_HTML.html#436,436,1536,864,1536,864,9-3-2022,9-8-44,120,depth_duration_stimuli/000556_2014-06-09_22-42-56_260595134347_rgbf000214-resize_1/000556_2014-06-09_22-42-56_260595134347_rgbf000214-resize_1-target.png,1000,4.8415,8,8591,1006,feet,jsons/v1_VE1000_randls_18.json,757067,925697,40,Man
120,100413,DepthScenes,duration_manipulation_targetAtFixation,jsons/v1_VE1000_randls_18.json,http://54.235.29.9/FacialAge/BNav_EC2/DepthDuration/v2_depth_duration_MTurk/v2_DepthDuration_HTML.html#436,436,1536,864,1536,864,9-3-2022,9-8-44,121,depth_duration_stimuli/002784_2014-06-22_19-26-30_094959634447_rgbf000083-resize_3/002784_2014-06-22_19-26-30_094959634447_rgbf000083-resize_3-target.png,1000,1.8046666666667,3,4288,991,feet,jsons/v1_VE1000_randls_18.json,757067,925697,40,Man
121,100413,DepthScenes,duration_manipulation_targetAtFixation,jsons/v1_VE1000_randls_18.json,http://54.235.29.9/FacialAge/BNav_EC2/DepthDuration/v2_depth_duration_MTurk/v2_DepthDuration_HTML.html#436,436,1536,864,1536,864,9-3-2022,9-8-44,122,depth_duration_stimuli/001100_2014-06-15_17-46-26_260595134347_rgbf000225-resize_2/001100_2014-06-15_17-46-26_260595134347_rgbf000225-resize_2-target.png,1000,2.24,1,3606,996,feet,jsons/v1_VE1000_randls_18.json,757067,925697,40,Man
122,100413,DepthScenes,duration_manipulation_targetAtFixation,jsons/v1_VE1000_randls_18.json,http://54.235.29.9/FacialAge/BNav_EC2/DepthDuration/v2_depth_duration_MTurk/v2_DepthDuration_HTML.html#436,436,1536,864,1536,864,9-3-2022,9-8-44,123,depth_duration_stimuli/003070_2014-06-15_14-58-27_094959634447_rgbf000150-resize_3/003070_2014-06-15_14-58-27_094959634447_rgbf000150-resize_3-target.png,1000,2.9415,5,3686,979,feet,jsons/v1_VE1000_randls_18.json,757067,925697,40,Man
123,100413,DepthScenes,duration_manipulation_targetAtFixation,jsons/v1_VE1000_randls_18.json,http://54.235.29.9/FacialAge/BNav_EC2/DepthDuration/v2_depth_duration_MTurk/v2_DepthDuration_HTML.html#436,436,1536,864,1536,864,9-3-2022,9-8-44,124,depth_duration_stimuli/000943_2014-06-09_19-31-07_260595134347_rgbf000128-resize_1/000943_2014-06-09_19-31-07_260595134347_rgbf000128-resize_1-target.png,1000,1.9765,3,4038,999,feet,jsons/v1_VE1000_randls_18.json,757067,925697,40,Man
124,100413,DepthScenes,duration_manipulation_targetAtFixation,jsons/v1_VE1000_randls_18.json,http://54.235.29.9/FacialAge/BNav_EC2/DepthDuration/v2_depth_duration_MTurk/v2_DepthDuration_HTML.html#436,436,1536,864,1536,864,9-3-2022,9-8-44,125,depth_duration_stimuli/003534_2014-05-22_15-06-10_094959634447_rgbf000102-resize_4/003534_2014-05-22_15-06-10_094959634447_rgbf000102-resize_4-target.png,1000,1.426,1,3839,995,feet,jsons/v1_VE1000_randls_18.json,757067,925697,40,Man
125,100413,DepthScenes,duration_manipulation_targetAtFixation,jsons/v1_VE1000_randls_18.json,http://54.235.29.9/FacialAge/BNav_EC2/DepthDuration/v2_depth_duration_MTurk/v2_DepthDuration_HTML.html#436,436,1536,864,1536,864,9-3-2022,9-8-44,126,depth_duration_stimuli/002637_2014-06-24_14-51-13_094959634447_rgbf000066-resize_4/002637_2014-06-24_14-51-13_094959634447_rgbf000066-resize_4-target.png,1000,1.9955,4,3622,1008,feet,jsons/v1_VE1000_randls_18.json,757067,925697,40,Man
126,100413,DepthScenes,duration_manipulation_targetAtFixation,jsons/v1_VE1000_randls_18.json,http://54.235.29.9/FacialAge/BNav_EC2/DepthDuration/v2_depth_duration_MTurk/v2_DepthDuration_HTML.html#436,436,1536,864,1536,864,9-3-2022,9-8-44,127,depth_duration_stimuli/000009_2014-05-26_14-32-05_260595134347_rgbf000034-resize_3/000009_2014-05-26_14-32-05_260595134347_rgbf000034-resize_3-target.png,1000,3.8715,6,3979,1001,feet,jsons/v1_VE1000_randls_18.json,757067,925697,40,Man
127,100413,DepthScenes,duration_manipulation_targetAtFixation,jsons/v1_VE1000_randls_18.json,http://54.235.29.9/FacialAge/BNav_EC2/DepthDuration/v2_depth_duration_MTurk/v2_DepthDuration_HTML.html#436,436,1536,864,1536,864,9-3-2022,9-8-44,128,depth_duration_stimuli/001828_2014-06-26_21-40-03_260595134347_rgbf000024-resize_0/001828_2014-06-26_21-40-03_260595134347_rgbf000024-resize_0-target.png,1000,4.8260000000000005,8,5543,1001,feet,jsons/v1_VE1000_randls_18.json,757067,925697,40,Man
128,100413,DepthScenes,duration_manipulation_targetAtFixation,jsons/v1_VE1000_randls_18.json,http://54.235.29.9/FacialAge/BNav_EC2/DepthDuration/v2_depth_duration_MTurk/v2_DepthDuration_HTML.html#436,436,1536,864,1536,864,9-3-2022,9-8-44,129,depth_duration_stimuli/001806_2014-06-26_20-50-20_260595134347_rgbf000091-resize_1/001806_2014-06-26_20-50-20_260595134347_rgbf000091-resize_1-target.png,1000,2.7305,4,3918,989,feet,jsons/v1_VE1000_randls_18.json,757067,925697,40,Man
129,100413,DepthScenes,duration_manipulation_targetAtFixation,jsons/v1_VE1000_randls_18.json,http://54.235.29.9/FacialAge/BNav_EC2/DepthDuration/v2_depth_duration_MTurk/v2_DepthDuration_HTML.html#436,436,1536,864,1536,864,9-3-2022,9-8-44,130,depth_duration_stimuli/001617_2014-06-20_11-35-32_260595134347_rgbf000066-resize_1/001617_2014-06-20_11-35-32_260595134347_rgbf000066-resize_1-target.png,1000,3.7910000000000004,6,3316,1003,feet,jsons/v1_VE1000_randls_18.json,757067,925697,40,Man
130,100413,DepthScenes,duration_manipulation_targetAtFixation,jsons/v1_VE1000_randls_18.json,http://54.235.29.9/FacialAge/BNav_EC2/DepthDuration/v2_depth_duration_MTurk/v2_DepthDuration_HTML.html#436,436,1536,864,1536,864,9-3-2022,9-8-44,131,depth_duration_stimuli/002445_2014-06-28_20-32-16_260595134347_rgbf000029-resize_4/002445_2014-06-28_20-32-16_260595134347_rgbf000029-resize_4-target.png,1000,2.5315,5,4026,990,feet,jsons/v1_VE1000_randls_18.json,757067,925697,40,Man
131,100413,DepthScenes,duration_manipulation_targetAtFixation,jsons/v1_VE1000_randls_18.json,http://54.235.29.9/FacialAge/BNav_EC2/DepthDuration/v2_depth_duration_MTurk/v2_DepthDuration_HTML.html#436,436,1536,864,1536,864,9-3-2022,9-8-44,132,depth_duration_stimuli/000780_2014-06-08_22-28-29_260595134347_rgbf000126-resize_1/000780_2014-06-08_22-28-29_260595134347_rgbf000126-resize_1-target.png,1000,3.3825,6,3517,995,feet,jsons/v1_VE1000_randls_18.json,757067,925697,40,Man
132,100413,DepthScenes,duration_manipulation_targetAtFixation,jsons/v1_VE1000_randls_18.json,http://54.235.29.9/FacialAge/BNav_EC2/DepthDuration/v2_depth_duration_MTurk/v2_DepthDuration_HTML.html#436,436,1536,864,1536,864,9-3-2022,9-8-44,133,depth_duration_stimuli/000917_2014-06-09_22-45-29_260595134347_rgbf000149-resize_3/000917_2014-06-09_22-45-29_260595134347_rgbf000149-resize_3-target.png,1000,4.1865,6,3450,992,feet,jsons/v1_VE1000_randls_18.json,757067,925697,40,Man
133,100413,DepthScenes,duration_manipulation_targetAtFixation,jsons/v1_VE1000_randls_18.json,http://54.235.29.9/FacialAge/BNav_EC2/DepthDuration/v2_depth_duration_MTurk/v2_DepthDuration_HTML.html#436,436,1536,864,1536,864,9-3-2022,9-8-44,134,depth_duration_stimuli/002323_2014-06-28_20-01-54_260595134347_rgbf000051-resize_4/002323_2014-06-28_20-01-54_260595134347_rgbf000051-resize_4-target.png,1000,3.7310000000000003,10,3897,1003,feet,jsons/v1_VE1000_randls_18.json,757067,925697,40,Man
134,100413,DepthScenes,duration_manipulation_targetAtFixation,jsons/v1_VE1000_randls_18.json,http://54.235.29.9/FacialAge/BNav_EC2/DepthDuration/v2_depth_duration_MTurk/v2_DepthDuration_HTML.html#436,436,1536,864,1536,864,9-3-2022,9-8-44,135,depth_duration_stimuli/002072_2014-06-24_21-48-06_260595134347_rgbf000115-resize_0/002072_2014-06-24_21-48-06_260595134347_rgbf000115-resize-original.jpg,1000,4.702,0,3471,999,feet,jsons/v1_VE1000_randls_18.json,757067,925697,40,Man
135,100413,DepthScenes,duration_manipulation_targetAtFixation,jsons/v1_VE1000_randls_18.json,http://54.235.29.9/FacialAge/BNav_EC2/DepthDuration/v2_depth_duration_MTurk/v2_DepthDuration_HTML.html#436,436,1536,864,1536,864,9-3-2022,9-8-44,136,depth_duration_stimuli/002043_2014-06-24_20-29-38_260595134347_rgbf000039-resize_4/002043_2014-06-24_20-29-38_260595134347_rgbf000039-resize_4-target.png,1000,2.8435,5,3718,1019,feet,jsons/v1_VE1000_randls_18.json,757067,925697,40,Man
136,100413,DepthScenes,duration_manipulation_targetAtFixation,jsons/v1_VE1000_randls_18.json,http://54.235.29.9/FacialAge/BNav_EC2/DepthDuration/v2_depth_duration_MTurk/v2_DepthDuration_HTML.html#436,436,1536,864,1536,864,9-3-2022,9-8-44,137,depth_duration_stimuli/003048_2014-06-15_13-49-43_094959634447_rgbf000150-resize_1/003048_2014-06-15_13-49-43_094959634447_rgbf000150-resize_1-target.png,1000,4.0035,8,3714,993,feet,jsons/v1_VE1000_randls_18.json,757067,925697,40,Man
137,100413,DepthScenes,duration_manipulation_targetAtFixation,jsons/v1_VE1000_randls_18.json,http://54.235.29.9/FacialAge/BNav_EC2/DepthDuration/v2_depth_duration_MTurk/v2_DepthDuration_HTML.html#436,436,1536,864,1536,864,9-3-2022,9-8-44,138,depth_duration_stimuli/000682_2014-06-08_23-14-58_260595134347_rgbf000041-resize_5/000682_2014-06-08_23-14-58_260595134347_rgbf000041-resize_5-target.png,1000,2.7239999999999998,4,3738,999,feet,jsons/v1_VE1000_randls_18.json,757067,925697,40,Man
138,100413,DepthScenes,duration_manipulation_targetAtFixation,jsons/v1_VE1000_randls_18.json,http://54.235.29.9/FacialAge/BNav_EC2/DepthDuration/v2_depth_duration_MTurk/v2_DepthDuration_HTML.html#436,436,1536,864,1536,864,9-3-2022,9-8-44,139,depth_duration_stimuli/001650_2014-06-20_12-09-00_260595134347_rgbf000087-resize_3/001650_2014-06-20_12-09-00_260595134347_rgbf000087-resize_3-target.png,1000,1.9505,1,3573,1001,feet,jsons/v1_VE1000_randls_18.json,757067,925697,40,Man
139,100413,DepthScenes,duration_manipulation_targetAtFixation,jsons/v1_VE1000_randls_18.json,http://54.235.29.9/FacialAge/BNav_EC2/DepthDuration/v2_depth_duration_MTurk/v2_DepthDuration_HTML.html#436,436,1536,864,1536,864,9-3-2022,9-8-44,140,depth_duration_stimuli/000736_2014-06-08_18-24-15_260595134347_rgbf000206-resize_3/000736_2014-06-08_18-24-15_260595134347_rgbf000206-resize_3-target.png,1000,3.515,4,3961,997,feet,jsons/v1_VE1000_randls_18.json,757067,925697,40,Man
140,100413,DepthScenes,duration_manipulation_targetAtFixation,jsons/v1_VE1000_randls_18.json,http://54.235.29.9/FacialAge/BNav_EC2/DepthDuration/v2_depth_duration_MTurk/v2_DepthDuration_HTML.html#436,436,1536,864,1536,864,9-3-2022,9-8-44,141,depth_duration_stimuli/000137_2014-05-20_17-04-49_260595134347_rgbf000120-resize_1/000137_2014-05-20_17-04-49_260595134347_rgbf000120-resize_1-target.png,1000,3.786,6,3415,1000,feet,jsons/v1_VE1000_randls_18.json,757067,925697,40,Man
141,100413,DepthScenes,duration_manipulation_targetAtFixation,jsons/v1_VE1000_randls_18.json,http://54.235.29.9/FacialAge/BNav_EC2/DepthDuration/v2_depth_duration_MTurk/v2_DepthDuration_HTML.html#436,436,1536,864,1536,864,9-3-2022,9-8-44,142,depth_duration_stimuli/000810_2014-06-08_17-20-01_260595134347_rgbf000105-resize_0/000810_2014-06-08_17-20-01_260595134347_rgbf000105-resize_0-target.png,1000,1.4865,4,3939,995,feet,jsons/v1_VE1000_randls_18.json,757067,925697,40,Man
142,100413,DepthScenes,duration_manipulation_targetAtFixation,jsons/v1_VE1000_randls_18.json,http://54.235.29.9/FacialAge/BNav_EC2/DepthDuration/v2_depth_duration_MTurk/v2_DepthDuration_HTML.html#436,436,1536,864,1536,864,9-3-2022,9-8-44,143,depth_duration_stimuli/001214_2014-06-17_16-13-55_260595134347_rgbf000111-resize_0/001214_2014-06-17_16-13-55_260595134347_rgbf000111-resize_0-target.png,1000,2.6505,4,3889,990,feet,jsons/v1_VE1000_randls_18.json,757067,925697,40,Man
143,100413,DepthScenes,duration_manipulation_targetAtFixation,jsons/v1_VE1000_randls_18.json,http://54.235.29.9/FacialAge/BNav_EC2/DepthDuration/v2_depth_duration_MTurk/v2_DepthDuration_HTML.html#436,436,1536,864,1536,864,9-3-2022,9-8-44,144,depth_duration_stimuli/002964_2014-06-08_17-46-11_094959634447_rgbf000091-resize_4/002964_2014-06-08_17-46-11_094959634447_rgbf000091-resize_4-target.png,1000,1.6909999999999998,1,3496,992,feet,jsons/v1_VE1000_randls_18.json,757067,925697,40,Man
144,100413,DepthScenes,duration_manipulation_targetAtFixation,jsons/v1_VE1000_randls_18.json,http://54.235.29.9/FacialAge/BNav_EC2/DepthDuration/v2_depth_duration_MTurk/v2_DepthDuration_HTML.html#436,436,1536,864,1536,864,9-3-2022,9-8-44,145,depth_duration_stimuli/002136_2014-06-25_21-18-03_260595134347_rgbf000109-resize_3/002136_2014-06-25_21-18-03_260595134347_rgbf000109-resize_3-target.png,1000,1.9569999999999999,2,3320,1008,feet,jsons/v1_VE1000_randls_18.json,757067,925697,40,Man
145,100413,DepthScenes,duration_manipulation_targetAtFixation,jsons/v1_VE1000_randls_18.json,http://54.235.29.9/FacialAge/BNav_EC2/DepthDuration/v2_depth_duration_MTurk/v2_DepthDuration_HTML.html#436,436,1536,864,1536,864,9-3-2022,9-8-44,146,depth_duration_stimuli/001498_2014-06-19_17-45-14_260595134347_rgbf000129-resize_4/001498_2014-06-19_17-45-14_260595134347_rgbf000129-resize-original.jpg,1000,1.4075,0,3243,997,feet,jsons/v1_VE1000_randls_18.json,757067,925697,40,Man
146,100413,DepthScenes,duration_manipulation_targetAtFixation,jsons/v1_VE1000_randls_18.json,http://54.235.29.9/FacialAge/BNav_EC2/DepthDuration/v2_depth_duration_MTurk/v2_DepthDuration_HTML.html#436,436,1536,864,1536,864,9-3-2022,9-8-44,147,depth_duration_stimuli/001244_2014-06-17_16-47-45_260595134347_rgbf000030-resize_4/001244_2014-06-17_16-47-45_260595134347_rgbf000030-resize_4-target.png,1000,2.0425,2,4016,1003,feet,jsons/v1_VE1000_randls_18.json,757067,925697,40,Man
147,100413,DepthScenes,duration_manipulation_targetAtFixation,jsons/v1_VE1000_randls_18.json,http://54.235.29.9/FacialAge/BNav_EC2/DepthDuration/v2_depth_duration_MTurk/v2_DepthDuration_HTML.html#436,436,1536,864,1536,864,9-3-2022,9-8-44,148,depth_duration_stimuli/003495_2014-05-21_16-01-51_094959634447_rgbf000100-resize_3/003495_2014-05-21_16-01-51_094959634447_rgbf000100-resize_3-target.png,1000,1.6255,2,3435,1001,feet,jsons/v1_VE1000_randls_18.json,757067,925697,40,Man
148,100413,DepthScenes,duration_manipulation_targetAtFixation,jsons/v1_VE1000_randls_18.json,http://54.235.29.9/FacialAge/BNav_EC2/DepthDuration/v2_depth_duration_MTurk/v2_DepthDuration_HTML.html#436,436,1536,864,1536,864,9-3-2022,9-8-44,149,depth_duration_stimuli/001167_2014-06-17_15-38-07_260595134347_rgbf000108-resize_0/001167_2014-06-17_15-38-07_260595134347_rgbf000108-resize_0-target.png,1000,1.8505,2,4160,1001,feet,jsons/v1_VE1000_randls_18.json,757067,925697,40,Man
149,100413,DepthScenes,duration_manipulation_targetAtFixation,jsons/v1_VE1000_randls_18.json,http://54.235.29.9/FacialAge/BNav_EC2/DepthDuration/v2_depth_duration_MTurk/v2_DepthDuration_HTML.html#436,436,1536,864,1536,864,9-3-2022,9-8-44,150,depth_duration_stimuli/003587_2014-05-23_16-48-02_094959634447_rgbf002384-resize_2/003587_2014-05-23_16-48-02_094959634447_rgbf002384-resize_2-target.png,1000,1.357,1,3753,998,feet,jsons/v1_VE1000_randls_18.json,757067,925697,40,Man
150,100413,DepthScenes,duration_manipulation_targetAtFixation,jsons/v1_VE1000_randls_18.json,http://54.235.29.9/FacialAge/BNav_EC2/DepthDuration/v2_depth_duration_MTurk/v2_DepthDuration_HTML.html#436,436,1536,864,1536,864,9-3-2022,9-8-44,151,depth_duration_stimuli/001164_2014-06-17_15-35-46_260595134347_rgbf000085-resize_3/001164_2014-06-17_15-35-46_260595134347_rgbf000085-resize_3-target.png,1000,2.354,3,3260,992,feet,jsons/v1_VE1000_randls_18.json,757067,925697,40,Man
151,100413,DepthScenes,duration_manipulation_targetAtFixation,jsons/v1_VE1000_randls_18.json,http://54.235.29.9/FacialAge/BNav_EC2/DepthDuration/v2_depth_duration_MTurk/v2_DepthDuration_HTML.html#436,436,1536,864,1536,864,9-3-2022,9-8-44,152,depth_duration_stimuli/001136_2014-06-17_15-19-41_260595134347_rgbf000076-resize_3/001136_2014-06-17_15-19-41_260595134347_rgbf000076-resize_3-target.png,1000,1.8655,4,3462,997,feet,jsons/v1_VE1000_randls_18.json,757067,925697,40,Man
152,100413,DepthScenes,duration_manipulation_targetAtFixation,jsons/v1_VE1000_randls_18.json,http://54.235.29.9/FacialAge/BNav_EC2/DepthDuration/v2_depth_duration_MTurk/v2_DepthDuration_HTML.html#436,436,1536,864,1536,864,9-3-2022,9-8-44,153,depth_duration_stimuli/002039_2014-06-24_20-22-38_260595134347_rgbf000084-resize_1/002039_2014-06-24_20-22-38_260595134347_rgbf000084-resize_1-target.png,1000,4.408,8,3921,974,feet,jsons/v1_VE1000_randls_18.json,757067,925697,40,Man
153,100413,DepthScenes,duration_manipulation_targetAtFixation,jsons/v1_VE1000_randls_18.json,http://54.235.29.9/FacialAge/BNav_EC2/DepthDuration/v2_depth_duration_MTurk/v2_DepthDuration_HTML.html#436,436,1536,864,1536,864,9-3-2022,9-8-44,154,depth_duration_stimuli/002103_2014-06-25_20-00-40_260595134347_rgbf000049-resize_0/002103_2014-06-25_20-00-40_260595134347_rgbf000049-resize_0-target.png,1000,4.105,4,5532,1001,feet,jsons/v1_VE1000_randls_18.json,757067,925697,40,Man
154,100413,DepthScenes,duration_manipulation_targetAtFixation,jsons/v1_VE1000_randls_18.json,http://54.235.29.9/FacialAge/BNav_EC2/DepthDuration/v2_depth_duration_MTurk/v2_DepthDuration_HTML.html#436,436,1536,864,1536,864,9-3-2022,9-8-44,155,depth_duration_stimuli/001011_2014-06-08_23-18-54_260595134347_rgbf000044-resize_4/001011_2014-06-08_23-18-54_260595134347_rgbf000044-resize_4-target.png,1000,2.4730000000000003,5,3596,998,feet,jsons/v1_VE1000_randls_18.json,757067,925697,40,Man
155,100413,DepthScenes,duration_manipulation_targetAtFixation,jsons/v1_VE1000_randls_18.json,http://54.235.29.9/FacialAge/BNav_EC2/DepthDuration/v2_depth_duration_MTurk/v2_DepthDuration_HTML.html#436,436,1536,864,1536,864,9-3-2022,9-8-44,156,depth_duration_stimuli/002875_2014-06-01_15-19-00_094959634447_rgbf000151-resize_1/002875_2014-06-01_15-19-00_094959634447_rgbf000151-resize_1-target.png,1000,1.9675,2,3514,1000,feet,jsons/v1_VE1000_randls_18.json,757067,925697,40,Man
156,100413,DepthScenes,duration_manipulation_targetAtFixation,jsons/v1_VE1000_randls_18.json,http://54.235.29.9/FacialAge/BNav_EC2/DepthDuration/v2_depth_duration_MTurk/v2_DepthDuration_HTML.html#436,436,1536,864,1536,864,9-3-2022,9-8-44,157,depth_duration_stimuli/001150_2014-06-17_15-27-34_260595134347_rgbf000108-resize_2/001150_2014-06-17_15-27-34_260595134347_rgbf000108-resize_2-target.png,1000,4.0325,4,3756,1005,feet,jsons/v1_VE1000_randls_18.json,757067,925697,40,Man
157,100413,DepthScenes,duration_manipulation_targetAtFixation,jsons/v1_VE1000_randls_18.json,http://54.235.29.9/FacialAge/BNav_EC2/DepthDuration/v2_depth_duration_MTurk/v2_DepthDuration_HTML.html#436,436,1536,864,1536,864,9-3-2022,9-8-44,158,depth_duration_stimuli/000665_2014-06-09_20-42-35_260595134347_rgbf000110-resize_1/000665_2014-06-09_20-42-35_260595134347_rgbf000110-resize_1-target.png,1000,3.057,5,4012,1003,feet,jsons/v1_VE1000_randls_18.json,757067,925697,40,Man
158,100413,DepthScenes,duration_manipulation_targetAtFixation,jsons/v1_VE1000_randls_18.json,http://54.235.29.9/FacialAge/BNav_EC2/DepthDuration/v2_depth_duration_MTurk/v2_DepthDuration_HTML.html#436,436,1536,864,1536,864,9-3-2022,9-8-44,159,depth_duration_stimuli/002763_2014-06-22_19-13-10_094959634447_rgbf000075-resize_4/002763_2014-06-22_19-13-10_094959634447_rgbf000075-resize_4-target.png,1000,1.68375,2,4047,1006,feet,jsons/v1_VE1000_randls_18.json,757067,925697,40,Man
159,100413,DepthScenes,duration_manipulation_targetAtFixation,jsons/v1_VE1000_randls_18.json,http://54.235.29.9/FacialAge/BNav_EC2/DepthDuration/v2_depth_duration_MTurk/v2_DepthDuration_HTML.html#436,436,1536,864,1536,864,9-3-2022,9-8-44,160,depth_duration_stimuli/002209_2014-06-28_18-36-10_260595134347_rgbf000051-resize_1/002209_2014-06-28_18-36-10_260595134347_rgbf000051-resize_1-target.png,1000,2.057,2,3472,1002,feet,jsons/v1_VE1000_randls_18.json,757067,925697,40,Man
160,100413,DepthScenes,duration_manipulation_targetAtFixation,jsons/v1_VE1000_randls_18.json,http://54.235.29.9/FacialAge/BNav_EC2/DepthDuration/v2_depth_duration_MTurk/v2_DepthDuration_HTML.html#436,436,1536,864,1536,864,9-3-2022,9-8-44,161,depth_duration_stimuli/003292_2014-05-14_21-53-49_094959634447_rgbf000100-resize_2/003292_2014-05-14_21-53-49_094959634447_rgbf000100-resize_2-target.png,1000,3.4815,4,3757,1018,feet,jsons/v1_VE1000_randls_18.json,757067,925697,40,Man
161,100413,DepthScenes,duration_manipulation_targetAtFixation,jsons/v1_VE1000_randls_18.json,http://54.235.29.9/FacialAge/BNav_EC2/DepthDuration/v2_depth_duration_MTurk/v2_DepthDuration_HTML.html#436,436,1536,864,1536,864,9-3-2022,9-8-44,162,depth_duration_stimuli/002639_2014-06-24_14-51-37_094959634447_rgbf000074-resize_4/002639_2014-06-24_14-51-37_094959634447_rgbf000074-resize_4-target.png,1000,4.0375,6,3443,997,feet,jsons/v1_VE1000_randls_18.json,757067,925697,40,Man
162,100413,DepthScenes,duration_manipulation_targetAtFixation,jsons/v1_VE1000_randls_18.json,http://54.235.29.9/FacialAge/BNav_EC2/DepthDuration/v2_depth_duration_MTurk/v2_DepthDuration_HTML.html#436,436,1536,864,1536,864,9-3-2022,9-8-44,163,depth_duration_stimuli/000470_2014-06-09_19-42-40_260595134347_rgbf000094-resize_1/000470_2014-06-09_19-42-40_260595134347_rgbf000094-resize_1-target.png,1000,1.831,3,3247,1021,feet,jsons/v1_VE1000_randls_18.json,757067,925697,40,Man
163,100413,DepthScenes,duration_manipulation_targetAtFixation,jsons/v1_VE1000_randls_18.json,http://54.235.29.9/FacialAge/BNav_EC2/DepthDuration/v2_depth_duration_MTurk/v2_DepthDuration_HTML.html#436,436,1536,864,1536,864,9-3-2022,9-8-44,164,depth_duration_stimuli/000109_2014-05-14_23-41-52_260595134347_rgbf000035-resize_9/000109_2014-05-14_23-41-52_260595134347_rgbf000035-resize_9-target.png,1000,1.3545,2,3165,997,feet,jsons/v1_VE1000_randls_18.json,757067,925697,40,Man
