,subjID,experimentName,versionName,sequenceName,url,selected_row,windowWidth,windowHeight,screenWidth,screenHeight,startDate,startTime,trial,stimulus,duration,actual_depth,depth_estimate,trial_RT,log_sceneDuration,unitSelection,seq_filepath,experimentTime,totalTime,age,gender
0,100961,DepthScenes,duration_manipulation_targetAtFixation,jsons/v1_VE250_randls_72.json,http://54.235.29.9/FacialAge/BNav_EC2/DepthDuration/v2_depth_duration_MTurk/v2_DepthDuration_HTML.html#74,74,1440,789,1440,900,8-20-2022,11-4-11,1,depth_duration_stimuli/001449_2014-06-19_17-01-27_260595134347_rgbf000116-resize_2/001449_2014-06-19_17-01-27_260595134347_rgbf000116-resize_2-target.png,250,3.452,1,2842,248,meters,jsons/v1_VE250_randls_72.json,496989,848948,35,Woman
1,100961,DepthScenes,duration_manipulation_targetAtFixation,jsons/v1_VE250_randls_72.json,http://54.235.29.9/FacialAge/BNav_EC2/DepthDuration/v2_depth_duration_MTurk/v2_DepthDuration_HTML.html#74,74,1440,789,1440,900,8-20-2022,11-4-11,2,depth_duration_stimuli/001450_2014-06-19_17-02-03_260595134347_rgbf000203-resize_4/001450_2014-06-19_17-02-03_260595134347_rgbf000203-resize_4-target.png,250,4.0106666666667,1,2932,250,meters,jsons/v1_VE250_randls_72.json,496989,848948,35,Woman
2,100961,DepthScenes,duration_manipulation_targetAtFixation,jsons/v1_VE250_randls_72.json,http://54.235.29.9/FacialAge/BNav_EC2/DepthDuration/v2_depth_duration_MTurk/v2_DepthDuration_HTML.html#74,74,1440,789,1440,900,8-20-2022,11-4-11,3,depth_duration_stimuli/001199_2014-06-17_16-03-48_260595134347_rgbf000077-resize_0/001199_2014-06-17_16-03-48_260595134347_rgbf000077-resize_0-target.png,250,3.4375,1,2377,250,meters,jsons/v1_VE250_randls_72.json,496989,848948,35,Woman
3,100961,DepthScenes,duration_manipulation_targetAtFixation,jsons/v1_VE250_randls_72.json,http://54.235.29.9/FacialAge/BNav_EC2/DepthDuration/v2_depth_duration_MTurk/v2_DepthDuration_HTML.html#74,74,1440,789,1440,900,8-20-2022,11-4-11,4,depth_duration_stimuli/000502_2014-06-08_23-02-32_260595134347_rgbf000063-resize_4/000502_2014-06-08_23-02-32_260595134347_rgbf000063-resize_4-target.png,250,2.431,1,2329,249,meters,jsons/v1_VE250_randls_72.json,496989,848948,35,Woman
4,100961,DepthScenes,duration_manipulation_targetAtFixation,jsons/v1_VE250_randls_72.json,http://54.235.29.9/FacialAge/BNav_EC2/DepthDuration/v2_depth_duration_MTurk/v2_DepthDuration_HTML.html#74,74,1440,789,1440,900,8-20-2022,11-4-11,5,depth_duration_stimuli/000929_2014-06-09_16-33-19_260595134347_rgbf000139-resize_0/000929_2014-06-09_16-33-19_260595134347_rgbf000139-resize_0-target.png,250,2.8680000000000003,1,2356,250,meters,jsons/v1_VE250_randls_72.json,496989,848948,35,Woman
5,100961,DepthScenes,duration_manipulation_targetAtFixation,jsons/v1_VE250_randls_72.json,http://54.235.29.9/FacialAge/BNav_EC2/DepthDuration/v2_depth_duration_MTurk/v2_DepthDuration_HTML.html#74,74,1440,789,1440,900,8-20-2022,11-4-11,6,depth_duration_stimuli/000457_2014-06-08_16-52-43_260595134347_rgbf000199-resize_1/000457_2014-06-08_16-52-43_260595134347_rgbf000199-resize_1-target.png,250,3.6489999999999996,1,2146,241,meters,jsons/v1_VE250_randls_72.json,496989,848948,35,Woman
6,100961,DepthScenes,duration_manipulation_targetAtFixation,jsons/v1_VE250_randls_72.json,http://54.235.29.9/FacialAge/BNav_EC2/DepthDuration/v2_depth_duration_MTurk/v2_DepthDuration_HTML.html#74,74,1440,789,1440,900,8-20-2022,11-4-11,7,depth_duration_stimuli/000470_2014-06-09_19-42-40_260595134347_rgbf000094-resize_1/000470_2014-06-09_19-42-40_260595134347_rgbf000094-resize_1-target.png,250,1.831,1,1892,249,meters,jsons/v1_VE250_randls_72.json,496989,848948,35,Woman
7,100961,DepthScenes,duration_manipulation_targetAtFixation,jsons/v1_VE250_randls_72.json,http://54.235.29.9/FacialAge/BNav_EC2/DepthDuration/v2_depth_duration_MTurk/v2_DepthDuration_HTML.html#74,74,1440,789,1440,900,8-20-2022,11-4-11,8,depth_duration_stimuli/000109_2014-05-14_23-41-52_260595134347_rgbf000035-resize_9/000109_2014-05-14_23-41-52_260595134347_rgbf000035-resize_9-target.png,250,1.3545,1,2127,251,meters,jsons/v1_VE250_randls_72.json,496989,848948,35,Woman
8,100961,DepthScenes,duration_manipulation_targetAtFixation,jsons/v1_VE250_randls_72.json,http://54.235.29.9/FacialAge/BNav_EC2/DepthDuration/v2_depth_duration_MTurk/v2_DepthDuration_HTML.html#74,74,1440,789,1440,900,8-20-2022,11-4-11,9,depth_duration_stimuli/001150_2014-06-17_15-27-34_260595134347_rgbf000108-resize_2/001150_2014-06-17_15-27-34_260595134347_rgbf000108-resize_2-target.png,250,4.0325,1,2122,250,meters,jsons/v1_VE250_randls_72.json,496989,848948,35,Woman
9,100961,DepthScenes,duration_manipulation_targetAtFixation,jsons/v1_VE250_randls_72.json,http://54.235.29.9/FacialAge/BNav_EC2/DepthDuration/v2_depth_duration_MTurk/v2_DepthDuration_HTML.html#74,74,1440,789,1440,900,8-20-2022,11-4-11,10,depth_duration_stimuli/000665_2014-06-09_20-42-35_260595134347_rgbf000110-resize_1/000665_2014-06-09_20-42-35_260595134347_rgbf000110-resize_1-target.png,250,3.057,1,2114,250,meters,jsons/v1_VE250_randls_72.json,496989,848948,35,Woman
10,100961,DepthScenes,duration_manipulation_targetAtFixation,jsons/v1_VE250_randls_72.json,http://54.235.29.9/FacialAge/BNav_EC2/DepthDuration/v2_depth_duration_MTurk/v2_DepthDuration_HTML.html#74,74,1440,789,1440,900,8-20-2022,11-4-11,11,depth_duration_stimuli/001016_2014-06-09_16-16-10_260595134347_rgbf000112-resize_5/001016_2014-06-09_16-16-10_260595134347_rgbf000112-resize_5-target.png,250,1.6565,1,2666,248,meters,jsons/v1_VE250_randls_72.json,496989,848948,35,Woman
11,100961,DepthScenes,duration_manipulation_targetAtFixation,jsons/v1_VE250_randls_72.json,http://54.235.29.9/FacialAge/BNav_EC2/DepthDuration/v2_depth_duration_MTurk/v2_DepthDuration_HTML.html#74,74,1440,789,1440,900,8-20-2022,11-4-11,12,depth_duration_stimuli/002340_2014-06-28_20-05-46_260595134347_rgbf000113-resize_0/002340_2014-06-28_20-05-46_260595134347_rgbf000113-resize_0-target.png,250,2.4735,1,2042,251,meters,jsons/v1_VE250_randls_72.json,496989,848948,35,Woman
12,100961,DepthScenes,duration_manipulation_targetAtFixation,jsons/v1_VE250_randls_72.json,http://54.235.29.9/FacialAge/BNav_EC2/DepthDuration/v2_depth_duration_MTurk/v2_DepthDuration_HTML.html#74,74,1440,789,1440,900,8-20-2022,11-4-11,13,depth_duration_stimuli/000569_2014-06-09_22-51-47_260595134347_rgbf000141-resize_3/000569_2014-06-09_22-51-47_260595134347_rgbf000141-resize-original.jpg,250,4.512,0,2603,248,meters,jsons/v1_VE250_randls_72.json,496989,848948,35,Woman
13,100961,DepthScenes,duration_manipulation_targetAtFixation,jsons/v1_VE250_randls_72.json,http://54.235.29.9/FacialAge/BNav_EC2/DepthDuration/v2_depth_duration_MTurk/v2_DepthDuration_HTML.html#74,74,1440,789,1440,900,8-20-2022,11-4-11,14,depth_duration_stimuli/003492_2014-05-21_15-50-55_094959634447_rgbf000828-resize_1/003492_2014-05-21_15-50-55_094959634447_rgbf000828-resize_1-target.png,250,4.06875,1,2019,250,meters,jsons/v1_VE250_randls_72.json,496989,848948,35,Woman
14,100961,DepthScenes,duration_manipulation_targetAtFixation,jsons/v1_VE250_randls_72.json,http://54.235.29.9/FacialAge/BNav_EC2/DepthDuration/v2_depth_duration_MTurk/v2_DepthDuration_HTML.html#74,74,1440,789,1440,900,8-20-2022,11-4-11,15,depth_duration_stimuli/002568_2014-06-24_13-59-21_094959634447_rgbf000062-resize_4/002568_2014-06-24_13-59-21_094959634447_rgbf000062-resize_4-target.png,250,3.015,1,2071,249,meters,jsons/v1_VE250_randls_72.json,496989,848948,35,Woman
15,100961,DepthScenes,duration_manipulation_targetAtFixation,jsons/v1_VE250_randls_72.json,http://54.235.29.9/FacialAge/BNav_EC2/DepthDuration/v2_depth_duration_MTurk/v2_DepthDuration_HTML.html#74,74,1440,789,1440,900,8-20-2022,11-4-11,16,depth_duration_stimuli/002784_2014-06-22_19-26-30_094959634447_rgbf000083-resize_3/002784_2014-06-22_19-26-30_094959634447_rgbf000083-resize_3-target.png,250,1.8046666666667,1,2099,250,meters,jsons/v1_VE250_randls_72.json,496989,848948,35,Woman
16,100961,DepthScenes,duration_manipulation_targetAtFixation,jsons/v1_VE250_randls_72.json,http://54.235.29.9/FacialAge/BNav_EC2/DepthDuration/v2_depth_duration_MTurk/v2_DepthDuration_HTML.html#74,74,1440,789,1440,900,8-20-2022,11-4-11,17,depth_duration_stimuli/001100_2014-06-15_17-46-26_260595134347_rgbf000225-resize_2/001100_2014-06-15_17-46-26_260595134347_rgbf000225-resize_2-target.png,250,2.24,1,1906,249,meters,jsons/v1_VE250_randls_72.json,496989,848948,35,Woman
17,100961,DepthScenes,duration_manipulation_targetAtFixation,jsons/v1_VE250_randls_72.json,http://54.235.29.9/FacialAge/BNav_EC2/DepthDuration/v2_depth_duration_MTurk/v2_DepthDuration_HTML.html#74,74,1440,789,1440,900,8-20-2022,11-4-11,18,depth_duration_stimuli/001175_2014-06-17_15-45-55_260595134347_rgbf000129-resize_4/001175_2014-06-17_15-45-55_260595134347_rgbf000129-resize_4-target.png,250,4.255,1,1865,250,meters,jsons/v1_VE250_randls_72.json,496989,848948,35,Woman
18,100961,DepthScenes,duration_manipulation_targetAtFixation,jsons/v1_VE250_randls_72.json,http://54.235.29.9/FacialAge/BNav_EC2/DepthDuration/v2_depth_duration_MTurk/v2_DepthDuration_HTML.html#74,74,1440,789,1440,900,8-20-2022,11-4-11,19,depth_duration_stimuli/003490_2014-05-21_15-50-11_094959634447_rgbf000101-resize_3/003490_2014-05-21_15-50-11_094959634447_rgbf000101-resize_3-target.png,250,3.6445,1,1764,251,meters,jsons/v1_VE250_randls_72.json,496989,848948,35,Woman
19,100961,DepthScenes,duration_manipulation_targetAtFixation,jsons/v1_VE250_randls_72.json,http://54.235.29.9/FacialAge/BNav_EC2/DepthDuration/v2_depth_duration_MTurk/v2_DepthDuration_HTML.html#74,74,1440,789,1440,900,8-20-2022,11-4-11,20,depth_duration_stimuli/001110_2014-06-15_17-25-28_260595134347_rgbf000150-resize_1/001110_2014-06-15_17-25-28_260595134347_rgbf000150-resize_1-target.png,250,1.7115,1,2193,242,meters,jsons/v1_VE250_randls_72.json,496989,848948,35,Woman
20,100961,DepthScenes,duration_manipulation_targetAtFixation,jsons/v1_VE250_randls_72.json,http://54.235.29.9/FacialAge/BNav_EC2/DepthDuration/v2_depth_duration_MTurk/v2_DepthDuration_HTML.html#74,74,1440,789,1440,900,8-20-2022,11-4-11,21,depth_duration_stimuli/000927_2014-06-09_16-32-30_260595134347_rgbf000123-resize_3/000927_2014-06-09_16-32-30_260595134347_rgbf000123-resize_3-target.png,250,2.6785,1,2306,249,meters,jsons/v1_VE250_randls_72.json,496989,848948,35,Woman
21,100961,DepthScenes,duration_manipulation_targetAtFixation,jsons/v1_VE250_randls_72.json,http://54.235.29.9/FacialAge/BNav_EC2/DepthDuration/v2_depth_duration_MTurk/v2_DepthDuration_HTML.html#74,74,1440,789,1440,900,8-20-2022,11-4-11,22,depth_duration_stimuli/002663_2014-06-13_15-50-26_094959634447_rgbf000075-resize_1/002663_2014-06-13_15-50-26_094959634447_rgbf000075-resize_1-target.png,250,4.7495,1,3921,250,meters,jsons/v1_VE250_randls_72.json,496989,848948,35,Woman
22,100961,DepthScenes,duration_manipulation_targetAtFixation,jsons/v1_VE250_randls_72.json,http://54.235.29.9/FacialAge/BNav_EC2/DepthDuration/v2_depth_duration_MTurk/v2_DepthDuration_HTML.html#74,74,1440,789,1440,900,8-20-2022,11-4-11,23,depth_duration_stimuli/000409_2014-06-04_19-23-33_260595134347_rgbf000067-resize_0/000409_2014-06-04_19-23-33_260595134347_rgbf000067-resize_0-target.png,250,3.7335,1,2160,250,meters,jsons/v1_VE250_randls_72.json,496989,848948,35,Woman
23,100961,DepthScenes,duration_manipulation_targetAtFixation,jsons/v1_VE250_randls_72.json,http://54.235.29.9/FacialAge/BNav_EC2/DepthDuration/v2_depth_duration_MTurk/v2_DepthDuration_HTML.html#74,74,1440,789,1440,900,8-20-2022,11-4-11,24,depth_duration_stimuli/000522_2014-06-08_13-35-06_260595134347_rgbf000244-resize_1/000522_2014-06-08_13-35-06_260595134347_rgbf000244-resize_1-target.png,250,2.3715,1,1829,250,meters,jsons/v1_VE250_randls_72.json,496989,848948,35,Woman
24,100961,DepthScenes,duration_manipulation_targetAtFixation,jsons/v1_VE250_randls_72.json,http://54.235.29.9/FacialAge/BNav_EC2/DepthDuration/v2_depth_duration_MTurk/v2_DepthDuration_HTML.html#74,74,1440,789,1440,900,8-20-2022,11-4-11,25,depth_duration_stimuli/002949_2014-06-26_15-57-42_094959634447_rgbf000079-resize_1/002949_2014-06-26_15-57-42_094959634447_rgbf000079-resize_1-target.png,250,1.8915,1,1960,249,meters,jsons/v1_VE250_randls_72.json,496989,848948,35,Woman
25,100961,DepthScenes,duration_manipulation_targetAtFixation,jsons/v1_VE250_randls_72.json,http://54.235.29.9/FacialAge/BNav_EC2/DepthDuration/v2_depth_duration_MTurk/v2_DepthDuration_HTML.html#74,74,1440,789,1440,900,8-20-2022,11-4-11,26,depth_duration_stimuli/001806_2014-06-26_20-50-20_260595134347_rgbf000091-resize_1/001806_2014-06-26_20-50-20_260595134347_rgbf000091-resize_1-target.png,250,2.7305,1,1810,251,meters,jsons/v1_VE250_randls_72.json,496989,848948,35,Woman
26,100961,DepthScenes,duration_manipulation_targetAtFixation,jsons/v1_VE250_randls_72.json,http://54.235.29.9/FacialAge/BNav_EC2/DepthDuration/v2_depth_duration_MTurk/v2_DepthDuration_HTML.html#74,74,1440,789,1440,900,8-20-2022,11-4-11,27,depth_duration_stimuli/001617_2014-06-20_11-35-32_260595134347_rgbf000066-resize_1/001617_2014-06-20_11-35-32_260595134347_rgbf000066-resize_1-target.png,250,3.7910000000000004,1,1739,250,meters,jsons/v1_VE250_randls_72.json,496989,848948,35,Woman
27,100961,DepthScenes,duration_manipulation_targetAtFixation,jsons/v1_VE250_randls_72.json,http://54.235.29.9/FacialAge/BNav_EC2/DepthDuration/v2_depth_duration_MTurk/v2_DepthDuration_HTML.html#74,74,1440,789,1440,900,8-20-2022,11-4-11,28,depth_duration_stimuli/000414_2014-06-04_19-49-13_260595134347_rgbf000044-resize_0/000414_2014-06-04_19-49-13_260595134347_rgbf000044-resize_0-target.png,250,4.329,1,1730,249,meters,jsons/v1_VE250_randls_72.json,496989,848948,35,Woman
28,100961,DepthScenes,duration_manipulation_targetAtFixation,jsons/v1_VE250_randls_72.json,http://54.235.29.9/FacialAge/BNav_EC2/DepthDuration/v2_depth_duration_MTurk/v2_DepthDuration_HTML.html#74,74,1440,789,1440,900,8-20-2022,11-4-11,29,depth_duration_stimuli/003129_2014-05-12_10-48-10_094959634447_rgbf000100-resize_0/003129_2014-05-12_10-48-10_094959634447_rgbf000100-resize_0-target.png,250,4.9305,1,2515,251,meters,jsons/v1_VE250_randls_72.json,496989,848948,35,Woman
29,100961,DepthScenes,duration_manipulation_targetAtFixation,jsons/v1_VE250_randls_72.json,http://54.235.29.9/FacialAge/BNav_EC2/DepthDuration/v2_depth_duration_MTurk/v2_DepthDuration_HTML.html#74,74,1440,789,1440,900,8-20-2022,11-4-11,30,depth_duration_stimuli/000375_2014-06-08_11-17-29_260595134347_rgbf000133-resize_2/000375_2014-06-08_11-17-29_260595134347_rgbf000133-resize-original.jpg,250,4.718,0,2235,251,meters,jsons/v1_VE250_randls_72.json,496989,848948,35,Woman
30,100961,DepthScenes,duration_manipulation_targetAtFixation,jsons/v1_VE250_randls_72.json,http://54.235.29.9/FacialAge/BNav_EC2/DepthDuration/v2_depth_duration_MTurk/v2_DepthDuration_HTML.html#74,74,1440,789,1440,900,8-20-2022,11-4-11,31,depth_duration_stimuli/001164_2014-06-17_15-35-46_260595134347_rgbf000085-resize_3/001164_2014-06-17_15-35-46_260595134347_rgbf000085-resize_3-target.png,250,2.354,1,2155,251,meters,jsons/v1_VE250_randls_72.json,496989,848948,35,Woman
31,100961,DepthScenes,duration_manipulation_targetAtFixation,jsons/v1_VE250_randls_72.json,http://54.235.29.9/FacialAge/BNav_EC2/DepthDuration/v2_depth_duration_MTurk/v2_DepthDuration_HTML.html#74,74,1440,789,1440,900,8-20-2022,11-4-11,32,depth_duration_stimuli/001136_2014-06-17_15-19-41_260595134347_rgbf000076-resize_3/001136_2014-06-17_15-19-41_260595134347_rgbf000076-resize_3-target.png,250,1.8655,1,2182,244,meters,jsons/v1_VE250_randls_72.json,496989,848948,35,Woman
32,100961,DepthScenes,duration_manipulation_targetAtFixation,jsons/v1_VE250_randls_72.json,http://54.235.29.9/FacialAge/BNav_EC2/DepthDuration/v2_depth_duration_MTurk/v2_DepthDuration_HTML.html#74,74,1440,789,1440,900,8-20-2022,11-4-11,33,depth_duration_stimuli/001808_2014-06-26_20-50-58_260595134347_rgbf000029-resize_1/001808_2014-06-26_20-50-58_260595134347_rgbf000029-resize_1-target.png,250,4.249,1,3055,250,meters,jsons/v1_VE250_randls_72.json,496989,848948,35,Woman
33,100961,DepthScenes,duration_manipulation_targetAtFixation,jsons/v1_VE250_randls_72.json,http://54.235.29.9/FacialAge/BNav_EC2/DepthDuration/v2_depth_duration_MTurk/v2_DepthDuration_HTML.html#74,74,1440,789,1440,900,8-20-2022,11-4-11,34,depth_duration_stimuli/001815_2014-06-26_20-52-55_260595134347_rgbf000020-resize_0/001815_2014-06-26_20-52-55_260595134347_rgbf000020-resize_0-target.png,250,3.3865,0,2333,251,meters,jsons/v1_VE250_randls_72.json,496989,848948,35,Woman
34,100961,DepthScenes,duration_manipulation_targetAtFixation,jsons/v1_VE250_randls_72.json,http://54.235.29.9/FacialAge/BNav_EC2/DepthDuration/v2_depth_duration_MTurk/v2_DepthDuration_HTML.html#74,74,1440,789,1440,900,8-20-2022,11-4-11,35,depth_duration_stimuli/000486_2014-06-09_20-47-20_260595134347_rgbf000143-resize_2/000486_2014-06-09_20-47-20_260595134347_rgbf000143-resize_2-target.png,250,4.8325,1,3274,248,meters,jsons/v1_VE250_randls_72.json,496989,848948,35,Woman
35,100961,DepthScenes,duration_manipulation_targetAtFixation,jsons/v1_VE250_randls_72.json,http://54.235.29.9/FacialAge/BNav_EC2/DepthDuration/v2_depth_duration_MTurk/v2_DepthDuration_HTML.html#74,74,1440,789,1440,900,8-20-2022,11-4-11,36,depth_duration_stimuli/003083_2014-06-15_15-21-03_094959634447_rgbf000063-resize_1/003083_2014-06-15_15-21-03_094959634447_rgbf000063-resize_1-target.png,250,4.1405,1,3180,249,meters,jsons/v1_VE250_randls_72.json,496989,848948,35,Woman
36,100961,DepthScenes,duration_manipulation_targetAtFixation,jsons/v1_VE250_randls_72.json,http://54.235.29.9/FacialAge/BNav_EC2/DepthDuration/v2_depth_duration_MTurk/v2_DepthDuration_HTML.html#74,74,1440,789,1440,900,8-20-2022,11-4-11,37,depth_duration_stimuli/001092_2014-06-15_17-34-58_260595134347_rgbf000171-resize_3/001092_2014-06-15_17-34-58_260595134347_rgbf000171-resize_3-target.png,250,2.6935,1,1865,277,meters,jsons/v1_VE250_randls_72.json,496989,848948,35,Woman
37,100961,DepthScenes,duration_manipulation_targetAtFixation,jsons/v1_VE250_randls_72.json,http://54.235.29.9/FacialAge/BNav_EC2/DepthDuration/v2_depth_duration_MTurk/v2_DepthDuration_HTML.html#74,74,1440,789,1440,900,8-20-2022,11-4-11,38,depth_duration_stimuli/002545_2014-06-24_13-38-53_094959634447_rgbf000080-resize_4/002545_2014-06-24_13-38-53_094959634447_rgbf000080-resize_4-target.png,250,1.9205,1,2364,250,meters,jsons/v1_VE250_randls_72.json,496989,848948,35,Woman
38,100961,DepthScenes,duration_manipulation_targetAtFixation,jsons/v1_VE250_randls_72.json,http://54.235.29.9/FacialAge/BNav_EC2/DepthDuration/v2_depth_duration_MTurk/v2_DepthDuration_HTML.html#74,74,1440,789,1440,900,8-20-2022,11-4-11,39,depth_duration_stimuli/000739_2014-06-08_18-45-58_260595134347_rgbf000068-resize_1/000739_2014-06-08_18-45-58_260595134347_rgbf000068-resize_1-target.png,250,3.534,1,1916,250,meters,jsons/v1_VE250_randls_72.json,496989,848948,35,Woman
39,100961,DepthScenes,duration_manipulation_targetAtFixation,jsons/v1_VE250_randls_72.json,http://54.235.29.9/FacialAge/BNav_EC2/DepthDuration/v2_depth_duration_MTurk/v2_DepthDuration_HTML.html#74,74,1440,789,1440,900,8-20-2022,11-4-11,40,depth_duration_stimuli/000734_2014-06-08_17-39-11_260595134347_rgbf000128-resize_2/000734_2014-06-08_17-39-11_260595134347_rgbf000128-resize_2-target.png,250,4.098,1,7674,251,meters,jsons/v1_VE250_randls_72.json,496989,848948,35,Woman
40,100961,DepthScenes,duration_manipulation_targetAtFixation,jsons/v1_VE250_randls_72.json,http://54.235.29.9/FacialAge/BNav_EC2/DepthDuration/v2_depth_duration_MTurk/v2_DepthDuration_HTML.html#74,74,1440,789,1440,900,8-20-2022,11-4-11,41,depth_duration_stimuli/001167_2014-06-17_15-38-07_260595134347_rgbf000108-resize_0/001167_2014-06-17_15-38-07_260595134347_rgbf000108-resize_0-target.png,250,1.8505,1,2145,250,meters,jsons/v1_VE250_randls_72.json,496989,848948,35,Woman
41,100961,DepthScenes,duration_manipulation_targetAtFixation,jsons/v1_VE250_randls_72.json,http://54.235.29.9/FacialAge/BNav_EC2/DepthDuration/v2_depth_duration_MTurk/v2_DepthDuration_HTML.html#74,74,1440,789,1440,900,8-20-2022,11-4-11,42,depth_duration_stimuli/003587_2014-05-23_16-48-02_094959634447_rgbf002384-resize_2/003587_2014-05-23_16-48-02_094959634447_rgbf002384-resize_2-target.png,250,1.357,1,2204,250,meters,jsons/v1_VE250_randls_72.json,496989,848948,35,Woman
42,100961,DepthScenes,duration_manipulation_targetAtFixation,jsons/v1_VE250_randls_72.json,http://54.235.29.9/FacialAge/BNav_EC2/DepthDuration/v2_depth_duration_MTurk/v2_DepthDuration_HTML.html#74,74,1440,789,1440,900,8-20-2022,11-4-11,43,depth_duration_stimuli/002213_2014-06-28_18-37-58_260595134347_rgbf000055-resize_1/002213_2014-06-28_18-37-58_260595134347_rgbf000055-resize_1-target.png,250,3.62,1,2042,251,meters,jsons/v1_VE250_randls_72.json,496989,848948,35,Woman
43,100961,DepthScenes,duration_manipulation_targetAtFixation,jsons/v1_VE250_randls_72.json,http://54.235.29.9/FacialAge/BNav_EC2/DepthDuration/v2_depth_duration_MTurk/v2_DepthDuration_HTML.html#74,74,1440,789,1440,900,8-20-2022,11-4-11,44,depth_duration_stimuli/000691_2014-06-08_13-08-50_260595134347_rgbf000132-resize_3/000691_2014-06-08_13-08-50_260595134347_rgbf000132-resize_3-target.png,250,4.1530000000000005,1,1834,250,meters,jsons/v1_VE250_randls_72.json,496989,848948,35,Woman
44,100961,DepthScenes,duration_manipulation_targetAtFixation,jsons/v1_VE250_randls_72.json,http://54.235.29.9/FacialAge/BNav_EC2/DepthDuration/v2_depth_duration_MTurk/v2_DepthDuration_HTML.html#74,74,1440,789,1440,900,8-20-2022,11-4-11,45,depth_duration_stimuli/000787_2014-06-08_22-33-53_260595134347_rgbf000175-resize_1/000787_2014-06-08_22-33-53_260595134347_rgbf000175-resize-original.jpg,250,4.784,0,2258,250,meters,jsons/v1_VE250_randls_72.json,496989,848948,35,Woman
45,100961,DepthScenes,duration_manipulation_targetAtFixation,jsons/v1_VE250_randls_72.json,http://54.235.29.9/FacialAge/BNav_EC2/DepthDuration/v2_depth_duration_MTurk/v2_DepthDuration_HTML.html#74,74,1440,789,1440,900,8-20-2022,11-4-11,46,depth_duration_stimuli/000788_2014-06-08_22-34-36_260595134347_rgbf000131-resize_1/000788_2014-06-08_22-34-36_260595134347_rgbf000131-resize_1-target.png,250,3.359,1,6769,250,meters,jsons/v1_VE250_randls_72.json,496989,848948,35,Woman
46,100961,DepthScenes,duration_manipulation_targetAtFixation,jsons/v1_VE250_randls_72.json,http://54.235.29.9/FacialAge/BNav_EC2/DepthDuration/v2_depth_duration_MTurk/v2_DepthDuration_HTML.html#74,74,1440,789,1440,900,8-20-2022,11-4-11,47,depth_duration_stimuli/001235_2014-06-17_16-37-36_260595134347_rgbf000084-resize_4/001235_2014-06-17_16-37-36_260595134347_rgbf000084-resize_4-target.png,250,3.6605,1,2297,249,meters,jsons/v1_VE250_randls_72.json,496989,848948,35,Woman
47,100961,DepthScenes,duration_manipulation_targetAtFixation,jsons/v1_VE250_randls_72.json,http://54.235.29.9/FacialAge/BNav_EC2/DepthDuration/v2_depth_duration_MTurk/v2_DepthDuration_HTML.html#74,74,1440,789,1440,900,8-20-2022,11-4-11,48,depth_duration_stimuli/001056_2014-06-08_18-46-44_260595134347_rgbf000068-resize_0/001056_2014-06-08_18-46-44_260595134347_rgbf000068-resize_0-target.png,250,2.6625,1,2163,251,meters,jsons/v1_VE250_randls_72.json,496989,848948,35,Woman
48,100961,DepthScenes,duration_manipulation_targetAtFixation,jsons/v1_VE250_randls_72.json,http://54.235.29.9/FacialAge/BNav_EC2/DepthDuration/v2_depth_duration_MTurk/v2_DepthDuration_HTML.html#74,74,1440,789,1440,900,8-20-2022,11-4-11,49,depth_duration_stimuli/002199_2014-06-28_18-33-56_260595134347_rgbf000074-resize_0/002199_2014-06-28_18-33-56_260595134347_rgbf000074-resize_0-target.png,250,1.996,1,1987,249,meters,jsons/v1_VE250_randls_72.json,496989,848948,35,Woman
49,100961,DepthScenes,duration_manipulation_targetAtFixation,jsons/v1_VE250_randls_72.json,http://54.235.29.9/FacialAge/BNav_EC2/DepthDuration/v2_depth_duration_MTurk/v2_DepthDuration_HTML.html#74,74,1440,789,1440,900,8-20-2022,11-4-11,50,depth_duration_stimuli/000878_2014-06-08_22-52-45_260595134347_rgbf000045-resize_2/000878_2014-06-08_22-52-45_260595134347_rgbf000045-resize_2-target.png,250,2.092,1,2346,248,meters,jsons/v1_VE250_randls_72.json,496989,848948,35,Woman
50,100961,DepthScenes,duration_manipulation_targetAtFixation,jsons/v1_VE250_randls_72.json,http://54.235.29.9/FacialAge/BNav_EC2/DepthDuration/v2_depth_duration_MTurk/v2_DepthDuration_HTML.html#74,74,1440,789,1440,900,8-20-2022,11-4-11,51,depth_duration_stimuli/002953_2014-06-08_17-32-18_094959634447_rgbf000059-resize_5/002953_2014-06-08_17-32-18_094959634447_rgbf000059-resize_5-target.png,250,1.551,1,2187,251,meters,jsons/v1_VE250_randls_72.json,496989,848948,35,Woman
51,100961,DepthScenes,duration_manipulation_targetAtFixation,jsons/v1_VE250_randls_72.json,http://54.235.29.9/FacialAge/BNav_EC2/DepthDuration/v2_depth_duration_MTurk/v2_DepthDuration_HTML.html#74,74,1440,789,1440,900,8-20-2022,11-4-11,52,depth_duration_stimuli/000493_2014-06-09_21-01-18_260595134347_rgbf000196-resize_3/000493_2014-06-09_21-01-18_260595134347_rgbf000196-resize_3-target.png,250,3.44,1,1995,249,meters,jsons/v1_VE250_randls_72.json,496989,848948,35,Woman
52,100961,DepthScenes,duration_manipulation_targetAtFixation,jsons/v1_VE250_randls_72.json,http://54.235.29.9/FacialAge/BNav_EC2/DepthDuration/v2_depth_duration_MTurk/v2_DepthDuration_HTML.html#74,74,1440,789,1440,900,8-20-2022,11-4-11,53,depth_duration_stimuli/000191_2014-05-12_17-07-38_260595134347_rgbf000199-resize_0/000191_2014-05-12_17-07-38_260595134347_rgbf000199-resize_0-target.png,250,3.7995,1,1867,251,meters,jsons/v1_VE250_randls_72.json,496989,848948,35,Woman
53,100961,DepthScenes,duration_manipulation_targetAtFixation,jsons/v1_VE250_randls_72.json,http://54.235.29.9/FacialAge/BNav_EC2/DepthDuration/v2_depth_duration_MTurk/v2_DepthDuration_HTML.html#74,74,1440,789,1440,900,8-20-2022,11-4-11,54,depth_duration_stimuli/002549_2014-06-24_13-41-39_094959634447_rgbf000022-resize_3/002549_2014-06-24_13-41-39_094959634447_rgbf000022-resize_3-target.png,250,1.476,1,2194,250,meters,jsons/v1_VE250_randls_72.json,496989,848948,35,Woman
54,100961,DepthScenes,duration_manipulation_targetAtFixation,jsons/v1_VE250_randls_72.json,http://54.235.29.9/FacialAge/BNav_EC2/DepthDuration/v2_depth_duration_MTurk/v2_DepthDuration_HTML.html#74,74,1440,789,1440,900,8-20-2022,11-4-11,55,depth_duration_stimuli/002750_2014-06-22_19-08-03_094959634447_rgbf000094-resize_4/002750_2014-06-22_19-08-03_094959634447_rgbf000094-resize_4-target.png,250,2.354,1,2570,251,meters,jsons/v1_VE250_randls_72.json,496989,848948,35,Woman
55,100961,DepthScenes,duration_manipulation_targetAtFixation,jsons/v1_VE250_randls_72.json,http://54.235.29.9/FacialAge/BNav_EC2/DepthDuration/v2_depth_duration_MTurk/v2_DepthDuration_HTML.html#74,74,1440,789,1440,900,8-20-2022,11-4-11,56,depth_duration_stimuli/002964_2014-06-08_17-46-11_094959634447_rgbf000091-resize_4/002964_2014-06-08_17-46-11_094959634447_rgbf000091-resize_4-target.png,250,1.6909999999999998,1,2527,247,meters,jsons/v1_VE250_randls_72.json,496989,848948,35,Woman
56,100961,DepthScenes,duration_manipulation_targetAtFixation,jsons/v1_VE250_randls_72.json,http://54.235.29.9/FacialAge/BNav_EC2/DepthDuration/v2_depth_duration_MTurk/v2_DepthDuration_HTML.html#74,74,1440,789,1440,900,8-20-2022,11-4-11,57,depth_duration_stimuli/002136_2014-06-25_21-18-03_260595134347_rgbf000109-resize_3/002136_2014-06-25_21-18-03_260595134347_rgbf000109-resize_3-target.png,250,1.9569999999999999,1,2427,249,meters,jsons/v1_VE250_randls_72.json,496989,848948,35,Woman
57,100961,DepthScenes,duration_manipulation_targetAtFixation,jsons/v1_VE250_randls_72.json,http://54.235.29.9/FacialAge/BNav_EC2/DepthDuration/v2_depth_duration_MTurk/v2_DepthDuration_HTML.html#74,74,1440,789,1440,900,8-20-2022,11-4-11,58,depth_duration_stimuli/000682_2014-06-08_23-14-58_260595134347_rgbf000041-resize_5/000682_2014-06-08_23-14-58_260595134347_rgbf000041-resize_5-target.png,250,2.7239999999999998,1,2387,250,meters,jsons/v1_VE250_randls_72.json,496989,848948,35,Woman
58,100961,DepthScenes,duration_manipulation_targetAtFixation,jsons/v1_VE250_randls_72.json,http://54.235.29.9/FacialAge/BNav_EC2/DepthDuration/v2_depth_duration_MTurk/v2_DepthDuration_HTML.html#74,74,1440,789,1440,900,8-20-2022,11-4-11,59,depth_duration_stimuli/001650_2014-06-20_12-09-00_260595134347_rgbf000087-resize_3/001650_2014-06-20_12-09-00_260595134347_rgbf000087-resize_3-target.png,250,1.9505,1,2307,252,meters,jsons/v1_VE250_randls_72.json,496989,848948,35,Woman
59,100961,DepthScenes,duration_manipulation_targetAtFixation,jsons/v1_VE250_randls_72.json,http://54.235.29.9/FacialAge/BNav_EC2/DepthDuration/v2_depth_duration_MTurk/v2_DepthDuration_HTML.html#74,74,1440,789,1440,900,8-20-2022,11-4-11,60,depth_duration_stimuli/001570_2014-06-20_17-21-09_260595134347_rgbf000135-resize_4/001570_2014-06-20_17-21-09_260595134347_rgbf000135-resize_4-target.png,250,4.467,1,2044,250,meters,jsons/v1_VE250_randls_72.json,496989,848948,35,Woman
60,100961,DepthScenes,duration_manipulation_targetAtFixation,jsons/v1_VE250_randls_72.json,http://54.235.29.9/FacialAge/BNav_EC2/DepthDuration/v2_depth_duration_MTurk/v2_DepthDuration_HTML.html#74,74,1440,789,1440,900,8-20-2022,11-4-11,61,depth_duration_stimuli/001392_2014-06-19_16-07-59_260595134347_rgbf000046-resize_1/001392_2014-06-19_16-07-59_260595134347_rgbf000046-resize_1-target.png,250,4.135,1,1825,248,meters,jsons/v1_VE250_randls_72.json,496989,848948,35,Woman
61,100961,DepthScenes,duration_manipulation_targetAtFixation,jsons/v1_VE250_randls_72.json,http://54.235.29.9/FacialAge/BNav_EC2/DepthDuration/v2_depth_duration_MTurk/v2_DepthDuration_HTML.html#74,74,1440,789,1440,900,8-20-2022,11-4-11,62,depth_duration_stimuli/002988_2014-06-15_12-24-20_094959634447_rgbf000150-resize_1/002988_2014-06-15_12-24-20_094959634447_rgbf000150-resize_1-target.png,250,4.7669999999999995,1,2258,251,meters,jsons/v1_VE250_randls_72.json,496989,848948,35,Woman
62,100961,DepthScenes,duration_manipulation_targetAtFixation,jsons/v1_VE250_randls_72.json,http://54.235.29.9/FacialAge/BNav_EC2/DepthDuration/v2_depth_duration_MTurk/v2_DepthDuration_HTML.html#74,74,1440,789,1440,900,8-20-2022,11-4-11,63,depth_duration_stimuli/001052_2014-06-08_18-24-54_260595134347_rgbf000130-resize_1/001052_2014-06-08_18-24-54_260595134347_rgbf000130-resize_1-target.png,250,4.1045,1,3004,244,meters,jsons/v1_VE250_randls_72.json,496989,848948,35,Woman
63,100961,DepthScenes,duration_manipulation_targetAtFixation,jsons/v1_VE250_randls_72.json,http://54.235.29.9/FacialAge/BNav_EC2/DepthDuration/v2_depth_duration_MTurk/v2_DepthDuration_HTML.html#74,74,1440,789,1440,900,8-20-2022,11-4-11,64,depth_duration_stimuli/002748_2014-06-22_19-07-22_094959634447_rgbf000078-resize_1/002748_2014-06-22_19-07-22_094959634447_rgbf000078-resize_1-target.png,250,4.6705,1,1994,250,meters,jsons/v1_VE250_randls_72.json,496989,848948,35,Woman
64,100961,DepthScenes,duration_manipulation_targetAtFixation,jsons/v1_VE250_randls_72.json,http://54.235.29.9/FacialAge/BNav_EC2/DepthDuration/v2_depth_duration_MTurk/v2_DepthDuration_HTML.html#74,74,1440,789,1440,900,8-20-2022,11-4-11,65,depth_duration_stimuli/002995_2014-06-15_12-31-26_094959634447_rgbf000150-resize_1/002995_2014-06-15_12-31-26_094959634447_rgbf000150-resize_1-target.png,250,3.8360000000000003,1,1948,250,meters,jsons/v1_VE250_randls_72.json,496989,848948,35,Woman
65,100961,DepthScenes,duration_manipulation_targetAtFixation,jsons/v1_VE250_randls_72.json,http://54.235.29.9/FacialAge/BNav_EC2/DepthDuration/v2_depth_duration_MTurk/v2_DepthDuration_HTML.html#74,74,1440,789,1440,900,8-20-2022,11-4-11,66,depth_duration_stimuli/001222_2014-06-17_16-24-06_260595134347_rgbf000073-resize_0/001222_2014-06-17_16-24-06_260595134347_rgbf000073-resize-original.jpg,250,1.4385,0,2013,250,meters,jsons/v1_VE250_randls_72.json,496989,848948,35,Woman
66,100961,DepthScenes,duration_manipulation_targetAtFixation,jsons/v1_VE250_randls_72.json,http://54.235.29.9/FacialAge/BNav_EC2/DepthDuration/v2_depth_duration_MTurk/v2_DepthDuration_HTML.html#74,74,1440,789,1440,900,8-20-2022,11-4-11,67,depth_duration_stimuli/002725_2014-06-22_11-47-51_094959634447_rgbf000070-resize_1/002725_2014-06-22_11-47-51_094959634447_rgbf000070-resize_1-target.png,250,2.195,1,2207,254,meters,jsons/v1_VE250_randls_72.json,496989,848948,35,Woman
67,100961,DepthScenes,duration_manipulation_targetAtFixation,jsons/v1_VE250_randls_72.json,http://54.235.29.9/FacialAge/BNav_EC2/DepthDuration/v2_depth_duration_MTurk/v2_DepthDuration_HTML.html#74,74,1440,789,1440,900,8-20-2022,11-4-11,68,depth_duration_stimuli/002344_2014-06-28_20-06-29_260595134347_rgbf000030-resize_1/002344_2014-06-28_20-06-29_260595134347_rgbf000030-resize_1-target.png,250,1.5795,1,1995,250,meters,jsons/v1_VE250_randls_72.json,496989,848948,35,Woman
68,100961,DepthScenes,duration_manipulation_targetAtFixation,jsons/v1_VE250_randls_72.json,http://54.235.29.9/FacialAge/BNav_EC2/DepthDuration/v2_depth_duration_MTurk/v2_DepthDuration_HTML.html#74,74,1440,789,1440,900,8-20-2022,11-4-11,69,depth_duration_stimuli/003621_2014-05-23_18-06-08_094959634447_rgbf000101-resize_1/003621_2014-05-23_18-06-08_094959634447_rgbf000101-resize_1-target.png,250,3.9835,1,2028,251,meters,jsons/v1_VE250_randls_72.json,496989,848948,35,Woman
69,100961,DepthScenes,duration_manipulation_targetAtFixation,jsons/v1_VE250_randls_72.json,http://54.235.29.9/FacialAge/BNav_EC2/DepthDuration/v2_depth_duration_MTurk/v2_DepthDuration_HTML.html#74,74,1440,789,1440,900,8-20-2022,11-4-11,70,depth_duration_stimuli/001584_2014-06-20_11-07-43_260595134347_rgbf000002-resize_1/001584_2014-06-20_11-07-43_260595134347_rgbf000002-resize_1-target.png,250,3.53,1,2042,250,meters,jsons/v1_VE250_randls_72.json,496989,848948,35,Woman
70,100961,DepthScenes,duration_manipulation_targetAtFixation,jsons/v1_VE250_randls_72.json,http://54.235.29.9/FacialAge/BNav_EC2/DepthDuration/v2_depth_duration_MTurk/v2_DepthDuration_HTML.html#74,74,1440,789,1440,900,8-20-2022,11-4-11,71,depth_duration_stimuli/001059_2014-06-08_21-53-27_260595134347_rgbf000061-resize_4/001059_2014-06-08_21-53-27_260595134347_rgbf000061-resize_4-target.png,250,2.4185,1,6803,251,meters,jsons/v1_VE250_randls_72.json,496989,848948,35,Woman
71,100961,DepthScenes,duration_manipulation_targetAtFixation,jsons/v1_VE250_randls_72.json,http://54.235.29.9/FacialAge/BNav_EC2/DepthDuration/v2_depth_duration_MTurk/v2_DepthDuration_HTML.html#74,74,1440,789,1440,900,8-20-2022,11-4-11,72,depth_duration_stimuli/001032_2014-06-08_13-23-17_260595134347_rgbf000021-resize_3/001032_2014-06-08_13-23-17_260595134347_rgbf000021-resize_3-target.png,250,3.2725,1,2049,249,meters,jsons/v1_VE250_randls_72.json,496989,848948,35,Woman
72,100961,DepthScenes,duration_manipulation_targetAtFixation,jsons/v1_VE250_randls_72.json,http://54.235.29.9/FacialAge/BNav_EC2/DepthDuration/v2_depth_duration_MTurk/v2_DepthDuration_HTML.html#74,74,1440,789,1440,900,8-20-2022,11-4-11,73,depth_duration_stimuli/000009_2014-05-26_14-32-05_260595134347_rgbf000034-resize_3/000009_2014-05-26_14-32-05_260595134347_rgbf000034-resize_3-target.png,250,3.8715,1,2243,250,meters,jsons/v1_VE250_randls_72.json,496989,848948,35,Woman
73,100961,DepthScenes,duration_manipulation_targetAtFixation,jsons/v1_VE250_randls_72.json,http://54.235.29.9/FacialAge/BNav_EC2/DepthDuration/v2_depth_duration_MTurk/v2_DepthDuration_HTML.html#74,74,1440,789,1440,900,8-20-2022,11-4-11,74,depth_duration_stimuli/001828_2014-06-26_21-40-03_260595134347_rgbf000024-resize_0/001828_2014-06-26_21-40-03_260595134347_rgbf000024-resize_0-target.png,250,4.8260000000000005,1,1803,250,meters,jsons/v1_VE250_randls_72.json,496989,848948,35,Woman
74,100961,DepthScenes,duration_manipulation_targetAtFixation,jsons/v1_VE250_randls_72.json,http://54.235.29.9/FacialAge/BNav_EC2/DepthDuration/v2_depth_duration_MTurk/v2_DepthDuration_HTML.html#74,74,1440,789,1440,900,8-20-2022,11-4-11,75,depth_duration_stimuli/000642_2014-06-08_16-59-25_260595134347_rgbf000098-resize_2/000642_2014-06-08_16-59-25_260595134347_rgbf000098-resize_2-target.png,250,2.8815,1,2242,250,meters,jsons/v1_VE250_randls_72.json,496989,848948,35,Woman
75,100961,DepthScenes,duration_manipulation_targetAtFixation,jsons/v1_VE250_randls_72.json,http://54.235.29.9/FacialAge/BNav_EC2/DepthDuration/v2_depth_duration_MTurk/v2_DepthDuration_HTML.html#74,74,1440,789,1440,900,8-20-2022,11-4-11,76,depth_duration_stimuli/002425_2014-06-28_20-27-29_260595134347_rgbf000031-resize_8/002425_2014-06-28_20-27-29_260595134347_rgbf000031-resize_8-target.png,250,3.8960000000000004,1,1891,250,meters,jsons/v1_VE250_randls_72.json,496989,848948,35,Woman
76,100961,DepthScenes,duration_manipulation_targetAtFixation,jsons/v1_VE250_randls_72.json,http://54.235.29.9/FacialAge/BNav_EC2/DepthDuration/v2_depth_duration_MTurk/v2_DepthDuration_HTML.html#74,74,1440,789,1440,900,8-20-2022,11-4-11,77,depth_duration_stimuli/002630_2014-06-24_14-47-50_094959634447_rgbf000055-resize_1/002630_2014-06-24_14-47-50_094959634447_rgbf000055-resize_1-target.png,250,3.0095,1,2913,249,meters,jsons/v1_VE250_randls_72.json,496989,848948,35,Woman
77,100961,DepthScenes,duration_manipulation_targetAtFixation,jsons/v1_VE250_randls_72.json,http://54.235.29.9/FacialAge/BNav_EC2/DepthDuration/v2_depth_duration_MTurk/v2_DepthDuration_HTML.html#74,74,1440,789,1440,900,8-20-2022,11-4-11,78,depth_duration_stimuli/002758_2014-06-22_19-11-20_094959634447_rgbf000128-resize_1/002758_2014-06-22_19-11-20_094959634447_rgbf000128-resize_1-target.png,250,2.555,1,2072,248,meters,jsons/v1_VE250_randls_72.json,496989,848948,35,Woman
78,100961,DepthScenes,duration_manipulation_targetAtFixation,jsons/v1_VE250_randls_72.json,http://54.235.29.9/FacialAge/BNav_EC2/DepthDuration/v2_depth_duration_MTurk/v2_DepthDuration_HTML.html#74,74,1440,789,1440,900,8-20-2022,11-4-11,79,depth_duration_stimuli/002118_2014-06-25_20-32-08_260595134347_rgbf000078-resize_1/002118_2014-06-25_20-32-08_260595134347_rgbf000078-resize_1-target.png,250,2.6460000000000004,1,1868,251,meters,jsons/v1_VE250_randls_72.json,496989,848948,35,Woman
79,100961,DepthScenes,duration_manipulation_targetAtFixation,jsons/v1_VE250_randls_72.json,http://54.235.29.9/FacialAge/BNav_EC2/DepthDuration/v2_depth_duration_MTurk/v2_DepthDuration_HTML.html#74,74,1440,789,1440,900,8-20-2022,11-4-11,80,depth_duration_stimuli/001516_2014-06-20_16-25-09_260595134347_rgbf000076-resize_2/001516_2014-06-20_16-25-09_260595134347_rgbf000076-resize_2-target.png,250,1.7445,1,1915,251,meters,jsons/v1_VE250_randls_72.json,496989,848948,35,Woman
80,100961,DepthScenes,duration_manipulation_targetAtFixation,jsons/v1_VE250_randls_72.json,http://54.235.29.9/FacialAge/BNav_EC2/DepthDuration/v2_depth_duration_MTurk/v2_DepthDuration_HTML.html#74,74,1440,789,1440,900,8-20-2022,11-4-11,81,depth_duration_stimuli/001555_2014-06-20_17-12-10_260595134347_rgbf000065-resize_4/001555_2014-06-20_17-12-10_260595134347_rgbf000065-resize_4-target.png,250,1.633,1,2911,250,meters,jsons/v1_VE250_randls_72.json,496989,848948,35,Woman
81,100961,DepthScenes,duration_manipulation_targetAtFixation,jsons/v1_VE250_randls_72.json,http://54.235.29.9/FacialAge/BNav_EC2/DepthDuration/v2_depth_duration_MTurk/v2_DepthDuration_HTML.html#74,74,1440,789,1440,900,8-20-2022,11-4-11,82,depth_duration_stimuli/000103_2014-05-14_22-01-17_260595134347_rgbf000152-resize_5/000103_2014-05-14_22-01-17_260595134347_rgbf000152-resize_5-target.png,250,1.993,1,2014,248,meters,jsons/v1_VE250_randls_72.json,496989,848948,35,Woman
82,100961,DepthScenes,duration_manipulation_targetAtFixation,jsons/v1_VE250_randls_72.json,http://54.235.29.9/FacialAge/BNav_EC2/DepthDuration/v2_depth_duration_MTurk/v2_DepthDuration_HTML.html#74,74,1440,789,1440,900,8-20-2022,11-4-11,83,depth_duration_stimuli/001029_2014-06-08_13-17-57_260595134347_rgbf000065-resize_1/001029_2014-06-08_13-17-57_260595134347_rgbf000065-resize_1-target.png,250,3.0835,1,1973,250,meters,jsons/v1_VE250_randls_72.json,496989,848948,35,Woman
83,100961,DepthScenes,duration_manipulation_targetAtFixation,jsons/v1_VE250_randls_72.json,http://54.235.29.9/FacialAge/BNav_EC2/DepthDuration/v2_depth_duration_MTurk/v2_DepthDuration_HTML.html#74,74,1440,789,1440,900,8-20-2022,11-4-11,84,depth_duration_stimuli/000677_2014-06-08_23-10-32_260595134347_rgbf000158-resize_6/000677_2014-06-08_23-10-32_260595134347_rgbf000158-resize_6-target.png,250,3.556,1,2178,251,meters,jsons/v1_VE250_randls_72.json,496989,848948,35,Woman
84,100961,DepthScenes,duration_manipulation_targetAtFixation,jsons/v1_VE250_randls_72.json,http://54.235.29.9/FacialAge/BNav_EC2/DepthDuration/v2_depth_duration_MTurk/v2_DepthDuration_HTML.html#74,74,1440,789,1440,900,8-20-2022,11-4-11,85,depth_duration_stimuli/003070_2014-06-15_14-58-27_094959634447_rgbf000150-resize_3/003070_2014-06-15_14-58-27_094959634447_rgbf000150-resize_3-target.png,250,2.9415,1,4987,249,meters,jsons/v1_VE250_randls_72.json,496989,848948,35,Woman
85,100961,DepthScenes,duration_manipulation_targetAtFixation,jsons/v1_VE250_randls_72.json,http://54.235.29.9/FacialAge/BNav_EC2/DepthDuration/v2_depth_duration_MTurk/v2_DepthDuration_HTML.html#74,74,1440,789,1440,900,8-20-2022,11-4-11,86,depth_duration_stimuli/000943_2014-06-09_19-31-07_260595134347_rgbf000128-resize_1/000943_2014-06-09_19-31-07_260595134347_rgbf000128-resize_1-target.png,250,1.9765,1,2169,251,meters,jsons/v1_VE250_randls_72.json,496989,848948,35,Woman
86,100961,DepthScenes,duration_manipulation_targetAtFixation,jsons/v1_VE250_randls_72.json,http://54.235.29.9/FacialAge/BNav_EC2/DepthDuration/v2_depth_duration_MTurk/v2_DepthDuration_HTML.html#74,74,1440,789,1440,900,8-20-2022,11-4-11,87,depth_duration_stimuli/000506_2014-06-08_23-21-00_260595134347_rgbf000070-resize_7/000506_2014-06-08_23-21-00_260595134347_rgbf000070-resize_7-target.png,250,4.0585,1,1970,248,meters,jsons/v1_VE250_randls_72.json,496989,848948,35,Woman
87,100961,DepthScenes,duration_manipulation_targetAtFixation,jsons/v1_VE250_randls_72.json,http://54.235.29.9/FacialAge/BNav_EC2/DepthDuration/v2_depth_duration_MTurk/v2_DepthDuration_HTML.html#74,74,1440,789,1440,900,8-20-2022,11-4-11,88,depth_duration_stimuli/003079_2014-06-15_15-18-20_094959634447_rgbf000152-resize_8/003079_2014-06-15_15-18-20_094959634447_rgbf000152-resize_8-target.png,250,2.8775,1,1938,249,meters,jsons/v1_VE250_randls_72.json,496989,848948,35,Woman
88,100961,DepthScenes,duration_manipulation_targetAtFixation,jsons/v1_VE250_randls_72.json,http://54.235.29.9/FacialAge/BNav_EC2/DepthDuration/v2_depth_duration_MTurk/v2_DepthDuration_HTML.html#74,74,1440,789,1440,900,8-20-2022,11-4-11,89,depth_duration_stimuli/001158_2014-06-17_15-32-16_260595134347_rgbf000138-resize_2/001158_2014-06-17_15-32-16_260595134347_rgbf000138-resize_2-target.png,250,4.5315,1,1873,250,meters,jsons/v1_VE250_randls_72.json,496989,848948,35,Woman
89,100961,DepthScenes,duration_manipulation_targetAtFixation,jsons/v1_VE250_randls_72.json,http://54.235.29.9/FacialAge/BNav_EC2/DepthDuration/v2_depth_duration_MTurk/v2_DepthDuration_HTML.html#74,74,1440,789,1440,900,8-20-2022,11-4-11,90,depth_duration_stimuli/000556_2014-06-09_22-42-56_260595134347_rgbf000214-resize_1/000556_2014-06-09_22-42-56_260595134347_rgbf000214-resize_1-target.png,250,4.8415,1,1937,249,meters,jsons/v1_VE250_randls_72.json,496989,848948,35,Woman
90,100961,DepthScenes,duration_manipulation_targetAtFixation,jsons/v1_VE250_randls_72.json,http://54.235.29.9/FacialAge/BNav_EC2/DepthDuration/v2_depth_duration_MTurk/v2_DepthDuration_HTML.html#74,74,1440,789,1440,900,8-20-2022,11-4-11,91,depth_duration_stimuli/002153_2014-06-25_21-27-18_260595134347_rgbf000038-resize_5/002153_2014-06-25_21-27-18_260595134347_rgbf000038-resize_5-target.png,250,2.505,1,1875,249,meters,jsons/v1_VE250_randls_72.json,496989,848948,35,Woman
91,100961,DepthScenes,duration_manipulation_targetAtFixation,jsons/v1_VE250_randls_72.json,http://54.235.29.9/FacialAge/BNav_EC2/DepthDuration/v2_depth_duration_MTurk/v2_DepthDuration_HTML.html#74,74,1440,789,1440,900,8-20-2022,11-4-11,92,depth_duration_stimuli/002660_2014-06-13_15-44-18_094959634447_rgbf001878-resize_2/002660_2014-06-13_15-44-18_094959634447_rgbf001878-resize_2-target.png,250,3.576,1,1955,250,meters,jsons/v1_VE250_randls_72.json,496989,848948,35,Woman
92,100961,DepthScenes,duration_manipulation_targetAtFixation,jsons/v1_VE250_randls_72.json,http://54.235.29.9/FacialAge/BNav_EC2/DepthDuration/v2_depth_duration_MTurk/v2_DepthDuration_HTML.html#74,74,1440,789,1440,900,8-20-2022,11-4-11,93,depth_duration_stimuli/002905_2014-06-03_18-04-43_094959634447_rgbf000151-resize_2/002905_2014-06-03_18-04-43_094959634447_rgbf000151-resize_2-target.png,250,2.0295,1,2978,251,meters,jsons/v1_VE250_randls_72.json,496989,848948,35,Woman
93,100961,DepthScenes,duration_manipulation_targetAtFixation,jsons/v1_VE250_randls_72.json,http://54.235.29.9/FacialAge/BNav_EC2/DepthDuration/v2_depth_duration_MTurk/v2_DepthDuration_HTML.html#74,74,1440,789,1440,900,8-20-2022,11-4-11,94,depth_duration_stimuli/003423_2014-05-21_10-23-26_094959634447_rgbf002665-resize_2/003423_2014-05-21_10-23-26_094959634447_rgbf002665-resize_2-target.png,250,3.2575,1,1914,251,meters,jsons/v1_VE250_randls_72.json,496989,848948,35,Woman
94,100961,DepthScenes,duration_manipulation_targetAtFixation,jsons/v1_VE250_randls_72.json,http://54.235.29.9/FacialAge/BNav_EC2/DepthDuration/v2_depth_duration_MTurk/v2_DepthDuration_HTML.html#74,74,1440,789,1440,900,8-20-2022,11-4-11,95,depth_duration_stimuli/000736_2014-06-08_18-24-15_260595134347_rgbf000206-resize_3/000736_2014-06-08_18-24-15_260595134347_rgbf000206-resize_3-target.png,250,3.515,1,1945,248,meters,jsons/v1_VE250_randls_72.json,496989,848948,35,Woman
95,100961,DepthScenes,duration_manipulation_targetAtFixation,jsons/v1_VE250_randls_72.json,http://54.235.29.9/FacialAge/BNav_EC2/DepthDuration/v2_depth_duration_MTurk/v2_DepthDuration_HTML.html#74,74,1440,789,1440,900,8-20-2022,11-4-11,96,depth_duration_stimuli/000137_2014-05-20_17-04-49_260595134347_rgbf000120-resize_1/000137_2014-05-20_17-04-49_260595134347_rgbf000120-resize_1-target.png,250,3.786,1,2242,250,meters,jsons/v1_VE250_randls_72.json,496989,848948,35,Woman
96,100961,DepthScenes,duration_manipulation_targetAtFixation,jsons/v1_VE250_randls_72.json,http://54.235.29.9/FacialAge/BNav_EC2/DepthDuration/v2_depth_duration_MTurk/v2_DepthDuration_HTML.html#74,74,1440,789,1440,900,8-20-2022,11-4-11,97,depth_duration_stimuli/002043_2014-06-24_20-29-38_260595134347_rgbf000039-resize_4/002043_2014-06-24_20-29-38_260595134347_rgbf000039-resize_4-target.png,250,2.8435,1,1979,250,meters,jsons/v1_VE250_randls_72.json,496989,848948,35,Woman
97,100961,DepthScenes,duration_manipulation_targetAtFixation,jsons/v1_VE250_randls_72.json,http://54.235.29.9/FacialAge/BNav_EC2/DepthDuration/v2_depth_duration_MTurk/v2_DepthDuration_HTML.html#74,74,1440,789,1440,900,8-20-2022,11-4-11,98,depth_duration_stimuli/003048_2014-06-15_13-49-43_094959634447_rgbf000150-resize_1/003048_2014-06-15_13-49-43_094959634447_rgbf000150-resize_1-target.png,250,4.0035,1,4195,250,meters,jsons/v1_VE250_randls_72.json,496989,848948,35,Woman
98,100961,DepthScenes,duration_manipulation_targetAtFixation,jsons/v1_VE250_randls_72.json,http://54.235.29.9/FacialAge/BNav_EC2/DepthDuration/v2_depth_duration_MTurk/v2_DepthDuration_HTML.html#74,74,1440,789,1440,900,8-20-2022,11-4-11,99,depth_duration_stimuli/001540_2014-06-20_17-01-05_260595134347_rgbf000086-resize_2/001540_2014-06-20_17-01-05_260595134347_rgbf000086-resize-original.jpg,250,1.459,0,2259,249,meters,jsons/v1_VE250_randls_72.json,496989,848948,35,Woman
99,100961,DepthScenes,duration_manipulation_targetAtFixation,jsons/v1_VE250_randls_72.json,http://54.235.29.9/FacialAge/BNav_EC2/DepthDuration/v2_depth_duration_MTurk/v2_DepthDuration_HTML.html#74,74,1440,789,1440,900,8-20-2022,11-4-11,100,depth_duration_stimuli/002600_2014-06-24_14-27-04_094959634447_rgbf000074-resize_2/002600_2014-06-24_14-27-04_094959634447_rgbf000074-resize_2-target.png,250,2.7575,1,3179,250,meters,jsons/v1_VE250_randls_72.json,496989,848948,35,Woman
100,100961,DepthScenes,duration_manipulation_targetAtFixation,jsons/v1_VE250_randls_72.json,http://54.235.29.9/FacialAge/BNav_EC2/DepthDuration/v2_depth_duration_MTurk/v2_DepthDuration_HTML.html#74,74,1440,789,1440,900,8-20-2022,11-4-11,101,depth_duration_stimuli/003228_2014-05-14_13-42-35_094959634447_rgbf000101-resize_1/003228_2014-05-14_13-42-35_094959634447_rgbf000101-resize_1-target.png,250,1.9680000000000002,1,3258,250,meters,jsons/v1_VE250_randls_72.json,496989,848948,35,Woman
101,100961,DepthScenes,duration_manipulation_targetAtFixation,jsons/v1_VE250_randls_72.json,http://54.235.29.9/FacialAge/BNav_EC2/DepthDuration/v2_depth_duration_MTurk/v2_DepthDuration_HTML.html#74,74,1440,789,1440,900,8-20-2022,11-4-11,102,depth_duration_stimuli/002445_2014-06-28_20-32-16_260595134347_rgbf000029-resize_4/002445_2014-06-28_20-32-16_260595134347_rgbf000029-resize_4-target.png,250,2.5315,1,2138,249,meters,jsons/v1_VE250_randls_72.json,496989,848948,35,Woman
102,100961,DepthScenes,duration_manipulation_targetAtFixation,jsons/v1_VE250_randls_72.json,http://54.235.29.9/FacialAge/BNav_EC2/DepthDuration/v2_depth_duration_MTurk/v2_DepthDuration_HTML.html#74,74,1440,789,1440,900,8-20-2022,11-4-11,103,depth_duration_stimuli/000780_2014-06-08_22-28-29_260595134347_rgbf000126-resize_1/000780_2014-06-08_22-28-29_260595134347_rgbf000126-resize_1-target.png,250,3.3825,1,2634,251,meters,jsons/v1_VE250_randls_72.json,496989,848948,35,Woman
103,100961,DepthScenes,duration_manipulation_targetAtFixation,jsons/v1_VE250_randls_72.json,http://54.235.29.9/FacialAge/BNav_EC2/DepthDuration/v2_depth_duration_MTurk/v2_DepthDuration_HTML.html#74,74,1440,789,1440,900,8-20-2022,11-4-11,104,depth_duration_stimuli/002039_2014-06-24_20-22-38_260595134347_rgbf000084-resize_1/002039_2014-06-24_20-22-38_260595134347_rgbf000084-resize_1-target.png,250,4.408,1,1884,251,meters,jsons/v1_VE250_randls_72.json,496989,848948,35,Woman
104,100961,DepthScenes,duration_manipulation_targetAtFixation,jsons/v1_VE250_randls_72.json,http://54.235.29.9/FacialAge/BNav_EC2/DepthDuration/v2_depth_duration_MTurk/v2_DepthDuration_HTML.html#74,74,1440,789,1440,900,8-20-2022,11-4-11,105,depth_duration_stimuli/002103_2014-06-25_20-00-40_260595134347_rgbf000049-resize_0/002103_2014-06-25_20-00-40_260595134347_rgbf000049-resize_0-target.png,250,4.105,1,2171,250,meters,jsons/v1_VE250_randls_72.json,496989,848948,35,Woman
105,100961,DepthScenes,duration_manipulation_targetAtFixation,jsons/v1_VE250_randls_72.json,http://54.235.29.9/FacialAge/BNav_EC2/DepthDuration/v2_depth_duration_MTurk/v2_DepthDuration_HTML.html#74,74,1440,789,1440,900,8-20-2022,11-4-11,106,depth_duration_stimuli/002788_2014-06-22_19-36-03_094959634447_rgbf000088-resize_2/002788_2014-06-22_19-36-03_094959634447_rgbf000088-resize_2-target.png,250,1.6465,1,1882,250,meters,jsons/v1_VE250_randls_72.json,496989,848948,35,Woman
106,100961,DepthScenes,duration_manipulation_targetAtFixation,jsons/v1_VE250_randls_72.json,http://54.235.29.9/FacialAge/BNav_EC2/DepthDuration/v2_depth_duration_MTurk/v2_DepthDuration_HTML.html#74,74,1440,789,1440,900,8-20-2022,11-4-11,107,depth_duration_stimuli/000749_2014-06-08_21-55-06_260595134347_rgbf000070-resize_2/000749_2014-06-08_21-55-06_260595134347_rgbf000070-resize_2-target.png,250,2.331,1,2745,251,meters,jsons/v1_VE250_randls_72.json,496989,848948,35,Woman
107,100961,DepthScenes,duration_manipulation_targetAtFixation,jsons/v1_VE250_randls_72.json,http://54.235.29.9/FacialAge/BNav_EC2/DepthDuration/v2_depth_duration_MTurk/v2_DepthDuration_HTML.html#74,74,1440,789,1440,900,8-20-2022,11-4-11,108,depth_duration_stimuli/000692_2014-06-08_13-09-42_260595134347_rgbf000199-resize_2/000692_2014-06-08_13-09-42_260595134347_rgbf000199-resize_2-target.png,250,3.661,1,2075,251,meters,jsons/v1_VE250_randls_72.json,496989,848948,35,Woman
108,100961,DepthScenes,duration_manipulation_targetAtFixation,jsons/v1_VE250_randls_72.json,http://54.235.29.9/FacialAge/BNav_EC2/DepthDuration/v2_depth_duration_MTurk/v2_DepthDuration_HTML.html#74,74,1440,789,1440,900,8-20-2022,11-4-11,109,depth_duration_stimuli/001094_2014-06-15_17-36-00_260595134347_rgbf000205-resize_0/001094_2014-06-15_17-36-00_260595134347_rgbf000205-resize_0-target.png,250,4.2175,1,1914,250,meters,jsons/v1_VE250_randls_72.json,496989,848948,35,Woman
109,100961,DepthScenes,duration_manipulation_targetAtFixation,jsons/v1_VE250_randls_72.json,http://54.235.29.9/FacialAge/BNav_EC2/DepthDuration/v2_depth_duration_MTurk/v2_DepthDuration_HTML.html#74,74,1440,789,1440,900,8-20-2022,11-4-11,110,depth_duration_stimuli/002509_2014-06-24_13-19-22_094959634447_rgbf000077-resize_0/002509_2014-06-24_13-19-22_094959634447_rgbf000077-resize_0-target.png,250,1.3065,1,1800,249,meters,jsons/v1_VE250_randls_72.json,496989,848948,35,Woman
110,100961,DepthScenes,duration_manipulation_targetAtFixation,jsons/v1_VE250_randls_72.json,http://54.235.29.9/FacialAge/BNav_EC2/DepthDuration/v2_depth_duration_MTurk/v2_DepthDuration_HTML.html#74,74,1440,789,1440,900,8-20-2022,11-4-11,111,depth_duration_stimuli/003338_2014-05-20_11-01-23_094959634447_rgbf000051-resize_6/003338_2014-05-20_11-01-23_094959634447_rgbf000051-resize_6-target.png,250,1.693,1,1924,250,meters,jsons/v1_VE250_randls_72.json,496989,848948,35,Woman
111,100961,DepthScenes,duration_manipulation_targetAtFixation,jsons/v1_VE250_randls_72.json,http://54.235.29.9/FacialAge/BNav_EC2/DepthDuration/v2_depth_duration_MTurk/v2_DepthDuration_HTML.html#74,74,1440,789,1440,900,8-20-2022,11-4-11,112,depth_duration_stimuli/000906_2014-06-08_13-35-43_260595134347_rgbf000155-resize_1/000906_2014-06-08_13-35-43_260595134347_rgbf000155-resize_1-target.png,250,2.8489999999999998,1,1842,264,meters,jsons/v1_VE250_randls_72.json,496989,848948,35,Woman
112,100961,DepthScenes,duration_manipulation_targetAtFixation,jsons/v1_VE250_randls_72.json,http://54.235.29.9/FacialAge/BNav_EC2/DepthDuration/v2_depth_duration_MTurk/v2_DepthDuration_HTML.html#74,74,1440,789,1440,900,8-20-2022,11-4-11,113,depth_duration_stimuli/002805_2014-06-22_19-54-03_094959634447_rgbf000079-resize_1/002805_2014-06-22_19-54-03_094959634447_rgbf000079-resize_1-target.png,250,3.1439999999999997,1,1827,249,meters,jsons/v1_VE250_randls_72.json,496989,848948,35,Woman
113,100961,DepthScenes,duration_manipulation_targetAtFixation,jsons/v1_VE250_randls_72.json,http://54.235.29.9/FacialAge/BNav_EC2/DepthDuration/v2_depth_duration_MTurk/v2_DepthDuration_HTML.html#74,74,1440,789,1440,900,8-20-2022,11-4-11,114,depth_duration_stimuli/001244_2014-06-17_16-47-45_260595134347_rgbf000030-resize_4/001244_2014-06-17_16-47-45_260595134347_rgbf000030-resize_4-target.png,250,2.0425,1,1881,247,meters,jsons/v1_VE250_randls_72.json,496989,848948,35,Woman
114,100961,DepthScenes,duration_manipulation_targetAtFixation,jsons/v1_VE250_randls_72.json,http://54.235.29.9/FacialAge/BNav_EC2/DepthDuration/v2_depth_duration_MTurk/v2_DepthDuration_HTML.html#74,74,1440,789,1440,900,8-20-2022,11-4-11,115,depth_duration_stimuli/003495_2014-05-21_16-01-51_094959634447_rgbf000100-resize_3/003495_2014-05-21_16-01-51_094959634447_rgbf000100-resize_3-target.png,250,1.6255,1,3482,250,meters,jsons/v1_VE250_randls_72.json,496989,848948,35,Woman
115,100961,DepthScenes,duration_manipulation_targetAtFixation,jsons/v1_VE250_randls_72.json,http://54.235.29.9/FacialAge/BNav_EC2/DepthDuration/v2_depth_duration_MTurk/v2_DepthDuration_HTML.html#74,74,1440,789,1440,900,8-20-2022,11-4-11,116,depth_duration_stimuli/001170_2014-06-17_15-43-44_260595134347_rgbf000096-resize_6/001170_2014-06-17_15-43-44_260595134347_rgbf000096-resize-original.jpg,250,1.1909999999999998,0,2242,249,meters,jsons/v1_VE250_randls_72.json,496989,848948,35,Woman
116,100961,DepthScenes,duration_manipulation_targetAtFixation,jsons/v1_VE250_randls_72.json,http://54.235.29.9/FacialAge/BNav_EC2/DepthDuration/v2_depth_duration_MTurk/v2_DepthDuration_HTML.html#74,74,1440,789,1440,900,8-20-2022,11-4-11,117,depth_duration_stimuli/003534_2014-05-22_15-06-10_094959634447_rgbf000102-resize_4/003534_2014-05-22_15-06-10_094959634447_rgbf000102-resize_4-target.png,250,1.426,1,1796,243,meters,jsons/v1_VE250_randls_72.json,496989,848948,35,Woman
117,100961,DepthScenes,duration_manipulation_targetAtFixation,jsons/v1_VE250_randls_72.json,http://54.235.29.9/FacialAge/BNav_EC2/DepthDuration/v2_depth_duration_MTurk/v2_DepthDuration_HTML.html#74,74,1440,789,1440,900,8-20-2022,11-4-11,118,depth_duration_stimuli/002637_2014-06-24_14-51-13_094959634447_rgbf000066-resize_4/002637_2014-06-24_14-51-13_094959634447_rgbf000066-resize_4-target.png,250,1.9955,1,2019,251,meters,jsons/v1_VE250_randls_72.json,496989,848948,35,Woman
118,100961,DepthScenes,duration_manipulation_targetAtFixation,jsons/v1_VE250_randls_72.json,http://54.235.29.9/FacialAge/BNav_EC2/DepthDuration/v2_depth_duration_MTurk/v2_DepthDuration_HTML.html#74,74,1440,789,1440,900,8-20-2022,11-4-11,119,depth_duration_stimuli/002279_2014-06-28_18-55-32_260595134347_rgbf000040-resize_5/002279_2014-06-28_18-55-32_260595134347_rgbf000040-resize_5-target.png,250,1.5043333333333,1,2031,249,meters,jsons/v1_VE250_randls_72.json,496989,848948,35,Woman
119,100961,DepthScenes,duration_manipulation_targetAtFixation,jsons/v1_VE250_randls_72.json,http://54.235.29.9/FacialAge/BNav_EC2/DepthDuration/v2_depth_duration_MTurk/v2_DepthDuration_HTML.html#74,74,1440,789,1440,900,8-20-2022,11-4-11,120,depth_duration_stimuli/000635_2014-06-08_16-38-42_260595134347_rgbf000106-resize_1/000635_2014-06-08_16-38-42_260595134347_rgbf000106-resize_1-target.png,250,2.074,1,1830,249,meters,jsons/v1_VE250_randls_72.json,496989,848948,35,Woman
120,100961,DepthScenes,duration_manipulation_targetAtFixation,jsons/v1_VE250_randls_72.json,http://54.235.29.9/FacialAge/BNav_EC2/DepthDuration/v2_depth_duration_MTurk/v2_DepthDuration_HTML.html#74,74,1440,789,1440,900,8-20-2022,11-4-11,121,depth_duration_stimuli/002272_2014-06-28_18-53-56_260595134347_rgbf000067-resize_2/002272_2014-06-28_18-53-56_260595134347_rgbf000067-resize_2-target.png,250,1.138,1,2275,247,meters,jsons/v1_VE250_randls_72.json,496989,848948,35,Woman
121,100961,DepthScenes,duration_manipulation_targetAtFixation,jsons/v1_VE250_randls_72.json,http://54.235.29.9/FacialAge/BNav_EC2/DepthDuration/v2_depth_duration_MTurk/v2_DepthDuration_HTML.html#74,74,1440,789,1440,900,8-20-2022,11-4-11,122,depth_duration_stimuli/001571_2014-06-20_17-21-32_260595134347_rgbf000089-resize_1/001571_2014-06-20_17-21-32_260595134347_rgbf000089-resize_1-target.png,250,1.86,1,2555,249,meters,jsons/v1_VE250_randls_72.json,496989,848948,35,Woman
122,100961,DepthScenes,duration_manipulation_targetAtFixation,jsons/v1_VE250_randls_72.json,http://54.235.29.9/FacialAge/BNav_EC2/DepthDuration/v2_depth_duration_MTurk/v2_DepthDuration_HTML.html#74,74,1440,789,1440,900,8-20-2022,11-4-11,123,depth_duration_stimuli/001011_2014-06-08_23-18-54_260595134347_rgbf000044-resize_4/001011_2014-06-08_23-18-54_260595134347_rgbf000044-resize_4-target.png,250,2.4730000000000003,1,2178,251,meters,jsons/v1_VE250_randls_72.json,496989,848948,35,Woman
123,100961,DepthScenes,duration_manipulation_targetAtFixation,jsons/v1_VE250_randls_72.json,http://54.235.29.9/FacialAge/BNav_EC2/DepthDuration/v2_depth_duration_MTurk/v2_DepthDuration_HTML.html#74,74,1440,789,1440,900,8-20-2022,11-4-11,124,depth_duration_stimuli/002875_2014-06-01_15-19-00_094959634447_rgbf000151-resize_1/002875_2014-06-01_15-19-00_094959634447_rgbf000151-resize_1-target.png,250,1.9675,1,2499,251,meters,jsons/v1_VE250_randls_72.json,496989,848948,35,Woman
124,100961,DepthScenes,duration_manipulation_targetAtFixation,jsons/v1_VE250_randls_72.json,http://54.235.29.9/FacialAge/BNav_EC2/DepthDuration/v2_depth_duration_MTurk/v2_DepthDuration_HTML.html#74,74,1440,789,1440,900,8-20-2022,11-4-11,125,depth_duration_stimuli/000773_2014-06-08_22-24-54_260595134347_rgbf000093-resize_1/000773_2014-06-08_22-24-54_260595134347_rgbf000093-resize_1-target.png,250,4.973,1,2083,251,meters,jsons/v1_VE250_randls_72.json,496989,848948,35,Woman
125,100961,DepthScenes,duration_manipulation_targetAtFixation,jsons/v1_VE250_randls_72.json,http://54.235.29.9/FacialAge/BNav_EC2/DepthDuration/v2_depth_duration_MTurk/v2_DepthDuration_HTML.html#74,74,1440,789,1440,900,8-20-2022,11-4-11,126,depth_duration_stimuli/002414_2014-06-28_20-24-58_260595134347_rgbf000067-resize_4/002414_2014-06-28_20-24-58_260595134347_rgbf000067-resize_4-target.png,250,4.363,1,2060,249,meters,jsons/v1_VE250_randls_72.json,496989,848948,35,Woman
126,100961,DepthScenes,duration_manipulation_targetAtFixation,jsons/v1_VE250_randls_72.json,http://54.235.29.9/FacialAge/BNav_EC2/DepthDuration/v2_depth_duration_MTurk/v2_DepthDuration_HTML.html#74,74,1440,789,1440,900,8-20-2022,11-4-11,127,depth_duration_stimuli/001055_2014-06-08_18-45-35_260595134347_rgbf000111-resize_4/001055_2014-06-08_18-45-35_260595134347_rgbf000111-resize_4-target.png,250,2.4290000000000003,1,1891,251,meters,jsons/v1_VE250_randls_72.json,496989,848948,35,Woman
127,100961,DepthScenes,duration_manipulation_targetAtFixation,jsons/v1_VE250_randls_72.json,http://54.235.29.9/FacialAge/BNav_EC2/DepthDuration/v2_depth_duration_MTurk/v2_DepthDuration_HTML.html#74,74,1440,789,1440,900,8-20-2022,11-4-11,128,depth_duration_stimuli/000549_2014-06-08_22-10-24_260595134347_rgbf000247-resize_3/000549_2014-06-08_22-10-24_260595134347_rgbf000247-resize_3-target.png,250,1.841,1,2002,251,meters,jsons/v1_VE250_randls_72.json,496989,848948,35,Woman
128,100961,DepthScenes,duration_manipulation_targetAtFixation,jsons/v1_VE250_randls_72.json,http://54.235.29.9/FacialAge/BNav_EC2/DepthDuration/v2_depth_duration_MTurk/v2_DepthDuration_HTML.html#74,74,1440,789,1440,900,8-20-2022,11-4-11,129,depth_duration_stimuli/000917_2014-06-09_22-45-29_260595134347_rgbf000149-resize_3/000917_2014-06-09_22-45-29_260595134347_rgbf000149-resize_3-target.png,250,4.1865,1,2355,252,meters,jsons/v1_VE250_randls_72.json,496989,848948,35,Woman
129,100961,DepthScenes,duration_manipulation_targetAtFixation,jsons/v1_VE250_randls_72.json,http://54.235.29.9/FacialAge/BNav_EC2/DepthDuration/v2_depth_duration_MTurk/v2_DepthDuration_HTML.html#74,74,1440,789,1440,900,8-20-2022,11-4-11,130,depth_duration_stimuli/002323_2014-06-28_20-01-54_260595134347_rgbf000051-resize_4/002323_2014-06-28_20-01-54_260595134347_rgbf000051-resize_4-target.png,250,3.7310000000000003,1,3355,249,meters,jsons/v1_VE250_randls_72.json,496989,848948,35,Woman
130,100961,DepthScenes,duration_manipulation_targetAtFixation,jsons/v1_VE250_randls_72.json,http://54.235.29.9/FacialAge/BNav_EC2/DepthDuration/v2_depth_duration_MTurk/v2_DepthDuration_HTML.html#74,74,1440,789,1440,900,8-20-2022,11-4-11,131,depth_duration_stimuli/002057_2014-06-24_21-00-13_260595134347_rgbf000120-resize_1/002057_2014-06-24_21-00-13_260595134347_rgbf000120-resize_1-target.png,250,2.967,1,2266,249,meters,jsons/v1_VE250_randls_72.json,496989,848948,35,Woman
131,100961,DepthScenes,duration_manipulation_targetAtFixation,jsons/v1_VE250_randls_72.json,http://54.235.29.9/FacialAge/BNav_EC2/DepthDuration/v2_depth_duration_MTurk/v2_DepthDuration_HTML.html#74,74,1440,789,1440,900,8-20-2022,11-4-11,132,depth_duration_stimuli/000709_2014-06-08_13-51-55_260595134347_rgbf000068-resize_3/000709_2014-06-08_13-51-55_260595134347_rgbf000068-resize_3-target.png,250,1.8030000000000002,1,1848,250,meters,jsons/v1_VE250_randls_72.json,496989,848948,35,Woman
132,100961,DepthScenes,duration_manipulation_targetAtFixation,jsons/v1_VE250_randls_72.json,http://54.235.29.9/FacialAge/BNav_EC2/DepthDuration/v2_depth_duration_MTurk/v2_DepthDuration_HTML.html#74,74,1440,789,1440,900,8-20-2022,11-4-11,133,depth_duration_stimuli/002989_2014-06-15_12-25-03_094959634447_rgbf000150-resize_3/002989_2014-06-15_12-25-03_094959634447_rgbf000150-resize_3-target.png,250,4.1975,1,2052,248,meters,jsons/v1_VE250_randls_72.json,496989,848948,35,Woman
133,100961,DepthScenes,duration_manipulation_targetAtFixation,jsons/v1_VE250_randls_72.json,http://54.235.29.9/FacialAge/BNav_EC2/DepthDuration/v2_depth_duration_MTurk/v2_DepthDuration_HTML.html#74,74,1440,789,1440,900,8-20-2022,11-4-11,134,depth_duration_stimuli/000866_2014-06-09_20-45-42_260595134347_rgbf000139-resize_1/000866_2014-06-09_20-45-42_260595134347_rgbf000139-resize_1-target.png,250,3.2155,1,1995,251,meters,jsons/v1_VE250_randls_72.json,496989,848948,35,Woman
134,100961,DepthScenes,duration_manipulation_targetAtFixation,jsons/v1_VE250_randls_72.json,http://54.235.29.9/FacialAge/BNav_EC2/DepthDuration/v2_depth_duration_MTurk/v2_DepthDuration_HTML.html#74,74,1440,789,1440,900,8-20-2022,11-4-11,135,depth_duration_stimuli/002072_2014-06-24_21-48-06_260595134347_rgbf000115-resize_0/002072_2014-06-24_21-48-06_260595134347_rgbf000115-resize-original.jpg,250,4.702,0,1961,250,meters,jsons/v1_VE250_randls_72.json,496989,848948,35,Woman
135,100961,DepthScenes,duration_manipulation_targetAtFixation,jsons/v1_VE250_randls_72.json,http://54.235.29.9/FacialAge/BNav_EC2/DepthDuration/v2_depth_duration_MTurk/v2_DepthDuration_HTML.html#74,74,1440,789,1440,900,8-20-2022,11-4-11,136,depth_duration_stimuli/001133_2014-06-17_14-49-16_260595134347_rgbf000100-resize_0/001133_2014-06-17_14-49-16_260595134347_rgbf000100-resize_0-target.png,250,4.2115,1,1851,251,meters,jsons/v1_VE250_randls_72.json,496989,848948,35,Woman
136,100961,DepthScenes,duration_manipulation_targetAtFixation,jsons/v1_VE250_randls_72.json,http://54.235.29.9/FacialAge/BNav_EC2/DepthDuration/v2_depth_duration_MTurk/v2_DepthDuration_HTML.html#74,74,1440,789,1440,900,8-20-2022,11-4-11,137,depth_duration_stimuli/001132_2014-06-17_14-48-54_260595134347_rgbf000100-resize_2/001132_2014-06-17_14-48-54_260595134347_rgbf000100-resize_2-target.png,250,3.753,1,1815,247,meters,jsons/v1_VE250_randls_72.json,496989,848948,35,Woman
137,100961,DepthScenes,duration_manipulation_targetAtFixation,jsons/v1_VE250_randls_72.json,http://54.235.29.9/FacialAge/BNav_EC2/DepthDuration/v2_depth_duration_MTurk/v2_DepthDuration_HTML.html#74,74,1440,789,1440,900,8-20-2022,11-4-11,138,depth_duration_stimuli/000469_2014-06-09_19-42-10_260595134347_rgbf000081-resize_1/000469_2014-06-09_19-42-10_260595134347_rgbf000081-resize_1-target.png,250,1.652,1,1764,251,meters,jsons/v1_VE250_randls_72.json,496989,848948,35,Woman
138,100961,DepthScenes,duration_manipulation_targetAtFixation,jsons/v1_VE250_randls_72.json,http://54.235.29.9/FacialAge/BNav_EC2/DepthDuration/v2_depth_duration_MTurk/v2_DepthDuration_HTML.html#74,74,1440,789,1440,900,8-20-2022,11-4-11,139,depth_duration_stimuli/000483_2014-06-09_20-41-45_260595134347_rgbf000116-resize_4/000483_2014-06-09_20-41-45_260595134347_rgbf000116-resize_4-target.png,250,1.337,1,1851,250,meters,jsons/v1_VE250_randls_72.json,496989,848948,35,Woman
139,100961,DepthScenes,duration_manipulation_targetAtFixation,jsons/v1_VE250_randls_72.json,http://54.235.29.9/FacialAge/BNav_EC2/DepthDuration/v2_depth_duration_MTurk/v2_DepthDuration_HTML.html#74,74,1440,789,1440,900,8-20-2022,11-4-11,140,depth_duration_stimuli/001417_2014-06-19_16-25-36_260595134347_rgbf000115-resize_5/001417_2014-06-19_16-25-36_260595134347_rgbf000115-resize_5-target.png,250,4.6255,1,3299,250,meters,jsons/v1_VE250_randls_72.json,496989,848948,35,Woman
140,100961,DepthScenes,duration_manipulation_targetAtFixation,jsons/v1_VE250_randls_72.json,http://54.235.29.9/FacialAge/BNav_EC2/DepthDuration/v2_depth_duration_MTurk/v2_DepthDuration_HTML.html#74,74,1440,789,1440,900,8-20-2022,11-4-11,141,depth_duration_stimuli/003081_2014-06-15_15-19-16_094959634447_rgbf000150-resize_1/003081_2014-06-15_15-19-16_094959634447_rgbf000150-resize_1-target.png,250,3.9125,1,1987,249,meters,jsons/v1_VE250_randls_72.json,496989,848948,35,Woman
141,100961,DepthScenes,duration_manipulation_targetAtFixation,jsons/v1_VE250_randls_72.json,http://54.235.29.9/FacialAge/BNav_EC2/DepthDuration/v2_depth_duration_MTurk/v2_DepthDuration_HTML.html#74,74,1440,789,1440,900,8-20-2022,11-4-11,142,depth_duration_stimuli/002375_2014-06-28_20-13-44_260595134347_rgbf000032-resize_1/002375_2014-06-28_20-13-44_260595134347_rgbf000032-resize_1-target.png,250,4.0175,1,2539,250,meters,jsons/v1_VE250_randls_72.json,496989,848948,35,Woman
142,100961,DepthScenes,duration_manipulation_targetAtFixation,jsons/v1_VE250_randls_72.json,http://54.235.29.9/FacialAge/BNav_EC2/DepthDuration/v2_depth_duration_MTurk/v2_DepthDuration_HTML.html#74,74,1440,789,1440,900,8-20-2022,11-4-11,143,depth_duration_stimuli/002657_2014-06-13_15-29-54_094959634447_rgbf000150-resize_1/002657_2014-06-13_15-29-54_094959634447_rgbf000150-resize_1-target.png,250,4.919,1,2234,246,meters,jsons/v1_VE250_randls_72.json,496989,848948,35,Woman
143,100961,DepthScenes,duration_manipulation_targetAtFixation,jsons/v1_VE250_randls_72.json,http://54.235.29.9/FacialAge/BNav_EC2/DepthDuration/v2_depth_duration_MTurk/v2_DepthDuration_HTML.html#74,74,1440,789,1440,900,8-20-2022,11-4-11,144,depth_duration_stimuli/000810_2014-06-08_17-20-01_260595134347_rgbf000105-resize_0/000810_2014-06-08_17-20-01_260595134347_rgbf000105-resize_0-target.png,250,1.4865,1,2195,250,meters,jsons/v1_VE250_randls_72.json,496989,848948,35,Woman
144,100961,DepthScenes,duration_manipulation_targetAtFixation,jsons/v1_VE250_randls_72.json,http://54.235.29.9/FacialAge/BNav_EC2/DepthDuration/v2_depth_duration_MTurk/v2_DepthDuration_HTML.html#74,74,1440,789,1440,900,8-20-2022,11-4-11,145,depth_duration_stimuli/001214_2014-06-17_16-13-55_260595134347_rgbf000111-resize_0/001214_2014-06-17_16-13-55_260595134347_rgbf000111-resize_0-target.png,250,2.6505,1,1907,250,meters,jsons/v1_VE250_randls_72.json,496989,848948,35,Woman
145,100961,DepthScenes,duration_manipulation_targetAtFixation,jsons/v1_VE250_randls_72.json,http://54.235.29.9/FacialAge/BNav_EC2/DepthDuration/v2_depth_duration_MTurk/v2_DepthDuration_HTML.html#74,74,1440,789,1440,900,8-20-2022,11-4-11,146,depth_duration_stimuli/001498_2014-06-19_17-45-14_260595134347_rgbf000129-resize_4/001498_2014-06-19_17-45-14_260595134347_rgbf000129-resize-original.jpg,250,1.4075,0,2057,256,meters,jsons/v1_VE250_randls_72.json,496989,848948,35,Woman
146,100961,DepthScenes,duration_manipulation_targetAtFixation,jsons/v1_VE250_randls_72.json,http://54.235.29.9/FacialAge/BNav_EC2/DepthDuration/v2_depth_duration_MTurk/v2_DepthDuration_HTML.html#74,74,1440,789,1440,900,8-20-2022,11-4-11,147,depth_duration_stimuli/002570_2014-06-24_13-59-54_094959634447_rgbf000059-resize_0/002570_2014-06-24_13-59-54_094959634447_rgbf000059-resize_0-target.png,250,4.037,1,2012,251,meters,jsons/v1_VE250_randls_72.json,496989,848948,35,Woman
147,100961,DepthScenes,duration_manipulation_targetAtFixation,jsons/v1_VE250_randls_72.json,http://54.235.29.9/FacialAge/BNav_EC2/DepthDuration/v2_depth_duration_MTurk/v2_DepthDuration_HTML.html#74,74,1440,789,1440,900,8-20-2022,11-4-11,148,depth_duration_stimuli/002467_2014-06-28_20-38-07_260595134347_rgbf000026-resize_2/002467_2014-06-28_20-38-07_260595134347_rgbf000026-resize_2-target.png,250,4.742,1,1995,251,meters,jsons/v1_VE250_randls_72.json,496989,848948,35,Woman
148,100961,DepthScenes,duration_manipulation_targetAtFixation,jsons/v1_VE250_randls_72.json,http://54.235.29.9/FacialAge/BNav_EC2/DepthDuration/v2_depth_duration_MTurk/v2_DepthDuration_HTML.html#74,74,1440,789,1440,900,8-20-2022,11-4-11,149,depth_duration_stimuli/001066_2014-06-08_22-03-20_260595134347_rgbf000066-resize_4/001066_2014-06-08_22-03-20_260595134347_rgbf000066-resize_4-target.png,250,4.2330000000000005,1,2989,249,meters,jsons/v1_VE250_randls_72.json,496989,848948,35,Woman
149,100961,DepthScenes,duration_manipulation_targetAtFixation,jsons/v1_VE250_randls_72.json,http://54.235.29.9/FacialAge/BNav_EC2/DepthDuration/v2_depth_duration_MTurk/v2_DepthDuration_HTML.html#74,74,1440,789,1440,900,8-20-2022,11-4-11,150,depth_duration_stimuli/000742_2014-06-08_18-48-09_260595134347_rgbf000164-resize_4/000742_2014-06-08_18-48-09_260595134347_rgbf000164-resize_4-target.png,250,4.632,1,1864,249,meters,jsons/v1_VE250_randls_72.json,496989,848948,35,Woman
150,100961,DepthScenes,duration_manipulation_targetAtFixation,jsons/v1_VE250_randls_72.json,http://54.235.29.9/FacialAge/BNav_EC2/DepthDuration/v2_depth_duration_MTurk/v2_DepthDuration_HTML.html#74,74,1440,789,1440,900,8-20-2022,11-4-11,151,depth_duration_stimuli/000436_2014-06-09_22-25-11_260595134347_rgbf000137-resize_1/000436_2014-06-09_22-25-11_260595134347_rgbf000137-resize_1-target.png,250,4.0705,1,2011,251,meters,jsons/v1_VE250_randls_72.json,496989,848948,35,Woman
151,100961,DepthScenes,duration_manipulation_targetAtFixation,jsons/v1_VE250_randls_72.json,http://54.235.29.9/FacialAge/BNav_EC2/DepthDuration/v2_depth_duration_MTurk/v2_DepthDuration_HTML.html#74,74,1440,789,1440,900,8-20-2022,11-4-11,152,depth_duration_stimuli/002444_2014-06-28_20-32-08_260595134347_rgbf000027-resize_0/002444_2014-06-28_20-32-08_260595134347_rgbf000027-resize_0-target.png,250,4.388999999999999,1,2081,249,meters,jsons/v1_VE250_randls_72.json,496989,848948,35,Woman
152,100961,DepthScenes,duration_manipulation_targetAtFixation,jsons/v1_VE250_randls_72.json,http://54.235.29.9/FacialAge/BNav_EC2/DepthDuration/v2_depth_duration_MTurk/v2_DepthDuration_HTML.html#74,74,1440,789,1440,900,8-20-2022,11-4-11,153,depth_duration_stimuli/000447_2014-06-08_16-15-46_260595134347_rgbf000130-resize_1/000447_2014-06-08_16-15-46_260595134347_rgbf000130-resize_1-target.png,250,4.479,1,1893,245,meters,jsons/v1_VE250_randls_72.json,496989,848948,35,Woman
153,100961,DepthScenes,duration_manipulation_targetAtFixation,jsons/v1_VE250_randls_72.json,http://54.235.29.9/FacialAge/BNav_EC2/DepthDuration/v2_depth_duration_MTurk/v2_DepthDuration_HTML.html#74,74,1440,789,1440,900,8-20-2022,11-4-11,154,depth_duration_stimuli/001447_2014-06-19_17-00-32_260595134347_rgbf000082-resize_5/001447_2014-06-19_17-00-32_260595134347_rgbf000082-resize_5-target.png,250,4.13775,1,2586,250,meters,jsons/v1_VE250_randls_72.json,496989,848948,35,Woman
154,100961,DepthScenes,duration_manipulation_targetAtFixation,jsons/v1_VE250_randls_72.json,http://54.235.29.9/FacialAge/BNav_EC2/DepthDuration/v2_depth_duration_MTurk/v2_DepthDuration_HTML.html#74,74,1440,789,1440,900,8-20-2022,11-4-11,155,depth_duration_stimuli/002763_2014-06-22_19-13-10_094959634447_rgbf000075-resize_4/002763_2014-06-22_19-13-10_094959634447_rgbf000075-resize_4-target.png,250,1.68375,1,2538,250,meters,jsons/v1_VE250_randls_72.json,496989,848948,35,Woman
155,100961,DepthScenes,duration_manipulation_targetAtFixation,jsons/v1_VE250_randls_72.json,http://54.235.29.9/FacialAge/BNav_EC2/DepthDuration/v2_depth_duration_MTurk/v2_DepthDuration_HTML.html#74,74,1440,789,1440,900,8-20-2022,11-4-11,156,depth_duration_stimuli/002209_2014-06-28_18-36-10_260595134347_rgbf000051-resize_1/002209_2014-06-28_18-36-10_260595134347_rgbf000051-resize_1-target.png,250,2.057,1,3005,249,meters,jsons/v1_VE250_randls_72.json,496989,848948,35,Woman
156,100961,DepthScenes,duration_manipulation_targetAtFixation,jsons/v1_VE250_randls_72.json,http://54.235.29.9/FacialAge/BNav_EC2/DepthDuration/v2_depth_duration_MTurk/v2_DepthDuration_HTML.html#74,74,1440,789,1440,900,8-20-2022,11-4-11,157,depth_duration_stimuli/000368_2014-06-09_15-53-01_260595134347_rgbf000155-resize_2/000368_2014-06-09_15-53-01_260595134347_rgbf000155-resize_2-target.png,250,2.4859999999999998,1,1943,250,meters,jsons/v1_VE250_randls_72.json,496989,848948,35,Woman
157,100961,DepthScenes,duration_manipulation_targetAtFixation,jsons/v1_VE250_randls_72.json,http://54.235.29.9/FacialAge/BNav_EC2/DepthDuration/v2_depth_duration_MTurk/v2_DepthDuration_HTML.html#74,74,1440,789,1440,900,8-20-2022,11-4-11,158,depth_duration_stimuli/002678_2014-06-13_16-15-32_094959634447_rgbf000151-resize_6/002678_2014-06-13_16-15-32_094959634447_rgbf000151-resize_6-target.png,250,2.1830000000000003,1,1763,263,meters,jsons/v1_VE250_randls_72.json,496989,848948,35,Woman
158,100961,DepthScenes,duration_manipulation_targetAtFixation,jsons/v1_VE250_randls_72.json,http://54.235.29.9/FacialAge/BNav_EC2/DepthDuration/v2_depth_duration_MTurk/v2_DepthDuration_HTML.html#74,74,1440,789,1440,900,8-20-2022,11-4-11,159,depth_duration_stimuli/001810_2014-06-26_20-51-35_260595134347_rgbf000040-resize_3/001810_2014-06-26_20-51-35_260595134347_rgbf000040-resize_3-target.png,250,2.2525,1,1754,251,meters,jsons/v1_VE250_randls_72.json,496989,848948,35,Woman
159,100961,DepthScenes,duration_manipulation_targetAtFixation,jsons/v1_VE250_randls_72.json,http://54.235.29.9/FacialAge/BNav_EC2/DepthDuration/v2_depth_duration_MTurk/v2_DepthDuration_HTML.html#74,74,1440,789,1440,900,8-20-2022,11-4-11,160,depth_duration_stimuli/003010_2014-06-15_12-54-35_094959634447_rgbf000112-resize_0/003010_2014-06-15_12-54-35_094959634447_rgbf000112-resize_0-target.png,250,3.1185,0,1939,251,meters,jsons/v1_VE250_randls_72.json,496989,848948,35,Woman
160,100961,DepthScenes,duration_manipulation_targetAtFixation,jsons/v1_VE250_randls_72.json,http://54.235.29.9/FacialAge/BNav_EC2/DepthDuration/v2_depth_duration_MTurk/v2_DepthDuration_HTML.html#74,74,1440,789,1440,900,8-20-2022,11-4-11,161,depth_duration_stimuli/000758_2014-06-08_22-05-08_260595134347_rgbf000085-resize_0/000758_2014-06-08_22-05-08_260595134347_rgbf000085-resize_0-target.png,250,3.3810000000000002,0,1994,251,meters,jsons/v1_VE250_randls_72.json,496989,848948,35,Woman
161,100961,DepthScenes,duration_manipulation_targetAtFixation,jsons/v1_VE250_randls_72.json,http://54.235.29.9/FacialAge/BNav_EC2/DepthDuration/v2_depth_duration_MTurk/v2_DepthDuration_HTML.html#74,74,1440,789,1440,900,8-20-2022,11-4-11,162,depth_duration_stimuli/000854_2014-06-09_19-43-13_260595134347_rgbf000066-resize_0/000854_2014-06-09_19-43-13_260595134347_rgbf000066-resize_0-target.png,250,3.068,1,3379,250,meters,jsons/v1_VE250_randls_72.json,496989,848948,35,Woman
162,100961,DepthScenes,duration_manipulation_targetAtFixation,jsons/v1_VE250_randls_72.json,http://54.235.29.9/FacialAge/BNav_EC2/DepthDuration/v2_depth_duration_MTurk/v2_DepthDuration_HTML.html#74,74,1440,789,1440,900,8-20-2022,11-4-11,163,depth_duration_stimuli/003292_2014-05-14_21-53-49_094959634447_rgbf000100-resize_2/003292_2014-05-14_21-53-49_094959634447_rgbf000100-resize_2-target.png,250,3.4815,1,2419,248,meters,jsons/v1_VE250_randls_72.json,496989,848948,35,Woman
163,100961,DepthScenes,duration_manipulation_targetAtFixation,jsons/v1_VE250_randls_72.json,http://54.235.29.9/FacialAge/BNav_EC2/DepthDuration/v2_depth_duration_MTurk/v2_DepthDuration_HTML.html#74,74,1440,789,1440,900,8-20-2022,11-4-11,164,depth_duration_stimuli/002639_2014-06-24_14-51-37_094959634447_rgbf000074-resize_4/002639_2014-06-24_14-51-37_094959634447_rgbf000074-resize_4-target.png,250,4.0375,1,35467,249,meters,jsons/v1_VE250_randls_72.json,496989,848948,35,Woman
