,subjID,experimentName,versionName,sequenceName,url,selected_row,windowWidth,windowHeight,screenWidth,screenHeight,startDate,startTime,trial,stimulus,duration,actual_depth,depth_estimate,trial_RT,log_sceneDuration,unitSelection,seq_filepath,experimentTime,totalTime,age,gender
0,101555,DepthScenes,duration_manipulation_targetAtFixation,jsons/v1_VE1000_randls_24_rotated.json,http://54.235.29.9/FacialAge/BNav_EC2/DepthDuration/v2_depth_duration_MTurk/v2_DepthDuration_HTML.html#63,63,1366,768,1366,768,8-22-2022,5-10-34,1,depth_duration_stimuli/000457_2014-06-08_16-52-43_260595134347_rgbf000199-resize_1/000457_2014-06-08_16-52-43_260595134347_rgbf000199-resize_1-target.png,1000,3.6489999999999996,28,15484,1000,meters,jsons/v1_VE1000_randls_24_rotated.json,1085948,2735425,28,Woman
1,101555,DepthScenes,duration_manipulation_targetAtFixation,jsons/v1_VE1000_randls_24_rotated.json,http://54.235.29.9/FacialAge/BNav_EC2/DepthDuration/v2_depth_duration_MTurk/v2_DepthDuration_HTML.html#63,63,1366,768,1366,768,8-22-2022,5-10-34,2,depth_duration_stimuli/000929_2014-06-09_16-33-19_260595134347_rgbf000139-resize_0/000929_2014-06-09_16-33-19_260595134347_rgbf000139-resize_0-target.png,1000,2.8680000000000003,26,6296,999,meters,jsons/v1_VE1000_randls_24_rotated.json,1085948,2735425,28,Woman
2,101555,DepthScenes,duration_manipulation_targetAtFixation,jsons/v1_VE1000_randls_24_rotated.json,http://54.235.29.9/FacialAge/BNav_EC2/DepthDuration/v2_depth_duration_MTurk/v2_DepthDuration_HTML.html#63,63,1366,768,1366,768,8-22-2022,5-10-34,3,depth_duration_stimuli/003587_2014-05-23_16-48-02_094959634447_rgbf002384-resize_2/003587_2014-05-23_16-48-02_094959634447_rgbf002384-resize_2-target.png,1000,1.357,17,15939,1000,meters,jsons/v1_VE1000_randls_24_rotated.json,1085948,2735425,28,Woman
3,101555,DepthScenes,duration_manipulation_targetAtFixation,jsons/v1_VE1000_randls_24_rotated.json,http://54.235.29.9/FacialAge/BNav_EC2/DepthDuration/v2_depth_duration_MTurk/v2_DepthDuration_HTML.html#63,63,1366,768,1366,768,8-22-2022,5-10-34,4,depth_duration_stimuli/001167_2014-06-17_15-38-07_260595134347_rgbf000108-resize_0/001167_2014-06-17_15-38-07_260595134347_rgbf000108-resize_0-target.png,1000,1.8505,20,4003,993,meters,jsons/v1_VE1000_randls_24_rotated.json,1085948,2735425,28,Woman
4,101555,DepthScenes,duration_manipulation_targetAtFixation,jsons/v1_VE1000_randls_24_rotated.json,http://54.235.29.9/FacialAge/BNav_EC2/DepthDuration/v2_depth_duration_MTurk/v2_DepthDuration_HTML.html#63,63,1366,768,1366,768,8-22-2022,5-10-34,5,depth_duration_stimuli/000137_2014-05-20_17-04-49_260595134347_rgbf000120-resize_1/000137_2014-05-20_17-04-49_260595134347_rgbf000120-resize_1-target.png,1000,3.786,28,13899,1000,meters,jsons/v1_VE1000_randls_24_rotated.json,1085948,2735425,28,Woman
5,101555,DepthScenes,duration_manipulation_targetAtFixation,jsons/v1_VE1000_randls_24_rotated.json,http://54.235.29.9/FacialAge/BNav_EC2/DepthDuration/v2_depth_duration_MTurk/v2_DepthDuration_HTML.html#63,63,1366,768,1366,768,8-22-2022,5-10-34,6,depth_duration_stimuli/000736_2014-06-08_18-24-15_260595134347_rgbf000206-resize_3/000736_2014-06-08_18-24-15_260595134347_rgbf000206-resize_3-target.png,1000,3.515,32,3864,1000,meters,jsons/v1_VE1000_randls_24_rotated.json,1085948,2735425,28,Woman
6,101555,DepthScenes,duration_manipulation_targetAtFixation,jsons/v1_VE1000_randls_24_rotated.json,http://54.235.29.9/FacialAge/BNav_EC2/DepthDuration/v2_depth_duration_MTurk/v2_DepthDuration_HTML.html#63,63,1366,768,1366,768,8-22-2022,5-10-34,7,depth_duration_stimuli/000927_2014-06-09_16-32-30_260595134347_rgbf000123-resize_3/000927_2014-06-09_16-32-30_260595134347_rgbf000123-resize_3-target.png,1000,2.6785,36,3217,1000,meters,jsons/v1_VE1000_randls_24_rotated.json,1085948,2735425,28,Woman
7,101555,DepthScenes,duration_manipulation_targetAtFixation,jsons/v1_VE1000_randls_24_rotated.json,http://54.235.29.9/FacialAge/BNav_EC2/DepthDuration/v2_depth_duration_MTurk/v2_DepthDuration_HTML.html#63,63,1366,768,1366,768,8-22-2022,5-10-34,8,depth_duration_stimuli/001110_2014-06-15_17-25-28_260595134347_rgbf000150-resize_1/001110_2014-06-15_17-25-28_260595134347_rgbf000150-resize_1-target.png,1000,1.7115,25,6121,999,meters,jsons/v1_VE1000_randls_24_rotated.json,1085948,2735425,28,Woman
8,101555,DepthScenes,duration_manipulation_targetAtFixation,jsons/v1_VE1000_randls_24_rotated.json,http://54.235.29.9/FacialAge/BNav_EC2/DepthDuration/v2_depth_duration_MTurk/v2_DepthDuration_HTML.html#63,63,1366,768,1366,768,8-22-2022,5-10-34,9,depth_duration_stimuli/002657_2014-06-13_15-29-54_094959634447_rgbf000150-resize_1/002657_2014-06-13_15-29-54_094959634447_rgbf000150-resize_1-target.png,1000,4.919,35,10763,999,meters,jsons/v1_VE1000_randls_24_rotated.json,1085948,2735425,28,Woman
9,101555,DepthScenes,duration_manipulation_targetAtFixation,jsons/v1_VE1000_randls_24_rotated.json,http://54.235.29.9/FacialAge/BNav_EC2/DepthDuration/v2_depth_duration_MTurk/v2_DepthDuration_HTML.html#63,63,1366,768,1366,768,8-22-2022,5-10-34,10,depth_duration_stimuli/002375_2014-06-28_20-13-44_260595134347_rgbf000032-resize_1/002375_2014-06-28_20-13-44_260595134347_rgbf000032-resize_1-target.png,1000,4.0175,37,4102,999,meters,jsons/v1_VE1000_randls_24_rotated.json,1085948,2735425,28,Woman
10,101555,DepthScenes,duration_manipulation_targetAtFixation,jsons/v1_VE1000_randls_24_rotated.json,http://54.235.29.9/FacialAge/BNav_EC2/DepthDuration/v2_depth_duration_MTurk/v2_DepthDuration_HTML.html#63,63,1366,768,1366,768,8-22-2022,5-10-34,11,depth_duration_stimuli/000409_2014-06-04_19-23-33_260595134347_rgbf000067-resize_0/000409_2014-06-04_19-23-33_260595134347_rgbf000067-resize_0-target.png,1000,3.7335,38,11371,1001,meters,jsons/v1_VE1000_randls_24_rotated.json,1085948,2735425,28,Woman
11,101555,DepthScenes,duration_manipulation_targetAtFixation,jsons/v1_VE1000_randls_24_rotated.json,http://54.235.29.9/FacialAge/BNav_EC2/DepthDuration/v2_depth_duration_MTurk/v2_DepthDuration_HTML.html#63,63,1366,768,1366,768,8-22-2022,5-10-34,12,depth_duration_stimuli/002663_2014-06-13_15-50-26_094959634447_rgbf000075-resize_1/002663_2014-06-13_15-50-26_094959634447_rgbf000075-resize_1-target.png,1000,4.7495,35,3785,999,meters,jsons/v1_VE1000_randls_24_rotated.json,1085948,2735425,28,Woman
12,101555,DepthScenes,duration_manipulation_targetAtFixation,jsons/v1_VE1000_randls_24_rotated.json,http://54.235.29.9/FacialAge/BNav_EC2/DepthDuration/v2_depth_duration_MTurk/v2_DepthDuration_HTML.html#63,63,1366,768,1366,768,8-22-2022,5-10-34,13,depth_duration_stimuli/000780_2014-06-08_22-28-29_260595134347_rgbf000126-resize_1/000780_2014-06-08_22-28-29_260595134347_rgbf000126-resize_1-target.png,1000,3.3825,36,9700,1000,meters,jsons/v1_VE1000_randls_24_rotated.json,1085948,2735425,28,Woman
13,101555,DepthScenes,duration_manipulation_targetAtFixation,jsons/v1_VE1000_randls_24_rotated.json,http://54.235.29.9/FacialAge/BNav_EC2/DepthDuration/v2_depth_duration_MTurk/v2_DepthDuration_HTML.html#63,63,1366,768,1366,768,8-22-2022,5-10-34,14,depth_duration_stimuli/002445_2014-06-28_20-32-16_260595134347_rgbf000029-resize_4/002445_2014-06-28_20-32-16_260595134347_rgbf000029-resize_4-target.png,1000,2.5315,28,4509,998,meters,jsons/v1_VE1000_randls_24_rotated.json,1085948,2735425,28,Woman
14,101555,DepthScenes,duration_manipulation_targetAtFixation,jsons/v1_VE1000_randls_24_rotated.json,http://54.235.29.9/FacialAge/BNav_EC2/DepthDuration/v2_depth_duration_MTurk/v2_DepthDuration_HTML.html#63,63,1366,768,1366,768,8-22-2022,5-10-34,15,depth_duration_stimuli/001100_2014-06-15_17-46-26_260595134347_rgbf000225-resize_2/001100_2014-06-15_17-46-26_260595134347_rgbf000225-resize_2-target.png,1000,2.24,20,10098,999,meters,jsons/v1_VE1000_randls_24_rotated.json,1085948,2735425,28,Woman
15,101555,DepthScenes,duration_manipulation_targetAtFixation,jsons/v1_VE1000_randls_24_rotated.json,http://54.235.29.9/FacialAge/BNav_EC2/DepthDuration/v2_depth_duration_MTurk/v2_DepthDuration_HTML.html#63,63,1366,768,1366,768,8-22-2022,5-10-34,16,depth_duration_stimuli/002784_2014-06-22_19-26-30_094959634447_rgbf000083-resize_3/002784_2014-06-22_19-26-30_094959634447_rgbf000083-resize_3-target.png,1000,1.8046666666667,19,4603,1000,meters,jsons/v1_VE1000_randls_24_rotated.json,1085948,2735425,28,Woman
16,101555,DepthScenes,duration_manipulation_targetAtFixation,jsons/v1_VE1000_randls_24_rotated.json,http://54.235.29.9/FacialAge/BNav_EC2/DepthDuration/v2_depth_duration_MTurk/v2_DepthDuration_HTML.html#63,63,1366,768,1366,768,8-22-2022,5-10-34,17,depth_duration_stimuli/000556_2014-06-09_22-42-56_260595134347_rgbf000214-resize_1/000556_2014-06-09_22-42-56_260595134347_rgbf000214-resize_1-target.png,1000,4.8415,36,9585,1000,meters,jsons/v1_VE1000_randls_24_rotated.json,1085948,2735425,28,Woman
17,101555,DepthScenes,duration_manipulation_targetAtFixation,jsons/v1_VE1000_randls_24_rotated.json,http://54.235.29.9/FacialAge/BNav_EC2/DepthDuration/v2_depth_duration_MTurk/v2_DepthDuration_HTML.html#63,63,1366,768,1366,768,8-22-2022,5-10-34,18,depth_duration_stimuli/001158_2014-06-17_15-32-16_260595134347_rgbf000138-resize_2/001158_2014-06-17_15-32-16_260595134347_rgbf000138-resize_2-target.png,1000,4.5315,33,9106,999,meters,jsons/v1_VE1000_randls_24_rotated.json,1085948,2735425,28,Woman
18,101555,DepthScenes,duration_manipulation_targetAtFixation,jsons/v1_VE1000_randls_24_rotated.json,http://54.235.29.9/FacialAge/BNav_EC2/DepthDuration/v2_depth_duration_MTurk/v2_DepthDuration_HTML.html#63,63,1366,768,1366,768,8-22-2022,5-10-34,19,depth_duration_stimuli/001498_2014-06-19_17-45-14_260595134347_rgbf000129-resize_4/001498_2014-06-19_17-45-14_260595134347_rgbf000129-resize-original.jpg,1000,1.4075,0,9519,999,meters,jsons/v1_VE1000_randls_24_rotated.json,1085948,2735425,28,Woman
19,101555,DepthScenes,duration_manipulation_targetAtFixation,jsons/v1_VE1000_randls_24_rotated.json,http://54.235.29.9/FacialAge/BNav_EC2/DepthDuration/v2_depth_duration_MTurk/v2_DepthDuration_HTML.html#63,63,1366,768,1366,768,8-22-2022,5-10-34,20,depth_duration_stimuli/000709_2014-06-08_13-51-55_260595134347_rgbf000068-resize_3/000709_2014-06-08_13-51-55_260595134347_rgbf000068-resize_3-target.png,1000,1.8030000000000002,28,9995,1000,meters,jsons/v1_VE1000_randls_24_rotated.json,1085948,2735425,28,Woman
20,101555,DepthScenes,duration_manipulation_targetAtFixation,jsons/v1_VE1000_randls_24_rotated.json,http://54.235.29.9/FacialAge/BNav_EC2/DepthDuration/v2_depth_duration_MTurk/v2_DepthDuration_HTML.html#63,63,1366,768,1366,768,8-22-2022,5-10-34,21,depth_duration_stimuli/002057_2014-06-24_21-00-13_260595134347_rgbf000120-resize_1/002057_2014-06-24_21-00-13_260595134347_rgbf000120-resize_1-target.png,1000,2.967,33,4047,1001,meters,jsons/v1_VE1000_randls_24_rotated.json,1085948,2735425,28,Woman
21,101555,DepthScenes,duration_manipulation_targetAtFixation,jsons/v1_VE1000_randls_24_rotated.json,http://54.235.29.9/FacialAge/BNav_EC2/DepthDuration/v2_depth_duration_MTurk/v2_DepthDuration_HTML.html#63,63,1366,768,1366,768,8-22-2022,5-10-34,22,depth_duration_stimuli/002444_2014-06-28_20-32-08_260595134347_rgbf000027-resize_0/002444_2014-06-28_20-32-08_260595134347_rgbf000027-resize_0-target.png,1000,4.388999999999999,35,12217,1000,meters,jsons/v1_VE1000_randls_24_rotated.json,1085948,2735425,28,Woman
22,101555,DepthScenes,duration_manipulation_targetAtFixation,jsons/v1_VE1000_randls_24_rotated.json,http://54.235.29.9/FacialAge/BNav_EC2/DepthDuration/v2_depth_duration_MTurk/v2_DepthDuration_HTML.html#63,63,1366,768,1366,768,8-22-2022,5-10-34,23,depth_duration_stimuli/000436_2014-06-09_22-25-11_260595134347_rgbf000137-resize_1/000436_2014-06-09_22-25-11_260595134347_rgbf000137-resize_1-target.png,1000,4.0705,38,5970,999,meters,jsons/v1_VE1000_randls_24_rotated.json,1085948,2735425,28,Woman
23,101555,DepthScenes,duration_manipulation_targetAtFixation,jsons/v1_VE1000_randls_24_rotated.json,http://54.235.29.9/FacialAge/BNav_EC2/DepthDuration/v2_depth_duration_MTurk/v2_DepthDuration_HTML.html#63,63,1366,768,1366,768,8-22-2022,5-10-34,24,depth_duration_stimuli/000854_2014-06-09_19-43-13_260595134347_rgbf000066-resize_0/000854_2014-06-09_19-43-13_260595134347_rgbf000066-resize_0-target.png,1000,3.068,30,9628,1001,meters,jsons/v1_VE1000_randls_24_rotated.json,1085948,2735425,28,Woman
24,101555,DepthScenes,duration_manipulation_targetAtFixation,jsons/v1_VE1000_randls_24_rotated.json,http://54.235.29.9/FacialAge/BNav_EC2/DepthDuration/v2_depth_duration_MTurk/v2_DepthDuration_HTML.html#63,63,1366,768,1366,768,8-22-2022,5-10-34,25,depth_duration_stimuli/000758_2014-06-08_22-05-08_260595134347_rgbf000085-resize_0/000758_2014-06-08_22-05-08_260595134347_rgbf000085-resize_0-target.png,1000,3.3810000000000002,30,11378,1000,meters,jsons/v1_VE1000_randls_24_rotated.json,1085948,2735425,28,Woman
25,101555,DepthScenes,duration_manipulation_targetAtFixation,jsons/v1_VE1000_randls_24_rotated.json,http://54.235.29.9/FacialAge/BNav_EC2/DepthDuration/v2_depth_duration_MTurk/v2_DepthDuration_HTML.html#63,63,1366,768,1366,768,8-22-2022,5-10-34,26,depth_duration_stimuli/001032_2014-06-08_13-23-17_260595134347_rgbf000021-resize_3/001032_2014-06-08_13-23-17_260595134347_rgbf000021-resize_3-target.png,1000,3.2725,28,10069,1000,meters,jsons/v1_VE1000_randls_24_rotated.json,1085948,2735425,28,Woman
26,101555,DepthScenes,duration_manipulation_targetAtFixation,jsons/v1_VE1000_randls_24_rotated.json,http://54.235.29.9/FacialAge/BNav_EC2/DepthDuration/v2_depth_duration_MTurk/v2_DepthDuration_HTML.html#63,63,1366,768,1366,768,8-22-2022,5-10-34,27,depth_duration_stimuli/001059_2014-06-08_21-53-27_260595134347_rgbf000061-resize_4/001059_2014-06-08_21-53-27_260595134347_rgbf000061-resize_4-target.png,1000,2.4185,26,3797,947,meters,jsons/v1_VE1000_randls_24_rotated.json,1085948,2735425,28,Woman
27,101555,DepthScenes,duration_manipulation_targetAtFixation,jsons/v1_VE1000_randls_24_rotated.json,http://54.235.29.9/FacialAge/BNav_EC2/DepthDuration/v2_depth_duration_MTurk/v2_DepthDuration_HTML.html#63,63,1366,768,1366,768,8-22-2022,5-10-34,28,depth_duration_stimuli/003490_2014-05-21_15-50-11_094959634447_rgbf000101-resize_3/003490_2014-05-21_15-50-11_094959634447_rgbf000101-resize_3-target.png,1000,3.6445,30,11177,999,meters,jsons/v1_VE1000_randls_24_rotated.json,1085948,2735425,28,Woman
28,101555,DepthScenes,duration_manipulation_targetAtFixation,jsons/v1_VE1000_randls_24_rotated.json,http://54.235.29.9/FacialAge/BNav_EC2/DepthDuration/v2_depth_duration_MTurk/v2_DepthDuration_HTML.html#63,63,1366,768,1366,768,8-22-2022,5-10-34,29,depth_duration_stimuli/001175_2014-06-17_15-45-55_260595134347_rgbf000129-resize_4/001175_2014-06-17_15-45-55_260595134347_rgbf000129-resize_4-target.png,1000,4.255,36,3985,995,meters,jsons/v1_VE1000_randls_24_rotated.json,1085948,2735425,28,Woman
29,101555,DepthScenes,duration_manipulation_targetAtFixation,jsons/v1_VE1000_randls_24_rotated.json,http://54.235.29.9/FacialAge/BNav_EC2/DepthDuration/v2_depth_duration_MTurk/v2_DepthDuration_HTML.html#63,63,1366,768,1366,768,8-22-2022,5-10-34,30,depth_duration_stimuli/002072_2014-06-24_21-48-06_260595134347_rgbf000115-resize_0/002072_2014-06-24_21-48-06_260595134347_rgbf000115-resize-original.jpg,1000,4.702,0,9569,1000,meters,jsons/v1_VE1000_randls_24_rotated.json,1085948,2735425,28,Woman
30,101555,DepthScenes,duration_manipulation_targetAtFixation,jsons/v1_VE1000_randls_24_rotated.json,http://54.235.29.9/FacialAge/BNav_EC2/DepthDuration/v2_depth_duration_MTurk/v2_DepthDuration_HTML.html#63,63,1366,768,1366,768,8-22-2022,5-10-34,31,depth_duration_stimuli/000103_2014-05-14_22-01-17_260595134347_rgbf000152-resize_5/000103_2014-05-14_22-01-17_260595134347_rgbf000152-resize_5-target.png,1000,1.993,30,12059,1000,meters,jsons/v1_VE1000_randls_24_rotated.json,1085948,2735425,28,Woman
31,101555,DepthScenes,duration_manipulation_targetAtFixation,jsons/v1_VE1000_randls_24_rotated.json,http://54.235.29.9/FacialAge/BNav_EC2/DepthDuration/v2_depth_duration_MTurk/v2_DepthDuration_HTML.html#63,63,1366,768,1366,768,8-22-2022,5-10-34,32,depth_duration_stimuli/001555_2014-06-20_17-12-10_260595134347_rgbf000065-resize_4/001555_2014-06-20_17-12-10_260595134347_rgbf000065-resize_4-target.png,1000,1.633,22,4141,999,meters,jsons/v1_VE1000_randls_24_rotated.json,1085948,2735425,28,Woman
32,101555,DepthScenes,duration_manipulation_targetAtFixation,jsons/v1_VE1000_randls_24_rotated.json,http://54.235.29.9/FacialAge/BNav_EC2/DepthDuration/v2_depth_duration_MTurk/v2_DepthDuration_HTML.html#63,63,1366,768,1366,768,8-22-2022,5-10-34,33,depth_duration_stimuli/002875_2014-06-01_15-19-00_094959634447_rgbf000151-resize_1/002875_2014-06-01_15-19-00_094959634447_rgbf000151-resize_1-target.png,1000,1.9675,25,9924,1000,meters,jsons/v1_VE1000_randls_24_rotated.json,1085948,2735425,28,Woman
33,101555,DepthScenes,duration_manipulation_targetAtFixation,jsons/v1_VE1000_randls_24_rotated.json,http://54.235.29.9/FacialAge/BNav_EC2/DepthDuration/v2_depth_duration_MTurk/v2_DepthDuration_HTML.html#63,63,1366,768,1366,768,8-22-2022,5-10-34,34,depth_duration_stimuli/001011_2014-06-08_23-18-54_260595134347_rgbf000044-resize_4/001011_2014-06-08_23-18-54_260595134347_rgbf000044-resize_4-target.png,1000,2.4730000000000003,30,4045,1000,meters,jsons/v1_VE1000_randls_24_rotated.json,1085948,2735425,28,Woman
34,101555,DepthScenes,duration_manipulation_targetAtFixation,jsons/v1_VE1000_randls_24_rotated.json,http://54.235.29.9/FacialAge/BNav_EC2/DepthDuration/v2_depth_duration_MTurk/v2_DepthDuration_HTML.html#63,63,1366,768,1366,768,8-22-2022,5-10-34,35,depth_duration_stimuli/003129_2014-05-12_10-48-10_094959634447_rgbf000100-resize_0/003129_2014-05-12_10-48-10_094959634447_rgbf000100-resize_0-target.png,1000,4.9305,38,11258,1000,meters,jsons/v1_VE1000_randls_24_rotated.json,1085948,2735425,28,Woman
35,101555,DepthScenes,duration_manipulation_targetAtFixation,jsons/v1_VE1000_randls_24_rotated.json,http://54.235.29.9/FacialAge/BNav_EC2/DepthDuration/v2_depth_duration_MTurk/v2_DepthDuration_HTML.html#63,63,1366,768,1366,768,8-22-2022,5-10-34,36,depth_duration_stimuli/000414_2014-06-04_19-49-13_260595134347_rgbf000044-resize_0/000414_2014-06-04_19-49-13_260595134347_rgbf000044-resize_0-target.png,1000,4.329,35,6443,1000,meters,jsons/v1_VE1000_randls_24_rotated.json,1085948,2735425,28,Woman
36,101555,DepthScenes,duration_manipulation_targetAtFixation,jsons/v1_VE1000_randls_24_rotated.json,http://54.235.29.9/FacialAge/BNav_EC2/DepthDuration/v2_depth_duration_MTurk/v2_DepthDuration_HTML.html#63,63,1366,768,1366,768,8-22-2022,5-10-34,37,depth_duration_stimuli/000665_2014-06-09_20-42-35_260595134347_rgbf000110-resize_1/000665_2014-06-09_20-42-35_260595134347_rgbf000110-resize_1-target.png,1000,3.057,30,10549,1000,meters,jsons/v1_VE1000_randls_24_rotated.json,1085948,2735425,28,Woman
37,101555,DepthScenes,duration_manipulation_targetAtFixation,jsons/v1_VE1000_randls_24_rotated.json,http://54.235.29.9/FacialAge/BNav_EC2/DepthDuration/v2_depth_duration_MTurk/v2_DepthDuration_HTML.html#63,63,1366,768,1366,768,8-22-2022,5-10-34,38,depth_duration_stimuli/001150_2014-06-17_15-27-34_260595134347_rgbf000108-resize_2/001150_2014-06-17_15-27-34_260595134347_rgbf000108-resize_2-target.png,1000,4.0325,29,4255,1000,meters,jsons/v1_VE1000_randls_24_rotated.json,1085948,2735425,28,Woman
38,101555,DepthScenes,duration_manipulation_targetAtFixation,jsons/v1_VE1000_randls_24_rotated.json,http://54.235.29.9/FacialAge/BNav_EC2/DepthDuration/v2_depth_duration_MTurk/v2_DepthDuration_HTML.html#63,63,1366,768,1366,768,8-22-2022,5-10-34,39,depth_duration_stimuli/002639_2014-06-24_14-51-37_094959634447_rgbf000074-resize_4/002639_2014-06-24_14-51-37_094959634447_rgbf000074-resize_4-target.png,1000,4.0375,33,10201,1000,meters,jsons/v1_VE1000_randls_24_rotated.json,1085948,2735425,28,Woman
39,101555,DepthScenes,duration_manipulation_targetAtFixation,jsons/v1_VE1000_randls_24_rotated.json,http://54.235.29.9/FacialAge/BNav_EC2/DepthDuration/v2_depth_duration_MTurk/v2_DepthDuration_HTML.html#63,63,1366,768,1366,768,8-22-2022,5-10-34,40,depth_duration_stimuli/003292_2014-05-14_21-53-49_094959634447_rgbf000100-resize_2/003292_2014-05-14_21-53-49_094959634447_rgbf000100-resize_2-target.png,1000,3.4815,35,5909,1000,meters,jsons/v1_VE1000_randls_24_rotated.json,1085948,2735425,28,Woman
40,101555,DepthScenes,duration_manipulation_targetAtFixation,jsons/v1_VE1000_randls_24_rotated.json,http://54.235.29.9/FacialAge/BNav_EC2/DepthDuration/v2_depth_duration_MTurk/v2_DepthDuration_HTML.html#63,63,1366,768,1366,768,8-22-2022,5-10-34,41,depth_duration_stimuli/000749_2014-06-08_21-55-06_260595134347_rgbf000070-resize_2/000749_2014-06-08_21-55-06_260595134347_rgbf000070-resize_2-target.png,1000,2.331,36,12574,1000,meters,jsons/v1_VE1000_randls_24_rotated.json,1085948,2735425,28,Woman
41,101555,DepthScenes,duration_manipulation_targetAtFixation,jsons/v1_VE1000_randls_24_rotated.json,http://54.235.29.9/FacialAge/BNav_EC2/DepthDuration/v2_depth_duration_MTurk/v2_DepthDuration_HTML.html#63,63,1366,768,1366,768,8-22-2022,5-10-34,42,depth_duration_stimuli/002788_2014-06-22_19-36-03_094959634447_rgbf000088-resize_2/002788_2014-06-22_19-36-03_094959634447_rgbf000088-resize_2-target.png,1000,1.6465,38,5344,1000,meters,jsons/v1_VE1000_randls_24_rotated.json,1085948,2735425,28,Woman
42,101555,DepthScenes,duration_manipulation_targetAtFixation,jsons/v1_VE1000_randls_24_rotated.json,http://54.235.29.9/FacialAge/BNav_EC2/DepthDuration/v2_depth_duration_MTurk/v2_DepthDuration_HTML.html#63,63,1366,768,1366,768,8-22-2022,5-10-34,43,depth_duration_stimuli/000109_2014-05-14_23-41-52_260595134347_rgbf000035-resize_9/000109_2014-05-14_23-41-52_260595134347_rgbf000035-resize_9-target.png,1000,1.3545,17,10707,1000,meters,jsons/v1_VE1000_randls_24_rotated.json,1085948,2735425,28,Woman
43,101555,DepthScenes,duration_manipulation_targetAtFixation,jsons/v1_VE1000_randls_24_rotated.json,http://54.235.29.9/FacialAge/BNav_EC2/DepthDuration/v2_depth_duration_MTurk/v2_DepthDuration_HTML.html#63,63,1366,768,1366,768,8-22-2022,5-10-34,44,depth_duration_stimuli/000470_2014-06-09_19-42-40_260595134347_rgbf000094-resize_1/000470_2014-06-09_19-42-40_260595134347_rgbf000094-resize_1-target.png,1000,1.831,20,4369,1000,meters,jsons/v1_VE1000_randls_24_rotated.json,1085948,2735425,28,Woman
44,101555,DepthScenes,duration_manipulation_targetAtFixation,jsons/v1_VE1000_randls_24_rotated.json,http://54.235.29.9/FacialAge/BNav_EC2/DepthDuration/v2_depth_duration_MTurk/v2_DepthDuration_HTML.html#63,63,1366,768,1366,768,8-22-2022,5-10-34,45,depth_duration_stimuli/000691_2014-06-08_13-08-50_260595134347_rgbf000132-resize_3/000691_2014-06-08_13-08-50_260595134347_rgbf000132-resize_3-target.png,1000,4.1530000000000005,35,11420,1001,meters,jsons/v1_VE1000_randls_24_rotated.json,1085948,2735425,28,Woman
45,101555,DepthScenes,duration_manipulation_targetAtFixation,jsons/v1_VE1000_randls_24_rotated.json,http://54.235.29.9/FacialAge/BNav_EC2/DepthDuration/v2_depth_duration_MTurk/v2_DepthDuration_HTML.html#63,63,1366,768,1366,768,8-22-2022,5-10-34,46,depth_duration_stimuli/002213_2014-06-28_18-37-58_260595134347_rgbf000055-resize_1/002213_2014-06-28_18-37-58_260595134347_rgbf000055-resize_1-target.png,1000,3.62,32,4868,1000,meters,jsons/v1_VE1000_randls_24_rotated.json,1085948,2735425,28,Woman
46,101555,DepthScenes,duration_manipulation_targetAtFixation,jsons/v1_VE1000_randls_24_rotated.json,http://54.235.29.9/FacialAge/BNav_EC2/DepthDuration/v2_depth_duration_MTurk/v2_DepthDuration_HTML.html#63,63,1366,768,1366,768,8-22-2022,5-10-34,47,depth_duration_stimuli/002340_2014-06-28_20-05-46_260595134347_rgbf000113-resize_0/002340_2014-06-28_20-05-46_260595134347_rgbf000113-resize_0-target.png,1000,2.4735,37,11409,1000,meters,jsons/v1_VE1000_randls_24_rotated.json,1085948,2735425,28,Woman
47,101555,DepthScenes,duration_manipulation_targetAtFixation,jsons/v1_VE1000_randls_24_rotated.json,http://54.235.29.9/FacialAge/BNav_EC2/DepthDuration/v2_depth_duration_MTurk/v2_DepthDuration_HTML.html#63,63,1366,768,1366,768,8-22-2022,5-10-34,48,depth_duration_stimuli/001016_2014-06-09_16-16-10_260595134347_rgbf000112-resize_5/001016_2014-06-09_16-16-10_260595134347_rgbf000112-resize_5-target.png,1000,1.6565,35,3897,999,meters,jsons/v1_VE1000_randls_24_rotated.json,1085948,2735425,28,Woman
48,101555,DepthScenes,duration_manipulation_targetAtFixation,jsons/v1_VE1000_randls_24_rotated.json,http://54.235.29.9/FacialAge/BNav_EC2/DepthDuration/v2_depth_duration_MTurk/v2_DepthDuration_HTML.html#63,63,1366,768,1366,768,8-22-2022,5-10-34,49,depth_duration_stimuli/001170_2014-06-17_15-43-44_260595134347_rgbf000096-resize_6/001170_2014-06-17_15-43-44_260595134347_rgbf000096-resize-original.jpg,1000,1.1909999999999998,0,8688,999,meters,jsons/v1_VE1000_randls_24_rotated.json,1085948,2735425,28,Woman
49,101555,DepthScenes,duration_manipulation_targetAtFixation,jsons/v1_VE1000_randls_24_rotated.json,http://54.235.29.9/FacialAge/BNav_EC2/DepthDuration/v2_depth_duration_MTurk/v2_DepthDuration_HTML.html#63,63,1366,768,1366,768,8-22-2022,5-10-34,50,depth_duration_stimuli/001815_2014-06-26_20-52-55_260595134347_rgbf000020-resize_0/001815_2014-06-26_20-52-55_260595134347_rgbf000020-resize_0-target.png,1000,3.3865,30,10818,999,meters,jsons/v1_VE1000_randls_24_rotated.json,1085948,2735425,28,Woman
50,101555,DepthScenes,duration_manipulation_targetAtFixation,jsons/v1_VE1000_randls_24_rotated.json,http://54.235.29.9/FacialAge/BNav_EC2/DepthDuration/v2_depth_duration_MTurk/v2_DepthDuration_HTML.html#63,63,1366,768,1366,768,8-22-2022,5-10-34,51,depth_duration_stimuli/001808_2014-06-26_20-50-58_260595134347_rgbf000029-resize_1/001808_2014-06-26_20-50-58_260595134347_rgbf000029-resize_1-target.png,1000,4.249,35,3310,999,meters,jsons/v1_VE1000_randls_24_rotated.json,1085948,2735425,28,Woman
51,101555,DepthScenes,duration_manipulation_targetAtFixation,jsons/v1_VE1000_randls_24_rotated.json,http://54.235.29.9/FacialAge/BNav_EC2/DepthDuration/v2_depth_duration_MTurk/v2_DepthDuration_HTML.html#63,63,1366,768,1366,768,8-22-2022,5-10-34,52,depth_duration_stimuli/003338_2014-05-20_11-01-23_094959634447_rgbf000051-resize_6/003338_2014-05-20_11-01-23_094959634447_rgbf000051-resize_6-target.png,1000,1.693,25,10070,1001,meters,jsons/v1_VE1000_randls_24_rotated.json,1085948,2735425,28,Woman
52,101555,DepthScenes,duration_manipulation_targetAtFixation,jsons/v1_VE1000_randls_24_rotated.json,http://54.235.29.9/FacialAge/BNav_EC2/DepthDuration/v2_depth_duration_MTurk/v2_DepthDuration_HTML.html#63,63,1366,768,1366,768,8-22-2022,5-10-34,53,depth_duration_stimuli/002509_2014-06-24_13-19-22_094959634447_rgbf000077-resize_0/002509_2014-06-24_13-19-22_094959634447_rgbf000077-resize_0-target.png,1000,1.3065,19,4809,998,meters,jsons/v1_VE1000_randls_24_rotated.json,1085948,2735425,28,Woman
53,101555,DepthScenes,duration_manipulation_targetAtFixation,jsons/v1_VE1000_randls_24_rotated.json,http://54.235.29.9/FacialAge/BNav_EC2/DepthDuration/v2_depth_duration_MTurk/v2_DepthDuration_HTML.html#63,63,1366,768,1366,768,8-22-2022,5-10-34,54,depth_duration_stimuli/001828_2014-06-26_21-40-03_260595134347_rgbf000024-resize_0/001828_2014-06-26_21-40-03_260595134347_rgbf000024-resize_0-target.png,1000,4.8260000000000005,33,9777,1000,meters,jsons/v1_VE1000_randls_24_rotated.json,1085948,2735425,28,Woman
54,101555,DepthScenes,duration_manipulation_targetAtFixation,jsons/v1_VE1000_randls_24_rotated.json,http://54.235.29.9/FacialAge/BNav_EC2/DepthDuration/v2_depth_duration_MTurk/v2_DepthDuration_HTML.html#63,63,1366,768,1366,768,8-22-2022,5-10-34,55,depth_duration_stimuli/000009_2014-05-26_14-32-05_260595134347_rgbf000034-resize_3/000009_2014-05-26_14-32-05_260595134347_rgbf000034-resize_3-target.png,1000,3.8715,38,4148,1000,meters,jsons/v1_VE1000_randls_24_rotated.json,1085948,2735425,28,Woman
55,101555,DepthScenes,duration_manipulation_targetAtFixation,jsons/v1_VE1000_randls_24_rotated.json,http://54.235.29.9/FacialAge/BNav_EC2/DepthDuration/v2_depth_duration_MTurk/v2_DepthDuration_HTML.html#63,63,1366,768,1366,768,8-22-2022,5-10-34,56,depth_duration_stimuli/002545_2014-06-24_13-38-53_094959634447_rgbf000080-resize_4/002545_2014-06-24_13-38-53_094959634447_rgbf000080-resize_4-target.png,1000,1.9205,35,9848,1041,meters,jsons/v1_VE1000_randls_24_rotated.json,1085948,2735425,28,Woman
56,101555,DepthScenes,duration_manipulation_targetAtFixation,jsons/v1_VE1000_randls_24_rotated.json,http://54.235.29.9/FacialAge/BNav_EC2/DepthDuration/v2_depth_duration_MTurk/v2_DepthDuration_HTML.html#63,63,1366,768,1366,768,8-22-2022,5-10-34,57,depth_duration_stimuli/001092_2014-06-15_17-34-58_260595134347_rgbf000171-resize_3/001092_2014-06-15_17-34-58_260595134347_rgbf000171-resize_3-target.png,1000,2.6935,28,5676,1000,meters,jsons/v1_VE1000_randls_24_rotated.json,1085948,2735425,28,Woman
57,101555,DepthScenes,duration_manipulation_targetAtFixation,jsons/v1_VE1000_randls_24_rotated.json,http://54.235.29.9/FacialAge/BNav_EC2/DepthDuration/v2_depth_duration_MTurk/v2_DepthDuration_HTML.html#63,63,1366,768,1366,768,8-22-2022,5-10-34,58,depth_duration_stimuli/000191_2014-05-12_17-07-38_260595134347_rgbf000199-resize_0/000191_2014-05-12_17-07-38_260595134347_rgbf000199-resize_0-target.png,1000,3.7995,37,10123,1000,meters,jsons/v1_VE1000_randls_24_rotated.json,1085948,2735425,28,Woman
58,101555,DepthScenes,duration_manipulation_targetAtFixation,jsons/v1_VE1000_randls_24_rotated.json,http://54.235.29.9/FacialAge/BNav_EC2/DepthDuration/v2_depth_duration_MTurk/v2_DepthDuration_HTML.html#63,63,1366,768,1366,768,8-22-2022,5-10-34,59,depth_duration_stimuli/000493_2014-06-09_21-01-18_260595134347_rgbf000196-resize_3/000493_2014-06-09_21-01-18_260595134347_rgbf000196-resize_3-target.png,1000,3.44,28,5192,1000,meters,jsons/v1_VE1000_randls_24_rotated.json,1085948,2735425,28,Woman
59,101555,DepthScenes,duration_manipulation_targetAtFixation,jsons/v1_VE1000_randls_24_rotated.json,http://54.235.29.9/FacialAge/BNav_EC2/DepthDuration/v2_depth_duration_MTurk/v2_DepthDuration_HTML.html#63,63,1366,768,1366,768,8-22-2022,5-10-34,60,depth_duration_stimuli/002637_2014-06-24_14-51-13_094959634447_rgbf000066-resize_4/002637_2014-06-24_14-51-13_094959634447_rgbf000066-resize_4-target.png,1000,1.9955,30,9609,1000,meters,jsons/v1_VE1000_randls_24_rotated.json,1085948,2735425,28,Woman
60,101555,DepthScenes,duration_manipulation_targetAtFixation,jsons/v1_VE1000_randls_24_rotated.json,http://54.235.29.9/FacialAge/BNav_EC2/DepthDuration/v2_depth_duration_MTurk/v2_DepthDuration_HTML.html#63,63,1366,768,1366,768,8-22-2022,5-10-34,61,depth_duration_stimuli/003534_2014-05-22_15-06-10_094959634447_rgbf000102-resize_4/003534_2014-05-22_15-06-10_094959634447_rgbf000102-resize_4-target.png,1000,1.426,18,5577,999,meters,jsons/v1_VE1000_randls_24_rotated.json,1085948,2735425,28,Woman
61,101555,DepthScenes,duration_manipulation_targetAtFixation,jsons/v1_VE1000_randls_24_rotated.json,http://54.235.29.9/FacialAge/BNav_EC2/DepthDuration/v2_depth_duration_MTurk/v2_DepthDuration_HTML.html#63,63,1366,768,1366,768,8-22-2022,5-10-34,62,depth_duration_stimuli/000742_2014-06-08_18-48-09_260595134347_rgbf000164-resize_4/000742_2014-06-08_18-48-09_260595134347_rgbf000164-resize_4-target.png,1000,4.632,37,7494,999,meters,jsons/v1_VE1000_randls_24_rotated.json,1085948,2735425,28,Woman
62,101555,DepthScenes,duration_manipulation_targetAtFixation,jsons/v1_VE1000_randls_24_rotated.json,http://54.235.29.9/FacialAge/BNav_EC2/DepthDuration/v2_depth_duration_MTurk/v2_DepthDuration_HTML.html#63,63,1366,768,1366,768,8-22-2022,5-10-34,63,depth_duration_stimuli/001066_2014-06-08_22-03-20_260595134347_rgbf000066-resize_4/001066_2014-06-08_22-03-20_260595134347_rgbf000066-resize_4-target.png,1000,4.2330000000000005,39,3527,1000,meters,jsons/v1_VE1000_randls_24_rotated.json,1085948,2735425,28,Woman
63,101555,DepthScenes,duration_manipulation_targetAtFixation,jsons/v1_VE1000_randls_24_rotated.json,http://54.235.29.9/FacialAge/BNav_EC2/DepthDuration/v2_depth_duration_MTurk/v2_DepthDuration_HTML.html#63,63,1366,768,1366,768,8-22-2022,5-10-34,64,depth_duration_stimuli/003083_2014-06-15_15-21-03_094959634447_rgbf000063-resize_1/003083_2014-06-15_15-21-03_094959634447_rgbf000063-resize_1-target.png,1000,4.1405,39,6389,999,meters,jsons/v1_VE1000_randls_24_rotated.json,1085948,2735425,28,Woman
64,101555,DepthScenes,duration_manipulation_targetAtFixation,jsons/v1_VE1000_randls_24_rotated.json,http://54.235.29.9/FacialAge/BNav_EC2/DepthDuration/v2_depth_duration_MTurk/v2_DepthDuration_HTML.html#63,63,1366,768,1366,768,8-22-2022,5-10-34,65,depth_duration_stimuli/000486_2014-06-09_20-47-20_260595134347_rgbf000143-resize_2/000486_2014-06-09_20-47-20_260595134347_rgbf000143-resize_2-target.png,1000,4.8325,35,3339,1001,meters,jsons/v1_VE1000_randls_24_rotated.json,1085948,2735425,28,Woman
65,101555,DepthScenes,duration_manipulation_targetAtFixation,jsons/v1_VE1000_randls_24_rotated.json,http://54.235.29.9/FacialAge/BNav_EC2/DepthDuration/v2_depth_duration_MTurk/v2_DepthDuration_HTML.html#63,63,1366,768,1366,768,8-22-2022,5-10-34,66,depth_duration_stimuli/001540_2014-06-20_17-01-05_260595134347_rgbf000086-resize_2/001540_2014-06-20_17-01-05_260595134347_rgbf000086-resize-original.jpg,1000,1.459,0,8089,999,meters,jsons/v1_VE1000_randls_24_rotated.json,1085948,2735425,28,Woman
66,101555,DepthScenes,duration_manipulation_targetAtFixation,jsons/v1_VE1000_randls_24_rotated.json,http://54.235.29.9/FacialAge/BNav_EC2/DepthDuration/v2_depth_duration_MTurk/v2_DepthDuration_HTML.html#63,63,1366,768,1366,768,8-22-2022,5-10-34,67,depth_duration_stimuli/002425_2014-06-28_20-27-29_260595134347_rgbf000031-resize_8/002425_2014-06-28_20-27-29_260595134347_rgbf000031-resize_8-target.png,1000,3.8960000000000004,30,10350,1000,meters,jsons/v1_VE1000_randls_24_rotated.json,1085948,2735425,28,Woman
67,101555,DepthScenes,duration_manipulation_targetAtFixation,jsons/v1_VE1000_randls_24_rotated.json,http://54.235.29.9/FacialAge/BNav_EC2/DepthDuration/v2_depth_duration_MTurk/v2_DepthDuration_HTML.html#63,63,1366,768,1366,768,8-22-2022,5-10-34,68,depth_duration_stimuli/000642_2014-06-08_16-59-25_260595134347_rgbf000098-resize_2/000642_2014-06-08_16-59-25_260595134347_rgbf000098-resize_2-target.png,1000,2.8815,28,3336,999,meters,jsons/v1_VE1000_randls_24_rotated.json,1085948,2735425,28,Woman
68,101555,DepthScenes,duration_manipulation_targetAtFixation,jsons/v1_VE1000_randls_24_rotated.json,http://54.235.29.9/FacialAge/BNav_EC2/DepthDuration/v2_depth_duration_MTurk/v2_DepthDuration_HTML.html#63,63,1366,768,1366,768,8-22-2022,5-10-34,69,depth_duration_stimuli/001447_2014-06-19_17-00-32_260595134347_rgbf000082-resize_5/001447_2014-06-19_17-00-32_260595134347_rgbf000082-resize_5-target.png,1000,4.13775,35,11990,1001,meters,jsons/v1_VE1000_randls_24_rotated.json,1085948,2735425,28,Woman
69,101555,DepthScenes,duration_manipulation_targetAtFixation,jsons/v1_VE1000_randls_24_rotated.json,http://54.235.29.9/FacialAge/BNav_EC2/DepthDuration/v2_depth_duration_MTurk/v2_DepthDuration_HTML.html#63,63,1366,768,1366,768,8-22-2022,5-10-34,70,depth_duration_stimuli/000447_2014-06-08_16-15-46_260595134347_rgbf000130-resize_1/000447_2014-06-08_16-15-46_260595134347_rgbf000130-resize_1-target.png,1000,4.479,34,3640,1000,meters,jsons/v1_VE1000_randls_24_rotated.json,1085948,2735425,28,Woman
70,101555,DepthScenes,duration_manipulation_targetAtFixation,jsons/v1_VE1000_randls_24_rotated.json,http://54.235.29.9/FacialAge/BNav_EC2/DepthDuration/v2_depth_duration_MTurk/v2_DepthDuration_HTML.html#63,63,1366,768,1366,768,8-22-2022,5-10-34,71,depth_duration_stimuli/003010_2014-06-15_12-54-35_094959634447_rgbf000112-resize_0/003010_2014-06-15_12-54-35_094959634447_rgbf000112-resize_0-target.png,1000,3.1185,38,6683,976,meters,jsons/v1_VE1000_randls_24_rotated.json,1085948,2735425,28,Woman
71,101555,DepthScenes,duration_manipulation_targetAtFixation,jsons/v1_VE1000_randls_24_rotated.json,http://54.235.29.9/FacialAge/BNav_EC2/DepthDuration/v2_depth_duration_MTurk/v2_DepthDuration_HTML.html#63,63,1366,768,1366,768,8-22-2022,5-10-34,72,depth_duration_stimuli/001810_2014-06-26_20-51-35_260595134347_rgbf000040-resize_3/001810_2014-06-26_20-51-35_260595134347_rgbf000040-resize_3-target.png,1000,2.2525,28,3259,999,meters,jsons/v1_VE1000_randls_24_rotated.json,1085948,2735425,28,Woman
72,101555,DepthScenes,duration_manipulation_targetAtFixation,jsons/v1_VE1000_randls_24_rotated.json,http://54.235.29.9/FacialAge/BNav_EC2/DepthDuration/v2_depth_duration_MTurk/v2_DepthDuration_HTML.html#63,63,1366,768,1366,768,8-22-2022,5-10-34,73,depth_duration_stimuli/000734_2014-06-08_17-39-11_260595134347_rgbf000128-resize_2/000734_2014-06-08_17-39-11_260595134347_rgbf000128-resize_2-target.png,1000,4.098,30,7258,1000,meters,jsons/v1_VE1000_randls_24_rotated.json,1085948,2735425,28,Woman
73,101555,DepthScenes,duration_manipulation_targetAtFixation,jsons/v1_VE1000_randls_24_rotated.json,http://54.235.29.9/FacialAge/BNav_EC2/DepthDuration/v2_depth_duration_MTurk/v2_DepthDuration_HTML.html#63,63,1366,768,1366,768,8-22-2022,5-10-34,74,depth_duration_stimuli/000739_2014-06-08_18-45-58_260595134347_rgbf000068-resize_1/000739_2014-06-08_18-45-58_260595134347_rgbf000068-resize_1-target.png,1000,3.534,34,4218,999,meters,jsons/v1_VE1000_randls_24_rotated.json,1085948,2735425,28,Woman
74,101555,DepthScenes,duration_manipulation_targetAtFixation,jsons/v1_VE1000_randls_24_rotated.json,http://54.235.29.9/FacialAge/BNav_EC2/DepthDuration/v2_depth_duration_MTurk/v2_DepthDuration_HTML.html#63,63,1366,768,1366,768,8-22-2022,5-10-34,75,depth_duration_stimuli/002949_2014-06-26_15-57-42_094959634447_rgbf000079-resize_1/002949_2014-06-26_15-57-42_094959634447_rgbf000079-resize_1-target.png,1000,1.8915,27,7688,1000,meters,jsons/v1_VE1000_randls_24_rotated.json,1085948,2735425,28,Woman
75,101555,DepthScenes,duration_manipulation_targetAtFixation,jsons/v1_VE1000_randls_24_rotated.json,http://54.235.29.9/FacialAge/BNav_EC2/DepthDuration/v2_depth_duration_MTurk/v2_DepthDuration_HTML.html#63,63,1366,768,1366,768,8-22-2022,5-10-34,76,depth_duration_stimuli/000522_2014-06-08_13-35-06_260595134347_rgbf000244-resize_1/000522_2014-06-08_13-35-06_260595134347_rgbf000244-resize_1-target.png,1000,2.3715,20,3100,1000,meters,jsons/v1_VE1000_randls_24_rotated.json,1085948,2735425,28,Woman
76,101555,DepthScenes,duration_manipulation_targetAtFixation,jsons/v1_VE1000_randls_24_rotated.json,http://54.235.29.9/FacialAge/BNav_EC2/DepthDuration/v2_depth_duration_MTurk/v2_DepthDuration_HTML.html#63,63,1366,768,1366,768,8-22-2022,5-10-34,77,depth_duration_stimuli/001392_2014-06-19_16-07-59_260595134347_rgbf000046-resize_1/001392_2014-06-19_16-07-59_260595134347_rgbf000046-resize_1-target.png,1000,4.135,33,6588,1000,meters,jsons/v1_VE1000_randls_24_rotated.json,1085948,2735425,28,Woman
77,101555,DepthScenes,duration_manipulation_targetAtFixation,jsons/v1_VE1000_randls_24_rotated.json,http://54.235.29.9/FacialAge/BNav_EC2/DepthDuration/v2_depth_duration_MTurk/v2_DepthDuration_HTML.html#63,63,1366,768,1366,768,8-22-2022,5-10-34,78,depth_duration_stimuli/001570_2014-06-20_17-21-09_260595134347_rgbf000135-resize_4/001570_2014-06-20_17-21-09_260595134347_rgbf000135-resize_4-target.png,1000,4.467,36,3337,1000,meters,jsons/v1_VE1000_randls_24_rotated.json,1085948,2735425,28,Woman
78,101555,DepthScenes,duration_manipulation_targetAtFixation,jsons/v1_VE1000_randls_24_rotated.json,http://54.235.29.9/FacialAge/BNav_EC2/DepthDuration/v2_depth_duration_MTurk/v2_DepthDuration_HTML.html#63,63,1366,768,1366,768,8-22-2022,5-10-34,79,depth_duration_stimuli/001516_2014-06-20_16-25-09_260595134347_rgbf000076-resize_2/001516_2014-06-20_16-25-09_260595134347_rgbf000076-resize_2-target.png,1000,1.7445,34,7698,1000,meters,jsons/v1_VE1000_randls_24_rotated.json,1085948,2735425,28,Woman
79,101555,DepthScenes,duration_manipulation_targetAtFixation,jsons/v1_VE1000_randls_24_rotated.json,http://54.235.29.9/FacialAge/BNav_EC2/DepthDuration/v2_depth_duration_MTurk/v2_DepthDuration_HTML.html#63,63,1366,768,1366,768,8-22-2022,5-10-34,80,depth_duration_stimuli/002118_2014-06-25_20-32-08_260595134347_rgbf000078-resize_1/002118_2014-06-25_20-32-08_260595134347_rgbf000078-resize_1-target.png,1000,2.6460000000000004,29,5659,1000,meters,jsons/v1_VE1000_randls_24_rotated.json,1085948,2735425,28,Woman
80,101555,DepthScenes,duration_manipulation_targetAtFixation,jsons/v1_VE1000_randls_24_rotated.json,http://54.235.29.9/FacialAge/BNav_EC2/DepthDuration/v2_depth_duration_MTurk/v2_DepthDuration_HTML.html#63,63,1366,768,1366,768,8-22-2022,5-10-34,81,depth_duration_stimuli/003423_2014-05-21_10-23-26_094959634447_rgbf002665-resize_2/003423_2014-05-21_10-23-26_094959634447_rgbf002665-resize_2-target.png,1000,3.2575,35,7298,1000,meters,jsons/v1_VE1000_randls_24_rotated.json,1085948,2735425,28,Woman
81,101555,DepthScenes,duration_manipulation_targetAtFixation,jsons/v1_VE1000_randls_24_rotated.json,http://54.235.29.9/FacialAge/BNav_EC2/DepthDuration/v2_depth_duration_MTurk/v2_DepthDuration_HTML.html#63,63,1366,768,1366,768,8-22-2022,5-10-34,82,depth_duration_stimuli/002905_2014-06-03_18-04-43_094959634447_rgbf000151-resize_2/002905_2014-06-03_18-04-43_094959634447_rgbf000151-resize_2-target.png,1000,2.0295,29,5583,1000,meters,jsons/v1_VE1000_randls_24_rotated.json,1085948,2735425,28,Woman
82,101555,DepthScenes,duration_manipulation_targetAtFixation,jsons/v1_VE1000_randls_24_rotated.json,http://54.235.29.9/FacialAge/BNav_EC2/DepthDuration/v2_depth_duration_MTurk/v2_DepthDuration_HTML.html#63,63,1366,768,1366,768,8-22-2022,5-10-34,83,depth_duration_stimuli/002678_2014-06-13_16-15-32_094959634447_rgbf000151-resize_6/002678_2014-06-13_16-15-32_094959634447_rgbf000151-resize_6-target.png,1000,2.1830000000000003,34,6748,1000,meters,jsons/v1_VE1000_randls_24_rotated.json,1085948,2735425,28,Woman
83,101555,DepthScenes,duration_manipulation_targetAtFixation,jsons/v1_VE1000_randls_24_rotated.json,http://54.235.29.9/FacialAge/BNav_EC2/DepthDuration/v2_depth_duration_MTurk/v2_DepthDuration_HTML.html#63,63,1366,768,1366,768,8-22-2022,5-10-34,84,depth_duration_stimuli/000368_2014-06-09_15-53-01_260595134347_rgbf000155-resize_2/000368_2014-06-09_15-53-01_260595134347_rgbf000155-resize_2-target.png,1000,2.4859999999999998,28,5408,998,meters,jsons/v1_VE1000_randls_24_rotated.json,1085948,2735425,28,Woman
84,101555,DepthScenes,duration_manipulation_targetAtFixation,jsons/v1_VE1000_randls_24_rotated.json,http://54.235.29.9/FacialAge/BNav_EC2/DepthDuration/v2_depth_duration_MTurk/v2_DepthDuration_HTML.html#63,63,1366,768,1366,768,8-22-2022,5-10-34,85,depth_duration_stimuli/003048_2014-06-15_13-49-43_094959634447_rgbf000150-resize_1/003048_2014-06-15_13-49-43_094959634447_rgbf000150-resize_1-target.png,1000,4.0035,39,5573,1000,meters,jsons/v1_VE1000_randls_24_rotated.json,1085948,2735425,28,Woman
85,101555,DepthScenes,duration_manipulation_targetAtFixation,jsons/v1_VE1000_randls_24_rotated.json,http://54.235.29.9/FacialAge/BNav_EC2/DepthDuration/v2_depth_duration_MTurk/v2_DepthDuration_HTML.html#63,63,1366,768,1366,768,8-22-2022,5-10-34,86,depth_duration_stimuli/002043_2014-06-24_20-29-38_260595134347_rgbf000039-resize_4/002043_2014-06-24_20-29-38_260595134347_rgbf000039-resize_4-target.png,1000,2.8435,35,3208,1000,meters,jsons/v1_VE1000_randls_24_rotated.json,1085948,2735425,28,Woman
86,101555,DepthScenes,duration_manipulation_targetAtFixation,jsons/v1_VE1000_randls_24_rotated.json,http://54.235.29.9/FacialAge/BNav_EC2/DepthDuration/v2_depth_duration_MTurk/v2_DepthDuration_HTML.html#63,63,1366,768,1366,768,8-22-2022,5-10-34,87,depth_duration_stimuli/002568_2014-06-24_13-59-21_094959634447_rgbf000062-resize_4/002568_2014-06-24_13-59-21_094959634447_rgbf000062-resize_4-target.png,1000,3.015,33,6188,998,meters,jsons/v1_VE1000_randls_24_rotated.json,1085948,2735425,28,Woman
87,101555,DepthScenes,duration_manipulation_targetAtFixation,jsons/v1_VE1000_randls_24_rotated.json,http://54.235.29.9/FacialAge/BNav_EC2/DepthDuration/v2_depth_duration_MTurk/v2_DepthDuration_HTML.html#63,63,1366,768,1366,768,8-22-2022,5-10-34,88,depth_duration_stimuli/003492_2014-05-21_15-50-55_094959634447_rgbf000828-resize_1/003492_2014-05-21_15-50-55_094959634447_rgbf000828-resize_1-target.png,1000,4.06875,38,3190,999,meters,jsons/v1_VE1000_randls_24_rotated.json,1085948,2735425,28,Woman
88,101555,DepthScenes,duration_manipulation_targetAtFixation,jsons/v1_VE1000_randls_24_rotated.json,http://54.235.29.9/FacialAge/BNav_EC2/DepthDuration/v2_depth_duration_MTurk/v2_DepthDuration_HTML.html#63,63,1366,768,1366,768,8-22-2022,5-10-34,89,depth_duration_stimuli/001584_2014-06-20_11-07-43_260595134347_rgbf000002-resize_1/001584_2014-06-20_11-07-43_260595134347_rgbf000002-resize_1-target.png,1000,3.53,35,5264,1000,meters,jsons/v1_VE1000_randls_24_rotated.json,1085948,2735425,28,Woman
89,101555,DepthScenes,duration_manipulation_targetAtFixation,jsons/v1_VE1000_randls_24_rotated.json,http://54.235.29.9/FacialAge/BNav_EC2/DepthDuration/v2_depth_duration_MTurk/v2_DepthDuration_HTML.html#63,63,1366,768,1366,768,8-22-2022,5-10-34,90,depth_duration_stimuli/003621_2014-05-23_18-06-08_094959634447_rgbf000101-resize_1/003621_2014-05-23_18-06-08_094959634447_rgbf000101-resize_1-target.png,1000,3.9835,37,3193,999,meters,jsons/v1_VE1000_randls_24_rotated.json,1085948,2735425,28,Woman
90,101555,DepthScenes,duration_manipulation_targetAtFixation,jsons/v1_VE1000_randls_24_rotated.json,http://54.235.29.9/FacialAge/BNav_EC2/DepthDuration/v2_depth_duration_MTurk/v2_DepthDuration_HTML.html#63,63,1366,768,1366,768,8-22-2022,5-10-34,91,depth_duration_stimuli/003081_2014-06-15_15-19-16_094959634447_rgbf000150-resize_1/003081_2014-06-15_15-19-16_094959634447_rgbf000150-resize_1-target.png,1000,3.9125,36,4828,1000,meters,jsons/v1_VE1000_randls_24_rotated.json,1085948,2735425,28,Woman
91,101555,DepthScenes,duration_manipulation_targetAtFixation,jsons/v1_VE1000_randls_24_rotated.json,http://54.235.29.9/FacialAge/BNav_EC2/DepthDuration/v2_depth_duration_MTurk/v2_DepthDuration_HTML.html#63,63,1366,768,1366,768,8-22-2022,5-10-34,92,depth_duration_stimuli/001417_2014-06-19_16-25-36_260595134347_rgbf000115-resize_5/001417_2014-06-19_16-25-36_260595134347_rgbf000115-resize_5-target.png,1000,4.6255,37,3274,1001,meters,jsons/v1_VE1000_randls_24_rotated.json,1085948,2735425,28,Woman
92,101555,DepthScenes,duration_manipulation_targetAtFixation,jsons/v1_VE1000_randls_24_rotated.json,http://54.235.29.9/FacialAge/BNav_EC2/DepthDuration/v2_depth_duration_MTurk/v2_DepthDuration_HTML.html#63,63,1366,768,1366,768,8-22-2022,5-10-34,93,depth_duration_stimuli/003228_2014-05-14_13-42-35_094959634447_rgbf000101-resize_1/003228_2014-05-14_13-42-35_094959634447_rgbf000101-resize_1-target.png,1000,1.9680000000000002,28,4683,999,meters,jsons/v1_VE1000_randls_24_rotated.json,1085948,2735425,28,Woman
93,101555,DepthScenes,duration_manipulation_targetAtFixation,jsons/v1_VE1000_randls_24_rotated.json,http://54.235.29.9/FacialAge/BNav_EC2/DepthDuration/v2_depth_duration_MTurk/v2_DepthDuration_HTML.html#63,63,1366,768,1366,768,8-22-2022,5-10-34,94,depth_duration_stimuli/002600_2014-06-24_14-27-04_094959634447_rgbf000074-resize_2/002600_2014-06-24_14-27-04_094959634447_rgbf000074-resize_2-target.png,1000,2.7575,27,3158,1000,meters,jsons/v1_VE1000_randls_24_rotated.json,1085948,2735425,28,Woman
94,101555,DepthScenes,duration_manipulation_targetAtFixation,jsons/v1_VE1000_randls_24_rotated.json,http://54.235.29.9/FacialAge/BNav_EC2/DepthDuration/v2_depth_duration_MTurk/v2_DepthDuration_HTML.html#63,63,1366,768,1366,768,8-22-2022,5-10-34,95,depth_duration_stimuli/003079_2014-06-15_15-18-20_094959634447_rgbf000152-resize_8/003079_2014-06-15_15-18-20_094959634447_rgbf000152-resize_8-target.png,1000,2.8775,37,5589,1000,meters,jsons/v1_VE1000_randls_24_rotated.json,1085948,2735425,28,Woman
95,101555,DepthScenes,duration_manipulation_targetAtFixation,jsons/v1_VE1000_randls_24_rotated.json,http://54.235.29.9/FacialAge/BNav_EC2/DepthDuration/v2_depth_duration_MTurk/v2_DepthDuration_HTML.html#63,63,1366,768,1366,768,8-22-2022,5-10-34,96,depth_duration_stimuli/000506_2014-06-08_23-21-00_260595134347_rgbf000070-resize_7/000506_2014-06-08_23-21-00_260595134347_rgbf000070-resize_7-target.png,1000,4.0585,34,3898,1000,meters,jsons/v1_VE1000_randls_24_rotated.json,1085948,2735425,28,Woman
96,101555,DepthScenes,duration_manipulation_targetAtFixation,jsons/v1_VE1000_randls_24_rotated.json,http://54.235.29.9/FacialAge/BNav_EC2/DepthDuration/v2_depth_duration_MTurk/v2_DepthDuration_HTML.html#63,63,1366,768,1366,768,8-22-2022,5-10-34,97,depth_duration_stimuli/000677_2014-06-08_23-10-32_260595134347_rgbf000158-resize_6/000677_2014-06-08_23-10-32_260595134347_rgbf000158-resize_6-target.png,1000,3.556,35,4569,1000,meters,jsons/v1_VE1000_randls_24_rotated.json,1085948,2735425,28,Woman
97,101555,DepthScenes,duration_manipulation_targetAtFixation,jsons/v1_VE1000_randls_24_rotated.json,http://54.235.29.9/FacialAge/BNav_EC2/DepthDuration/v2_depth_duration_MTurk/v2_DepthDuration_HTML.html#63,63,1366,768,1366,768,8-22-2022,5-10-34,98,depth_duration_stimuli/001029_2014-06-08_13-17-57_260595134347_rgbf000065-resize_1/001029_2014-06-08_13-17-57_260595134347_rgbf000065-resize_1-target.png,1000,3.0835,30,3419,1000,meters,jsons/v1_VE1000_randls_24_rotated.json,1085948,2735425,28,Woman
98,101555,DepthScenes,duration_manipulation_targetAtFixation,jsons/v1_VE1000_randls_24_rotated.json,http://54.235.29.9/FacialAge/BNav_EC2/DepthDuration/v2_depth_duration_MTurk/v2_DepthDuration_HTML.html#63,63,1366,768,1366,768,8-22-2022,5-10-34,99,depth_duration_stimuli/001222_2014-06-17_16-24-06_260595134347_rgbf000073-resize_0/001222_2014-06-17_16-24-06_260595134347_rgbf000073-resize-original.jpg,1000,1.4385,0,4391,1000,meters,jsons/v1_VE1000_randls_24_rotated.json,1085948,2735425,28,Woman
99,101555,DepthScenes,duration_manipulation_targetAtFixation,jsons/v1_VE1000_randls_24_rotated.json,http://54.235.29.9/FacialAge/BNav_EC2/DepthDuration/v2_depth_duration_MTurk/v2_DepthDuration_HTML.html#63,63,1366,768,1366,768,8-22-2022,5-10-34,100,depth_duration_stimuli/002199_2014-06-28_18-33-56_260595134347_rgbf000074-resize_0/002199_2014-06-28_18-33-56_260595134347_rgbf000074-resize_0-target.png,1000,1.996,17,4648,999,meters,jsons/v1_VE1000_randls_24_rotated.json,1085948,2735425,28,Woman
100,101555,DepthScenes,duration_manipulation_targetAtFixation,jsons/v1_VE1000_randls_24_rotated.json,http://54.235.29.9/FacialAge/BNav_EC2/DepthDuration/v2_depth_duration_MTurk/v2_DepthDuration_HTML.html#63,63,1366,768,1366,768,8-22-2022,5-10-34,101,depth_duration_stimuli/001056_2014-06-08_18-46-44_260595134347_rgbf000068-resize_0/001056_2014-06-08_18-46-44_260595134347_rgbf000068-resize_0-target.png,1000,2.6625,25,4198,999,meters,jsons/v1_VE1000_randls_24_rotated.json,1085948,2735425,28,Woman
101,101555,DepthScenes,duration_manipulation_targetAtFixation,jsons/v1_VE1000_randls_24_rotated.json,http://54.235.29.9/FacialAge/BNav_EC2/DepthDuration/v2_depth_duration_MTurk/v2_DepthDuration_HTML.html#63,63,1366,768,1366,768,8-22-2022,5-10-34,102,depth_duration_stimuli/002414_2014-06-28_20-24-58_260595134347_rgbf000067-resize_4/002414_2014-06-28_20-24-58_260595134347_rgbf000067-resize_4-target.png,1000,4.363,34,4582,1000,meters,jsons/v1_VE1000_randls_24_rotated.json,1085948,2735425,28,Woman
102,101555,DepthScenes,duration_manipulation_targetAtFixation,jsons/v1_VE1000_randls_24_rotated.json,http://54.235.29.9/FacialAge/BNav_EC2/DepthDuration/v2_depth_duration_MTurk/v2_DepthDuration_HTML.html#63,63,1366,768,1366,768,8-22-2022,5-10-34,103,depth_duration_stimuli/000773_2014-06-08_22-24-54_260595134347_rgbf000093-resize_1/000773_2014-06-08_22-24-54_260595134347_rgbf000093-resize_1-target.png,1000,4.973,38,3055,1000,meters,jsons/v1_VE1000_randls_24_rotated.json,1085948,2735425,28,Woman
103,101555,DepthScenes,duration_manipulation_targetAtFixation,jsons/v1_VE1000_randls_24_rotated.json,http://54.235.29.9/FacialAge/BNav_EC2/DepthDuration/v2_depth_duration_MTurk/v2_DepthDuration_HTML.html#63,63,1366,768,1366,768,8-22-2022,5-10-34,104,depth_duration_stimuli/001571_2014-06-20_17-21-32_260595134347_rgbf000089-resize_1/001571_2014-06-20_17-21-32_260595134347_rgbf000089-resize_1-target.png,1000,1.86,30,4731,1004,meters,jsons/v1_VE1000_randls_24_rotated.json,1085948,2735425,28,Woman
104,101555,DepthScenes,duration_manipulation_targetAtFixation,jsons/v1_VE1000_randls_24_rotated.json,http://54.235.29.9/FacialAge/BNav_EC2/DepthDuration/v2_depth_duration_MTurk/v2_DepthDuration_HTML.html#63,63,1366,768,1366,768,8-22-2022,5-10-34,105,depth_duration_stimuli/002272_2014-06-28_18-53-56_260595134347_rgbf000067-resize_2/002272_2014-06-28_18-53-56_260595134347_rgbf000067-resize_2-target.png,1000,1.138,32,2965,1001,meters,jsons/v1_VE1000_randls_24_rotated.json,1085948,2735425,28,Woman
105,101555,DepthScenes,duration_manipulation_targetAtFixation,jsons/v1_VE1000_randls_24_rotated.json,http://54.235.29.9/FacialAge/BNav_EC2/DepthDuration/v2_depth_duration_MTurk/v2_DepthDuration_HTML.html#63,63,1366,768,1366,768,8-22-2022,5-10-34,106,depth_duration_stimuli/001450_2014-06-19_17-02-03_260595134347_rgbf000203-resize_4/001450_2014-06-19_17-02-03_260595134347_rgbf000203-resize_4-target.png,1000,4.0106666666667,36,4270,1001,meters,jsons/v1_VE1000_randls_24_rotated.json,1085948,2735425,28,Woman
106,101555,DepthScenes,duration_manipulation_targetAtFixation,jsons/v1_VE1000_randls_24_rotated.json,http://54.235.29.9/FacialAge/BNav_EC2/DepthDuration/v2_depth_duration_MTurk/v2_DepthDuration_HTML.html#63,63,1366,768,1366,768,8-22-2022,5-10-34,107,depth_duration_stimuli/001449_2014-06-19_17-01-27_260595134347_rgbf000116-resize_2/001449_2014-06-19_17-01-27_260595134347_rgbf000116-resize_2-target.png,1000,3.452,37,3078,999,meters,jsons/v1_VE1000_randls_24_rotated.json,1085948,2735425,28,Woman
107,101555,DepthScenes,duration_manipulation_targetAtFixation,jsons/v1_VE1000_randls_24_rotated.json,http://54.235.29.9/FacialAge/BNav_EC2/DepthDuration/v2_depth_duration_MTurk/v2_DepthDuration_HTML.html#63,63,1366,768,1366,768,8-22-2022,5-10-34,108,depth_duration_stimuli/001136_2014-06-17_15-19-41_260595134347_rgbf000076-resize_3/001136_2014-06-17_15-19-41_260595134347_rgbf000076-resize_3-target.png,1000,1.8655,36,5139,1000,meters,jsons/v1_VE1000_randls_24_rotated.json,1085948,2735425,28,Woman
108,101555,DepthScenes,duration_manipulation_targetAtFixation,jsons/v1_VE1000_randls_24_rotated.json,http://54.235.29.9/FacialAge/BNav_EC2/DepthDuration/v2_depth_duration_MTurk/v2_DepthDuration_HTML.html#63,63,1366,768,1366,768,8-22-2022,5-10-34,109,depth_duration_stimuli/001164_2014-06-17_15-35-46_260595134347_rgbf000085-resize_3/001164_2014-06-17_15-35-46_260595134347_rgbf000085-resize_3-target.png,1000,2.354,36,2946,1000,meters,jsons/v1_VE1000_randls_24_rotated.json,1085948,2735425,28,Woman
109,101555,DepthScenes,duration_manipulation_targetAtFixation,jsons/v1_VE1000_randls_24_rotated.json,http://54.235.29.9/FacialAge/BNav_EC2/DepthDuration/v2_depth_duration_MTurk/v2_DepthDuration_HTML.html#63,63,1366,768,1366,768,8-22-2022,5-10-34,110,depth_duration_stimuli/002103_2014-06-25_20-00-40_260595134347_rgbf000049-resize_0/002103_2014-06-25_20-00-40_260595134347_rgbf000049-resize_0-target.png,1000,4.105,35,5011,999,meters,jsons/v1_VE1000_randls_24_rotated.json,1085948,2735425,28,Woman
110,101555,DepthScenes,duration_manipulation_targetAtFixation,jsons/v1_VE1000_randls_24_rotated.json,http://54.235.29.9/FacialAge/BNav_EC2/DepthDuration/v2_depth_duration_MTurk/v2_DepthDuration_HTML.html#63,63,1366,768,1366,768,8-22-2022,5-10-34,111,depth_duration_stimuli/002039_2014-06-24_20-22-38_260595134347_rgbf000084-resize_1/002039_2014-06-24_20-22-38_260595134347_rgbf000084-resize_1-target.png,1000,4.408,37,3028,1000,meters,jsons/v1_VE1000_randls_24_rotated.json,1085948,2735425,28,Woman
111,101555,DepthScenes,duration_manipulation_targetAtFixation,jsons/v1_VE1000_randls_24_rotated.json,http://54.235.29.9/FacialAge/BNav_EC2/DepthDuration/v2_depth_duration_MTurk/v2_DepthDuration_HTML.html#63,63,1366,768,1366,768,8-22-2022,5-10-34,112,depth_duration_stimuli/001052_2014-06-08_18-24-54_260595134347_rgbf000130-resize_1/001052_2014-06-08_18-24-54_260595134347_rgbf000130-resize_1-target.png,1000,4.1045,36,5654,1001,meters,jsons/v1_VE1000_randls_24_rotated.json,1085948,2735425,28,Woman
112,101555,DepthScenes,duration_manipulation_targetAtFixation,jsons/v1_VE1000_randls_24_rotated.json,http://54.235.29.9/FacialAge/BNav_EC2/DepthDuration/v2_depth_duration_MTurk/v2_DepthDuration_HTML.html#63,63,1366,768,1366,768,8-22-2022,5-10-34,113,depth_duration_stimuli/002988_2014-06-15_12-24-20_094959634447_rgbf000150-resize_1/002988_2014-06-15_12-24-20_094959634447_rgbf000150-resize_1-target.png,1000,4.7669999999999995,38,3250,1000,meters,jsons/v1_VE1000_randls_24_rotated.json,1085948,2735425,28,Woman
113,101555,DepthScenes,duration_manipulation_targetAtFixation,jsons/v1_VE1000_randls_24_rotated.json,http://54.235.29.9/FacialAge/BNav_EC2/DepthDuration/v2_depth_duration_MTurk/v2_DepthDuration_HTML.html#63,63,1366,768,1366,768,8-22-2022,5-10-34,114,depth_duration_stimuli/001650_2014-06-20_12-09-00_260595134347_rgbf000087-resize_3/001650_2014-06-20_12-09-00_260595134347_rgbf000087-resize_3-target.png,1000,1.9505,20,5806,1001,meters,jsons/v1_VE1000_randls_24_rotated.json,1085948,2735425,28,Woman
114,101555,DepthScenes,duration_manipulation_targetAtFixation,jsons/v1_VE1000_randls_24_rotated.json,http://54.235.29.9/FacialAge/BNav_EC2/DepthDuration/v2_depth_duration_MTurk/v2_DepthDuration_HTML.html#63,63,1366,768,1366,768,8-22-2022,5-10-34,115,depth_duration_stimuli/000682_2014-06-08_23-14-58_260595134347_rgbf000041-resize_5/000682_2014-06-08_23-14-58_260595134347_rgbf000041-resize_5-target.png,1000,2.7239999999999998,29,3138,1000,meters,jsons/v1_VE1000_randls_24_rotated.json,1085948,2735425,28,Woman
115,101555,DepthScenes,duration_manipulation_targetAtFixation,jsons/v1_VE1000_randls_24_rotated.json,http://54.235.29.9/FacialAge/BNav_EC2/DepthDuration/v2_depth_duration_MTurk/v2_DepthDuration_HTML.html#63,63,1366,768,1366,768,8-22-2022,5-10-34,116,depth_duration_stimuli/000549_2014-06-08_22-10-24_260595134347_rgbf000247-resize_3/000549_2014-06-08_22-10-24_260595134347_rgbf000247-resize_3-target.png,1000,1.841,22,8125,984,meters,jsons/v1_VE1000_randls_24_rotated.json,1085948,2735425,28,Woman
116,101555,DepthScenes,duration_manipulation_targetAtFixation,jsons/v1_VE1000_randls_24_rotated.json,http://54.235.29.9/FacialAge/BNav_EC2/DepthDuration/v2_depth_duration_MTurk/v2_DepthDuration_HTML.html#63,63,1366,768,1366,768,8-22-2022,5-10-34,117,depth_duration_stimuli/001055_2014-06-08_18-45-35_260595134347_rgbf000111-resize_4/001055_2014-06-08_18-45-35_260595134347_rgbf000111-resize_4-target.png,1000,2.4290000000000003,7,3650,1000,meters,jsons/v1_VE1000_randls_24_rotated.json,1085948,2735425,28,Woman
117,101555,DepthScenes,duration_manipulation_targetAtFixation,jsons/v1_VE1000_randls_24_rotated.json,http://54.235.29.9/FacialAge/BNav_EC2/DepthDuration/v2_depth_duration_MTurk/v2_DepthDuration_HTML.html#63,63,1366,768,1366,768,8-22-2022,5-10-34,118,depth_duration_stimuli/002805_2014-06-22_19-54-03_094959634447_rgbf000079-resize_1/002805_2014-06-22_19-54-03_094959634447_rgbf000079-resize_1-target.png,1000,3.1439999999999997,36,7677,999,meters,jsons/v1_VE1000_randls_24_rotated.json,1085948,2735425,28,Woman
118,101555,DepthScenes,duration_manipulation_targetAtFixation,jsons/v1_VE1000_randls_24_rotated.json,http://54.235.29.9/FacialAge/BNav_EC2/DepthDuration/v2_depth_duration_MTurk/v2_DepthDuration_HTML.html#63,63,1366,768,1366,768,8-22-2022,5-10-34,119,depth_duration_stimuli/000906_2014-06-08_13-35-43_260595134347_rgbf000155-resize_1/000906_2014-06-08_13-35-43_260595134347_rgbf000155-resize_1-target.png,1000,2.8489999999999998,37,3335,1000,meters,jsons/v1_VE1000_randls_24_rotated.json,1085948,2735425,28,Woman
119,101555,DepthScenes,duration_manipulation_targetAtFixation,jsons/v1_VE1000_randls_24_rotated.json,http://54.235.29.9/FacialAge/BNav_EC2/DepthDuration/v2_depth_duration_MTurk/v2_DepthDuration_HTML.html#63,63,1366,768,1366,768,8-22-2022,5-10-34,120,depth_duration_stimuli/000787_2014-06-08_22-33-53_260595134347_rgbf000175-resize_1/000787_2014-06-08_22-33-53_260595134347_rgbf000175-resize-original.jpg,1000,4.784,0,6739,1000,meters,jsons/v1_VE1000_randls_24_rotated.json,1085948,2735425,28,Woman
120,101555,DepthScenes,duration_manipulation_targetAtFixation,jsons/v1_VE1000_randls_24_rotated.json,http://54.235.29.9/FacialAge/BNav_EC2/DepthDuration/v2_depth_duration_MTurk/v2_DepthDuration_HTML.html#63,63,1366,768,1366,768,8-22-2022,5-10-34,121,depth_duration_stimuli/001132_2014-06-17_14-48-54_260595134347_rgbf000100-resize_2/001132_2014-06-17_14-48-54_260595134347_rgbf000100-resize_2-target.png,1000,3.753,35,5452,1000,meters,jsons/v1_VE1000_randls_24_rotated.json,1085948,2735425,28,Woman
121,101555,DepthScenes,duration_manipulation_targetAtFixation,jsons/v1_VE1000_randls_24_rotated.json,http://54.235.29.9/FacialAge/BNav_EC2/DepthDuration/v2_depth_duration_MTurk/v2_DepthDuration_HTML.html#63,63,1366,768,1366,768,8-22-2022,5-10-34,122,depth_duration_stimuli/001133_2014-06-17_14-49-16_260595134347_rgbf000100-resize_0/001133_2014-06-17_14-49-16_260595134347_rgbf000100-resize_0-target.png,1000,4.2115,36,3116,1001,meters,jsons/v1_VE1000_randls_24_rotated.json,1085948,2735425,28,Woman
122,101555,DepthScenes,duration_manipulation_targetAtFixation,jsons/v1_VE1000_randls_24_rotated.json,http://54.235.29.9/FacialAge/BNav_EC2/DepthDuration/v2_depth_duration_MTurk/v2_DepthDuration_HTML.html#63,63,1366,768,1366,768,8-22-2022,5-10-34,123,depth_duration_stimuli/000502_2014-06-08_23-02-32_260595134347_rgbf000063-resize_4/000502_2014-06-08_23-02-32_260595134347_rgbf000063-resize_4-target.png,1000,2.431,27,6460,1000,meters,jsons/v1_VE1000_randls_24_rotated.json,1085948,2735425,28,Woman
123,101555,DepthScenes,duration_manipulation_targetAtFixation,jsons/v1_VE1000_randls_24_rotated.json,http://54.235.29.9/FacialAge/BNav_EC2/DepthDuration/v2_depth_duration_MTurk/v2_DepthDuration_HTML.html#63,63,1366,768,1366,768,8-22-2022,5-10-34,124,depth_duration_stimuli/001199_2014-06-17_16-03-48_260595134347_rgbf000077-resize_0/001199_2014-06-17_16-03-48_260595134347_rgbf000077-resize_0-target.png,1000,3.4375,33,3124,999,meters,jsons/v1_VE1000_randls_24_rotated.json,1085948,2735425,28,Woman
124,101555,DepthScenes,duration_manipulation_targetAtFixation,jsons/v1_VE1000_randls_24_rotated.json,http://54.235.29.9/FacialAge/BNav_EC2/DepthDuration/v2_depth_duration_MTurk/v2_DepthDuration_HTML.html#63,63,1366,768,1366,768,8-22-2022,5-10-34,125,depth_duration_stimuli/003495_2014-05-21_16-01-51_094959634447_rgbf000100-resize_3/003495_2014-05-21_16-01-51_094959634447_rgbf000100-resize_3-target.png,1000,1.6255,21,6743,1000,meters,jsons/v1_VE1000_randls_24_rotated.json,1085948,2735425,28,Woman
125,101555,DepthScenes,duration_manipulation_targetAtFixation,jsons/v1_VE1000_randls_24_rotated.json,http://54.235.29.9/FacialAge/BNav_EC2/DepthDuration/v2_depth_duration_MTurk/v2_DepthDuration_HTML.html#63,63,1366,768,1366,768,8-22-2022,5-10-34,126,depth_duration_stimuli/001244_2014-06-17_16-47-45_260595134347_rgbf000030-resize_4/001244_2014-06-17_16-47-45_260595134347_rgbf000030-resize_4-target.png,1000,2.0425,34,3430,1000,meters,jsons/v1_VE1000_randls_24_rotated.json,1085948,2735425,28,Woman
126,101555,DepthScenes,duration_manipulation_targetAtFixation,jsons/v1_VE1000_randls_24_rotated.json,http://54.235.29.9/FacialAge/BNav_EC2/DepthDuration/v2_depth_duration_MTurk/v2_DepthDuration_HTML.html#63,63,1366,768,1366,768,8-22-2022,5-10-34,127,depth_duration_stimuli/000635_2014-06-08_16-38-42_260595134347_rgbf000106-resize_1/000635_2014-06-08_16-38-42_260595134347_rgbf000106-resize_1-target.png,1000,2.074,36,7713,1001,meters,jsons/v1_VE1000_randls_24_rotated.json,1085948,2735425,28,Woman
127,101555,DepthScenes,duration_manipulation_targetAtFixation,jsons/v1_VE1000_randls_24_rotated.json,http://54.235.29.9/FacialAge/BNav_EC2/DepthDuration/v2_depth_duration_MTurk/v2_DepthDuration_HTML.html#63,63,1366,768,1366,768,8-22-2022,5-10-34,128,depth_duration_stimuli/002279_2014-06-28_18-55-32_260595134347_rgbf000040-resize_5/002279_2014-06-28_18-55-32_260595134347_rgbf000040-resize_5-target.png,1000,1.5043333333333,243,3099,1000,meters,jsons/v1_VE1000_randls_24_rotated.json,1085948,2735425,28,Woman
128,101555,DepthScenes,duration_manipulation_targetAtFixation,jsons/v1_VE1000_randls_24_rotated.json,http://54.235.29.9/FacialAge/BNav_EC2/DepthDuration/v2_depth_duration_MTurk/v2_DepthDuration_HTML.html#63,63,1366,768,1366,768,8-22-2022,5-10-34,129,depth_duration_stimuli/001094_2014-06-15_17-36-00_260595134347_rgbf000205-resize_0/001094_2014-06-15_17-36-00_260595134347_rgbf000205-resize_0-target.png,1000,4.2175,30,7658,1000,meters,jsons/v1_VE1000_randls_24_rotated.json,1085948,2735425,28,Woman
129,101555,DepthScenes,duration_manipulation_targetAtFixation,jsons/v1_VE1000_randls_24_rotated.json,http://54.235.29.9/FacialAge/BNav_EC2/DepthDuration/v2_depth_duration_MTurk/v2_DepthDuration_HTML.html#63,63,1366,768,1366,768,8-22-2022,5-10-34,130,depth_duration_stimuli/000692_2014-06-08_13-09-42_260595134347_rgbf000199-resize_2/000692_2014-06-08_13-09-42_260595134347_rgbf000199-resize_2-target.png,1000,3.661,36,3118,1000,meters,jsons/v1_VE1000_randls_24_rotated.json,1085948,2735425,28,Woman
130,101555,DepthScenes,duration_manipulation_targetAtFixation,jsons/v1_VE1000_randls_24_rotated.json,http://54.235.29.9/FacialAge/BNav_EC2/DepthDuration/v2_depth_duration_MTurk/v2_DepthDuration_HTML.html#63,63,1366,768,1366,768,8-22-2022,5-10-34,131,depth_duration_stimuli/002758_2014-06-22_19-11-20_094959634447_rgbf000128-resize_1/002758_2014-06-22_19-11-20_094959634447_rgbf000128-resize_1-target.png,1000,2.555,28,7150,1000,meters,jsons/v1_VE1000_randls_24_rotated.json,1085948,2735425,28,Woman
131,101555,DepthScenes,duration_manipulation_targetAtFixation,jsons/v1_VE1000_randls_24_rotated.json,http://54.235.29.9/FacialAge/BNav_EC2/DepthDuration/v2_depth_duration_MTurk/v2_DepthDuration_HTML.html#63,63,1366,768,1366,768,8-22-2022,5-10-34,132,depth_duration_stimuli/002630_2014-06-24_14-47-50_094959634447_rgbf000055-resize_1/002630_2014-06-24_14-47-50_094959634447_rgbf000055-resize_1-target.png,1000,3.0095,37,3049,952,meters,jsons/v1_VE1000_randls_24_rotated.json,1085948,2735425,28,Woman
132,101555,DepthScenes,duration_manipulation_targetAtFixation,jsons/v1_VE1000_randls_24_rotated.json,http://54.235.29.9/FacialAge/BNav_EC2/DepthDuration/v2_depth_duration_MTurk/v2_DepthDuration_HTML.html#63,63,1366,768,1366,768,8-22-2022,5-10-34,133,depth_duration_stimuli/002750_2014-06-22_19-08-03_094959634447_rgbf000094-resize_4/002750_2014-06-22_19-08-03_094959634447_rgbf000094-resize_4-target.png,1000,2.354,36,8110,1000,meters,jsons/v1_VE1000_randls_24_rotated.json,1085948,2735425,28,Woman
133,101555,DepthScenes,duration_manipulation_targetAtFixation,jsons/v1_VE1000_randls_24_rotated.json,http://54.235.29.9/FacialAge/BNav_EC2/DepthDuration/v2_depth_duration_MTurk/v2_DepthDuration_HTML.html#63,63,1366,768,1366,768,8-22-2022,5-10-34,134,depth_duration_stimuli/002549_2014-06-24_13-41-39_094959634447_rgbf000022-resize_3/002549_2014-06-24_13-41-39_094959634447_rgbf000022-resize_3-target.png,1000,1.476,28,3272,1000,meters,jsons/v1_VE1000_randls_24_rotated.json,1085948,2735425,28,Woman
134,101555,DepthScenes,duration_manipulation_targetAtFixation,jsons/v1_VE1000_randls_24_rotated.json,http://54.235.29.9/FacialAge/BNav_EC2/DepthDuration/v2_depth_duration_MTurk/v2_DepthDuration_HTML.html#63,63,1366,768,1366,768,8-22-2022,5-10-34,135,depth_duration_stimuli/000375_2014-06-08_11-17-29_260595134347_rgbf000133-resize_2/000375_2014-06-08_11-17-29_260595134347_rgbf000133-resize-original.jpg,1000,4.718,0,3155,1000,meters,jsons/v1_VE1000_randls_24_rotated.json,1085948,2735425,28,Woman
135,101555,DepthScenes,duration_manipulation_targetAtFixation,jsons/v1_VE1000_randls_24_rotated.json,http://54.235.29.9/FacialAge/BNav_EC2/DepthDuration/v2_depth_duration_MTurk/v2_DepthDuration_HTML.html#63,63,1366,768,1366,768,8-22-2022,5-10-34,136,depth_duration_stimuli/002136_2014-06-25_21-18-03_260595134347_rgbf000109-resize_3/002136_2014-06-25_21-18-03_260595134347_rgbf000109-resize_3-target.png,1000,1.9569999999999999,25,6777,999,meters,jsons/v1_VE1000_randls_24_rotated.json,1085948,2735425,28,Woman
136,101555,DepthScenes,duration_manipulation_targetAtFixation,jsons/v1_VE1000_randls_24_rotated.json,http://54.235.29.9/FacialAge/BNav_EC2/DepthDuration/v2_depth_duration_MTurk/v2_DepthDuration_HTML.html#63,63,1366,768,1366,768,8-22-2022,5-10-34,137,depth_duration_stimuli/002964_2014-06-08_17-46-11_094959634447_rgbf000091-resize_4/002964_2014-06-08_17-46-11_094959634447_rgbf000091-resize_4-target.png,1000,1.6909999999999998,20,3618,999,meters,jsons/v1_VE1000_randls_24_rotated.json,1085948,2735425,28,Woman
137,101555,DepthScenes,duration_manipulation_targetAtFixation,jsons/v1_VE1000_randls_24_rotated.json,http://54.235.29.9/FacialAge/BNav_EC2/DepthDuration/v2_depth_duration_MTurk/v2_DepthDuration_HTML.html#63,63,1366,768,1366,768,8-22-2022,5-10-34,138,depth_duration_stimuli/002953_2014-06-08_17-32-18_094959634447_rgbf000059-resize_5/002953_2014-06-08_17-32-18_094959634447_rgbf000059-resize_5-target.png,1000,1.551,22,7309,1000,meters,jsons/v1_VE1000_randls_24_rotated.json,1085948,2735425,28,Woman
138,101555,DepthScenes,duration_manipulation_targetAtFixation,jsons/v1_VE1000_randls_24_rotated.json,http://54.235.29.9/FacialAge/BNav_EC2/DepthDuration/v2_depth_duration_MTurk/v2_DepthDuration_HTML.html#63,63,1366,768,1366,768,8-22-2022,5-10-34,139,depth_duration_stimuli/000878_2014-06-08_22-52-45_260595134347_rgbf000045-resize_2/000878_2014-06-08_22-52-45_260595134347_rgbf000045-resize_2-target.png,1000,2.092,28,3940,1000,meters,jsons/v1_VE1000_randls_24_rotated.json,1085948,2735425,28,Woman
139,101555,DepthScenes,duration_manipulation_targetAtFixation,jsons/v1_VE1000_randls_24_rotated.json,http://54.235.29.9/FacialAge/BNav_EC2/DepthDuration/v2_depth_duration_MTurk/v2_DepthDuration_HTML.html#63,63,1366,768,1366,768,8-22-2022,5-10-34,140,depth_duration_stimuli/002467_2014-06-28_20-38-07_260595134347_rgbf000026-resize_2/002467_2014-06-28_20-38-07_260595134347_rgbf000026-resize_2-target.png,1000,4.742,30,6608,1000,meters,jsons/v1_VE1000_randls_24_rotated.json,1085948,2735425,28,Woman
140,101555,DepthScenes,duration_manipulation_targetAtFixation,jsons/v1_VE1000_randls_24_rotated.json,http://54.235.29.9/FacialAge/BNav_EC2/DepthDuration/v2_depth_duration_MTurk/v2_DepthDuration_HTML.html#63,63,1366,768,1366,768,8-22-2022,5-10-34,141,depth_duration_stimuli/002570_2014-06-24_13-59-54_094959634447_rgbf000059-resize_0/002570_2014-06-24_13-59-54_094959634447_rgbf000059-resize_0-target.png,1000,4.037,34,3130,1001,meters,jsons/v1_VE1000_randls_24_rotated.json,1085948,2735425,28,Woman
141,101555,DepthScenes,duration_manipulation_targetAtFixation,jsons/v1_VE1000_randls_24_rotated.json,http://54.235.29.9/FacialAge/BNav_EC2/DepthDuration/v2_depth_duration_MTurk/v2_DepthDuration_HTML.html#63,63,1366,768,1366,768,8-22-2022,5-10-34,142,depth_duration_stimuli/002344_2014-06-28_20-06-29_260595134347_rgbf000030-resize_1/002344_2014-06-28_20-06-29_260595134347_rgbf000030-resize_1-target.png,1000,1.5795,17,7030,1000,meters,jsons/v1_VE1000_randls_24_rotated.json,1085948,2735425,28,Woman
142,101555,DepthScenes,duration_manipulation_targetAtFixation,jsons/v1_VE1000_randls_24_rotated.json,http://54.235.29.9/FacialAge/BNav_EC2/DepthDuration/v2_depth_duration_MTurk/v2_DepthDuration_HTML.html#63,63,1366,768,1366,768,8-22-2022,5-10-34,143,depth_duration_stimuli/002725_2014-06-22_11-47-51_094959634447_rgbf000070-resize_1/002725_2014-06-22_11-47-51_094959634447_rgbf000070-resize_1-target.png,1000,2.195,34,3498,1001,meters,jsons/v1_VE1000_randls_24_rotated.json,1085948,2735425,28,Woman
143,101555,DepthScenes,duration_manipulation_targetAtFixation,jsons/v1_VE1000_randls_24_rotated.json,http://54.235.29.9/FacialAge/BNav_EC2/DepthDuration/v2_depth_duration_MTurk/v2_DepthDuration_HTML.html#63,63,1366,768,1366,768,8-22-2022,5-10-34,144,depth_duration_stimuli/001617_2014-06-20_11-35-32_260595134347_rgbf000066-resize_1/001617_2014-06-20_11-35-32_260595134347_rgbf000066-resize_1-target.png,1000,3.7910000000000004,38,7010,1001,meters,jsons/v1_VE1000_randls_24_rotated.json,1085948,2735425,28,Woman
144,101555,DepthScenes,duration_manipulation_targetAtFixation,jsons/v1_VE1000_randls_24_rotated.json,http://54.235.29.9/FacialAge/BNav_EC2/DepthDuration/v2_depth_duration_MTurk/v2_DepthDuration_HTML.html#63,63,1366,768,1366,768,8-22-2022,5-10-34,145,depth_duration_stimuli/001806_2014-06-26_20-50-20_260595134347_rgbf000091-resize_1/001806_2014-06-26_20-50-20_260595134347_rgbf000091-resize_1-target.png,1000,2.7305,29,3765,1002,meters,jsons/v1_VE1000_randls_24_rotated.json,1085948,2735425,28,Woman
145,101555,DepthScenes,duration_manipulation_targetAtFixation,jsons/v1_VE1000_randls_24_rotated.json,http://54.235.29.9/FacialAge/BNav_EC2/DepthDuration/v2_depth_duration_MTurk/v2_DepthDuration_HTML.html#63,63,1366,768,1366,768,8-22-2022,5-10-34,146,depth_duration_stimuli/002323_2014-06-28_20-01-54_260595134347_rgbf000051-resize_4/002323_2014-06-28_20-01-54_260595134347_rgbf000051-resize_4-target.png,1000,3.7310000000000003,36,6844,999,meters,jsons/v1_VE1000_randls_24_rotated.json,1085948,2735425,28,Woman
146,101555,DepthScenes,duration_manipulation_targetAtFixation,jsons/v1_VE1000_randls_24_rotated.json,http://54.235.29.9/FacialAge/BNav_EC2/DepthDuration/v2_depth_duration_MTurk/v2_DepthDuration_HTML.html#63,63,1366,768,1366,768,8-22-2022,5-10-34,147,depth_duration_stimuli/000917_2014-06-09_22-45-29_260595134347_rgbf000149-resize_3/000917_2014-06-09_22-45-29_260595134347_rgbf000149-resize_3-target.png,1000,4.1865,37,3460,1000,meters,jsons/v1_VE1000_randls_24_rotated.json,1085948,2735425,28,Woman
147,101555,DepthScenes,duration_manipulation_targetAtFixation,jsons/v1_VE1000_randls_24_rotated.json,http://54.235.29.9/FacialAge/BNav_EC2/DepthDuration/v2_depth_duration_MTurk/v2_DepthDuration_HTML.html#63,63,1366,768,1366,768,8-22-2022,5-10-34,148,depth_duration_stimuli/001214_2014-06-17_16-13-55_260595134347_rgbf000111-resize_0/001214_2014-06-17_16-13-55_260595134347_rgbf000111-resize_0-target.png,1000,2.6505,33,7580,1000,meters,jsons/v1_VE1000_randls_24_rotated.json,1085948,2735425,28,Woman
148,101555,DepthScenes,duration_manipulation_targetAtFixation,jsons/v1_VE1000_randls_24_rotated.json,http://54.235.29.9/FacialAge/BNav_EC2/DepthDuration/v2_depth_duration_MTurk/v2_DepthDuration_HTML.html#63,63,1366,768,1366,768,8-22-2022,5-10-34,149,depth_duration_stimuli/000810_2014-06-08_17-20-01_260595134347_rgbf000105-resize_0/000810_2014-06-08_17-20-01_260595134347_rgbf000105-resize_0-target.png,1000,1.4865,34,3148,1000,meters,jsons/v1_VE1000_randls_24_rotated.json,1085948,2735425,28,Woman
149,101555,DepthScenes,duration_manipulation_targetAtFixation,jsons/v1_VE1000_randls_24_rotated.json,http://54.235.29.9/FacialAge/BNav_EC2/DepthDuration/v2_depth_duration_MTurk/v2_DepthDuration_HTML.html#63,63,1366,768,1366,768,8-22-2022,5-10-34,150,depth_duration_stimuli/000483_2014-06-09_20-41-45_260595134347_rgbf000116-resize_4/000483_2014-06-09_20-41-45_260595134347_rgbf000116-resize_4-target.png,1000,1.337,21,5569,999,meters,jsons/v1_VE1000_randls_24_rotated.json,1085948,2735425,28,Woman
150,101555,DepthScenes,duration_manipulation_targetAtFixation,jsons/v1_VE1000_randls_24_rotated.json,http://54.235.29.9/FacialAge/BNav_EC2/DepthDuration/v2_depth_duration_MTurk/v2_DepthDuration_HTML.html#63,63,1366,768,1366,768,8-22-2022,5-10-34,151,depth_duration_stimuli/000469_2014-06-09_19-42-10_260595134347_rgbf000081-resize_1/000469_2014-06-09_19-42-10_260595134347_rgbf000081-resize_1-target.png,1000,1.652,23,3625,1000,meters,jsons/v1_VE1000_randls_24_rotated.json,1085948,2735425,28,Woman
151,101555,DepthScenes,duration_manipulation_targetAtFixation,jsons/v1_VE1000_randls_24_rotated.json,http://54.235.29.9/FacialAge/BNav_EC2/DepthDuration/v2_depth_duration_MTurk/v2_DepthDuration_HTML.html#63,63,1366,768,1366,768,8-22-2022,5-10-34,152,depth_duration_stimuli/000569_2014-06-09_22-51-47_260595134347_rgbf000141-resize_3/000569_2014-06-09_22-51-47_260595134347_rgbf000141-resize-original.jpg,1000,4.512,0,5743,997,meters,jsons/v1_VE1000_randls_24_rotated.json,1085948,2735425,28,Woman
152,101555,DepthScenes,duration_manipulation_targetAtFixation,jsons/v1_VE1000_randls_24_rotated.json,http://54.235.29.9/FacialAge/BNav_EC2/DepthDuration/v2_depth_duration_MTurk/v2_DepthDuration_HTML.html#63,63,1366,768,1366,768,8-22-2022,5-10-34,153,depth_duration_stimuli/000943_2014-06-09_19-31-07_260595134347_rgbf000128-resize_1/000943_2014-06-09_19-31-07_260595134347_rgbf000128-resize_1-target.png,1000,1.9765,25,6089,1000,meters,jsons/v1_VE1000_randls_24_rotated.json,1085948,2735425,28,Woman
153,101555,DepthScenes,duration_manipulation_targetAtFixation,jsons/v1_VE1000_randls_24_rotated.json,http://54.235.29.9/FacialAge/BNav_EC2/DepthDuration/v2_depth_duration_MTurk/v2_DepthDuration_HTML.html#63,63,1366,768,1366,768,8-22-2022,5-10-34,154,depth_duration_stimuli/003070_2014-06-15_14-58-27_094959634447_rgbf000150-resize_3/003070_2014-06-15_14-58-27_094959634447_rgbf000150-resize_3-target.png,1000,2.9415,37,3915,1001,meters,jsons/v1_VE1000_randls_24_rotated.json,1085948,2735425,28,Woman
154,101555,DepthScenes,duration_manipulation_targetAtFixation,jsons/v1_VE1000_randls_24_rotated.json,http://54.235.29.9/FacialAge/BNav_EC2/DepthDuration/v2_depth_duration_MTurk/v2_DepthDuration_HTML.html#63,63,1366,768,1366,768,8-22-2022,5-10-34,155,depth_duration_stimuli/001235_2014-06-17_16-37-36_260595134347_rgbf000084-resize_4/001235_2014-06-17_16-37-36_260595134347_rgbf000084-resize_4-target.png,1000,3.6605,38,4643,998,meters,jsons/v1_VE1000_randls_24_rotated.json,1085948,2735425,28,Woman
155,101555,DepthScenes,duration_manipulation_targetAtFixation,jsons/v1_VE1000_randls_24_rotated.json,http://54.235.29.9/FacialAge/BNav_EC2/DepthDuration/v2_depth_duration_MTurk/v2_DepthDuration_HTML.html#63,63,1366,768,1366,768,8-22-2022,5-10-34,156,depth_duration_stimuli/000788_2014-06-08_22-34-36_260595134347_rgbf000131-resize_1/000788_2014-06-08_22-34-36_260595134347_rgbf000131-resize_1-target.png,1000,3.359,35,2988,1000,meters,jsons/v1_VE1000_randls_24_rotated.json,1085948,2735425,28,Woman
156,101555,DepthScenes,duration_manipulation_targetAtFixation,jsons/v1_VE1000_randls_24_rotated.json,http://54.235.29.9/FacialAge/BNav_EC2/DepthDuration/v2_depth_duration_MTurk/v2_DepthDuration_HTML.html#63,63,1366,768,1366,768,8-22-2022,5-10-34,157,depth_duration_stimuli/000866_2014-06-09_20-45-42_260595134347_rgbf000139-resize_1/000866_2014-06-09_20-45-42_260595134347_rgbf000139-resize_1-target.png,1000,3.2155,35,5040,999,meters,jsons/v1_VE1000_randls_24_rotated.json,1085948,2735425,28,Woman
157,101555,DepthScenes,duration_manipulation_targetAtFixation,jsons/v1_VE1000_randls_24_rotated.json,http://54.235.29.9/FacialAge/BNav_EC2/DepthDuration/v2_depth_duration_MTurk/v2_DepthDuration_HTML.html#63,63,1366,768,1366,768,8-22-2022,5-10-34,158,depth_duration_stimuli/002989_2014-06-15_12-25-03_094959634447_rgbf000150-resize_3/002989_2014-06-15_12-25-03_094959634447_rgbf000150-resize_3-target.png,1000,4.1975,37,3148,999,meters,jsons/v1_VE1000_randls_24_rotated.json,1085948,2735425,28,Woman
158,101555,DepthScenes,duration_manipulation_targetAtFixation,jsons/v1_VE1000_randls_24_rotated.json,http://54.235.29.9/FacialAge/BNav_EC2/DepthDuration/v2_depth_duration_MTurk/v2_DepthDuration_HTML.html#63,63,1366,768,1366,768,8-22-2022,5-10-34,159,depth_duration_stimuli/002995_2014-06-15_12-31-26_094959634447_rgbf000150-resize_1/002995_2014-06-15_12-31-26_094959634447_rgbf000150-resize_1-target.png,1000,3.8360000000000003,38,6089,1000,meters,jsons/v1_VE1000_randls_24_rotated.json,1085948,2735425,28,Woman
159,101555,DepthScenes,duration_manipulation_targetAtFixation,jsons/v1_VE1000_randls_24_rotated.json,http://54.235.29.9/FacialAge/BNav_EC2/DepthDuration/v2_depth_duration_MTurk/v2_DepthDuration_HTML.html#63,63,1366,768,1366,768,8-22-2022,5-10-34,160,depth_duration_stimuli/002748_2014-06-22_19-07-22_094959634447_rgbf000078-resize_1/002748_2014-06-22_19-07-22_094959634447_rgbf000078-resize_1-target.png,1000,4.6705,39,3022,950,meters,jsons/v1_VE1000_randls_24_rotated.json,1085948,2735425,28,Woman
160,101555,DepthScenes,duration_manipulation_targetAtFixation,jsons/v1_VE1000_randls_24_rotated.json,http://54.235.29.9/FacialAge/BNav_EC2/DepthDuration/v2_depth_duration_MTurk/v2_DepthDuration_HTML.html#63,63,1366,768,1366,768,8-22-2022,5-10-34,161,depth_duration_stimuli/002209_2014-06-28_18-36-10_260595134347_rgbf000051-resize_1/002209_2014-06-28_18-36-10_260595134347_rgbf000051-resize_1-target.png,1000,2.057,28,6467,1001,meters,jsons/v1_VE1000_randls_24_rotated.json,1085948,2735425,28,Woman
161,101555,DepthScenes,duration_manipulation_targetAtFixation,jsons/v1_VE1000_randls_24_rotated.json,http://54.235.29.9/FacialAge/BNav_EC2/DepthDuration/v2_depth_duration_MTurk/v2_DepthDuration_HTML.html#63,63,1366,768,1366,768,8-22-2022,5-10-34,162,depth_duration_stimuli/002763_2014-06-22_19-13-10_094959634447_rgbf000075-resize_4/002763_2014-06-22_19-13-10_094959634447_rgbf000075-resize_4-target.png,1000,1.68375,27,2956,1000,meters,jsons/v1_VE1000_randls_24_rotated.json,1085948,2735425,28,Woman
162,101555,DepthScenes,duration_manipulation_targetAtFixation,jsons/v1_VE1000_randls_24_rotated.json,http://54.235.29.9/FacialAge/BNav_EC2/DepthDuration/v2_depth_duration_MTurk/v2_DepthDuration_HTML.html#63,63,1366,768,1366,768,8-22-2022,5-10-34,163,depth_duration_stimuli/002660_2014-06-13_15-44-18_094959634447_rgbf001878-resize_2/002660_2014-06-13_15-44-18_094959634447_rgbf001878-resize_2-target.png,1000,3.576,34,5355,1001,meters,jsons/v1_VE1000_randls_24_rotated.json,1085948,2735425,28,Woman
163,101555,DepthScenes,duration_manipulation_targetAtFixation,jsons/v1_VE1000_randls_24_rotated.json,http://54.235.29.9/FacialAge/BNav_EC2/DepthDuration/v2_depth_duration_MTurk/v2_DepthDuration_HTML.html#63,63,1366,768,1366,768,8-22-2022,5-10-34,164,depth_duration_stimuli/002153_2014-06-25_21-27-18_260595134347_rgbf000038-resize_5/002153_2014-06-25_21-27-18_260595134347_rgbf000038-resize_5-target.png,1000,2.505,30,3574,1000,meters,jsons/v1_VE1000_randls_24_rotated.json,1085948,2735425,28,Woman
