,subjID,experimentName,versionName,sequenceName,url,selected_row,windowWidth,windowHeight,screenWidth,screenHeight,startDate,startTime,trial,stimulus,duration,actual_depth,depth_estimate,trial_RT,log_sceneDuration,unitSelection,seq_filepath,experimentTime,totalTime,age,gender
0,102457,DepthScenes,duration_manipulation_targetAtFixation,jsons/VE125_randls_60_rotated.json,http://54.235.29.9/FacialAge/BNav_EC2/DepthDuration/v2_depth_duration_MTurk/v2_DepthDuration_HTML.html#333,333,1920,937,1920,1080,8-29-2022,11-37-27,1,depth_duration_stimuli/001032_2014-06-08_13-23-17_260595134347_rgbf000021-resize_3/001032_2014-06-08_13-23-17_260595134347_rgbf000021-resize_3-target.png,125,3.2725,8,6310,109,feet,jsons/VE125_randls_60_rotated.json,598754,726021,40,Woman
1,102457,DepthScenes,duration_manipulation_targetAtFixation,jsons/VE125_randls_60_rotated.json,http://54.235.29.9/FacialAge/BNav_EC2/DepthDuration/v2_depth_duration_MTurk/v2_DepthDuration_HTML.html#333,333,1920,937,1920,1080,8-29-2022,11-37-27,2,depth_duration_stimuli/001059_2014-06-08_21-53-27_260595134347_rgbf000061-resize_4/001059_2014-06-08_21-53-27_260595134347_rgbf000061-resize_4-target.png,125,2.4185,6,7865,125,feet,jsons/VE125_randls_60_rotated.json,598754,726021,40,Woman
2,102457,DepthScenes,duration_manipulation_targetAtFixation,jsons/VE125_randls_60_rotated.json,http://54.235.29.9/FacialAge/BNav_EC2/DepthDuration/v2_depth_duration_MTurk/v2_DepthDuration_HTML.html#333,333,1920,937,1920,1080,8-29-2022,11-37-27,3,depth_duration_stimuli/003083_2014-06-15_15-21-03_094959634447_rgbf000063-resize_1/003083_2014-06-15_15-21-03_094959634447_rgbf000063-resize_1-target.png,125,4.1405,12,3207,125,feet,jsons/VE125_randls_60_rotated.json,598754,726021,40,Woman
3,102457,DepthScenes,duration_manipulation_targetAtFixation,jsons/VE125_randls_60_rotated.json,http://54.235.29.9/FacialAge/BNav_EC2/DepthDuration/v2_depth_duration_MTurk/v2_DepthDuration_HTML.html#333,333,1920,937,1920,1080,8-29-2022,11-37-27,4,depth_duration_stimuli/000486_2014-06-09_20-47-20_260595134347_rgbf000143-resize_2/000486_2014-06-09_20-47-20_260595134347_rgbf000143-resize_2-target.png,125,4.8325,5,3042,123,feet,jsons/VE125_randls_60_rotated.json,598754,726021,40,Woman
4,102457,DepthScenes,duration_manipulation_targetAtFixation,jsons/VE125_randls_60_rotated.json,http://54.235.29.9/FacialAge/BNav_EC2/DepthDuration/v2_depth_duration_MTurk/v2_DepthDuration_HTML.html#333,333,1920,937,1920,1080,8-29-2022,11-37-27,5,depth_duration_stimuli/000709_2014-06-08_13-51-55_260595134347_rgbf000068-resize_3/000709_2014-06-08_13-51-55_260595134347_rgbf000068-resize_3-target.png,125,1.8030000000000002,4,2850,139,feet,jsons/VE125_randls_60_rotated.json,598754,726021,40,Woman
5,102457,DepthScenes,duration_manipulation_targetAtFixation,jsons/VE125_randls_60_rotated.json,http://54.235.29.9/FacialAge/BNav_EC2/DepthDuration/v2_depth_duration_MTurk/v2_DepthDuration_HTML.html#333,333,1920,937,1920,1080,8-29-2022,11-37-27,6,depth_duration_stimuli/002057_2014-06-24_21-00-13_260595134347_rgbf000120-resize_1/002057_2014-06-24_21-00-13_260595134347_rgbf000120-resize_1-target.png,125,2.967,8,7252,124,feet,jsons/VE125_randls_60_rotated.json,598754,726021,40,Woman
6,102457,DepthScenes,duration_manipulation_targetAtFixation,jsons/VE125_randls_60_rotated.json,http://54.235.29.9/FacialAge/BNav_EC2/DepthDuration/v2_depth_duration_MTurk/v2_DepthDuration_HTML.html#333,333,1920,937,1920,1080,8-29-2022,11-37-27,7,depth_duration_stimuli/001214_2014-06-17_16-13-55_260595134347_rgbf000111-resize_0/001214_2014-06-17_16-13-55_260595134347_rgbf000111-resize_0-target.png,125,2.6505,5,2605,112,feet,jsons/VE125_randls_60_rotated.json,598754,726021,40,Woman
7,102457,DepthScenes,duration_manipulation_targetAtFixation,jsons/VE125_randls_60_rotated.json,http://54.235.29.9/FacialAge/BNav_EC2/DepthDuration/v2_depth_duration_MTurk/v2_DepthDuration_HTML.html#333,333,1920,937,1920,1080,8-29-2022,11-37-27,8,depth_duration_stimuli/000810_2014-06-08_17-20-01_260595134347_rgbf000105-resize_0/000810_2014-06-08_17-20-01_260595134347_rgbf000105-resize_0-target.png,125,1.4865,4,2671,125,feet,jsons/VE125_randls_60_rotated.json,598754,726021,40,Woman
8,102457,DepthScenes,duration_manipulation_targetAtFixation,jsons/VE125_randls_60_rotated.json,http://54.235.29.9/FacialAge/BNav_EC2/DepthDuration/v2_depth_duration_MTurk/v2_DepthDuration_HTML.html#333,333,1920,937,1920,1080,8-29-2022,11-37-27,9,depth_duration_stimuli/003048_2014-06-15_13-49-43_094959634447_rgbf000150-resize_1/003048_2014-06-15_13-49-43_094959634447_rgbf000150-resize_1-target.png,125,4.0035,12,2775,124,feet,jsons/VE125_randls_60_rotated.json,598754,726021,40,Woman
9,102457,DepthScenes,duration_manipulation_targetAtFixation,jsons/VE125_randls_60_rotated.json,http://54.235.29.9/FacialAge/BNav_EC2/DepthDuration/v2_depth_duration_MTurk/v2_DepthDuration_HTML.html#333,333,1920,937,1920,1080,8-29-2022,11-37-27,10,depth_duration_stimuli/002043_2014-06-24_20-29-38_260595134347_rgbf000039-resize_4/002043_2014-06-24_20-29-38_260595134347_rgbf000039-resize_4-target.png,125,2.8435,6,2749,125,feet,jsons/VE125_randls_60_rotated.json,598754,726021,40,Woman
10,102457,DepthScenes,duration_manipulation_targetAtFixation,jsons/VE125_randls_60_rotated.json,http://54.235.29.9/FacialAge/BNav_EC2/DepthDuration/v2_depth_duration_MTurk/v2_DepthDuration_HTML.html#333,333,1920,937,1920,1080,8-29-2022,11-37-27,11,depth_duration_stimuli/001136_2014-06-17_15-19-41_260595134347_rgbf000076-resize_3/001136_2014-06-17_15-19-41_260595134347_rgbf000076-resize_3-target.png,125,1.8655,5,2955,125,feet,jsons/VE125_randls_60_rotated.json,598754,726021,40,Woman
11,102457,DepthScenes,duration_manipulation_targetAtFixation,jsons/VE125_randls_60_rotated.json,http://54.235.29.9/FacialAge/BNav_EC2/DepthDuration/v2_depth_duration_MTurk/v2_DepthDuration_HTML.html#333,333,1920,937,1920,1080,8-29-2022,11-37-27,12,depth_duration_stimuli/001164_2014-06-17_15-35-46_260595134347_rgbf000085-resize_3/001164_2014-06-17_15-35-46_260595134347_rgbf000085-resize_3-target.png,125,2.354,4,2967,125,feet,jsons/VE125_randls_60_rotated.json,598754,726021,40,Woman
12,102457,DepthScenes,duration_manipulation_targetAtFixation,jsons/VE125_randls_60_rotated.json,http://54.235.29.9/FacialAge/BNav_EC2/DepthDuration/v2_depth_duration_MTurk/v2_DepthDuration_HTML.html#333,333,1920,937,1920,1080,8-29-2022,11-37-27,13,depth_duration_stimuli/000483_2014-06-09_20-41-45_260595134347_rgbf000116-resize_4/000483_2014-06-09_20-41-45_260595134347_rgbf000116-resize_4-target.png,125,1.337,2,2308,122,feet,jsons/VE125_randls_60_rotated.json,598754,726021,40,Woman
13,102457,DepthScenes,duration_manipulation_targetAtFixation,jsons/VE125_randls_60_rotated.json,http://54.235.29.9/FacialAge/BNav_EC2/DepthDuration/v2_depth_duration_MTurk/v2_DepthDuration_HTML.html#333,333,1920,937,1920,1080,8-29-2022,11-37-27,14,depth_duration_stimuli/000469_2014-06-09_19-42-10_260595134347_rgbf000081-resize_1/000469_2014-06-09_19-42-10_260595134347_rgbf000081-resize_1-target.png,125,1.652,2,2256,125,feet,jsons/VE125_randls_60_rotated.json,598754,726021,40,Woman
14,102457,DepthScenes,duration_manipulation_targetAtFixation,jsons/VE125_randls_60_rotated.json,http://54.235.29.9/FacialAge/BNav_EC2/DepthDuration/v2_depth_duration_MTurk/v2_DepthDuration_HTML.html#333,333,1920,937,1920,1080,8-29-2022,11-37-27,15,depth_duration_stimuli/002414_2014-06-28_20-24-58_260595134347_rgbf000067-resize_4/002414_2014-06-28_20-24-58_260595134347_rgbf000067-resize_4-target.png,125,4.363,5,3314,125,feet,jsons/VE125_randls_60_rotated.json,598754,726021,40,Woman
15,102457,DepthScenes,duration_manipulation_targetAtFixation,jsons/VE125_randls_60_rotated.json,http://54.235.29.9/FacialAge/BNav_EC2/DepthDuration/v2_depth_duration_MTurk/v2_DepthDuration_HTML.html#333,333,1920,937,1920,1080,8-29-2022,11-37-27,16,depth_duration_stimuli/000773_2014-06-08_22-24-54_260595134347_rgbf000093-resize_1/000773_2014-06-08_22-24-54_260595134347_rgbf000093-resize_1-target.png,125,4.973,7,2974,133,feet,jsons/VE125_randls_60_rotated.json,598754,726021,40,Woman
16,102457,DepthScenes,duration_manipulation_targetAtFixation,jsons/VE125_randls_60_rotated.json,http://54.235.29.9/FacialAge/BNav_EC2/DepthDuration/v2_depth_duration_MTurk/v2_DepthDuration_HTML.html#333,333,1920,937,1920,1080,8-29-2022,11-37-27,17,depth_duration_stimuli/001392_2014-06-19_16-07-59_260595134347_rgbf000046-resize_1/001392_2014-06-19_16-07-59_260595134347_rgbf000046-resize_1-target.png,125,4.135,6,2724,126,feet,jsons/VE125_randls_60_rotated.json,598754,726021,40,Woman
17,102457,DepthScenes,duration_manipulation_targetAtFixation,jsons/VE125_randls_60_rotated.json,http://54.235.29.9/FacialAge/BNav_EC2/DepthDuration/v2_depth_duration_MTurk/v2_DepthDuration_HTML.html#333,333,1920,937,1920,1080,8-29-2022,11-37-27,18,depth_duration_stimuli/001570_2014-06-20_17-21-09_260595134347_rgbf000135-resize_4/001570_2014-06-20_17-21-09_260595134347_rgbf000135-resize_4-target.png,125,4.467,6,2514,126,feet,jsons/VE125_randls_60_rotated.json,598754,726021,40,Woman
18,102457,DepthScenes,duration_manipulation_targetAtFixation,jsons/VE125_randls_60_rotated.json,http://54.235.29.9/FacialAge/BNav_EC2/DepthDuration/v2_depth_duration_MTurk/v2_DepthDuration_HTML.html#333,333,1920,937,1920,1080,8-29-2022,11-37-27,19,depth_duration_stimuli/001498_2014-06-19_17-45-14_260595134347_rgbf000129-resize_4/001498_2014-06-19_17-45-14_260595134347_rgbf000129-resize-original.jpg,125,1.4075,0,2571,139,feet,jsons/VE125_randls_60_rotated.json,598754,726021,40,Woman
19,102457,DepthScenes,duration_manipulation_targetAtFixation,jsons/VE125_randls_60_rotated.json,http://54.235.29.9/FacialAge/BNav_EC2/DepthDuration/v2_depth_duration_MTurk/v2_DepthDuration_HTML.html#333,333,1920,937,1920,1080,8-29-2022,11-37-27,20,depth_duration_stimuli/002639_2014-06-24_14-51-37_094959634447_rgbf000074-resize_4/002639_2014-06-24_14-51-37_094959634447_rgbf000074-resize_4-target.png,125,4.0375,3,3276,125,feet,jsons/VE125_randls_60_rotated.json,598754,726021,40,Woman
20,102457,DepthScenes,duration_manipulation_targetAtFixation,jsons/VE125_randls_60_rotated.json,http://54.235.29.9/FacialAge/BNav_EC2/DepthDuration/v2_depth_duration_MTurk/v2_DepthDuration_HTML.html#333,333,1920,937,1920,1080,8-29-2022,11-37-27,21,depth_duration_stimuli/003292_2014-05-14_21-53-49_094959634447_rgbf000100-resize_2/003292_2014-05-14_21-53-49_094959634447_rgbf000100-resize_2-target.png,125,3.4815,4,2877,124,feet,jsons/VE125_randls_60_rotated.json,598754,726021,40,Woman
21,102457,DepthScenes,duration_manipulation_targetAtFixation,jsons/VE125_randls_60_rotated.json,http://54.235.29.9/FacialAge/BNav_EC2/DepthDuration/v2_depth_duration_MTurk/v2_DepthDuration_HTML.html#333,333,1920,937,1920,1080,8-29-2022,11-37-27,22,depth_duration_stimuli/000635_2014-06-08_16-38-42_260595134347_rgbf000106-resize_1/000635_2014-06-08_16-38-42_260595134347_rgbf000106-resize_1-target.png,125,2.074,3,2404,113,feet,jsons/VE125_randls_60_rotated.json,598754,726021,40,Woman
22,102457,DepthScenes,duration_manipulation_targetAtFixation,jsons/VE125_randls_60_rotated.json,http://54.235.29.9/FacialAge/BNav_EC2/DepthDuration/v2_depth_duration_MTurk/v2_DepthDuration_HTML.html#333,333,1920,937,1920,1080,8-29-2022,11-37-27,23,depth_duration_stimuli/002279_2014-06-28_18-55-32_260595134347_rgbf000040-resize_5/002279_2014-06-28_18-55-32_260595134347_rgbf000040-resize_5-target.png,125,1.5043333333333,2,2392,125,feet,jsons/VE125_randls_60_rotated.json,598754,726021,40,Woman
23,102457,DepthScenes,duration_manipulation_targetAtFixation,jsons/VE125_randls_60_rotated.json,http://54.235.29.9/FacialAge/BNav_EC2/DepthDuration/v2_depth_duration_MTurk/v2_DepthDuration_HTML.html#333,333,1920,937,1920,1080,8-29-2022,11-37-27,24,depth_duration_stimuli/000742_2014-06-08_18-48-09_260595134347_rgbf000164-resize_4/000742_2014-06-08_18-48-09_260595134347_rgbf000164-resize_4-target.png,125,4.632,6,3209,125,feet,jsons/VE125_randls_60_rotated.json,598754,726021,40,Woman
24,102457,DepthScenes,duration_manipulation_targetAtFixation,jsons/VE125_randls_60_rotated.json,http://54.235.29.9/FacialAge/BNav_EC2/DepthDuration/v2_depth_duration_MTurk/v2_DepthDuration_HTML.html#333,333,1920,937,1920,1080,8-29-2022,11-37-27,25,depth_duration_stimuli/001066_2014-06-08_22-03-20_260595134347_rgbf000066-resize_4/001066_2014-06-08_22-03-20_260595134347_rgbf000066-resize_4-target.png,125,4.2330000000000005,8,3412,127,feet,jsons/VE125_randls_60_rotated.json,598754,726021,40,Woman
25,102457,DepthScenes,duration_manipulation_targetAtFixation,jsons/VE125_randls_60_rotated.json,http://54.235.29.9/FacialAge/BNav_EC2/DepthDuration/v2_depth_duration_MTurk/v2_DepthDuration_HTML.html#333,333,1920,937,1920,1080,8-29-2022,11-37-27,26,depth_duration_stimuli/003423_2014-05-21_10-23-26_094959634447_rgbf002665-resize_2/003423_2014-05-21_10-23-26_094959634447_rgbf002665-resize_2-target.png,125,3.2575,6,2500,124,feet,jsons/VE125_randls_60_rotated.json,598754,726021,40,Woman
26,102457,DepthScenes,duration_manipulation_targetAtFixation,jsons/VE125_randls_60_rotated.json,http://54.235.29.9/FacialAge/BNav_EC2/DepthDuration/v2_depth_duration_MTurk/v2_DepthDuration_HTML.html#333,333,1920,937,1920,1080,8-29-2022,11-37-27,27,depth_duration_stimuli/002905_2014-06-03_18-04-43_094959634447_rgbf000151-resize_2/002905_2014-06-03_18-04-43_094959634447_rgbf000151-resize_2-target.png,125,2.0295,2,2304,125,feet,jsons/VE125_randls_60_rotated.json,598754,726021,40,Woman
27,102457,DepthScenes,duration_manipulation_targetAtFixation,jsons/VE125_randls_60_rotated.json,http://54.235.29.9/FacialAge/BNav_EC2/DepthDuration/v2_depth_duration_MTurk/v2_DepthDuration_HTML.html#333,333,1920,937,1920,1080,8-29-2022,11-37-27,28,depth_duration_stimuli/001828_2014-06-26_21-40-03_260595134347_rgbf000024-resize_0/001828_2014-06-26_21-40-03_260595134347_rgbf000024-resize_0-target.png,125,4.8260000000000005,10,3100,125,feet,jsons/VE125_randls_60_rotated.json,598754,726021,40,Woman
28,102457,DepthScenes,duration_manipulation_targetAtFixation,jsons/VE125_randls_60_rotated.json,http://54.235.29.9/FacialAge/BNav_EC2/DepthDuration/v2_depth_duration_MTurk/v2_DepthDuration_HTML.html#333,333,1920,937,1920,1080,8-29-2022,11-37-27,29,depth_duration_stimuli/000009_2014-05-26_14-32-05_260595134347_rgbf000034-resize_3/000009_2014-05-26_14-32-05_260595134347_rgbf000034-resize_3-target.png,125,3.8715,12,3206,127,feet,jsons/VE125_randls_60_rotated.json,598754,726021,40,Woman
29,102457,DepthScenes,duration_manipulation_targetAtFixation,jsons/VE125_randls_60_rotated.json,http://54.235.29.9/FacialAge/BNav_EC2/DepthDuration/v2_depth_duration_MTurk/v2_DepthDuration_HTML.html#333,333,1920,937,1920,1080,8-29-2022,11-37-27,30,depth_duration_stimuli/002072_2014-06-24_21-48-06_260595134347_rgbf000115-resize_0/002072_2014-06-24_21-48-06_260595134347_rgbf000115-resize-original.jpg,125,4.702,0,1726,125,feet,jsons/VE125_randls_60_rotated.json,598754,726021,40,Woman
30,102457,DepthScenes,duration_manipulation_targetAtFixation,jsons/VE125_randls_60_rotated.json,http://54.235.29.9/FacialAge/BNav_EC2/DepthDuration/v2_depth_duration_MTurk/v2_DepthDuration_HTML.html#333,333,1920,937,1920,1080,8-29-2022,11-37-27,31,depth_duration_stimuli/002444_2014-06-28_20-32-08_260595134347_rgbf000027-resize_0/002444_2014-06-28_20-32-08_260595134347_rgbf000027-resize_0-target.png,125,4.388999999999999,6,2816,123,feet,jsons/VE125_randls_60_rotated.json,598754,726021,40,Woman
31,102457,DepthScenes,duration_manipulation_targetAtFixation,jsons/VE125_randls_60_rotated.json,http://54.235.29.9/FacialAge/BNav_EC2/DepthDuration/v2_depth_duration_MTurk/v2_DepthDuration_HTML.html#333,333,1920,937,1920,1080,8-29-2022,11-37-27,32,depth_duration_stimuli/000436_2014-06-09_22-25-11_260595134347_rgbf000137-resize_1/000436_2014-06-09_22-25-11_260595134347_rgbf000137-resize_1-target.png,125,4.0705,10,3581,140,feet,jsons/VE125_randls_60_rotated.json,598754,726021,40,Woman
32,102457,DepthScenes,duration_manipulation_targetAtFixation,jsons/VE125_randls_60_rotated.json,http://54.235.29.9/FacialAge/BNav_EC2/DepthDuration/v2_depth_duration_MTurk/v2_DepthDuration_HTML.html#333,333,1920,937,1920,1080,8-29-2022,11-37-27,33,depth_duration_stimuli/000927_2014-06-09_16-32-30_260595134347_rgbf000123-resize_3/000927_2014-06-09_16-32-30_260595134347_rgbf000123-resize_3-target.png,125,2.6785,8,4329,121,feet,jsons/VE125_randls_60_rotated.json,598754,726021,40,Woman
33,102457,DepthScenes,duration_manipulation_targetAtFixation,jsons/VE125_randls_60_rotated.json,http://54.235.29.9/FacialAge/BNav_EC2/DepthDuration/v2_depth_duration_MTurk/v2_DepthDuration_HTML.html#333,333,1920,937,1920,1080,8-29-2022,11-37-27,34,depth_duration_stimuli/001110_2014-06-15_17-25-28_260595134347_rgbf000150-resize_1/001110_2014-06-15_17-25-28_260595134347_rgbf000150-resize_1-target.png,125,1.7115,4,2613,127,feet,jsons/VE125_randls_60_rotated.json,598754,726021,40,Woman
34,102457,DepthScenes,duration_manipulation_targetAtFixation,jsons/VE125_randls_60_rotated.json,http://54.235.29.9/FacialAge/BNav_EC2/DepthDuration/v2_depth_duration_MTurk/v2_DepthDuration_HTML.html#333,333,1920,937,1920,1080,8-29-2022,11-37-27,35,depth_duration_stimuli/003495_2014-05-21_16-01-51_094959634447_rgbf000100-resize_3/003495_2014-05-21_16-01-51_094959634447_rgbf000100-resize_3-target.png,125,1.6255,2,2396,125,feet,jsons/VE125_randls_60_rotated.json,598754,726021,40,Woman
35,102457,DepthScenes,duration_manipulation_targetAtFixation,jsons/VE125_randls_60_rotated.json,http://54.235.29.9/FacialAge/BNav_EC2/DepthDuration/v2_depth_duration_MTurk/v2_DepthDuration_HTML.html#333,333,1920,937,1920,1080,8-29-2022,11-37-27,36,depth_duration_stimuli/001244_2014-06-17_16-47-45_260595134347_rgbf000030-resize_4/001244_2014-06-17_16-47-45_260595134347_rgbf000030-resize_4-target.png,125,2.0425,4,2518,124,feet,jsons/VE125_randls_60_rotated.json,598754,726021,40,Woman
36,102457,DepthScenes,duration_manipulation_targetAtFixation,jsons/VE125_randls_60_rotated.json,http://54.235.29.9/FacialAge/BNav_EC2/DepthDuration/v2_depth_duration_MTurk/v2_DepthDuration_HTML.html#333,333,1920,937,1920,1080,8-29-2022,11-37-27,37,depth_duration_stimuli/001815_2014-06-26_20-52-55_260595134347_rgbf000020-resize_0/001815_2014-06-26_20-52-55_260595134347_rgbf000020-resize_0-target.png,125,3.3865,14,5023,123,feet,jsons/VE125_randls_60_rotated.json,598754,726021,40,Woman
37,102457,DepthScenes,duration_manipulation_targetAtFixation,jsons/VE125_randls_60_rotated.json,http://54.235.29.9/FacialAge/BNav_EC2/DepthDuration/v2_depth_duration_MTurk/v2_DepthDuration_HTML.html#333,333,1920,937,1920,1080,8-29-2022,11-37-27,38,depth_duration_stimuli/001808_2014-06-26_20-50-58_260595134347_rgbf000029-resize_1/001808_2014-06-26_20-50-58_260595134347_rgbf000029-resize_1-target.png,125,4.249,12,2529,125,feet,jsons/VE125_randls_60_rotated.json,598754,726021,40,Woman
38,102457,DepthScenes,duration_manipulation_targetAtFixation,jsons/VE125_randls_60_rotated.json,http://54.235.29.9/FacialAge/BNav_EC2/DepthDuration/v2_depth_duration_MTurk/v2_DepthDuration_HTML.html#333,333,1920,937,1920,1080,8-29-2022,11-37-27,39,depth_duration_stimuli/001052_2014-06-08_18-24-54_260595134347_rgbf000130-resize_1/001052_2014-06-08_18-24-54_260595134347_rgbf000130-resize_1-target.png,125,4.1045,8,2607,124,feet,jsons/VE125_randls_60_rotated.json,598754,726021,40,Woman
39,102457,DepthScenes,duration_manipulation_targetAtFixation,jsons/VE125_randls_60_rotated.json,http://54.235.29.9/FacialAge/BNav_EC2/DepthDuration/v2_depth_duration_MTurk/v2_DepthDuration_HTML.html#333,333,1920,937,1920,1080,8-29-2022,11-37-27,40,depth_duration_stimuli/002988_2014-06-15_12-24-20_094959634447_rgbf000150-resize_1/002988_2014-06-15_12-24-20_094959634447_rgbf000150-resize_1-target.png,125,4.7669999999999995,10,4722,125,feet,jsons/VE125_randls_60_rotated.json,598754,726021,40,Woman
40,102457,DepthScenes,duration_manipulation_targetAtFixation,jsons/VE125_randls_60_rotated.json,http://54.235.29.9/FacialAge/BNav_EC2/DepthDuration/v2_depth_duration_MTurk/v2_DepthDuration_HTML.html#333,333,1920,937,1920,1080,8-29-2022,11-37-27,41,depth_duration_stimuli/001571_2014-06-20_17-21-32_260595134347_rgbf000089-resize_1/001571_2014-06-20_17-21-32_260595134347_rgbf000089-resize_1-target.png,125,1.86,2,2221,122,feet,jsons/VE125_randls_60_rotated.json,598754,726021,40,Woman
41,102457,DepthScenes,duration_manipulation_targetAtFixation,jsons/VE125_randls_60_rotated.json,http://54.235.29.9/FacialAge/BNav_EC2/DepthDuration/v2_depth_duration_MTurk/v2_DepthDuration_HTML.html#333,333,1920,937,1920,1080,8-29-2022,11-37-27,42,depth_duration_stimuli/002272_2014-06-28_18-53-56_260595134347_rgbf000067-resize_2/002272_2014-06-28_18-53-56_260595134347_rgbf000067-resize_2-target.png,125,1.138,2,2543,127,feet,jsons/VE125_randls_60_rotated.json,598754,726021,40,Woman
42,102457,DepthScenes,duration_manipulation_targetAtFixation,jsons/VE125_randls_60_rotated.json,http://54.235.29.9/FacialAge/BNav_EC2/DepthDuration/v2_depth_duration_MTurk/v2_DepthDuration_HTML.html#333,333,1920,937,1920,1080,8-29-2022,11-37-27,43,depth_duration_stimuli/002678_2014-06-13_16-15-32_094959634447_rgbf000151-resize_6/002678_2014-06-13_16-15-32_094959634447_rgbf000151-resize_6-target.png,125,2.1830000000000003,6,2724,115,feet,jsons/VE125_randls_60_rotated.json,598754,726021,40,Woman
43,102457,DepthScenes,duration_manipulation_targetAtFixation,jsons/VE125_randls_60_rotated.json,http://54.235.29.9/FacialAge/BNav_EC2/DepthDuration/v2_depth_duration_MTurk/v2_DepthDuration_HTML.html#333,333,1920,937,1920,1080,8-29-2022,11-37-27,44,depth_duration_stimuli/000368_2014-06-09_15-53-01_260595134347_rgbf000155-resize_2/000368_2014-06-09_15-53-01_260595134347_rgbf000155-resize_2-target.png,125,2.4859999999999998,4,2901,127,feet,jsons/VE125_randls_60_rotated.json,598754,726021,40,Woman
44,102457,DepthScenes,duration_manipulation_targetAtFixation,jsons/VE125_randls_60_rotated.json,http://54.235.29.9/FacialAge/BNav_EC2/DepthDuration/v2_depth_duration_MTurk/v2_DepthDuration_HTML.html#333,333,1920,937,1920,1080,8-29-2022,11-37-27,45,depth_duration_stimuli/001650_2014-06-20_12-09-00_260595134347_rgbf000087-resize_3/001650_2014-06-20_12-09-00_260595134347_rgbf000087-resize_3-target.png,125,1.9505,2,2557,124,feet,jsons/VE125_randls_60_rotated.json,598754,726021,40,Woman
45,102457,DepthScenes,duration_manipulation_targetAtFixation,jsons/VE125_randls_60_rotated.json,http://54.235.29.9/FacialAge/BNav_EC2/DepthDuration/v2_depth_duration_MTurk/v2_DepthDuration_HTML.html#333,333,1920,937,1920,1080,8-29-2022,11-37-27,46,depth_duration_stimuli/000682_2014-06-08_23-14-58_260595134347_rgbf000041-resize_5/000682_2014-06-08_23-14-58_260595134347_rgbf000041-resize_5-target.png,125,2.7239999999999998,4,3026,124,feet,jsons/VE125_randls_60_rotated.json,598754,726021,40,Woman
46,102457,DepthScenes,duration_manipulation_targetAtFixation,jsons/VE125_randls_60_rotated.json,http://54.235.29.9/FacialAge/BNav_EC2/DepthDuration/v2_depth_duration_MTurk/v2_DepthDuration_HTML.html#333,333,1920,937,1920,1080,8-29-2022,11-37-27,47,depth_duration_stimuli/000943_2014-06-09_19-31-07_260595134347_rgbf000128-resize_1/000943_2014-06-09_19-31-07_260595134347_rgbf000128-resize_1-target.png,125,1.9765,2,2423,129,feet,jsons/VE125_randls_60_rotated.json,598754,726021,40,Woman
47,102457,DepthScenes,duration_manipulation_targetAtFixation,jsons/VE125_randls_60_rotated.json,http://54.235.29.9/FacialAge/BNav_EC2/DepthDuration/v2_depth_duration_MTurk/v2_DepthDuration_HTML.html#333,333,1920,937,1920,1080,8-29-2022,11-37-27,48,depth_duration_stimuli/003070_2014-06-15_14-58-27_094959634447_rgbf000150-resize_3/003070_2014-06-15_14-58-27_094959634447_rgbf000150-resize_3-target.png,125,2.9415,6,2929,125,feet,jsons/VE125_randls_60_rotated.json,598754,726021,40,Woman
48,102457,DepthScenes,duration_manipulation_targetAtFixation,jsons/VE125_randls_60_rotated.json,http://54.235.29.9/FacialAge/BNav_EC2/DepthDuration/v2_depth_duration_MTurk/v2_DepthDuration_HTML.html#333,333,1920,937,1920,1080,8-29-2022,11-37-27,49,depth_duration_stimuli/001170_2014-06-17_15-43-44_260595134347_rgbf000096-resize_6/001170_2014-06-17_15-43-44_260595134347_rgbf000096-resize-original.jpg,125,1.1909999999999998,0,2052,125,feet,jsons/VE125_randls_60_rotated.json,598754,726021,40,Woman
49,102457,DepthScenes,duration_manipulation_targetAtFixation,jsons/VE125_randls_60_rotated.json,http://54.235.29.9/FacialAge/BNav_EC2/DepthDuration/v2_depth_duration_MTurk/v2_DepthDuration_HTML.html#333,333,1920,937,1920,1080,8-29-2022,11-37-27,50,depth_duration_stimuli/000677_2014-06-08_23-10-32_260595134347_rgbf000158-resize_6/000677_2014-06-08_23-10-32_260595134347_rgbf000158-resize_6-target.png,125,3.556,4,2904,124,feet,jsons/VE125_randls_60_rotated.json,598754,726021,40,Woman
50,102457,DepthScenes,duration_manipulation_targetAtFixation,jsons/VE125_randls_60_rotated.json,http://54.235.29.9/FacialAge/BNav_EC2/DepthDuration/v2_depth_duration_MTurk/v2_DepthDuration_HTML.html#333,333,1920,937,1920,1080,8-29-2022,11-37-27,51,depth_duration_stimuli/001029_2014-06-08_13-17-57_260595134347_rgbf000065-resize_1/001029_2014-06-08_13-17-57_260595134347_rgbf000065-resize_1-target.png,125,3.0835,8,2541,128,feet,jsons/VE125_randls_60_rotated.json,598754,726021,40,Woman
51,102457,DepthScenes,duration_manipulation_targetAtFixation,jsons/VE125_randls_60_rotated.json,http://54.235.29.9/FacialAge/BNav_EC2/DepthDuration/v2_depth_duration_MTurk/v2_DepthDuration_HTML.html#333,333,1920,937,1920,1080,8-29-2022,11-37-27,52,depth_duration_stimuli/002340_2014-06-28_20-05-46_260595134347_rgbf000113-resize_0/002340_2014-06-28_20-05-46_260595134347_rgbf000113-resize_0-target.png,125,2.4735,10,3430,126,feet,jsons/VE125_randls_60_rotated.json,598754,726021,40,Woman
52,102457,DepthScenes,duration_manipulation_targetAtFixation,jsons/VE125_randls_60_rotated.json,http://54.235.29.9/FacialAge/BNav_EC2/DepthDuration/v2_depth_duration_MTurk/v2_DepthDuration_HTML.html#333,333,1920,937,1920,1080,8-29-2022,11-37-27,53,depth_duration_stimuli/001016_2014-06-09_16-16-10_260595134347_rgbf000112-resize_5/001016_2014-06-09_16-16-10_260595134347_rgbf000112-resize_5-target.png,125,1.6565,6,2373,125,feet,jsons/VE125_randls_60_rotated.json,598754,726021,40,Woman
53,102457,DepthScenes,duration_manipulation_targetAtFixation,jsons/VE125_randls_60_rotated.json,http://54.235.29.9/FacialAge/BNav_EC2/DepthDuration/v2_depth_duration_MTurk/v2_DepthDuration_HTML.html#333,333,1920,937,1920,1080,8-29-2022,11-37-27,54,depth_duration_stimuli/001617_2014-06-20_11-35-32_260595134347_rgbf000066-resize_1/001617_2014-06-20_11-35-32_260595134347_rgbf000066-resize_1-target.png,125,3.7910000000000004,10,2901,140,feet,jsons/VE125_randls_60_rotated.json,598754,726021,40,Woman
54,102457,DepthScenes,duration_manipulation_targetAtFixation,jsons/VE125_randls_60_rotated.json,http://54.235.29.9/FacialAge/BNav_EC2/DepthDuration/v2_depth_duration_MTurk/v2_DepthDuration_HTML.html#333,333,1920,937,1920,1080,8-29-2022,11-37-27,55,depth_duration_stimuli/001806_2014-06-26_20-50-20_260595134347_rgbf000091-resize_1/001806_2014-06-26_20-50-20_260595134347_rgbf000091-resize_1-target.png,125,2.7305,4,2303,126,feet,jsons/VE125_randls_60_rotated.json,598754,726021,40,Woman
55,102457,DepthScenes,duration_manipulation_targetAtFixation,jsons/VE125_randls_60_rotated.json,http://54.235.29.9/FacialAge/BNav_EC2/DepthDuration/v2_depth_duration_MTurk/v2_DepthDuration_HTML.html#333,333,1920,937,1920,1080,8-29-2022,11-37-27,56,depth_duration_stimuli/001100_2014-06-15_17-46-26_260595134347_rgbf000225-resize_2/001100_2014-06-15_17-46-26_260595134347_rgbf000225-resize_2-target.png,125,2.24,2,2272,124,feet,jsons/VE125_randls_60_rotated.json,598754,726021,40,Woman
56,102457,DepthScenes,duration_manipulation_targetAtFixation,jsons/VE125_randls_60_rotated.json,http://54.235.29.9/FacialAge/BNav_EC2/DepthDuration/v2_depth_duration_MTurk/v2_DepthDuration_HTML.html#333,333,1920,937,1920,1080,8-29-2022,11-37-27,57,depth_duration_stimuli/002784_2014-06-22_19-26-30_094959634447_rgbf000083-resize_3/002784_2014-06-22_19-26-30_094959634447_rgbf000083-resize_3-target.png,125,1.8046666666667,5,2596,126,feet,jsons/VE125_randls_60_rotated.json,598754,726021,40,Woman
57,102457,DepthScenes,duration_manipulation_targetAtFixation,jsons/VE125_randls_60_rotated.json,http://54.235.29.9/FacialAge/BNav_EC2/DepthDuration/v2_depth_duration_MTurk/v2_DepthDuration_HTML.html#333,333,1920,937,1920,1080,8-29-2022,11-37-27,58,depth_duration_stimuli/001584_2014-06-20_11-07-43_260595134347_rgbf000002-resize_1/001584_2014-06-20_11-07-43_260595134347_rgbf000002-resize_1-target.png,125,3.53,6,2548,141,feet,jsons/VE125_randls_60_rotated.json,598754,726021,40,Woman
58,102457,DepthScenes,duration_manipulation_targetAtFixation,jsons/VE125_randls_60_rotated.json,http://54.235.29.9/FacialAge/BNav_EC2/DepthDuration/v2_depth_duration_MTurk/v2_DepthDuration_HTML.html#333,333,1920,937,1920,1080,8-29-2022,11-37-27,59,depth_duration_stimuli/003621_2014-05-23_18-06-08_094959634447_rgbf000101-resize_1/003621_2014-05-23_18-06-08_094959634447_rgbf000101-resize_1-target.png,125,3.9835,12,2731,123,feet,jsons/VE125_randls_60_rotated.json,598754,726021,40,Woman
59,102457,DepthScenes,duration_manipulation_targetAtFixation,jsons/VE125_randls_60_rotated.json,http://54.235.29.9/FacialAge/BNav_EC2/DepthDuration/v2_depth_duration_MTurk/v2_DepthDuration_HTML.html#333,333,1920,937,1920,1080,8-29-2022,11-37-27,60,depth_duration_stimuli/001094_2014-06-15_17-36-00_260595134347_rgbf000205-resize_0/001094_2014-06-15_17-36-00_260595134347_rgbf000205-resize_0-target.png,125,4.2175,14,3066,124,feet,jsons/VE125_randls_60_rotated.json,598754,726021,40,Woman
60,102457,DepthScenes,duration_manipulation_targetAtFixation,jsons/VE125_randls_60_rotated.json,http://54.235.29.9/FacialAge/BNav_EC2/DepthDuration/v2_depth_duration_MTurk/v2_DepthDuration_HTML.html#333,333,1920,937,1920,1080,8-29-2022,11-37-27,61,depth_duration_stimuli/000692_2014-06-08_13-09-42_260595134347_rgbf000199-resize_2/000692_2014-06-08_13-09-42_260595134347_rgbf000199-resize_2-target.png,125,3.661,20,3006,122,feet,jsons/VE125_randls_60_rotated.json,598754,726021,40,Woman
61,102457,DepthScenes,duration_manipulation_targetAtFixation,jsons/VE125_randls_60_rotated.json,http://54.235.29.9/FacialAge/BNav_EC2/DepthDuration/v2_depth_duration_MTurk/v2_DepthDuration_HTML.html#333,333,1920,937,1920,1080,8-29-2022,11-37-27,62,depth_duration_stimuli/000137_2014-05-20_17-04-49_260595134347_rgbf000120-resize_1/000137_2014-05-20_17-04-49_260595134347_rgbf000120-resize_1-target.png,125,3.786,12,3058,126,feet,jsons/VE125_randls_60_rotated.json,598754,726021,40,Woman
62,102457,DepthScenes,duration_manipulation_targetAtFixation,jsons/VE125_randls_60_rotated.json,http://54.235.29.9/FacialAge/BNav_EC2/DepthDuration/v2_depth_duration_MTurk/v2_DepthDuration_HTML.html#333,333,1920,937,1920,1080,8-29-2022,11-37-27,63,depth_duration_stimuli/000736_2014-06-08_18-24-15_260595134347_rgbf000206-resize_3/000736_2014-06-08_18-24-15_260595134347_rgbf000206-resize_3-target.png,125,3.515,6,2635,123,feet,jsons/VE125_randls_60_rotated.json,598754,726021,40,Woman
63,102457,DepthScenes,duration_manipulation_targetAtFixation,jsons/VE125_randls_60_rotated.json,http://54.235.29.9/FacialAge/BNav_EC2/DepthDuration/v2_depth_duration_MTurk/v2_DepthDuration_HTML.html#333,333,1920,937,1920,1080,8-29-2022,11-37-27,64,depth_duration_stimuli/001132_2014-06-17_14-48-54_260595134347_rgbf000100-resize_2/001132_2014-06-17_14-48-54_260595134347_rgbf000100-resize_2-target.png,125,3.753,8,2672,124,feet,jsons/VE125_randls_60_rotated.json,598754,726021,40,Woman
64,102457,DepthScenes,duration_manipulation_targetAtFixation,jsons/VE125_randls_60_rotated.json,http://54.235.29.9/FacialAge/BNav_EC2/DepthDuration/v2_depth_duration_MTurk/v2_DepthDuration_HTML.html#333,333,1920,937,1920,1080,8-29-2022,11-37-27,65,depth_duration_stimuli/001133_2014-06-17_14-49-16_260595134347_rgbf000100-resize_0/001133_2014-06-17_14-49-16_260595134347_rgbf000100-resize_0-target.png,125,4.2115,10,3400,124,feet,jsons/VE125_randls_60_rotated.json,598754,726021,40,Woman
65,102457,DepthScenes,duration_manipulation_targetAtFixation,jsons/VE125_randls_60_rotated.json,http://54.235.29.9/FacialAge/BNav_EC2/DepthDuration/v2_depth_duration_MTurk/v2_DepthDuration_HTML.html#333,333,1920,937,1920,1080,8-29-2022,11-37-27,66,depth_duration_stimuli/001540_2014-06-20_17-01-05_260595134347_rgbf000086-resize_2/001540_2014-06-20_17-01-05_260595134347_rgbf000086-resize-original.jpg,125,1.459,0,2629,126,feet,jsons/VE125_randls_60_rotated.json,598754,726021,40,Woman
66,102457,DepthScenes,duration_manipulation_targetAtFixation,jsons/VE125_randls_60_rotated.json,http://54.235.29.9/FacialAge/BNav_EC2/DepthDuration/v2_depth_duration_MTurk/v2_DepthDuration_HTML.html#333,333,1920,937,1920,1080,8-29-2022,11-37-27,67,depth_duration_stimuli/002136_2014-06-25_21-18-03_260595134347_rgbf000109-resize_3/002136_2014-06-25_21-18-03_260595134347_rgbf000109-resize_3-target.png,125,1.9569999999999999,2,2509,125,feet,jsons/VE125_randls_60_rotated.json,598754,726021,40,Woman
67,102457,DepthScenes,duration_manipulation_targetAtFixation,jsons/VE125_randls_60_rotated.json,http://54.235.29.9/FacialAge/BNav_EC2/DepthDuration/v2_depth_duration_MTurk/v2_DepthDuration_HTML.html#333,333,1920,937,1920,1080,8-29-2022,11-37-27,68,depth_duration_stimuli/002964_2014-06-08_17-46-11_094959634447_rgbf000091-resize_4/002964_2014-06-08_17-46-11_094959634447_rgbf000091-resize_4-target.png,125,1.6909999999999998,2,2753,119,feet,jsons/VE125_randls_60_rotated.json,598754,726021,40,Woman
68,102457,DepthScenes,duration_manipulation_targetAtFixation,jsons/VE125_randls_60_rotated.json,http://54.235.29.9/FacialAge/BNav_EC2/DepthDuration/v2_depth_duration_MTurk/v2_DepthDuration_HTML.html#333,333,1920,937,1920,1080,8-29-2022,11-37-27,69,depth_duration_stimuli/001235_2014-06-17_16-37-36_260595134347_rgbf000084-resize_4/001235_2014-06-17_16-37-36_260595134347_rgbf000084-resize_4-target.png,125,3.6605,8,3236,139,feet,jsons/VE125_randls_60_rotated.json,598754,726021,40,Woman
69,102457,DepthScenes,duration_manipulation_targetAtFixation,jsons/VE125_randls_60_rotated.json,http://54.235.29.9/FacialAge/BNav_EC2/DepthDuration/v2_depth_duration_MTurk/v2_DepthDuration_HTML.html#333,333,1920,937,1920,1080,8-29-2022,11-37-27,70,depth_duration_stimuli/000788_2014-06-08_22-34-36_260595134347_rgbf000131-resize_1/000788_2014-06-08_22-34-36_260595134347_rgbf000131-resize_1-target.png,125,3.359,4,2339,126,feet,jsons/VE125_randls_60_rotated.json,598754,726021,40,Woman
70,102457,DepthScenes,duration_manipulation_targetAtFixation,jsons/VE125_randls_60_rotated.json,http://54.235.29.9/FacialAge/BNav_EC2/DepthDuration/v2_depth_duration_MTurk/v2_DepthDuration_HTML.html#333,333,1920,937,1920,1080,8-29-2022,11-37-27,71,depth_duration_stimuli/000103_2014-05-14_22-01-17_260595134347_rgbf000152-resize_5/000103_2014-05-14_22-01-17_260595134347_rgbf000152-resize_5-target.png,125,1.993,0,22263,125,feet,jsons/VE125_randls_60_rotated.json,598754,726021,40,Woman
71,102457,DepthScenes,duration_manipulation_targetAtFixation,jsons/VE125_randls_60_rotated.json,http://54.235.29.9/FacialAge/BNav_EC2/DepthDuration/v2_depth_duration_MTurk/v2_DepthDuration_HTML.html#333,333,1920,937,1920,1080,8-29-2022,11-37-27,72,depth_duration_stimuli/001555_2014-06-20_17-12-10_260595134347_rgbf000065-resize_4/001555_2014-06-20_17-12-10_260595134347_rgbf000065-resize_4-target.png,125,1.633,3,2537,127,feet,jsons/VE125_randls_60_rotated.json,598754,726021,40,Woman
72,102457,DepthScenes,duration_manipulation_targetAtFixation,jsons/VE125_randls_60_rotated.json,http://54.235.29.9/FacialAge/BNav_EC2/DepthDuration/v2_depth_duration_MTurk/v2_DepthDuration_HTML.html#333,333,1920,937,1920,1080,8-29-2022,11-37-27,73,depth_duration_stimuli/000409_2014-06-04_19-23-33_260595134347_rgbf000067-resize_0/000409_2014-06-04_19-23-33_260595134347_rgbf000067-resize_0-target.png,125,3.7335,6,4160,125,feet,jsons/VE125_randls_60_rotated.json,598754,726021,40,Woman
73,102457,DepthScenes,duration_manipulation_targetAtFixation,jsons/VE125_randls_60_rotated.json,http://54.235.29.9/FacialAge/BNav_EC2/DepthDuration/v2_depth_duration_MTurk/v2_DepthDuration_HTML.html#333,333,1920,937,1920,1080,8-29-2022,11-37-27,74,depth_duration_stimuli/002663_2014-06-13_15-50-26_094959634447_rgbf000075-resize_1/002663_2014-06-13_15-50-26_094959634447_rgbf000075-resize_1-target.png,125,4.7495,12,2617,113,feet,jsons/VE125_randls_60_rotated.json,598754,726021,40,Woman
74,102457,DepthScenes,duration_manipulation_targetAtFixation,jsons/VE125_randls_60_rotated.json,http://54.235.29.9/FacialAge/BNav_EC2/DepthDuration/v2_depth_duration_MTurk/v2_DepthDuration_HTML.html#333,333,1920,937,1920,1080,8-29-2022,11-37-27,75,depth_duration_stimuli/002953_2014-06-08_17-32-18_094959634447_rgbf000059-resize_5/002953_2014-06-08_17-32-18_094959634447_rgbf000059-resize_5-target.png,125,1.551,1,2747,124,feet,jsons/VE125_randls_60_rotated.json,598754,726021,40,Woman
75,102457,DepthScenes,duration_manipulation_targetAtFixation,jsons/VE125_randls_60_rotated.json,http://54.235.29.9/FacialAge/BNav_EC2/DepthDuration/v2_depth_duration_MTurk/v2_DepthDuration_HTML.html#333,333,1920,937,1920,1080,8-29-2022,11-37-27,76,depth_duration_stimuli/000878_2014-06-08_22-52-45_260595134347_rgbf000045-resize_2/000878_2014-06-08_22-52-45_260595134347_rgbf000045-resize_2-target.png,125,2.092,6,2333,125,feet,jsons/VE125_randls_60_rotated.json,598754,726021,40,Woman
76,102457,DepthScenes,duration_manipulation_targetAtFixation,jsons/VE125_randls_60_rotated.json,http://54.235.29.9/FacialAge/BNav_EC2/DepthDuration/v2_depth_duration_MTurk/v2_DepthDuration_HTML.html#333,333,1920,937,1920,1080,8-29-2022,11-37-27,77,depth_duration_stimuli/000191_2014-05-12_17-07-38_260595134347_rgbf000199-resize_0/000191_2014-05-12_17-07-38_260595134347_rgbf000199-resize_0-target.png,125,3.7995,14,3625,125,feet,jsons/VE125_randls_60_rotated.json,598754,726021,40,Woman
77,102457,DepthScenes,duration_manipulation_targetAtFixation,jsons/VE125_randls_60_rotated.json,http://54.235.29.9/FacialAge/BNav_EC2/DepthDuration/v2_depth_duration_MTurk/v2_DepthDuration_HTML.html#333,333,1920,937,1920,1080,8-29-2022,11-37-27,78,depth_duration_stimuli/000493_2014-06-09_21-01-18_260595134347_rgbf000196-resize_3/000493_2014-06-09_21-01-18_260595134347_rgbf000196-resize_3-target.png,125,3.44,6,3458,134,feet,jsons/VE125_randls_60_rotated.json,598754,726021,40,Woman
78,102457,DepthScenes,duration_manipulation_targetAtFixation,jsons/VE125_randls_60_rotated.json,http://54.235.29.9/FacialAge/BNav_EC2/DepthDuration/v2_depth_duration_MTurk/v2_DepthDuration_HTML.html#333,333,1920,937,1920,1080,8-29-2022,11-37-27,79,depth_duration_stimuli/002323_2014-06-28_20-01-54_260595134347_rgbf000051-resize_4/002323_2014-06-28_20-01-54_260595134347_rgbf000051-resize_4-target.png,125,3.7310000000000003,7,4042,132,feet,jsons/VE125_randls_60_rotated.json,598754,726021,40,Woman
79,102457,DepthScenes,duration_manipulation_targetAtFixation,jsons/VE125_randls_60_rotated.json,http://54.235.29.9/FacialAge/BNav_EC2/DepthDuration/v2_depth_duration_MTurk/v2_DepthDuration_HTML.html#333,333,1920,937,1920,1080,8-29-2022,11-37-27,80,depth_duration_stimuli/000917_2014-06-09_22-45-29_260595134347_rgbf000149-resize_3/000917_2014-06-09_22-45-29_260595134347_rgbf000149-resize_3-target.png,125,4.1865,5,2419,129,feet,jsons/VE125_randls_60_rotated.json,598754,726021,40,Woman
80,102457,DepthScenes,duration_manipulation_targetAtFixation,jsons/VE125_randls_60_rotated.json,http://54.235.29.9/FacialAge/BNav_EC2/DepthDuration/v2_depth_duration_MTurk/v2_DepthDuration_HTML.html#333,333,1920,937,1920,1080,8-29-2022,11-37-27,81,depth_duration_stimuli/002467_2014-06-28_20-38-07_260595134347_rgbf000026-resize_2/002467_2014-06-28_20-38-07_260595134347_rgbf000026-resize_2-target.png,125,4.742,8,3167,124,feet,jsons/VE125_randls_60_rotated.json,598754,726021,40,Woman
81,102457,DepthScenes,duration_manipulation_targetAtFixation,jsons/VE125_randls_60_rotated.json,http://54.235.29.9/FacialAge/BNav_EC2/DepthDuration/v2_depth_duration_MTurk/v2_DepthDuration_HTML.html#333,333,1920,937,1920,1080,8-29-2022,11-37-27,82,depth_duration_stimuli/002570_2014-06-24_13-59-54_094959634447_rgbf000059-resize_0/002570_2014-06-24_13-59-54_094959634447_rgbf000059-resize_0-target.png,125,4.037,4,2607,118,feet,jsons/VE125_randls_60_rotated.json,598754,726021,40,Woman
82,102457,DepthScenes,duration_manipulation_targetAtFixation,jsons/VE125_randls_60_rotated.json,http://54.235.29.9/FacialAge/BNav_EC2/DepthDuration/v2_depth_duration_MTurk/v2_DepthDuration_HTML.html#333,333,1920,937,1920,1080,8-29-2022,11-37-27,83,depth_duration_stimuli/001516_2014-06-20_16-25-09_260595134347_rgbf000076-resize_2/001516_2014-06-20_16-25-09_260595134347_rgbf000076-resize_2-target.png,125,1.7445,3,2304,124,feet,jsons/VE125_randls_60_rotated.json,598754,726021,40,Woman
83,102457,DepthScenes,duration_manipulation_targetAtFixation,jsons/VE125_randls_60_rotated.json,http://54.235.29.9/FacialAge/BNav_EC2/DepthDuration/v2_depth_duration_MTurk/v2_DepthDuration_HTML.html#333,333,1920,937,1920,1080,8-29-2022,11-37-27,84,depth_duration_stimuli/002118_2014-06-25_20-32-08_260595134347_rgbf000078-resize_1/002118_2014-06-25_20-32-08_260595134347_rgbf000078-resize_1-target.png,125,2.6460000000000004,4,2251,123,feet,jsons/VE125_randls_60_rotated.json,598754,726021,40,Woman
84,102457,DepthScenes,duration_manipulation_targetAtFixation,jsons/VE125_randls_60_rotated.json,http://54.235.29.9/FacialAge/BNav_EC2/DepthDuration/v2_depth_duration_MTurk/v2_DepthDuration_HTML.html#333,333,1920,937,1920,1080,8-29-2022,11-37-27,85,depth_duration_stimuli/002657_2014-06-13_15-29-54_094959634447_rgbf000150-resize_1/002657_2014-06-13_15-29-54_094959634447_rgbf000150-resize_1-target.png,125,4.919,6,2949,124,feet,jsons/VE125_randls_60_rotated.json,598754,726021,40,Woman
85,102457,DepthScenes,duration_manipulation_targetAtFixation,jsons/VE125_randls_60_rotated.json,http://54.235.29.9/FacialAge/BNav_EC2/DepthDuration/v2_depth_duration_MTurk/v2_DepthDuration_HTML.html#333,333,1920,937,1920,1080,8-29-2022,11-37-27,86,depth_duration_stimuli/002375_2014-06-28_20-13-44_260595134347_rgbf000032-resize_1/002375_2014-06-28_20-13-44_260595134347_rgbf000032-resize_1-target.png,125,4.0175,3,2444,135,feet,jsons/VE125_randls_60_rotated.json,598754,726021,40,Woman
86,102457,DepthScenes,duration_manipulation_targetAtFixation,jsons/VE125_randls_60_rotated.json,http://54.235.29.9/FacialAge/BNav_EC2/DepthDuration/v2_depth_duration_MTurk/v2_DepthDuration_HTML.html#333,333,1920,937,1920,1080,8-29-2022,11-37-27,87,depth_duration_stimuli/003010_2014-06-15_12-54-35_094959634447_rgbf000112-resize_0/003010_2014-06-15_12-54-35_094959634447_rgbf000112-resize_0-target.png,125,3.1185,8,2366,136,feet,jsons/VE125_randls_60_rotated.json,598754,726021,40,Woman
87,102457,DepthScenes,duration_manipulation_targetAtFixation,jsons/VE125_randls_60_rotated.json,http://54.235.29.9/FacialAge/BNav_EC2/DepthDuration/v2_depth_duration_MTurk/v2_DepthDuration_HTML.html#333,333,1920,937,1920,1080,8-29-2022,11-37-27,88,depth_duration_stimuli/001810_2014-06-26_20-51-35_260595134347_rgbf000040-resize_3/001810_2014-06-26_20-51-35_260595134347_rgbf000040-resize_3-target.png,125,2.2525,4,2316,125,feet,jsons/VE125_randls_60_rotated.json,598754,726021,40,Woman
88,102457,DepthScenes,duration_manipulation_targetAtFixation,jsons/VE125_randls_60_rotated.json,http://54.235.29.9/FacialAge/BNav_EC2/DepthDuration/v2_depth_duration_MTurk/v2_DepthDuration_HTML.html#333,333,1920,937,1920,1080,8-29-2022,11-37-27,89,depth_duration_stimuli/001450_2014-06-19_17-02-03_260595134347_rgbf000203-resize_4/001450_2014-06-19_17-02-03_260595134347_rgbf000203-resize_4-target.png,125,4.0106666666667,8,2655,128,feet,jsons/VE125_randls_60_rotated.json,598754,726021,40,Woman
89,102457,DepthScenes,duration_manipulation_targetAtFixation,jsons/VE125_randls_60_rotated.json,http://54.235.29.9/FacialAge/BNav_EC2/DepthDuration/v2_depth_duration_MTurk/v2_DepthDuration_HTML.html#333,333,1920,937,1920,1080,8-29-2022,11-37-27,90,depth_duration_stimuli/001449_2014-06-19_17-01-27_260595134347_rgbf000116-resize_2/001449_2014-06-19_17-01-27_260595134347_rgbf000116-resize_2-target.png,125,3.452,4,2544,127,feet,jsons/VE125_randls_60_rotated.json,598754,726021,40,Woman
90,102457,DepthScenes,duration_manipulation_targetAtFixation,jsons/VE125_randls_60_rotated.json,http://54.235.29.9/FacialAge/BNav_EC2/DepthDuration/v2_depth_duration_MTurk/v2_DepthDuration_HTML.html#333,333,1920,937,1920,1080,8-29-2022,11-37-27,91,depth_duration_stimuli/003338_2014-05-20_11-01-23_094959634447_rgbf000051-resize_6/003338_2014-05-20_11-01-23_094959634447_rgbf000051-resize_6-target.png,125,1.693,2,2223,136,feet,jsons/VE125_randls_60_rotated.json,598754,726021,40,Woman
91,102457,DepthScenes,duration_manipulation_targetAtFixation,jsons/VE125_randls_60_rotated.json,http://54.235.29.9/FacialAge/BNav_EC2/DepthDuration/v2_depth_duration_MTurk/v2_DepthDuration_HTML.html#333,333,1920,937,1920,1080,8-29-2022,11-37-27,92,depth_duration_stimuli/002509_2014-06-24_13-19-22_094959634447_rgbf000077-resize_0/002509_2014-06-24_13-19-22_094959634447_rgbf000077-resize_0-target.png,125,1.3065,2,2843,117,feet,jsons/VE125_randls_60_rotated.json,598754,726021,40,Woman
92,102457,DepthScenes,duration_manipulation_targetAtFixation,jsons/VE125_randls_60_rotated.json,http://54.235.29.9/FacialAge/BNav_EC2/DepthDuration/v2_depth_duration_MTurk/v2_DepthDuration_HTML.html#333,333,1920,937,1920,1080,8-29-2022,11-37-27,93,depth_duration_stimuli/003081_2014-06-15_15-19-16_094959634447_rgbf000150-resize_1/003081_2014-06-15_15-19-16_094959634447_rgbf000150-resize_1-target.png,125,3.9125,8,3077,132,feet,jsons/VE125_randls_60_rotated.json,598754,726021,40,Woman
93,102457,DepthScenes,duration_manipulation_targetAtFixation,jsons/VE125_randls_60_rotated.json,http://54.235.29.9/FacialAge/BNav_EC2/DepthDuration/v2_depth_duration_MTurk/v2_DepthDuration_HTML.html#333,333,1920,937,1920,1080,8-29-2022,11-37-27,94,depth_duration_stimuli/001417_2014-06-19_16-25-36_260595134347_rgbf000115-resize_5/001417_2014-06-19_16-25-36_260595134347_rgbf000115-resize_5-target.png,125,4.6255,8,2542,125,feet,jsons/VE125_randls_60_rotated.json,598754,726021,40,Woman
94,102457,DepthScenes,duration_manipulation_targetAtFixation,jsons/VE125_randls_60_rotated.json,http://54.235.29.9/FacialAge/BNav_EC2/DepthDuration/v2_depth_duration_MTurk/v2_DepthDuration_HTML.html#333,333,1920,937,1920,1080,8-29-2022,11-37-27,95,depth_duration_stimuli/002758_2014-06-22_19-11-20_094959634447_rgbf000128-resize_1/002758_2014-06-22_19-11-20_094959634447_rgbf000128-resize_1-target.png,125,2.555,4,2699,136,feet,jsons/VE125_randls_60_rotated.json,598754,726021,40,Woman
95,102457,DepthScenes,duration_manipulation_targetAtFixation,jsons/VE125_randls_60_rotated.json,http://54.235.29.9/FacialAge/BNav_EC2/DepthDuration/v2_depth_duration_MTurk/v2_DepthDuration_HTML.html#333,333,1920,937,1920,1080,8-29-2022,11-37-27,96,depth_duration_stimuli/002630_2014-06-24_14-47-50_094959634447_rgbf000055-resize_1/002630_2014-06-24_14-47-50_094959634447_rgbf000055-resize_1-target.png,125,3.0095,8,2516,127,feet,jsons/VE125_randls_60_rotated.json,598754,726021,40,Woman
96,102457,DepthScenes,duration_manipulation_targetAtFixation,jsons/VE125_randls_60_rotated.json,http://54.235.29.9/FacialAge/BNav_EC2/DepthDuration/v2_depth_duration_MTurk/v2_DepthDuration_HTML.html#333,333,1920,937,1920,1080,8-29-2022,11-37-27,97,depth_duration_stimuli/002805_2014-06-22_19-54-03_094959634447_rgbf000079-resize_1/002805_2014-06-22_19-54-03_094959634447_rgbf000079-resize_1-target.png,125,3.1439999999999997,6,2250,126,feet,jsons/VE125_randls_60_rotated.json,598754,726021,40,Woman
97,102457,DepthScenes,duration_manipulation_targetAtFixation,jsons/VE125_randls_60_rotated.json,http://54.235.29.9/FacialAge/BNav_EC2/DepthDuration/v2_depth_duration_MTurk/v2_DepthDuration_HTML.html#333,333,1920,937,1920,1080,8-29-2022,11-37-27,98,depth_duration_stimuli/000906_2014-06-08_13-35-43_260595134347_rgbf000155-resize_1/000906_2014-06-08_13-35-43_260595134347_rgbf000155-resize_1-target.png,125,2.8489999999999998,12,3554,132,feet,jsons/VE125_randls_60_rotated.json,598754,726021,40,Woman
98,102457,DepthScenes,duration_manipulation_targetAtFixation,jsons/VE125_randls_60_rotated.json,http://54.235.29.9/FacialAge/BNav_EC2/DepthDuration/v2_depth_duration_MTurk/v2_DepthDuration_HTML.html#333,333,1920,937,1920,1080,8-29-2022,11-37-27,99,depth_duration_stimuli/001222_2014-06-17_16-24-06_260595134347_rgbf000073-resize_0/001222_2014-06-17_16-24-06_260595134347_rgbf000073-resize-original.jpg,125,1.4385,0,2150,136,feet,jsons/VE125_randls_60_rotated.json,598754,726021,40,Woman
99,102457,DepthScenes,duration_manipulation_targetAtFixation,jsons/VE125_randls_60_rotated.json,http://54.235.29.9/FacialAge/BNav_EC2/DepthDuration/v2_depth_duration_MTurk/v2_DepthDuration_HTML.html#333,333,1920,937,1920,1080,8-29-2022,11-37-27,100,depth_duration_stimuli/002344_2014-06-28_20-06-29_260595134347_rgbf000030-resize_1/002344_2014-06-28_20-06-29_260595134347_rgbf000030-resize_1-target.png,125,1.5795,2,2125,126,feet,jsons/VE125_randls_60_rotated.json,598754,726021,40,Woman
100,102457,DepthScenes,duration_manipulation_targetAtFixation,jsons/VE125_randls_60_rotated.json,http://54.235.29.9/FacialAge/BNav_EC2/DepthDuration/v2_depth_duration_MTurk/v2_DepthDuration_HTML.html#333,333,1920,937,1920,1080,8-29-2022,11-37-27,101,depth_duration_stimuli/002725_2014-06-22_11-47-51_094959634447_rgbf000070-resize_1/002725_2014-06-22_11-47-51_094959634447_rgbf000070-resize_1-target.png,125,2.195,6,2393,121,feet,jsons/VE125_randls_60_rotated.json,598754,726021,40,Woman
101,102457,DepthScenes,duration_manipulation_targetAtFixation,jsons/VE125_randls_60_rotated.json,http://54.235.29.9/FacialAge/BNav_EC2/DepthDuration/v2_depth_duration_MTurk/v2_DepthDuration_HTML.html#333,333,1920,937,1920,1080,8-29-2022,11-37-27,102,depth_duration_stimuli/000749_2014-06-08_21-55-06_260595134347_rgbf000070-resize_2/000749_2014-06-08_21-55-06_260595134347_rgbf000070-resize_2-target.png,125,2.331,4,2569,124,feet,jsons/VE125_randls_60_rotated.json,598754,726021,40,Woman
102,102457,DepthScenes,duration_manipulation_targetAtFixation,jsons/VE125_randls_60_rotated.json,http://54.235.29.9/FacialAge/BNav_EC2/DepthDuration/v2_depth_duration_MTurk/v2_DepthDuration_HTML.html#333,333,1920,937,1920,1080,8-29-2022,11-37-27,103,depth_duration_stimuli/002788_2014-06-22_19-36-03_094959634447_rgbf000088-resize_2/002788_2014-06-22_19-36-03_094959634447_rgbf000088-resize_2-target.png,125,1.6465,5,11129,129,feet,jsons/VE125_randls_60_rotated.json,598754,726021,40,Woman
103,102457,DepthScenes,duration_manipulation_targetAtFixation,jsons/VE125_randls_60_rotated.json,http://54.235.29.9/FacialAge/BNav_EC2/DepthDuration/v2_depth_duration_MTurk/v2_DepthDuration_HTML.html#333,333,1920,937,1920,1080,8-29-2022,11-37-27,104,depth_duration_stimuli/000549_2014-06-08_22-10-24_260595134347_rgbf000247-resize_3/000549_2014-06-08_22-10-24_260595134347_rgbf000247-resize_3-target.png,125,1.841,1,2409,125,feet,jsons/VE125_randls_60_rotated.json,598754,726021,40,Woman
104,102457,DepthScenes,duration_manipulation_targetAtFixation,jsons/VE125_randls_60_rotated.json,http://54.235.29.9/FacialAge/BNav_EC2/DepthDuration/v2_depth_duration_MTurk/v2_DepthDuration_HTML.html#333,333,1920,937,1920,1080,8-29-2022,11-37-27,105,depth_duration_stimuli/001055_2014-06-08_18-45-35_260595134347_rgbf000111-resize_4/001055_2014-06-08_18-45-35_260595134347_rgbf000111-resize_4-target.png,125,2.4290000000000003,8,2503,125,feet,jsons/VE125_randls_60_rotated.json,598754,726021,40,Woman
105,102457,DepthScenes,duration_manipulation_targetAtFixation,jsons/VE125_randls_60_rotated.json,http://54.235.29.9/FacialAge/BNav_EC2/DepthDuration/v2_depth_duration_MTurk/v2_DepthDuration_HTML.html#333,333,1920,937,1920,1080,8-29-2022,11-37-27,106,depth_duration_stimuli/000691_2014-06-08_13-08-50_260595134347_rgbf000132-resize_3/000691_2014-06-08_13-08-50_260595134347_rgbf000132-resize_3-target.png,125,4.1530000000000005,4,2252,130,feet,jsons/VE125_randls_60_rotated.json,598754,726021,40,Woman
106,102457,DepthScenes,duration_manipulation_targetAtFixation,jsons/VE125_randls_60_rotated.json,http://54.235.29.9/FacialAge/BNav_EC2/DepthDuration/v2_depth_duration_MTurk/v2_DepthDuration_HTML.html#333,333,1920,937,1920,1080,8-29-2022,11-37-27,107,depth_duration_stimuli/002213_2014-06-28_18-37-58_260595134347_rgbf000055-resize_1/002213_2014-06-28_18-37-58_260595134347_rgbf000055-resize_1-target.png,125,3.62,10,2669,125,feet,jsons/VE125_randls_60_rotated.json,598754,726021,40,Woman
107,102457,DepthScenes,duration_manipulation_targetAtFixation,jsons/VE125_randls_60_rotated.json,http://54.235.29.9/FacialAge/BNav_EC2/DepthDuration/v2_depth_duration_MTurk/v2_DepthDuration_HTML.html#333,333,1920,937,1920,1080,8-29-2022,11-37-27,108,depth_duration_stimuli/000109_2014-05-14_23-41-52_260595134347_rgbf000035-resize_9/000109_2014-05-14_23-41-52_260595134347_rgbf000035-resize_9-target.png,125,1.3545,2,2218,126,feet,jsons/VE125_randls_60_rotated.json,598754,726021,40,Woman
108,102457,DepthScenes,duration_manipulation_targetAtFixation,jsons/VE125_randls_60_rotated.json,http://54.235.29.9/FacialAge/BNav_EC2/DepthDuration/v2_depth_duration_MTurk/v2_DepthDuration_HTML.html#333,333,1920,937,1920,1080,8-29-2022,11-37-27,109,depth_duration_stimuli/000470_2014-06-09_19-42-40_260595134347_rgbf000094-resize_1/000470_2014-06-09_19-42-40_260595134347_rgbf000094-resize_1-target.png,125,1.831,2,1976,125,feet,jsons/VE125_randls_60_rotated.json,598754,726021,40,Woman
109,102457,DepthScenes,duration_manipulation_targetAtFixation,jsons/VE125_randls_60_rotated.json,http://54.235.29.9/FacialAge/BNav_EC2/DepthDuration/v2_depth_duration_MTurk/v2_DepthDuration_HTML.html#333,333,1920,937,1920,1080,8-29-2022,11-37-27,110,depth_duration_stimuli/003490_2014-05-21_15-50-11_094959634447_rgbf000101-resize_3/003490_2014-05-21_15-50-11_094959634447_rgbf000101-resize_3-target.png,125,3.6445,5,2635,131,feet,jsons/VE125_randls_60_rotated.json,598754,726021,40,Woman
110,102457,DepthScenes,duration_manipulation_targetAtFixation,jsons/VE125_randls_60_rotated.json,http://54.235.29.9/FacialAge/BNav_EC2/DepthDuration/v2_depth_duration_MTurk/v2_DepthDuration_HTML.html#333,333,1920,937,1920,1080,8-29-2022,11-37-27,111,depth_duration_stimuli/001175_2014-06-17_15-45-55_260595134347_rgbf000129-resize_4/001175_2014-06-17_15-45-55_260595134347_rgbf000129-resize_4-target.png,125,4.255,12,3007,134,feet,jsons/VE125_randls_60_rotated.json,598754,726021,40,Woman
111,102457,DepthScenes,duration_manipulation_targetAtFixation,jsons/VE125_randls_60_rotated.json,http://54.235.29.9/FacialAge/BNav_EC2/DepthDuration/v2_depth_duration_MTurk/v2_DepthDuration_HTML.html#333,333,1920,937,1920,1080,8-29-2022,11-37-27,112,depth_duration_stimuli/003129_2014-05-12_10-48-10_094959634447_rgbf000100-resize_0/003129_2014-05-12_10-48-10_094959634447_rgbf000100-resize_0-target.png,125,4.9305,8,2371,139,feet,jsons/VE125_randls_60_rotated.json,598754,726021,40,Woman
112,102457,DepthScenes,duration_manipulation_targetAtFixation,jsons/VE125_randls_60_rotated.json,http://54.235.29.9/FacialAge/BNav_EC2/DepthDuration/v2_depth_duration_MTurk/v2_DepthDuration_HTML.html#333,333,1920,937,1920,1080,8-29-2022,11-37-27,113,depth_duration_stimuli/000414_2014-06-04_19-49-13_260595134347_rgbf000044-resize_0/000414_2014-06-04_19-49-13_260595134347_rgbf000044-resize_0-target.png,125,4.329,10,2868,124,feet,jsons/VE125_randls_60_rotated.json,598754,726021,40,Woman
113,102457,DepthScenes,duration_manipulation_targetAtFixation,jsons/VE125_randls_60_rotated.json,http://54.235.29.9/FacialAge/BNav_EC2/DepthDuration/v2_depth_duration_MTurk/v2_DepthDuration_HTML.html#333,333,1920,937,1920,1080,8-29-2022,11-37-27,114,depth_duration_stimuli/002949_2014-06-26_15-57-42_094959634447_rgbf000079-resize_1/002949_2014-06-26_15-57-42_094959634447_rgbf000079-resize_1-target.png,125,1.8915,3,2287,123,feet,jsons/VE125_randls_60_rotated.json,598754,726021,40,Woman
114,102457,DepthScenes,duration_manipulation_targetAtFixation,jsons/VE125_randls_60_rotated.json,http://54.235.29.9/FacialAge/BNav_EC2/DepthDuration/v2_depth_duration_MTurk/v2_DepthDuration_HTML.html#333,333,1920,937,1920,1080,8-29-2022,11-37-27,115,depth_duration_stimuli/000522_2014-06-08_13-35-06_260595134347_rgbf000244-resize_1/000522_2014-06-08_13-35-06_260595134347_rgbf000244-resize_1-target.png,125,2.3715,1,2571,140,feet,jsons/VE125_randls_60_rotated.json,598754,726021,40,Woman
115,102457,DepthScenes,duration_manipulation_targetAtFixation,jsons/VE125_randls_60_rotated.json,http://54.235.29.9/FacialAge/BNav_EC2/DepthDuration/v2_depth_duration_MTurk/v2_DepthDuration_HTML.html#333,333,1920,937,1920,1080,8-29-2022,11-37-27,116,depth_duration_stimuli/002660_2014-06-13_15-44-18_094959634447_rgbf001878-resize_2/002660_2014-06-13_15-44-18_094959634447_rgbf001878-resize_2-target.png,125,3.576,5,2464,125,feet,jsons/VE125_randls_60_rotated.json,598754,726021,40,Woman
116,102457,DepthScenes,duration_manipulation_targetAtFixation,jsons/VE125_randls_60_rotated.json,http://54.235.29.9/FacialAge/BNav_EC2/DepthDuration/v2_depth_duration_MTurk/v2_DepthDuration_HTML.html#333,333,1920,937,1920,1080,8-29-2022,11-37-27,117,depth_duration_stimuli/002153_2014-06-25_21-27-18_260595134347_rgbf000038-resize_5/002153_2014-06-25_21-27-18_260595134347_rgbf000038-resize_5-target.png,125,2.505,3,9213,125,feet,jsons/VE125_randls_60_rotated.json,598754,726021,40,Woman
117,102457,DepthScenes,duration_manipulation_targetAtFixation,jsons/VE125_randls_60_rotated.json,http://54.235.29.9/FacialAge/BNav_EC2/DepthDuration/v2_depth_duration_MTurk/v2_DepthDuration_HTML.html#333,333,1920,937,1920,1080,8-29-2022,11-37-27,118,depth_duration_stimuli/000854_2014-06-09_19-43-13_260595134347_rgbf000066-resize_0/000854_2014-06-09_19-43-13_260595134347_rgbf000066-resize_0-target.png,125,3.068,2,2761,123,feet,jsons/VE125_randls_60_rotated.json,598754,726021,40,Woman
118,102457,DepthScenes,duration_manipulation_targetAtFixation,jsons/VE125_randls_60_rotated.json,http://54.235.29.9/FacialAge/BNav_EC2/DepthDuration/v2_depth_duration_MTurk/v2_DepthDuration_HTML.html#333,333,1920,937,1920,1080,8-29-2022,11-37-27,119,depth_duration_stimuli/000758_2014-06-08_22-05-08_260595134347_rgbf000085-resize_0/000758_2014-06-08_22-05-08_260595134347_rgbf000085-resize_0-target.png,125,3.3810000000000002,8,12219,124,feet,jsons/VE125_randls_60_rotated.json,598754,726021,40,Woman
119,102457,DepthScenes,duration_manipulation_targetAtFixation,jsons/VE125_randls_60_rotated.json,http://54.235.29.9/FacialAge/BNav_EC2/DepthDuration/v2_depth_duration_MTurk/v2_DepthDuration_HTML.html#333,333,1920,937,1920,1080,8-29-2022,11-37-27,120,depth_duration_stimuli/000787_2014-06-08_22-33-53_260595134347_rgbf000175-resize_1/000787_2014-06-08_22-33-53_260595134347_rgbf000175-resize-original.jpg,125,4.784,0,3778,122,feet,jsons/VE125_randls_60_rotated.json,598754,726021,40,Woman
120,102457,DepthScenes,duration_manipulation_targetAtFixation,jsons/VE125_randls_60_rotated.json,http://54.235.29.9/FacialAge/BNav_EC2/DepthDuration/v2_depth_duration_MTurk/v2_DepthDuration_HTML.html#333,333,1920,937,1920,1080,8-29-2022,11-37-27,121,depth_duration_stimuli/002545_2014-06-24_13-38-53_094959634447_rgbf000080-resize_4/002545_2014-06-24_13-38-53_094959634447_rgbf000080-resize_4-target.png,125,1.9205,3,2586,138,feet,jsons/VE125_randls_60_rotated.json,598754,726021,40,Woman
121,102457,DepthScenes,duration_manipulation_targetAtFixation,jsons/VE125_randls_60_rotated.json,http://54.235.29.9/FacialAge/BNav_EC2/DepthDuration/v2_depth_duration_MTurk/v2_DepthDuration_HTML.html#333,333,1920,937,1920,1080,8-29-2022,11-37-27,122,depth_duration_stimuli/001092_2014-06-15_17-34-58_260595134347_rgbf000171-resize_3/001092_2014-06-15_17-34-58_260595134347_rgbf000171-resize_3-target.png,125,2.6935,4,2555,124,feet,jsons/VE125_randls_60_rotated.json,598754,726021,40,Woman
122,102457,DepthScenes,duration_manipulation_targetAtFixation,jsons/VE125_randls_60_rotated.json,http://54.235.29.9/FacialAge/BNav_EC2/DepthDuration/v2_depth_duration_MTurk/v2_DepthDuration_HTML.html#333,333,1920,937,1920,1080,8-29-2022,11-37-27,123,depth_duration_stimuli/003079_2014-06-15_15-18-20_094959634447_rgbf000152-resize_8/003079_2014-06-15_15-18-20_094959634447_rgbf000152-resize_8-target.png,125,2.8775,6,2821,123,feet,jsons/VE125_randls_60_rotated.json,598754,726021,40,Woman
123,102457,DepthScenes,duration_manipulation_targetAtFixation,jsons/VE125_randls_60_rotated.json,http://54.235.29.9/FacialAge/BNav_EC2/DepthDuration/v2_depth_duration_MTurk/v2_DepthDuration_HTML.html#333,333,1920,937,1920,1080,8-29-2022,11-37-27,124,depth_duration_stimuli/000506_2014-06-08_23-21-00_260595134347_rgbf000070-resize_7/000506_2014-06-08_23-21-00_260595134347_rgbf000070-resize_7-target.png,125,4.0585,8,2375,125,feet,jsons/VE125_randls_60_rotated.json,598754,726021,40,Woman
124,102457,DepthScenes,duration_manipulation_targetAtFixation,jsons/VE125_randls_60_rotated.json,http://54.235.29.9/FacialAge/BNav_EC2/DepthDuration/v2_depth_duration_MTurk/v2_DepthDuration_HTML.html#333,333,1920,937,1920,1080,8-29-2022,11-37-27,125,depth_duration_stimuli/003228_2014-05-14_13-42-35_094959634447_rgbf000101-resize_1/003228_2014-05-14_13-42-35_094959634447_rgbf000101-resize_1-target.png,125,1.9680000000000002,3,2556,126,feet,jsons/VE125_randls_60_rotated.json,598754,726021,40,Woman
125,102457,DepthScenes,duration_manipulation_targetAtFixation,jsons/VE125_randls_60_rotated.json,http://54.235.29.9/FacialAge/BNav_EC2/DepthDuration/v2_depth_duration_MTurk/v2_DepthDuration_HTML.html#333,333,1920,937,1920,1080,8-29-2022,11-37-27,126,depth_duration_stimuli/002600_2014-06-24_14-27-04_094959634447_rgbf000074-resize_2/002600_2014-06-24_14-27-04_094959634447_rgbf000074-resize_2-target.png,125,2.7575,5,2477,124,feet,jsons/VE125_randls_60_rotated.json,598754,726021,40,Woman
126,102457,DepthScenes,duration_manipulation_targetAtFixation,jsons/VE125_randls_60_rotated.json,http://54.235.29.9/FacialAge/BNav_EC2/DepthDuration/v2_depth_duration_MTurk/v2_DepthDuration_HTML.html#333,333,1920,937,1920,1080,8-29-2022,11-37-27,127,depth_duration_stimuli/001447_2014-06-19_17-00-32_260595134347_rgbf000082-resize_5/001447_2014-06-19_17-00-32_260595134347_rgbf000082-resize_5-target.png,125,4.13775,4,2960,134,feet,jsons/VE125_randls_60_rotated.json,598754,726021,40,Woman
127,102457,DepthScenes,duration_manipulation_targetAtFixation,jsons/VE125_randls_60_rotated.json,http://54.235.29.9/FacialAge/BNav_EC2/DepthDuration/v2_depth_duration_MTurk/v2_DepthDuration_HTML.html#333,333,1920,937,1920,1080,8-29-2022,11-37-27,128,depth_duration_stimuli/000447_2014-06-08_16-15-46_260595134347_rgbf000130-resize_1/000447_2014-06-08_16-15-46_260595134347_rgbf000130-resize_1-target.png,125,4.479,12,2469,126,feet,jsons/VE125_randls_60_rotated.json,598754,726021,40,Woman
128,102457,DepthScenes,duration_manipulation_targetAtFixation,jsons/VE125_randls_60_rotated.json,http://54.235.29.9/FacialAge/BNav_EC2/DepthDuration/v2_depth_duration_MTurk/v2_DepthDuration_HTML.html#333,333,1920,937,1920,1080,8-29-2022,11-37-27,129,depth_duration_stimuli/002425_2014-06-28_20-27-29_260595134347_rgbf000031-resize_8/002425_2014-06-28_20-27-29_260595134347_rgbf000031-resize_8-target.png,125,3.8960000000000004,10,2587,123,feet,jsons/VE125_randls_60_rotated.json,598754,726021,40,Woman
129,102457,DepthScenes,duration_manipulation_targetAtFixation,jsons/VE125_randls_60_rotated.json,http://54.235.29.9/FacialAge/BNav_EC2/DepthDuration/v2_depth_duration_MTurk/v2_DepthDuration_HTML.html#333,333,1920,937,1920,1080,8-29-2022,11-37-27,130,depth_duration_stimuli/000642_2014-06-08_16-59-25_260595134347_rgbf000098-resize_2/000642_2014-06-08_16-59-25_260595134347_rgbf000098-resize_2-target.png,125,2.8815,6,2444,133,feet,jsons/VE125_randls_60_rotated.json,598754,726021,40,Woman
130,102457,DepthScenes,duration_manipulation_targetAtFixation,jsons/VE125_randls_60_rotated.json,http://54.235.29.9/FacialAge/BNav_EC2/DepthDuration/v2_depth_duration_MTurk/v2_DepthDuration_HTML.html#333,333,1920,937,1920,1080,8-29-2022,11-37-27,131,depth_duration_stimuli/002875_2014-06-01_15-19-00_094959634447_rgbf000151-resize_1/002875_2014-06-01_15-19-00_094959634447_rgbf000151-resize_1-target.png,125,1.9675,3,2446,115,feet,jsons/VE125_randls_60_rotated.json,598754,726021,40,Woman
131,102457,DepthScenes,duration_manipulation_targetAtFixation,jsons/VE125_randls_60_rotated.json,http://54.235.29.9/FacialAge/BNav_EC2/DepthDuration/v2_depth_duration_MTurk/v2_DepthDuration_HTML.html#333,333,1920,937,1920,1080,8-29-2022,11-37-27,132,depth_duration_stimuli/001011_2014-06-08_23-18-54_260595134347_rgbf000044-resize_4/001011_2014-06-08_23-18-54_260595134347_rgbf000044-resize_4-target.png,125,2.4730000000000003,5,2741,127,feet,jsons/VE125_randls_60_rotated.json,598754,726021,40,Woman
132,102457,DepthScenes,duration_manipulation_targetAtFixation,jsons/VE125_randls_60_rotated.json,http://54.235.29.9/FacialAge/BNav_EC2/DepthDuration/v2_depth_duration_MTurk/v2_DepthDuration_HTML.html#333,333,1920,937,1920,1080,8-29-2022,11-37-27,133,depth_duration_stimuli/002568_2014-06-24_13-59-21_094959634447_rgbf000062-resize_4/002568_2014-06-24_13-59-21_094959634447_rgbf000062-resize_4-target.png,125,3.015,8,2717,125,feet,jsons/VE125_randls_60_rotated.json,598754,726021,40,Woman
133,102457,DepthScenes,duration_manipulation_targetAtFixation,jsons/VE125_randls_60_rotated.json,http://54.235.29.9/FacialAge/BNav_EC2/DepthDuration/v2_depth_duration_MTurk/v2_DepthDuration_HTML.html#333,333,1920,937,1920,1080,8-29-2022,11-37-27,134,depth_duration_stimuli/003492_2014-05-21_15-50-55_094959634447_rgbf000828-resize_1/003492_2014-05-21_15-50-55_094959634447_rgbf000828-resize_1-target.png,125,4.06875,11,2728,122,feet,jsons/VE125_randls_60_rotated.json,598754,726021,40,Woman
134,102457,DepthScenes,duration_manipulation_targetAtFixation,jsons/VE125_randls_60_rotated.json,http://54.235.29.9/FacialAge/BNav_EC2/DepthDuration/v2_depth_duration_MTurk/v2_DepthDuration_HTML.html#333,333,1920,937,1920,1080,8-29-2022,11-37-27,135,depth_duration_stimuli/000375_2014-06-08_11-17-29_260595134347_rgbf000133-resize_2/000375_2014-06-08_11-17-29_260595134347_rgbf000133-resize-original.jpg,125,4.718,0,2378,124,feet,jsons/VE125_randls_60_rotated.json,598754,726021,40,Woman
135,102457,DepthScenes,duration_manipulation_targetAtFixation,jsons/VE125_randls_60_rotated.json,http://54.235.29.9/FacialAge/BNav_EC2/DepthDuration/v2_depth_duration_MTurk/v2_DepthDuration_HTML.html#333,333,1920,937,1920,1080,8-29-2022,11-37-27,136,depth_duration_stimuli/002199_2014-06-28_18-33-56_260595134347_rgbf000074-resize_0/002199_2014-06-28_18-33-56_260595134347_rgbf000074-resize_0-target.png,125,1.996,2,2559,118,feet,jsons/VE125_randls_60_rotated.json,598754,726021,40,Woman
136,102457,DepthScenes,duration_manipulation_targetAtFixation,jsons/VE125_randls_60_rotated.json,http://54.235.29.9/FacialAge/BNav_EC2/DepthDuration/v2_depth_duration_MTurk/v2_DepthDuration_HTML.html#333,333,1920,937,1920,1080,8-29-2022,11-37-27,137,depth_duration_stimuli/001056_2014-06-08_18-46-44_260595134347_rgbf000068-resize_0/001056_2014-06-08_18-46-44_260595134347_rgbf000068-resize_0-target.png,125,2.6625,8,2835,124,feet,jsons/VE125_randls_60_rotated.json,598754,726021,40,Woman
137,102457,DepthScenes,duration_manipulation_targetAtFixation,jsons/VE125_randls_60_rotated.json,http://54.235.29.9/FacialAge/BNav_EC2/DepthDuration/v2_depth_duration_MTurk/v2_DepthDuration_HTML.html#333,333,1920,937,1920,1080,8-29-2022,11-37-27,138,depth_duration_stimuli/000866_2014-06-09_20-45-42_260595134347_rgbf000139-resize_1/000866_2014-06-09_20-45-42_260595134347_rgbf000139-resize_1-target.png,125,3.2155,5,2844,130,feet,jsons/VE125_randls_60_rotated.json,598754,726021,40,Woman
138,102457,DepthScenes,duration_manipulation_targetAtFixation,jsons/VE125_randls_60_rotated.json,http://54.235.29.9/FacialAge/BNav_EC2/DepthDuration/v2_depth_duration_MTurk/v2_DepthDuration_HTML.html#333,333,1920,937,1920,1080,8-29-2022,11-37-27,139,depth_duration_stimuli/002989_2014-06-15_12-25-03_094959634447_rgbf000150-resize_3/002989_2014-06-15_12-25-03_094959634447_rgbf000150-resize_3-target.png,125,4.1975,12,3908,124,feet,jsons/VE125_randls_60_rotated.json,598754,726021,40,Woman
139,102457,DepthScenes,duration_manipulation_targetAtFixation,jsons/VE125_randls_60_rotated.json,http://54.235.29.9/FacialAge/BNav_EC2/DepthDuration/v2_depth_duration_MTurk/v2_DepthDuration_HTML.html#333,333,1920,937,1920,1080,8-29-2022,11-37-27,140,depth_duration_stimuli/003587_2014-05-23_16-48-02_094959634447_rgbf002384-resize_2/003587_2014-05-23_16-48-02_094959634447_rgbf002384-resize_2-target.png,125,1.357,2,2096,125,feet,jsons/VE125_randls_60_rotated.json,598754,726021,40,Woman
140,102457,DepthScenes,duration_manipulation_targetAtFixation,jsons/VE125_randls_60_rotated.json,http://54.235.29.9/FacialAge/BNav_EC2/DepthDuration/v2_depth_duration_MTurk/v2_DepthDuration_HTML.html#333,333,1920,937,1920,1080,8-29-2022,11-37-27,141,depth_duration_stimuli/001167_2014-06-17_15-38-07_260595134347_rgbf000108-resize_0/001167_2014-06-17_15-38-07_260595134347_rgbf000108-resize_0-target.png,125,1.8505,4,2796,124,feet,jsons/VE125_randls_60_rotated.json,598754,726021,40,Woman
141,102457,DepthScenes,duration_manipulation_targetAtFixation,jsons/VE125_randls_60_rotated.json,http://54.235.29.9/FacialAge/BNav_EC2/DepthDuration/v2_depth_duration_MTurk/v2_DepthDuration_HTML.html#333,333,1920,937,1920,1080,8-29-2022,11-37-27,142,depth_duration_stimuli/002103_2014-06-25_20-00-40_260595134347_rgbf000049-resize_0/002103_2014-06-25_20-00-40_260595134347_rgbf000049-resize_0-target.png,125,4.105,8,2602,125,feet,jsons/VE125_randls_60_rotated.json,598754,726021,40,Woman
142,102457,DepthScenes,duration_manipulation_targetAtFixation,jsons/VE125_randls_60_rotated.json,http://54.235.29.9/FacialAge/BNav_EC2/DepthDuration/v2_depth_duration_MTurk/v2_DepthDuration_HTML.html#333,333,1920,937,1920,1080,8-29-2022,11-37-27,143,depth_duration_stimuli/002039_2014-06-24_20-22-38_260595134347_rgbf000084-resize_1/002039_2014-06-24_20-22-38_260595134347_rgbf000084-resize_1-target.png,125,4.408,14,2919,134,feet,jsons/VE125_randls_60_rotated.json,598754,726021,40,Woman
143,102457,DepthScenes,duration_manipulation_targetAtFixation,jsons/VE125_randls_60_rotated.json,http://54.235.29.9/FacialAge/BNav_EC2/DepthDuration/v2_depth_duration_MTurk/v2_DepthDuration_HTML.html#333,333,1920,937,1920,1080,8-29-2022,11-37-27,144,depth_duration_stimuli/000780_2014-06-08_22-28-29_260595134347_rgbf000126-resize_1/000780_2014-06-08_22-28-29_260595134347_rgbf000126-resize_1-target.png,125,3.3825,10,3429,125,feet,jsons/VE125_randls_60_rotated.json,598754,726021,40,Woman
144,102457,DepthScenes,duration_manipulation_targetAtFixation,jsons/VE125_randls_60_rotated.json,http://54.235.29.9/FacialAge/BNav_EC2/DepthDuration/v2_depth_duration_MTurk/v2_DepthDuration_HTML.html#333,333,1920,937,1920,1080,8-29-2022,11-37-27,145,depth_duration_stimuli/002445_2014-06-28_20-32-16_260595134347_rgbf000029-resize_4/002445_2014-06-28_20-32-16_260595134347_rgbf000029-resize_4-target.png,125,2.5315,5,3635,125,feet,jsons/VE125_randls_60_rotated.json,598754,726021,40,Woman
145,102457,DepthScenes,duration_manipulation_targetAtFixation,jsons/VE125_randls_60_rotated.json,http://54.235.29.9/FacialAge/BNav_EC2/DepthDuration/v2_depth_duration_MTurk/v2_DepthDuration_HTML.html#333,333,1920,937,1920,1080,8-29-2022,11-37-27,146,depth_duration_stimuli/000665_2014-06-09_20-42-35_260595134347_rgbf000110-resize_1/000665_2014-06-09_20-42-35_260595134347_rgbf000110-resize_1-target.png,125,3.057,8,2572,115,feet,jsons/VE125_randls_60_rotated.json,598754,726021,40,Woman
146,102457,DepthScenes,duration_manipulation_targetAtFixation,jsons/VE125_randls_60_rotated.json,http://54.235.29.9/FacialAge/BNav_EC2/DepthDuration/v2_depth_duration_MTurk/v2_DepthDuration_HTML.html#333,333,1920,937,1920,1080,8-29-2022,11-37-27,147,depth_duration_stimuli/001150_2014-06-17_15-27-34_260595134347_rgbf000108-resize_2/001150_2014-06-17_15-27-34_260595134347_rgbf000108-resize_2-target.png,125,4.0325,12,3026,125,feet,jsons/VE125_randls_60_rotated.json,598754,726021,40,Woman
147,102457,DepthScenes,duration_manipulation_targetAtFixation,jsons/VE125_randls_60_rotated.json,http://54.235.29.9/FacialAge/BNav_EC2/DepthDuration/v2_depth_duration_MTurk/v2_DepthDuration_HTML.html#333,333,1920,937,1920,1080,8-29-2022,11-37-27,148,depth_duration_stimuli/000734_2014-06-08_17-39-11_260595134347_rgbf000128-resize_2/000734_2014-06-08_17-39-11_260595134347_rgbf000128-resize_2-target.png,125,4.098,14,2826,127,feet,jsons/VE125_randls_60_rotated.json,598754,726021,40,Woman
148,102457,DepthScenes,duration_manipulation_targetAtFixation,jsons/VE125_randls_60_rotated.json,http://54.235.29.9/FacialAge/BNav_EC2/DepthDuration/v2_depth_duration_MTurk/v2_DepthDuration_HTML.html#333,333,1920,937,1920,1080,8-29-2022,11-37-27,149,depth_duration_stimuli/000739_2014-06-08_18-45-58_260595134347_rgbf000068-resize_1/000739_2014-06-08_18-45-58_260595134347_rgbf000068-resize_1-target.png,125,3.534,8,2567,126,feet,jsons/VE125_randls_60_rotated.json,598754,726021,40,Woman
149,102457,DepthScenes,duration_manipulation_targetAtFixation,jsons/VE125_randls_60_rotated.json,http://54.235.29.9/FacialAge/BNav_EC2/DepthDuration/v2_depth_duration_MTurk/v2_DepthDuration_HTML.html#333,333,1920,937,1920,1080,8-29-2022,11-37-27,150,depth_duration_stimuli/000502_2014-06-08_23-02-32_260595134347_rgbf000063-resize_4/000502_2014-06-08_23-02-32_260595134347_rgbf000063-resize_4-target.png,125,2.431,10,2743,125,feet,jsons/VE125_randls_60_rotated.json,598754,726021,40,Woman
150,102457,DepthScenes,duration_manipulation_targetAtFixation,jsons/VE125_randls_60_rotated.json,http://54.235.29.9/FacialAge/BNav_EC2/DepthDuration/v2_depth_duration_MTurk/v2_DepthDuration_HTML.html#333,333,1920,937,1920,1080,8-29-2022,11-37-27,151,depth_duration_stimuli/001199_2014-06-17_16-03-48_260595134347_rgbf000077-resize_0/001199_2014-06-17_16-03-48_260595134347_rgbf000077-resize_0-target.png,125,3.4375,12,2481,129,feet,jsons/VE125_randls_60_rotated.json,598754,726021,40,Woman
151,102457,DepthScenes,duration_manipulation_targetAtFixation,jsons/VE125_randls_60_rotated.json,http://54.235.29.9/FacialAge/BNav_EC2/DepthDuration/v2_depth_duration_MTurk/v2_DepthDuration_HTML.html#333,333,1920,937,1920,1080,8-29-2022,11-37-27,152,depth_duration_stimuli/000569_2014-06-09_22-51-47_260595134347_rgbf000141-resize_3/000569_2014-06-09_22-51-47_260595134347_rgbf000141-resize-original.jpg,125,4.512,0,2057,125,feet,jsons/VE125_randls_60_rotated.json,598754,726021,40,Woman
152,102457,DepthScenes,duration_manipulation_targetAtFixation,jsons/VE125_randls_60_rotated.json,http://54.235.29.9/FacialAge/BNav_EC2/DepthDuration/v2_depth_duration_MTurk/v2_DepthDuration_HTML.html#333,333,1920,937,1920,1080,8-29-2022,11-37-27,153,depth_duration_stimuli/002750_2014-06-22_19-08-03_094959634447_rgbf000094-resize_4/002750_2014-06-22_19-08-03_094959634447_rgbf000094-resize_4-target.png,125,2.354,8,5409,125,feet,jsons/VE125_randls_60_rotated.json,598754,726021,40,Woman
153,102457,DepthScenes,duration_manipulation_targetAtFixation,jsons/VE125_randls_60_rotated.json,http://54.235.29.9/FacialAge/BNav_EC2/DepthDuration/v2_depth_duration_MTurk/v2_DepthDuration_HTML.html#333,333,1920,937,1920,1080,8-29-2022,11-37-27,154,depth_duration_stimuli/002549_2014-06-24_13-41-39_094959634447_rgbf000022-resize_3/002549_2014-06-24_13-41-39_094959634447_rgbf000022-resize_3-target.png,125,1.476,5,2565,121,feet,jsons/VE125_randls_60_rotated.json,598754,726021,40,Woman
154,102457,DepthScenes,duration_manipulation_targetAtFixation,jsons/VE125_randls_60_rotated.json,http://54.235.29.9/FacialAge/BNav_EC2/DepthDuration/v2_depth_duration_MTurk/v2_DepthDuration_HTML.html#333,333,1920,937,1920,1080,8-29-2022,11-37-27,155,depth_duration_stimuli/000556_2014-06-09_22-42-56_260595134347_rgbf000214-resize_1/000556_2014-06-09_22-42-56_260595134347_rgbf000214-resize_1-target.png,125,4.8415,10,3680,126,feet,jsons/VE125_randls_60_rotated.json,598754,726021,40,Woman
155,102457,DepthScenes,duration_manipulation_targetAtFixation,jsons/VE125_randls_60_rotated.json,http://54.235.29.9/FacialAge/BNav_EC2/DepthDuration/v2_depth_duration_MTurk/v2_DepthDuration_HTML.html#333,333,1920,937,1920,1080,8-29-2022,11-37-27,156,depth_duration_stimuli/001158_2014-06-17_15-32-16_260595134347_rgbf000138-resize_2/001158_2014-06-17_15-32-16_260595134347_rgbf000138-resize_2-target.png,125,4.5315,14,2868,125,feet,jsons/VE125_randls_60_rotated.json,598754,726021,40,Woman
156,102457,DepthScenes,duration_manipulation_targetAtFixation,jsons/VE125_randls_60_rotated.json,http://54.235.29.9/FacialAge/BNav_EC2/DepthDuration/v2_depth_duration_MTurk/v2_DepthDuration_HTML.html#333,333,1920,937,1920,1080,8-29-2022,11-37-27,157,depth_duration_stimuli/002637_2014-06-24_14-51-13_094959634447_rgbf000066-resize_4/002637_2014-06-24_14-51-13_094959634447_rgbf000066-resize_4-target.png,125,1.9955,6,2562,130,feet,jsons/VE125_randls_60_rotated.json,598754,726021,40,Woman
157,102457,DepthScenes,duration_manipulation_targetAtFixation,jsons/VE125_randls_60_rotated.json,http://54.235.29.9/FacialAge/BNav_EC2/DepthDuration/v2_depth_duration_MTurk/v2_DepthDuration_HTML.html#333,333,1920,937,1920,1080,8-29-2022,11-37-27,158,depth_duration_stimuli/003534_2014-05-22_15-06-10_094959634447_rgbf000102-resize_4/003534_2014-05-22_15-06-10_094959634447_rgbf000102-resize_4-target.png,125,1.426,4,3055,125,feet,jsons/VE125_randls_60_rotated.json,598754,726021,40,Woman
158,102457,DepthScenes,duration_manipulation_targetAtFixation,jsons/VE125_randls_60_rotated.json,http://54.235.29.9/FacialAge/BNav_EC2/DepthDuration/v2_depth_duration_MTurk/v2_DepthDuration_HTML.html#333,333,1920,937,1920,1080,8-29-2022,11-37-27,159,depth_duration_stimuli/002209_2014-06-28_18-36-10_260595134347_rgbf000051-resize_1/002209_2014-06-28_18-36-10_260595134347_rgbf000051-resize_1-target.png,125,2.057,6,5048,126,feet,jsons/VE125_randls_60_rotated.json,598754,726021,40,Woman
159,102457,DepthScenes,duration_manipulation_targetAtFixation,jsons/VE125_randls_60_rotated.json,http://54.235.29.9/FacialAge/BNav_EC2/DepthDuration/v2_depth_duration_MTurk/v2_DepthDuration_HTML.html#333,333,1920,937,1920,1080,8-29-2022,11-37-27,160,depth_duration_stimuli/002763_2014-06-22_19-13-10_094959634447_rgbf000075-resize_4/002763_2014-06-22_19-13-10_094959634447_rgbf000075-resize_4-target.png,125,1.68375,4,2449,125,feet,jsons/VE125_randls_60_rotated.json,598754,726021,40,Woman
160,102457,DepthScenes,duration_manipulation_targetAtFixation,jsons/VE125_randls_60_rotated.json,http://54.235.29.9/FacialAge/BNav_EC2/DepthDuration/v2_depth_duration_MTurk/v2_DepthDuration_HTML.html#333,333,1920,937,1920,1080,8-29-2022,11-37-27,161,depth_duration_stimuli/002995_2014-06-15_12-31-26_094959634447_rgbf000150-resize_1/002995_2014-06-15_12-31-26_094959634447_rgbf000150-resize_1-target.png,125,3.8360000000000003,10,4573,125,feet,jsons/VE125_randls_60_rotated.json,598754,726021,40,Woman
161,102457,DepthScenes,duration_manipulation_targetAtFixation,jsons/VE125_randls_60_rotated.json,http://54.235.29.9/FacialAge/BNav_EC2/DepthDuration/v2_depth_duration_MTurk/v2_DepthDuration_HTML.html#333,333,1920,937,1920,1080,8-29-2022,11-37-27,162,depth_duration_stimuli/002748_2014-06-22_19-07-22_094959634447_rgbf000078-resize_1/002748_2014-06-22_19-07-22_094959634447_rgbf000078-resize_1-target.png,125,4.6705,15,2676,125,feet,jsons/VE125_randls_60_rotated.json,598754,726021,40,Woman
162,102457,DepthScenes,duration_manipulation_targetAtFixation,jsons/VE125_randls_60_rotated.json,http://54.235.29.9/FacialAge/BNav_EC2/DepthDuration/v2_depth_duration_MTurk/v2_DepthDuration_HTML.html#333,333,1920,937,1920,1080,8-29-2022,11-37-27,163,depth_duration_stimuli/000457_2014-06-08_16-52-43_260595134347_rgbf000199-resize_1/000457_2014-06-08_16-52-43_260595134347_rgbf000199-resize_1-target.png,125,3.6489999999999996,11,3108,125,feet,jsons/VE125_randls_60_rotated.json,598754,726021,40,Woman
163,102457,DepthScenes,duration_manipulation_targetAtFixation,jsons/VE125_randls_60_rotated.json,http://54.235.29.9/FacialAge/BNav_EC2/DepthDuration/v2_depth_duration_MTurk/v2_DepthDuration_HTML.html#333,333,1920,937,1920,1080,8-29-2022,11-37-27,164,depth_duration_stimuli/000929_2014-06-09_16-33-19_260595134347_rgbf000139-resize_0/000929_2014-06-09_16-33-19_260595134347_rgbf000139-resize_0-target.png,125,2.8680000000000003,6,2437,125,feet,jsons/VE125_randls_60_rotated.json,598754,726021,40,Woman
