,subjID,experimentName,versionName,sequenceName,url,selected_row,windowWidth,windowHeight,screenWidth,screenHeight,startDate,startTime,trial,stimulus,duration,actual_depth,depth_estimate,trial_RT,log_sceneDuration,unitSelection,seq_filepath,experimentTime,totalTime,age,gender
0,102409,DepthScenes,duration_manipulation_targetAtFixation,jsons/VE125_randls_29.json,http://54.235.29.9/FacialAge/BNav_EC2/DepthDuration/v2_depth_duration_MTurk/v2_DepthDuration_HTML.html#159,159,1440,764,1440,900,9-4-2022,10-9-19,1,depth_duration_stimuli/000486_2014-06-09_20-47-20_260595134347_rgbf000143-resize_2/000486_2014-06-09_20-47-20_260595134347_rgbf000143-resize_2-target.png,125,4.8325,5,3651,125,feet,jsons/VE125_randls_29.json,584930,988327,30,Man
1,102409,DepthScenes,duration_manipulation_targetAtFixation,jsons/VE125_randls_29.json,http://54.235.29.9/FacialAge/BNav_EC2/DepthDuration/v2_depth_duration_MTurk/v2_DepthDuration_HTML.html#159,159,1440,764,1440,900,9-4-2022,10-9-19,2,depth_duration_stimuli/003083_2014-06-15_15-21-03_094959634447_rgbf000063-resize_1/003083_2014-06-15_15-21-03_094959634447_rgbf000063-resize_1-target.png,125,4.1405,9,4139,125,feet,jsons/VE125_randls_29.json,584930,988327,30,Man
2,102409,DepthScenes,duration_manipulation_targetAtFixation,jsons/VE125_randls_29.json,http://54.235.29.9/FacialAge/BNav_EC2/DepthDuration/v2_depth_duration_MTurk/v2_DepthDuration_HTML.html#159,159,1440,764,1440,900,9-4-2022,10-9-19,3,depth_duration_stimuli/001158_2014-06-17_15-32-16_260595134347_rgbf000138-resize_2/001158_2014-06-17_15-32-16_260595134347_rgbf000138-resize_2-target.png,125,4.5315,6,2897,122,feet,jsons/VE125_randls_29.json,584930,988327,30,Man
3,102409,DepthScenes,duration_manipulation_targetAtFixation,jsons/VE125_randls_29.json,http://54.235.29.9/FacialAge/BNav_EC2/DepthDuration/v2_depth_duration_MTurk/v2_DepthDuration_HTML.html#159,159,1440,764,1440,900,9-4-2022,10-9-19,4,depth_duration_stimuli/000556_2014-06-09_22-42-56_260595134347_rgbf000214-resize_1/000556_2014-06-09_22-42-56_260595134347_rgbf000214-resize_1-target.png,125,4.8415,7,2337,121,feet,jsons/VE125_randls_29.json,584930,988327,30,Man
4,102409,DepthScenes,duration_manipulation_targetAtFixation,jsons/VE125_randls_29.json,http://54.235.29.9/FacialAge/BNav_EC2/DepthDuration/v2_depth_duration_MTurk/v2_DepthDuration_HTML.html#159,159,1440,764,1440,900,9-4-2022,10-9-19,5,depth_duration_stimuli/003492_2014-05-21_15-50-55_094959634447_rgbf000828-resize_1/003492_2014-05-21_15-50-55_094959634447_rgbf000828-resize_1-target.png,125,4.06875,8,2268,124,feet,jsons/VE125_randls_29.json,584930,988327,30,Man
5,102409,DepthScenes,duration_manipulation_targetAtFixation,jsons/VE125_randls_29.json,http://54.235.29.9/FacialAge/BNav_EC2/DepthDuration/v2_depth_duration_MTurk/v2_DepthDuration_HTML.html#159,159,1440,764,1440,900,9-4-2022,10-9-19,6,depth_duration_stimuli/002568_2014-06-24_13-59-21_094959634447_rgbf000062-resize_4/002568_2014-06-24_13-59-21_094959634447_rgbf000062-resize_4-target.png,125,3.015,5,3455,123,feet,jsons/VE125_randls_29.json,584930,988327,30,Man
6,102409,DepthScenes,duration_manipulation_targetAtFixation,jsons/VE125_randls_29.json,http://54.235.29.9/FacialAge/BNav_EC2/DepthDuration/v2_depth_duration_MTurk/v2_DepthDuration_HTML.html#159,159,1440,764,1440,900,9-4-2022,10-9-19,7,depth_duration_stimuli/001029_2014-06-08_13-17-57_260595134347_rgbf000065-resize_1/001029_2014-06-08_13-17-57_260595134347_rgbf000065-resize_1-target.png,125,3.0835,5,3861,127,feet,jsons/VE125_randls_29.json,584930,988327,30,Man
7,102409,DepthScenes,duration_manipulation_targetAtFixation,jsons/VE125_randls_29.json,http://54.235.29.9/FacialAge/BNav_EC2/DepthDuration/v2_depth_duration_MTurk/v2_DepthDuration_HTML.html#159,159,1440,764,1440,900,9-4-2022,10-9-19,8,depth_duration_stimuli/000677_2014-06-08_23-10-32_260595134347_rgbf000158-resize_6/000677_2014-06-08_23-10-32_260595134347_rgbf000158-resize_6-target.png,125,3.556,4,2381,121,feet,jsons/VE125_randls_29.json,584930,988327,30,Man
8,102409,DepthScenes,duration_manipulation_targetAtFixation,jsons/VE125_randls_29.json,http://54.235.29.9/FacialAge/BNav_EC2/DepthDuration/v2_depth_duration_MTurk/v2_DepthDuration_HTML.html#159,159,1440,764,1440,900,9-4-2022,10-9-19,9,depth_duration_stimuli/000493_2014-06-09_21-01-18_260595134347_rgbf000196-resize_3/000493_2014-06-09_21-01-18_260595134347_rgbf000196-resize_3-target.png,125,3.44,5,2477,124,feet,jsons/VE125_randls_29.json,584930,988327,30,Man
9,102409,DepthScenes,duration_manipulation_targetAtFixation,jsons/VE125_randls_29.json,http://54.235.29.9/FacialAge/BNav_EC2/DepthDuration/v2_depth_duration_MTurk/v2_DepthDuration_HTML.html#159,159,1440,764,1440,900,9-4-2022,10-9-19,10,depth_duration_stimuli/000191_2014-05-12_17-07-38_260595134347_rgbf000199-resize_0/000191_2014-05-12_17-07-38_260595134347_rgbf000199-resize_0-target.png,125,3.7995,7,4863,124,feet,jsons/VE125_randls_29.json,584930,988327,30,Man
10,102409,DepthScenes,duration_manipulation_targetAtFixation,jsons/VE125_randls_29.json,http://54.235.29.9/FacialAge/BNav_EC2/DepthDuration/v2_depth_duration_MTurk/v2_DepthDuration_HTML.html#159,159,1440,764,1440,900,9-4-2022,10-9-19,11,depth_duration_stimuli/000368_2014-06-09_15-53-01_260595134347_rgbf000155-resize_2/000368_2014-06-09_15-53-01_260595134347_rgbf000155-resize_2-target.png,125,2.4859999999999998,3,2306,121,feet,jsons/VE125_randls_29.json,584930,988327,30,Man
11,102409,DepthScenes,duration_manipulation_targetAtFixation,jsons/VE125_randls_29.json,http://54.235.29.9/FacialAge/BNav_EC2/DepthDuration/v2_depth_duration_MTurk/v2_DepthDuration_HTML.html#159,159,1440,764,1440,900,9-4-2022,10-9-19,12,depth_duration_stimuli/002678_2014-06-13_16-15-32_094959634447_rgbf000151-resize_6/002678_2014-06-13_16-15-32_094959634447_rgbf000151-resize_6-target.png,125,2.1830000000000003,6,2318,129,feet,jsons/VE125_randls_29.json,584930,988327,30,Man
12,102409,DepthScenes,duration_manipulation_targetAtFixation,jsons/VE125_randls_29.json,http://54.235.29.9/FacialAge/BNav_EC2/DepthDuration/v2_depth_duration_MTurk/v2_DepthDuration_HTML.html#159,159,1440,764,1440,900,9-4-2022,10-9-19,13,depth_duration_stimuli/000569_2014-06-09_22-51-47_260595134347_rgbf000141-resize_3/000569_2014-06-09_22-51-47_260595134347_rgbf000141-resize-original.jpg,125,4.512,0,4347,121,feet,jsons/VE125_randls_29.json,584930,988327,30,Man
13,102409,DepthScenes,duration_manipulation_targetAtFixation,jsons/VE125_randls_29.json,http://54.235.29.9/FacialAge/BNav_EC2/DepthDuration/v2_depth_duration_MTurk/v2_DepthDuration_HTML.html#159,159,1440,764,1440,900,9-4-2022,10-9-19,14,depth_duration_stimuli/002445_2014-06-28_20-32-16_260595134347_rgbf000029-resize_4/002445_2014-06-28_20-32-16_260595134347_rgbf000029-resize_4-target.png,125,2.5315,4,2477,121,feet,jsons/VE125_randls_29.json,584930,988327,30,Man
14,102409,DepthScenes,duration_manipulation_targetAtFixation,jsons/VE125_randls_29.json,http://54.235.29.9/FacialAge/BNav_EC2/DepthDuration/v2_depth_duration_MTurk/v2_DepthDuration_HTML.html#159,159,1440,764,1440,900,9-4-2022,10-9-19,15,depth_duration_stimuli/000780_2014-06-08_22-28-29_260595134347_rgbf000126-resize_1/000780_2014-06-08_22-28-29_260595134347_rgbf000126-resize_1-target.png,125,3.3825,6,2148,122,feet,jsons/VE125_randls_29.json,584930,988327,30,Man
15,102409,DepthScenes,duration_manipulation_targetAtFixation,jsons/VE125_randls_29.json,http://54.235.29.9/FacialAge/BNav_EC2/DepthDuration/v2_depth_duration_MTurk/v2_DepthDuration_HTML.html#159,159,1440,764,1440,900,9-4-2022,10-9-19,16,depth_duration_stimuli/003621_2014-05-23_18-06-08_094959634447_rgbf000101-resize_1/003621_2014-05-23_18-06-08_094959634447_rgbf000101-resize_1-target.png,125,3.9835,7,2838,124,feet,jsons/VE125_randls_29.json,584930,988327,30,Man
16,102409,DepthScenes,duration_manipulation_targetAtFixation,jsons/VE125_randls_29.json,http://54.235.29.9/FacialAge/BNav_EC2/DepthDuration/v2_depth_duration_MTurk/v2_DepthDuration_HTML.html#159,159,1440,764,1440,900,9-4-2022,10-9-19,17,depth_duration_stimuli/001584_2014-06-20_11-07-43_260595134347_rgbf000002-resize_1/001584_2014-06-20_11-07-43_260595134347_rgbf000002-resize_1-target.png,125,3.53,6,5641,125,feet,jsons/VE125_randls_29.json,584930,988327,30,Man
17,102409,DepthScenes,duration_manipulation_targetAtFixation,jsons/VE125_randls_29.json,http://54.235.29.9/FacialAge/BNav_EC2/DepthDuration/v2_depth_duration_MTurk/v2_DepthDuration_HTML.html#159,159,1440,764,1440,900,9-4-2022,10-9-19,18,depth_duration_stimuli/003534_2014-05-22_15-06-10_094959634447_rgbf000102-resize_4/003534_2014-05-22_15-06-10_094959634447_rgbf000102-resize_4-target.png,125,1.426,2,2375,126,feet,jsons/VE125_randls_29.json,584930,988327,30,Man
18,102409,DepthScenes,duration_manipulation_targetAtFixation,jsons/VE125_randls_29.json,http://54.235.29.9/FacialAge/BNav_EC2/DepthDuration/v2_depth_duration_MTurk/v2_DepthDuration_HTML.html#159,159,1440,764,1440,900,9-4-2022,10-9-19,19,depth_duration_stimuli/002637_2014-06-24_14-51-13_094959634447_rgbf000066-resize_4/002637_2014-06-24_14-51-13_094959634447_rgbf000066-resize_4-target.png,125,1.9955,3,2297,124,feet,jsons/VE125_randls_29.json,584930,988327,30,Man
19,102409,DepthScenes,duration_manipulation_targetAtFixation,jsons/VE125_randls_29.json,http://54.235.29.9/FacialAge/BNav_EC2/DepthDuration/v2_depth_duration_MTurk/v2_DepthDuration_HTML.html#159,159,1440,764,1440,900,9-4-2022,10-9-19,20,depth_duration_stimuli/002549_2014-06-24_13-41-39_094959634447_rgbf000022-resize_3/002549_2014-06-24_13-41-39_094959634447_rgbf000022-resize_3-target.png,125,1.476,2,2080,126,feet,jsons/VE125_randls_29.json,584930,988327,30,Man
20,102409,DepthScenes,duration_manipulation_targetAtFixation,jsons/VE125_randls_29.json,http://54.235.29.9/FacialAge/BNav_EC2/DepthDuration/v2_depth_duration_MTurk/v2_DepthDuration_HTML.html#159,159,1440,764,1440,900,9-4-2022,10-9-19,21,depth_duration_stimuli/002750_2014-06-22_19-08-03_094959634447_rgbf000094-resize_4/002750_2014-06-22_19-08-03_094959634447_rgbf000094-resize_4-target.png,125,2.354,5,2892,122,feet,jsons/VE125_randls_29.json,584930,988327,30,Man
21,102409,DepthScenes,duration_manipulation_targetAtFixation,jsons/VE125_randls_29.json,http://54.235.29.9/FacialAge/BNav_EC2/DepthDuration/v2_depth_duration_MTurk/v2_DepthDuration_HTML.html#159,159,1440,764,1440,900,9-4-2022,10-9-19,22,depth_duration_stimuli/001175_2014-06-17_15-45-55_260595134347_rgbf000129-resize_4/001175_2014-06-17_15-45-55_260595134347_rgbf000129-resize_4-target.png,125,4.255,8,2687,124,feet,jsons/VE125_randls_29.json,584930,988327,30,Man
22,102409,DepthScenes,duration_manipulation_targetAtFixation,jsons/VE125_randls_29.json,http://54.235.29.9/FacialAge/BNav_EC2/DepthDuration/v2_depth_duration_MTurk/v2_DepthDuration_HTML.html#159,159,1440,764,1440,900,9-4-2022,10-9-19,23,depth_duration_stimuli/003490_2014-05-21_15-50-11_094959634447_rgbf000101-resize_3/003490_2014-05-21_15-50-11_094959634447_rgbf000101-resize_3-target.png,125,3.6445,5,2540,123,feet,jsons/VE125_randls_29.json,584930,988327,30,Man
23,102409,DepthScenes,duration_manipulation_targetAtFixation,jsons/VE125_randls_29.json,http://54.235.29.9/FacialAge/BNav_EC2/DepthDuration/v2_depth_duration_MTurk/v2_DepthDuration_HTML.html#159,159,1440,764,1440,900,9-4-2022,10-9-19,24,depth_duration_stimuli/001164_2014-06-17_15-35-46_260595134347_rgbf000085-resize_3/001164_2014-06-17_15-35-46_260595134347_rgbf000085-resize_3-target.png,125,2.354,5,2439,123,feet,jsons/VE125_randls_29.json,584930,988327,30,Man
24,102409,DepthScenes,duration_manipulation_targetAtFixation,jsons/VE125_randls_29.json,http://54.235.29.9/FacialAge/BNav_EC2/DepthDuration/v2_depth_duration_MTurk/v2_DepthDuration_HTML.html#159,159,1440,764,1440,900,9-4-2022,10-9-19,25,depth_duration_stimuli/001136_2014-06-17_15-19-41_260595134347_rgbf000076-resize_3/001136_2014-06-17_15-19-41_260595134347_rgbf000076-resize_3-target.png,125,1.8655,4,2097,123,feet,jsons/VE125_randls_29.json,584930,988327,30,Man
25,102409,DepthScenes,duration_manipulation_targetAtFixation,jsons/VE125_randls_29.json,http://54.235.29.9/FacialAge/BNav_EC2/DepthDuration/v2_depth_duration_MTurk/v2_DepthDuration_HTML.html#159,159,1440,764,1440,900,9-4-2022,10-9-19,26,depth_duration_stimuli/002213_2014-06-28_18-37-58_260595134347_rgbf000055-resize_1/002213_2014-06-28_18-37-58_260595134347_rgbf000055-resize_1-target.png,125,3.62,7,1923,125,feet,jsons/VE125_randls_29.json,584930,988327,30,Man
26,102409,DepthScenes,duration_manipulation_targetAtFixation,jsons/VE125_randls_29.json,http://54.235.29.9/FacialAge/BNav_EC2/DepthDuration/v2_depth_duration_MTurk/v2_DepthDuration_HTML.html#159,159,1440,764,1440,900,9-4-2022,10-9-19,27,depth_duration_stimuli/000691_2014-06-08_13-08-50_260595134347_rgbf000132-resize_3/000691_2014-06-08_13-08-50_260595134347_rgbf000132-resize_3-target.png,125,4.1530000000000005,7,3344,124,feet,jsons/VE125_randls_29.json,584930,988327,30,Man
27,102409,DepthScenes,duration_manipulation_targetAtFixation,jsons/VE125_randls_29.json,http://54.235.29.9/FacialAge/BNav_EC2/DepthDuration/v2_depth_duration_MTurk/v2_DepthDuration_HTML.html#159,159,1440,764,1440,900,9-4-2022,10-9-19,28,depth_duration_stimuli/000692_2014-06-08_13-09-42_260595134347_rgbf000199-resize_2/000692_2014-06-08_13-09-42_260595134347_rgbf000199-resize_2-target.png,125,3.661,6,3183,123,feet,jsons/VE125_randls_29.json,584930,988327,30,Man
28,102409,DepthScenes,duration_manipulation_targetAtFixation,jsons/VE125_randls_29.json,http://54.235.29.9/FacialAge/BNav_EC2/DepthDuration/v2_depth_duration_MTurk/v2_DepthDuration_HTML.html#159,159,1440,764,1440,900,9-4-2022,10-9-19,29,depth_duration_stimuli/001094_2014-06-15_17-36-00_260595134347_rgbf000205-resize_0/001094_2014-06-15_17-36-00_260595134347_rgbf000205-resize_0-target.png,125,4.2175,5,3268,119,feet,jsons/VE125_randls_29.json,584930,988327,30,Man
29,102409,DepthScenes,duration_manipulation_targetAtFixation,jsons/VE125_randls_29.json,http://54.235.29.9/FacialAge/BNav_EC2/DepthDuration/v2_depth_duration_MTurk/v2_DepthDuration_HTML.html#159,159,1440,764,1440,900,9-4-2022,10-9-19,30,depth_duration_stimuli/000375_2014-06-08_11-17-29_260595134347_rgbf000133-resize_2/000375_2014-06-08_11-17-29_260595134347_rgbf000133-resize-original.jpg,125,4.718,0,2683,124,feet,jsons/VE125_randls_29.json,584930,988327,30,Man
30,102409,DepthScenes,duration_manipulation_targetAtFixation,jsons/VE125_randls_29.json,http://54.235.29.9/FacialAge/BNav_EC2/DepthDuration/v2_depth_duration_MTurk/v2_DepthDuration_HTML.html#159,159,1440,764,1440,900,9-4-2022,10-9-19,31,depth_duration_stimuli/002988_2014-06-15_12-24-20_094959634447_rgbf000150-resize_1/002988_2014-06-15_12-24-20_094959634447_rgbf000150-resize_1-target.png,125,4.7669999999999995,9,3089,124,feet,jsons/VE125_randls_29.json,584930,988327,30,Man
31,102409,DepthScenes,duration_manipulation_targetAtFixation,jsons/VE125_randls_29.json,http://54.235.29.9/FacialAge/BNav_EC2/DepthDuration/v2_depth_duration_MTurk/v2_DepthDuration_HTML.html#159,159,1440,764,1440,900,9-4-2022,10-9-19,32,depth_duration_stimuli/001052_2014-06-08_18-24-54_260595134347_rgbf000130-resize_1/001052_2014-06-08_18-24-54_260595134347_rgbf000130-resize_1-target.png,125,4.1045,5,2826,125,feet,jsons/VE125_randls_29.json,584930,988327,30,Man
32,102409,DepthScenes,duration_manipulation_targetAtFixation,jsons/VE125_randls_29.json,http://54.235.29.9/FacialAge/BNav_EC2/DepthDuration/v2_depth_duration_MTurk/v2_DepthDuration_HTML.html#159,159,1440,764,1440,900,9-4-2022,10-9-19,33,depth_duration_stimuli/002057_2014-06-24_21-00-13_260595134347_rgbf000120-resize_1/002057_2014-06-24_21-00-13_260595134347_rgbf000120-resize_1-target.png,125,2.967,7,2862,125,feet,jsons/VE125_randls_29.json,584930,988327,30,Man
33,102409,DepthScenes,duration_manipulation_targetAtFixation,jsons/VE125_randls_29.json,http://54.235.29.9/FacialAge/BNav_EC2/DepthDuration/v2_depth_duration_MTurk/v2_DepthDuration_HTML.html#159,159,1440,764,1440,900,9-4-2022,10-9-19,34,depth_duration_stimuli/000709_2014-06-08_13-51-55_260595134347_rgbf000068-resize_3/000709_2014-06-08_13-51-55_260595134347_rgbf000068-resize_3-target.png,125,1.8030000000000002,3,3615,125,feet,jsons/VE125_randls_29.json,584930,988327,30,Man
34,102409,DepthScenes,duration_manipulation_targetAtFixation,jsons/VE125_randls_29.json,http://54.235.29.9/FacialAge/BNav_EC2/DepthDuration/v2_depth_duration_MTurk/v2_DepthDuration_HTML.html#159,159,1440,764,1440,900,9-4-2022,10-9-19,35,depth_duration_stimuli/001092_2014-06-15_17-34-58_260595134347_rgbf000171-resize_3/001092_2014-06-15_17-34-58_260595134347_rgbf000171-resize_3-target.png,125,2.6935,3,2314,129,feet,jsons/VE125_randls_29.json,584930,988327,30,Man
35,102409,DepthScenes,duration_manipulation_targetAtFixation,jsons/VE125_randls_29.json,http://54.235.29.9/FacialAge/BNav_EC2/DepthDuration/v2_depth_duration_MTurk/v2_DepthDuration_HTML.html#159,159,1440,764,1440,900,9-4-2022,10-9-19,36,depth_duration_stimuli/002545_2014-06-24_13-38-53_094959634447_rgbf000080-resize_4/002545_2014-06-24_13-38-53_094959634447_rgbf000080-resize_4-target.png,125,1.9205,5,2687,125,feet,jsons/VE125_randls_29.json,584930,988327,30,Man
36,102409,DepthScenes,duration_manipulation_targetAtFixation,jsons/VE125_randls_29.json,http://54.235.29.9/FacialAge/BNav_EC2/DepthDuration/v2_depth_duration_MTurk/v2_DepthDuration_HTML.html#159,159,1440,764,1440,900,9-4-2022,10-9-19,37,depth_duration_stimuli/001055_2014-06-08_18-45-35_260595134347_rgbf000111-resize_4/001055_2014-06-08_18-45-35_260595134347_rgbf000111-resize_4-target.png,125,2.4290000000000003,4,1799,123,feet,jsons/VE125_randls_29.json,584930,988327,30,Man
37,102409,DepthScenes,duration_manipulation_targetAtFixation,jsons/VE125_randls_29.json,http://54.235.29.9/FacialAge/BNav_EC2/DepthDuration/v2_depth_duration_MTurk/v2_DepthDuration_HTML.html#159,159,1440,764,1440,900,9-4-2022,10-9-19,38,depth_duration_stimuli/000549_2014-06-08_22-10-24_260595134347_rgbf000247-resize_3/000549_2014-06-08_22-10-24_260595134347_rgbf000247-resize_3-target.png,125,1.841,3,2016,122,feet,jsons/VE125_randls_29.json,584930,988327,30,Man
38,102409,DepthScenes,duration_manipulation_targetAtFixation,jsons/VE125_randls_29.json,http://54.235.29.9/FacialAge/BNav_EC2/DepthDuration/v2_depth_duration_MTurk/v2_DepthDuration_HTML.html#159,159,1440,764,1440,900,9-4-2022,10-9-19,39,depth_duration_stimuli/002570_2014-06-24_13-59-54_094959634447_rgbf000059-resize_0/002570_2014-06-24_13-59-54_094959634447_rgbf000059-resize_0-target.png,125,4.037,6,1890,124,feet,jsons/VE125_randls_29.json,584930,988327,30,Man
39,102409,DepthScenes,duration_manipulation_targetAtFixation,jsons/VE125_randls_29.json,http://54.235.29.9/FacialAge/BNav_EC2/DepthDuration/v2_depth_duration_MTurk/v2_DepthDuration_HTML.html#159,159,1440,764,1440,900,9-4-2022,10-9-19,40,depth_duration_stimuli/002467_2014-06-28_20-38-07_260595134347_rgbf000026-resize_2/002467_2014-06-28_20-38-07_260595134347_rgbf000026-resize_2-target.png,125,4.742,5,3440,127,feet,jsons/VE125_randls_29.json,584930,988327,30,Man
40,102409,DepthScenes,duration_manipulation_targetAtFixation,jsons/VE125_randls_29.json,http://54.235.29.9/FacialAge/BNav_EC2/DepthDuration/v2_depth_duration_MTurk/v2_DepthDuration_HTML.html#159,159,1440,764,1440,900,9-4-2022,10-9-19,41,depth_duration_stimuli/000917_2014-06-09_22-45-29_260595134347_rgbf000149-resize_3/000917_2014-06-09_22-45-29_260595134347_rgbf000149-resize_3-target.png,125,4.1865,6,2298,125,feet,jsons/VE125_randls_29.json,584930,988327,30,Man
41,102409,DepthScenes,duration_manipulation_targetAtFixation,jsons/VE125_randls_29.json,http://54.235.29.9/FacialAge/BNav_EC2/DepthDuration/v2_depth_duration_MTurk/v2_DepthDuration_HTML.html#159,159,1440,764,1440,900,9-4-2022,10-9-19,42,depth_duration_stimuli/002323_2014-06-28_20-01-54_260595134347_rgbf000051-resize_4/002323_2014-06-28_20-01-54_260595134347_rgbf000051-resize_4-target.png,125,3.7310000000000003,5,3498,124,feet,jsons/VE125_randls_29.json,584930,988327,30,Man
42,102409,DepthScenes,duration_manipulation_targetAtFixation,jsons/VE125_randls_29.json,http://54.235.29.9/FacialAge/BNav_EC2/DepthDuration/v2_depth_duration_MTurk/v2_DepthDuration_HTML.html#159,159,1440,764,1440,900,9-4-2022,10-9-19,43,depth_duration_stimuli/001066_2014-06-08_22-03-20_260595134347_rgbf000066-resize_4/001066_2014-06-08_22-03-20_260595134347_rgbf000066-resize_4-target.png,125,4.2330000000000005,6,2159,123,feet,jsons/VE125_randls_29.json,584930,988327,30,Man
43,102409,DepthScenes,duration_manipulation_targetAtFixation,jsons/VE125_randls_29.json,http://54.235.29.9/FacialAge/BNav_EC2/DepthDuration/v2_depth_duration_MTurk/v2_DepthDuration_HTML.html#159,159,1440,764,1440,900,9-4-2022,10-9-19,44,depth_duration_stimuli/000742_2014-06-08_18-48-09_260595134347_rgbf000164-resize_4/000742_2014-06-08_18-48-09_260595134347_rgbf000164-resize_4-target.png,125,4.632,7,2762,125,feet,jsons/VE125_randls_29.json,584930,988327,30,Man
44,102409,DepthScenes,duration_manipulation_targetAtFixation,jsons/VE125_randls_29.json,http://54.235.29.9/FacialAge/BNav_EC2/DepthDuration/v2_depth_duration_MTurk/v2_DepthDuration_HTML.html#159,159,1440,764,1440,900,9-4-2022,10-9-19,45,depth_duration_stimuli/000787_2014-06-08_22-33-53_260595134347_rgbf000175-resize_1/000787_2014-06-08_22-33-53_260595134347_rgbf000175-resize-original.jpg,125,4.784,0,3662,125,feet,jsons/VE125_randls_29.json,584930,988327,30,Man
45,102409,DepthScenes,duration_manipulation_targetAtFixation,jsons/VE125_randls_29.json,http://54.235.29.9/FacialAge/BNav_EC2/DepthDuration/v2_depth_duration_MTurk/v2_DepthDuration_HTML.html#159,159,1440,764,1440,900,9-4-2022,10-9-19,46,depth_duration_stimuli/000414_2014-06-04_19-49-13_260595134347_rgbf000044-resize_0/000414_2014-06-04_19-49-13_260595134347_rgbf000044-resize_0-target.png,125,4.329,6,2817,125,feet,jsons/VE125_randls_29.json,584930,988327,30,Man
46,102409,DepthScenes,duration_manipulation_targetAtFixation,jsons/VE125_randls_29.json,http://54.235.29.9/FacialAge/BNav_EC2/DepthDuration/v2_depth_duration_MTurk/v2_DepthDuration_HTML.html#159,159,1440,764,1440,900,9-4-2022,10-9-19,47,depth_duration_stimuli/003129_2014-05-12_10-48-10_094959634447_rgbf000100-resize_0/003129_2014-05-12_10-48-10_094959634447_rgbf000100-resize_0-target.png,125,4.9305,4,3927,121,feet,jsons/VE125_randls_29.json,584930,988327,30,Man
47,102409,DepthScenes,duration_manipulation_targetAtFixation,jsons/VE125_randls_29.json,http://54.235.29.9/FacialAge/BNav_EC2/DepthDuration/v2_depth_duration_MTurk/v2_DepthDuration_HTML.html#159,159,1440,764,1440,900,9-4-2022,10-9-19,48,depth_duration_stimuli/002039_2014-06-24_20-22-38_260595134347_rgbf000084-resize_1/002039_2014-06-24_20-22-38_260595134347_rgbf000084-resize_1-target.png,125,4.408,6,2653,124,feet,jsons/VE125_randls_29.json,584930,988327,30,Man
48,102409,DepthScenes,duration_manipulation_targetAtFixation,jsons/VE125_randls_29.json,http://54.235.29.9/FacialAge/BNav_EC2/DepthDuration/v2_depth_duration_MTurk/v2_DepthDuration_HTML.html#159,159,1440,764,1440,900,9-4-2022,10-9-19,49,depth_duration_stimuli/002103_2014-06-25_20-00-40_260595134347_rgbf000049-resize_0/002103_2014-06-25_20-00-40_260595134347_rgbf000049-resize_0-target.png,125,4.105,6,35555,124,feet,jsons/VE125_randls_29.json,584930,988327,30,Man
49,102409,DepthScenes,duration_manipulation_targetAtFixation,jsons/VE125_randls_29.json,http://54.235.29.9/FacialAge/BNav_EC2/DepthDuration/v2_depth_duration_MTurk/v2_DepthDuration_HTML.html#159,159,1440,764,1440,900,9-4-2022,10-9-19,50,depth_duration_stimuli/001555_2014-06-20_17-12-10_260595134347_rgbf000065-resize_4/001555_2014-06-20_17-12-10_260595134347_rgbf000065-resize_4-target.png,125,1.633,2,3482,125,feet,jsons/VE125_randls_29.json,584930,988327,30,Man
50,102409,DepthScenes,duration_manipulation_targetAtFixation,jsons/VE125_randls_29.json,http://54.235.29.9/FacialAge/BNav_EC2/DepthDuration/v2_depth_duration_MTurk/v2_DepthDuration_HTML.html#159,159,1440,764,1440,900,9-4-2022,10-9-19,51,depth_duration_stimuli/000103_2014-05-14_22-01-17_260595134347_rgbf000152-resize_5/000103_2014-05-14_22-01-17_260595134347_rgbf000152-resize_5-target.png,125,1.993,4,3596,125,feet,jsons/VE125_randls_29.json,584930,988327,30,Man
51,102409,DepthScenes,duration_manipulation_targetAtFixation,jsons/VE125_randls_29.json,http://54.235.29.9/FacialAge/BNav_EC2/DepthDuration/v2_depth_duration_MTurk/v2_DepthDuration_HTML.html#159,159,1440,764,1440,900,9-4-2022,10-9-19,52,depth_duration_stimuli/000906_2014-06-08_13-35-43_260595134347_rgbf000155-resize_1/000906_2014-06-08_13-35-43_260595134347_rgbf000155-resize_1-target.png,125,2.8489999999999998,5,5832,125,feet,jsons/VE125_randls_29.json,584930,988327,30,Man
52,102409,DepthScenes,duration_manipulation_targetAtFixation,jsons/VE125_randls_29.json,http://54.235.29.9/FacialAge/BNav_EC2/DepthDuration/v2_depth_duration_MTurk/v2_DepthDuration_HTML.html#159,159,1440,764,1440,900,9-4-2022,10-9-19,53,depth_duration_stimuli/002805_2014-06-22_19-54-03_094959634447_rgbf000079-resize_1/002805_2014-06-22_19-54-03_094959634447_rgbf000079-resize_1-target.png,125,3.1439999999999997,6,2581,125,feet,jsons/VE125_randls_29.json,584930,988327,30,Man
53,102409,DepthScenes,duration_manipulation_targetAtFixation,jsons/VE125_randls_29.json,http://54.235.29.9/FacialAge/BNav_EC2/DepthDuration/v2_depth_duration_MTurk/v2_DepthDuration_HTML.html#159,159,1440,764,1440,900,9-4-2022,10-9-19,54,depth_duration_stimuli/002788_2014-06-22_19-36-03_094959634447_rgbf000088-resize_2/002788_2014-06-22_19-36-03_094959634447_rgbf000088-resize_2-target.png,125,1.6465,4,3755,125,feet,jsons/VE125_randls_29.json,584930,988327,30,Man
54,102409,DepthScenes,duration_manipulation_targetAtFixation,jsons/VE125_randls_29.json,http://54.235.29.9/FacialAge/BNav_EC2/DepthDuration/v2_depth_duration_MTurk/v2_DepthDuration_HTML.html#159,159,1440,764,1440,900,9-4-2022,10-9-19,55,depth_duration_stimuli/000749_2014-06-08_21-55-06_260595134347_rgbf000070-resize_2/000749_2014-06-08_21-55-06_260595134347_rgbf000070-resize_2-target.png,125,2.331,3,2238,124,feet,jsons/VE125_randls_29.json,584930,988327,30,Man
55,102409,DepthScenes,duration_manipulation_targetAtFixation,jsons/VE125_randls_29.json,http://54.235.29.9/FacialAge/BNav_EC2/DepthDuration/v2_depth_duration_MTurk/v2_DepthDuration_HTML.html#159,159,1440,764,1440,900,9-4-2022,10-9-19,56,depth_duration_stimuli/000447_2014-06-08_16-15-46_260595134347_rgbf000130-resize_1/000447_2014-06-08_16-15-46_260595134347_rgbf000130-resize_1-target.png,125,4.479,8,3263,125,feet,jsons/VE125_randls_29.json,584930,988327,30,Man
56,102409,DepthScenes,duration_manipulation_targetAtFixation,jsons/VE125_randls_29.json,http://54.235.29.9/FacialAge/BNav_EC2/DepthDuration/v2_depth_duration_MTurk/v2_DepthDuration_HTML.html#159,159,1440,764,1440,900,9-4-2022,10-9-19,57,depth_duration_stimuli/001447_2014-06-19_17-00-32_260595134347_rgbf000082-resize_5/001447_2014-06-19_17-00-32_260595134347_rgbf000082-resize_5-target.png,125,4.13775,4,5101,125,feet,jsons/VE125_randls_29.json,584930,988327,30,Man
57,102409,DepthScenes,duration_manipulation_targetAtFixation,jsons/VE125_randls_29.json,http://54.235.29.9/FacialAge/BNav_EC2/DepthDuration/v2_depth_duration_MTurk/v2_DepthDuration_HTML.html#159,159,1440,764,1440,900,9-4-2022,10-9-19,58,depth_duration_stimuli/000739_2014-06-08_18-45-58_260595134347_rgbf000068-resize_1/000739_2014-06-08_18-45-58_260595134347_rgbf000068-resize_1-target.png,125,3.534,5,15627,122,feet,jsons/VE125_randls_29.json,584930,988327,30,Man
58,102409,DepthScenes,duration_manipulation_targetAtFixation,jsons/VE125_randls_29.json,http://54.235.29.9/FacialAge/BNav_EC2/DepthDuration/v2_depth_duration_MTurk/v2_DepthDuration_HTML.html#159,159,1440,764,1440,900,9-4-2022,10-9-19,59,depth_duration_stimuli/000734_2014-06-08_17-39-11_260595134347_rgbf000128-resize_2/000734_2014-06-08_17-39-11_260595134347_rgbf000128-resize_2-target.png,125,4.098,4,1801,123,feet,jsons/VE125_randls_29.json,584930,988327,30,Man
59,102409,DepthScenes,duration_manipulation_targetAtFixation,jsons/VE125_randls_29.json,http://54.235.29.9/FacialAge/BNav_EC2/DepthDuration/v2_depth_duration_MTurk/v2_DepthDuration_HTML.html#159,159,1440,764,1440,900,9-4-2022,10-9-19,60,depth_duration_stimuli/002663_2014-06-13_15-50-26_094959634447_rgbf000075-resize_1/002663_2014-06-13_15-50-26_094959634447_rgbf000075-resize_1-target.png,125,4.7495,6,1808,123,feet,jsons/VE125_randls_29.json,584930,988327,30,Man
60,102409,DepthScenes,duration_manipulation_targetAtFixation,jsons/VE125_randls_29.json,http://54.235.29.9/FacialAge/BNav_EC2/DepthDuration/v2_depth_duration_MTurk/v2_DepthDuration_HTML.html#159,159,1440,764,1440,900,9-4-2022,10-9-19,61,depth_duration_stimuli/000409_2014-06-04_19-23-33_260595134347_rgbf000067-resize_0/000409_2014-06-04_19-23-33_260595134347_rgbf000067-resize_0-target.png,125,3.7335,5,1747,126,feet,jsons/VE125_randls_29.json,584930,988327,30,Man
61,102409,DepthScenes,duration_manipulation_targetAtFixation,jsons/VE125_randls_29.json,http://54.235.29.9/FacialAge/BNav_EC2/DepthDuration/v2_depth_duration_MTurk/v2_DepthDuration_HTML.html#159,159,1440,764,1440,900,9-4-2022,10-9-19,62,depth_duration_stimuli/001810_2014-06-26_20-51-35_260595134347_rgbf000040-resize_3/001810_2014-06-26_20-51-35_260595134347_rgbf000040-resize_3-target.png,125,2.2525,4,3685,123,feet,jsons/VE125_randls_29.json,584930,988327,30,Man
62,102409,DepthScenes,duration_manipulation_targetAtFixation,jsons/VE125_randls_29.json,http://54.235.29.9/FacialAge/BNav_EC2/DepthDuration/v2_depth_duration_MTurk/v2_DepthDuration_HTML.html#159,159,1440,764,1440,900,9-4-2022,10-9-19,63,depth_duration_stimuli/003010_2014-06-15_12-54-35_094959634447_rgbf000112-resize_0/003010_2014-06-15_12-54-35_094959634447_rgbf000112-resize_0-target.png,125,3.1185,4,4341,124,feet,jsons/VE125_randls_29.json,584930,988327,30,Man
63,102409,DepthScenes,duration_manipulation_targetAtFixation,jsons/VE125_randls_29.json,http://54.235.29.9/FacialAge/BNav_EC2/DepthDuration/v2_depth_duration_MTurk/v2_DepthDuration_HTML.html#159,159,1440,764,1440,900,9-4-2022,10-9-19,64,depth_duration_stimuli/001133_2014-06-17_14-49-16_260595134347_rgbf000100-resize_0/001133_2014-06-17_14-49-16_260595134347_rgbf000100-resize_0-target.png,125,4.2115,5,2479,121,feet,jsons/VE125_randls_29.json,584930,988327,30,Man
64,102409,DepthScenes,duration_manipulation_targetAtFixation,jsons/VE125_randls_29.json,http://54.235.29.9/FacialAge/BNav_EC2/DepthDuration/v2_depth_duration_MTurk/v2_DepthDuration_HTML.html#159,159,1440,764,1440,900,9-4-2022,10-9-19,65,depth_duration_stimuli/001132_2014-06-17_14-48-54_260595134347_rgbf000100-resize_2/001132_2014-06-17_14-48-54_260595134347_rgbf000100-resize_2-target.png,125,3.753,4,2396,125,feet,jsons/VE125_randls_29.json,584930,988327,30,Man
65,102409,DepthScenes,duration_manipulation_targetAtFixation,jsons/VE125_randls_29.json,http://54.235.29.9/FacialAge/BNav_EC2/DepthDuration/v2_depth_duration_MTurk/v2_DepthDuration_HTML.html#159,159,1440,764,1440,900,9-4-2022,10-9-19,66,depth_duration_stimuli/001222_2014-06-17_16-24-06_260595134347_rgbf000073-resize_0/001222_2014-06-17_16-24-06_260595134347_rgbf000073-resize-original.jpg,125,1.4385,0,3716,125,feet,jsons/VE125_randls_29.json,584930,988327,30,Man
66,102409,DepthScenes,duration_manipulation_targetAtFixation,jsons/VE125_randls_29.json,http://54.235.29.9/FacialAge/BNav_EC2/DepthDuration/v2_depth_duration_MTurk/v2_DepthDuration_HTML.html#159,159,1440,764,1440,900,9-4-2022,10-9-19,67,depth_duration_stimuli/002600_2014-06-24_14-27-04_094959634447_rgbf000074-resize_2/002600_2014-06-24_14-27-04_094959634447_rgbf000074-resize_2-target.png,125,2.7575,4,3881,125,feet,jsons/VE125_randls_29.json,584930,988327,30,Man
67,102409,DepthScenes,duration_manipulation_targetAtFixation,jsons/VE125_randls_29.json,http://54.235.29.9/FacialAge/BNav_EC2/DepthDuration/v2_depth_duration_MTurk/v2_DepthDuration_HTML.html#159,159,1440,764,1440,900,9-4-2022,10-9-19,68,depth_duration_stimuli/003228_2014-05-14_13-42-35_094959634447_rgbf000101-resize_1/003228_2014-05-14_13-42-35_094959634447_rgbf000101-resize_1-target.png,125,1.9680000000000002,3,3185,121,feet,jsons/VE125_randls_29.json,584930,988327,30,Man
68,102409,DepthScenes,duration_manipulation_targetAtFixation,jsons/VE125_randls_29.json,http://54.235.29.9/FacialAge/BNav_EC2/DepthDuration/v2_depth_duration_MTurk/v2_DepthDuration_HTML.html#159,159,1440,764,1440,900,9-4-2022,10-9-19,69,depth_duration_stimuli/001417_2014-06-19_16-25-36_260595134347_rgbf000115-resize_5/001417_2014-06-19_16-25-36_260595134347_rgbf000115-resize_5-target.png,125,4.6255,5,2443,124,feet,jsons/VE125_randls_29.json,584930,988327,30,Man
69,102409,DepthScenes,duration_manipulation_targetAtFixation,jsons/VE125_randls_29.json,http://54.235.29.9/FacialAge/BNav_EC2/DepthDuration/v2_depth_duration_MTurk/v2_DepthDuration_HTML.html#159,159,1440,764,1440,900,9-4-2022,10-9-19,70,depth_duration_stimuli/003081_2014-06-15_15-19-16_094959634447_rgbf000150-resize_1/003081_2014-06-15_15-19-16_094959634447_rgbf000150-resize_1-target.png,125,3.9125,6,1749,126,feet,jsons/VE125_randls_29.json,584930,988327,30,Man
70,102409,DepthScenes,duration_manipulation_targetAtFixation,jsons/VE125_randls_29.json,http://54.235.29.9/FacialAge/BNav_EC2/DepthDuration/v2_depth_duration_MTurk/v2_DepthDuration_HTML.html#159,159,1440,764,1440,900,9-4-2022,10-9-19,71,depth_duration_stimuli/002905_2014-06-03_18-04-43_094959634447_rgbf000151-resize_2/002905_2014-06-03_18-04-43_094959634447_rgbf000151-resize_2-target.png,125,2.0295,3,2344,124,feet,jsons/VE125_randls_29.json,584930,988327,30,Man
71,102409,DepthScenes,duration_manipulation_targetAtFixation,jsons/VE125_randls_29.json,http://54.235.29.9/FacialAge/BNav_EC2/DepthDuration/v2_depth_duration_MTurk/v2_DepthDuration_HTML.html#159,159,1440,764,1440,900,9-4-2022,10-9-19,72,depth_duration_stimuli/003423_2014-05-21_10-23-26_094959634447_rgbf002665-resize_2/003423_2014-05-21_10-23-26_094959634447_rgbf002665-resize_2-target.png,125,3.2575,7,3194,126,feet,jsons/VE125_randls_29.json,584930,988327,30,Man
72,102409,DepthScenes,duration_manipulation_targetAtFixation,jsons/VE125_randls_29.json,http://54.235.29.9/FacialAge/BNav_EC2/DepthDuration/v2_depth_duration_MTurk/v2_DepthDuration_HTML.html#159,159,1440,764,1440,900,9-4-2022,10-9-19,73,depth_duration_stimuli/000436_2014-06-09_22-25-11_260595134347_rgbf000137-resize_1/000436_2014-06-09_22-25-11_260595134347_rgbf000137-resize_1-target.png,125,4.0705,7,5181,125,feet,jsons/VE125_randls_29.json,584930,988327,30,Man
73,102409,DepthScenes,duration_manipulation_targetAtFixation,jsons/VE125_randls_29.json,http://54.235.29.9/FacialAge/BNav_EC2/DepthDuration/v2_depth_duration_MTurk/v2_DepthDuration_HTML.html#159,159,1440,764,1440,900,9-4-2022,10-9-19,74,depth_duration_stimuli/002444_2014-06-28_20-32-08_260595134347_rgbf000027-resize_0/002444_2014-06-28_20-32-08_260595134347_rgbf000027-resize_0-target.png,125,4.388999999999999,5,3140,122,feet,jsons/VE125_randls_29.json,584930,988327,30,Man
74,102409,DepthScenes,duration_manipulation_targetAtFixation,jsons/VE125_randls_29.json,http://54.235.29.9/FacialAge/BNav_EC2/DepthDuration/v2_depth_duration_MTurk/v2_DepthDuration_HTML.html#159,159,1440,764,1440,900,9-4-2022,10-9-19,75,depth_duration_stimuli/002989_2014-06-15_12-25-03_094959634447_rgbf000150-resize_3/002989_2014-06-15_12-25-03_094959634447_rgbf000150-resize_3-target.png,125,4.1975,6,1847,124,feet,jsons/VE125_randls_29.json,584930,988327,30,Man
75,102409,DepthScenes,duration_manipulation_targetAtFixation,jsons/VE125_randls_29.json,http://54.235.29.9/FacialAge/BNav_EC2/DepthDuration/v2_depth_duration_MTurk/v2_DepthDuration_HTML.html#159,159,1440,764,1440,900,9-4-2022,10-9-19,76,depth_duration_stimuli/000866_2014-06-09_20-45-42_260595134347_rgbf000139-resize_1/000866_2014-06-09_20-45-42_260595134347_rgbf000139-resize_1-target.png,125,3.2155,4,3355,128,feet,jsons/VE125_randls_29.json,584930,988327,30,Man
76,102409,DepthScenes,duration_manipulation_targetAtFixation,jsons/VE125_randls_29.json,http://54.235.29.9/FacialAge/BNav_EC2/DepthDuration/v2_depth_duration_MTurk/v2_DepthDuration_HTML.html#159,159,1440,764,1440,900,9-4-2022,10-9-19,77,depth_duration_stimuli/003292_2014-05-14_21-53-49_094959634447_rgbf000100-resize_2/003292_2014-05-14_21-53-49_094959634447_rgbf000100-resize_2-target.png,125,3.4815,3,2251,127,feet,jsons/VE125_randls_29.json,584930,988327,30,Man
77,102409,DepthScenes,duration_manipulation_targetAtFixation,jsons/VE125_randls_29.json,http://54.235.29.9/FacialAge/BNav_EC2/DepthDuration/v2_depth_duration_MTurk/v2_DepthDuration_HTML.html#159,159,1440,764,1440,900,9-4-2022,10-9-19,78,depth_duration_stimuli/002639_2014-06-24_14-51-37_094959634447_rgbf000074-resize_4/002639_2014-06-24_14-51-37_094959634447_rgbf000074-resize_4-target.png,125,4.0375,5,2241,125,feet,jsons/VE125_randls_29.json,584930,988327,30,Man
78,102409,DepthScenes,duration_manipulation_targetAtFixation,jsons/VE125_randls_29.json,http://54.235.29.9/FacialAge/BNav_EC2/DepthDuration/v2_depth_duration_MTurk/v2_DepthDuration_HTML.html#159,159,1440,764,1440,900,9-4-2022,10-9-19,79,depth_duration_stimuli/002725_2014-06-22_11-47-51_094959634447_rgbf000070-resize_1/002725_2014-06-22_11-47-51_094959634447_rgbf000070-resize_1-target.png,125,2.195,3,1915,124,feet,jsons/VE125_randls_29.json,584930,988327,30,Man
79,102409,DepthScenes,duration_manipulation_targetAtFixation,jsons/VE125_randls_29.json,http://54.235.29.9/FacialAge/BNav_EC2/DepthDuration/v2_depth_duration_MTurk/v2_DepthDuration_HTML.html#159,159,1440,764,1440,900,9-4-2022,10-9-19,80,depth_duration_stimuli/002344_2014-06-28_20-06-29_260595134347_rgbf000030-resize_1/002344_2014-06-28_20-06-29_260595134347_rgbf000030-resize_1-target.png,125,1.5795,2,3288,127,feet,jsons/VE125_randls_29.json,584930,988327,30,Man
80,102409,DepthScenes,duration_manipulation_targetAtFixation,jsons/VE125_randls_29.json,http://54.235.29.9/FacialAge/BNav_EC2/DepthDuration/v2_depth_duration_MTurk/v2_DepthDuration_HTML.html#159,159,1440,764,1440,900,9-4-2022,10-9-19,81,depth_duration_stimuli/000736_2014-06-08_18-24-15_260595134347_rgbf000206-resize_3/000736_2014-06-08_18-24-15_260595134347_rgbf000206-resize_3-target.png,125,3.515,4,2302,125,feet,jsons/VE125_randls_29.json,584930,988327,30,Man
81,102409,DepthScenes,duration_manipulation_targetAtFixation,jsons/VE125_randls_29.json,http://54.235.29.9/FacialAge/BNav_EC2/DepthDuration/v2_depth_duration_MTurk/v2_DepthDuration_HTML.html#159,159,1440,764,1440,900,9-4-2022,10-9-19,82,depth_duration_stimuli/000137_2014-05-20_17-04-49_260595134347_rgbf000120-resize_1/000137_2014-05-20_17-04-49_260595134347_rgbf000120-resize_1-target.png,125,3.786,3,2996,123,feet,jsons/VE125_randls_29.json,584930,988327,30,Man
82,102409,DepthScenes,duration_manipulation_targetAtFixation,jsons/VE125_randls_29.json,http://54.235.29.9/FacialAge/BNav_EC2/DepthDuration/v2_depth_duration_MTurk/v2_DepthDuration_HTML.html#159,159,1440,764,1440,900,9-4-2022,10-9-19,83,depth_duration_stimuli/002748_2014-06-22_19-07-22_094959634447_rgbf000078-resize_1/002748_2014-06-22_19-07-22_094959634447_rgbf000078-resize_1-target.png,125,4.6705,7,4243,122,feet,jsons/VE125_randls_29.json,584930,988327,30,Man
83,102409,DepthScenes,duration_manipulation_targetAtFixation,jsons/VE125_randls_29.json,http://54.235.29.9/FacialAge/BNav_EC2/DepthDuration/v2_depth_duration_MTurk/v2_DepthDuration_HTML.html#159,159,1440,764,1440,900,9-4-2022,10-9-19,84,depth_duration_stimuli/002995_2014-06-15_12-31-26_094959634447_rgbf000150-resize_1/002995_2014-06-15_12-31-26_094959634447_rgbf000150-resize_1-target.png,125,3.8360000000000003,5,4495,127,feet,jsons/VE125_randls_29.json,584930,988327,30,Man
84,102409,DepthScenes,duration_manipulation_targetAtFixation,jsons/VE125_randls_29.json,http://54.235.29.9/FacialAge/BNav_EC2/DepthDuration/v2_depth_duration_MTurk/v2_DepthDuration_HTML.html#159,159,1440,764,1440,900,9-4-2022,10-9-19,85,depth_duration_stimuli/000773_2014-06-08_22-24-54_260595134347_rgbf000093-resize_1/000773_2014-06-08_22-24-54_260595134347_rgbf000093-resize_1-target.png,125,4.973,6,2224,125,feet,jsons/VE125_randls_29.json,584930,988327,30,Man
85,102409,DepthScenes,duration_manipulation_targetAtFixation,jsons/VE125_randls_29.json,http://54.235.29.9/FacialAge/BNav_EC2/DepthDuration/v2_depth_duration_MTurk/v2_DepthDuration_HTML.html#159,159,1440,764,1440,900,9-4-2022,10-9-19,86,depth_duration_stimuli/002414_2014-06-28_20-24-58_260595134347_rgbf000067-resize_4/002414_2014-06-28_20-24-58_260595134347_rgbf000067-resize_4-target.png,125,4.363,6,1440,124,feet,jsons/VE125_randls_29.json,584930,988327,30,Man
86,102409,DepthScenes,duration_manipulation_targetAtFixation,jsons/VE125_randls_29.json,http://54.235.29.9/FacialAge/BNav_EC2/DepthDuration/v2_depth_duration_MTurk/v2_DepthDuration_HTML.html#159,159,1440,764,1440,900,9-4-2022,10-9-19,87,depth_duration_stimuli/000469_2014-06-09_19-42-10_260595134347_rgbf000081-resize_1/000469_2014-06-09_19-42-10_260595134347_rgbf000081-resize_1-target.png,125,1.652,2,1876,122,feet,jsons/VE125_randls_29.json,584930,988327,30,Man
87,102409,DepthScenes,duration_manipulation_targetAtFixation,jsons/VE125_randls_29.json,http://54.235.29.9/FacialAge/BNav_EC2/DepthDuration/v2_depth_duration_MTurk/v2_DepthDuration_HTML.html#159,159,1440,764,1440,900,9-4-2022,10-9-19,88,depth_duration_stimuli/000483_2014-06-09_20-41-45_260595134347_rgbf000116-resize_4/000483_2014-06-09_20-41-45_260595134347_rgbf000116-resize_4-target.png,125,1.337,2,1689,125,feet,jsons/VE125_randls_29.json,584930,988327,30,Man
88,102409,DepthScenes,duration_manipulation_targetAtFixation,jsons/VE125_randls_29.json,http://54.235.29.9/FacialAge/BNav_EC2/DepthDuration/v2_depth_duration_MTurk/v2_DepthDuration_HTML.html#159,159,1440,764,1440,900,9-4-2022,10-9-19,89,depth_duration_stimuli/000506_2014-06-08_23-21-00_260595134347_rgbf000070-resize_7/000506_2014-06-08_23-21-00_260595134347_rgbf000070-resize_7-target.png,125,4.0585,4,2592,126,feet,jsons/VE125_randls_29.json,584930,988327,30,Man
89,102409,DepthScenes,duration_manipulation_targetAtFixation,jsons/VE125_randls_29.json,http://54.235.29.9/FacialAge/BNav_EC2/DepthDuration/v2_depth_duration_MTurk/v2_DepthDuration_HTML.html#159,159,1440,764,1440,900,9-4-2022,10-9-19,90,depth_duration_stimuli/003079_2014-06-15_15-18-20_094959634447_rgbf000152-resize_8/003079_2014-06-15_15-18-20_094959634447_rgbf000152-resize_8-target.png,125,2.8775,4,2236,124,feet,jsons/VE125_randls_29.json,584930,988327,30,Man
90,102409,DepthScenes,duration_manipulation_targetAtFixation,jsons/VE125_randls_29.json,http://54.235.29.9/FacialAge/BNav_EC2/DepthDuration/v2_depth_duration_MTurk/v2_DepthDuration_HTML.html#159,159,1440,764,1440,900,9-4-2022,10-9-19,91,depth_duration_stimuli/002043_2014-06-24_20-29-38_260595134347_rgbf000039-resize_4/002043_2014-06-24_20-29-38_260595134347_rgbf000039-resize_4-target.png,125,2.8435,4,4622,121,feet,jsons/VE125_randls_29.json,584930,988327,30,Man
91,102409,DepthScenes,duration_manipulation_targetAtFixation,jsons/VE125_randls_29.json,http://54.235.29.9/FacialAge/BNav_EC2/DepthDuration/v2_depth_duration_MTurk/v2_DepthDuration_HTML.html#159,159,1440,764,1440,900,9-4-2022,10-9-19,92,depth_duration_stimuli/003048_2014-06-15_13-49-43_094959634447_rgbf000150-resize_1/003048_2014-06-15_13-49-43_094959634447_rgbf000150-resize_1-target.png,125,4.0035,5,2180,124,feet,jsons/VE125_randls_29.json,584930,988327,30,Man
92,102409,DepthScenes,duration_manipulation_targetAtFixation,jsons/VE125_randls_29.json,http://54.235.29.9/FacialAge/BNav_EC2/DepthDuration/v2_depth_duration_MTurk/v2_DepthDuration_HTML.html#159,159,1440,764,1440,900,9-4-2022,10-9-19,93,depth_duration_stimuli/002784_2014-06-22_19-26-30_094959634447_rgbf000083-resize_3/002784_2014-06-22_19-26-30_094959634447_rgbf000083-resize_3-target.png,125,1.8046666666667,2,3976,126,feet,jsons/VE125_randls_29.json,584930,988327,30,Man
93,102409,DepthScenes,duration_manipulation_targetAtFixation,jsons/VE125_randls_29.json,http://54.235.29.9/FacialAge/BNav_EC2/DepthDuration/v2_depth_duration_MTurk/v2_DepthDuration_HTML.html#159,159,1440,764,1440,900,9-4-2022,10-9-19,94,depth_duration_stimuli/001100_2014-06-15_17-46-26_260595134347_rgbf000225-resize_2/001100_2014-06-15_17-46-26_260595134347_rgbf000225-resize_2-target.png,125,2.24,2,2895,123,feet,jsons/VE125_randls_29.json,584930,988327,30,Man
94,102409,DepthScenes,duration_manipulation_targetAtFixation,jsons/VE125_randls_29.json,http://54.235.29.9/FacialAge/BNav_EC2/DepthDuration/v2_depth_duration_MTurk/v2_DepthDuration_HTML.html#159,159,1440,764,1440,900,9-4-2022,10-9-19,95,depth_duration_stimuli/001244_2014-06-17_16-47-45_260595134347_rgbf000030-resize_4/001244_2014-06-17_16-47-45_260595134347_rgbf000030-resize_4-target.png,125,2.0425,3,2728,125,feet,jsons/VE125_randls_29.json,584930,988327,30,Man
95,102409,DepthScenes,duration_manipulation_targetAtFixation,jsons/VE125_randls_29.json,http://54.235.29.9/FacialAge/BNav_EC2/DepthDuration/v2_depth_duration_MTurk/v2_DepthDuration_HTML.html#159,159,1440,764,1440,900,9-4-2022,10-9-19,96,depth_duration_stimuli/003495_2014-05-21_16-01-51_094959634447_rgbf000100-resize_3/003495_2014-05-21_16-01-51_094959634447_rgbf000100-resize_3-target.png,125,1.6255,2,2029,124,feet,jsons/VE125_randls_29.json,584930,988327,30,Man
96,102409,DepthScenes,duration_manipulation_targetAtFixation,jsons/VE125_randls_29.json,http://54.235.29.9/FacialAge/BNav_EC2/DepthDuration/v2_depth_duration_MTurk/v2_DepthDuration_HTML.html#159,159,1440,764,1440,900,9-4-2022,10-9-19,97,depth_duration_stimuli/001056_2014-06-08_18-46-44_260595134347_rgbf000068-resize_0/001056_2014-06-08_18-46-44_260595134347_rgbf000068-resize_0-target.png,125,2.6625,4,3006,120,feet,jsons/VE125_randls_29.json,584930,988327,30,Man
97,102409,DepthScenes,duration_manipulation_targetAtFixation,jsons/VE125_randls_29.json,http://54.235.29.9/FacialAge/BNav_EC2/DepthDuration/v2_depth_duration_MTurk/v2_DepthDuration_HTML.html#159,159,1440,764,1440,900,9-4-2022,10-9-19,98,depth_duration_stimuli/002199_2014-06-28_18-33-56_260595134347_rgbf000074-resize_0/002199_2014-06-28_18-33-56_260595134347_rgbf000074-resize_0-target.png,125,1.996,2,2410,126,feet,jsons/VE125_randls_29.json,584930,988327,30,Man
98,102409,DepthScenes,duration_manipulation_targetAtFixation,jsons/VE125_randls_29.json,http://54.235.29.9/FacialAge/BNav_EC2/DepthDuration/v2_depth_duration_MTurk/v2_DepthDuration_HTML.html#159,159,1440,764,1440,900,9-4-2022,10-9-19,99,depth_duration_stimuli/001540_2014-06-20_17-01-05_260595134347_rgbf000086-resize_2/001540_2014-06-20_17-01-05_260595134347_rgbf000086-resize-original.jpg,125,1.459,0,6760,124,feet,jsons/VE125_randls_29.json,584930,988327,30,Man
99,102409,DepthScenes,duration_manipulation_targetAtFixation,jsons/VE125_randls_29.json,http://54.235.29.9/FacialAge/BNav_EC2/DepthDuration/v2_depth_duration_MTurk/v2_DepthDuration_HTML.html#159,159,1440,764,1440,900,9-4-2022,10-9-19,100,depth_duration_stimuli/001570_2014-06-20_17-21-09_260595134347_rgbf000135-resize_4/001570_2014-06-20_17-21-09_260595134347_rgbf000135-resize_4-target.png,125,4.467,5,4257,124,feet,jsons/VE125_randls_29.json,584930,988327,30,Man
100,102409,DepthScenes,duration_manipulation_targetAtFixation,jsons/VE125_randls_29.json,http://54.235.29.9/FacialAge/BNav_EC2/DepthDuration/v2_depth_duration_MTurk/v2_DepthDuration_HTML.html#159,159,1440,764,1440,900,9-4-2022,10-9-19,101,depth_duration_stimuli/001392_2014-06-19_16-07-59_260595134347_rgbf000046-resize_1/001392_2014-06-19_16-07-59_260595134347_rgbf000046-resize_1-target.png,125,4.135,4,3767,125,feet,jsons/VE125_randls_29.json,584930,988327,30,Man
101,102409,DepthScenes,duration_manipulation_targetAtFixation,jsons/VE125_randls_29.json,http://54.235.29.9/FacialAge/BNav_EC2/DepthDuration/v2_depth_duration_MTurk/v2_DepthDuration_HTML.html#159,159,1440,764,1440,900,9-4-2022,10-9-19,102,depth_duration_stimuli/000929_2014-06-09_16-33-19_260595134347_rgbf000139-resize_0/000929_2014-06-09_16-33-19_260595134347_rgbf000139-resize_0-target.png,125,2.8680000000000003,4,2631,121,feet,jsons/VE125_randls_29.json,584930,988327,30,Man
102,102409,DepthScenes,duration_manipulation_targetAtFixation,jsons/VE125_randls_29.json,http://54.235.29.9/FacialAge/BNav_EC2/DepthDuration/v2_depth_duration_MTurk/v2_DepthDuration_HTML.html#159,159,1440,764,1440,900,9-4-2022,10-9-19,103,depth_duration_stimuli/000457_2014-06-08_16-52-43_260595134347_rgbf000199-resize_1/000457_2014-06-08_16-52-43_260595134347_rgbf000199-resize_1-target.png,125,3.6489999999999996,3,3167,120,feet,jsons/VE125_randls_29.json,584930,988327,30,Man
103,102409,DepthScenes,duration_manipulation_targetAtFixation,jsons/VE125_randls_29.json,http://54.235.29.9/FacialAge/BNav_EC2/DepthDuration/v2_depth_duration_MTurk/v2_DepthDuration_HTML.html#159,159,1440,764,1440,900,9-4-2022,10-9-19,104,depth_duration_stimuli/000522_2014-06-08_13-35-06_260595134347_rgbf000244-resize_1/000522_2014-06-08_13-35-06_260595134347_rgbf000244-resize_1-target.png,125,2.3715,2,2336,123,feet,jsons/VE125_randls_29.json,584930,988327,30,Man
104,102409,DepthScenes,duration_manipulation_targetAtFixation,jsons/VE125_randls_29.json,http://54.235.29.9/FacialAge/BNav_EC2/DepthDuration/v2_depth_duration_MTurk/v2_DepthDuration_HTML.html#159,159,1440,764,1440,900,9-4-2022,10-9-19,105,depth_duration_stimuli/002949_2014-06-26_15-57-42_094959634447_rgbf000079-resize_1/002949_2014-06-26_15-57-42_094959634447_rgbf000079-resize_1-target.png,125,1.8915,2,1884,125,feet,jsons/VE125_randls_29.json,584930,988327,30,Man
105,102409,DepthScenes,duration_manipulation_targetAtFixation,jsons/VE125_randls_29.json,http://54.235.29.9/FacialAge/BNav_EC2/DepthDuration/v2_depth_duration_MTurk/v2_DepthDuration_HTML.html#159,159,1440,764,1440,900,9-4-2022,10-9-19,106,depth_duration_stimuli/003070_2014-06-15_14-58-27_094959634447_rgbf000150-resize_3/003070_2014-06-15_14-58-27_094959634447_rgbf000150-resize_3-target.png,125,2.9415,4,2254,124,feet,jsons/VE125_randls_29.json,584930,988327,30,Man
106,102409,DepthScenes,duration_manipulation_targetAtFixation,jsons/VE125_randls_29.json,http://54.235.29.9/FacialAge/BNav_EC2/DepthDuration/v2_depth_duration_MTurk/v2_DepthDuration_HTML.html#159,159,1440,764,1440,900,9-4-2022,10-9-19,107,depth_duration_stimuli/000943_2014-06-09_19-31-07_260595134347_rgbf000128-resize_1/000943_2014-06-09_19-31-07_260595134347_rgbf000128-resize_1-target.png,125,1.9765,2,1872,126,feet,jsons/VE125_randls_29.json,584930,988327,30,Man
107,102409,DepthScenes,duration_manipulation_targetAtFixation,jsons/VE125_randls_29.json,http://54.235.29.9/FacialAge/BNav_EC2/DepthDuration/v2_depth_duration_MTurk/v2_DepthDuration_HTML.html#159,159,1440,764,1440,900,9-4-2022,10-9-19,108,depth_duration_stimuli/001199_2014-06-17_16-03-48_260595134347_rgbf000077-resize_0/001199_2014-06-17_16-03-48_260595134347_rgbf000077-resize_0-target.png,125,3.4375,5,2252,121,feet,jsons/VE125_randls_29.json,584930,988327,30,Man
108,102409,DepthScenes,duration_manipulation_targetAtFixation,jsons/VE125_randls_29.json,http://54.235.29.9/FacialAge/BNav_EC2/DepthDuration/v2_depth_duration_MTurk/v2_DepthDuration_HTML.html#159,159,1440,764,1440,900,9-4-2022,10-9-19,109,depth_duration_stimuli/000502_2014-06-08_23-02-32_260595134347_rgbf000063-resize_4/000502_2014-06-08_23-02-32_260595134347_rgbf000063-resize_4-target.png,125,2.431,3,2673,124,feet,jsons/VE125_randls_29.json,584930,988327,30,Man
109,102409,DepthScenes,duration_manipulation_targetAtFixation,jsons/VE125_randls_29.json,http://54.235.29.9/FacialAge/BNav_EC2/DepthDuration/v2_depth_duration_MTurk/v2_DepthDuration_HTML.html#159,159,1440,764,1440,900,9-4-2022,10-9-19,110,depth_duration_stimuli/001167_2014-06-17_15-38-07_260595134347_rgbf000108-resize_0/001167_2014-06-17_15-38-07_260595134347_rgbf000108-resize_0-target.png,125,1.8505,2,2589,122,feet,jsons/VE125_randls_29.json,584930,988327,30,Man
110,102409,DepthScenes,duration_manipulation_targetAtFixation,jsons/VE125_randls_29.json,http://54.235.29.9/FacialAge/BNav_EC2/DepthDuration/v2_depth_duration_MTurk/v2_DepthDuration_HTML.html#159,159,1440,764,1440,900,9-4-2022,10-9-19,111,depth_duration_stimuli/003587_2014-05-23_16-48-02_094959634447_rgbf002384-resize_2/003587_2014-05-23_16-48-02_094959634447_rgbf002384-resize_2-target.png,125,1.357,1,1876,124,feet,jsons/VE125_randls_29.json,584930,988327,30,Man
111,102409,DepthScenes,duration_manipulation_targetAtFixation,jsons/VE125_randls_29.json,http://54.235.29.9/FacialAge/BNav_EC2/DepthDuration/v2_depth_duration_MTurk/v2_DepthDuration_HTML.html#159,159,1440,764,1440,900,9-4-2022,10-9-19,112,depth_duration_stimuli/000758_2014-06-08_22-05-08_260595134347_rgbf000085-resize_0/000758_2014-06-08_22-05-08_260595134347_rgbf000085-resize_0-target.png,125,3.3810000000000002,4,2691,120,feet,jsons/VE125_randls_29.json,584930,988327,30,Man
112,102409,DepthScenes,duration_manipulation_targetAtFixation,jsons/VE125_randls_29.json,http://54.235.29.9/FacialAge/BNav_EC2/DepthDuration/v2_depth_duration_MTurk/v2_DepthDuration_HTML.html#159,159,1440,764,1440,900,9-4-2022,10-9-19,113,depth_duration_stimuli/000854_2014-06-09_19-43-13_260595134347_rgbf000066-resize_0/000854_2014-06-09_19-43-13_260595134347_rgbf000066-resize_0-target.png,125,3.068,3,4730,121,feet,jsons/VE125_randls_29.json,584930,988327,30,Man
113,102409,DepthScenes,duration_manipulation_targetAtFixation,jsons/VE125_randls_29.json,http://54.235.29.9/FacialAge/BNav_EC2/DepthDuration/v2_depth_duration_MTurk/v2_DepthDuration_HTML.html#159,159,1440,764,1440,900,9-4-2022,10-9-19,114,depth_duration_stimuli/001806_2014-06-26_20-50-20_260595134347_rgbf000091-resize_1/001806_2014-06-26_20-50-20_260595134347_rgbf000091-resize_1-target.png,125,2.7305,2,2251,121,feet,jsons/VE125_randls_29.json,584930,988327,30,Man
114,102409,DepthScenes,duration_manipulation_targetAtFixation,jsons/VE125_randls_29.json,http://54.235.29.9/FacialAge/BNav_EC2/DepthDuration/v2_depth_duration_MTurk/v2_DepthDuration_HTML.html#159,159,1440,764,1440,900,9-4-2022,10-9-19,115,depth_duration_stimuli/001617_2014-06-20_11-35-32_260595134347_rgbf000066-resize_1/001617_2014-06-20_11-35-32_260595134347_rgbf000066-resize_1-target.png,125,3.7910000000000004,4,1928,123,feet,jsons/VE125_randls_29.json,584930,988327,30,Man
115,102409,DepthScenes,duration_manipulation_targetAtFixation,jsons/VE125_randls_29.json,http://54.235.29.9/FacialAge/BNav_EC2/DepthDuration/v2_depth_duration_MTurk/v2_DepthDuration_HTML.html#159,159,1440,764,1440,900,9-4-2022,10-9-19,116,depth_duration_stimuli/001170_2014-06-17_15-43-44_260595134347_rgbf000096-resize_6/001170_2014-06-17_15-43-44_260595134347_rgbf000096-resize-original.jpg,125,1.1909999999999998,0,2657,124,feet,jsons/VE125_randls_29.json,584930,988327,30,Man
116,102409,DepthScenes,duration_manipulation_targetAtFixation,jsons/VE125_randls_29.json,http://54.235.29.9/FacialAge/BNav_EC2/DepthDuration/v2_depth_duration_MTurk/v2_DepthDuration_HTML.html#159,159,1440,764,1440,900,9-4-2022,10-9-19,117,depth_duration_stimuli/002375_2014-06-28_20-13-44_260595134347_rgbf000032-resize_1/002375_2014-06-28_20-13-44_260595134347_rgbf000032-resize_1-target.png,125,4.0175,3,5013,121,feet,jsons/VE125_randls_29.json,584930,988327,30,Man
117,102409,DepthScenes,duration_manipulation_targetAtFixation,jsons/VE125_randls_29.json,http://54.235.29.9/FacialAge/BNav_EC2/DepthDuration/v2_depth_duration_MTurk/v2_DepthDuration_HTML.html#159,159,1440,764,1440,900,9-4-2022,10-9-19,118,depth_duration_stimuli/002657_2014-06-13_15-29-54_094959634447_rgbf000150-resize_1/002657_2014-06-13_15-29-54_094959634447_rgbf000150-resize_1-target.png,125,4.919,5,2546,123,feet,jsons/VE125_randls_29.json,584930,988327,30,Man
118,102409,DepthScenes,duration_manipulation_targetAtFixation,jsons/VE125_randls_29.json,http://54.235.29.9/FacialAge/BNav_EC2/DepthDuration/v2_depth_duration_MTurk/v2_DepthDuration_HTML.html#159,159,1440,764,1440,900,9-4-2022,10-9-19,119,depth_duration_stimuli/002964_2014-06-08_17-46-11_094959634447_rgbf000091-resize_4/002964_2014-06-08_17-46-11_094959634447_rgbf000091-resize_4-target.png,125,1.6909999999999998,2,2822,121,feet,jsons/VE125_randls_29.json,584930,988327,30,Man
119,102409,DepthScenes,duration_manipulation_targetAtFixation,jsons/VE125_randls_29.json,http://54.235.29.9/FacialAge/BNav_EC2/DepthDuration/v2_depth_duration_MTurk/v2_DepthDuration_HTML.html#159,159,1440,764,1440,900,9-4-2022,10-9-19,120,depth_duration_stimuli/002136_2014-06-25_21-18-03_260595134347_rgbf000109-resize_3/002136_2014-06-25_21-18-03_260595134347_rgbf000109-resize_3-target.png,125,1.9569999999999999,3,2958,122,feet,jsons/VE125_randls_29.json,584930,988327,30,Man
120,102409,DepthScenes,duration_manipulation_targetAtFixation,jsons/VE125_randls_29.json,http://54.235.29.9/FacialAge/BNav_EC2/DepthDuration/v2_depth_duration_MTurk/v2_DepthDuration_HTML.html#159,159,1440,764,1440,900,9-4-2022,10-9-19,121,depth_duration_stimuli/002509_2014-06-24_13-19-22_094959634447_rgbf000077-resize_0/002509_2014-06-24_13-19-22_094959634447_rgbf000077-resize_0-target.png,125,1.3065,2,1913,124,feet,jsons/VE125_randls_29.json,584930,988327,30,Man
121,102409,DepthScenes,duration_manipulation_targetAtFixation,jsons/VE125_randls_29.json,http://54.235.29.9/FacialAge/BNav_EC2/DepthDuration/v2_depth_duration_MTurk/v2_DepthDuration_HTML.html#159,159,1440,764,1440,900,9-4-2022,10-9-19,122,depth_duration_stimuli/003338_2014-05-20_11-01-23_094959634447_rgbf000051-resize_6/003338_2014-05-20_11-01-23_094959634447_rgbf000051-resize_6-target.png,125,1.693,2,1544,125,feet,jsons/VE125_randls_29.json,584930,988327,30,Man
122,102409,DepthScenes,duration_manipulation_targetAtFixation,jsons/VE125_randls_29.json,http://54.235.29.9/FacialAge/BNav_EC2/DepthDuration/v2_depth_duration_MTurk/v2_DepthDuration_HTML.html#159,159,1440,764,1440,900,9-4-2022,10-9-19,123,depth_duration_stimuli/001449_2014-06-19_17-01-27_260595134347_rgbf000116-resize_2/001449_2014-06-19_17-01-27_260595134347_rgbf000116-resize_2-target.png,125,3.452,4,2705,124,feet,jsons/VE125_randls_29.json,584930,988327,30,Man
123,102409,DepthScenes,duration_manipulation_targetAtFixation,jsons/VE125_randls_29.json,http://54.235.29.9/FacialAge/BNav_EC2/DepthDuration/v2_depth_duration_MTurk/v2_DepthDuration_HTML.html#159,159,1440,764,1440,900,9-4-2022,10-9-19,124,depth_duration_stimuli/001450_2014-06-19_17-02-03_260595134347_rgbf000203-resize_4/001450_2014-06-19_17-02-03_260595134347_rgbf000203-resize_4-target.png,125,4.0106666666667,4,2170,125,feet,jsons/VE125_randls_29.json,584930,988327,30,Man
124,102409,DepthScenes,duration_manipulation_targetAtFixation,jsons/VE125_randls_29.json,http://54.235.29.9/FacialAge/BNav_EC2/DepthDuration/v2_depth_duration_MTurk/v2_DepthDuration_HTML.html#159,159,1440,764,1440,900,9-4-2022,10-9-19,125,depth_duration_stimuli/002630_2014-06-24_14-47-50_094959634447_rgbf000055-resize_1/002630_2014-06-24_14-47-50_094959634447_rgbf000055-resize_1-target.png,125,3.0095,6,1977,124,feet,jsons/VE125_randls_29.json,584930,988327,30,Man
125,102409,DepthScenes,duration_manipulation_targetAtFixation,jsons/VE125_randls_29.json,http://54.235.29.9/FacialAge/BNav_EC2/DepthDuration/v2_depth_duration_MTurk/v2_DepthDuration_HTML.html#159,159,1440,764,1440,900,9-4-2022,10-9-19,126,depth_duration_stimuli/002758_2014-06-22_19-11-20_094959634447_rgbf000128-resize_1/002758_2014-06-22_19-11-20_094959634447_rgbf000128-resize_1-target.png,125,2.555,3,1612,121,feet,jsons/VE125_randls_29.json,584930,988327,30,Man
126,102409,DepthScenes,duration_manipulation_targetAtFixation,jsons/VE125_randls_29.json,http://54.235.29.9/FacialAge/BNav_EC2/DepthDuration/v2_depth_duration_MTurk/v2_DepthDuration_HTML.html#159,159,1440,764,1440,900,9-4-2022,10-9-19,127,depth_duration_stimuli/000682_2014-06-08_23-14-58_260595134347_rgbf000041-resize_5/000682_2014-06-08_23-14-58_260595134347_rgbf000041-resize_5-target.png,125,2.7239999999999998,3,1475,120,feet,jsons/VE125_randls_29.json,584930,988327,30,Man
127,102409,DepthScenes,duration_manipulation_targetAtFixation,jsons/VE125_randls_29.json,http://54.235.29.9/FacialAge/BNav_EC2/DepthDuration/v2_depth_duration_MTurk/v2_DepthDuration_HTML.html#159,159,1440,764,1440,900,9-4-2022,10-9-19,128,depth_duration_stimuli/001650_2014-06-20_12-09-00_260595134347_rgbf000087-resize_3/001650_2014-06-20_12-09-00_260595134347_rgbf000087-resize_3-target.png,125,1.9505,2,1736,125,feet,jsons/VE125_randls_29.json,584930,988327,30,Man
128,102409,DepthScenes,duration_manipulation_targetAtFixation,jsons/VE125_randls_29.json,http://54.235.29.9/FacialAge/BNav_EC2/DepthDuration/v2_depth_duration_MTurk/v2_DepthDuration_HTML.html#159,159,1440,764,1440,900,9-4-2022,10-9-19,129,depth_duration_stimuli/001059_2014-06-08_21-53-27_260595134347_rgbf000061-resize_4/001059_2014-06-08_21-53-27_260595134347_rgbf000061-resize_4-target.png,125,2.4185,3,3758,125,feet,jsons/VE125_randls_29.json,584930,988327,30,Man
129,102409,DepthScenes,duration_manipulation_targetAtFixation,jsons/VE125_randls_29.json,http://54.235.29.9/FacialAge/BNav_EC2/DepthDuration/v2_depth_duration_MTurk/v2_DepthDuration_HTML.html#159,159,1440,764,1440,900,9-4-2022,10-9-19,130,depth_duration_stimuli/001032_2014-06-08_13-23-17_260595134347_rgbf000021-resize_3/001032_2014-06-08_13-23-17_260595134347_rgbf000021-resize_3-target.png,125,3.2725,2,1673,122,feet,jsons/VE125_randls_29.json,584930,988327,30,Man
130,102409,DepthScenes,duration_manipulation_targetAtFixation,jsons/VE125_randls_29.json,http://54.235.29.9/FacialAge/BNav_EC2/DepthDuration/v2_depth_duration_MTurk/v2_DepthDuration_HTML.html#159,159,1440,764,1440,900,9-4-2022,10-9-19,131,depth_duration_stimuli/002118_2014-06-25_20-32-08_260595134347_rgbf000078-resize_1/002118_2014-06-25_20-32-08_260595134347_rgbf000078-resize_1-target.png,125,2.6460000000000004,4,1936,121,feet,jsons/VE125_randls_29.json,584930,988327,30,Man
131,102409,DepthScenes,duration_manipulation_targetAtFixation,jsons/VE125_randls_29.json,http://54.235.29.9/FacialAge/BNav_EC2/DepthDuration/v2_depth_duration_MTurk/v2_DepthDuration_HTML.html#159,159,1440,764,1440,900,9-4-2022,10-9-19,132,depth_duration_stimuli/001516_2014-06-20_16-25-09_260595134347_rgbf000076-resize_2/001516_2014-06-20_16-25-09_260595134347_rgbf000076-resize_2-target.png,125,1.7445,3,2728,123,feet,jsons/VE125_randls_29.json,584930,988327,30,Man
132,102409,DepthScenes,duration_manipulation_targetAtFixation,jsons/VE125_randls_29.json,http://54.235.29.9/FacialAge/BNav_EC2/DepthDuration/v2_depth_duration_MTurk/v2_DepthDuration_HTML.html#159,159,1440,764,1440,900,9-4-2022,10-9-19,133,depth_duration_stimuli/002279_2014-06-28_18-55-32_260595134347_rgbf000040-resize_5/002279_2014-06-28_18-55-32_260595134347_rgbf000040-resize_5-target.png,125,1.5043333333333,3,1845,125,feet,jsons/VE125_randls_29.json,584930,988327,30,Man
133,102409,DepthScenes,duration_manipulation_targetAtFixation,jsons/VE125_randls_29.json,http://54.235.29.9/FacialAge/BNav_EC2/DepthDuration/v2_depth_duration_MTurk/v2_DepthDuration_HTML.html#159,159,1440,764,1440,900,9-4-2022,10-9-19,134,depth_duration_stimuli/000635_2014-06-08_16-38-42_260595134347_rgbf000106-resize_1/000635_2014-06-08_16-38-42_260595134347_rgbf000106-resize_1-target.png,125,2.074,4,4372,125,feet,jsons/VE125_randls_29.json,584930,988327,30,Man
134,102409,DepthScenes,duration_manipulation_targetAtFixation,jsons/VE125_randls_29.json,http://54.235.29.9/FacialAge/BNav_EC2/DepthDuration/v2_depth_duration_MTurk/v2_DepthDuration_HTML.html#159,159,1440,764,1440,900,9-4-2022,10-9-19,135,depth_duration_stimuli/002072_2014-06-24_21-48-06_260595134347_rgbf000115-resize_0/002072_2014-06-24_21-48-06_260595134347_rgbf000115-resize-original.jpg,125,4.702,0,3078,124,feet,jsons/VE125_randls_29.json,584930,988327,30,Man
135,102409,DepthScenes,duration_manipulation_targetAtFixation,jsons/VE125_randls_29.json,http://54.235.29.9/FacialAge/BNav_EC2/DepthDuration/v2_depth_duration_MTurk/v2_DepthDuration_HTML.html#159,159,1440,764,1440,900,9-4-2022,10-9-19,136,depth_duration_stimuli/000878_2014-06-08_22-52-45_260595134347_rgbf000045-resize_2/000878_2014-06-08_22-52-45_260595134347_rgbf000045-resize_2-target.png,125,2.092,4,3106,124,feet,jsons/VE125_randls_29.json,584930,988327,30,Man
136,102409,DepthScenes,duration_manipulation_targetAtFixation,jsons/VE125_randls_29.json,http://54.235.29.9/FacialAge/BNav_EC2/DepthDuration/v2_depth_duration_MTurk/v2_DepthDuration_HTML.html#159,159,1440,764,1440,900,9-4-2022,10-9-19,137,depth_duration_stimuli/002953_2014-06-08_17-32-18_094959634447_rgbf000059-resize_5/002953_2014-06-08_17-32-18_094959634447_rgbf000059-resize_5-target.png,125,1.551,3,2304,125,feet,jsons/VE125_randls_29.json,584930,988327,30,Man
137,102409,DepthScenes,duration_manipulation_targetAtFixation,jsons/VE125_randls_29.json,http://54.235.29.9/FacialAge/BNav_EC2/DepthDuration/v2_depth_duration_MTurk/v2_DepthDuration_HTML.html#159,159,1440,764,1440,900,9-4-2022,10-9-19,138,depth_duration_stimuli/001110_2014-06-15_17-25-28_260595134347_rgbf000150-resize_1/001110_2014-06-15_17-25-28_260595134347_rgbf000150-resize_1-target.png,125,1.7115,2,1542,124,feet,jsons/VE125_randls_29.json,584930,988327,30,Man
138,102409,DepthScenes,duration_manipulation_targetAtFixation,jsons/VE125_randls_29.json,http://54.235.29.9/FacialAge/BNav_EC2/DepthDuration/v2_depth_duration_MTurk/v2_DepthDuration_HTML.html#159,159,1440,764,1440,900,9-4-2022,10-9-19,139,depth_duration_stimuli/000927_2014-06-09_16-32-30_260595134347_rgbf000123-resize_3/000927_2014-06-09_16-32-30_260595134347_rgbf000123-resize_3-target.png,125,2.6785,5,1930,123,feet,jsons/VE125_randls_29.json,584930,988327,30,Man
139,102409,DepthScenes,duration_manipulation_targetAtFixation,jsons/VE125_randls_29.json,http://54.235.29.9/FacialAge/BNav_EC2/DepthDuration/v2_depth_duration_MTurk/v2_DepthDuration_HTML.html#159,159,1440,764,1440,900,9-4-2022,10-9-19,140,depth_duration_stimuli/000642_2014-06-08_16-59-25_260595134347_rgbf000098-resize_2/000642_2014-06-08_16-59-25_260595134347_rgbf000098-resize_2-target.png,125,2.8815,3,1791,123,feet,jsons/VE125_randls_29.json,584930,988327,30,Man
140,102409,DepthScenes,duration_manipulation_targetAtFixation,jsons/VE125_randls_29.json,http://54.235.29.9/FacialAge/BNav_EC2/DepthDuration/v2_depth_duration_MTurk/v2_DepthDuration_HTML.html#159,159,1440,764,1440,900,9-4-2022,10-9-19,141,depth_duration_stimuli/002425_2014-06-28_20-27-29_260595134347_rgbf000031-resize_8/002425_2014-06-28_20-27-29_260595134347_rgbf000031-resize_8-target.png,125,3.8960000000000004,6,8286,129,feet,jsons/VE125_randls_29.json,584930,988327,30,Man
141,102409,DepthScenes,duration_manipulation_targetAtFixation,jsons/VE125_randls_29.json,http://54.235.29.9/FacialAge/BNav_EC2/DepthDuration/v2_depth_duration_MTurk/v2_DepthDuration_HTML.html#159,159,1440,764,1440,900,9-4-2022,10-9-19,142,depth_duration_stimuli/000009_2014-05-26_14-32-05_260595134347_rgbf000034-resize_3/000009_2014-05-26_14-32-05_260595134347_rgbf000034-resize_3-target.png,125,3.8715,7,3267,127,feet,jsons/VE125_randls_29.json,584930,988327,30,Man
142,102409,DepthScenes,duration_manipulation_targetAtFixation,jsons/VE125_randls_29.json,http://54.235.29.9/FacialAge/BNav_EC2/DepthDuration/v2_depth_duration_MTurk/v2_DepthDuration_HTML.html#159,159,1440,764,1440,900,9-4-2022,10-9-19,143,depth_duration_stimuli/001828_2014-06-26_21-40-03_260595134347_rgbf000024-resize_0/001828_2014-06-26_21-40-03_260595134347_rgbf000024-resize_0-target.png,125,4.8260000000000005,5,3292,120,feet,jsons/VE125_randls_29.json,584930,988327,30,Man
143,102409,DepthScenes,duration_manipulation_targetAtFixation,jsons/VE125_randls_29.json,http://54.235.29.9/FacialAge/BNav_EC2/DepthDuration/v2_depth_duration_MTurk/v2_DepthDuration_HTML.html#159,159,1440,764,1440,900,9-4-2022,10-9-19,144,depth_duration_stimuli/002272_2014-06-28_18-53-56_260595134347_rgbf000067-resize_2/002272_2014-06-28_18-53-56_260595134347_rgbf000067-resize_2-target.png,125,1.138,1,2015,124,feet,jsons/VE125_randls_29.json,584930,988327,30,Man
144,102409,DepthScenes,duration_manipulation_targetAtFixation,jsons/VE125_randls_29.json,http://54.235.29.9/FacialAge/BNav_EC2/DepthDuration/v2_depth_duration_MTurk/v2_DepthDuration_HTML.html#159,159,1440,764,1440,900,9-4-2022,10-9-19,145,depth_duration_stimuli/001571_2014-06-20_17-21-32_260595134347_rgbf000089-resize_1/001571_2014-06-20_17-21-32_260595134347_rgbf000089-resize_1-target.png,125,1.86,2,1628,127,feet,jsons/VE125_randls_29.json,584930,988327,30,Man
145,102409,DepthScenes,duration_manipulation_targetAtFixation,jsons/VE125_randls_29.json,http://54.235.29.9/FacialAge/BNav_EC2/DepthDuration/v2_depth_duration_MTurk/v2_DepthDuration_HTML.html#159,159,1440,764,1440,900,9-4-2022,10-9-19,146,depth_duration_stimuli/001498_2014-06-19_17-45-14_260595134347_rgbf000129-resize_4/001498_2014-06-19_17-45-14_260595134347_rgbf000129-resize-original.jpg,125,1.4075,0,2464,125,feet,jsons/VE125_randls_29.json,584930,988327,30,Man
146,102409,DepthScenes,duration_manipulation_targetAtFixation,jsons/VE125_randls_29.json,http://54.235.29.9/FacialAge/BNav_EC2/DepthDuration/v2_depth_duration_MTurk/v2_DepthDuration_HTML.html#159,159,1440,764,1440,900,9-4-2022,10-9-19,147,depth_duration_stimuli/002153_2014-06-25_21-27-18_260595134347_rgbf000038-resize_5/002153_2014-06-25_21-27-18_260595134347_rgbf000038-resize_5-target.png,125,2.505,3,1833,126,feet,jsons/VE125_randls_29.json,584930,988327,30,Man
147,102409,DepthScenes,duration_manipulation_targetAtFixation,jsons/VE125_randls_29.json,http://54.235.29.9/FacialAge/BNav_EC2/DepthDuration/v2_depth_duration_MTurk/v2_DepthDuration_HTML.html#159,159,1440,764,1440,900,9-4-2022,10-9-19,148,depth_duration_stimuli/002660_2014-06-13_15-44-18_094959634447_rgbf001878-resize_2/002660_2014-06-13_15-44-18_094959634447_rgbf001878-resize_2-target.png,125,3.576,4,1762,124,feet,jsons/VE125_randls_29.json,584930,988327,30,Man
148,102409,DepthScenes,duration_manipulation_targetAtFixation,jsons/VE125_randls_29.json,http://54.235.29.9/FacialAge/BNav_EC2/DepthDuration/v2_depth_duration_MTurk/v2_DepthDuration_HTML.html#159,159,1440,764,1440,900,9-4-2022,10-9-19,149,depth_duration_stimuli/002763_2014-06-22_19-13-10_094959634447_rgbf000075-resize_4/002763_2014-06-22_19-13-10_094959634447_rgbf000075-resize_4-target.png,125,1.68375,2,2149,127,feet,jsons/VE125_randls_29.json,584930,988327,30,Man
149,102409,DepthScenes,duration_manipulation_targetAtFixation,jsons/VE125_randls_29.json,http://54.235.29.9/FacialAge/BNav_EC2/DepthDuration/v2_depth_duration_MTurk/v2_DepthDuration_HTML.html#159,159,1440,764,1440,900,9-4-2022,10-9-19,150,depth_duration_stimuli/002209_2014-06-28_18-36-10_260595134347_rgbf000051-resize_1/002209_2014-06-28_18-36-10_260595134347_rgbf000051-resize_1-target.png,125,2.057,2,1630,125,feet,jsons/VE125_randls_29.json,584930,988327,30,Man
150,102409,DepthScenes,duration_manipulation_targetAtFixation,jsons/VE125_randls_29.json,http://54.235.29.9/FacialAge/BNav_EC2/DepthDuration/v2_depth_duration_MTurk/v2_DepthDuration_HTML.html#159,159,1440,764,1440,900,9-4-2022,10-9-19,151,depth_duration_stimuli/000810_2014-06-08_17-20-01_260595134347_rgbf000105-resize_0/000810_2014-06-08_17-20-01_260595134347_rgbf000105-resize_0-target.png,125,1.4865,3,1601,125,feet,jsons/VE125_randls_29.json,584930,988327,30,Man
151,102409,DepthScenes,duration_manipulation_targetAtFixation,jsons/VE125_randls_29.json,http://54.235.29.9/FacialAge/BNav_EC2/DepthDuration/v2_depth_duration_MTurk/v2_DepthDuration_HTML.html#159,159,1440,764,1440,900,9-4-2022,10-9-19,152,depth_duration_stimuli/001214_2014-06-17_16-13-55_260595134347_rgbf000111-resize_0/001214_2014-06-17_16-13-55_260595134347_rgbf000111-resize_0-target.png,125,2.6505,3,2161,125,feet,jsons/VE125_randls_29.json,584930,988327,30,Man
152,102409,DepthScenes,duration_manipulation_targetAtFixation,jsons/VE125_randls_29.json,http://54.235.29.9/FacialAge/BNav_EC2/DepthDuration/v2_depth_duration_MTurk/v2_DepthDuration_HTML.html#159,159,1440,764,1440,900,9-4-2022,10-9-19,153,depth_duration_stimuli/000470_2014-06-09_19-42-40_260595134347_rgbf000094-resize_1/000470_2014-06-09_19-42-40_260595134347_rgbf000094-resize_1-target.png,125,1.831,2,2715,124,feet,jsons/VE125_randls_29.json,584930,988327,30,Man
153,102409,DepthScenes,duration_manipulation_targetAtFixation,jsons/VE125_randls_29.json,http://54.235.29.9/FacialAge/BNav_EC2/DepthDuration/v2_depth_duration_MTurk/v2_DepthDuration_HTML.html#159,159,1440,764,1440,900,9-4-2022,10-9-19,154,depth_duration_stimuli/000109_2014-05-14_23-41-52_260595134347_rgbf000035-resize_9/000109_2014-05-14_23-41-52_260595134347_rgbf000035-resize_9-target.png,125,1.3545,2,2088,122,feet,jsons/VE125_randls_29.json,584930,988327,30,Man
154,102409,DepthScenes,duration_manipulation_targetAtFixation,jsons/VE125_randls_29.json,http://54.235.29.9/FacialAge/BNav_EC2/DepthDuration/v2_depth_duration_MTurk/v2_DepthDuration_HTML.html#159,159,1440,764,1440,900,9-4-2022,10-9-19,155,depth_duration_stimuli/001016_2014-06-09_16-16-10_260595134347_rgbf000112-resize_5/001016_2014-06-09_16-16-10_260595134347_rgbf000112-resize_5-target.png,125,1.6565,3,3506,124,feet,jsons/VE125_randls_29.json,584930,988327,30,Man
155,102409,DepthScenes,duration_manipulation_targetAtFixation,jsons/VE125_randls_29.json,http://54.235.29.9/FacialAge/BNav_EC2/DepthDuration/v2_depth_duration_MTurk/v2_DepthDuration_HTML.html#159,159,1440,764,1440,900,9-4-2022,10-9-19,156,depth_duration_stimuli/002340_2014-06-28_20-05-46_260595134347_rgbf000113-resize_0/002340_2014-06-28_20-05-46_260595134347_rgbf000113-resize_0-target.png,125,2.4735,4,2537,125,feet,jsons/VE125_randls_29.json,584930,988327,30,Man
156,102409,DepthScenes,duration_manipulation_targetAtFixation,jsons/VE125_randls_29.json,http://54.235.29.9/FacialAge/BNav_EC2/DepthDuration/v2_depth_duration_MTurk/v2_DepthDuration_HTML.html#159,159,1440,764,1440,900,9-4-2022,10-9-19,157,depth_duration_stimuli/001011_2014-06-08_23-18-54_260595134347_rgbf000044-resize_4/001011_2014-06-08_23-18-54_260595134347_rgbf000044-resize_4-target.png,125,2.4730000000000003,4,1909,126,feet,jsons/VE125_randls_29.json,584930,988327,30,Man
157,102409,DepthScenes,duration_manipulation_targetAtFixation,jsons/VE125_randls_29.json,http://54.235.29.9/FacialAge/BNav_EC2/DepthDuration/v2_depth_duration_MTurk/v2_DepthDuration_HTML.html#159,159,1440,764,1440,900,9-4-2022,10-9-19,158,depth_duration_stimuli/002875_2014-06-01_15-19-00_094959634447_rgbf000151-resize_1/002875_2014-06-01_15-19-00_094959634447_rgbf000151-resize_1-target.png,125,1.9675,2,1726,123,feet,jsons/VE125_randls_29.json,584930,988327,30,Man
158,102409,DepthScenes,duration_manipulation_targetAtFixation,jsons/VE125_randls_29.json,http://54.235.29.9/FacialAge/BNav_EC2/DepthDuration/v2_depth_duration_MTurk/v2_DepthDuration_HTML.html#159,159,1440,764,1440,900,9-4-2022,10-9-19,159,depth_duration_stimuli/001150_2014-06-17_15-27-34_260595134347_rgbf000108-resize_2/001150_2014-06-17_15-27-34_260595134347_rgbf000108-resize_2-target.png,125,4.0325,4,2663,128,feet,jsons/VE125_randls_29.json,584930,988327,30,Man
159,102409,DepthScenes,duration_manipulation_targetAtFixation,jsons/VE125_randls_29.json,http://54.235.29.9/FacialAge/BNav_EC2/DepthDuration/v2_depth_duration_MTurk/v2_DepthDuration_HTML.html#159,159,1440,764,1440,900,9-4-2022,10-9-19,160,depth_duration_stimuli/000665_2014-06-09_20-42-35_260595134347_rgbf000110-resize_1/000665_2014-06-09_20-42-35_260595134347_rgbf000110-resize_1-target.png,125,3.057,2,1544,123,feet,jsons/VE125_randls_29.json,584930,988327,30,Man
160,102409,DepthScenes,duration_manipulation_targetAtFixation,jsons/VE125_randls_29.json,http://54.235.29.9/FacialAge/BNav_EC2/DepthDuration/v2_depth_duration_MTurk/v2_DepthDuration_HTML.html#159,159,1440,764,1440,900,9-4-2022,10-9-19,161,depth_duration_stimuli/000788_2014-06-08_22-34-36_260595134347_rgbf000131-resize_1/000788_2014-06-08_22-34-36_260595134347_rgbf000131-resize_1-target.png,125,3.359,4,3109,123,feet,jsons/VE125_randls_29.json,584930,988327,30,Man
161,102409,DepthScenes,duration_manipulation_targetAtFixation,jsons/VE125_randls_29.json,http://54.235.29.9/FacialAge/BNav_EC2/DepthDuration/v2_depth_duration_MTurk/v2_DepthDuration_HTML.html#159,159,1440,764,1440,900,9-4-2022,10-9-19,162,depth_duration_stimuli/001235_2014-06-17_16-37-36_260595134347_rgbf000084-resize_4/001235_2014-06-17_16-37-36_260595134347_rgbf000084-resize_4-target.png,125,3.6605,2,1845,125,feet,jsons/VE125_randls_29.json,584930,988327,30,Man
162,102409,DepthScenes,duration_manipulation_targetAtFixation,jsons/VE125_randls_29.json,http://54.235.29.9/FacialAge/BNav_EC2/DepthDuration/v2_depth_duration_MTurk/v2_DepthDuration_HTML.html#159,159,1440,764,1440,900,9-4-2022,10-9-19,163,depth_duration_stimuli/001808_2014-06-26_20-50-58_260595134347_rgbf000029-resize_1/001808_2014-06-26_20-50-58_260595134347_rgbf000029-resize_1-target.png,125,4.249,5,1926,128,feet,jsons/VE125_randls_29.json,584930,988327,30,Man
163,102409,DepthScenes,duration_manipulation_targetAtFixation,jsons/VE125_randls_29.json,http://54.235.29.9/FacialAge/BNav_EC2/DepthDuration/v2_depth_duration_MTurk/v2_DepthDuration_HTML.html#159,159,1440,764,1440,900,9-4-2022,10-9-19,164,depth_duration_stimuli/001815_2014-06-26_20-52-55_260595134347_rgbf000020-resize_0/001815_2014-06-26_20-52-55_260595134347_rgbf000020-resize_0-target.png,125,3.3865,4,2138,125,feet,jsons/VE125_randls_29.json,584930,988327,30,Man
