,subjID,experimentName,versionName,sequenceName,url,selected_row,windowWidth,windowHeight,screenWidth,screenHeight,startDate,startTime,trial,stimulus,duration,actual_depth,depth_estimate,trial_RT,log_sceneDuration,unitSelection,seq_filepath,experimentTime,totalTime,age,gender
0,104185,DepthScenes,duration_manipulation_targetAtFixation,jsons/v1_VE1000_randls_21.json,http://54.235.29.9/FacialAge/BNav_EC2/DepthDuration/v2_depth_duration_MTurk/v2_DepthDuration_HTML.html#30,30,1366,625,1366,768,8-29-2022,10-9-6,1,depth_duration_stimuli/000009_2014-05-26_14-32-05_260595134347_rgbf000034-resize_3/000009_2014-05-26_14-32-05_260595134347_rgbf000034-resize_3-target.png,1000,3.8715,2,6493,999,feet,jsons/v1_VE1000_randls_21.json,957833,1111972,30,Man
1,104185,DepthScenes,duration_manipulation_targetAtFixation,jsons/v1_VE1000_randls_21.json,http://54.235.29.9/FacialAge/BNav_EC2/DepthDuration/v2_depth_duration_MTurk/v2_DepthDuration_HTML.html#30,30,1366,625,1366,768,8-29-2022,10-9-6,2,depth_duration_stimuli/001828_2014-06-26_21-40-03_260595134347_rgbf000024-resize_0/001828_2014-06-26_21-40-03_260595134347_rgbf000024-resize_0-target.png,1000,4.8260000000000005,2,16188,1000,feet,jsons/v1_VE1000_randls_21.json,957833,1111972,30,Man
2,104185,DepthScenes,duration_manipulation_targetAtFixation,jsons/v1_VE1000_randls_21.json,http://54.235.29.9/FacialAge/BNav_EC2/DepthDuration/v2_depth_duration_MTurk/v2_DepthDuration_HTML.html#30,30,1366,625,1366,768,8-29-2022,10-9-6,3,depth_duration_stimuli/001056_2014-06-08_18-46-44_260595134347_rgbf000068-resize_0/001056_2014-06-08_18-46-44_260595134347_rgbf000068-resize_0-target.png,1000,2.6625,1,4937,990,feet,jsons/v1_VE1000_randls_21.json,957833,1111972,30,Man
3,104185,DepthScenes,duration_manipulation_targetAtFixation,jsons/v1_VE1000_randls_21.json,http://54.235.29.9/FacialAge/BNav_EC2/DepthDuration/v2_depth_duration_MTurk/v2_DepthDuration_HTML.html#30,30,1366,625,1366,768,8-29-2022,10-9-6,4,depth_duration_stimuli/002199_2014-06-28_18-33-56_260595134347_rgbf000074-resize_0/002199_2014-06-28_18-33-56_260595134347_rgbf000074-resize_0-target.png,1000,1.996,1,3457,993,feet,jsons/v1_VE1000_randls_21.json,957833,1111972,30,Man
4,104185,DepthScenes,duration_manipulation_targetAtFixation,jsons/v1_VE1000_randls_21.json,http://54.235.29.9/FacialAge/BNav_EC2/DepthDuration/v2_depth_duration_MTurk/v2_DepthDuration_HTML.html#30,30,1366,625,1366,768,8-29-2022,10-9-6,5,depth_duration_stimuli/000469_2014-06-09_19-42-10_260595134347_rgbf000081-resize_1/000469_2014-06-09_19-42-10_260595134347_rgbf000081-resize_1-target.png,1000,1.652,1,3620,999,feet,jsons/v1_VE1000_randls_21.json,957833,1111972,30,Man
5,104185,DepthScenes,duration_manipulation_targetAtFixation,jsons/v1_VE1000_randls_21.json,http://54.235.29.9/FacialAge/BNav_EC2/DepthDuration/v2_depth_duration_MTurk/v2_DepthDuration_HTML.html#30,30,1366,625,1366,768,8-29-2022,10-9-6,6,depth_duration_stimuli/000483_2014-06-09_20-41-45_260595134347_rgbf000116-resize_4/000483_2014-06-09_20-41-45_260595134347_rgbf000116-resize_4-target.png,1000,1.337,1,3674,1000,feet,jsons/v1_VE1000_randls_21.json,957833,1111972,30,Man
6,104185,DepthScenes,duration_manipulation_targetAtFixation,jsons/v1_VE1000_randls_21.json,http://54.235.29.9/FacialAge/BNav_EC2/DepthDuration/v2_depth_duration_MTurk/v2_DepthDuration_HTML.html#30,30,1366,625,1366,768,8-29-2022,10-9-6,7,depth_duration_stimuli/001175_2014-06-17_15-45-55_260595134347_rgbf000129-resize_4/001175_2014-06-17_15-45-55_260595134347_rgbf000129-resize_4-target.png,1000,4.255,2,6697,999,feet,jsons/v1_VE1000_randls_21.json,957833,1111972,30,Man
7,104185,DepthScenes,duration_manipulation_targetAtFixation,jsons/v1_VE1000_randls_21.json,http://54.235.29.9/FacialAge/BNav_EC2/DepthDuration/v2_depth_duration_MTurk/v2_DepthDuration_HTML.html#30,30,1366,625,1366,768,8-29-2022,10-9-6,8,depth_duration_stimuli/003490_2014-05-21_15-50-11_094959634447_rgbf000101-resize_3/003490_2014-05-21_15-50-11_094959634447_rgbf000101-resize_3-target.png,1000,3.6445,1,3217,1001,feet,jsons/v1_VE1000_randls_21.json,957833,1111972,30,Man
8,104185,DepthScenes,duration_manipulation_targetAtFixation,jsons/v1_VE1000_randls_21.json,http://54.235.29.9/FacialAge/BNav_EC2/DepthDuration/v2_depth_duration_MTurk/v2_DepthDuration_HTML.html#30,30,1366,625,1366,768,8-29-2022,10-9-6,9,depth_duration_stimuli/002509_2014-06-24_13-19-22_094959634447_rgbf000077-resize_0/002509_2014-06-24_13-19-22_094959634447_rgbf000077-resize_0-target.png,1000,1.3065,2,13359,1000,feet,jsons/v1_VE1000_randls_21.json,957833,1111972,30,Man
9,104185,DepthScenes,duration_manipulation_targetAtFixation,jsons/v1_VE1000_randls_21.json,http://54.235.29.9/FacialAge/BNav_EC2/DepthDuration/v2_depth_duration_MTurk/v2_DepthDuration_HTML.html#30,30,1366,625,1366,768,8-29-2022,10-9-6,10,depth_duration_stimuli/003338_2014-05-20_11-01-23_094959634447_rgbf000051-resize_6/003338_2014-05-20_11-01-23_094959634447_rgbf000051-resize_6-target.png,1000,1.693,1,4017,997,feet,jsons/v1_VE1000_randls_21.json,957833,1111972,30,Man
10,104185,DepthScenes,duration_manipulation_targetAtFixation,jsons/v1_VE1000_randls_21.json,http://54.235.29.9/FacialAge/BNav_EC2/DepthDuration/v2_depth_duration_MTurk/v2_DepthDuration_HTML.html#30,30,1366,625,1366,768,8-29-2022,10-9-6,11,depth_duration_stimuli/000493_2014-06-09_21-01-18_260595134347_rgbf000196-resize_3/000493_2014-06-09_21-01-18_260595134347_rgbf000196-resize_3-target.png,1000,3.44,1,3656,1016,feet,jsons/v1_VE1000_randls_21.json,957833,1111972,30,Man
11,104185,DepthScenes,duration_manipulation_targetAtFixation,jsons/v1_VE1000_randls_21.json,http://54.235.29.9/FacialAge/BNav_EC2/DepthDuration/v2_depth_duration_MTurk/v2_DepthDuration_HTML.html#30,30,1366,625,1366,768,8-29-2022,10-9-6,12,depth_duration_stimuli/000191_2014-05-12_17-07-38_260595134347_rgbf000199-resize_0/000191_2014-05-12_17-07-38_260595134347_rgbf000199-resize_0-target.png,1000,3.7995,1,4398,999,feet,jsons/v1_VE1000_randls_21.json,957833,1111972,30,Man
12,104185,DepthScenes,duration_manipulation_targetAtFixation,jsons/v1_VE1000_randls_21.json,http://54.235.29.9/FacialAge/BNav_EC2/DepthDuration/v2_depth_duration_MTurk/v2_DepthDuration_HTML.html#30,30,1366,625,1366,768,8-29-2022,10-9-6,13,depth_duration_stimuli/000569_2014-06-09_22-51-47_260595134347_rgbf000141-resize_3/000569_2014-06-09_22-51-47_260595134347_rgbf000141-resize-original.jpg,1000,4.512,0,4669,1001,feet,jsons/v1_VE1000_randls_21.json,957833,1111972,30,Man
13,104185,DepthScenes,duration_manipulation_targetAtFixation,jsons/v1_VE1000_randls_21.json,http://54.235.29.9/FacialAge/BNav_EC2/DepthDuration/v2_depth_duration_MTurk/v2_DepthDuration_HTML.html#30,30,1366,625,1366,768,8-29-2022,10-9-6,14,depth_duration_stimuli/001555_2014-06-20_17-12-10_260595134347_rgbf000065-resize_4/001555_2014-06-20_17-12-10_260595134347_rgbf000065-resize_4-target.png,1000,1.633,1,20424,1000,feet,jsons/v1_VE1000_randls_21.json,957833,1111972,30,Man
14,104185,DepthScenes,duration_manipulation_targetAtFixation,jsons/v1_VE1000_randls_21.json,http://54.235.29.9/FacialAge/BNav_EC2/DepthDuration/v2_depth_duration_MTurk/v2_DepthDuration_HTML.html#30,30,1366,625,1366,768,8-29-2022,10-9-6,15,depth_duration_stimuli/000103_2014-05-14_22-01-17_260595134347_rgbf000152-resize_5/000103_2014-05-14_22-01-17_260595134347_rgbf000152-resize_5-target.png,1000,1.993,2,3584,1000,feet,jsons/v1_VE1000_randls_21.json,957833,1111972,30,Man
15,104185,DepthScenes,duration_manipulation_targetAtFixation,jsons/v1_VE1000_randls_21.json,http://54.235.29.9/FacialAge/BNav_EC2/DepthDuration/v2_depth_duration_MTurk/v2_DepthDuration_HTML.html#30,30,1366,625,1366,768,8-29-2022,10-9-6,16,depth_duration_stimuli/000642_2014-06-08_16-59-25_260595134347_rgbf000098-resize_2/000642_2014-06-08_16-59-25_260595134347_rgbf000098-resize_2-target.png,1000,2.8815,1,29680,999,feet,jsons/v1_VE1000_randls_21.json,957833,1111972,30,Man
16,104185,DepthScenes,duration_manipulation_targetAtFixation,jsons/v1_VE1000_randls_21.json,http://54.235.29.9/FacialAge/BNav_EC2/DepthDuration/v2_depth_duration_MTurk/v2_DepthDuration_HTML.html#30,30,1366,625,1366,768,8-29-2022,10-9-6,17,depth_duration_stimuli/002425_2014-06-28_20-27-29_260595134347_rgbf000031-resize_8/002425_2014-06-28_20-27-29_260595134347_rgbf000031-resize_8-target.png,1000,3.8960000000000004,1,3719,999,feet,jsons/v1_VE1000_randls_21.json,957833,1111972,30,Man
17,104185,DepthScenes,duration_manipulation_targetAtFixation,jsons/v1_VE1000_randls_21.json,http://54.235.29.9/FacialAge/BNav_EC2/DepthDuration/v2_depth_duration_MTurk/v2_DepthDuration_HTML.html#30,30,1366,625,1366,768,8-29-2022,10-9-6,18,depth_duration_stimuli/001449_2014-06-19_17-01-27_260595134347_rgbf000116-resize_2/001449_2014-06-19_17-01-27_260595134347_rgbf000116-resize_2-target.png,1000,3.452,1,3469,998,feet,jsons/v1_VE1000_randls_21.json,957833,1111972,30,Man
18,104185,DepthScenes,duration_manipulation_targetAtFixation,jsons/v1_VE1000_randls_21.json,http://54.235.29.9/FacialAge/BNav_EC2/DepthDuration/v2_depth_duration_MTurk/v2_DepthDuration_HTML.html#30,30,1366,625,1366,768,8-29-2022,10-9-6,19,depth_duration_stimuli/001450_2014-06-19_17-02-03_260595134347_rgbf000203-resize_4/001450_2014-06-19_17-02-03_260595134347_rgbf000203-resize_4-target.png,1000,4.0106666666667,2,3447,998,feet,jsons/v1_VE1000_randls_21.json,957833,1111972,30,Man
19,104185,DepthScenes,duration_manipulation_targetAtFixation,jsons/v1_VE1000_randls_21.json,http://54.235.29.9/FacialAge/BNav_EC2/DepthDuration/v2_depth_duration_MTurk/v2_DepthDuration_HTML.html#30,30,1366,625,1366,768,8-29-2022,10-9-6,20,depth_duration_stimuli/001055_2014-06-08_18-45-35_260595134347_rgbf000111-resize_4/001055_2014-06-08_18-45-35_260595134347_rgbf000111-resize_4-target.png,1000,2.4290000000000003,1,3259,999,feet,jsons/v1_VE1000_randls_21.json,957833,1111972,30,Man
20,104185,DepthScenes,duration_manipulation_targetAtFixation,jsons/v1_VE1000_randls_21.json,http://54.235.29.9/FacialAge/BNav_EC2/DepthDuration/v2_depth_duration_MTurk/v2_DepthDuration_HTML.html#30,30,1366,625,1366,768,8-29-2022,10-9-6,21,depth_duration_stimuli/000549_2014-06-08_22-10-24_260595134347_rgbf000247-resize_3/000549_2014-06-08_22-10-24_260595134347_rgbf000247-resize_3-target.png,1000,1.841,1,3077,1001,feet,jsons/v1_VE1000_randls_21.json,957833,1111972,30,Man
21,104185,DepthScenes,duration_manipulation_targetAtFixation,jsons/v1_VE1000_randls_21.json,http://54.235.29.9/FacialAge/BNav_EC2/DepthDuration/v2_depth_duration_MTurk/v2_DepthDuration_HTML.html#30,30,1366,625,1366,768,8-29-2022,10-9-6,22,depth_duration_stimuli/001011_2014-06-08_23-18-54_260595134347_rgbf000044-resize_4/001011_2014-06-08_23-18-54_260595134347_rgbf000044-resize_4-target.png,1000,2.4730000000000003,1,3300,977,feet,jsons/v1_VE1000_randls_21.json,957833,1111972,30,Man
22,104185,DepthScenes,duration_manipulation_targetAtFixation,jsons/v1_VE1000_randls_21.json,http://54.235.29.9/FacialAge/BNav_EC2/DepthDuration/v2_depth_duration_MTurk/v2_DepthDuration_HTML.html#30,30,1366,625,1366,768,8-29-2022,10-9-6,23,depth_duration_stimuli/002875_2014-06-01_15-19-00_094959634447_rgbf000151-resize_1/002875_2014-06-01_15-19-00_094959634447_rgbf000151-resize_1-target.png,1000,1.9675,1,12347,1000,feet,jsons/v1_VE1000_randls_21.json,957833,1111972,30,Man
23,104185,DepthScenes,duration_manipulation_targetAtFixation,jsons/v1_VE1000_randls_21.json,http://54.235.29.9/FacialAge/BNav_EC2/DepthDuration/v2_depth_duration_MTurk/v2_DepthDuration_HTML.html#30,30,1366,625,1366,768,8-29-2022,10-9-6,24,depth_duration_stimuli/000758_2014-06-08_22-05-08_260595134347_rgbf000085-resize_0/000758_2014-06-08_22-05-08_260595134347_rgbf000085-resize_0-target.png,1000,3.3810000000000002,1,3169,999,feet,jsons/v1_VE1000_randls_21.json,957833,1111972,30,Man
24,104185,DepthScenes,duration_manipulation_targetAtFixation,jsons/v1_VE1000_randls_21.json,http://54.235.29.9/FacialAge/BNav_EC2/DepthDuration/v2_depth_duration_MTurk/v2_DepthDuration_HTML.html#30,30,1366,625,1366,768,8-29-2022,10-9-6,25,depth_duration_stimuli/000854_2014-06-09_19-43-13_260595134347_rgbf000066-resize_0/000854_2014-06-09_19-43-13_260595134347_rgbf000066-resize_0-target.png,1000,3.068,2,3070,967,feet,jsons/v1_VE1000_randls_21.json,957833,1111972,30,Man
25,104185,DepthScenes,duration_manipulation_targetAtFixation,jsons/v1_VE1000_randls_21.json,http://54.235.29.9/FacialAge/BNav_EC2/DepthDuration/v2_depth_duration_MTurk/v2_DepthDuration_HTML.html#30,30,1366,625,1366,768,8-29-2022,10-9-6,26,depth_duration_stimuli/000470_2014-06-09_19-42-40_260595134347_rgbf000094-resize_1/000470_2014-06-09_19-42-40_260595134347_rgbf000094-resize_1-target.png,1000,1.831,1,3449,1000,feet,jsons/v1_VE1000_randls_21.json,957833,1111972,30,Man
26,104185,DepthScenes,duration_manipulation_targetAtFixation,jsons/v1_VE1000_randls_21.json,http://54.235.29.9/FacialAge/BNav_EC2/DepthDuration/v2_depth_duration_MTurk/v2_DepthDuration_HTML.html#30,30,1366,625,1366,768,8-29-2022,10-9-6,27,depth_duration_stimuli/000109_2014-05-14_23-41-52_260595134347_rgbf000035-resize_9/000109_2014-05-14_23-41-52_260595134347_rgbf000035-resize_9-target.png,1000,1.3545,2,3070,1000,feet,jsons/v1_VE1000_randls_21.json,957833,1111972,30,Man
27,104185,DepthScenes,duration_manipulation_targetAtFixation,jsons/v1_VE1000_randls_21.json,http://54.235.29.9/FacialAge/BNav_EC2/DepthDuration/v2_depth_duration_MTurk/v2_DepthDuration_HTML.html#30,30,1366,625,1366,768,8-29-2022,10-9-6,28,depth_duration_stimuli/001244_2014-06-17_16-47-45_260595134347_rgbf000030-resize_4/001244_2014-06-17_16-47-45_260595134347_rgbf000030-resize_4-target.png,1000,2.0425,1,3038,999,feet,jsons/v1_VE1000_randls_21.json,957833,1111972,30,Man
28,104185,DepthScenes,duration_manipulation_targetAtFixation,jsons/v1_VE1000_randls_21.json,http://54.235.29.9/FacialAge/BNav_EC2/DepthDuration/v2_depth_duration_MTurk/v2_DepthDuration_HTML.html#30,30,1366,625,1366,768,8-29-2022,10-9-6,29,depth_duration_stimuli/003495_2014-05-21_16-01-51_094959634447_rgbf000100-resize_3/003495_2014-05-21_16-01-51_094959634447_rgbf000100-resize_3-target.png,1000,1.6255,1,3979,998,feet,jsons/v1_VE1000_randls_21.json,957833,1111972,30,Man
29,104185,DepthScenes,duration_manipulation_targetAtFixation,jsons/v1_VE1000_randls_21.json,http://54.235.29.9/FacialAge/BNav_EC2/DepthDuration/v2_depth_duration_MTurk/v2_DepthDuration_HTML.html#30,30,1366,625,1366,768,8-29-2022,10-9-6,30,depth_duration_stimuli/000375_2014-06-08_11-17-29_260595134347_rgbf000133-resize_2/000375_2014-06-08_11-17-29_260595134347_rgbf000133-resize-original.jpg,1000,4.718,0,5799,1000,feet,jsons/v1_VE1000_randls_21.json,957833,1111972,30,Man
30,104185,DepthScenes,duration_manipulation_targetAtFixation,jsons/v1_VE1000_randls_21.json,http://54.235.29.9/FacialAge/BNav_EC2/DepthDuration/v2_depth_duration_MTurk/v2_DepthDuration_HTML.html#30,30,1366,625,1366,768,8-29-2022,10-9-6,31,depth_duration_stimuli/002905_2014-06-03_18-04-43_094959634447_rgbf000151-resize_2/002905_2014-06-03_18-04-43_094959634447_rgbf000151-resize_2-target.png,1000,2.0295,1,3378,999,feet,jsons/v1_VE1000_randls_21.json,957833,1111972,30,Man
31,104185,DepthScenes,duration_manipulation_targetAtFixation,jsons/v1_VE1000_randls_21.json,http://54.235.29.9/FacialAge/BNav_EC2/DepthDuration/v2_depth_duration_MTurk/v2_DepthDuration_HTML.html#30,30,1366,625,1366,768,8-29-2022,10-9-6,32,depth_duration_stimuli/003423_2014-05-21_10-23-26_094959634447_rgbf002665-resize_2/003423_2014-05-21_10-23-26_094959634447_rgbf002665-resize_2-target.png,1000,3.2575,1,3759,1000,feet,jsons/v1_VE1000_randls_21.json,957833,1111972,30,Man
32,104185,DepthScenes,duration_manipulation_targetAtFixation,jsons/v1_VE1000_randls_21.json,http://54.235.29.9/FacialAge/BNav_EC2/DepthDuration/v2_depth_duration_MTurk/v2_DepthDuration_HTML.html#30,30,1366,625,1366,768,8-29-2022,10-9-6,33,depth_duration_stimuli/002118_2014-06-25_20-32-08_260595134347_rgbf000078-resize_1/002118_2014-06-25_20-32-08_260595134347_rgbf000078-resize_1-target.png,1000,2.6460000000000004,1,13149,1000,feet,jsons/v1_VE1000_randls_21.json,957833,1111972,30,Man
33,104185,DepthScenes,duration_manipulation_targetAtFixation,jsons/v1_VE1000_randls_21.json,http://54.235.29.9/FacialAge/BNav_EC2/DepthDuration/v2_depth_duration_MTurk/v2_DepthDuration_HTML.html#30,30,1366,625,1366,768,8-29-2022,10-9-6,34,depth_duration_stimuli/001516_2014-06-20_16-25-09_260595134347_rgbf000076-resize_2/001516_2014-06-20_16-25-09_260595134347_rgbf000076-resize_2-target.png,1000,1.7445,2,3336,998,feet,jsons/v1_VE1000_randls_21.json,957833,1111972,30,Man
34,104185,DepthScenes,duration_manipulation_targetAtFixation,jsons/v1_VE1000_randls_21.json,http://54.235.29.9/FacialAge/BNav_EC2/DepthDuration/v2_depth_duration_MTurk/v2_DepthDuration_HTML.html#30,30,1366,625,1366,768,8-29-2022,10-9-6,35,depth_duration_stimuli/002153_2014-06-25_21-27-18_260595134347_rgbf000038-resize_5/002153_2014-06-25_21-27-18_260595134347_rgbf000038-resize_5-target.png,1000,2.505,2,3108,999,feet,jsons/v1_VE1000_randls_21.json,957833,1111972,30,Man
35,104185,DepthScenes,duration_manipulation_targetAtFixation,jsons/v1_VE1000_randls_21.json,http://54.235.29.9/FacialAge/BNav_EC2/DepthDuration/v2_depth_duration_MTurk/v2_DepthDuration_HTML.html#30,30,1366,625,1366,768,8-29-2022,10-9-6,36,depth_duration_stimuli/002660_2014-06-13_15-44-18_094959634447_rgbf001878-resize_2/002660_2014-06-13_15-44-18_094959634447_rgbf001878-resize_2-target.png,1000,3.576,1,3428,999,feet,jsons/v1_VE1000_randls_21.json,957833,1111972,30,Man
36,104185,DepthScenes,duration_manipulation_targetAtFixation,jsons/v1_VE1000_randls_21.json,http://54.235.29.9/FacialAge/BNav_EC2/DepthDuration/v2_depth_duration_MTurk/v2_DepthDuration_HTML.html#30,30,1366,625,1366,768,8-29-2022,10-9-6,37,depth_duration_stimuli/002600_2014-06-24_14-27-04_094959634447_rgbf000074-resize_2/002600_2014-06-24_14-27-04_094959634447_rgbf000074-resize_2-target.png,1000,2.7575,2,28259,1000,feet,jsons/v1_VE1000_randls_21.json,957833,1111972,30,Man
37,104185,DepthScenes,duration_manipulation_targetAtFixation,jsons/v1_VE1000_randls_21.json,http://54.235.29.9/FacialAge/BNav_EC2/DepthDuration/v2_depth_duration_MTurk/v2_DepthDuration_HTML.html#30,30,1366,625,1366,768,8-29-2022,10-9-6,38,depth_duration_stimuli/003228_2014-05-14_13-42-35_094959634447_rgbf000101-resize_1/003228_2014-05-14_13-42-35_094959634447_rgbf000101-resize_1-target.png,1000,1.9680000000000002,2,3728,1000,feet,jsons/v1_VE1000_randls_21.json,957833,1111972,30,Man
38,104185,DepthScenes,duration_manipulation_targetAtFixation,jsons/v1_VE1000_randls_21.json,http://54.235.29.9/FacialAge/BNav_EC2/DepthDuration/v2_depth_duration_MTurk/v2_DepthDuration_HTML.html#30,30,1366,625,1366,768,8-29-2022,10-9-6,39,depth_duration_stimuli/002964_2014-06-08_17-46-11_094959634447_rgbf000091-resize_4/002964_2014-06-08_17-46-11_094959634447_rgbf000091-resize_4-target.png,1000,1.6909999999999998,2,3000,999,feet,jsons/v1_VE1000_randls_21.json,957833,1111972,30,Man
39,104185,DepthScenes,duration_manipulation_targetAtFixation,jsons/v1_VE1000_randls_21.json,http://54.235.29.9/FacialAge/BNav_EC2/DepthDuration/v2_depth_duration_MTurk/v2_DepthDuration_HTML.html#30,30,1366,625,1366,768,8-29-2022,10-9-6,40,depth_duration_stimuli/002136_2014-06-25_21-18-03_260595134347_rgbf000109-resize_3/002136_2014-06-25_21-18-03_260595134347_rgbf000109-resize_3-target.png,1000,1.9569999999999999,3,3189,1000,feet,jsons/v1_VE1000_randls_21.json,957833,1111972,30,Man
40,104185,DepthScenes,duration_manipulation_targetAtFixation,jsons/v1_VE1000_randls_21.json,http://54.235.29.9/FacialAge/BNav_EC2/DepthDuration/v2_depth_duration_MTurk/v2_DepthDuration_HTML.html#30,30,1366,625,1366,768,8-29-2022,10-9-6,41,depth_duration_stimuli/003070_2014-06-15_14-58-27_094959634447_rgbf000150-resize_3/003070_2014-06-15_14-58-27_094959634447_rgbf000150-resize_3-target.png,1000,2.9415,2,3308,1000,feet,jsons/v1_VE1000_randls_21.json,957833,1111972,30,Man
41,104185,DepthScenes,duration_manipulation_targetAtFixation,jsons/v1_VE1000_randls_21.json,http://54.235.29.9/FacialAge/BNav_EC2/DepthDuration/v2_depth_duration_MTurk/v2_DepthDuration_HTML.html#30,30,1366,625,1366,768,8-29-2022,10-9-6,42,depth_duration_stimuli/000943_2014-06-09_19-31-07_260595134347_rgbf000128-resize_1/000943_2014-06-09_19-31-07_260595134347_rgbf000128-resize_1-target.png,1000,1.9765,1,3320,999,feet,jsons/v1_VE1000_randls_21.json,957833,1111972,30,Man
42,104185,DepthScenes,duration_manipulation_targetAtFixation,jsons/v1_VE1000_randls_21.json,http://54.235.29.9/FacialAge/BNav_EC2/DepthDuration/v2_depth_duration_MTurk/v2_DepthDuration_HTML.html#30,30,1366,625,1366,768,8-29-2022,10-9-6,43,depth_duration_stimuli/001150_2014-06-17_15-27-34_260595134347_rgbf000108-resize_2/001150_2014-06-17_15-27-34_260595134347_rgbf000108-resize_2-target.png,1000,4.0325,1,3557,1000,feet,jsons/v1_VE1000_randls_21.json,957833,1111972,30,Man
43,104185,DepthScenes,duration_manipulation_targetAtFixation,jsons/v1_VE1000_randls_21.json,http://54.235.29.9/FacialAge/BNav_EC2/DepthDuration/v2_depth_duration_MTurk/v2_DepthDuration_HTML.html#30,30,1366,625,1366,768,8-29-2022,10-9-6,44,depth_duration_stimuli/000665_2014-06-09_20-42-35_260595134347_rgbf000110-resize_1/000665_2014-06-09_20-42-35_260595134347_rgbf000110-resize_1-target.png,1000,3.057,1,3448,999,feet,jsons/v1_VE1000_randls_21.json,957833,1111972,30,Man
44,104185,DepthScenes,duration_manipulation_targetAtFixation,jsons/v1_VE1000_randls_21.json,http://54.235.29.9/FacialAge/BNav_EC2/DepthDuration/v2_depth_duration_MTurk/v2_DepthDuration_HTML.html#30,30,1366,625,1366,768,8-29-2022,10-9-6,45,depth_duration_stimuli/000787_2014-06-08_22-33-53_260595134347_rgbf000175-resize_1/000787_2014-06-08_22-33-53_260595134347_rgbf000175-resize-original.jpg,1000,4.784,0,3588,998,feet,jsons/v1_VE1000_randls_21.json,957833,1111972,30,Man
45,104185,DepthScenes,duration_manipulation_targetAtFixation,jsons/v1_VE1000_randls_21.json,http://54.235.29.9/FacialAge/BNav_EC2/DepthDuration/v2_depth_duration_MTurk/v2_DepthDuration_HTML.html#30,30,1366,625,1366,768,8-29-2022,10-9-6,46,depth_duration_stimuli/001092_2014-06-15_17-34-58_260595134347_rgbf000171-resize_3/001092_2014-06-15_17-34-58_260595134347_rgbf000171-resize_3-target.png,1000,2.6935,2,13879,1000,feet,jsons/v1_VE1000_randls_21.json,957833,1111972,30,Man
46,104185,DepthScenes,duration_manipulation_targetAtFixation,jsons/v1_VE1000_randls_21.json,http://54.235.29.9/FacialAge/BNav_EC2/DepthDuration/v2_depth_duration_MTurk/v2_DepthDuration_HTML.html#30,30,1366,625,1366,768,8-29-2022,10-9-6,47,depth_duration_stimuli/002545_2014-06-24_13-38-53_094959634447_rgbf000080-resize_4/002545_2014-06-24_13-38-53_094959634447_rgbf000080-resize_4-target.png,1000,1.9205,1,3117,998,feet,jsons/v1_VE1000_randls_21.json,957833,1111972,30,Man
47,104185,DepthScenes,duration_manipulation_targetAtFixation,jsons/v1_VE1000_randls_21.json,http://54.235.29.9/FacialAge/BNav_EC2/DepthDuration/v2_depth_duration_MTurk/v2_DepthDuration_HTML.html#30,30,1366,625,1366,768,8-29-2022,10-9-6,48,depth_duration_stimuli/002445_2014-06-28_20-32-16_260595134347_rgbf000029-resize_4/002445_2014-06-28_20-32-16_260595134347_rgbf000029-resize_4-target.png,1000,2.5315,2,3201,999,feet,jsons/v1_VE1000_randls_21.json,957833,1111972,30,Man
48,104185,DepthScenes,duration_manipulation_targetAtFixation,jsons/v1_VE1000_randls_21.json,http://54.235.29.9/FacialAge/BNav_EC2/DepthDuration/v2_depth_duration_MTurk/v2_DepthDuration_HTML.html#30,30,1366,625,1366,768,8-29-2022,10-9-6,49,depth_duration_stimuli/000780_2014-06-08_22-28-29_260595134347_rgbf000126-resize_1/000780_2014-06-08_22-28-29_260595134347_rgbf000126-resize_1-target.png,1000,3.3825,2,3220,999,feet,jsons/v1_VE1000_randls_21.json,957833,1111972,30,Man
49,104185,DepthScenes,duration_manipulation_targetAtFixation,jsons/v1_VE1000_randls_21.json,http://54.235.29.9/FacialAge/BNav_EC2/DepthDuration/v2_depth_duration_MTurk/v2_DepthDuration_HTML.html#30,30,1366,625,1366,768,8-29-2022,10-9-6,50,depth_duration_stimuli/001059_2014-06-08_21-53-27_260595134347_rgbf000061-resize_4/001059_2014-06-08_21-53-27_260595134347_rgbf000061-resize_4-target.png,1000,2.4185,1,3199,1000,feet,jsons/v1_VE1000_randls_21.json,957833,1111972,30,Man
50,104185,DepthScenes,duration_manipulation_targetAtFixation,jsons/v1_VE1000_randls_21.json,http://54.235.29.9/FacialAge/BNav_EC2/DepthDuration/v2_depth_duration_MTurk/v2_DepthDuration_HTML.html#30,30,1366,625,1366,768,8-29-2022,10-9-6,51,depth_duration_stimuli/001032_2014-06-08_13-23-17_260595134347_rgbf000021-resize_3/001032_2014-06-08_13-23-17_260595134347_rgbf000021-resize_3-target.png,1000,3.2725,1,3200,1000,feet,jsons/v1_VE1000_randls_21.json,957833,1111972,30,Man
51,104185,DepthScenes,duration_manipulation_targetAtFixation,jsons/v1_VE1000_randls_21.json,http://54.235.29.9/FacialAge/BNav_EC2/DepthDuration/v2_depth_duration_MTurk/v2_DepthDuration_HTML.html#30,30,1366,625,1366,768,8-29-2022,10-9-6,52,depth_duration_stimuli/003492_2014-05-21_15-50-55_094959634447_rgbf000828-resize_1/003492_2014-05-21_15-50-55_094959634447_rgbf000828-resize_1-target.png,1000,4.06875,2,3008,999,feet,jsons/v1_VE1000_randls_21.json,957833,1111972,30,Man
52,104185,DepthScenes,duration_manipulation_targetAtFixation,jsons/v1_VE1000_randls_21.json,http://54.235.29.9/FacialAge/BNav_EC2/DepthDuration/v2_depth_duration_MTurk/v2_DepthDuration_HTML.html#30,30,1366,625,1366,768,8-29-2022,10-9-6,53,depth_duration_stimuli/002568_2014-06-24_13-59-21_094959634447_rgbf000062-resize_4/002568_2014-06-24_13-59-21_094959634447_rgbf000062-resize_4-target.png,1000,3.015,0,16749,999,feet,jsons/v1_VE1000_randls_21.json,957833,1111972,30,Man
53,104185,DepthScenes,duration_manipulation_targetAtFixation,jsons/v1_VE1000_randls_21.json,http://54.235.29.9/FacialAge/BNav_EC2/DepthDuration/v2_depth_duration_MTurk/v2_DepthDuration_HTML.html#30,30,1366,625,1366,768,8-29-2022,10-9-6,54,depth_duration_stimuli/000447_2014-06-08_16-15-46_260595134347_rgbf000130-resize_1/000447_2014-06-08_16-15-46_260595134347_rgbf000130-resize_1-target.png,1000,4.479,2,3128,998,feet,jsons/v1_VE1000_randls_21.json,957833,1111972,30,Man
54,104185,DepthScenes,duration_manipulation_targetAtFixation,jsons/v1_VE1000_randls_21.json,http://54.235.29.9/FacialAge/BNav_EC2/DepthDuration/v2_depth_duration_MTurk/v2_DepthDuration_HTML.html#30,30,1366,625,1366,768,8-29-2022,10-9-6,55,depth_duration_stimuli/001447_2014-06-19_17-00-32_260595134347_rgbf000082-resize_5/001447_2014-06-19_17-00-32_260595134347_rgbf000082-resize_5-target.png,1000,4.13775,2,3129,1000,feet,jsons/v1_VE1000_randls_21.json,957833,1111972,30,Man
55,104185,DepthScenes,duration_manipulation_targetAtFixation,jsons/v1_VE1000_randls_21.json,http://54.235.29.9/FacialAge/BNav_EC2/DepthDuration/v2_depth_duration_MTurk/v2_DepthDuration_HTML.html#30,30,1366,625,1366,768,8-29-2022,10-9-6,56,depth_duration_stimuli/003292_2014-05-14_21-53-49_094959634447_rgbf000100-resize_2/003292_2014-05-14_21-53-49_094959634447_rgbf000100-resize_2-target.png,1000,3.4815,2,2998,1001,feet,jsons/v1_VE1000_randls_21.json,957833,1111972,30,Man
56,104185,DepthScenes,duration_manipulation_targetAtFixation,jsons/v1_VE1000_randls_21.json,http://54.235.29.9/FacialAge/BNav_EC2/DepthDuration/v2_depth_duration_MTurk/v2_DepthDuration_HTML.html#30,30,1366,625,1366,768,8-29-2022,10-9-6,57,depth_duration_stimuli/002639_2014-06-24_14-51-37_094959634447_rgbf000074-resize_4/002639_2014-06-24_14-51-37_094959634447_rgbf000074-resize_4-target.png,1000,4.0375,1,3086,1001,feet,jsons/v1_VE1000_randls_21.json,957833,1111972,30,Man
57,104185,DepthScenes,duration_manipulation_targetAtFixation,jsons/v1_VE1000_randls_21.json,http://54.235.29.9/FacialAge/BNav_EC2/DepthDuration/v2_depth_duration_MTurk/v2_DepthDuration_HTML.html#30,30,1366,625,1366,768,8-29-2022,10-9-6,58,depth_duration_stimuli/002057_2014-06-24_21-00-13_260595134347_rgbf000120-resize_1/002057_2014-06-24_21-00-13_260595134347_rgbf000120-resize_1-target.png,1000,2.967,2,3052,999,feet,jsons/v1_VE1000_randls_21.json,957833,1111972,30,Man
58,104185,DepthScenes,duration_manipulation_targetAtFixation,jsons/v1_VE1000_randls_21.json,http://54.235.29.9/FacialAge/BNav_EC2/DepthDuration/v2_depth_duration_MTurk/v2_DepthDuration_HTML.html#30,30,1366,625,1366,768,8-29-2022,10-9-6,59,depth_duration_stimuli/000709_2014-06-08_13-51-55_260595134347_rgbf000068-resize_3/000709_2014-06-08_13-51-55_260595134347_rgbf000068-resize_3-target.png,1000,1.8030000000000002,1,4902,999,feet,jsons/v1_VE1000_randls_21.json,957833,1111972,30,Man
59,104185,DepthScenes,duration_manipulation_targetAtFixation,jsons/v1_VE1000_randls_21.json,http://54.235.29.9/FacialAge/BNav_EC2/DepthDuration/v2_depth_duration_MTurk/v2_DepthDuration_HTML.html#30,30,1366,625,1366,768,8-29-2022,10-9-6,60,depth_duration_stimuli/000736_2014-06-08_18-24-15_260595134347_rgbf000206-resize_3/000736_2014-06-08_18-24-15_260595134347_rgbf000206-resize_3-target.png,1000,3.515,1,3370,1000,feet,jsons/v1_VE1000_randls_21.json,957833,1111972,30,Man
60,104185,DepthScenes,duration_manipulation_targetAtFixation,jsons/v1_VE1000_randls_21.json,http://54.235.29.9/FacialAge/BNav_EC2/DepthDuration/v2_depth_duration_MTurk/v2_DepthDuration_HTML.html#30,30,1366,625,1366,768,8-29-2022,10-9-6,61,depth_duration_stimuli/000137_2014-05-20_17-04-49_260595134347_rgbf000120-resize_1/000137_2014-05-20_17-04-49_260595134347_rgbf000120-resize_1-target.png,1000,3.786,1,3875,999,feet,jsons/v1_VE1000_randls_21.json,957833,1111972,30,Man
61,104185,DepthScenes,duration_manipulation_targetAtFixation,jsons/v1_VE1000_randls_21.json,http://54.235.29.9/FacialAge/BNav_EC2/DepthDuration/v2_depth_duration_MTurk/v2_DepthDuration_HTML.html#30,30,1366,625,1366,768,8-29-2022,10-9-6,62,depth_duration_stimuli/000788_2014-06-08_22-34-36_260595134347_rgbf000131-resize_1/000788_2014-06-08_22-34-36_260595134347_rgbf000131-resize_1-target.png,1000,3.359,1,3246,1001,feet,jsons/v1_VE1000_randls_21.json,957833,1111972,30,Man
62,104185,DepthScenes,duration_manipulation_targetAtFixation,jsons/v1_VE1000_randls_21.json,http://54.235.29.9/FacialAge/BNav_EC2/DepthDuration/v2_depth_duration_MTurk/v2_DepthDuration_HTML.html#30,30,1366,625,1366,768,8-29-2022,10-9-6,63,depth_duration_stimuli/001235_2014-06-17_16-37-36_260595134347_rgbf000084-resize_4/001235_2014-06-17_16-37-36_260595134347_rgbf000084-resize_4-target.png,1000,3.6605,1,4273,1000,feet,jsons/v1_VE1000_randls_21.json,957833,1111972,30,Man
63,104185,DepthScenes,duration_manipulation_targetAtFixation,jsons/v1_VE1000_randls_21.json,http://54.235.29.9/FacialAge/BNav_EC2/DepthDuration/v2_depth_duration_MTurk/v2_DepthDuration_HTML.html#30,30,1366,625,1366,768,8-29-2022,10-9-6,64,depth_duration_stimuli/002272_2014-06-28_18-53-56_260595134347_rgbf000067-resize_2/002272_2014-06-28_18-53-56_260595134347_rgbf000067-resize_2-target.png,1000,1.138,2,3949,1000,feet,jsons/v1_VE1000_randls_21.json,957833,1111972,30,Man
64,104185,DepthScenes,duration_manipulation_targetAtFixation,jsons/v1_VE1000_randls_21.json,http://54.235.29.9/FacialAge/BNav_EC2/DepthDuration/v2_depth_duration_MTurk/v2_DepthDuration_HTML.html#30,30,1366,625,1366,768,8-29-2022,10-9-6,65,depth_duration_stimuli/001571_2014-06-20_17-21-32_260595134347_rgbf000089-resize_1/001571_2014-06-20_17-21-32_260595134347_rgbf000089-resize_1-target.png,1000,1.86,2,3219,1001,feet,jsons/v1_VE1000_randls_21.json,957833,1111972,30,Man
65,104185,DepthScenes,duration_manipulation_targetAtFixation,jsons/v1_VE1000_randls_21.json,http://54.235.29.9/FacialAge/BNav_EC2/DepthDuration/v2_depth_duration_MTurk/v2_DepthDuration_HTML.html#30,30,1366,625,1366,768,8-29-2022,10-9-6,66,depth_duration_stimuli/001222_2014-06-17_16-24-06_260595134347_rgbf000073-resize_0/001222_2014-06-17_16-24-06_260595134347_rgbf000073-resize-original.jpg,1000,1.4385,1,3870,1000,feet,jsons/v1_VE1000_randls_21.json,957833,1111972,30,Man
66,104185,DepthScenes,duration_manipulation_targetAtFixation,jsons/v1_VE1000_randls_21.json,http://54.235.29.9/FacialAge/BNav_EC2/DepthDuration/v2_depth_duration_MTurk/v2_DepthDuration_HTML.html#30,30,1366,625,1366,768,8-29-2022,10-9-6,67,depth_duration_stimuli/000739_2014-06-08_18-45-58_260595134347_rgbf000068-resize_1/000739_2014-06-08_18-45-58_260595134347_rgbf000068-resize_1-target.png,1000,3.534,2,12177,1001,feet,jsons/v1_VE1000_randls_21.json,957833,1111972,30,Man
67,104185,DepthScenes,duration_manipulation_targetAtFixation,jsons/v1_VE1000_randls_21.json,http://54.235.29.9/FacialAge/BNav_EC2/DepthDuration/v2_depth_duration_MTurk/v2_DepthDuration_HTML.html#30,30,1366,625,1366,768,8-29-2022,10-9-6,68,depth_duration_stimuli/000734_2014-06-08_17-39-11_260595134347_rgbf000128-resize_2/000734_2014-06-08_17-39-11_260595134347_rgbf000128-resize_2-target.png,1000,4.098,2,3059,998,feet,jsons/v1_VE1000_randls_21.json,957833,1111972,30,Man
68,104185,DepthScenes,duration_manipulation_targetAtFixation,jsons/v1_VE1000_randls_21.json,http://54.235.29.9/FacialAge/BNav_EC2/DepthDuration/v2_depth_duration_MTurk/v2_DepthDuration_HTML.html#30,30,1366,625,1366,768,8-29-2022,10-9-6,69,depth_duration_stimuli/001016_2014-06-09_16-16-10_260595134347_rgbf000112-resize_5/001016_2014-06-09_16-16-10_260595134347_rgbf000112-resize_5-target.png,1000,1.6565,1,4519,1001,feet,jsons/v1_VE1000_randls_21.json,957833,1111972,30,Man
69,104185,DepthScenes,duration_manipulation_targetAtFixation,jsons/v1_VE1000_randls_21.json,http://54.235.29.9/FacialAge/BNav_EC2/DepthDuration/v2_depth_duration_MTurk/v2_DepthDuration_HTML.html#30,30,1366,625,1366,768,8-29-2022,10-9-6,70,depth_duration_stimuli/002340_2014-06-28_20-05-46_260595134347_rgbf000113-resize_0/002340_2014-06-28_20-05-46_260595134347_rgbf000113-resize_0-target.png,1000,2.4735,2,3178,998,feet,jsons/v1_VE1000_randls_21.json,957833,1111972,30,Man
70,104185,DepthScenes,duration_manipulation_targetAtFixation,jsons/v1_VE1000_randls_21.json,http://54.235.29.9/FacialAge/BNav_EC2/DepthDuration/v2_depth_duration_MTurk/v2_DepthDuration_HTML.html#30,30,1366,625,1366,768,8-29-2022,10-9-6,71,depth_duration_stimuli/001110_2014-06-15_17-25-28_260595134347_rgbf000150-resize_1/001110_2014-06-15_17-25-28_260595134347_rgbf000150-resize_1-target.png,1000,1.7115,1,4150,1000,feet,jsons/v1_VE1000_randls_21.json,957833,1111972,30,Man
71,104185,DepthScenes,duration_manipulation_targetAtFixation,jsons/v1_VE1000_randls_21.json,http://54.235.29.9/FacialAge/BNav_EC2/DepthDuration/v2_depth_duration_MTurk/v2_DepthDuration_HTML.html#30,30,1366,625,1366,768,8-29-2022,10-9-6,72,depth_duration_stimuli/000927_2014-06-09_16-32-30_260595134347_rgbf000123-resize_3/000927_2014-06-09_16-32-30_260595134347_rgbf000123-resize_3-target.png,1000,2.6785,1,3109,1001,feet,jsons/v1_VE1000_randls_21.json,957833,1111972,30,Man
72,104185,DepthScenes,duration_manipulation_targetAtFixation,jsons/v1_VE1000_randls_21.json,http://54.235.29.9/FacialAge/BNav_EC2/DepthDuration/v2_depth_duration_MTurk/v2_DepthDuration_HTML.html#30,30,1366,625,1366,768,8-29-2022,10-9-6,73,depth_duration_stimuli/002375_2014-06-28_20-13-44_260595134347_rgbf000032-resize_1/002375_2014-06-28_20-13-44_260595134347_rgbf000032-resize_1-target.png,1000,4.0175,1,3033,1001,feet,jsons/v1_VE1000_randls_21.json,957833,1111972,30,Man
73,104185,DepthScenes,duration_manipulation_targetAtFixation,jsons/v1_VE1000_randls_21.json,http://54.235.29.9/FacialAge/BNav_EC2/DepthDuration/v2_depth_duration_MTurk/v2_DepthDuration_HTML.html#30,30,1366,625,1366,768,8-29-2022,10-9-6,74,depth_duration_stimuli/002657_2014-06-13_15-29-54_094959634447_rgbf000150-resize_1/002657_2014-06-13_15-29-54_094959634447_rgbf000150-resize_1-target.png,1000,4.919,2,13354,1000,feet,jsons/v1_VE1000_randls_21.json,957833,1111972,30,Man
74,104185,DepthScenes,duration_manipulation_targetAtFixation,jsons/v1_VE1000_randls_21.json,http://54.235.29.9/FacialAge/BNav_EC2/DepthDuration/v2_depth_duration_MTurk/v2_DepthDuration_HTML.html#30,30,1366,625,1366,768,8-29-2022,10-9-6,75,depth_duration_stimuli/000773_2014-06-08_22-24-54_260595134347_rgbf000093-resize_1/000773_2014-06-08_22-24-54_260595134347_rgbf000093-resize_1-target.png,1000,4.973,1,3153,999,feet,jsons/v1_VE1000_randls_21.json,957833,1111972,30,Man
75,104185,DepthScenes,duration_manipulation_targetAtFixation,jsons/v1_VE1000_randls_21.json,http://54.235.29.9/FacialAge/BNav_EC2/DepthDuration/v2_depth_duration_MTurk/v2_DepthDuration_HTML.html#30,30,1366,625,1366,768,8-29-2022,10-9-6,76,depth_duration_stimuli/002414_2014-06-28_20-24-58_260595134347_rgbf000067-resize_4/002414_2014-06-28_20-24-58_260595134347_rgbf000067-resize_4-target.png,1000,4.363,1,3107,996,feet,jsons/v1_VE1000_randls_21.json,957833,1111972,30,Man
76,104185,DepthScenes,duration_manipulation_targetAtFixation,jsons/v1_VE1000_randls_21.json,http://54.235.29.9/FacialAge/BNav_EC2/DepthDuration/v2_depth_duration_MTurk/v2_DepthDuration_HTML.html#30,30,1366,625,1366,768,8-29-2022,10-9-6,77,depth_duration_stimuli/000436_2014-06-09_22-25-11_260595134347_rgbf000137-resize_1/000436_2014-06-09_22-25-11_260595134347_rgbf000137-resize_1-target.png,1000,4.0705,1,3296,1000,feet,jsons/v1_VE1000_randls_21.json,957833,1111972,30,Man
77,104185,DepthScenes,duration_manipulation_targetAtFixation,jsons/v1_VE1000_randls_21.json,http://54.235.29.9/FacialAge/BNav_EC2/DepthDuration/v2_depth_duration_MTurk/v2_DepthDuration_HTML.html#30,30,1366,625,1366,768,8-29-2022,10-9-6,78,depth_duration_stimuli/002444_2014-06-28_20-32-08_260595134347_rgbf000027-resize_0/002444_2014-06-28_20-32-08_260595134347_rgbf000027-resize_0-target.png,1000,4.388999999999999,1,4239,1001,feet,jsons/v1_VE1000_randls_21.json,957833,1111972,30,Man
78,104185,DepthScenes,duration_manipulation_targetAtFixation,jsons/v1_VE1000_randls_21.json,http://54.235.29.9/FacialAge/BNav_EC2/DepthDuration/v2_depth_duration_MTurk/v2_DepthDuration_HTML.html#30,30,1366,625,1366,768,8-29-2022,10-9-6,79,depth_duration_stimuli/002570_2014-06-24_13-59-54_094959634447_rgbf000059-resize_0/002570_2014-06-24_13-59-54_094959634447_rgbf000059-resize_0-target.png,1000,4.037,2,7271,999,feet,jsons/v1_VE1000_randls_21.json,957833,1111972,30,Man
79,104185,DepthScenes,duration_manipulation_targetAtFixation,jsons/v1_VE1000_randls_21.json,http://54.235.29.9/FacialAge/BNav_EC2/DepthDuration/v2_depth_duration_MTurk/v2_DepthDuration_HTML.html#30,30,1366,625,1366,768,8-29-2022,10-9-6,80,depth_duration_stimuli/002467_2014-06-28_20-38-07_260595134347_rgbf000026-resize_2/002467_2014-06-28_20-38-07_260595134347_rgbf000026-resize_2-target.png,1000,4.742,1,3127,1000,feet,jsons/v1_VE1000_randls_21.json,957833,1111972,30,Man
80,104185,DepthScenes,duration_manipulation_targetAtFixation,jsons/v1_VE1000_randls_21.json,http://54.235.29.9/FacialAge/BNav_EC2/DepthDuration/v2_depth_duration_MTurk/v2_DepthDuration_HTML.html#30,30,1366,625,1366,768,8-29-2022,10-9-6,81,depth_duration_stimuli/002725_2014-06-22_11-47-51_094959634447_rgbf000070-resize_1/002725_2014-06-22_11-47-51_094959634447_rgbf000070-resize_1-target.png,1000,2.195,2,11129,1000,feet,jsons/v1_VE1000_randls_21.json,957833,1111972,30,Man
81,104185,DepthScenes,duration_manipulation_targetAtFixation,jsons/v1_VE1000_randls_21.json,http://54.235.29.9/FacialAge/BNav_EC2/DepthDuration/v2_depth_duration_MTurk/v2_DepthDuration_HTML.html#30,30,1366,625,1366,768,8-29-2022,10-9-6,82,depth_duration_stimuli/002344_2014-06-28_20-06-29_260595134347_rgbf000030-resize_1/002344_2014-06-28_20-06-29_260595134347_rgbf000030-resize_1-target.png,1000,1.5795,1,3507,1000,feet,jsons/v1_VE1000_randls_21.json,957833,1111972,30,Man
82,104185,DepthScenes,duration_manipulation_targetAtFixation,jsons/v1_VE1000_randls_21.json,http://54.235.29.9/FacialAge/BNav_EC2/DepthDuration/v2_depth_duration_MTurk/v2_DepthDuration_HTML.html#30,30,1366,625,1366,768,8-29-2022,10-9-6,83,depth_duration_stimuli/003534_2014-05-22_15-06-10_094959634447_rgbf000102-resize_4/003534_2014-05-22_15-06-10_094959634447_rgbf000102-resize_4-target.png,1000,1.426,2,3609,1001,feet,jsons/v1_VE1000_randls_21.json,957833,1111972,30,Man
83,104185,DepthScenes,duration_manipulation_targetAtFixation,jsons/v1_VE1000_randls_21.json,http://54.235.29.9/FacialAge/BNav_EC2/DepthDuration/v2_depth_duration_MTurk/v2_DepthDuration_HTML.html#30,30,1366,625,1366,768,8-29-2022,10-9-6,84,depth_duration_stimuli/002637_2014-06-24_14-51-13_094959634447_rgbf000066-resize_4/002637_2014-06-24_14-51-13_094959634447_rgbf000066-resize_4-target.png,1000,1.9955,2,2880,1001,feet,jsons/v1_VE1000_randls_21.json,957833,1111972,30,Man
84,104185,DepthScenes,duration_manipulation_targetAtFixation,jsons/v1_VE1000_randls_21.json,http://54.235.29.9/FacialAge/BNav_EC2/DepthDuration/v2_depth_duration_MTurk/v2_DepthDuration_HTML.html#30,30,1366,625,1366,768,8-29-2022,10-9-6,85,depth_duration_stimuli/000878_2014-06-08_22-52-45_260595134347_rgbf000045-resize_2/000878_2014-06-08_22-52-45_260595134347_rgbf000045-resize_2-target.png,1000,2.092,1,3189,1000,feet,jsons/v1_VE1000_randls_21.json,957833,1111972,30,Man
85,104185,DepthScenes,duration_manipulation_targetAtFixation,jsons/v1_VE1000_randls_21.json,http://54.235.29.9/FacialAge/BNav_EC2/DepthDuration/v2_depth_duration_MTurk/v2_DepthDuration_HTML.html#30,30,1366,625,1366,768,8-29-2022,10-9-6,86,depth_duration_stimuli/002953_2014-06-08_17-32-18_094959634447_rgbf000059-resize_5/002953_2014-06-08_17-32-18_094959634447_rgbf000059-resize_5-target.png,1000,1.551,2,3000,999,feet,jsons/v1_VE1000_randls_21.json,957833,1111972,30,Man
86,104185,DepthScenes,duration_manipulation_targetAtFixation,jsons/v1_VE1000_randls_21.json,http://54.235.29.9/FacialAge/BNav_EC2/DepthDuration/v2_depth_duration_MTurk/v2_DepthDuration_HTML.html#30,30,1366,625,1366,768,8-29-2022,10-9-6,87,depth_duration_stimuli/001133_2014-06-17_14-49-16_260595134347_rgbf000100-resize_0/001133_2014-06-17_14-49-16_260595134347_rgbf000100-resize_0-target.png,1000,4.2115,1,3188,999,feet,jsons/v1_VE1000_randls_21.json,957833,1111972,30,Man
87,104185,DepthScenes,duration_manipulation_targetAtFixation,jsons/v1_VE1000_randls_21.json,http://54.235.29.9/FacialAge/BNav_EC2/DepthDuration/v2_depth_duration_MTurk/v2_DepthDuration_HTML.html#30,30,1366,625,1366,768,8-29-2022,10-9-6,88,depth_duration_stimuli/001132_2014-06-17_14-48-54_260595134347_rgbf000100-resize_2/001132_2014-06-17_14-48-54_260595134347_rgbf000100-resize_2-target.png,1000,3.753,1,3453,1001,feet,jsons/v1_VE1000_randls_21.json,957833,1111972,30,Man
88,104185,DepthScenes,duration_manipulation_targetAtFixation,jsons/v1_VE1000_randls_21.json,http://54.235.29.9/FacialAge/BNav_EC2/DepthDuration/v2_depth_duration_MTurk/v2_DepthDuration_HTML.html#30,30,1366,625,1366,768,8-29-2022,10-9-6,89,depth_duration_stimuli/002788_2014-06-22_19-36-03_094959634447_rgbf000088-resize_2/002788_2014-06-22_19-36-03_094959634447_rgbf000088-resize_2-target.png,1000,1.6465,1,14314,1000,feet,jsons/v1_VE1000_randls_21.json,957833,1111972,30,Man
89,104185,DepthScenes,duration_manipulation_targetAtFixation,jsons/v1_VE1000_randls_21.json,http://54.235.29.9/FacialAge/BNav_EC2/DepthDuration/v2_depth_duration_MTurk/v2_DepthDuration_HTML.html#30,30,1366,625,1366,768,8-29-2022,10-9-6,90,depth_duration_stimuli/000749_2014-06-08_21-55-06_260595134347_rgbf000070-resize_2/000749_2014-06-08_21-55-06_260595134347_rgbf000070-resize_2-target.png,1000,2.331,2,3061,1000,feet,jsons/v1_VE1000_randls_21.json,957833,1111972,30,Man
90,104185,DepthScenes,duration_manipulation_targetAtFixation,jsons/v1_VE1000_randls_21.json,http://54.235.29.9/FacialAge/BNav_EC2/DepthDuration/v2_depth_duration_MTurk/v2_DepthDuration_HTML.html#30,30,1366,625,1366,768,8-29-2022,10-9-6,91,depth_duration_stimuli/002988_2014-06-15_12-24-20_094959634447_rgbf000150-resize_1/002988_2014-06-15_12-24-20_094959634447_rgbf000150-resize_1-target.png,1000,4.7669999999999995,3,3049,981,feet,jsons/v1_VE1000_randls_21.json,957833,1111972,30,Man
91,104185,DepthScenes,duration_manipulation_targetAtFixation,jsons/v1_VE1000_randls_21.json,http://54.235.29.9/FacialAge/BNav_EC2/DepthDuration/v2_depth_duration_MTurk/v2_DepthDuration_HTML.html#30,30,1366,625,1366,768,8-29-2022,10-9-6,92,depth_duration_stimuli/001052_2014-06-08_18-24-54_260595134347_rgbf000130-resize_1/001052_2014-06-08_18-24-54_260595134347_rgbf000130-resize_1-target.png,1000,4.1045,3,3068,1000,feet,jsons/v1_VE1000_randls_21.json,957833,1111972,30,Man
92,104185,DepthScenes,duration_manipulation_targetAtFixation,jsons/v1_VE1000_randls_21.json,http://54.235.29.9/FacialAge/BNav_EC2/DepthDuration/v2_depth_duration_MTurk/v2_DepthDuration_HTML.html#30,30,1366,625,1366,768,8-29-2022,10-9-6,93,depth_duration_stimuli/000368_2014-06-09_15-53-01_260595134347_rgbf000155-resize_2/000368_2014-06-09_15-53-01_260595134347_rgbf000155-resize_2-target.png,1000,2.4859999999999998,1,2918,999,feet,jsons/v1_VE1000_randls_21.json,957833,1111972,30,Man
93,104185,DepthScenes,duration_manipulation_targetAtFixation,jsons/v1_VE1000_randls_21.json,http://54.235.29.9/FacialAge/BNav_EC2/DepthDuration/v2_depth_duration_MTurk/v2_DepthDuration_HTML.html#30,30,1366,625,1366,768,8-29-2022,10-9-6,94,depth_duration_stimuli/002678_2014-06-13_16-15-32_094959634447_rgbf000151-resize_6/002678_2014-06-13_16-15-32_094959634447_rgbf000151-resize_6-target.png,1000,2.1830000000000003,1,5369,1000,feet,jsons/v1_VE1000_randls_21.json,957833,1111972,30,Man
94,104185,DepthScenes,duration_manipulation_targetAtFixation,jsons/v1_VE1000_randls_21.json,http://54.235.29.9/FacialAge/BNav_EC2/DepthDuration/v2_depth_duration_MTurk/v2_DepthDuration_HTML.html#30,30,1366,625,1366,768,8-29-2022,10-9-6,95,depth_duration_stimuli/001066_2014-06-08_22-03-20_260595134347_rgbf000066-resize_4/001066_2014-06-08_22-03-20_260595134347_rgbf000066-resize_4-target.png,1000,4.2330000000000005,2,3310,1000,feet,jsons/v1_VE1000_randls_21.json,957833,1111972,30,Man
95,104185,DepthScenes,duration_manipulation_targetAtFixation,jsons/v1_VE1000_randls_21.json,http://54.235.29.9/FacialAge/BNav_EC2/DepthDuration/v2_depth_duration_MTurk/v2_DepthDuration_HTML.html#30,30,1366,625,1366,768,8-29-2022,10-9-6,96,depth_duration_stimuli/000742_2014-06-08_18-48-09_260595134347_rgbf000164-resize_4/000742_2014-06-08_18-48-09_260595134347_rgbf000164-resize_4-target.png,1000,4.632,2,3596,999,feet,jsons/v1_VE1000_randls_21.json,957833,1111972,30,Man
96,104185,DepthScenes,duration_manipulation_targetAtFixation,jsons/v1_VE1000_randls_21.json,http://54.235.29.9/FacialAge/BNav_EC2/DepthDuration/v2_depth_duration_MTurk/v2_DepthDuration_HTML.html#30,30,1366,625,1366,768,8-29-2022,10-9-6,97,depth_duration_stimuli/001808_2014-06-26_20-50-58_260595134347_rgbf000029-resize_1/001808_2014-06-26_20-50-58_260595134347_rgbf000029-resize_1-target.png,1000,4.249,2,3079,998,feet,jsons/v1_VE1000_randls_21.json,957833,1111972,30,Man
97,104185,DepthScenes,duration_manipulation_targetAtFixation,jsons/v1_VE1000_randls_21.json,http://54.235.29.9/FacialAge/BNav_EC2/DepthDuration/v2_depth_duration_MTurk/v2_DepthDuration_HTML.html#30,30,1366,625,1366,768,8-29-2022,10-9-6,98,depth_duration_stimuli/001815_2014-06-26_20-52-55_260595134347_rgbf000020-resize_0/001815_2014-06-26_20-52-55_260595134347_rgbf000020-resize_0-target.png,1000,3.3865,2,13249,1070,feet,jsons/v1_VE1000_randls_21.json,957833,1111972,30,Man
98,104185,DepthScenes,duration_manipulation_targetAtFixation,jsons/v1_VE1000_randls_21.json,http://54.235.29.9/FacialAge/BNav_EC2/DepthDuration/v2_depth_duration_MTurk/v2_DepthDuration_HTML.html#30,30,1366,625,1366,768,8-29-2022,10-9-6,99,depth_duration_stimuli/001540_2014-06-20_17-01-05_260595134347_rgbf000086-resize_2/001540_2014-06-20_17-01-05_260595134347_rgbf000086-resize-original.jpg,1000,1.459,0,3878,1000,feet,jsons/v1_VE1000_randls_21.json,957833,1111972,30,Man
99,104185,DepthScenes,duration_manipulation_targetAtFixation,jsons/v1_VE1000_randls_21.json,http://54.235.29.9/FacialAge/BNav_EC2/DepthDuration/v2_depth_duration_MTurk/v2_DepthDuration_HTML.html#30,30,1366,625,1366,768,8-29-2022,10-9-6,100,depth_duration_stimuli/002763_2014-06-22_19-13-10_094959634447_rgbf000075-resize_4/002763_2014-06-22_19-13-10_094959634447_rgbf000075-resize_4-target.png,1000,1.68375,1,4358,1031,feet,jsons/v1_VE1000_randls_21.json,957833,1111972,30,Man
100,104185,DepthScenes,duration_manipulation_targetAtFixation,jsons/v1_VE1000_randls_21.json,http://54.235.29.9/FacialAge/BNav_EC2/DepthDuration/v2_depth_duration_MTurk/v2_DepthDuration_HTML.html#30,30,1366,625,1366,768,8-29-2022,10-9-6,101,depth_duration_stimuli/002209_2014-06-28_18-36-10_260595134347_rgbf000051-resize_1/002209_2014-06-28_18-36-10_260595134347_rgbf000051-resize_1-target.png,1000,2.057,1,3596,985,feet,jsons/v1_VE1000_randls_21.json,957833,1111972,30,Man
101,104185,DepthScenes,duration_manipulation_targetAtFixation,jsons/v1_VE1000_randls_21.json,http://54.235.29.9/FacialAge/BNav_EC2/DepthDuration/v2_depth_duration_MTurk/v2_DepthDuration_HTML.html#30,30,1366,625,1366,768,8-29-2022,10-9-6,102,depth_duration_stimuli/000682_2014-06-08_23-14-58_260595134347_rgbf000041-resize_5/000682_2014-06-08_23-14-58_260595134347_rgbf000041-resize_5-target.png,1000,2.7239999999999998,1,2858,940,feet,jsons/v1_VE1000_randls_21.json,957833,1111972,30,Man
102,104185,DepthScenes,duration_manipulation_targetAtFixation,jsons/v1_VE1000_randls_21.json,http://54.235.29.9/FacialAge/BNav_EC2/DepthDuration/v2_depth_duration_MTurk/v2_DepthDuration_HTML.html#30,30,1366,625,1366,768,8-29-2022,10-9-6,103,depth_duration_stimuli/001650_2014-06-20_12-09-00_260595134347_rgbf000087-resize_3/001650_2014-06-20_12-09-00_260595134347_rgbf000087-resize_3-target.png,1000,1.9505,1,3970,999,feet,jsons/v1_VE1000_randls_21.json,957833,1111972,30,Man
103,104185,DepthScenes,duration_manipulation_targetAtFixation,jsons/v1_VE1000_randls_21.json,http://54.235.29.9/FacialAge/BNav_EC2/DepthDuration/v2_depth_duration_MTurk/v2_DepthDuration_HTML.html#30,30,1366,625,1366,768,8-29-2022,10-9-6,104,depth_duration_stimuli/001164_2014-06-17_15-35-46_260595134347_rgbf000085-resize_3/001164_2014-06-17_15-35-46_260595134347_rgbf000085-resize_3-target.png,1000,2.354,1,3249,999,feet,jsons/v1_VE1000_randls_21.json,957833,1111972,30,Man
104,104185,DepthScenes,duration_manipulation_targetAtFixation,jsons/v1_VE1000_randls_21.json,http://54.235.29.9/FacialAge/BNav_EC2/DepthDuration/v2_depth_duration_MTurk/v2_DepthDuration_HTML.html#30,30,1366,625,1366,768,8-29-2022,10-9-6,105,depth_duration_stimuli/001136_2014-06-17_15-19-41_260595134347_rgbf000076-resize_3/001136_2014-06-17_15-19-41_260595134347_rgbf000076-resize_3-target.png,1000,1.8655,1,12759,1001,feet,jsons/v1_VE1000_randls_21.json,957833,1111972,30,Man
105,104185,DepthScenes,duration_manipulation_targetAtFixation,jsons/v1_VE1000_randls_21.json,http://54.235.29.9/FacialAge/BNav_EC2/DepthDuration/v2_depth_duration_MTurk/v2_DepthDuration_HTML.html#30,30,1366,625,1366,768,8-29-2022,10-9-6,106,depth_duration_stimuli/002039_2014-06-24_20-22-38_260595134347_rgbf000084-resize_1/002039_2014-06-24_20-22-38_260595134347_rgbf000084-resize_1-target.png,1000,4.408,3,5060,1007,feet,jsons/v1_VE1000_randls_21.json,957833,1111972,30,Man
106,104185,DepthScenes,duration_manipulation_targetAtFixation,jsons/v1_VE1000_randls_21.json,http://54.235.29.9/FacialAge/BNav_EC2/DepthDuration/v2_depth_duration_MTurk/v2_DepthDuration_HTML.html#30,30,1366,625,1366,768,8-29-2022,10-9-6,107,depth_duration_stimuli/002103_2014-06-25_20-00-40_260595134347_rgbf000049-resize_0/002103_2014-06-25_20-00-40_260595134347_rgbf000049-resize_0-target.png,1000,4.105,2,3098,1000,feet,jsons/v1_VE1000_randls_21.json,957833,1111972,30,Man
107,104185,DepthScenes,duration_manipulation_targetAtFixation,jsons/v1_VE1000_randls_21.json,http://54.235.29.9/FacialAge/BNav_EC2/DepthDuration/v2_depth_duration_MTurk/v2_DepthDuration_HTML.html#30,30,1366,625,1366,768,8-29-2022,10-9-6,108,depth_duration_stimuli/001158_2014-06-17_15-32-16_260595134347_rgbf000138-resize_2/001158_2014-06-17_15-32-16_260595134347_rgbf000138-resize_2-target.png,1000,4.5315,1,2920,1000,feet,jsons/v1_VE1000_randls_21.json,957833,1111972,30,Man
108,104185,DepthScenes,duration_manipulation_targetAtFixation,jsons/v1_VE1000_randls_21.json,http://54.235.29.9/FacialAge/BNav_EC2/DepthDuration/v2_depth_duration_MTurk/v2_DepthDuration_HTML.html#30,30,1366,625,1366,768,8-29-2022,10-9-6,109,depth_duration_stimuli/000556_2014-06-09_22-42-56_260595134347_rgbf000214-resize_1/000556_2014-06-09_22-42-56_260595134347_rgbf000214-resize_1-target.png,1000,4.8415,1,3070,999,feet,jsons/v1_VE1000_randls_21.json,957833,1111972,30,Man
109,104185,DepthScenes,duration_manipulation_targetAtFixation,jsons/v1_VE1000_randls_21.json,http://54.235.29.9/FacialAge/BNav_EC2/DepthDuration/v2_depth_duration_MTurk/v2_DepthDuration_HTML.html#30,30,1366,625,1366,768,8-29-2022,10-9-6,110,depth_duration_stimuli/002549_2014-06-24_13-41-39_094959634447_rgbf000022-resize_3/002549_2014-06-24_13-41-39_094959634447_rgbf000022-resize_3-target.png,1000,1.476,2,3377,1012,feet,jsons/v1_VE1000_randls_21.json,957833,1111972,30,Man
110,104185,DepthScenes,duration_manipulation_targetAtFixation,jsons/v1_VE1000_randls_21.json,http://54.235.29.9/FacialAge/BNav_EC2/DepthDuration/v2_depth_duration_MTurk/v2_DepthDuration_HTML.html#30,30,1366,625,1366,768,8-29-2022,10-9-6,111,depth_duration_stimuli/002750_2014-06-22_19-08-03_094959634447_rgbf000094-resize_4/002750_2014-06-22_19-08-03_094959634447_rgbf000094-resize_4-target.png,1000,2.354,1,2888,1043,feet,jsons/v1_VE1000_randls_21.json,957833,1111972,30,Man
111,104185,DepthScenes,duration_manipulation_targetAtFixation,jsons/v1_VE1000_randls_21.json,http://54.235.29.9/FacialAge/BNav_EC2/DepthDuration/v2_depth_duration_MTurk/v2_DepthDuration_HTML.html#30,30,1366,625,1366,768,8-29-2022,10-9-6,112,depth_duration_stimuli/001570_2014-06-20_17-21-09_260595134347_rgbf000135-resize_4/001570_2014-06-20_17-21-09_260595134347_rgbf000135-resize_4-target.png,1000,4.467,2,11493,1001,feet,jsons/v1_VE1000_randls_21.json,957833,1111972,30,Man
112,104185,DepthScenes,duration_manipulation_targetAtFixation,jsons/v1_VE1000_randls_21.json,http://54.235.29.9/FacialAge/BNav_EC2/DepthDuration/v2_depth_duration_MTurk/v2_DepthDuration_HTML.html#30,30,1366,625,1366,768,8-29-2022,10-9-6,113,depth_duration_stimuli/001392_2014-06-19_16-07-59_260595134347_rgbf000046-resize_1/001392_2014-06-19_16-07-59_260595134347_rgbf000046-resize_1-target.png,1000,4.135,3,3065,1000,feet,jsons/v1_VE1000_randls_21.json,957833,1111972,30,Man
113,104185,DepthScenes,duration_manipulation_targetAtFixation,jsons/v1_VE1000_randls_21.json,http://54.235.29.9/FacialAge/BNav_EC2/DepthDuration/v2_depth_duration_MTurk/v2_DepthDuration_HTML.html#30,30,1366,625,1366,768,8-29-2022,10-9-6,114,depth_duration_stimuli/001810_2014-06-26_20-51-35_260595134347_rgbf000040-resize_3/001810_2014-06-26_20-51-35_260595134347_rgbf000040-resize_3-target.png,1000,2.2525,2,2899,1000,feet,jsons/v1_VE1000_randls_21.json,957833,1111972,30,Man
114,104185,DepthScenes,duration_manipulation_targetAtFixation,jsons/v1_VE1000_randls_21.json,http://54.235.29.9/FacialAge/BNav_EC2/DepthDuration/v2_depth_duration_MTurk/v2_DepthDuration_HTML.html#30,30,1366,625,1366,768,8-29-2022,10-9-6,115,depth_duration_stimuli/003010_2014-06-15_12-54-35_094959634447_rgbf000112-resize_0/003010_2014-06-15_12-54-35_094959634447_rgbf000112-resize_0-target.png,1000,3.1185,3,2771,999,feet,jsons/v1_VE1000_randls_21.json,957833,1111972,30,Man
115,104185,DepthScenes,duration_manipulation_targetAtFixation,jsons/v1_VE1000_randls_21.json,http://54.235.29.9/FacialAge/BNav_EC2/DepthDuration/v2_depth_duration_MTurk/v2_DepthDuration_HTML.html#30,30,1366,625,1366,768,8-29-2022,10-9-6,116,depth_duration_stimuli/001170_2014-06-17_15-43-44_260595134347_rgbf000096-resize_6/001170_2014-06-17_15-43-44_260595134347_rgbf000096-resize-original.jpg,1000,1.1909999999999998,0,3369,1001,feet,jsons/v1_VE1000_randls_21.json,957833,1111972,30,Man
116,104185,DepthScenes,duration_manipulation_targetAtFixation,jsons/v1_VE1000_randls_21.json,http://54.235.29.9/FacialAge/BNav_EC2/DepthDuration/v2_depth_duration_MTurk/v2_DepthDuration_HTML.html#30,30,1366,625,1366,768,8-29-2022,10-9-6,117,depth_duration_stimuli/003621_2014-05-23_18-06-08_094959634447_rgbf000101-resize_1/003621_2014-05-23_18-06-08_094959634447_rgbf000101-resize_1-target.png,1000,3.9835,2,5890,1000,feet,jsons/v1_VE1000_randls_21.json,957833,1111972,30,Man
117,104185,DepthScenes,duration_manipulation_targetAtFixation,jsons/v1_VE1000_randls_21.json,http://54.235.29.9/FacialAge/BNav_EC2/DepthDuration/v2_depth_duration_MTurk/v2_DepthDuration_HTML.html#30,30,1366,625,1366,768,8-29-2022,10-9-6,118,depth_duration_stimuli/001584_2014-06-20_11-07-43_260595134347_rgbf000002-resize_1/001584_2014-06-20_11-07-43_260595134347_rgbf000002-resize_1-target.png,1000,3.53,2,4977,998,feet,jsons/v1_VE1000_randls_21.json,957833,1111972,30,Man
118,104185,DepthScenes,duration_manipulation_targetAtFixation,jsons/v1_VE1000_randls_21.json,http://54.235.29.9/FacialAge/BNav_EC2/DepthDuration/v2_depth_duration_MTurk/v2_DepthDuration_HTML.html#30,30,1366,625,1366,768,8-29-2022,10-9-6,119,depth_duration_stimuli/002663_2014-06-13_15-50-26_094959634447_rgbf000075-resize_1/002663_2014-06-13_15-50-26_094959634447_rgbf000075-resize_1-target.png,1000,4.7495,1,12579,1000,feet,jsons/v1_VE1000_randls_21.json,957833,1111972,30,Man
119,104185,DepthScenes,duration_manipulation_targetAtFixation,jsons/v1_VE1000_randls_21.json,http://54.235.29.9/FacialAge/BNav_EC2/DepthDuration/v2_depth_duration_MTurk/v2_DepthDuration_HTML.html#30,30,1366,625,1366,768,8-29-2022,10-9-6,120,depth_duration_stimuli/000409_2014-06-04_19-23-33_260595134347_rgbf000067-resize_0/000409_2014-06-04_19-23-33_260595134347_rgbf000067-resize_0-target.png,1000,3.7335,1,2990,998,feet,jsons/v1_VE1000_randls_21.json,957833,1111972,30,Man
120,104185,DepthScenes,duration_manipulation_targetAtFixation,jsons/v1_VE1000_randls_21.json,http://54.235.29.9/FacialAge/BNav_EC2/DepthDuration/v2_depth_duration_MTurk/v2_DepthDuration_HTML.html#30,30,1366,625,1366,768,8-29-2022,10-9-6,121,depth_duration_stimuli/000917_2014-06-09_22-45-29_260595134347_rgbf000149-resize_3/000917_2014-06-09_22-45-29_260595134347_rgbf000149-resize_3-target.png,1000,4.1865,2,3238,1001,feet,jsons/v1_VE1000_randls_21.json,957833,1111972,30,Man
121,104185,DepthScenes,duration_manipulation_targetAtFixation,jsons/v1_VE1000_randls_21.json,http://54.235.29.9/FacialAge/BNav_EC2/DepthDuration/v2_depth_duration_MTurk/v2_DepthDuration_HTML.html#30,30,1366,625,1366,768,8-29-2022,10-9-6,122,depth_duration_stimuli/002323_2014-06-28_20-01-54_260595134347_rgbf000051-resize_4/002323_2014-06-28_20-01-54_260595134347_rgbf000051-resize_4-target.png,1000,3.7310000000000003,1,2947,1000,feet,jsons/v1_VE1000_randls_21.json,957833,1111972,30,Man
122,104185,DepthScenes,duration_manipulation_targetAtFixation,jsons/v1_VE1000_randls_21.json,http://54.235.29.9/FacialAge/BNav_EC2/DepthDuration/v2_depth_duration_MTurk/v2_DepthDuration_HTML.html#30,30,1366,625,1366,768,8-29-2022,10-9-6,123,depth_duration_stimuli/001167_2014-06-17_15-38-07_260595134347_rgbf000108-resize_0/001167_2014-06-17_15-38-07_260595134347_rgbf000108-resize_0-target.png,1000,1.8505,1,3119,998,feet,jsons/v1_VE1000_randls_21.json,957833,1111972,30,Man
123,104185,DepthScenes,duration_manipulation_targetAtFixation,jsons/v1_VE1000_randls_21.json,http://54.235.29.9/FacialAge/BNav_EC2/DepthDuration/v2_depth_duration_MTurk/v2_DepthDuration_HTML.html#30,30,1366,625,1366,768,8-29-2022,10-9-6,124,depth_duration_stimuli/003587_2014-05-23_16-48-02_094959634447_rgbf002384-resize_2/003587_2014-05-23_16-48-02_094959634447_rgbf002384-resize_2-target.png,1000,1.357,1,2941,1000,feet,jsons/v1_VE1000_randls_21.json,957833,1111972,30,Man
124,104185,DepthScenes,duration_manipulation_targetAtFixation,jsons/v1_VE1000_randls_21.json,http://54.235.29.9/FacialAge/BNav_EC2/DepthDuration/v2_depth_duration_MTurk/v2_DepthDuration_HTML.html#30,30,1366,625,1366,768,8-29-2022,10-9-6,125,depth_duration_stimuli/002748_2014-06-22_19-07-22_094959634447_rgbf000078-resize_1/002748_2014-06-22_19-07-22_094959634447_rgbf000078-resize_1-target.png,1000,4.6705,1,3757,1000,feet,jsons/v1_VE1000_randls_21.json,957833,1111972,30,Man
125,104185,DepthScenes,duration_manipulation_targetAtFixation,jsons/v1_VE1000_randls_21.json,http://54.235.29.9/FacialAge/BNav_EC2/DepthDuration/v2_depth_duration_MTurk/v2_DepthDuration_HTML.html#30,30,1366,625,1366,768,8-29-2022,10-9-6,126,depth_duration_stimuli/002995_2014-06-15_12-31-26_094959634447_rgbf000150-resize_1/002995_2014-06-15_12-31-26_094959634447_rgbf000150-resize_1-target.png,1000,3.8360000000000003,1,2938,1000,feet,jsons/v1_VE1000_randls_21.json,957833,1111972,30,Man
126,104185,DepthScenes,duration_manipulation_targetAtFixation,jsons/v1_VE1000_randls_21.json,http://54.235.29.9/FacialAge/BNav_EC2/DepthDuration/v2_depth_duration_MTurk/v2_DepthDuration_HTML.html#30,30,1366,625,1366,768,8-29-2022,10-9-6,127,depth_duration_stimuli/002989_2014-06-15_12-25-03_094959634447_rgbf000150-resize_3/002989_2014-06-15_12-25-03_094959634447_rgbf000150-resize_3-target.png,1000,4.1975,1,11054,1000,feet,jsons/v1_VE1000_randls_21.json,957833,1111972,30,Man
127,104185,DepthScenes,duration_manipulation_targetAtFixation,jsons/v1_VE1000_randls_21.json,http://54.235.29.9/FacialAge/BNav_EC2/DepthDuration/v2_depth_duration_MTurk/v2_DepthDuration_HTML.html#30,30,1366,625,1366,768,8-29-2022,10-9-6,128,depth_duration_stimuli/000866_2014-06-09_20-45-42_260595134347_rgbf000139-resize_1/000866_2014-06-09_20-45-42_260595134347_rgbf000139-resize_1-target.png,1000,3.2155,1,3004,1000,feet,jsons/v1_VE1000_randls_21.json,957833,1111972,30,Man
128,104185,DepthScenes,duration_manipulation_targetAtFixation,jsons/v1_VE1000_randls_21.json,http://54.235.29.9/FacialAge/BNav_EC2/DepthDuration/v2_depth_duration_MTurk/v2_DepthDuration_HTML.html#30,30,1366,625,1366,768,8-29-2022,10-9-6,129,depth_duration_stimuli/001029_2014-06-08_13-17-57_260595134347_rgbf000065-resize_1/001029_2014-06-08_13-17-57_260595134347_rgbf000065-resize_1-target.png,1000,3.0835,2,2890,1000,feet,jsons/v1_VE1000_randls_21.json,957833,1111972,30,Man
129,104185,DepthScenes,duration_manipulation_targetAtFixation,jsons/v1_VE1000_randls_21.json,http://54.235.29.9/FacialAge/BNav_EC2/DepthDuration/v2_depth_duration_MTurk/v2_DepthDuration_HTML.html#30,30,1366,625,1366,768,8-29-2022,10-9-6,130,depth_duration_stimuli/000677_2014-06-08_23-10-32_260595134347_rgbf000158-resize_6/000677_2014-06-08_23-10-32_260595134347_rgbf000158-resize_6-target.png,1000,3.556,1,2968,999,feet,jsons/v1_VE1000_randls_21.json,957833,1111972,30,Man
130,104185,DepthScenes,duration_manipulation_targetAtFixation,jsons/v1_VE1000_randls_21.json,http://54.235.29.9/FacialAge/BNav_EC2/DepthDuration/v2_depth_duration_MTurk/v2_DepthDuration_HTML.html#30,30,1366,625,1366,768,8-29-2022,10-9-6,131,depth_duration_stimuli/000906_2014-06-08_13-35-43_260595134347_rgbf000155-resize_1/000906_2014-06-08_13-35-43_260595134347_rgbf000155-resize_1-target.png,1000,2.8489999999999998,3,6452,1000,feet,jsons/v1_VE1000_randls_21.json,957833,1111972,30,Man
131,104185,DepthScenes,duration_manipulation_targetAtFixation,jsons/v1_VE1000_randls_21.json,http://54.235.29.9/FacialAge/BNav_EC2/DepthDuration/v2_depth_duration_MTurk/v2_DepthDuration_HTML.html#30,30,1366,625,1366,768,8-29-2022,10-9-6,132,depth_duration_stimuli/002805_2014-06-22_19-54-03_094959634447_rgbf000079-resize_1/002805_2014-06-22_19-54-03_094959634447_rgbf000079-resize_1-target.png,1000,3.1439999999999997,1,3236,999,feet,jsons/v1_VE1000_randls_21.json,957833,1111972,30,Man
132,104185,DepthScenes,duration_manipulation_targetAtFixation,jsons/v1_VE1000_randls_21.json,http://54.235.29.9/FacialAge/BNav_EC2/DepthDuration/v2_depth_duration_MTurk/v2_DepthDuration_HTML.html#30,30,1366,625,1366,768,8-29-2022,10-9-6,133,depth_duration_stimuli/001417_2014-06-19_16-25-36_260595134347_rgbf000115-resize_5/001417_2014-06-19_16-25-36_260595134347_rgbf000115-resize_5-target.png,1000,4.6255,1,14628,1000,feet,jsons/v1_VE1000_randls_21.json,957833,1111972,30,Man
133,104185,DepthScenes,duration_manipulation_targetAtFixation,jsons/v1_VE1000_randls_21.json,http://54.235.29.9/FacialAge/BNav_EC2/DepthDuration/v2_depth_duration_MTurk/v2_DepthDuration_HTML.html#30,30,1366,625,1366,768,8-29-2022,10-9-6,134,depth_duration_stimuli/003081_2014-06-15_15-19-16_094959634447_rgbf000150-resize_1/003081_2014-06-15_15-19-16_094959634447_rgbf000150-resize_1-target.png,1000,3.9125,2,2900,999,feet,jsons/v1_VE1000_randls_21.json,957833,1111972,30,Man
134,104185,DepthScenes,duration_manipulation_targetAtFixation,jsons/v1_VE1000_randls_21.json,http://54.235.29.9/FacialAge/BNav_EC2/DepthDuration/v2_depth_duration_MTurk/v2_DepthDuration_HTML.html#30,30,1366,625,1366,768,8-29-2022,10-9-6,135,depth_duration_stimuli/002072_2014-06-24_21-48-06_260595134347_rgbf000115-resize_0/002072_2014-06-24_21-48-06_260595134347_rgbf000115-resize-original.jpg,1000,4.702,0,3527,946,feet,jsons/v1_VE1000_randls_21.json,957833,1111972,30,Man
135,104185,DepthScenes,duration_manipulation_targetAtFixation,jsons/v1_VE1000_randls_21.json,http://54.235.29.9/FacialAge/BNav_EC2/DepthDuration/v2_depth_duration_MTurk/v2_DepthDuration_HTML.html#30,30,1366,625,1366,768,8-29-2022,10-9-6,136,depth_duration_stimuli/000486_2014-06-09_20-47-20_260595134347_rgbf000143-resize_2/000486_2014-06-09_20-47-20_260595134347_rgbf000143-resize_2-target.png,1000,4.8325,2,3051,951,feet,jsons/v1_VE1000_randls_21.json,957833,1111972,30,Man
136,104185,DepthScenes,duration_manipulation_targetAtFixation,jsons/v1_VE1000_randls_21.json,http://54.235.29.9/FacialAge/BNav_EC2/DepthDuration/v2_depth_duration_MTurk/v2_DepthDuration_HTML.html#30,30,1366,625,1366,768,8-29-2022,10-9-6,137,depth_duration_stimuli/003083_2014-06-15_15-21-03_094959634447_rgbf000063-resize_1/003083_2014-06-15_15-21-03_094959634447_rgbf000063-resize_1-target.png,1000,4.1405,2,3027,997,feet,jsons/v1_VE1000_randls_21.json,957833,1111972,30,Man
137,104185,DepthScenes,duration_manipulation_targetAtFixation,jsons/v1_VE1000_randls_21.json,http://54.235.29.9/FacialAge/BNav_EC2/DepthDuration/v2_depth_duration_MTurk/v2_DepthDuration_HTML.html#30,30,1366,625,1366,768,8-29-2022,10-9-6,138,depth_duration_stimuli/002043_2014-06-24_20-29-38_260595134347_rgbf000039-resize_4/002043_2014-06-24_20-29-38_260595134347_rgbf000039-resize_4-target.png,1000,2.8435,1,6370,1000,feet,jsons/v1_VE1000_randls_21.json,957833,1111972,30,Man
138,104185,DepthScenes,duration_manipulation_targetAtFixation,jsons/v1_VE1000_randls_21.json,http://54.235.29.9/FacialAge/BNav_EC2/DepthDuration/v2_depth_duration_MTurk/v2_DepthDuration_HTML.html#30,30,1366,625,1366,768,8-29-2022,10-9-6,139,depth_duration_stimuli/003048_2014-06-15_13-49-43_094959634447_rgbf000150-resize_1/003048_2014-06-15_13-49-43_094959634447_rgbf000150-resize_1-target.png,1000,4.0035,3,4639,999,feet,jsons/v1_VE1000_randls_21.json,957833,1111972,30,Man
139,104185,DepthScenes,duration_manipulation_targetAtFixation,jsons/v1_VE1000_randls_21.json,http://54.235.29.9/FacialAge/BNav_EC2/DepthDuration/v2_depth_duration_MTurk/v2_DepthDuration_HTML.html#30,30,1366,625,1366,768,8-29-2022,10-9-6,140,depth_duration_stimuli/002213_2014-06-28_18-37-58_260595134347_rgbf000055-resize_1/002213_2014-06-28_18-37-58_260595134347_rgbf000055-resize_1-target.png,1000,3.62,2,12055,983,feet,jsons/v1_VE1000_randls_21.json,957833,1111972,30,Man
140,104185,DepthScenes,duration_manipulation_targetAtFixation,jsons/v1_VE1000_randls_21.json,http://54.235.29.9/FacialAge/BNav_EC2/DepthDuration/v2_depth_duration_MTurk/v2_DepthDuration_HTML.html#30,30,1366,625,1366,768,8-29-2022,10-9-6,141,depth_duration_stimuli/000691_2014-06-08_13-08-50_260595134347_rgbf000132-resize_3/000691_2014-06-08_13-08-50_260595134347_rgbf000132-resize_3-target.png,1000,4.1530000000000005,1,3960,996,feet,jsons/v1_VE1000_randls_21.json,957833,1111972,30,Man
141,104185,DepthScenes,duration_manipulation_targetAtFixation,jsons/v1_VE1000_randls_21.json,http://54.235.29.9/FacialAge/BNav_EC2/DepthDuration/v2_depth_duration_MTurk/v2_DepthDuration_HTML.html#30,30,1366,625,1366,768,8-29-2022,10-9-6,142,depth_duration_stimuli/001806_2014-06-26_20-50-20_260595134347_rgbf000091-resize_1/001806_2014-06-26_20-50-20_260595134347_rgbf000091-resize_1-target.png,1000,2.7305,1,3150,1001,feet,jsons/v1_VE1000_randls_21.json,957833,1111972,30,Man
142,104185,DepthScenes,duration_manipulation_targetAtFixation,jsons/v1_VE1000_randls_21.json,http://54.235.29.9/FacialAge/BNav_EC2/DepthDuration/v2_depth_duration_MTurk/v2_DepthDuration_HTML.html#30,30,1366,625,1366,768,8-29-2022,10-9-6,143,depth_duration_stimuli/001617_2014-06-20_11-35-32_260595134347_rgbf000066-resize_1/001617_2014-06-20_11-35-32_260595134347_rgbf000066-resize_1-target.png,1000,3.7910000000000004,1,2930,1000,feet,jsons/v1_VE1000_randls_21.json,957833,1111972,30,Man
143,104185,DepthScenes,duration_manipulation_targetAtFixation,jsons/v1_VE1000_randls_21.json,http://54.235.29.9/FacialAge/BNav_EC2/DepthDuration/v2_depth_duration_MTurk/v2_DepthDuration_HTML.html#30,30,1366,625,1366,768,8-29-2022,10-9-6,144,depth_duration_stimuli/000506_2014-06-08_23-21-00_260595134347_rgbf000070-resize_7/000506_2014-06-08_23-21-00_260595134347_rgbf000070-resize_7-target.png,1000,4.0585,2,3168,1000,feet,jsons/v1_VE1000_randls_21.json,957833,1111972,30,Man
144,104185,DepthScenes,duration_manipulation_targetAtFixation,jsons/v1_VE1000_randls_21.json,http://54.235.29.9/FacialAge/BNav_EC2/DepthDuration/v2_depth_duration_MTurk/v2_DepthDuration_HTML.html#30,30,1366,625,1366,768,8-29-2022,10-9-6,145,depth_duration_stimuli/003079_2014-06-15_15-18-20_094959634447_rgbf000152-resize_8/003079_2014-06-15_15-18-20_094959634447_rgbf000152-resize_8-target.png,1000,2.8775,1,4878,998,feet,jsons/v1_VE1000_randls_21.json,957833,1111972,30,Man
145,104185,DepthScenes,duration_manipulation_targetAtFixation,jsons/v1_VE1000_randls_21.json,http://54.235.29.9/FacialAge/BNav_EC2/DepthDuration/v2_depth_duration_MTurk/v2_DepthDuration_HTML.html#30,30,1366,625,1366,768,8-29-2022,10-9-6,146,depth_duration_stimuli/001498_2014-06-19_17-45-14_260595134347_rgbf000129-resize_4/001498_2014-06-19_17-45-14_260595134347_rgbf000129-resize-original.jpg,1000,1.4075,1,3116,995,feet,jsons/v1_VE1000_randls_21.json,957833,1111972,30,Man
146,104185,DepthScenes,duration_manipulation_targetAtFixation,jsons/v1_VE1000_randls_21.json,http://54.235.29.9/FacialAge/BNav_EC2/DepthDuration/v2_depth_duration_MTurk/v2_DepthDuration_HTML.html#30,30,1366,625,1366,768,8-29-2022,10-9-6,147,depth_duration_stimuli/002784_2014-06-22_19-26-30_094959634447_rgbf000083-resize_3/002784_2014-06-22_19-26-30_094959634447_rgbf000083-resize_3-target.png,1000,1.8046666666667,1,15530,1000,feet,jsons/v1_VE1000_randls_21.json,957833,1111972,30,Man
147,104185,DepthScenes,duration_manipulation_targetAtFixation,jsons/v1_VE1000_randls_21.json,http://54.235.29.9/FacialAge/BNav_EC2/DepthDuration/v2_depth_duration_MTurk/v2_DepthDuration_HTML.html#30,30,1366,625,1366,768,8-29-2022,10-9-6,148,depth_duration_stimuli/001100_2014-06-15_17-46-26_260595134347_rgbf000225-resize_2/001100_2014-06-15_17-46-26_260595134347_rgbf000225-resize_2-target.png,1000,2.24,2,2947,999,feet,jsons/v1_VE1000_randls_21.json,957833,1111972,30,Man
148,104185,DepthScenes,duration_manipulation_targetAtFixation,jsons/v1_VE1000_randls_21.json,http://54.235.29.9/FacialAge/BNav_EC2/DepthDuration/v2_depth_duration_MTurk/v2_DepthDuration_HTML.html#30,30,1366,625,1366,768,8-29-2022,10-9-6,149,depth_duration_stimuli/000692_2014-06-08_13-09-42_260595134347_rgbf000199-resize_2/000692_2014-06-08_13-09-42_260595134347_rgbf000199-resize_2-target.png,1000,3.661,3,4289,999,feet,jsons/v1_VE1000_randls_21.json,957833,1111972,30,Man
149,104185,DepthScenes,duration_manipulation_targetAtFixation,jsons/v1_VE1000_randls_21.json,http://54.235.29.9/FacialAge/BNav_EC2/DepthDuration/v2_depth_duration_MTurk/v2_DepthDuration_HTML.html#30,30,1366,625,1366,768,8-29-2022,10-9-6,150,depth_duration_stimuli/001094_2014-06-15_17-36-00_260595134347_rgbf000205-resize_0/001094_2014-06-15_17-36-00_260595134347_rgbf000205-resize_0-target.png,1000,4.2175,2,3348,999,feet,jsons/v1_VE1000_randls_21.json,957833,1111972,30,Man
150,104185,DepthScenes,duration_manipulation_targetAtFixation,jsons/v1_VE1000_randls_21.json,http://54.235.29.9/FacialAge/BNav_EC2/DepthDuration/v2_depth_duration_MTurk/v2_DepthDuration_HTML.html#30,30,1366,625,1366,768,8-29-2022,10-9-6,151,depth_duration_stimuli/001199_2014-06-17_16-03-48_260595134347_rgbf000077-resize_0/001199_2014-06-17_16-03-48_260595134347_rgbf000077-resize_0-target.png,1000,3.4375,2,3129,1001,feet,jsons/v1_VE1000_randls_21.json,957833,1111972,30,Man
151,104185,DepthScenes,duration_manipulation_targetAtFixation,jsons/v1_VE1000_randls_21.json,http://54.235.29.9/FacialAge/BNav_EC2/DepthDuration/v2_depth_duration_MTurk/v2_DepthDuration_HTML.html#30,30,1366,625,1366,768,8-29-2022,10-9-6,152,depth_duration_stimuli/000502_2014-06-08_23-02-32_260595134347_rgbf000063-resize_4/000502_2014-06-08_23-02-32_260595134347_rgbf000063-resize_4-target.png,1000,2.431,2,3728,1000,feet,jsons/v1_VE1000_randls_21.json,957833,1111972,30,Man
152,104185,DepthScenes,duration_manipulation_targetAtFixation,jsons/v1_VE1000_randls_21.json,http://54.235.29.9/FacialAge/BNav_EC2/DepthDuration/v2_depth_duration_MTurk/v2_DepthDuration_HTML.html#30,30,1366,625,1366,768,8-29-2022,10-9-6,153,depth_duration_stimuli/002630_2014-06-24_14-47-50_094959634447_rgbf000055-resize_1/002630_2014-06-24_14-47-50_094959634447_rgbf000055-resize_1-target.png,1000,3.0095,2,3941,999,feet,jsons/v1_VE1000_randls_21.json,957833,1111972,30,Man
153,104185,DepthScenes,duration_manipulation_targetAtFixation,jsons/v1_VE1000_randls_21.json,http://54.235.29.9/FacialAge/BNav_EC2/DepthDuration/v2_depth_duration_MTurk/v2_DepthDuration_HTML.html#30,30,1366,625,1366,768,8-29-2022,10-9-6,154,depth_duration_stimuli/002758_2014-06-22_19-11-20_094959634447_rgbf000128-resize_1/002758_2014-06-22_19-11-20_094959634447_rgbf000128-resize_1-target.png,1000,2.555,1,3178,999,feet,jsons/v1_VE1000_randls_21.json,957833,1111972,30,Man
154,104185,DepthScenes,duration_manipulation_targetAtFixation,jsons/v1_VE1000_randls_21.json,http://54.235.29.9/FacialAge/BNav_EC2/DepthDuration/v2_depth_duration_MTurk/v2_DepthDuration_HTML.html#30,30,1366,625,1366,768,8-29-2022,10-9-6,155,depth_duration_stimuli/000810_2014-06-08_17-20-01_260595134347_rgbf000105-resize_0/000810_2014-06-08_17-20-01_260595134347_rgbf000105-resize_0-target.png,1000,1.4865,2,12397,1000,feet,jsons/v1_VE1000_randls_21.json,957833,1111972,30,Man
155,104185,DepthScenes,duration_manipulation_targetAtFixation,jsons/v1_VE1000_randls_21.json,http://54.235.29.9/FacialAge/BNav_EC2/DepthDuration/v2_depth_duration_MTurk/v2_DepthDuration_HTML.html#30,30,1366,625,1366,768,8-29-2022,10-9-6,156,depth_duration_stimuli/001214_2014-06-17_16-13-55_260595134347_rgbf000111-resize_0/001214_2014-06-17_16-13-55_260595134347_rgbf000111-resize_0-target.png,1000,2.6505,1,3807,998,feet,jsons/v1_VE1000_randls_21.json,957833,1111972,30,Man
156,104185,DepthScenes,duration_manipulation_targetAtFixation,jsons/v1_VE1000_randls_21.json,http://54.235.29.9/FacialAge/BNav_EC2/DepthDuration/v2_depth_duration_MTurk/v2_DepthDuration_HTML.html#30,30,1366,625,1366,768,8-29-2022,10-9-6,157,depth_duration_stimuli/000929_2014-06-09_16-33-19_260595134347_rgbf000139-resize_0/000929_2014-06-09_16-33-19_260595134347_rgbf000139-resize_0-target.png,1000,2.8680000000000003,1,4828,1000,feet,jsons/v1_VE1000_randls_21.json,957833,1111972,30,Man
157,104185,DepthScenes,duration_manipulation_targetAtFixation,jsons/v1_VE1000_randls_21.json,http://54.235.29.9/FacialAge/BNav_EC2/DepthDuration/v2_depth_duration_MTurk/v2_DepthDuration_HTML.html#30,30,1366,625,1366,768,8-29-2022,10-9-6,158,depth_duration_stimuli/000457_2014-06-08_16-52-43_260595134347_rgbf000199-resize_1/000457_2014-06-08_16-52-43_260595134347_rgbf000199-resize_1-target.png,1000,3.6489999999999996,1,24301,1000,feet,jsons/v1_VE1000_randls_21.json,957833,1111972,30,Man
158,104185,DepthScenes,duration_manipulation_targetAtFixation,jsons/v1_VE1000_randls_21.json,http://54.235.29.9/FacialAge/BNav_EC2/DepthDuration/v2_depth_duration_MTurk/v2_DepthDuration_HTML.html#30,30,1366,625,1366,768,8-29-2022,10-9-6,159,depth_duration_stimuli/002279_2014-06-28_18-55-32_260595134347_rgbf000040-resize_5/002279_2014-06-28_18-55-32_260595134347_rgbf000040-resize_5-target.png,1000,1.5043333333333,1,3218,1000,feet,jsons/v1_VE1000_randls_21.json,957833,1111972,30,Man
159,104185,DepthScenes,duration_manipulation_targetAtFixation,jsons/v1_VE1000_randls_21.json,http://54.235.29.9/FacialAge/BNav_EC2/DepthDuration/v2_depth_duration_MTurk/v2_DepthDuration_HTML.html#30,30,1366,625,1366,768,8-29-2022,10-9-6,160,depth_duration_stimuli/000635_2014-06-08_16-38-42_260595134347_rgbf000106-resize_1/000635_2014-06-08_16-38-42_260595134347_rgbf000106-resize_1-target.png,1000,2.074,1,3038,1000,feet,jsons/v1_VE1000_randls_21.json,957833,1111972,30,Man
160,104185,DepthScenes,duration_manipulation_targetAtFixation,jsons/v1_VE1000_randls_21.json,http://54.235.29.9/FacialAge/BNav_EC2/DepthDuration/v2_depth_duration_MTurk/v2_DepthDuration_HTML.html#30,30,1366,625,1366,768,8-29-2022,10-9-6,161,depth_duration_stimuli/000414_2014-06-04_19-49-13_260595134347_rgbf000044-resize_0/000414_2014-06-04_19-49-13_260595134347_rgbf000044-resize_0-target.png,1000,4.329,2,3298,999,feet,jsons/v1_VE1000_randls_21.json,957833,1111972,30,Man
161,104185,DepthScenes,duration_manipulation_targetAtFixation,jsons/v1_VE1000_randls_21.json,http://54.235.29.9/FacialAge/BNav_EC2/DepthDuration/v2_depth_duration_MTurk/v2_DepthDuration_HTML.html#30,30,1366,625,1366,768,8-29-2022,10-9-6,162,depth_duration_stimuli/003129_2014-05-12_10-48-10_094959634447_rgbf000100-resize_0/003129_2014-05-12_10-48-10_094959634447_rgbf000100-resize_0-target.png,1000,4.9305,1,3629,1001,feet,jsons/v1_VE1000_randls_21.json,957833,1111972,30,Man
162,104185,DepthScenes,duration_manipulation_targetAtFixation,jsons/v1_VE1000_randls_21.json,http://54.235.29.9/FacialAge/BNav_EC2/DepthDuration/v2_depth_duration_MTurk/v2_DepthDuration_HTML.html#30,30,1366,625,1366,768,8-29-2022,10-9-6,163,depth_duration_stimuli/000522_2014-06-08_13-35-06_260595134347_rgbf000244-resize_1/000522_2014-06-08_13-35-06_260595134347_rgbf000244-resize_1-target.png,1000,2.3715,1,9809,999,feet,jsons/v1_VE1000_randls_21.json,957833,1111972,30,Man
163,104185,DepthScenes,duration_manipulation_targetAtFixation,jsons/v1_VE1000_randls_21.json,http://54.235.29.9/FacialAge/BNav_EC2/DepthDuration/v2_depth_duration_MTurk/v2_DepthDuration_HTML.html#30,30,1366,625,1366,768,8-29-2022,10-9-6,164,depth_duration_stimuli/002949_2014-06-26_15-57-42_094959634447_rgbf000079-resize_1/002949_2014-06-26_15-57-42_094959634447_rgbf000079-resize_1-target.png,1000,1.8915,1,10658,1017,feet,jsons/v1_VE1000_randls_21.json,957833,1111972,30,Man
