,subjID,experimentName,versionName,sequenceName,url,selected_row,windowWidth,windowHeight,screenWidth,screenHeight,startDate,startTime,trial,stimulus,duration,actual_depth,depth_estimate,trial_RT,log_sceneDuration,unitSelection,seq_filepath,experimentTime,totalTime,age,gender
0,104257,DepthScenes,duration_manipulation_targetAtFixation,jsons/VE125_randls_20.json,http://54.235.29.9/FacialAge/BNav_EC2/DepthDuration/v2_depth_duration_MTurk/v2_DepthDuration_HTML.html#147,147,1366,768,1366,768,8-21-2022,9-35-33,1,depth_duration_stimuli/001164_2014-06-17_15-35-46_260595134347_rgbf000085-resize_3/001164_2014-06-17_15-35-46_260595134347_rgbf000085-resize_3-target.png,125,2.354,3,2876,109,feet,jsons/VE125_randls_20.json,678642,1097433,34,Woman
1,104257,DepthScenes,duration_manipulation_targetAtFixation,jsons/VE125_randls_20.json,http://54.235.29.9/FacialAge/BNav_EC2/DepthDuration/v2_depth_duration_MTurk/v2_DepthDuration_HTML.html#147,147,1366,768,1366,768,8-21-2022,9-35-33,2,depth_duration_stimuli/001136_2014-06-17_15-19-41_260595134347_rgbf000076-resize_3/001136_2014-06-17_15-19-41_260595134347_rgbf000076-resize_3-target.png,125,1.8655,4,4100,124,feet,jsons/VE125_randls_20.json,678642,1097433,34,Woman
2,104257,DepthScenes,duration_manipulation_targetAtFixation,jsons/VE125_randls_20.json,http://54.235.29.9/FacialAge/BNav_EC2/DepthDuration/v2_depth_duration_MTurk/v2_DepthDuration_HTML.html#147,147,1366,768,1366,768,8-21-2022,9-35-33,3,depth_duration_stimuli/002043_2014-06-24_20-29-38_260595134347_rgbf000039-resize_4/002043_2014-06-24_20-29-38_260595134347_rgbf000039-resize_4-target.png,125,2.8435,2,3813,124,feet,jsons/VE125_randls_20.json,678642,1097433,34,Woman
3,104257,DepthScenes,duration_manipulation_targetAtFixation,jsons/VE125_randls_20.json,http://54.235.29.9/FacialAge/BNav_EC2/DepthDuration/v2_depth_duration_MTurk/v2_DepthDuration_HTML.html#147,147,1366,768,1366,768,8-21-2022,9-35-33,4,depth_duration_stimuli/003048_2014-06-15_13-49-43_094959634447_rgbf000150-resize_1/003048_2014-06-15_13-49-43_094959634447_rgbf000150-resize_1-target.png,125,4.0035,0,2689,124,feet,jsons/VE125_randls_20.json,678642,1097433,34,Woman
4,104257,DepthScenes,duration_manipulation_targetAtFixation,jsons/VE125_randls_20.json,http://54.235.29.9/FacialAge/BNav_EC2/DepthDuration/v2_depth_duration_MTurk/v2_DepthDuration_HTML.html#147,147,1366,768,1366,768,8-21-2022,9-35-33,5,depth_duration_stimuli/002630_2014-06-24_14-47-50_094959634447_rgbf000055-resize_1/002630_2014-06-24_14-47-50_094959634447_rgbf000055-resize_1-target.png,125,3.0095,0,2515,111,feet,jsons/VE125_randls_20.json,678642,1097433,34,Woman
5,104257,DepthScenes,duration_manipulation_targetAtFixation,jsons/VE125_randls_20.json,http://54.235.29.9/FacialAge/BNav_EC2/DepthDuration/v2_depth_duration_MTurk/v2_DepthDuration_HTML.html#147,147,1366,768,1366,768,8-21-2022,9-35-33,6,depth_duration_stimuli/002758_2014-06-22_19-11-20_094959634447_rgbf000128-resize_1/002758_2014-06-22_19-11-20_094959634447_rgbf000128-resize_1-target.png,125,2.555,4,3014,125,feet,jsons/VE125_randls_20.json,678642,1097433,34,Woman
6,104257,DepthScenes,duration_manipulation_targetAtFixation,jsons/VE125_randls_20.json,http://54.235.29.9/FacialAge/BNav_EC2/DepthDuration/v2_depth_duration_MTurk/v2_DepthDuration_HTML.html#147,147,1366,768,1366,768,8-21-2022,9-35-33,7,depth_duration_stimuli/000522_2014-06-08_13-35-06_260595134347_rgbf000244-resize_1/000522_2014-06-08_13-35-06_260595134347_rgbf000244-resize_1-target.png,125,2.3715,2,2774,125,feet,jsons/VE125_randls_20.json,678642,1097433,34,Woman
7,104257,DepthScenes,duration_manipulation_targetAtFixation,jsons/VE125_randls_20.json,http://54.235.29.9/FacialAge/BNav_EC2/DepthDuration/v2_depth_duration_MTurk/v2_DepthDuration_HTML.html#147,147,1366,768,1366,768,8-21-2022,9-35-33,8,depth_duration_stimuli/002949_2014-06-26_15-57-42_094959634447_rgbf000079-resize_1/002949_2014-06-26_15-57-42_094959634447_rgbf000079-resize_1-target.png,125,1.8915,3,2530,125,feet,jsons/VE125_randls_20.json,678642,1097433,34,Woman
8,104257,DepthScenes,duration_manipulation_targetAtFixation,jsons/VE125_randls_20.json,http://54.235.29.9/FacialAge/BNav_EC2/DepthDuration/v2_depth_duration_MTurk/v2_DepthDuration_HTML.html#147,147,1366,768,1366,768,8-21-2022,9-35-33,9,depth_duration_stimuli/001167_2014-06-17_15-38-07_260595134347_rgbf000108-resize_0/001167_2014-06-17_15-38-07_260595134347_rgbf000108-resize_0-target.png,125,1.8505,3,2669,126,feet,jsons/VE125_randls_20.json,678642,1097433,34,Woman
9,104257,DepthScenes,duration_manipulation_targetAtFixation,jsons/VE125_randls_20.json,http://54.235.29.9/FacialAge/BNav_EC2/DepthDuration/v2_depth_duration_MTurk/v2_DepthDuration_HTML.html#147,147,1366,768,1366,768,8-21-2022,9-35-33,10,depth_duration_stimuli/003587_2014-05-23_16-48-02_094959634447_rgbf002384-resize_2/003587_2014-05-23_16-48-02_094959634447_rgbf002384-resize_2-target.png,125,1.357,2,2599,124,feet,jsons/VE125_randls_20.json,678642,1097433,34,Woman
10,104257,DepthScenes,duration_manipulation_targetAtFixation,jsons/VE125_randls_20.json,http://54.235.29.9/FacialAge/BNav_EC2/DepthDuration/v2_depth_duration_MTurk/v2_DepthDuration_HTML.html#147,147,1366,768,1366,768,8-21-2022,9-35-33,11,depth_duration_stimuli/002784_2014-06-22_19-26-30_094959634447_rgbf000083-resize_3/002784_2014-06-22_19-26-30_094959634447_rgbf000083-resize_3-target.png,125,1.8046666666667,0,2084,125,feet,jsons/VE125_randls_20.json,678642,1097433,34,Woman
11,104257,DepthScenes,duration_manipulation_targetAtFixation,jsons/VE125_randls_20.json,http://54.235.29.9/FacialAge/BNav_EC2/DepthDuration/v2_depth_duration_MTurk/v2_DepthDuration_HTML.html#147,147,1366,768,1366,768,8-21-2022,9-35-33,12,depth_duration_stimuli/001100_2014-06-15_17-46-26_260595134347_rgbf000225-resize_2/001100_2014-06-15_17-46-26_260595134347_rgbf000225-resize_2-target.png,125,2.24,3,3663,124,feet,jsons/VE125_randls_20.json,678642,1097433,34,Woman
12,104257,DepthScenes,duration_manipulation_targetAtFixation,jsons/VE125_randls_20.json,http://54.235.29.9/FacialAge/BNav_EC2/DepthDuration/v2_depth_duration_MTurk/v2_DepthDuration_HTML.html#147,147,1366,768,1366,768,8-21-2022,9-35-33,13,depth_duration_stimuli/000569_2014-06-09_22-51-47_260595134347_rgbf000141-resize_3/000569_2014-06-09_22-51-47_260595134347_rgbf000141-resize-original.jpg,125,4.512,0,2354,123,feet,jsons/VE125_randls_20.json,678642,1097433,34,Woman
13,104257,DepthScenes,duration_manipulation_targetAtFixation,jsons/VE125_randls_20.json,http://54.235.29.9/FacialAge/BNav_EC2/DepthDuration/v2_depth_duration_MTurk/v2_DepthDuration_HTML.html#147,147,1366,768,1366,768,8-21-2022,9-35-33,14,depth_duration_stimuli/002118_2014-06-25_20-32-08_260595134347_rgbf000078-resize_1/002118_2014-06-25_20-32-08_260595134347_rgbf000078-resize_1-target.png,125,2.6460000000000004,3,2772,125,feet,jsons/VE125_randls_20.json,678642,1097433,34,Woman
14,104257,DepthScenes,duration_manipulation_targetAtFixation,jsons/VE125_randls_20.json,http://54.235.29.9/FacialAge/BNav_EC2/DepthDuration/v2_depth_duration_MTurk/v2_DepthDuration_HTML.html#147,147,1366,768,1366,768,8-21-2022,9-35-33,15,depth_duration_stimuli/001516_2014-06-20_16-25-09_260595134347_rgbf000076-resize_2/001516_2014-06-20_16-25-09_260595134347_rgbf000076-resize_2-target.png,125,1.7445,2,3093,127,feet,jsons/VE125_randls_20.json,678642,1097433,34,Woman
15,104257,DepthScenes,duration_manipulation_targetAtFixation,jsons/VE125_randls_20.json,http://54.235.29.9/FacialAge/BNav_EC2/DepthDuration/v2_depth_duration_MTurk/v2_DepthDuration_HTML.html#147,147,1366,768,1366,768,8-21-2022,9-35-33,16,depth_duration_stimuli/001199_2014-06-17_16-03-48_260595134347_rgbf000077-resize_0/001199_2014-06-17_16-03-48_260595134347_rgbf000077-resize_0-target.png,125,3.4375,5,2780,126,feet,jsons/VE125_randls_20.json,678642,1097433,34,Woman
16,104257,DepthScenes,duration_manipulation_targetAtFixation,jsons/VE125_randls_20.json,http://54.235.29.9/FacialAge/BNav_EC2/DepthDuration/v2_depth_duration_MTurk/v2_DepthDuration_HTML.html#147,147,1366,768,1366,768,8-21-2022,9-35-33,17,depth_duration_stimuli/000502_2014-06-08_23-02-32_260595134347_rgbf000063-resize_4/000502_2014-06-08_23-02-32_260595134347_rgbf000063-resize_4-target.png,125,2.431,4,2679,124,feet,jsons/VE125_randls_20.json,678642,1097433,34,Woman
17,104257,DepthScenes,duration_manipulation_targetAtFixation,jsons/VE125_randls_20.json,http://54.235.29.9/FacialAge/BNav_EC2/DepthDuration/v2_depth_duration_MTurk/v2_DepthDuration_HTML.html#147,147,1366,768,1366,768,8-21-2022,9-35-33,18,depth_duration_stimuli/001059_2014-06-08_21-53-27_260595134347_rgbf000061-resize_4/001059_2014-06-08_21-53-27_260595134347_rgbf000061-resize_4-target.png,125,2.4185,4,2766,127,feet,jsons/VE125_randls_20.json,678642,1097433,34,Woman
18,104257,DepthScenes,duration_manipulation_targetAtFixation,jsons/VE125_randls_20.json,http://54.235.29.9/FacialAge/BNav_EC2/DepthDuration/v2_depth_duration_MTurk/v2_DepthDuration_HTML.html#147,147,1366,768,1366,768,8-21-2022,9-35-33,19,depth_duration_stimuli/001032_2014-06-08_13-23-17_260595134347_rgbf000021-resize_3/001032_2014-06-08_13-23-17_260595134347_rgbf000021-resize_3-target.png,125,3.2725,3,2441,126,feet,jsons/VE125_randls_20.json,678642,1097433,34,Woman
19,104257,DepthScenes,duration_manipulation_targetAtFixation,jsons/VE125_randls_20.json,http://54.235.29.9/FacialAge/BNav_EC2/DepthDuration/v2_depth_duration_MTurk/v2_DepthDuration_HTML.html#147,147,1366,768,1366,768,8-21-2022,9-35-33,20,depth_duration_stimuli/001056_2014-06-08_18-46-44_260595134347_rgbf000068-resize_0/001056_2014-06-08_18-46-44_260595134347_rgbf000068-resize_0-target.png,125,2.6625,3,2690,123,feet,jsons/VE125_randls_20.json,678642,1097433,34,Woman
20,104257,DepthScenes,duration_manipulation_targetAtFixation,jsons/VE125_randls_20.json,http://54.235.29.9/FacialAge/BNav_EC2/DepthDuration/v2_depth_duration_MTurk/v2_DepthDuration_HTML.html#147,147,1366,768,1366,768,8-21-2022,9-35-33,21,depth_duration_stimuli/002199_2014-06-28_18-33-56_260595134347_rgbf000074-resize_0/002199_2014-06-28_18-33-56_260595134347_rgbf000074-resize_0-target.png,125,1.996,2,2459,126,feet,jsons/VE125_randls_20.json,678642,1097433,34,Woman
21,104257,DepthScenes,duration_manipulation_targetAtFixation,jsons/VE125_randls_20.json,http://54.235.29.9/FacialAge/BNav_EC2/DepthDuration/v2_depth_duration_MTurk/v2_DepthDuration_HTML.html#147,147,1366,768,1366,768,8-21-2022,9-35-33,22,depth_duration_stimuli/001092_2014-06-15_17-34-58_260595134347_rgbf000171-resize_3/001092_2014-06-15_17-34-58_260595134347_rgbf000171-resize_3-target.png,125,2.6935,4,2582,125,feet,jsons/VE125_randls_20.json,678642,1097433,34,Woman
22,104257,DepthScenes,duration_manipulation_targetAtFixation,jsons/VE125_randls_20.json,http://54.235.29.9/FacialAge/BNav_EC2/DepthDuration/v2_depth_duration_MTurk/v2_DepthDuration_HTML.html#147,147,1366,768,1366,768,8-21-2022,9-35-33,23,depth_duration_stimuli/002545_2014-06-24_13-38-53_094959634447_rgbf000080-resize_4/002545_2014-06-24_13-38-53_094959634447_rgbf000080-resize_4-target.png,125,1.9205,6,4367,126,feet,jsons/VE125_randls_20.json,678642,1097433,34,Woman
23,104257,DepthScenes,duration_manipulation_targetAtFixation,jsons/VE125_randls_20.json,http://54.235.29.9/FacialAge/BNav_EC2/DepthDuration/v2_depth_duration_MTurk/v2_DepthDuration_HTML.html#147,147,1366,768,1366,768,8-21-2022,9-35-33,24,depth_duration_stimuli/001055_2014-06-08_18-45-35_260595134347_rgbf000111-resize_4/001055_2014-06-08_18-45-35_260595134347_rgbf000111-resize_4-target.png,125,2.4290000000000003,3,3079,110,feet,jsons/VE125_randls_20.json,678642,1097433,34,Woman
24,104257,DepthScenes,duration_manipulation_targetAtFixation,jsons/VE125_randls_20.json,http://54.235.29.9/FacialAge/BNav_EC2/DepthDuration/v2_depth_duration_MTurk/v2_DepthDuration_HTML.html#147,147,1366,768,1366,768,8-21-2022,9-35-33,25,depth_duration_stimuli/000549_2014-06-08_22-10-24_260595134347_rgbf000247-resize_3/000549_2014-06-08_22-10-24_260595134347_rgbf000247-resize_3-target.png,125,1.841,4,2785,110,feet,jsons/VE125_randls_20.json,678642,1097433,34,Woman
25,104257,DepthScenes,duration_manipulation_targetAtFixation,jsons/VE125_randls_20.json,http://54.235.29.9/FacialAge/BNav_EC2/DepthDuration/v2_depth_duration_MTurk/v2_DepthDuration_HTML.html#147,147,1366,768,1366,768,8-21-2022,9-35-33,26,depth_duration_stimuli/000692_2014-06-08_13-09-42_260595134347_rgbf000199-resize_2/000692_2014-06-08_13-09-42_260595134347_rgbf000199-resize_2-target.png,125,3.661,5,4038,127,feet,jsons/VE125_randls_20.json,678642,1097433,34,Woman
26,104257,DepthScenes,duration_manipulation_targetAtFixation,jsons/VE125_randls_20.json,http://54.235.29.9/FacialAge/BNav_EC2/DepthDuration/v2_depth_duration_MTurk/v2_DepthDuration_HTML.html#147,147,1366,768,1366,768,8-21-2022,9-35-33,27,depth_duration_stimuli/001094_2014-06-15_17-36-00_260595134347_rgbf000205-resize_0/001094_2014-06-15_17-36-00_260595134347_rgbf000205-resize_0-target.png,125,4.2175,0,2212,138,feet,jsons/VE125_randls_20.json,678642,1097433,34,Woman
27,104257,DepthScenes,duration_manipulation_targetAtFixation,jsons/VE125_randls_20.json,http://54.235.29.9/FacialAge/BNav_EC2/DepthDuration/v2_depth_duration_MTurk/v2_DepthDuration_HTML.html#147,147,1366,768,1366,768,8-21-2022,9-35-33,28,depth_duration_stimuli/000506_2014-06-08_23-21-00_260595134347_rgbf000070-resize_7/000506_2014-06-08_23-21-00_260595134347_rgbf000070-resize_7-target.png,125,4.0585,6,2634,124,feet,jsons/VE125_randls_20.json,678642,1097433,34,Woman
28,104257,DepthScenes,duration_manipulation_targetAtFixation,jsons/VE125_randls_20.json,http://54.235.29.9/FacialAge/BNav_EC2/DepthDuration/v2_depth_duration_MTurk/v2_DepthDuration_HTML.html#147,147,1366,768,1366,768,8-21-2022,9-35-33,29,depth_duration_stimuli/003079_2014-06-15_15-18-20_094959634447_rgbf000152-resize_8/003079_2014-06-15_15-18-20_094959634447_rgbf000152-resize_8-target.png,125,2.8775,5,4250,124,feet,jsons/VE125_randls_20.json,678642,1097433,34,Woman
29,104257,DepthScenes,duration_manipulation_targetAtFixation,jsons/VE125_randls_20.json,http://54.235.29.9/FacialAge/BNav_EC2/DepthDuration/v2_depth_duration_MTurk/v2_DepthDuration_HTML.html#147,147,1366,768,1366,768,8-21-2022,9-35-33,30,depth_duration_stimuli/000375_2014-06-08_11-17-29_260595134347_rgbf000133-resize_2/000375_2014-06-08_11-17-29_260595134347_rgbf000133-resize-original.jpg,125,4.718,0,2558,125,feet,jsons/VE125_randls_20.json,678642,1097433,34,Woman
30,104257,DepthScenes,duration_manipulation_targetAtFixation,jsons/VE125_randls_20.json,http://54.235.29.9/FacialAge/BNav_EC2/DepthDuration/v2_depth_duration_MTurk/v2_DepthDuration_HTML.html#147,147,1366,768,1366,768,8-21-2022,9-35-33,31,depth_duration_stimuli/000469_2014-06-09_19-42-10_260595134347_rgbf000081-resize_1/000469_2014-06-09_19-42-10_260595134347_rgbf000081-resize_1-target.png,125,1.652,2,2634,111,feet,jsons/VE125_randls_20.json,678642,1097433,34,Woman
31,104257,DepthScenes,duration_manipulation_targetAtFixation,jsons/VE125_randls_20.json,http://54.235.29.9/FacialAge/BNav_EC2/DepthDuration/v2_depth_duration_MTurk/v2_DepthDuration_HTML.html#147,147,1366,768,1366,768,8-21-2022,9-35-33,32,depth_duration_stimuli/000483_2014-06-09_20-41-45_260595134347_rgbf000116-resize_4/000483_2014-06-09_20-41-45_260595134347_rgbf000116-resize_4-target.png,125,1.337,3,2545,112,feet,jsons/VE125_randls_20.json,678642,1097433,34,Woman
32,104257,DepthScenes,duration_manipulation_targetAtFixation,jsons/VE125_randls_20.json,http://54.235.29.9/FacialAge/BNav_EC2/DepthDuration/v2_depth_duration_MTurk/v2_DepthDuration_HTML.html#147,147,1366,768,1366,768,8-21-2022,9-35-33,33,depth_duration_stimuli/001810_2014-06-26_20-51-35_260595134347_rgbf000040-resize_3/001810_2014-06-26_20-51-35_260595134347_rgbf000040-resize_3-target.png,125,2.2525,3,3058,124,feet,jsons/VE125_randls_20.json,678642,1097433,34,Woman
33,104257,DepthScenes,duration_manipulation_targetAtFixation,jsons/VE125_randls_20.json,http://54.235.29.9/FacialAge/BNav_EC2/DepthDuration/v2_depth_duration_MTurk/v2_DepthDuration_HTML.html#147,147,1366,768,1366,768,8-21-2022,9-35-33,34,depth_duration_stimuli/003010_2014-06-15_12-54-35_094959634447_rgbf000112-resize_0/003010_2014-06-15_12-54-35_094959634447_rgbf000112-resize_0-target.png,125,3.1185,5,2939,126,feet,jsons/VE125_randls_20.json,678642,1097433,34,Woman
34,104257,DepthScenes,duration_manipulation_targetAtFixation,jsons/VE125_randls_20.json,http://54.235.29.9/FacialAge/BNav_EC2/DepthDuration/v2_depth_duration_MTurk/v2_DepthDuration_HTML.html#147,147,1366,768,1366,768,8-21-2022,9-35-33,35,depth_duration_stimuli/000739_2014-06-08_18-45-58_260595134347_rgbf000068-resize_1/000739_2014-06-08_18-45-58_260595134347_rgbf000068-resize_1-target.png,125,3.534,4,4046,128,feet,jsons/VE125_randls_20.json,678642,1097433,34,Woman
35,104257,DepthScenes,duration_manipulation_targetAtFixation,jsons/VE125_randls_20.json,http://54.235.29.9/FacialAge/BNav_EC2/DepthDuration/v2_depth_duration_MTurk/v2_DepthDuration_HTML.html#147,147,1366,768,1366,768,8-21-2022,9-35-33,36,depth_duration_stimuli/000734_2014-06-08_17-39-11_260595134347_rgbf000128-resize_2/000734_2014-06-08_17-39-11_260595134347_rgbf000128-resize_2-target.png,125,4.098,7,3335,127,feet,jsons/VE125_randls_20.json,678642,1097433,34,Woman
36,104257,DepthScenes,duration_manipulation_targetAtFixation,jsons/VE125_randls_20.json,http://54.235.29.9/FacialAge/BNav_EC2/DepthDuration/v2_depth_duration_MTurk/v2_DepthDuration_HTML.html#147,147,1366,768,1366,768,8-21-2022,9-35-33,37,depth_duration_stimuli/000736_2014-06-08_18-24-15_260595134347_rgbf000206-resize_3/000736_2014-06-08_18-24-15_260595134347_rgbf000206-resize_3-target.png,125,3.515,4,3564,125,feet,jsons/VE125_randls_20.json,678642,1097433,34,Woman
37,104257,DepthScenes,duration_manipulation_targetAtFixation,jsons/VE125_randls_20.json,http://54.235.29.9/FacialAge/BNav_EC2/DepthDuration/v2_depth_duration_MTurk/v2_DepthDuration_HTML.html#147,147,1366,768,1366,768,8-21-2022,9-35-33,38,depth_duration_stimuli/000137_2014-05-20_17-04-49_260595134347_rgbf000120-resize_1/000137_2014-05-20_17-04-49_260595134347_rgbf000120-resize_1-target.png,125,3.786,5,3290,124,feet,jsons/VE125_randls_20.json,678642,1097433,34,Woman
38,104257,DepthScenes,duration_manipulation_targetAtFixation,jsons/VE125_randls_20.json,http://54.235.29.9/FacialAge/BNav_EC2/DepthDuration/v2_depth_duration_MTurk/v2_DepthDuration_HTML.html#147,147,1366,768,1366,768,8-21-2022,9-35-33,39,depth_duration_stimuli/003534_2014-05-22_15-06-10_094959634447_rgbf000102-resize_4/003534_2014-05-22_15-06-10_094959634447_rgbf000102-resize_4-target.png,125,1.426,3,2701,123,feet,jsons/VE125_randls_20.json,678642,1097433,34,Woman
39,104257,DepthScenes,duration_manipulation_targetAtFixation,jsons/VE125_randls_20.json,http://54.235.29.9/FacialAge/BNav_EC2/DepthDuration/v2_depth_duration_MTurk/v2_DepthDuration_HTML.html#147,147,1366,768,1366,768,8-21-2022,9-35-33,40,depth_duration_stimuli/002637_2014-06-24_14-51-13_094959634447_rgbf000066-resize_4/002637_2014-06-24_14-51-13_094959634447_rgbf000066-resize_4-target.png,125,1.9955,3,5633,124,feet,jsons/VE125_randls_20.json,678642,1097433,34,Woman
40,104257,DepthScenes,duration_manipulation_targetAtFixation,jsons/VE125_randls_20.json,http://54.235.29.9/FacialAge/BNav_EC2/DepthDuration/v2_depth_duration_MTurk/v2_DepthDuration_HTML.html#147,147,1366,768,1366,768,8-21-2022,9-35-33,41,depth_duration_stimuli/002375_2014-06-28_20-13-44_260595134347_rgbf000032-resize_1/002375_2014-06-28_20-13-44_260595134347_rgbf000032-resize_1-target.png,125,4.0175,4,3116,126,feet,jsons/VE125_randls_20.json,678642,1097433,34,Woman
41,104257,DepthScenes,duration_manipulation_targetAtFixation,jsons/VE125_randls_20.json,http://54.235.29.9/FacialAge/BNav_EC2/DepthDuration/v2_depth_duration_MTurk/v2_DepthDuration_HTML.html#147,147,1366,768,1366,768,8-21-2022,9-35-33,42,depth_duration_stimuli/002657_2014-06-13_15-29-54_094959634447_rgbf000150-resize_1/002657_2014-06-13_15-29-54_094959634447_rgbf000150-resize_1-target.png,125,4.919,5,2770,110,feet,jsons/VE125_randls_20.json,678642,1097433,34,Woman
42,104257,DepthScenes,duration_manipulation_targetAtFixation,jsons/VE125_randls_20.json,http://54.235.29.9/FacialAge/BNav_EC2/DepthDuration/v2_depth_duration_MTurk/v2_DepthDuration_HTML.html#147,147,1366,768,1366,768,8-21-2022,9-35-33,43,depth_duration_stimuli/001555_2014-06-20_17-12-10_260595134347_rgbf000065-resize_4/001555_2014-06-20_17-12-10_260595134347_rgbf000065-resize_4-target.png,125,1.633,3,3446,125,feet,jsons/VE125_randls_20.json,678642,1097433,34,Woman
43,104257,DepthScenes,duration_manipulation_targetAtFixation,jsons/VE125_randls_20.json,http://54.235.29.9/FacialAge/BNav_EC2/DepthDuration/v2_depth_duration_MTurk/v2_DepthDuration_HTML.html#147,147,1366,768,1366,768,8-21-2022,9-35-33,44,depth_duration_stimuli/000103_2014-05-14_22-01-17_260595134347_rgbf000152-resize_5/000103_2014-05-14_22-01-17_260595134347_rgbf000152-resize_5-target.png,125,1.993,6,2639,125,feet,jsons/VE125_randls_20.json,678642,1097433,34,Woman
44,104257,DepthScenes,duration_manipulation_targetAtFixation,jsons/VE125_randls_20.json,http://54.235.29.9/FacialAge/BNav_EC2/DepthDuration/v2_depth_duration_MTurk/v2_DepthDuration_HTML.html#147,147,1366,768,1366,768,8-21-2022,9-35-33,45,depth_duration_stimuli/000787_2014-06-08_22-33-53_260595134347_rgbf000175-resize_1/000787_2014-06-08_22-33-53_260595134347_rgbf000175-resize-original.jpg,125,4.784,0,2442,125,feet,jsons/VE125_randls_20.json,678642,1097433,34,Woman
45,104257,DepthScenes,duration_manipulation_targetAtFixation,jsons/VE125_randls_20.json,http://54.235.29.9/FacialAge/BNav_EC2/DepthDuration/v2_depth_duration_MTurk/v2_DepthDuration_HTML.html#147,147,1366,768,1366,768,8-21-2022,9-35-33,46,depth_duration_stimuli/002213_2014-06-28_18-37-58_260595134347_rgbf000055-resize_1/002213_2014-06-28_18-37-58_260595134347_rgbf000055-resize_1-target.png,125,3.62,7,3464,110,feet,jsons/VE125_randls_20.json,678642,1097433,34,Woman
46,104257,DepthScenes,duration_manipulation_targetAtFixation,jsons/VE125_randls_20.json,http://54.235.29.9/FacialAge/BNav_EC2/DepthDuration/v2_depth_duration_MTurk/v2_DepthDuration_HTML.html#147,147,1366,768,1366,768,8-21-2022,9-35-33,47,depth_duration_stimuli/000691_2014-06-08_13-08-50_260595134347_rgbf000132-resize_3/000691_2014-06-08_13-08-50_260595134347_rgbf000132-resize_3-target.png,125,4.1530000000000005,5,2869,126,feet,jsons/VE125_randls_20.json,678642,1097433,34,Woman
47,104257,DepthScenes,duration_manipulation_targetAtFixation,jsons/VE125_randls_20.json,http://54.235.29.9/FacialAge/BNav_EC2/DepthDuration/v2_depth_duration_MTurk/v2_DepthDuration_HTML.html#147,147,1366,768,1366,768,8-21-2022,9-35-33,48,depth_duration_stimuli/001449_2014-06-19_17-01-27_260595134347_rgbf000116-resize_2/001449_2014-06-19_17-01-27_260595134347_rgbf000116-resize_2-target.png,125,3.452,5,2886,125,feet,jsons/VE125_randls_20.json,678642,1097433,34,Woman
48,104257,DepthScenes,duration_manipulation_targetAtFixation,jsons/VE125_randls_20.json,http://54.235.29.9/FacialAge/BNav_EC2/DepthDuration/v2_depth_duration_MTurk/v2_DepthDuration_HTML.html#147,147,1366,768,1366,768,8-21-2022,9-35-33,49,depth_duration_stimuli/001450_2014-06-19_17-02-03_260595134347_rgbf000203-resize_4/001450_2014-06-19_17-02-03_260595134347_rgbf000203-resize_4-target.png,125,4.0106666666667,0,5178,126,feet,jsons/VE125_randls_20.json,678642,1097433,34,Woman
49,104257,DepthScenes,duration_manipulation_targetAtFixation,jsons/VE125_randls_20.json,http://54.235.29.9/FacialAge/BNav_EC2/DepthDuration/v2_depth_duration_MTurk/v2_DepthDuration_HTML.html#147,147,1366,768,1366,768,8-21-2022,9-35-33,50,depth_duration_stimuli/001011_2014-06-08_23-18-54_260595134347_rgbf000044-resize_4/001011_2014-06-08_23-18-54_260595134347_rgbf000044-resize_4-target.png,125,2.4730000000000003,6,2821,127,feet,jsons/VE125_randls_20.json,678642,1097433,34,Woman
50,104257,DepthScenes,duration_manipulation_targetAtFixation,jsons/VE125_randls_20.json,http://54.235.29.9/FacialAge/BNav_EC2/DepthDuration/v2_depth_duration_MTurk/v2_DepthDuration_HTML.html#147,147,1366,768,1366,768,8-21-2022,9-35-33,51,depth_duration_stimuli/002875_2014-06-01_15-19-00_094959634447_rgbf000151-resize_1/002875_2014-06-01_15-19-00_094959634447_rgbf000151-resize_1-target.png,125,1.9675,3,2818,126,feet,jsons/VE125_randls_20.json,678642,1097433,34,Woman
51,104257,DepthScenes,duration_manipulation_targetAtFixation,jsons/VE125_randls_20.json,http://54.235.29.9/FacialAge/BNav_EC2/DepthDuration/v2_depth_duration_MTurk/v2_DepthDuration_HTML.html#147,147,1366,768,1366,768,8-21-2022,9-35-33,52,depth_duration_stimuli/002039_2014-06-24_20-22-38_260595134347_rgbf000084-resize_1/002039_2014-06-24_20-22-38_260595134347_rgbf000084-resize_1-target.png,125,4.408,3,25786,127,feet,jsons/VE125_randls_20.json,678642,1097433,34,Woman
52,104257,DepthScenes,duration_manipulation_targetAtFixation,jsons/VE125_randls_20.json,http://54.235.29.9/FacialAge/BNav_EC2/DepthDuration/v2_depth_duration_MTurk/v2_DepthDuration_HTML.html#147,147,1366,768,1366,768,8-21-2022,9-35-33,53,depth_duration_stimuli/002103_2014-06-25_20-00-40_260595134347_rgbf000049-resize_0/002103_2014-06-25_20-00-40_260595134347_rgbf000049-resize_0-target.png,125,4.105,4,3500,126,feet,jsons/VE125_randls_20.json,678642,1097433,34,Woman
53,104257,DepthScenes,duration_manipulation_targetAtFixation,jsons/VE125_randls_20.json,http://54.235.29.9/FacialAge/BNav_EC2/DepthDuration/v2_depth_duration_MTurk/v2_DepthDuration_HTML.html#147,147,1366,768,1366,768,8-21-2022,9-35-33,54,depth_duration_stimuli/002989_2014-06-15_12-25-03_094959634447_rgbf000150-resize_3/002989_2014-06-15_12-25-03_094959634447_rgbf000150-resize_3-target.png,125,4.1975,9,2964,127,feet,jsons/VE125_randls_20.json,678642,1097433,34,Woman
54,104257,DepthScenes,duration_manipulation_targetAtFixation,jsons/VE125_randls_20.json,http://54.235.29.9/FacialAge/BNav_EC2/DepthDuration/v2_depth_duration_MTurk/v2_DepthDuration_HTML.html#147,147,1366,768,1366,768,8-21-2022,9-35-33,55,depth_duration_stimuli/000866_2014-06-09_20-45-42_260595134347_rgbf000139-resize_1/000866_2014-06-09_20-45-42_260595134347_rgbf000139-resize_1-target.png,125,3.2155,5,2727,126,feet,jsons/VE125_randls_20.json,678642,1097433,34,Woman
55,104257,DepthScenes,duration_manipulation_targetAtFixation,jsons/VE125_randls_20.json,http://54.235.29.9/FacialAge/BNav_EC2/DepthDuration/v2_depth_duration_MTurk/v2_DepthDuration_HTML.html#147,147,1366,768,1366,768,8-21-2022,9-35-33,56,depth_duration_stimuli/002279_2014-06-28_18-55-32_260595134347_rgbf000040-resize_5/002279_2014-06-28_18-55-32_260595134347_rgbf000040-resize_5-target.png,125,1.5043333333333,6,17905,123,feet,jsons/VE125_randls_20.json,678642,1097433,34,Woman
56,104257,DepthScenes,duration_manipulation_targetAtFixation,jsons/VE125_randls_20.json,http://54.235.29.9/FacialAge/BNav_EC2/DepthDuration/v2_depth_duration_MTurk/v2_DepthDuration_HTML.html#147,147,1366,768,1366,768,8-21-2022,9-35-33,57,depth_duration_stimuli/000635_2014-06-08_16-38-42_260595134347_rgbf000106-resize_1/000635_2014-06-08_16-38-42_260595134347_rgbf000106-resize_1-target.png,125,2.074,3,3005,125,feet,jsons/VE125_randls_20.json,678642,1097433,34,Woman
57,104257,DepthScenes,duration_manipulation_targetAtFixation,jsons/VE125_randls_20.json,http://54.235.29.9/FacialAge/BNav_EC2/DepthDuration/v2_depth_duration_MTurk/v2_DepthDuration_HTML.html#147,147,1366,768,1366,768,8-21-2022,9-35-33,58,depth_duration_stimuli/002549_2014-06-24_13-41-39_094959634447_rgbf000022-resize_3/002549_2014-06-24_13-41-39_094959634447_rgbf000022-resize_3-target.png,125,1.476,3,5265,122,feet,jsons/VE125_randls_20.json,678642,1097433,34,Woman
58,104257,DepthScenes,duration_manipulation_targetAtFixation,jsons/VE125_randls_20.json,http://54.235.29.9/FacialAge/BNav_EC2/DepthDuration/v2_depth_duration_MTurk/v2_DepthDuration_HTML.html#147,147,1366,768,1366,768,8-21-2022,9-35-33,59,depth_duration_stimuli/002750_2014-06-22_19-08-03_094959634447_rgbf000094-resize_4/002750_2014-06-22_19-08-03_094959634447_rgbf000094-resize_4-target.png,125,2.354,4,3241,126,feet,jsons/VE125_randls_20.json,678642,1097433,34,Woman
59,104257,DepthScenes,duration_manipulation_targetAtFixation,jsons/VE125_randls_20.json,http://54.235.29.9/FacialAge/BNav_EC2/DepthDuration/v2_depth_duration_MTurk/v2_DepthDuration_HTML.html#147,147,1366,768,1366,768,8-21-2022,9-35-33,60,depth_duration_stimuli/002600_2014-06-24_14-27-04_094959634447_rgbf000074-resize_2/002600_2014-06-24_14-27-04_094959634447_rgbf000074-resize_2-target.png,125,2.7575,2,2948,126,feet,jsons/VE125_randls_20.json,678642,1097433,34,Woman
60,104257,DepthScenes,duration_manipulation_targetAtFixation,jsons/VE125_randls_20.json,http://54.235.29.9/FacialAge/BNav_EC2/DepthDuration/v2_depth_duration_MTurk/v2_DepthDuration_HTML.html#147,147,1366,768,1366,768,8-21-2022,9-35-33,61,depth_duration_stimuli/003228_2014-05-14_13-42-35_094959634447_rgbf000101-resize_1/003228_2014-05-14_13-42-35_094959634447_rgbf000101-resize_1-target.png,125,1.9680000000000002,5,2933,124,feet,jsons/VE125_randls_20.json,678642,1097433,34,Woman
61,104257,DepthScenes,duration_manipulation_targetAtFixation,jsons/VE125_randls_20.json,http://54.235.29.9/FacialAge/BNav_EC2/DepthDuration/v2_depth_duration_MTurk/v2_DepthDuration_HTML.html#147,147,1366,768,1366,768,8-21-2022,9-35-33,62,depth_duration_stimuli/002153_2014-06-25_21-27-18_260595134347_rgbf000038-resize_5/002153_2014-06-25_21-27-18_260595134347_rgbf000038-resize_5-target.png,125,2.505,4,3041,124,feet,jsons/VE125_randls_20.json,678642,1097433,34,Woman
62,104257,DepthScenes,duration_manipulation_targetAtFixation,jsons/VE125_randls_20.json,http://54.235.29.9/FacialAge/BNav_EC2/DepthDuration/v2_depth_duration_MTurk/v2_DepthDuration_HTML.html#147,147,1366,768,1366,768,8-21-2022,9-35-33,63,depth_duration_stimuli/002660_2014-06-13_15-44-18_094959634447_rgbf001878-resize_2/002660_2014-06-13_15-44-18_094959634447_rgbf001878-resize_2-target.png,125,3.576,3,2929,122,feet,jsons/VE125_randls_20.json,678642,1097433,34,Woman
63,104257,DepthScenes,duration_manipulation_targetAtFixation,jsons/VE125_randls_20.json,http://54.235.29.9/FacialAge/BNav_EC2/DepthDuration/v2_depth_duration_MTurk/v2_DepthDuration_HTML.html#147,147,1366,768,1366,768,8-21-2022,9-35-33,64,depth_duration_stimuli/002057_2014-06-24_21-00-13_260595134347_rgbf000120-resize_1/002057_2014-06-24_21-00-13_260595134347_rgbf000120-resize_1-target.png,125,2.967,5,3116,138,feet,jsons/VE125_randls_20.json,678642,1097433,34,Woman
64,104257,DepthScenes,duration_manipulation_targetAtFixation,jsons/VE125_randls_20.json,http://54.235.29.9/FacialAge/BNav_EC2/DepthDuration/v2_depth_duration_MTurk/v2_DepthDuration_HTML.html#147,147,1366,768,1366,768,8-21-2022,9-35-33,65,depth_duration_stimuli/000709_2014-06-08_13-51-55_260595134347_rgbf000068-resize_3/000709_2014-06-08_13-51-55_260595134347_rgbf000068-resize_3-target.png,125,1.8030000000000002,6,3060,124,feet,jsons/VE125_randls_20.json,678642,1097433,34,Woman
65,104257,DepthScenes,duration_manipulation_targetAtFixation,jsons/VE125_randls_20.json,http://54.235.29.9/FacialAge/BNav_EC2/DepthDuration/v2_depth_duration_MTurk/v2_DepthDuration_HTML.html#147,147,1366,768,1366,768,8-21-2022,9-35-33,66,depth_duration_stimuli/001222_2014-06-17_16-24-06_260595134347_rgbf000073-resize_0/001222_2014-06-17_16-24-06_260595134347_rgbf000073-resize-original.jpg,125,1.4385,0,2494,125,feet,jsons/VE125_randls_20.json,678642,1097433,34,Woman
66,104257,DepthScenes,duration_manipulation_targetAtFixation,jsons/VE125_randls_20.json,http://54.235.29.9/FacialAge/BNav_EC2/DepthDuration/v2_depth_duration_MTurk/v2_DepthDuration_HTML.html#147,147,1366,768,1366,768,8-21-2022,9-35-33,67,depth_duration_stimuli/000682_2014-06-08_23-14-58_260595134347_rgbf000041-resize_5/000682_2014-06-08_23-14-58_260595134347_rgbf000041-resize_5-target.png,125,2.7239999999999998,3,2612,122,feet,jsons/VE125_randls_20.json,678642,1097433,34,Woman
67,104257,DepthScenes,duration_manipulation_targetAtFixation,jsons/VE125_randls_20.json,http://54.235.29.9/FacialAge/BNav_EC2/DepthDuration/v2_depth_duration_MTurk/v2_DepthDuration_HTML.html#147,147,1366,768,1366,768,8-21-2022,9-35-33,68,depth_duration_stimuli/001650_2014-06-20_12-09-00_260595134347_rgbf000087-resize_3/001650_2014-06-20_12-09-00_260595134347_rgbf000087-resize_3-target.png,125,1.9505,2,2571,123,feet,jsons/VE125_randls_20.json,678642,1097433,34,Woman
68,104257,DepthScenes,duration_manipulation_targetAtFixation,jsons/VE125_randls_20.json,http://54.235.29.9/FacialAge/BNav_EC2/DepthDuration/v2_depth_duration_MTurk/v2_DepthDuration_HTML.html#147,147,1366,768,1366,768,8-21-2022,9-35-33,69,depth_duration_stimuli/000493_2014-06-09_21-01-18_260595134347_rgbf000196-resize_3/000493_2014-06-09_21-01-18_260595134347_rgbf000196-resize_3-target.png,125,3.44,4,3177,125,feet,jsons/VE125_randls_20.json,678642,1097433,34,Woman
69,104257,DepthScenes,duration_manipulation_targetAtFixation,jsons/VE125_randls_20.json,http://54.235.29.9/FacialAge/BNav_EC2/DepthDuration/v2_depth_duration_MTurk/v2_DepthDuration_HTML.html#147,147,1366,768,1366,768,8-21-2022,9-35-33,70,depth_duration_stimuli/000191_2014-05-12_17-07-38_260595134347_rgbf000199-resize_0/000191_2014-05-12_17-07-38_260595134347_rgbf000199-resize_0-target.png,125,3.7995,9,2985,126,feet,jsons/VE125_randls_20.json,678642,1097433,34,Woman
70,104257,DepthScenes,duration_manipulation_targetAtFixation,jsons/VE125_randls_20.json,http://54.235.29.9/FacialAge/BNav_EC2/DepthDuration/v2_depth_duration_MTurk/v2_DepthDuration_HTML.html#147,147,1366,768,1366,768,8-21-2022,9-35-33,71,depth_duration_stimuli/002748_2014-06-22_19-07-22_094959634447_rgbf000078-resize_1/002748_2014-06-22_19-07-22_094959634447_rgbf000078-resize_1-target.png,125,4.6705,10,2878,125,feet,jsons/VE125_randls_20.json,678642,1097433,34,Woman
71,104257,DepthScenes,duration_manipulation_targetAtFixation,jsons/VE125_randls_20.json,http://54.235.29.9/FacialAge/BNav_EC2/DepthDuration/v2_depth_duration_MTurk/v2_DepthDuration_HTML.html#147,147,1366,768,1366,768,8-21-2022,9-35-33,72,depth_duration_stimuli/002995_2014-06-15_12-31-26_094959634447_rgbf000150-resize_1/002995_2014-06-15_12-31-26_094959634447_rgbf000150-resize_1-target.png,125,3.8360000000000003,5,4827,125,feet,jsons/VE125_randls_20.json,678642,1097433,34,Woman
72,104257,DepthScenes,duration_manipulation_targetAtFixation,jsons/VE125_randls_20.json,http://54.235.29.9/FacialAge/BNav_EC2/DepthDuration/v2_depth_duration_MTurk/v2_DepthDuration_HTML.html#147,147,1366,768,1366,768,8-21-2022,9-35-33,73,depth_duration_stimuli/001806_2014-06-26_20-50-20_260595134347_rgbf000091-resize_1/001806_2014-06-26_20-50-20_260595134347_rgbf000091-resize_1-target.png,125,2.7305,4,2816,123,feet,jsons/VE125_randls_20.json,678642,1097433,34,Woman
73,104257,DepthScenes,duration_manipulation_targetAtFixation,jsons/VE125_randls_20.json,http://54.235.29.9/FacialAge/BNav_EC2/DepthDuration/v2_depth_duration_MTurk/v2_DepthDuration_HTML.html#147,147,1366,768,1366,768,8-21-2022,9-35-33,74,depth_duration_stimuli/001617_2014-06-20_11-35-32_260595134347_rgbf000066-resize_1/001617_2014-06-20_11-35-32_260595134347_rgbf000066-resize_1-target.png,125,3.7910000000000004,5,2978,122,feet,jsons/VE125_randls_20.json,678642,1097433,34,Woman
74,104257,DepthScenes,duration_manipulation_targetAtFixation,jsons/VE125_randls_20.json,http://54.235.29.9/FacialAge/BNav_EC2/DepthDuration/v2_depth_duration_MTurk/v2_DepthDuration_HTML.html#147,147,1366,768,1366,768,8-21-2022,9-35-33,75,depth_duration_stimuli/003070_2014-06-15_14-58-27_094959634447_rgbf000150-resize_3/003070_2014-06-15_14-58-27_094959634447_rgbf000150-resize_3-target.png,125,2.9415,6,2891,123,feet,jsons/VE125_randls_20.json,678642,1097433,34,Woman
75,104257,DepthScenes,duration_manipulation_targetAtFixation,jsons/VE125_randls_20.json,http://54.235.29.9/FacialAge/BNav_EC2/DepthDuration/v2_depth_duration_MTurk/v2_DepthDuration_HTML.html#147,147,1366,768,1366,768,8-21-2022,9-35-33,76,depth_duration_stimuli/000943_2014-06-09_19-31-07_260595134347_rgbf000128-resize_1/000943_2014-06-09_19-31-07_260595134347_rgbf000128-resize_1-target.png,125,1.9765,5,2761,123,feet,jsons/VE125_randls_20.json,678642,1097433,34,Woman
76,104257,DepthScenes,duration_manipulation_targetAtFixation,jsons/VE125_randls_20.json,http://54.235.29.9/FacialAge/BNav_EC2/DepthDuration/v2_depth_duration_MTurk/v2_DepthDuration_HTML.html#147,147,1366,768,1366,768,8-21-2022,9-35-33,77,depth_duration_stimuli/000810_2014-06-08_17-20-01_260595134347_rgbf000105-resize_0/000810_2014-06-08_17-20-01_260595134347_rgbf000105-resize_0-target.png,125,1.4865,5,4018,123,feet,jsons/VE125_randls_20.json,678642,1097433,34,Woman
77,104257,DepthScenes,duration_manipulation_targetAtFixation,jsons/VE125_randls_20.json,http://54.235.29.9/FacialAge/BNav_EC2/DepthDuration/v2_depth_duration_MTurk/v2_DepthDuration_HTML.html#147,147,1366,768,1366,768,8-21-2022,9-35-33,78,depth_duration_stimuli/001214_2014-06-17_16-13-55_260595134347_rgbf000111-resize_0/001214_2014-06-17_16-13-55_260595134347_rgbf000111-resize_0-target.png,125,2.6505,6,2641,127,feet,jsons/VE125_randls_20.json,678642,1097433,34,Woman
78,104257,DepthScenes,duration_manipulation_targetAtFixation,jsons/VE125_randls_20.json,http://54.235.29.9/FacialAge/BNav_EC2/DepthDuration/v2_depth_duration_MTurk/v2_DepthDuration_HTML.html#147,147,1366,768,1366,768,8-21-2022,9-35-33,79,depth_duration_stimuli/001808_2014-06-26_20-50-58_260595134347_rgbf000029-resize_1/001808_2014-06-26_20-50-58_260595134347_rgbf000029-resize_1-target.png,125,4.249,5,4042,126,feet,jsons/VE125_randls_20.json,678642,1097433,34,Woman
79,104257,DepthScenes,duration_manipulation_targetAtFixation,jsons/VE125_randls_20.json,http://54.235.29.9/FacialAge/BNav_EC2/DepthDuration/v2_depth_duration_MTurk/v2_DepthDuration_HTML.html#147,147,1366,768,1366,768,8-21-2022,9-35-33,80,depth_duration_stimuli/001815_2014-06-26_20-52-55_260595134347_rgbf000020-resize_0/001815_2014-06-26_20-52-55_260595134347_rgbf000020-resize_0-target.png,125,3.3865,6,2744,139,feet,jsons/VE125_randls_20.json,678642,1097433,34,Woman
80,104257,DepthScenes,duration_manipulation_targetAtFixation,jsons/VE125_randls_20.json,http://54.235.29.9/FacialAge/BNav_EC2/DepthDuration/v2_depth_duration_MTurk/v2_DepthDuration_HTML.html#147,147,1366,768,1366,768,8-21-2022,9-35-33,81,depth_duration_stimuli/001029_2014-06-08_13-17-57_260595134347_rgbf000065-resize_1/001029_2014-06-08_13-17-57_260595134347_rgbf000065-resize_1-target.png,125,3.0835,5,2919,123,feet,jsons/VE125_randls_20.json,678642,1097433,34,Woman
81,104257,DepthScenes,duration_manipulation_targetAtFixation,jsons/VE125_randls_20.json,http://54.235.29.9/FacialAge/BNav_EC2/DepthDuration/v2_depth_duration_MTurk/v2_DepthDuration_HTML.html#147,147,1366,768,1366,768,8-21-2022,9-35-33,82,depth_duration_stimuli/000677_2014-06-08_23-10-32_260595134347_rgbf000158-resize_6/000677_2014-06-08_23-10-32_260595134347_rgbf000158-resize_6-target.png,125,3.556,5,3691,122,feet,jsons/VE125_randls_20.json,678642,1097433,34,Woman
82,104257,DepthScenes,duration_manipulation_targetAtFixation,jsons/VE125_randls_20.json,http://54.235.29.9/FacialAge/BNav_EC2/DepthDuration/v2_depth_duration_MTurk/v2_DepthDuration_HTML.html#147,147,1366,768,1366,768,8-21-2022,9-35-33,83,depth_duration_stimuli/002788_2014-06-22_19-36-03_094959634447_rgbf000088-resize_2/002788_2014-06-22_19-36-03_094959634447_rgbf000088-resize_2-target.png,125,1.6465,4,2940,124,feet,jsons/VE125_randls_20.json,678642,1097433,34,Woman
83,104257,DepthScenes,duration_manipulation_targetAtFixation,jsons/VE125_randls_20.json,http://54.235.29.9/FacialAge/BNav_EC2/DepthDuration/v2_depth_duration_MTurk/v2_DepthDuration_HTML.html#147,147,1366,768,1366,768,8-21-2022,9-35-33,84,depth_duration_stimuli/000749_2014-06-08_21-55-06_260595134347_rgbf000070-resize_2/000749_2014-06-08_21-55-06_260595134347_rgbf000070-resize_2-target.png,125,2.331,4,2853,127,feet,jsons/VE125_randls_20.json,678642,1097433,34,Woman
84,104257,DepthScenes,duration_manipulation_targetAtFixation,jsons/VE125_randls_20.json,http://54.235.29.9/FacialAge/BNav_EC2/DepthDuration/v2_depth_duration_MTurk/v2_DepthDuration_HTML.html#147,147,1366,768,1366,768,8-21-2022,9-35-33,85,depth_duration_stimuli/001066_2014-06-08_22-03-20_260595134347_rgbf000066-resize_4/001066_2014-06-08_22-03-20_260595134347_rgbf000066-resize_4-target.png,125,4.2330000000000005,6,3503,128,feet,jsons/VE125_randls_20.json,678642,1097433,34,Woman
85,104257,DepthScenes,duration_manipulation_targetAtFixation,jsons/VE125_randls_20.json,http://54.235.29.9/FacialAge/BNav_EC2/DepthDuration/v2_depth_duration_MTurk/v2_DepthDuration_HTML.html#147,147,1366,768,1366,768,8-21-2022,9-35-33,86,depth_duration_stimuli/000742_2014-06-08_18-48-09_260595134347_rgbf000164-resize_4/000742_2014-06-08_18-48-09_260595134347_rgbf000164-resize_4-target.png,125,4.632,6,4234,125,feet,jsons/VE125_randls_20.json,678642,1097433,34,Woman
86,104257,DepthScenes,duration_manipulation_targetAtFixation,jsons/VE125_randls_20.json,http://54.235.29.9/FacialAge/BNav_EC2/DepthDuration/v2_depth_duration_MTurk/v2_DepthDuration_HTML.html#147,147,1366,768,1366,768,8-21-2022,9-35-33,87,depth_duration_stimuli/002964_2014-06-08_17-46-11_094959634447_rgbf000091-resize_4/002964_2014-06-08_17-46-11_094959634447_rgbf000091-resize_4-target.png,125,1.6909999999999998,3,2596,126,feet,jsons/VE125_randls_20.json,678642,1097433,34,Woman
87,104257,DepthScenes,duration_manipulation_targetAtFixation,jsons/VE125_randls_20.json,http://54.235.29.9/FacialAge/BNav_EC2/DepthDuration/v2_depth_duration_MTurk/v2_DepthDuration_HTML.html#147,147,1366,768,1366,768,8-21-2022,9-35-33,88,depth_duration_stimuli/002136_2014-06-25_21-18-03_260595134347_rgbf000109-resize_3/002136_2014-06-25_21-18-03_260595134347_rgbf000109-resize_3-target.png,125,1.9569999999999999,3,3427,124,feet,jsons/VE125_randls_20.json,678642,1097433,34,Woman
88,104257,DepthScenes,duration_manipulation_targetAtFixation,jsons/VE125_randls_20.json,http://54.235.29.9/FacialAge/BNav_EC2/DepthDuration/v2_depth_duration_MTurk/v2_DepthDuration_HTML.html#147,147,1366,768,1366,768,8-21-2022,9-35-33,89,depth_duration_stimuli/000414_2014-06-04_19-49-13_260595134347_rgbf000044-resize_0/000414_2014-06-04_19-49-13_260595134347_rgbf000044-resize_0-target.png,125,4.329,6,2718,123,feet,jsons/VE125_randls_20.json,678642,1097433,34,Woman
89,104257,DepthScenes,duration_manipulation_targetAtFixation,jsons/VE125_randls_20.json,http://54.235.29.9/FacialAge/BNav_EC2/DepthDuration/v2_depth_duration_MTurk/v2_DepthDuration_HTML.html#147,147,1366,768,1366,768,8-21-2022,9-35-33,90,depth_duration_stimuli/003129_2014-05-12_10-48-10_094959634447_rgbf000100-resize_0/003129_2014-05-12_10-48-10_094959634447_rgbf000100-resize_0-target.png,125,4.9305,6,3999,125,feet,jsons/VE125_randls_20.json,678642,1097433,34,Woman
90,104257,DepthScenes,duration_manipulation_targetAtFixation,jsons/VE125_randls_20.json,http://54.235.29.9/FacialAge/BNav_EC2/DepthDuration/v2_depth_duration_MTurk/v2_DepthDuration_HTML.html#147,147,1366,768,1366,768,8-21-2022,9-35-33,91,depth_duration_stimuli/000486_2014-06-09_20-47-20_260595134347_rgbf000143-resize_2/000486_2014-06-09_20-47-20_260595134347_rgbf000143-resize_2-target.png,125,4.8325,5,3127,124,feet,jsons/VE125_randls_20.json,678642,1097433,34,Woman
91,104257,DepthScenes,duration_manipulation_targetAtFixation,jsons/VE125_randls_20.json,http://54.235.29.9/FacialAge/BNav_EC2/DepthDuration/v2_depth_duration_MTurk/v2_DepthDuration_HTML.html#147,147,1366,768,1366,768,8-21-2022,9-35-33,92,depth_duration_stimuli/003083_2014-06-15_15-21-03_094959634447_rgbf000063-resize_1/003083_2014-06-15_15-21-03_094959634447_rgbf000063-resize_1-target.png,125,4.1405,6,2854,124,feet,jsons/VE125_randls_20.json,678642,1097433,34,Woman
92,104257,DepthScenes,duration_manipulation_targetAtFixation,jsons/VE125_randls_20.json,http://54.235.29.9/FacialAge/BNav_EC2/DepthDuration/v2_depth_duration_MTurk/v2_DepthDuration_HTML.html#147,147,1366,768,1366,768,8-21-2022,9-35-33,93,depth_duration_stimuli/000773_2014-06-08_22-24-54_260595134347_rgbf000093-resize_1/000773_2014-06-08_22-24-54_260595134347_rgbf000093-resize_1-target.png,125,4.973,6,4119,124,feet,jsons/VE125_randls_20.json,678642,1097433,34,Woman
93,104257,DepthScenes,duration_manipulation_targetAtFixation,jsons/VE125_randls_20.json,http://54.235.29.9/FacialAge/BNav_EC2/DepthDuration/v2_depth_duration_MTurk/v2_DepthDuration_HTML.html#147,147,1366,768,1366,768,8-21-2022,9-35-33,94,depth_duration_stimuli/002414_2014-06-28_20-24-58_260595134347_rgbf000067-resize_4/002414_2014-06-28_20-24-58_260595134347_rgbf000067-resize_4-target.png,125,4.363,7,2697,122,feet,jsons/VE125_randls_20.json,678642,1097433,34,Woman
94,104257,DepthScenes,duration_manipulation_targetAtFixation,jsons/VE125_randls_20.json,http://54.235.29.9/FacialAge/BNav_EC2/DepthDuration/v2_depth_duration_MTurk/v2_DepthDuration_HTML.html#147,147,1366,768,1366,768,8-21-2022,9-35-33,95,depth_duration_stimuli/000906_2014-06-08_13-35-43_260595134347_rgbf000155-resize_1/000906_2014-06-08_13-35-43_260595134347_rgbf000155-resize_1-target.png,125,2.8489999999999998,6,2829,123,feet,jsons/VE125_randls_20.json,678642,1097433,34,Woman
95,104257,DepthScenes,duration_manipulation_targetAtFixation,jsons/VE125_randls_20.json,http://54.235.29.9/FacialAge/BNav_EC2/DepthDuration/v2_depth_duration_MTurk/v2_DepthDuration_HTML.html#147,147,1366,768,1366,768,8-21-2022,9-35-33,96,depth_duration_stimuli/002805_2014-06-22_19-54-03_094959634447_rgbf000079-resize_1/002805_2014-06-22_19-54-03_094959634447_rgbf000079-resize_1-target.png,125,3.1439999999999997,6,2674,110,feet,jsons/VE125_randls_20.json,678642,1097433,34,Woman
96,104257,DepthScenes,duration_manipulation_targetAtFixation,jsons/VE125_randls_20.json,http://54.235.29.9/FacialAge/BNav_EC2/DepthDuration/v2_depth_duration_MTurk/v2_DepthDuration_HTML.html#147,147,1366,768,1366,768,8-21-2022,9-35-33,97,depth_duration_stimuli/000470_2014-06-09_19-42-40_260595134347_rgbf000094-resize_1/000470_2014-06-09_19-42-40_260595134347_rgbf000094-resize_1-target.png,125,1.831,6,37833,127,feet,jsons/VE125_randls_20.json,678642,1097433,34,Woman
97,104257,DepthScenes,duration_manipulation_targetAtFixation,jsons/VE125_randls_20.json,http://54.235.29.9/FacialAge/BNav_EC2/DepthDuration/v2_depth_duration_MTurk/v2_DepthDuration_HTML.html#147,147,1366,768,1366,768,8-21-2022,9-35-33,98,depth_duration_stimuli/000109_2014-05-14_23-41-52_260595134347_rgbf000035-resize_9/000109_2014-05-14_23-41-52_260595134347_rgbf000035-resize_9-target.png,125,1.3545,3,2860,123,feet,jsons/VE125_randls_20.json,678642,1097433,34,Woman
98,104257,DepthScenes,duration_manipulation_targetAtFixation,jsons/VE125_randls_20.json,http://54.235.29.9/FacialAge/BNav_EC2/DepthDuration/v2_depth_duration_MTurk/v2_DepthDuration_HTML.html#147,147,1366,768,1366,768,8-21-2022,9-35-33,99,depth_duration_stimuli/001540_2014-06-20_17-01-05_260595134347_rgbf000086-resize_2/001540_2014-06-20_17-01-05_260595134347_rgbf000086-resize-original.jpg,125,1.459,0,2432,123,feet,jsons/VE125_randls_20.json,678642,1097433,34,Woman
99,104257,DepthScenes,duration_manipulation_targetAtFixation,jsons/VE125_randls_20.json,http://54.235.29.9/FacialAge/BNav_EC2/DepthDuration/v2_depth_duration_MTurk/v2_DepthDuration_HTML.html#147,147,1366,768,1366,768,8-21-2022,9-35-33,100,depth_duration_stimuli/001110_2014-06-15_17-25-28_260595134347_rgbf000150-resize_1/001110_2014-06-15_17-25-28_260595134347_rgbf000150-resize_1-target.png,125,1.7115,3,2984,125,feet,jsons/VE125_randls_20.json,678642,1097433,34,Woman
100,104257,DepthScenes,duration_manipulation_targetAtFixation,jsons/VE125_randls_20.json,http://54.235.29.9/FacialAge/BNav_EC2/DepthDuration/v2_depth_duration_MTurk/v2_DepthDuration_HTML.html#147,147,1366,768,1366,768,8-21-2022,9-35-33,101,depth_duration_stimuli/000927_2014-06-09_16-32-30_260595134347_rgbf000123-resize_3/000927_2014-06-09_16-32-30_260595134347_rgbf000123-resize_3-target.png,125,2.6785,4,2838,126,feet,jsons/VE125_randls_20.json,678642,1097433,34,Woman
101,104257,DepthScenes,duration_manipulation_targetAtFixation,jsons/VE125_randls_20.json,http://54.235.29.9/FacialAge/BNav_EC2/DepthDuration/v2_depth_duration_MTurk/v2_DepthDuration_HTML.html#147,147,1366,768,1366,768,8-21-2022,9-35-33,102,depth_duration_stimuli/000878_2014-06-08_22-52-45_260595134347_rgbf000045-resize_2/000878_2014-06-08_22-52-45_260595134347_rgbf000045-resize_2-target.png,125,2.092,4,2665,123,feet,jsons/VE125_randls_20.json,678642,1097433,34,Woman
102,104257,DepthScenes,duration_manipulation_targetAtFixation,jsons/VE125_randls_20.json,http://54.235.29.9/FacialAge/BNav_EC2/DepthDuration/v2_depth_duration_MTurk/v2_DepthDuration_HTML.html#147,147,1366,768,1366,768,8-21-2022,9-35-33,103,depth_duration_stimuli/002953_2014-06-08_17-32-18_094959634447_rgbf000059-resize_5/002953_2014-06-08_17-32-18_094959634447_rgbf000059-resize_5-target.png,125,1.551,2,3154,118,feet,jsons/VE125_randls_20.json,678642,1097433,34,Woman
103,104257,DepthScenes,duration_manipulation_targetAtFixation,jsons/VE125_randls_20.json,http://54.235.29.9/FacialAge/BNav_EC2/DepthDuration/v2_depth_duration_MTurk/v2_DepthDuration_HTML.html#147,147,1366,768,1366,768,8-21-2022,9-35-33,104,depth_duration_stimuli/001150_2014-06-17_15-27-34_260595134347_rgbf000108-resize_2/001150_2014-06-17_15-27-34_260595134347_rgbf000108-resize_2-target.png,125,4.0325,6,2576,127,feet,jsons/VE125_randls_20.json,678642,1097433,34,Woman
104,104257,DepthScenes,duration_manipulation_targetAtFixation,jsons/VE125_randls_20.json,http://54.235.29.9/FacialAge/BNav_EC2/DepthDuration/v2_depth_duration_MTurk/v2_DepthDuration_HTML.html#147,147,1366,768,1366,768,8-21-2022,9-35-33,105,depth_duration_stimuli/000665_2014-06-09_20-42-35_260595134347_rgbf000110-resize_1/000665_2014-06-09_20-42-35_260595134347_rgbf000110-resize_1-target.png,125,3.057,5,2656,127,feet,jsons/VE125_randls_20.json,678642,1097433,34,Woman
105,104257,DepthScenes,duration_manipulation_targetAtFixation,jsons/VE125_randls_20.json,http://54.235.29.9/FacialAge/BNav_EC2/DepthDuration/v2_depth_duration_MTurk/v2_DepthDuration_HTML.html#147,147,1366,768,1366,768,8-21-2022,9-35-33,106,depth_duration_stimuli/002763_2014-06-22_19-13-10_094959634447_rgbf000075-resize_4/002763_2014-06-22_19-13-10_094959634447_rgbf000075-resize_4-target.png,125,1.68375,4,2787,124,feet,jsons/VE125_randls_20.json,678642,1097433,34,Woman
106,104257,DepthScenes,duration_manipulation_targetAtFixation,jsons/VE125_randls_20.json,http://54.235.29.9/FacialAge/BNav_EC2/DepthDuration/v2_depth_duration_MTurk/v2_DepthDuration_HTML.html#147,147,1366,768,1366,768,8-21-2022,9-35-33,107,depth_duration_stimuli/002209_2014-06-28_18-36-10_260595134347_rgbf000051-resize_1/002209_2014-06-28_18-36-10_260595134347_rgbf000051-resize_1-target.png,125,2.057,6,2745,126,feet,jsons/VE125_randls_20.json,678642,1097433,34,Woman
107,104257,DepthScenes,duration_manipulation_targetAtFixation,jsons/VE125_randls_20.json,http://54.235.29.9/FacialAge/BNav_EC2/DepthDuration/v2_depth_duration_MTurk/v2_DepthDuration_HTML.html#147,147,1366,768,1366,768,8-21-2022,9-35-33,108,depth_duration_stimuli/003492_2014-05-21_15-50-55_094959634447_rgbf000828-resize_1/003492_2014-05-21_15-50-55_094959634447_rgbf000828-resize_1-target.png,125,4.06875,7,3229,126,feet,jsons/VE125_randls_20.json,678642,1097433,34,Woman
108,104257,DepthScenes,duration_manipulation_targetAtFixation,jsons/VE125_randls_20.json,http://54.235.29.9/FacialAge/BNav_EC2/DepthDuration/v2_depth_duration_MTurk/v2_DepthDuration_HTML.html#147,147,1366,768,1366,768,8-21-2022,9-35-33,109,depth_duration_stimuli/002568_2014-06-24_13-59-21_094959634447_rgbf000062-resize_4/002568_2014-06-24_13-59-21_094959634447_rgbf000062-resize_4-target.png,125,3.015,6,2867,128,feet,jsons/VE125_randls_20.json,678642,1097433,34,Woman
109,104257,DepthScenes,duration_manipulation_targetAtFixation,jsons/VE125_randls_20.json,http://54.235.29.9/FacialAge/BNav_EC2/DepthDuration/v2_depth_duration_MTurk/v2_DepthDuration_HTML.html#147,147,1366,768,1366,768,8-21-2022,9-35-33,110,depth_duration_stimuli/002663_2014-06-13_15-50-26_094959634447_rgbf000075-resize_1/002663_2014-06-13_15-50-26_094959634447_rgbf000075-resize_1-target.png,125,4.7495,5,2525,125,feet,jsons/VE125_randls_20.json,678642,1097433,34,Woman
110,104257,DepthScenes,duration_manipulation_targetAtFixation,jsons/VE125_randls_20.json,http://54.235.29.9/FacialAge/BNav_EC2/DepthDuration/v2_depth_duration_MTurk/v2_DepthDuration_HTML.html#147,147,1366,768,1366,768,8-21-2022,9-35-33,111,depth_duration_stimuli/000409_2014-06-04_19-23-33_260595134347_rgbf000067-resize_0/000409_2014-06-04_19-23-33_260595134347_rgbf000067-resize_0-target.png,125,3.7335,5,2885,127,feet,jsons/VE125_randls_20.json,678642,1097433,34,Woman
111,104257,DepthScenes,duration_manipulation_targetAtFixation,jsons/VE125_randls_20.json,http://54.235.29.9/FacialAge/BNav_EC2/DepthDuration/v2_depth_duration_MTurk/v2_DepthDuration_HTML.html#147,147,1366,768,1366,768,8-21-2022,9-35-33,112,depth_duration_stimuli/003292_2014-05-14_21-53-49_094959634447_rgbf000100-resize_2/003292_2014-05-14_21-53-49_094959634447_rgbf000100-resize_2-target.png,125,3.4815,3,2565,126,feet,jsons/VE125_randls_20.json,678642,1097433,34,Woman
112,104257,DepthScenes,duration_manipulation_targetAtFixation,jsons/VE125_randls_20.json,http://54.235.29.9/FacialAge/BNav_EC2/DepthDuration/v2_depth_duration_MTurk/v2_DepthDuration_HTML.html#147,147,1366,768,1366,768,8-21-2022,9-35-33,113,depth_duration_stimuli/002639_2014-06-24_14-51-37_094959634447_rgbf000074-resize_4/002639_2014-06-24_14-51-37_094959634447_rgbf000074-resize_4-target.png,125,4.0375,5,2774,125,feet,jsons/VE125_randls_20.json,678642,1097433,34,Woman
113,104257,DepthScenes,duration_manipulation_targetAtFixation,jsons/VE125_randls_20.json,http://54.235.29.9/FacialAge/BNav_EC2/DepthDuration/v2_depth_duration_MTurk/v2_DepthDuration_HTML.html#147,147,1366,768,1366,768,8-21-2022,9-35-33,114,depth_duration_stimuli/000929_2014-06-09_16-33-19_260595134347_rgbf000139-resize_0/000929_2014-06-09_16-33-19_260595134347_rgbf000139-resize_0-target.png,125,2.8680000000000003,3,2475,110,feet,jsons/VE125_randls_20.json,678642,1097433,34,Woman
114,104257,DepthScenes,duration_manipulation_targetAtFixation,jsons/VE125_randls_20.json,http://54.235.29.9/FacialAge/BNav_EC2/DepthDuration/v2_depth_duration_MTurk/v2_DepthDuration_HTML.html#147,147,1366,768,1366,768,8-21-2022,9-35-33,115,depth_duration_stimuli/000457_2014-06-08_16-52-43_260595134347_rgbf000199-resize_1/000457_2014-06-08_16-52-43_260595134347_rgbf000199-resize_1-target.png,125,3.6489999999999996,6,2674,111,feet,jsons/VE125_randls_20.json,678642,1097433,34,Woman
115,104257,DepthScenes,duration_manipulation_targetAtFixation,jsons/VE125_randls_20.json,http://54.235.29.9/FacialAge/BNav_EC2/DepthDuration/v2_depth_duration_MTurk/v2_DepthDuration_HTML.html#147,147,1366,768,1366,768,8-21-2022,9-35-33,116,depth_duration_stimuli/001170_2014-06-17_15-43-44_260595134347_rgbf000096-resize_6/001170_2014-06-17_15-43-44_260595134347_rgbf000096-resize-original.jpg,125,1.1909999999999998,0,2472,124,feet,jsons/VE125_randls_20.json,678642,1097433,34,Woman
116,104257,DepthScenes,duration_manipulation_targetAtFixation,jsons/VE125_randls_20.json,http://54.235.29.9/FacialAge/BNav_EC2/DepthDuration/v2_depth_duration_MTurk/v2_DepthDuration_HTML.html#147,147,1366,768,1366,768,8-21-2022,9-35-33,117,depth_duration_stimuli/000436_2014-06-09_22-25-11_260595134347_rgbf000137-resize_1/000436_2014-06-09_22-25-11_260595134347_rgbf000137-resize_1-target.png,125,4.0705,6,3720,127,feet,jsons/VE125_randls_20.json,678642,1097433,34,Woman
117,104257,DepthScenes,duration_manipulation_targetAtFixation,jsons/VE125_randls_20.json,http://54.235.29.9/FacialAge/BNav_EC2/DepthDuration/v2_depth_duration_MTurk/v2_DepthDuration_HTML.html#147,147,1366,768,1366,768,8-21-2022,9-35-33,118,depth_duration_stimuli/002444_2014-06-28_20-32-08_260595134347_rgbf000027-resize_0/002444_2014-06-28_20-32-08_260595134347_rgbf000027-resize_0-target.png,125,4.388999999999999,4,3330,120,feet,jsons/VE125_randls_20.json,678642,1097433,34,Woman
118,104257,DepthScenes,duration_manipulation_targetAtFixation,jsons/VE125_randls_20.json,http://54.235.29.9/FacialAge/BNav_EC2/DepthDuration/v2_depth_duration_MTurk/v2_DepthDuration_HTML.html#147,147,1366,768,1366,768,8-21-2022,9-35-33,119,depth_duration_stimuli/001244_2014-06-17_16-47-45_260595134347_rgbf000030-resize_4/001244_2014-06-17_16-47-45_260595134347_rgbf000030-resize_4-target.png,125,2.0425,4,16550,127,feet,jsons/VE125_randls_20.json,678642,1097433,34,Woman
119,104257,DepthScenes,duration_manipulation_targetAtFixation,jsons/VE125_randls_20.json,http://54.235.29.9/FacialAge/BNav_EC2/DepthDuration/v2_depth_duration_MTurk/v2_DepthDuration_HTML.html#147,147,1366,768,1366,768,8-21-2022,9-35-33,120,depth_duration_stimuli/003495_2014-05-21_16-01-51_094959634447_rgbf000100-resize_3/003495_2014-05-21_16-01-51_094959634447_rgbf000100-resize_3-target.png,125,1.6255,2,2764,110,feet,jsons/VE125_randls_20.json,678642,1097433,34,Woman
120,104257,DepthScenes,duration_manipulation_targetAtFixation,jsons/VE125_randls_20.json,http://54.235.29.9/FacialAge/BNav_EC2/DepthDuration/v2_depth_duration_MTurk/v2_DepthDuration_HTML.html#147,147,1366,768,1366,768,8-21-2022,9-35-33,121,depth_duration_stimuli/002905_2014-06-03_18-04-43_094959634447_rgbf000151-resize_2/002905_2014-06-03_18-04-43_094959634447_rgbf000151-resize_2-target.png,125,2.0295,3,2680,126,feet,jsons/VE125_randls_20.json,678642,1097433,34,Woman
121,104257,DepthScenes,duration_manipulation_targetAtFixation,jsons/VE125_randls_20.json,http://54.235.29.9/FacialAge/BNav_EC2/DepthDuration/v2_depth_duration_MTurk/v2_DepthDuration_HTML.html#147,147,1366,768,1366,768,8-21-2022,9-35-33,122,depth_duration_stimuli/003423_2014-05-21_10-23-26_094959634447_rgbf002665-resize_2/003423_2014-05-21_10-23-26_094959634447_rgbf002665-resize_2-target.png,125,3.2575,8,2885,127,feet,jsons/VE125_randls_20.json,678642,1097433,34,Woman
122,104257,DepthScenes,duration_manipulation_targetAtFixation,jsons/VE125_randls_20.json,http://54.235.29.9/FacialAge/BNav_EC2/DepthDuration/v2_depth_duration_MTurk/v2_DepthDuration_HTML.html#147,147,1366,768,1366,768,8-21-2022,9-35-33,123,depth_duration_stimuli/001133_2014-06-17_14-49-16_260595134347_rgbf000100-resize_0/001133_2014-06-17_14-49-16_260595134347_rgbf000100-resize_0-target.png,125,4.2115,5,2978,126,feet,jsons/VE125_randls_20.json,678642,1097433,34,Woman
123,104257,DepthScenes,duration_manipulation_targetAtFixation,jsons/VE125_randls_20.json,http://54.235.29.9/FacialAge/BNav_EC2/DepthDuration/v2_depth_duration_MTurk/v2_DepthDuration_HTML.html#147,147,1366,768,1366,768,8-21-2022,9-35-33,124,depth_duration_stimuli/001132_2014-06-17_14-48-54_260595134347_rgbf000100-resize_2/001132_2014-06-17_14-48-54_260595134347_rgbf000100-resize_2-target.png,125,3.753,6,2881,127,feet,jsons/VE125_randls_20.json,678642,1097433,34,Woman
124,104257,DepthScenes,duration_manipulation_targetAtFixation,jsons/VE125_randls_20.json,http://54.235.29.9/FacialAge/BNav_EC2/DepthDuration/v2_depth_duration_MTurk/v2_DepthDuration_HTML.html#147,147,1366,768,1366,768,8-21-2022,9-35-33,125,depth_duration_stimuli/000758_2014-06-08_22-05-08_260595134347_rgbf000085-resize_0/000758_2014-06-08_22-05-08_260595134347_rgbf000085-resize_0-target.png,125,3.3810000000000002,7,2718,126,feet,jsons/VE125_randls_20.json,678642,1097433,34,Woman
125,104257,DepthScenes,duration_manipulation_targetAtFixation,jsons/VE125_randls_20.json,http://54.235.29.9/FacialAge/BNav_EC2/DepthDuration/v2_depth_duration_MTurk/v2_DepthDuration_HTML.html#147,147,1366,768,1366,768,8-21-2022,9-35-33,126,depth_duration_stimuli/000854_2014-06-09_19-43-13_260595134347_rgbf000066-resize_0/000854_2014-06-09_19-43-13_260595134347_rgbf000066-resize_0-target.png,125,3.068,4,2938,124,feet,jsons/VE125_randls_20.json,678642,1097433,34,Woman
126,104257,DepthScenes,duration_manipulation_targetAtFixation,jsons/VE125_randls_20.json,http://54.235.29.9/FacialAge/BNav_EC2/DepthDuration/v2_depth_duration_MTurk/v2_DepthDuration_HTML.html#147,147,1366,768,1366,768,8-21-2022,9-35-33,127,depth_duration_stimuli/001016_2014-06-09_16-16-10_260595134347_rgbf000112-resize_5/001016_2014-06-09_16-16-10_260595134347_rgbf000112-resize_5-target.png,125,1.6565,4,2898,137,feet,jsons/VE125_randls_20.json,678642,1097433,34,Woman
127,104257,DepthScenes,duration_manipulation_targetAtFixation,jsons/VE125_randls_20.json,http://54.235.29.9/FacialAge/BNav_EC2/DepthDuration/v2_depth_duration_MTurk/v2_DepthDuration_HTML.html#147,147,1366,768,1366,768,8-21-2022,9-35-33,128,depth_duration_stimuli/002340_2014-06-28_20-05-46_260595134347_rgbf000113-resize_0/002340_2014-06-28_20-05-46_260595134347_rgbf000113-resize_0-target.png,125,2.4735,6,2673,126,feet,jsons/VE125_randls_20.json,678642,1097433,34,Woman
128,104257,DepthScenes,duration_manipulation_targetAtFixation,jsons/VE125_randls_20.json,http://54.235.29.9/FacialAge/BNav_EC2/DepthDuration/v2_depth_duration_MTurk/v2_DepthDuration_HTML.html#147,147,1366,768,1366,768,8-21-2022,9-35-33,129,depth_duration_stimuli/002445_2014-06-28_20-32-16_260595134347_rgbf000029-resize_4/002445_2014-06-28_20-32-16_260595134347_rgbf000029-resize_4-target.png,125,2.5315,5,2668,125,feet,jsons/VE125_randls_20.json,678642,1097433,34,Woman
129,104257,DepthScenes,duration_manipulation_targetAtFixation,jsons/VE125_randls_20.json,http://54.235.29.9/FacialAge/BNav_EC2/DepthDuration/v2_depth_duration_MTurk/v2_DepthDuration_HTML.html#147,147,1366,768,1366,768,8-21-2022,9-35-33,130,depth_duration_stimuli/000780_2014-06-08_22-28-29_260595134347_rgbf000126-resize_1/000780_2014-06-08_22-28-29_260595134347_rgbf000126-resize_1-target.png,125,3.3825,6,2957,128,feet,jsons/VE125_randls_20.json,678642,1097433,34,Woman
130,104257,DepthScenes,duration_manipulation_targetAtFixation,jsons/VE125_randls_20.json,http://54.235.29.9/FacialAge/BNav_EC2/DepthDuration/v2_depth_duration_MTurk/v2_DepthDuration_HTML.html#147,147,1366,768,1366,768,8-21-2022,9-35-33,131,depth_duration_stimuli/002509_2014-06-24_13-19-22_094959634447_rgbf000077-resize_0/002509_2014-06-24_13-19-22_094959634447_rgbf000077-resize_0-target.png,125,1.3065,5,3542,124,feet,jsons/VE125_randls_20.json,678642,1097433,34,Woman
131,104257,DepthScenes,duration_manipulation_targetAtFixation,jsons/VE125_randls_20.json,http://54.235.29.9/FacialAge/BNav_EC2/DepthDuration/v2_depth_duration_MTurk/v2_DepthDuration_HTML.html#147,147,1366,768,1366,768,8-21-2022,9-35-33,132,depth_duration_stimuli/003338_2014-05-20_11-01-23_094959634447_rgbf000051-resize_6/003338_2014-05-20_11-01-23_094959634447_rgbf000051-resize_6-target.png,125,1.693,3,2494,124,feet,jsons/VE125_randls_20.json,678642,1097433,34,Woman
132,104257,DepthScenes,duration_manipulation_targetAtFixation,jsons/VE125_randls_20.json,http://54.235.29.9/FacialAge/BNav_EC2/DepthDuration/v2_depth_duration_MTurk/v2_DepthDuration_HTML.html#147,147,1366,768,1366,768,8-21-2022,9-35-33,133,depth_duration_stimuli/002272_2014-06-28_18-53-56_260595134347_rgbf000067-resize_2/002272_2014-06-28_18-53-56_260595134347_rgbf000067-resize_2-target.png,125,1.138,2,2677,124,feet,jsons/VE125_randls_20.json,678642,1097433,34,Woman
133,104257,DepthScenes,duration_manipulation_targetAtFixation,jsons/VE125_randls_20.json,http://54.235.29.9/FacialAge/BNav_EC2/DepthDuration/v2_depth_duration_MTurk/v2_DepthDuration_HTML.html#147,147,1366,768,1366,768,8-21-2022,9-35-33,134,depth_duration_stimuli/001571_2014-06-20_17-21-32_260595134347_rgbf000089-resize_1/001571_2014-06-20_17-21-32_260595134347_rgbf000089-resize_1-target.png,125,1.86,3,2572,124,feet,jsons/VE125_randls_20.json,678642,1097433,34,Woman
134,104257,DepthScenes,duration_manipulation_targetAtFixation,jsons/VE125_randls_20.json,http://54.235.29.9/FacialAge/BNav_EC2/DepthDuration/v2_depth_duration_MTurk/v2_DepthDuration_HTML.html#147,147,1366,768,1366,768,8-21-2022,9-35-33,135,depth_duration_stimuli/002072_2014-06-24_21-48-06_260595134347_rgbf000115-resize_0/002072_2014-06-24_21-48-06_260595134347_rgbf000115-resize-original.jpg,125,4.702,0,2743,122,feet,jsons/VE125_randls_20.json,678642,1097433,34,Woman
135,104257,DepthScenes,duration_manipulation_targetAtFixation,jsons/VE125_randls_20.json,http://54.235.29.9/FacialAge/BNav_EC2/DepthDuration/v2_depth_duration_MTurk/v2_DepthDuration_HTML.html#147,147,1366,768,1366,768,8-21-2022,9-35-33,136,depth_duration_stimuli/000447_2014-06-08_16-15-46_260595134347_rgbf000130-resize_1/000447_2014-06-08_16-15-46_260595134347_rgbf000130-resize_1-target.png,125,4.479,6,2941,126,feet,jsons/VE125_randls_20.json,678642,1097433,34,Woman
136,104257,DepthScenes,duration_manipulation_targetAtFixation,jsons/VE125_randls_20.json,http://54.235.29.9/FacialAge/BNav_EC2/DepthDuration/v2_depth_duration_MTurk/v2_DepthDuration_HTML.html#147,147,1366,768,1366,768,8-21-2022,9-35-33,137,depth_duration_stimuli/001447_2014-06-19_17-00-32_260595134347_rgbf000082-resize_5/001447_2014-06-19_17-00-32_260595134347_rgbf000082-resize_5-target.png,125,4.13775,6,3124,127,feet,jsons/VE125_randls_20.json,678642,1097433,34,Woman
137,104257,DepthScenes,duration_manipulation_targetAtFixation,jsons/VE125_randls_20.json,http://54.235.29.9/FacialAge/BNav_EC2/DepthDuration/v2_depth_duration_MTurk/v2_DepthDuration_HTML.html#147,147,1366,768,1366,768,8-21-2022,9-35-33,138,depth_duration_stimuli/000009_2014-05-26_14-32-05_260595134347_rgbf000034-resize_3/000009_2014-05-26_14-32-05_260595134347_rgbf000034-resize_3-target.png,125,3.8715,0,2380,125,feet,jsons/VE125_randls_20.json,678642,1097433,34,Woman
138,104257,DepthScenes,duration_manipulation_targetAtFixation,jsons/VE125_randls_20.json,http://54.235.29.9/FacialAge/BNav_EC2/DepthDuration/v2_depth_duration_MTurk/v2_DepthDuration_HTML.html#147,147,1366,768,1366,768,8-21-2022,9-35-33,139,depth_duration_stimuli/001828_2014-06-26_21-40-03_260595134347_rgbf000024-resize_0/001828_2014-06-26_21-40-03_260595134347_rgbf000024-resize_0-target.png,125,4.8260000000000005,6,2734,126,feet,jsons/VE125_randls_20.json,678642,1097433,34,Woman
139,104257,DepthScenes,duration_manipulation_targetAtFixation,jsons/VE125_randls_20.json,http://54.235.29.9/FacialAge/BNav_EC2/DepthDuration/v2_depth_duration_MTurk/v2_DepthDuration_HTML.html#147,147,1366,768,1366,768,8-21-2022,9-35-33,140,depth_duration_stimuli/000368_2014-06-09_15-53-01_260595134347_rgbf000155-resize_2/000368_2014-06-09_15-53-01_260595134347_rgbf000155-resize_2-target.png,125,2.4859999999999998,0,2215,127,feet,jsons/VE125_randls_20.json,678642,1097433,34,Woman
140,104257,DepthScenes,duration_manipulation_targetAtFixation,jsons/VE125_randls_20.json,http://54.235.29.9/FacialAge/BNav_EC2/DepthDuration/v2_depth_duration_MTurk/v2_DepthDuration_HTML.html#147,147,1366,768,1366,768,8-21-2022,9-35-33,141,depth_duration_stimuli/002678_2014-06-13_16-15-32_094959634447_rgbf000151-resize_6/002678_2014-06-13_16-15-32_094959634447_rgbf000151-resize_6-target.png,125,2.1830000000000003,9,3005,126,feet,jsons/VE125_randls_20.json,678642,1097433,34,Woman
141,104257,DepthScenes,duration_manipulation_targetAtFixation,jsons/VE125_randls_20.json,http://54.235.29.9/FacialAge/BNav_EC2/DepthDuration/v2_depth_duration_MTurk/v2_DepthDuration_HTML.html#147,147,1366,768,1366,768,8-21-2022,9-35-33,142,depth_duration_stimuli/001175_2014-06-17_15-45-55_260595134347_rgbf000129-resize_4/001175_2014-06-17_15-45-55_260595134347_rgbf000129-resize_4-target.png,125,4.255,6,14442,111,feet,jsons/VE125_randls_20.json,678642,1097433,34,Woman
142,104257,DepthScenes,duration_manipulation_targetAtFixation,jsons/VE125_randls_20.json,http://54.235.29.9/FacialAge/BNav_EC2/DepthDuration/v2_depth_duration_MTurk/v2_DepthDuration_HTML.html#147,147,1366,768,1366,768,8-21-2022,9-35-33,143,depth_duration_stimuli/003490_2014-05-21_15-50-11_094959634447_rgbf000101-resize_3/003490_2014-05-21_15-50-11_094959634447_rgbf000101-resize_3-target.png,125,3.6445,6,2682,126,feet,jsons/VE125_randls_20.json,678642,1097433,34,Woman
143,104257,DepthScenes,duration_manipulation_targetAtFixation,jsons/VE125_randls_20.json,http://54.235.29.9/FacialAge/BNav_EC2/DepthDuration/v2_depth_duration_MTurk/v2_DepthDuration_HTML.html#147,147,1366,768,1366,768,8-21-2022,9-35-33,144,depth_duration_stimuli/001158_2014-06-17_15-32-16_260595134347_rgbf000138-resize_2/001158_2014-06-17_15-32-16_260595134347_rgbf000138-resize_2-target.png,125,4.5315,0,2166,127,feet,jsons/VE125_randls_20.json,678642,1097433,34,Woman
144,104257,DepthScenes,duration_manipulation_targetAtFixation,jsons/VE125_randls_20.json,http://54.235.29.9/FacialAge/BNav_EC2/DepthDuration/v2_depth_duration_MTurk/v2_DepthDuration_HTML.html#147,147,1366,768,1366,768,8-21-2022,9-35-33,145,depth_duration_stimuli/000556_2014-06-09_22-42-56_260595134347_rgbf000214-resize_1/000556_2014-06-09_22-42-56_260595134347_rgbf000214-resize_1-target.png,125,4.8415,6,4590,128,feet,jsons/VE125_randls_20.json,678642,1097433,34,Woman
145,104257,DepthScenes,duration_manipulation_targetAtFixation,jsons/VE125_randls_20.json,http://54.235.29.9/FacialAge/BNav_EC2/DepthDuration/v2_depth_duration_MTurk/v2_DepthDuration_HTML.html#147,147,1366,768,1366,768,8-21-2022,9-35-33,146,depth_duration_stimuli/001498_2014-06-19_17-45-14_260595134347_rgbf000129-resize_4/001498_2014-06-19_17-45-14_260595134347_rgbf000129-resize-original.jpg,125,1.4075,0,2212,122,feet,jsons/VE125_randls_20.json,678642,1097433,34,Woman
146,104257,DepthScenes,duration_manipulation_targetAtFixation,jsons/VE125_randls_20.json,http://54.235.29.9/FacialAge/BNav_EC2/DepthDuration/v2_depth_duration_MTurk/v2_DepthDuration_HTML.html#147,147,1366,768,1366,768,8-21-2022,9-35-33,147,depth_duration_stimuli/002725_2014-06-22_11-47-51_094959634447_rgbf000070-resize_1/002725_2014-06-22_11-47-51_094959634447_rgbf000070-resize_1-target.png,125,2.195,5,2807,127,feet,jsons/VE125_randls_20.json,678642,1097433,34,Woman
147,104257,DepthScenes,duration_manipulation_targetAtFixation,jsons/VE125_randls_20.json,http://54.235.29.9/FacialAge/BNav_EC2/DepthDuration/v2_depth_duration_MTurk/v2_DepthDuration_HTML.html#147,147,1366,768,1366,768,8-21-2022,9-35-33,148,depth_duration_stimuli/002344_2014-06-28_20-06-29_260595134347_rgbf000030-resize_1/002344_2014-06-28_20-06-29_260595134347_rgbf000030-resize_1-target.png,125,1.5795,3,3583,139,feet,jsons/VE125_randls_20.json,678642,1097433,34,Woman
148,104257,DepthScenes,duration_manipulation_targetAtFixation,jsons/VE125_randls_20.json,http://54.235.29.9/FacialAge/BNav_EC2/DepthDuration/v2_depth_duration_MTurk/v2_DepthDuration_HTML.html#147,147,1366,768,1366,768,8-21-2022,9-35-33,149,depth_duration_stimuli/002570_2014-06-24_13-59-54_094959634447_rgbf000059-resize_0/002570_2014-06-24_13-59-54_094959634447_rgbf000059-resize_0-target.png,125,4.037,5,2786,124,feet,jsons/VE125_randls_20.json,678642,1097433,34,Woman
149,104257,DepthScenes,duration_manipulation_targetAtFixation,jsons/VE125_randls_20.json,http://54.235.29.9/FacialAge/BNav_EC2/DepthDuration/v2_depth_duration_MTurk/v2_DepthDuration_HTML.html#147,147,1366,768,1366,768,8-21-2022,9-35-33,150,depth_duration_stimuli/002467_2014-06-28_20-38-07_260595134347_rgbf000026-resize_2/002467_2014-06-28_20-38-07_260595134347_rgbf000026-resize_2-target.png,125,4.742,6,2700,129,feet,jsons/VE125_randls_20.json,678642,1097433,34,Woman
150,104257,DepthScenes,duration_manipulation_targetAtFixation,jsons/VE125_randls_20.json,http://54.235.29.9/FacialAge/BNav_EC2/DepthDuration/v2_depth_duration_MTurk/v2_DepthDuration_HTML.html#147,147,1366,768,1366,768,8-21-2022,9-35-33,151,depth_duration_stimuli/001570_2014-06-20_17-21-09_260595134347_rgbf000135-resize_4/001570_2014-06-20_17-21-09_260595134347_rgbf000135-resize_4-target.png,125,4.467,8,2720,123,feet,jsons/VE125_randls_20.json,678642,1097433,34,Woman
151,104257,DepthScenes,duration_manipulation_targetAtFixation,jsons/VE125_randls_20.json,http://54.235.29.9/FacialAge/BNav_EC2/DepthDuration/v2_depth_duration_MTurk/v2_DepthDuration_HTML.html#147,147,1366,768,1366,768,8-21-2022,9-35-33,152,depth_duration_stimuli/001392_2014-06-19_16-07-59_260595134347_rgbf000046-resize_1/001392_2014-06-19_16-07-59_260595134347_rgbf000046-resize_1-target.png,125,4.135,5,2590,122,feet,jsons/VE125_randls_20.json,678642,1097433,34,Woman
152,104257,DepthScenes,duration_manipulation_targetAtFixation,jsons/VE125_randls_20.json,http://54.235.29.9/FacialAge/BNav_EC2/DepthDuration/v2_depth_duration_MTurk/v2_DepthDuration_HTML.html#147,147,1366,768,1366,768,8-21-2022,9-35-33,153,depth_duration_stimuli/000788_2014-06-08_22-34-36_260595134347_rgbf000131-resize_1/000788_2014-06-08_22-34-36_260595134347_rgbf000131-resize_1-target.png,125,3.359,5,2969,123,feet,jsons/VE125_randls_20.json,678642,1097433,34,Woman
153,104257,DepthScenes,duration_manipulation_targetAtFixation,jsons/VE125_randls_20.json,http://54.235.29.9/FacialAge/BNav_EC2/DepthDuration/v2_depth_duration_MTurk/v2_DepthDuration_HTML.html#147,147,1366,768,1366,768,8-21-2022,9-35-33,154,depth_duration_stimuli/001235_2014-06-17_16-37-36_260595134347_rgbf000084-resize_4/001235_2014-06-17_16-37-36_260595134347_rgbf000084-resize_4-target.png,125,3.6605,6,2549,125,feet,jsons/VE125_randls_20.json,678642,1097433,34,Woman
154,104257,DepthScenes,duration_manipulation_targetAtFixation,jsons/VE125_randls_20.json,http://54.235.29.9/FacialAge/BNav_EC2/DepthDuration/v2_depth_duration_MTurk/v2_DepthDuration_HTML.html#147,147,1366,768,1366,768,8-21-2022,9-35-33,155,depth_duration_stimuli/001417_2014-06-19_16-25-36_260595134347_rgbf000115-resize_5/001417_2014-06-19_16-25-36_260595134347_rgbf000115-resize_5-target.png,125,4.6255,6,2465,125,feet,jsons/VE125_randls_20.json,678642,1097433,34,Woman
155,104257,DepthScenes,duration_manipulation_targetAtFixation,jsons/VE125_randls_20.json,http://54.235.29.9/FacialAge/BNav_EC2/DepthDuration/v2_depth_duration_MTurk/v2_DepthDuration_HTML.html#147,147,1366,768,1366,768,8-21-2022,9-35-33,156,depth_duration_stimuli/003081_2014-06-15_15-19-16_094959634447_rgbf000150-resize_1/003081_2014-06-15_15-19-16_094959634447_rgbf000150-resize_1-target.png,125,3.9125,5,4091,127,feet,jsons/VE125_randls_20.json,678642,1097433,34,Woman
156,104257,DepthScenes,duration_manipulation_targetAtFixation,jsons/VE125_randls_20.json,http://54.235.29.9/FacialAge/BNav_EC2/DepthDuration/v2_depth_duration_MTurk/v2_DepthDuration_HTML.html#147,147,1366,768,1366,768,8-21-2022,9-35-33,157,depth_duration_stimuli/000642_2014-06-08_16-59-25_260595134347_rgbf000098-resize_2/000642_2014-06-08_16-59-25_260595134347_rgbf000098-resize_2-target.png,125,2.8815,7,2904,123,feet,jsons/VE125_randls_20.json,678642,1097433,34,Woman
157,104257,DepthScenes,duration_manipulation_targetAtFixation,jsons/VE125_randls_20.json,http://54.235.29.9/FacialAge/BNav_EC2/DepthDuration/v2_depth_duration_MTurk/v2_DepthDuration_HTML.html#147,147,1366,768,1366,768,8-21-2022,9-35-33,158,depth_duration_stimuli/002425_2014-06-28_20-27-29_260595134347_rgbf000031-resize_8/002425_2014-06-28_20-27-29_260595134347_rgbf000031-resize_8-target.png,125,3.8960000000000004,6,2593,122,feet,jsons/VE125_randls_20.json,678642,1097433,34,Woman
158,104257,DepthScenes,duration_manipulation_targetAtFixation,jsons/VE125_randls_20.json,http://54.235.29.9/FacialAge/BNav_EC2/DepthDuration/v2_depth_duration_MTurk/v2_DepthDuration_HTML.html#147,147,1366,768,1366,768,8-21-2022,9-35-33,159,depth_duration_stimuli/000917_2014-06-09_22-45-29_260595134347_rgbf000149-resize_3/000917_2014-06-09_22-45-29_260595134347_rgbf000149-resize_3-target.png,125,4.1865,8,3166,125,feet,jsons/VE125_randls_20.json,678642,1097433,34,Woman
159,104257,DepthScenes,duration_manipulation_targetAtFixation,jsons/VE125_randls_20.json,http://54.235.29.9/FacialAge/BNav_EC2/DepthDuration/v2_depth_duration_MTurk/v2_DepthDuration_HTML.html#147,147,1366,768,1366,768,8-21-2022,9-35-33,160,depth_duration_stimuli/002323_2014-06-28_20-01-54_260595134347_rgbf000051-resize_4/002323_2014-06-28_20-01-54_260595134347_rgbf000051-resize_4-target.png,125,3.7310000000000003,9,3413,126,feet,jsons/VE125_randls_20.json,678642,1097433,34,Woman
160,104257,DepthScenes,duration_manipulation_targetAtFixation,jsons/VE125_randls_20.json,http://54.235.29.9/FacialAge/BNav_EC2/DepthDuration/v2_depth_duration_MTurk/v2_DepthDuration_HTML.html#147,147,1366,768,1366,768,8-21-2022,9-35-33,161,depth_duration_stimuli/002988_2014-06-15_12-24-20_094959634447_rgbf000150-resize_1/002988_2014-06-15_12-24-20_094959634447_rgbf000150-resize_1-target.png,125,4.7669999999999995,9,2921,128,feet,jsons/VE125_randls_20.json,678642,1097433,34,Woman
161,104257,DepthScenes,duration_manipulation_targetAtFixation,jsons/VE125_randls_20.json,http://54.235.29.9/FacialAge/BNav_EC2/DepthDuration/v2_depth_duration_MTurk/v2_DepthDuration_HTML.html#147,147,1366,768,1366,768,8-21-2022,9-35-33,162,depth_duration_stimuli/001052_2014-06-08_18-24-54_260595134347_rgbf000130-resize_1/001052_2014-06-08_18-24-54_260595134347_rgbf000130-resize_1-target.png,125,4.1045,9,5493,123,feet,jsons/VE125_randls_20.json,678642,1097433,34,Woman
162,104257,DepthScenes,duration_manipulation_targetAtFixation,jsons/VE125_randls_20.json,http://54.235.29.9/FacialAge/BNav_EC2/DepthDuration/v2_depth_duration_MTurk/v2_DepthDuration_HTML.html#147,147,1366,768,1366,768,8-21-2022,9-35-33,163,depth_duration_stimuli/003621_2014-05-23_18-06-08_094959634447_rgbf000101-resize_1/003621_2014-05-23_18-06-08_094959634447_rgbf000101-resize_1-target.png,125,3.9835,8,3532,126,feet,jsons/VE125_randls_20.json,678642,1097433,34,Woman
163,104257,DepthScenes,duration_manipulation_targetAtFixation,jsons/VE125_randls_20.json,http://54.235.29.9/FacialAge/BNav_EC2/DepthDuration/v2_depth_duration_MTurk/v2_DepthDuration_HTML.html#147,147,1366,768,1366,768,8-21-2022,9-35-33,164,depth_duration_stimuli/001584_2014-06-20_11-07-43_260595134347_rgbf000002-resize_1/001584_2014-06-20_11-07-43_260595134347_rgbf000002-resize_1-target.png,125,3.53,7,4598,110,feet,jsons/VE125_randls_20.json,678642,1097433,34,Woman
