,subjID,experimentName,versionName,sequenceName,url,selected_row,windowWidth,windowHeight,screenWidth,screenHeight,startDate,startTime,trial,stimulus,duration,actual_depth,depth_estimate,trial_RT,log_sceneDuration,unitSelection,seq_filepath,experimentTime,totalTime,age,gender
0,105636,DepthScenes,duration_manipulation_targetAtFixation,jsons/VE125_randls_64.json,http://54.235.29.9/FacialAge/BNav_EC2/DepthDuration/v2_depth_duration_MTurk/v2_DepthDuration_HTML.html#38,38,1366,657,1366,768,8-21-2022,7-43-24,1,depth_duration_stimuli/002988_2014-06-15_12-24-20_094959634447_rgbf000150-resize_1/002988_2014-06-15_12-24-20_094959634447_rgbf000150-resize_1-target.png,125,4.7669999999999995,80,31514,125,meters,jsons/VE125_randls_64.json,2359658,2700288,39,Man
1,105636,DepthScenes,duration_manipulation_targetAtFixation,jsons/VE125_randls_64.json,http://54.235.29.9/FacialAge/BNav_EC2/DepthDuration/v2_depth_duration_MTurk/v2_DepthDuration_HTML.html#38,38,1366,657,1366,768,8-21-2022,7-43-24,2,depth_duration_stimuli/001052_2014-06-08_18-24-54_260595134347_rgbf000130-resize_1/001052_2014-06-08_18-24-54_260595134347_rgbf000130-resize_1-target.png,125,4.1045,80,24019,124,meters,jsons/VE125_randls_64.json,2359658,2700288,39,Man
2,105636,DepthScenes,duration_manipulation_targetAtFixation,jsons/VE125_randls_64.json,http://54.235.29.9/FacialAge/BNav_EC2/DepthDuration/v2_depth_duration_MTurk/v2_DepthDuration_HTML.html#38,38,1366,657,1366,768,8-21-2022,7-43-24,3,depth_duration_stimuli/002964_2014-06-08_17-46-11_094959634447_rgbf000091-resize_4/002964_2014-06-08_17-46-11_094959634447_rgbf000091-resize_4-target.png,125,1.6909999999999998,30,27174,124,meters,jsons/VE125_randls_64.json,2359658,2700288,39,Man
3,105636,DepthScenes,duration_manipulation_targetAtFixation,jsons/VE125_randls_64.json,http://54.235.29.9/FacialAge/BNav_EC2/DepthDuration/v2_depth_duration_MTurk/v2_DepthDuration_HTML.html#38,38,1366,657,1366,768,8-21-2022,7-43-24,4,depth_duration_stimuli/002136_2014-06-25_21-18-03_260595134347_rgbf000109-resize_3/002136_2014-06-25_21-18-03_260595134347_rgbf000109-resize_3-target.png,125,1.9569999999999999,60,6359,124,meters,jsons/VE125_randls_64.json,2359658,2700288,39,Man
4,105636,DepthScenes,duration_manipulation_targetAtFixation,jsons/VE125_randls_64.json,http://54.235.29.9/FacialAge/BNav_EC2/DepthDuration/v2_depth_duration_MTurk/v2_DepthDuration_HTML.html#38,38,1366,657,1366,768,8-21-2022,7-43-24,5,depth_duration_stimuli/000917_2014-06-09_22-45-29_260595134347_rgbf000149-resize_3/000917_2014-06-09_22-45-29_260595134347_rgbf000149-resize_3-target.png,125,4.1865,80,4902,124,meters,jsons/VE125_randls_64.json,2359658,2700288,39,Man
5,105636,DepthScenes,duration_manipulation_targetAtFixation,jsons/VE125_randls_64.json,http://54.235.29.9/FacialAge/BNav_EC2/DepthDuration/v2_depth_duration_MTurk/v2_DepthDuration_HTML.html#38,38,1366,657,1366,768,8-21-2022,7-43-24,6,depth_duration_stimuli/002323_2014-06-28_20-01-54_260595134347_rgbf000051-resize_4/002323_2014-06-28_20-01-54_260595134347_rgbf000051-resize_4-target.png,125,3.7310000000000003,80,27673,123,meters,jsons/VE125_randls_64.json,2359658,2700288,39,Man
6,105636,DepthScenes,duration_manipulation_targetAtFixation,jsons/VE125_randls_64.json,http://54.235.29.9/FacialAge/BNav_EC2/DepthDuration/v2_depth_duration_MTurk/v2_DepthDuration_HTML.html#38,38,1366,657,1366,768,8-21-2022,7-43-24,7,depth_duration_stimuli/002279_2014-06-28_18-55-32_260595134347_rgbf000040-resize_5/002279_2014-06-28_18-55-32_260595134347_rgbf000040-resize_5-target.png,125,1.5043333333333,50,32320,127,meters,jsons/VE125_randls_64.json,2359658,2700288,39,Man
7,105636,DepthScenes,duration_manipulation_targetAtFixation,jsons/VE125_randls_64.json,http://54.235.29.9/FacialAge/BNav_EC2/DepthDuration/v2_depth_duration_MTurk/v2_DepthDuration_HTML.html#38,38,1366,657,1366,768,8-21-2022,7-43-24,8,depth_duration_stimuli/000635_2014-06-08_16-38-42_260595134347_rgbf000106-resize_1/000635_2014-06-08_16-38-42_260595134347_rgbf000106-resize_1-target.png,125,2.074,80,5444,125,meters,jsons/VE125_randls_64.json,2359658,2700288,39,Man
8,105636,DepthScenes,duration_manipulation_targetAtFixation,jsons/VE125_randls_64.json,http://54.235.29.9/FacialAge/BNav_EC2/DepthDuration/v2_depth_duration_MTurk/v2_DepthDuration_HTML.html#38,38,1366,657,1366,768,8-21-2022,7-43-24,9,depth_duration_stimuli/000506_2014-06-08_23-21-00_260595134347_rgbf000070-resize_7/000506_2014-06-08_23-21-00_260595134347_rgbf000070-resize_7-target.png,125,4.0585,80,23073,125,meters,jsons/VE125_randls_64.json,2359658,2700288,39,Man
9,105636,DepthScenes,duration_manipulation_targetAtFixation,jsons/VE125_randls_64.json,http://54.235.29.9/FacialAge/BNav_EC2/DepthDuration/v2_depth_duration_MTurk/v2_DepthDuration_HTML.html#38,38,1366,657,1366,768,8-21-2022,7-43-24,10,depth_duration_stimuli/003079_2014-06-15_15-18-20_094959634447_rgbf000152-resize_8/003079_2014-06-15_15-18-20_094959634447_rgbf000152-resize_8-target.png,125,2.8775,80,5954,124,meters,jsons/VE125_randls_64.json,2359658,2700288,39,Man
10,105636,DepthScenes,duration_manipulation_targetAtFixation,jsons/VE125_randls_64.json,http://54.235.29.9/FacialAge/BNav_EC2/DepthDuration/v2_depth_duration_MTurk/v2_DepthDuration_HTML.html#38,38,1366,657,1366,768,8-21-2022,7-43-24,11,depth_duration_stimuli/000758_2014-06-08_22-05-08_260595134347_rgbf000085-resize_0/000758_2014-06-08_22-05-08_260595134347_rgbf000085-resize_0-target.png,125,3.3810000000000002,80,5261,126,meters,jsons/VE125_randls_64.json,2359658,2700288,39,Man
11,105636,DepthScenes,duration_manipulation_targetAtFixation,jsons/VE125_randls_64.json,http://54.235.29.9/FacialAge/BNav_EC2/DepthDuration/v2_depth_duration_MTurk/v2_DepthDuration_HTML.html#38,38,1366,657,1366,768,8-21-2022,7-43-24,12,depth_duration_stimuli/000854_2014-06-09_19-43-13_260595134347_rgbf000066-resize_0/000854_2014-06-09_19-43-13_260595134347_rgbf000066-resize_0-target.png,125,3.068,80,7468,115,meters,jsons/VE125_randls_64.json,2359658,2700288,39,Man
12,105636,DepthScenes,duration_manipulation_targetAtFixation,jsons/VE125_randls_64.json,http://54.235.29.9/FacialAge/BNav_EC2/DepthDuration/v2_depth_duration_MTurk/v2_DepthDuration_HTML.html#38,38,1366,657,1366,768,8-21-2022,7-43-24,13,depth_duration_stimuli/000569_2014-06-09_22-51-47_260595134347_rgbf000141-resize_3/000569_2014-06-09_22-51-47_260595134347_rgbf000141-resize-original.jpg,125,4.512,80,7417,124,meters,jsons/VE125_randls_64.json,2359658,2700288,39,Man
13,105636,DepthScenes,duration_manipulation_targetAtFixation,jsons/VE125_randls_64.json,http://54.235.29.9/FacialAge/BNav_EC2/DepthDuration/v2_depth_duration_MTurk/v2_DepthDuration_HTML.html#38,38,1366,657,1366,768,8-21-2022,7-43-24,14,depth_duration_stimuli/002788_2014-06-22_19-36-03_094959634447_rgbf000088-resize_2/002788_2014-06-22_19-36-03_094959634447_rgbf000088-resize_2-target.png,125,1.6465,80,23917,124,meters,jsons/VE125_randls_64.json,2359658,2700288,39,Man
14,105636,DepthScenes,duration_manipulation_targetAtFixation,jsons/VE125_randls_64.json,http://54.235.29.9/FacialAge/BNav_EC2/DepthDuration/v2_depth_duration_MTurk/v2_DepthDuration_HTML.html#38,38,1366,657,1366,768,8-21-2022,7-43-24,15,depth_duration_stimuli/000749_2014-06-08_21-55-06_260595134347_rgbf000070-resize_2/000749_2014-06-08_21-55-06_260595134347_rgbf000070-resize_2-target.png,125,2.331,40,5960,124,meters,jsons/VE125_randls_64.json,2359658,2700288,39,Man
15,105636,DepthScenes,duration_manipulation_targetAtFixation,jsons/VE125_randls_64.json,http://54.235.29.9/FacialAge/BNav_EC2/DepthDuration/v2_depth_duration_MTurk/v2_DepthDuration_HTML.html#38,38,1366,657,1366,768,8-21-2022,7-43-24,16,depth_duration_stimuli/002989_2014-06-15_12-25-03_094959634447_rgbf000150-resize_3/002989_2014-06-15_12-25-03_094959634447_rgbf000150-resize_3-target.png,125,4.1975,60,8324,125,meters,jsons/VE125_randls_64.json,2359658,2700288,39,Man
16,105636,DepthScenes,duration_manipulation_targetAtFixation,jsons/VE125_randls_64.json,http://54.235.29.9/FacialAge/BNav_EC2/DepthDuration/v2_depth_duration_MTurk/v2_DepthDuration_HTML.html#38,38,1366,657,1366,768,8-21-2022,7-43-24,17,depth_duration_stimuli/000866_2014-06-09_20-45-42_260595134347_rgbf000139-resize_1/000866_2014-06-09_20-45-42_260595134347_rgbf000139-resize_1-target.png,125,3.2155,80,6047,124,meters,jsons/VE125_randls_64.json,2359658,2700288,39,Man
17,105636,DepthScenes,duration_manipulation_targetAtFixation,jsons/VE125_randls_64.json,http://54.235.29.9/FacialAge/BNav_EC2/DepthDuration/v2_depth_duration_MTurk/v2_DepthDuration_HTML.html#38,38,1366,657,1366,768,8-21-2022,7-43-24,18,depth_duration_stimuli/002039_2014-06-24_20-22-38_260595134347_rgbf000084-resize_1/002039_2014-06-24_20-22-38_260595134347_rgbf000084-resize_1-target.png,125,4.408,50,7062,124,meters,jsons/VE125_randls_64.json,2359658,2700288,39,Man
18,105636,DepthScenes,duration_manipulation_targetAtFixation,jsons/VE125_randls_64.json,http://54.235.29.9/FacialAge/BNav_EC2/DepthDuration/v2_depth_duration_MTurk/v2_DepthDuration_HTML.html#38,38,1366,657,1366,768,8-21-2022,7-43-24,19,depth_duration_stimuli/002103_2014-06-25_20-00-40_260595134347_rgbf000049-resize_0/002103_2014-06-25_20-00-40_260595134347_rgbf000049-resize_0-target.png,125,4.105,90,27015,125,meters,jsons/VE125_randls_64.json,2359658,2700288,39,Man
19,105636,DepthScenes,duration_manipulation_targetAtFixation,jsons/VE125_randls_64.json,http://54.235.29.9/FacialAge/BNav_EC2/DepthDuration/v2_depth_duration_MTurk/v2_DepthDuration_HTML.html#38,38,1366,657,1366,768,8-21-2022,7-43-24,20,depth_duration_stimuli/001244_2014-06-17_16-47-45_260595134347_rgbf000030-resize_4/001244_2014-06-17_16-47-45_260595134347_rgbf000030-resize_4-target.png,125,2.0425,60,26756,124,meters,jsons/VE125_randls_64.json,2359658,2700288,39,Man
20,105636,DepthScenes,duration_manipulation_targetAtFixation,jsons/VE125_randls_64.json,http://54.235.29.9/FacialAge/BNav_EC2/DepthDuration/v2_depth_duration_MTurk/v2_DepthDuration_HTML.html#38,38,1366,657,1366,768,8-21-2022,7-43-24,21,depth_duration_stimuli/003495_2014-05-21_16-01-51_094959634447_rgbf000100-resize_3/003495_2014-05-21_16-01-51_094959634447_rgbf000100-resize_3-target.png,125,1.6255,80,5748,117,meters,jsons/VE125_randls_64.json,2359658,2700288,39,Man
21,105636,DepthScenes,duration_manipulation_targetAtFixation,jsons/VE125_randls_64.json,http://54.235.29.9/FacialAge/BNav_EC2/DepthDuration/v2_depth_duration_MTurk/v2_DepthDuration_HTML.html#38,38,1366,657,1366,768,8-21-2022,7-43-24,22,depth_duration_stimuli/001056_2014-06-08_18-46-44_260595134347_rgbf000068-resize_0/001056_2014-06-08_18-46-44_260595134347_rgbf000068-resize_0-target.png,125,2.6625,70,7319,140,meters,jsons/VE125_randls_64.json,2359658,2700288,39,Man
22,105636,DepthScenes,duration_manipulation_targetAtFixation,jsons/VE125_randls_64.json,http://54.235.29.9/FacialAge/BNav_EC2/DepthDuration/v2_depth_duration_MTurk/v2_DepthDuration_HTML.html#38,38,1366,657,1366,768,8-21-2022,7-43-24,23,depth_duration_stimuli/002199_2014-06-28_18-33-56_260595134347_rgbf000074-resize_0/002199_2014-06-28_18-33-56_260595134347_rgbf000074-resize_0-target.png,125,1.996,60,27439,133,meters,jsons/VE125_randls_64.json,2359658,2700288,39,Man
23,105636,DepthScenes,duration_manipulation_targetAtFixation,jsons/VE125_randls_64.json,http://54.235.29.9/FacialAge/BNav_EC2/DepthDuration/v2_depth_duration_MTurk/v2_DepthDuration_HTML.html#38,38,1366,657,1366,768,8-21-2022,7-43-24,24,depth_duration_stimuli/002509_2014-06-24_13-19-22_094959634447_rgbf000077-resize_0/002509_2014-06-24_13-19-22_094959634447_rgbf000077-resize_0-target.png,125,1.3065,60,6198,124,meters,jsons/VE125_randls_64.json,2359658,2700288,39,Man
24,105636,DepthScenes,duration_manipulation_targetAtFixation,jsons/VE125_randls_64.json,http://54.235.29.9/FacialAge/BNav_EC2/DepthDuration/v2_depth_duration_MTurk/v2_DepthDuration_HTML.html#38,38,1366,657,1366,768,8-21-2022,7-43-24,25,depth_duration_stimuli/003338_2014-05-20_11-01-23_094959634447_rgbf000051-resize_6/003338_2014-05-20_11-01-23_094959634447_rgbf000051-resize_6-target.png,125,1.693,80,26766,124,meters,jsons/VE125_randls_64.json,2359658,2700288,39,Man
25,105636,DepthScenes,duration_manipulation_targetAtFixation,jsons/VE125_randls_64.json,http://54.235.29.9/FacialAge/BNav_EC2/DepthDuration/v2_depth_duration_MTurk/v2_DepthDuration_HTML.html#38,38,1366,657,1366,768,8-21-2022,7-43-24,26,depth_duration_stimuli/000642_2014-06-08_16-59-25_260595134347_rgbf000098-resize_2/000642_2014-06-08_16-59-25_260595134347_rgbf000098-resize_2-target.png,125,2.8815,80,25189,125,meters,jsons/VE125_randls_64.json,2359658,2700288,39,Man
26,105636,DepthScenes,duration_manipulation_targetAtFixation,jsons/VE125_randls_64.json,http://54.235.29.9/FacialAge/BNav_EC2/DepthDuration/v2_depth_duration_MTurk/v2_DepthDuration_HTML.html#38,38,1366,657,1366,768,8-21-2022,7-43-24,27,depth_duration_stimuli/002425_2014-06-28_20-27-29_260595134347_rgbf000031-resize_8/002425_2014-06-28_20-27-29_260595134347_rgbf000031-resize_8-target.png,125,3.8960000000000004,80,7377,124,meters,jsons/VE125_randls_64.json,2359658,2700288,39,Man
27,105636,DepthScenes,duration_manipulation_targetAtFixation,jsons/VE125_randls_64.json,http://54.235.29.9/FacialAge/BNav_EC2/DepthDuration/v2_depth_duration_MTurk/v2_DepthDuration_HTML.html#38,38,1366,657,1366,768,8-21-2022,7-43-24,28,depth_duration_stimuli/003070_2014-06-15_14-58-27_094959634447_rgbf000150-resize_3/003070_2014-06-15_14-58-27_094959634447_rgbf000150-resize_3-target.png,125,2.9415,80,7619,124,meters,jsons/VE125_randls_64.json,2359658,2700288,39,Man
28,105636,DepthScenes,duration_manipulation_targetAtFixation,jsons/VE125_randls_64.json,http://54.235.29.9/FacialAge/BNav_EC2/DepthDuration/v2_depth_duration_MTurk/v2_DepthDuration_HTML.html#38,38,1366,657,1366,768,8-21-2022,7-43-24,29,depth_duration_stimuli/000943_2014-06-09_19-31-07_260595134347_rgbf000128-resize_1/000943_2014-06-09_19-31-07_260595134347_rgbf000128-resize_1-target.png,125,1.9765,80,8918,128,meters,jsons/VE125_randls_64.json,2359658,2700288,39,Man
29,105636,DepthScenes,duration_manipulation_targetAtFixation,jsons/VE125_randls_64.json,http://54.235.29.9/FacialAge/BNav_EC2/DepthDuration/v2_depth_duration_MTurk/v2_DepthDuration_HTML.html#38,38,1366,657,1366,768,8-21-2022,7-43-24,30,depth_duration_stimuli/000375_2014-06-08_11-17-29_260595134347_rgbf000133-resize_2/000375_2014-06-08_11-17-29_260595134347_rgbf000133-resize-original.jpg,125,4.718,80,11038,123,meters,jsons/VE125_randls_64.json,2359658,2700288,39,Man
30,105636,DepthScenes,duration_manipulation_targetAtFixation,jsons/VE125_randls_64.json,http://54.235.29.9/FacialAge/BNav_EC2/DepthDuration/v2_depth_duration_MTurk/v2_DepthDuration_HTML.html#38,38,1366,657,1366,768,8-21-2022,7-43-24,31,depth_duration_stimuli/000929_2014-06-09_16-33-19_260595134347_rgbf000139-resize_0/000929_2014-06-09_16-33-19_260595134347_rgbf000139-resize_0-target.png,125,2.8680000000000003,80,12898,124,meters,jsons/VE125_randls_64.json,2359658,2700288,39,Man
31,105636,DepthScenes,duration_manipulation_targetAtFixation,jsons/VE125_randls_64.json,http://54.235.29.9/FacialAge/BNav_EC2/DepthDuration/v2_depth_duration_MTurk/v2_DepthDuration_HTML.html#38,38,1366,657,1366,768,8-21-2022,7-43-24,32,depth_duration_stimuli/000457_2014-06-08_16-52-43_260595134347_rgbf000199-resize_1/000457_2014-06-08_16-52-43_260595134347_rgbf000199-resize_1-target.png,125,3.6489999999999996,80,27457,125,meters,jsons/VE125_randls_64.json,2359658,2700288,39,Man
32,105636,DepthScenes,duration_manipulation_targetAtFixation,jsons/VE125_randls_64.json,http://54.235.29.9/FacialAge/BNav_EC2/DepthDuration/v2_depth_duration_MTurk/v2_DepthDuration_HTML.html#38,38,1366,657,1366,768,8-21-2022,7-43-24,33,depth_duration_stimuli/000878_2014-06-08_22-52-45_260595134347_rgbf000045-resize_2/000878_2014-06-08_22-52-45_260595134347_rgbf000045-resize_2-target.png,125,2.092,80,6286,123,meters,jsons/VE125_randls_64.json,2359658,2700288,39,Man
33,105636,DepthScenes,duration_manipulation_targetAtFixation,jsons/VE125_randls_64.json,http://54.235.29.9/FacialAge/BNav_EC2/DepthDuration/v2_depth_duration_MTurk/v2_DepthDuration_HTML.html#38,38,1366,657,1366,768,8-21-2022,7-43-24,34,depth_duration_stimuli/002953_2014-06-08_17-32-18_094959634447_rgbf000059-resize_5/002953_2014-06-08_17-32-18_094959634447_rgbf000059-resize_5-target.png,125,1.551,80,26931,124,meters,jsons/VE125_randls_64.json,2359658,2700288,39,Man
34,105636,DepthScenes,duration_manipulation_targetAtFixation,jsons/VE125_randls_64.json,http://54.235.29.9/FacialAge/BNav_EC2/DepthDuration/v2_depth_duration_MTurk/v2_DepthDuration_HTML.html#38,38,1366,657,1366,768,8-21-2022,7-43-24,35,depth_duration_stimuli/000493_2014-06-09_21-01-18_260595134347_rgbf000196-resize_3/000493_2014-06-09_21-01-18_260595134347_rgbf000196-resize_3-target.png,125,3.44,80,16199,95,meters,jsons/VE125_randls_64.json,2359658,2700288,39,Man
35,105636,DepthScenes,duration_manipulation_targetAtFixation,jsons/VE125_randls_64.json,http://54.235.29.9/FacialAge/BNav_EC2/DepthDuration/v2_depth_duration_MTurk/v2_DepthDuration_HTML.html#38,38,1366,657,1366,768,8-21-2022,7-43-24,36,depth_duration_stimuli/000191_2014-05-12_17-07-38_260595134347_rgbf000199-resize_0/000191_2014-05-12_17-07-38_260595134347_rgbf000199-resize_0-target.png,125,3.7995,70,7168,123,meters,jsons/VE125_randls_64.json,2359658,2700288,39,Man
36,105636,DepthScenes,duration_manipulation_targetAtFixation,jsons/VE125_randls_64.json,http://54.235.29.9/FacialAge/BNav_EC2/DepthDuration/v2_depth_duration_MTurk/v2_DepthDuration_HTML.html#38,38,1366,657,1366,768,8-21-2022,7-43-24,37,depth_duration_stimuli/001808_2014-06-26_20-50-58_260595134347_rgbf000029-resize_1/001808_2014-06-26_20-50-58_260595134347_rgbf000029-resize_1-target.png,125,4.249,70,28596,125,meters,jsons/VE125_randls_64.json,2359658,2700288,39,Man
37,105636,DepthScenes,duration_manipulation_targetAtFixation,jsons/VE125_randls_64.json,http://54.235.29.9/FacialAge/BNav_EC2/DepthDuration/v2_depth_duration_MTurk/v2_DepthDuration_HTML.html#38,38,1366,657,1366,768,8-21-2022,7-43-24,38,depth_duration_stimuli/001815_2014-06-26_20-52-55_260595134347_rgbf000020-resize_0/001815_2014-06-26_20-52-55_260595134347_rgbf000020-resize_0-target.png,125,3.3865,80,5963,125,meters,jsons/VE125_randls_64.json,2359658,2700288,39,Man
38,105636,DepthScenes,duration_manipulation_targetAtFixation,jsons/VE125_randls_64.json,http://54.235.29.9/FacialAge/BNav_EC2/DepthDuration/v2_depth_duration_MTurk/v2_DepthDuration_HTML.html#38,38,1366,657,1366,768,8-21-2022,7-43-24,39,depth_duration_stimuli/003492_2014-05-21_15-50-55_094959634447_rgbf000828-resize_1/003492_2014-05-21_15-50-55_094959634447_rgbf000828-resize_1-target.png,125,4.06875,90,26362,125,meters,jsons/VE125_randls_64.json,2359658,2700288,39,Man
39,105636,DepthScenes,duration_manipulation_targetAtFixation,jsons/VE125_randls_64.json,http://54.235.29.9/FacialAge/BNav_EC2/DepthDuration/v2_depth_duration_MTurk/v2_DepthDuration_HTML.html#38,38,1366,657,1366,768,8-21-2022,7-43-24,40,depth_duration_stimuli/002568_2014-06-24_13-59-21_094959634447_rgbf000062-resize_4/002568_2014-06-24_13-59-21_094959634447_rgbf000062-resize_4-target.png,125,3.015,80,17911,125,meters,jsons/VE125_randls_64.json,2359658,2700288,39,Man
40,105636,DepthScenes,duration_manipulation_targetAtFixation,jsons/VE125_randls_64.json,http://54.235.29.9/FacialAge/BNav_EC2/DepthDuration/v2_depth_duration_MTurk/v2_DepthDuration_HTML.html#38,38,1366,657,1366,768,8-21-2022,7-43-24,41,depth_duration_stimuli/001029_2014-06-08_13-17-57_260595134347_rgbf000065-resize_1/001029_2014-06-08_13-17-57_260595134347_rgbf000065-resize_1-target.png,125,3.0835,80,6316,121,meters,jsons/VE125_randls_64.json,2359658,2700288,39,Man
41,105636,DepthScenes,duration_manipulation_targetAtFixation,jsons/VE125_randls_64.json,http://54.235.29.9/FacialAge/BNav_EC2/DepthDuration/v2_depth_duration_MTurk/v2_DepthDuration_HTML.html#38,38,1366,657,1366,768,8-21-2022,7-43-24,42,depth_duration_stimuli/000677_2014-06-08_23-10-32_260595134347_rgbf000158-resize_6/000677_2014-06-08_23-10-32_260595134347_rgbf000158-resize_6-target.png,125,3.556,60,29288,125,meters,jsons/VE125_randls_64.json,2359658,2700288,39,Man
42,105636,DepthScenes,duration_manipulation_targetAtFixation,jsons/VE125_randls_64.json,http://54.235.29.9/FacialAge/BNav_EC2/DepthDuration/v2_depth_duration_MTurk/v2_DepthDuration_HTML.html#38,38,1366,657,1366,768,8-21-2022,7-43-24,43,depth_duration_stimuli/002748_2014-06-22_19-07-22_094959634447_rgbf000078-resize_1/002748_2014-06-22_19-07-22_094959634447_rgbf000078-resize_1-target.png,125,4.6705,80,5942,124,meters,jsons/VE125_randls_64.json,2359658,2700288,39,Man
43,105636,DepthScenes,duration_manipulation_targetAtFixation,jsons/VE125_randls_64.json,http://54.235.29.9/FacialAge/BNav_EC2/DepthDuration/v2_depth_duration_MTurk/v2_DepthDuration_HTML.html#38,38,1366,657,1366,768,8-21-2022,7-43-24,44,depth_duration_stimuli/002995_2014-06-15_12-31-26_094959634447_rgbf000150-resize_1/002995_2014-06-15_12-31-26_094959634447_rgbf000150-resize_1-target.png,125,3.8360000000000003,70,5604,125,meters,jsons/VE125_randls_64.json,2359658,2700288,39,Man
44,105636,DepthScenes,duration_manipulation_targetAtFixation,jsons/VE125_randls_64.json,http://54.235.29.9/FacialAge/BNav_EC2/DepthDuration/v2_depth_duration_MTurk/v2_DepthDuration_HTML.html#38,38,1366,657,1366,768,8-21-2022,7-43-24,45,depth_duration_stimuli/000787_2014-06-08_22-33-53_260595134347_rgbf000175-resize_1/000787_2014-06-08_22-33-53_260595134347_rgbf000175-resize-original.jpg,125,4.784,80,5318,126,meters,jsons/VE125_randls_64.json,2359658,2700288,39,Man
45,105636,DepthScenes,duration_manipulation_targetAtFixation,jsons/VE125_randls_64.json,http://54.235.29.9/FacialAge/BNav_EC2/DepthDuration/v2_depth_duration_MTurk/v2_DepthDuration_HTML.html#38,38,1366,657,1366,768,8-21-2022,7-43-24,46,depth_duration_stimuli/001417_2014-06-19_16-25-36_260595134347_rgbf000115-resize_5/001417_2014-06-19_16-25-36_260595134347_rgbf000115-resize_5-target.png,125,4.6255,70,31180,124,meters,jsons/VE125_randls_64.json,2359658,2700288,39,Man
46,105636,DepthScenes,duration_manipulation_targetAtFixation,jsons/VE125_randls_64.json,http://54.235.29.9/FacialAge/BNav_EC2/DepthDuration/v2_depth_duration_MTurk/v2_DepthDuration_HTML.html#38,38,1366,657,1366,768,8-21-2022,7-43-24,47,depth_duration_stimuli/003081_2014-06-15_15-19-16_094959634447_rgbf000150-resize_1/003081_2014-06-15_15-19-16_094959634447_rgbf000150-resize_1-target.png,125,3.9125,80,8610,124,meters,jsons/VE125_randls_64.json,2359658,2700288,39,Man
47,105636,DepthScenes,duration_manipulation_targetAtFixation,jsons/VE125_randls_64.json,http://54.235.29.9/FacialAge/BNav_EC2/DepthDuration/v2_depth_duration_MTurk/v2_DepthDuration_HTML.html#38,38,1366,657,1366,768,8-21-2022,7-43-24,48,depth_duration_stimuli/002272_2014-06-28_18-53-56_260595134347_rgbf000067-resize_2/002272_2014-06-28_18-53-56_260595134347_rgbf000067-resize_2-target.png,125,1.138,80,6914,123,meters,jsons/VE125_randls_64.json,2359658,2700288,39,Man
48,105636,DepthScenes,duration_manipulation_targetAtFixation,jsons/VE125_randls_64.json,http://54.235.29.9/FacialAge/BNav_EC2/DepthDuration/v2_depth_duration_MTurk/v2_DepthDuration_HTML.html#38,38,1366,657,1366,768,8-21-2022,7-43-24,49,depth_duration_stimuli/001571_2014-06-20_17-21-32_260595134347_rgbf000089-resize_1/001571_2014-06-20_17-21-32_260595134347_rgbf000089-resize_1-target.png,125,1.86,70,7117,124,meters,jsons/VE125_randls_64.json,2359658,2700288,39,Man
49,105636,DepthScenes,duration_manipulation_targetAtFixation,jsons/VE125_randls_64.json,http://54.235.29.9/FacialAge/BNav_EC2/DepthDuration/v2_depth_duration_MTurk/v2_DepthDuration_HTML.html#38,38,1366,657,1366,768,8-21-2022,7-43-24,50,depth_duration_stimuli/001016_2014-06-09_16-16-10_260595134347_rgbf000112-resize_5/001016_2014-06-09_16-16-10_260595134347_rgbf000112-resize_5-target.png,125,1.6565,80,26317,124,meters,jsons/VE125_randls_64.json,2359658,2700288,39,Man
50,105636,DepthScenes,duration_manipulation_targetAtFixation,jsons/VE125_randls_64.json,http://54.235.29.9/FacialAge/BNav_EC2/DepthDuration/v2_depth_duration_MTurk/v2_DepthDuration_HTML.html#38,38,1366,657,1366,768,8-21-2022,7-43-24,51,depth_duration_stimuli/002340_2014-06-28_20-05-46_260595134347_rgbf000113-resize_0/002340_2014-06-28_20-05-46_260595134347_rgbf000113-resize_0-target.png,125,2.4735,80,7539,124,meters,jsons/VE125_randls_64.json,2359658,2700288,39,Man
51,105636,DepthScenes,duration_manipulation_targetAtFixation,jsons/VE125_randls_64.json,http://54.235.29.9/FacialAge/BNav_EC2/DepthDuration/v2_depth_duration_MTurk/v2_DepthDuration_HTML.html#38,38,1366,657,1366,768,8-21-2022,7-43-24,52,depth_duration_stimuli/001555_2014-06-20_17-12-10_260595134347_rgbf000065-resize_4/001555_2014-06-20_17-12-10_260595134347_rgbf000065-resize_4-target.png,125,1.633,80,31161,124,meters,jsons/VE125_randls_64.json,2359658,2700288,39,Man
52,105636,DepthScenes,duration_manipulation_targetAtFixation,jsons/VE125_randls_64.json,http://54.235.29.9/FacialAge/BNav_EC2/DepthDuration/v2_depth_duration_MTurk/v2_DepthDuration_HTML.html#38,38,1366,657,1366,768,8-21-2022,7-43-24,53,depth_duration_stimuli/000103_2014-05-14_22-01-17_260595134347_rgbf000152-resize_5/000103_2014-05-14_22-01-17_260595134347_rgbf000152-resize_5-target.png,125,1.993,60,6594,125,meters,jsons/VE125_randls_64.json,2359658,2700288,39,Man
53,105636,DepthScenes,duration_manipulation_targetAtFixation,jsons/VE125_randls_64.json,http://54.235.29.9/FacialAge/BNav_EC2/DepthDuration/v2_depth_duration_MTurk/v2_DepthDuration_HTML.html#38,38,1366,657,1366,768,8-21-2022,7-43-24,54,depth_duration_stimuli/001199_2014-06-17_16-03-48_260595134347_rgbf000077-resize_0/001199_2014-06-17_16-03-48_260595134347_rgbf000077-resize_0-target.png,125,3.4375,80,28600,124,meters,jsons/VE125_randls_64.json,2359658,2700288,39,Man
54,105636,DepthScenes,duration_manipulation_targetAtFixation,jsons/VE125_randls_64.json,http://54.235.29.9/FacialAge/BNav_EC2/DepthDuration/v2_depth_duration_MTurk/v2_DepthDuration_HTML.html#38,38,1366,657,1366,768,8-21-2022,7-43-24,55,depth_duration_stimuli/000502_2014-06-08_23-02-32_260595134347_rgbf000063-resize_4/000502_2014-06-08_23-02-32_260595134347_rgbf000063-resize_4-target.png,125,2.431,60,5187,126,meters,jsons/VE125_randls_64.json,2359658,2700288,39,Man
55,105636,DepthScenes,duration_manipulation_targetAtFixation,jsons/VE125_randls_64.json,http://54.235.29.9/FacialAge/BNav_EC2/DepthDuration/v2_depth_duration_MTurk/v2_DepthDuration_HTML.html#38,38,1366,657,1366,768,8-21-2022,7-43-24,56,depth_duration_stimuli/001167_2014-06-17_15-38-07_260595134347_rgbf000108-resize_0/001167_2014-06-17_15-38-07_260595134347_rgbf000108-resize_0-target.png,125,1.8505,80,5447,124,meters,jsons/VE125_randls_64.json,2359658,2700288,39,Man
56,105636,DepthScenes,duration_manipulation_targetAtFixation,jsons/VE125_randls_64.json,http://54.235.29.9/FacialAge/BNav_EC2/DepthDuration/v2_depth_duration_MTurk/v2_DepthDuration_HTML.html#38,38,1366,657,1366,768,8-21-2022,7-43-24,57,depth_duration_stimuli/003587_2014-05-23_16-48-02_094959634447_rgbf002384-resize_2/003587_2014-05-23_16-48-02_094959634447_rgbf002384-resize_2-target.png,125,1.357,80,6899,124,meters,jsons/VE125_randls_64.json,2359658,2700288,39,Man
57,105636,DepthScenes,duration_manipulation_targetAtFixation,jsons/VE125_randls_64.json,http://54.235.29.9/FacialAge/BNav_EC2/DepthDuration/v2_depth_duration_MTurk/v2_DepthDuration_HTML.html#38,38,1366,657,1366,768,8-21-2022,7-43-24,58,depth_duration_stimuli/002763_2014-06-22_19-13-10_094959634447_rgbf000075-resize_4/002763_2014-06-22_19-13-10_094959634447_rgbf000075-resize_4-target.png,125,1.68375,75,27497,124,meters,jsons/VE125_randls_64.json,2359658,2700288,39,Man
58,105636,DepthScenes,duration_manipulation_targetAtFixation,jsons/VE125_randls_64.json,http://54.235.29.9/FacialAge/BNav_EC2/DepthDuration/v2_depth_duration_MTurk/v2_DepthDuration_HTML.html#38,38,1366,657,1366,768,8-21-2022,7-43-24,59,depth_duration_stimuli/002209_2014-06-28_18-36-10_260595134347_rgbf000051-resize_1/002209_2014-06-28_18-36-10_260595134347_rgbf000051-resize_1-target.png,125,2.057,80,6416,124,meters,jsons/VE125_randls_64.json,2359658,2700288,39,Man
59,105636,DepthScenes,duration_manipulation_targetAtFixation,jsons/VE125_randls_64.json,http://54.235.29.9/FacialAge/BNav_EC2/DepthDuration/v2_depth_duration_MTurk/v2_DepthDuration_HTML.html#38,38,1366,657,1366,768,8-21-2022,7-43-24,60,depth_duration_stimuli/002043_2014-06-24_20-29-38_260595134347_rgbf000039-resize_4/002043_2014-06-24_20-29-38_260595134347_rgbf000039-resize_4-target.png,125,2.8435,70,7278,124,meters,jsons/VE125_randls_64.json,2359658,2700288,39,Man
60,105636,DepthScenes,duration_manipulation_targetAtFixation,jsons/VE125_randls_64.json,http://54.235.29.9/FacialAge/BNav_EC2/DepthDuration/v2_depth_duration_MTurk/v2_DepthDuration_HTML.html#38,38,1366,657,1366,768,8-21-2022,7-43-24,61,depth_duration_stimuli/003048_2014-06-15_13-49-43_094959634447_rgbf000150-resize_1/003048_2014-06-15_13-49-43_094959634447_rgbf000150-resize_1-target.png,125,4.0035,90,32738,124,meters,jsons/VE125_randls_64.json,2359658,2700288,39,Man
61,105636,DepthScenes,duration_manipulation_targetAtFixation,jsons/VE125_randls_64.json,http://54.235.29.9/FacialAge/BNav_EC2/DepthDuration/v2_depth_duration_MTurk/v2_DepthDuration_HTML.html#38,38,1366,657,1366,768,8-21-2022,7-43-24,62,depth_duration_stimuli/000470_2014-06-09_19-42-40_260595134347_rgbf000094-resize_1/000470_2014-06-09_19-42-40_260595134347_rgbf000094-resize_1-target.png,125,1.831,60,6219,124,meters,jsons/VE125_randls_64.json,2359658,2700288,39,Man
62,105636,DepthScenes,duration_manipulation_targetAtFixation,jsons/VE125_randls_64.json,http://54.235.29.9/FacialAge/BNav_EC2/DepthDuration/v2_depth_duration_MTurk/v2_DepthDuration_HTML.html#38,38,1366,657,1366,768,8-21-2022,7-43-24,63,depth_duration_stimuli/000109_2014-05-14_23-41-52_260595134347_rgbf000035-resize_9/000109_2014-05-14_23-41-52_260595134347_rgbf000035-resize_9-target.png,125,1.3545,80,6132,127,meters,jsons/VE125_randls_64.json,2359658,2700288,39,Man
63,105636,DepthScenes,duration_manipulation_targetAtFixation,jsons/VE125_randls_64.json,http://54.235.29.9/FacialAge/BNav_EC2/DepthDuration/v2_depth_duration_MTurk/v2_DepthDuration_HTML.html#38,38,1366,657,1366,768,8-21-2022,7-43-24,64,depth_duration_stimuli/003621_2014-05-23_18-06-08_094959634447_rgbf000101-resize_1/003621_2014-05-23_18-06-08_094959634447_rgbf000101-resize_1-target.png,125,3.9835,70,5997,124,meters,jsons/VE125_randls_64.json,2359658,2700288,39,Man
64,105636,DepthScenes,duration_manipulation_targetAtFixation,jsons/VE125_randls_64.json,http://54.235.29.9/FacialAge/BNav_EC2/DepthDuration/v2_depth_duration_MTurk/v2_DepthDuration_HTML.html#38,38,1366,657,1366,768,8-21-2022,7-43-24,65,depth_duration_stimuli/001584_2014-06-20_11-07-43_260595134347_rgbf000002-resize_1/001584_2014-06-20_11-07-43_260595134347_rgbf000002-resize_1-target.png,125,3.53,80,26563,125,meters,jsons/VE125_randls_64.json,2359658,2700288,39,Man
65,105636,DepthScenes,duration_manipulation_targetAtFixation,jsons/VE125_randls_64.json,http://54.235.29.9/FacialAge/BNav_EC2/DepthDuration/v2_depth_duration_MTurk/v2_DepthDuration_HTML.html#38,38,1366,657,1366,768,8-21-2022,7-43-24,66,depth_duration_stimuli/001222_2014-06-17_16-24-06_260595134347_rgbf000073-resize_0/001222_2014-06-17_16-24-06_260595134347_rgbf000073-resize-original.jpg,125,1.4385,80,6818,125,meters,jsons/VE125_randls_64.json,2359658,2700288,39,Man
66,105636,DepthScenes,duration_manipulation_targetAtFixation,jsons/VE125_randls_64.json,http://54.235.29.9/FacialAge/BNav_EC2/DepthDuration/v2_depth_duration_MTurk/v2_DepthDuration_HTML.html#38,38,1366,657,1366,768,8-21-2022,7-43-24,67,depth_duration_stimuli/001810_2014-06-26_20-51-35_260595134347_rgbf000040-resize_3/001810_2014-06-26_20-51-35_260595134347_rgbf000040-resize_3-target.png,125,2.2525,60,5997,124,meters,jsons/VE125_randls_64.json,2359658,2700288,39,Man
67,105636,DepthScenes,duration_manipulation_targetAtFixation,jsons/VE125_randls_64.json,http://54.235.29.9/FacialAge/BNav_EC2/DepthDuration/v2_depth_duration_MTurk/v2_DepthDuration_HTML.html#38,38,1366,657,1366,768,8-21-2022,7-43-24,68,depth_duration_stimuli/003010_2014-06-15_12-54-35_094959634447_rgbf000112-resize_0/003010_2014-06-15_12-54-35_094959634447_rgbf000112-resize_0-target.png,125,3.1185,60,10792,125,meters,jsons/VE125_randls_64.json,2359658,2700288,39,Man
68,105636,DepthScenes,duration_manipulation_targetAtFixation,jsons/VE125_randls_64.json,http://54.235.29.9/FacialAge/BNav_EC2/DepthDuration/v2_depth_duration_MTurk/v2_DepthDuration_HTML.html#38,38,1366,657,1366,768,8-21-2022,7-43-24,69,depth_duration_stimuli/000739_2014-06-08_18-45-58_260595134347_rgbf000068-resize_1/000739_2014-06-08_18-45-58_260595134347_rgbf000068-resize_1-target.png,125,3.534,60,26166,123,meters,jsons/VE125_randls_64.json,2359658,2700288,39,Man
69,105636,DepthScenes,duration_manipulation_targetAtFixation,jsons/VE125_randls_64.json,http://54.235.29.9/FacialAge/BNav_EC2/DepthDuration/v2_depth_duration_MTurk/v2_DepthDuration_HTML.html#38,38,1366,657,1366,768,8-21-2022,7-43-24,70,depth_duration_stimuli/000734_2014-06-08_17-39-11_260595134347_rgbf000128-resize_2/000734_2014-06-08_17-39-11_260595134347_rgbf000128-resize_2-target.png,125,4.098,80,5400,147,meters,jsons/VE125_randls_64.json,2359658,2700288,39,Man
70,105636,DepthScenes,duration_manipulation_targetAtFixation,jsons/VE125_randls_64.json,http://54.235.29.9/FacialAge/BNav_EC2/DepthDuration/v2_depth_duration_MTurk/v2_DepthDuration_HTML.html#38,38,1366,657,1366,768,8-21-2022,7-43-24,71,depth_duration_stimuli/000736_2014-06-08_18-24-15_260595134347_rgbf000206-resize_3/000736_2014-06-08_18-24-15_260595134347_rgbf000206-resize_3-target.png,125,3.515,50,26761,125,meters,jsons/VE125_randls_64.json,2359658,2700288,39,Man
71,105636,DepthScenes,duration_manipulation_targetAtFixation,jsons/VE125_randls_64.json,http://54.235.29.9/FacialAge/BNav_EC2/DepthDuration/v2_depth_duration_MTurk/v2_DepthDuration_HTML.html#38,38,1366,657,1366,768,8-21-2022,7-43-24,72,depth_duration_stimuli/000137_2014-05-20_17-04-49_260595134347_rgbf000120-resize_1/000137_2014-05-20_17-04-49_260595134347_rgbf000120-resize_1-target.png,125,3.786,80,7252,131,meters,jsons/VE125_randls_64.json,2359658,2700288,39,Man
72,105636,DepthScenes,duration_manipulation_targetAtFixation,jsons/VE125_randls_64.json,http://54.235.29.9/FacialAge/BNav_EC2/DepthDuration/v2_depth_duration_MTurk/v2_DepthDuration_HTML.html#38,38,1366,657,1366,768,8-21-2022,7-43-24,73,depth_duration_stimuli/001066_2014-06-08_22-03-20_260595134347_rgbf000066-resize_4/001066_2014-06-08_22-03-20_260595134347_rgbf000066-resize_4-target.png,125,4.2330000000000005,70,8640,124,meters,jsons/VE125_randls_64.json,2359658,2700288,39,Man
73,105636,DepthScenes,duration_manipulation_targetAtFixation,jsons/VE125_randls_64.json,http://54.235.29.9/FacialAge/BNav_EC2/DepthDuration/v2_depth_duration_MTurk/v2_DepthDuration_HTML.html#38,38,1366,657,1366,768,8-21-2022,7-43-24,74,depth_duration_stimuli/000742_2014-06-08_18-48-09_260595134347_rgbf000164-resize_4/000742_2014-06-08_18-48-09_260595134347_rgbf000164-resize_4-target.png,125,4.632,80,7017,123,meters,jsons/VE125_randls_64.json,2359658,2700288,39,Man
74,105636,DepthScenes,duration_manipulation_targetAtFixation,jsons/VE125_randls_64.json,http://54.235.29.9/FacialAge/BNav_EC2/DepthDuration/v2_depth_duration_MTurk/v2_DepthDuration_HTML.html#38,38,1366,657,1366,768,8-21-2022,7-43-24,75,depth_duration_stimuli/001055_2014-06-08_18-45-35_260595134347_rgbf000111-resize_4/001055_2014-06-08_18-45-35_260595134347_rgbf000111-resize_4-target.png,125,2.4290000000000003,80,6956,125,meters,jsons/VE125_randls_64.json,2359658,2700288,39,Man
75,105636,DepthScenes,duration_manipulation_targetAtFixation,jsons/VE125_randls_64.json,http://54.235.29.9/FacialAge/BNav_EC2/DepthDuration/v2_depth_duration_MTurk/v2_DepthDuration_HTML.html#38,38,1366,657,1366,768,8-21-2022,7-43-24,76,depth_duration_stimuli/000549_2014-06-08_22-10-24_260595134347_rgbf000247-resize_3/000549_2014-06-08_22-10-24_260595134347_rgbf000247-resize_3-target.png,125,1.841,50,7883,125,meters,jsons/VE125_randls_64.json,2359658,2700288,39,Man
76,105636,DepthScenes,duration_manipulation_targetAtFixation,jsons/VE125_randls_64.json,http://54.235.29.9/FacialAge/BNav_EC2/DepthDuration/v2_depth_duration_MTurk/v2_DepthDuration_HTML.html#38,38,1366,657,1366,768,8-21-2022,7-43-24,77,depth_duration_stimuli/001164_2014-06-17_15-35-46_260595134347_rgbf000085-resize_3/001164_2014-06-17_15-35-46_260595134347_rgbf000085-resize_3-target.png,125,2.354,80,28205,122,meters,jsons/VE125_randls_64.json,2359658,2700288,39,Man
77,105636,DepthScenes,duration_manipulation_targetAtFixation,jsons/VE125_randls_64.json,http://54.235.29.9/FacialAge/BNav_EC2/DepthDuration/v2_depth_duration_MTurk/v2_DepthDuration_HTML.html#38,38,1366,657,1366,768,8-21-2022,7-43-24,78,depth_duration_stimuli/001136_2014-06-17_15-19-41_260595134347_rgbf000076-resize_3/001136_2014-06-17_15-19-41_260595134347_rgbf000076-resize_3-target.png,125,1.8655,70,9925,140,meters,jsons/VE125_randls_64.json,2359658,2700288,39,Man
78,105636,DepthScenes,duration_manipulation_targetAtFixation,jsons/VE125_randls_64.json,http://54.235.29.9/FacialAge/BNav_EC2/DepthDuration/v2_depth_duration_MTurk/v2_DepthDuration_HTML.html#38,38,1366,657,1366,768,8-21-2022,7-43-24,79,depth_duration_stimuli/000810_2014-06-08_17-20-01_260595134347_rgbf000105-resize_0/000810_2014-06-08_17-20-01_260595134347_rgbf000105-resize_0-target.png,125,1.4865,80,8070,122,meters,jsons/VE125_randls_64.json,2359658,2700288,39,Man
79,105636,DepthScenes,duration_manipulation_targetAtFixation,jsons/VE125_randls_64.json,http://54.235.29.9/FacialAge/BNav_EC2/DepthDuration/v2_depth_duration_MTurk/v2_DepthDuration_HTML.html#38,38,1366,657,1366,768,8-21-2022,7-43-24,80,depth_duration_stimuli/001214_2014-06-17_16-13-55_260595134347_rgbf000111-resize_0/001214_2014-06-17_16-13-55_260595134347_rgbf000111-resize_0-target.png,125,2.6505,60,6797,124,meters,jsons/VE125_randls_64.json,2359658,2700288,39,Man
80,105636,DepthScenes,duration_manipulation_targetAtFixation,jsons/VE125_randls_64.json,http://54.235.29.9/FacialAge/BNav_EC2/DepthDuration/v2_depth_duration_MTurk/v2_DepthDuration_HTML.html#38,38,1366,657,1366,768,8-21-2022,7-43-24,81,depth_duration_stimuli/001092_2014-06-15_17-34-58_260595134347_rgbf000171-resize_3/001092_2014-06-15_17-34-58_260595134347_rgbf000171-resize_3-target.png,125,2.6935,80,6889,123,meters,jsons/VE125_randls_64.json,2359658,2700288,39,Man
81,105636,DepthScenes,duration_manipulation_targetAtFixation,jsons/VE125_randls_64.json,http://54.235.29.9/FacialAge/BNav_EC2/DepthDuration/v2_depth_duration_MTurk/v2_DepthDuration_HTML.html#38,38,1366,657,1366,768,8-21-2022,7-43-24,82,depth_duration_stimuli/002545_2014-06-24_13-38-53_094959634447_rgbf000080-resize_4/002545_2014-06-24_13-38-53_094959634447_rgbf000080-resize_4-target.png,125,1.9205,40,6218,135,meters,jsons/VE125_randls_64.json,2359658,2700288,39,Man
82,105636,DepthScenes,duration_manipulation_targetAtFixation,jsons/VE125_randls_64.json,http://54.235.29.9/FacialAge/BNav_EC2/DepthDuration/v2_depth_duration_MTurk/v2_DepthDuration_HTML.html#38,38,1366,657,1366,768,8-21-2022,7-43-24,83,depth_duration_stimuli/000692_2014-06-08_13-09-42_260595134347_rgbf000199-resize_2/000692_2014-06-08_13-09-42_260595134347_rgbf000199-resize_2-target.png,125,3.661,80,5295,137,meters,jsons/VE125_randls_64.json,2359658,2700288,39,Man
83,105636,DepthScenes,duration_manipulation_targetAtFixation,jsons/VE125_randls_64.json,http://54.235.29.9/FacialAge/BNav_EC2/DepthDuration/v2_depth_duration_MTurk/v2_DepthDuration_HTML.html#38,38,1366,657,1366,768,8-21-2022,7-43-24,84,depth_duration_stimuli/001094_2014-06-15_17-36-00_260595134347_rgbf000205-resize_0/001094_2014-06-15_17-36-00_260595134347_rgbf000205-resize_0-target.png,125,4.2175,80,6636,119,meters,jsons/VE125_randls_64.json,2359658,2700288,39,Man
84,105636,DepthScenes,duration_manipulation_targetAtFixation,jsons/VE125_randls_64.json,http://54.235.29.9/FacialAge/BNav_EC2/DepthDuration/v2_depth_duration_MTurk/v2_DepthDuration_HTML.html#38,38,1366,657,1366,768,8-21-2022,7-43-24,85,depth_duration_stimuli/002570_2014-06-24_13-59-54_094959634447_rgbf000059-resize_0/002570_2014-06-24_13-59-54_094959634447_rgbf000059-resize_0-target.png,125,4.037,80,32037,126,meters,jsons/VE125_randls_64.json,2359658,2700288,39,Man
85,105636,DepthScenes,duration_manipulation_targetAtFixation,jsons/VE125_randls_64.json,http://54.235.29.9/FacialAge/BNav_EC2/DepthDuration/v2_depth_duration_MTurk/v2_DepthDuration_HTML.html#38,38,1366,657,1366,768,8-21-2022,7-43-24,86,depth_duration_stimuli/002467_2014-06-28_20-38-07_260595134347_rgbf000026-resize_2/002467_2014-06-28_20-38-07_260595134347_rgbf000026-resize_2-target.png,125,4.742,80,11739,125,meters,jsons/VE125_randls_64.json,2359658,2700288,39,Man
86,105636,DepthScenes,duration_manipulation_targetAtFixation,jsons/VE125_randls_64.json,http://54.235.29.9/FacialAge/BNav_EC2/DepthDuration/v2_depth_duration_MTurk/v2_DepthDuration_HTML.html#38,38,1366,657,1366,768,8-21-2022,7-43-24,87,depth_duration_stimuli/000682_2014-06-08_23-14-58_260595134347_rgbf000041-resize_5/000682_2014-06-08_23-14-58_260595134347_rgbf000041-resize_5-target.png,125,2.7239999999999998,60,6938,123,meters,jsons/VE125_randls_64.json,2359658,2700288,39,Man
87,105636,DepthScenes,duration_manipulation_targetAtFixation,jsons/VE125_randls_64.json,http://54.235.29.9/FacialAge/BNav_EC2/DepthDuration/v2_depth_duration_MTurk/v2_DepthDuration_HTML.html#38,38,1366,657,1366,768,8-21-2022,7-43-24,88,depth_duration_stimuli/001650_2014-06-20_12-09-00_260595134347_rgbf000087-resize_3/001650_2014-06-20_12-09-00_260595134347_rgbf000087-resize_3-target.png,125,1.9505,70,8175,125,meters,jsons/VE125_randls_64.json,2359658,2700288,39,Man
88,105636,DepthScenes,duration_manipulation_targetAtFixation,jsons/VE125_randls_64.json,http://54.235.29.9/FacialAge/BNav_EC2/DepthDuration/v2_depth_duration_MTurk/v2_DepthDuration_HTML.html#38,38,1366,657,1366,768,8-21-2022,7-43-24,89,depth_duration_stimuli/002153_2014-06-25_21-27-18_260595134347_rgbf000038-resize_5/002153_2014-06-25_21-27-18_260595134347_rgbf000038-resize_5-target.png,125,2.505,80,6599,124,meters,jsons/VE125_randls_64.json,2359658,2700288,39,Man
89,105636,DepthScenes,duration_manipulation_targetAtFixation,jsons/VE125_randls_64.json,http://54.235.29.9/FacialAge/BNav_EC2/DepthDuration/v2_depth_duration_MTurk/v2_DepthDuration_HTML.html#38,38,1366,657,1366,768,8-21-2022,7-43-24,90,depth_duration_stimuli/002660_2014-06-13_15-44-18_094959634447_rgbf001878-resize_2/002660_2014-06-13_15-44-18_094959634447_rgbf001878-resize_2-target.png,125,3.576,80,7489,124,meters,jsons/VE125_randls_64.json,2359658,2700288,39,Man
90,105636,DepthScenes,duration_manipulation_targetAtFixation,jsons/VE125_randls_64.json,http://54.235.29.9/FacialAge/BNav_EC2/DepthDuration/v2_depth_duration_MTurk/v2_DepthDuration_HTML.html#38,38,1366,657,1366,768,8-21-2022,7-43-24,91,depth_duration_stimuli/000788_2014-06-08_22-34-36_260595134347_rgbf000131-resize_1/000788_2014-06-08_22-34-36_260595134347_rgbf000131-resize_1-target.png,125,3.359,60,23528,124,meters,jsons/VE125_randls_64.json,2359658,2700288,39,Man
91,105636,DepthScenes,duration_manipulation_targetAtFixation,jsons/VE125_randls_64.json,http://54.235.29.9/FacialAge/BNav_EC2/DepthDuration/v2_depth_duration_MTurk/v2_DepthDuration_HTML.html#38,38,1366,657,1366,768,8-21-2022,7-43-24,92,depth_duration_stimuli/001235_2014-06-17_16-37-36_260595134347_rgbf000084-resize_4/001235_2014-06-17_16-37-36_260595134347_rgbf000084-resize_4-target.png,125,3.6605,80,7476,125,meters,jsons/VE125_randls_64.json,2359658,2700288,39,Man
92,105636,DepthScenes,duration_manipulation_targetAtFixation,jsons/VE125_randls_64.json,http://54.235.29.9/FacialAge/BNav_EC2/DepthDuration/v2_depth_duration_MTurk/v2_DepthDuration_HTML.html#38,38,1366,657,1366,768,8-21-2022,7-43-24,93,depth_duration_stimuli/002213_2014-06-28_18-37-58_260595134347_rgbf000055-resize_1/002213_2014-06-28_18-37-58_260595134347_rgbf000055-resize_1-target.png,125,3.62,60,8218,124,meters,jsons/VE125_randls_64.json,2359658,2700288,39,Man
93,105636,DepthScenes,duration_manipulation_targetAtFixation,jsons/VE125_randls_64.json,http://54.235.29.9/FacialAge/BNav_EC2/DepthDuration/v2_depth_duration_MTurk/v2_DepthDuration_HTML.html#38,38,1366,657,1366,768,8-21-2022,7-43-24,94,depth_duration_stimuli/000691_2014-06-08_13-08-50_260595134347_rgbf000132-resize_3/000691_2014-06-08_13-08-50_260595134347_rgbf000132-resize_3-target.png,125,4.1530000000000005,80,5676,125,meters,jsons/VE125_randls_64.json,2359658,2700288,39,Man
94,105636,DepthScenes,duration_manipulation_targetAtFixation,jsons/VE125_randls_64.json,http://54.235.29.9/FacialAge/BNav_EC2/DepthDuration/v2_depth_duration_MTurk/v2_DepthDuration_HTML.html#38,38,1366,657,1366,768,8-21-2022,7-43-24,95,depth_duration_stimuli/002663_2014-06-13_15-50-26_094959634447_rgbf000075-resize_1/002663_2014-06-13_15-50-26_094959634447_rgbf000075-resize_1-target.png,125,4.7495,60,9140,124,meters,jsons/VE125_randls_64.json,2359658,2700288,39,Man
95,105636,DepthScenes,duration_manipulation_targetAtFixation,jsons/VE125_randls_64.json,http://54.235.29.9/FacialAge/BNav_EC2/DepthDuration/v2_depth_duration_MTurk/v2_DepthDuration_HTML.html#38,38,1366,657,1366,768,8-21-2022,7-43-24,96,depth_duration_stimuli/000409_2014-06-04_19-23-33_260595134347_rgbf000067-resize_0/000409_2014-06-04_19-23-33_260595134347_rgbf000067-resize_0-target.png,125,3.7335,80,10497,264,meters,jsons/VE125_randls_64.json,2359658,2700288,39,Man
96,105636,DepthScenes,duration_manipulation_targetAtFixation,jsons/VE125_randls_64.json,http://54.235.29.9/FacialAge/BNav_EC2/DepthDuration/v2_depth_duration_MTurk/v2_DepthDuration_HTML.html#38,38,1366,657,1366,768,8-21-2022,7-43-24,97,depth_duration_stimuli/000486_2014-06-09_20-47-20_260595134347_rgbf000143-resize_2/000486_2014-06-09_20-47-20_260595134347_rgbf000143-resize_2-target.png,125,4.8325,80,9800,124,meters,jsons/VE125_randls_64.json,2359658,2700288,39,Man
97,105636,DepthScenes,duration_manipulation_targetAtFixation,jsons/VE125_randls_64.json,http://54.235.29.9/FacialAge/BNav_EC2/DepthDuration/v2_depth_duration_MTurk/v2_DepthDuration_HTML.html#38,38,1366,657,1366,768,8-21-2022,7-43-24,98,depth_duration_stimuli/003083_2014-06-15_15-21-03_094959634447_rgbf000063-resize_1/003083_2014-06-15_15-21-03_094959634447_rgbf000063-resize_1-target.png,125,4.1405,60,11254,124,meters,jsons/VE125_randls_64.json,2359658,2700288,39,Man
98,105636,DepthScenes,duration_manipulation_targetAtFixation,jsons/VE125_randls_64.json,http://54.235.29.9/FacialAge/BNav_EC2/DepthDuration/v2_depth_duration_MTurk/v2_DepthDuration_HTML.html#38,38,1366,657,1366,768,8-21-2022,7-43-24,99,depth_duration_stimuli/001540_2014-06-20_17-01-05_260595134347_rgbf000086-resize_2/001540_2014-06-20_17-01-05_260595134347_rgbf000086-resize-original.jpg,125,1.459,80,26098,124,meters,jsons/VE125_randls_64.json,2359658,2700288,39,Man
99,105636,DepthScenes,duration_manipulation_targetAtFixation,jsons/VE125_randls_64.json,http://54.235.29.9/FacialAge/BNav_EC2/DepthDuration/v2_depth_duration_MTurk/v2_DepthDuration_HTML.html#38,38,1366,657,1366,768,8-21-2022,7-43-24,100,depth_duration_stimuli/000368_2014-06-09_15-53-01_260595134347_rgbf000155-resize_2/000368_2014-06-09_15-53-01_260595134347_rgbf000155-resize_2-target.png,125,2.4859999999999998,60,28137,124,meters,jsons/VE125_randls_64.json,2359658,2700288,39,Man
100,105636,DepthScenes,duration_manipulation_targetAtFixation,jsons/VE125_randls_64.json,http://54.235.29.9/FacialAge/BNav_EC2/DepthDuration/v2_depth_duration_MTurk/v2_DepthDuration_HTML.html#38,38,1366,657,1366,768,8-21-2022,7-43-24,101,depth_duration_stimuli/002678_2014-06-13_16-15-32_094959634447_rgbf000151-resize_6/002678_2014-06-13_16-15-32_094959634447_rgbf000151-resize_6-target.png,125,2.1830000000000003,80,8319,116,meters,jsons/VE125_randls_64.json,2359658,2700288,39,Man
101,105636,DepthScenes,duration_manipulation_targetAtFixation,jsons/VE125_randls_64.json,http://54.235.29.9/FacialAge/BNav_EC2/DepthDuration/v2_depth_duration_MTurk/v2_DepthDuration_HTML.html#38,38,1366,657,1366,768,8-21-2022,7-43-24,102,depth_duration_stimuli/002725_2014-06-22_11-47-51_094959634447_rgbf000070-resize_1/002725_2014-06-22_11-47-51_094959634447_rgbf000070-resize_1-target.png,125,2.195,80,8086,124,meters,jsons/VE125_randls_64.json,2359658,2700288,39,Man
102,105636,DepthScenes,duration_manipulation_targetAtFixation,jsons/VE125_randls_64.json,http://54.235.29.9/FacialAge/BNav_EC2/DepthDuration/v2_depth_duration_MTurk/v2_DepthDuration_HTML.html#38,38,1366,657,1366,768,8-21-2022,7-43-24,103,depth_duration_stimuli/002344_2014-06-28_20-06-29_260595134347_rgbf000030-resize_1/002344_2014-06-28_20-06-29_260595134347_rgbf000030-resize_1-target.png,125,1.5795,50,28038,125,meters,jsons/VE125_randls_64.json,2359658,2700288,39,Man
103,105636,DepthScenes,duration_manipulation_targetAtFixation,jsons/VE125_randls_64.json,http://54.235.29.9/FacialAge/BNav_EC2/DepthDuration/v2_depth_duration_MTurk/v2_DepthDuration_HTML.html#38,38,1366,657,1366,768,8-21-2022,7-43-24,104,depth_duration_stimuli/002784_2014-06-22_19-26-30_094959634447_rgbf000083-resize_3/002784_2014-06-22_19-26-30_094959634447_rgbf000083-resize_3-target.png,125,1.8046666666667,40,25295,124,meters,jsons/VE125_randls_64.json,2359658,2700288,39,Man
104,105636,DepthScenes,duration_manipulation_targetAtFixation,jsons/VE125_randls_64.json,http://54.235.29.9/FacialAge/BNav_EC2/DepthDuration/v2_depth_duration_MTurk/v2_DepthDuration_HTML.html#38,38,1366,657,1366,768,8-21-2022,7-43-24,105,depth_duration_stimuli/001100_2014-06-15_17-46-26_260595134347_rgbf000225-resize_2/001100_2014-06-15_17-46-26_260595134347_rgbf000225-resize_2-target.png,125,2.24,30,5977,124,meters,jsons/VE125_randls_64.json,2359658,2700288,39,Man
105,105636,DepthScenes,duration_manipulation_targetAtFixation,jsons/VE125_randls_64.json,http://54.235.29.9/FacialAge/BNav_EC2/DepthDuration/v2_depth_duration_MTurk/v2_DepthDuration_HTML.html#38,38,1366,657,1366,768,8-21-2022,7-43-24,106,depth_duration_stimuli/001570_2014-06-20_17-21-09_260595134347_rgbf000135-resize_4/001570_2014-06-20_17-21-09_260595134347_rgbf000135-resize_4-target.png,125,4.467,40,24310,116,meters,jsons/VE125_randls_64.json,2359658,2700288,39,Man
106,105636,DepthScenes,duration_manipulation_targetAtFixation,jsons/VE125_randls_64.json,http://54.235.29.9/FacialAge/BNav_EC2/DepthDuration/v2_depth_duration_MTurk/v2_DepthDuration_HTML.html#38,38,1366,657,1366,768,8-21-2022,7-43-24,107,depth_duration_stimuli/001392_2014-06-19_16-07-59_260595134347_rgbf000046-resize_1/001392_2014-06-19_16-07-59_260595134347_rgbf000046-resize_1-target.png,125,4.135,80,37358,124,meters,jsons/VE125_randls_64.json,2359658,2700288,39,Man
107,105636,DepthScenes,duration_manipulation_targetAtFixation,jsons/VE125_randls_64.json,http://54.235.29.9/FacialAge/BNav_EC2/DepthDuration/v2_depth_duration_MTurk/v2_DepthDuration_HTML.html#38,38,1366,657,1366,768,8-21-2022,7-43-24,108,depth_duration_stimuli/002445_2014-06-28_20-32-16_260595134347_rgbf000029-resize_4/002445_2014-06-28_20-32-16_260595134347_rgbf000029-resize_4-target.png,125,2.5315,80,27077,124,meters,jsons/VE125_randls_64.json,2359658,2700288,39,Man
108,105636,DepthScenes,duration_manipulation_targetAtFixation,jsons/VE125_randls_64.json,http://54.235.29.9/FacialAge/BNav_EC2/DepthDuration/v2_depth_duration_MTurk/v2_DepthDuration_HTML.html#38,38,1366,657,1366,768,8-21-2022,7-43-24,109,depth_duration_stimuli/000780_2014-06-08_22-28-29_260595134347_rgbf000126-resize_1/000780_2014-06-08_22-28-29_260595134347_rgbf000126-resize_1-target.png,125,3.3825,100,5516,177,meters,jsons/VE125_randls_64.json,2359658,2700288,39,Man
109,105636,DepthScenes,duration_manipulation_targetAtFixation,jsons/VE125_randls_64.json,http://54.235.29.9/FacialAge/BNav_EC2/DepthDuration/v2_depth_duration_MTurk/v2_DepthDuration_HTML.html#38,38,1366,657,1366,768,8-21-2022,7-43-24,110,depth_duration_stimuli/001449_2014-06-19_17-01-27_260595134347_rgbf000116-resize_2/001449_2014-06-19_17-01-27_260595134347_rgbf000116-resize_2-target.png,125,3.452,70,5618,124,meters,jsons/VE125_randls_64.json,2359658,2700288,39,Man
110,105636,DepthScenes,duration_manipulation_targetAtFixation,jsons/VE125_randls_64.json,http://54.235.29.9/FacialAge/BNav_EC2/DepthDuration/v2_depth_duration_MTurk/v2_DepthDuration_HTML.html#38,38,1366,657,1366,768,8-21-2022,7-43-24,111,depth_duration_stimuli/001450_2014-06-19_17-02-03_260595134347_rgbf000203-resize_4/001450_2014-06-19_17-02-03_260595134347_rgbf000203-resize_4-target.png,125,4.0106666666667,80,28758,125,meters,jsons/VE125_randls_64.json,2359658,2700288,39,Man
111,105636,DepthScenes,duration_manipulation_targetAtFixation,jsons/VE125_randls_64.json,http://54.235.29.9/FacialAge/BNav_EC2/DepthDuration/v2_depth_duration_MTurk/v2_DepthDuration_HTML.html#38,38,1366,657,1366,768,8-21-2022,7-43-24,112,depth_duration_stimuli/000009_2014-05-26_14-32-05_260595134347_rgbf000034-resize_3/000009_2014-05-26_14-32-05_260595134347_rgbf000034-resize_3-target.png,125,3.8715,90,27064,124,meters,jsons/VE125_randls_64.json,2359658,2700288,39,Man
112,105636,DepthScenes,duration_manipulation_targetAtFixation,jsons/VE125_randls_64.json,http://54.235.29.9/FacialAge/BNav_EC2/DepthDuration/v2_depth_duration_MTurk/v2_DepthDuration_HTML.html#38,38,1366,657,1366,768,8-21-2022,7-43-24,113,depth_duration_stimuli/001828_2014-06-26_21-40-03_260595134347_rgbf000024-resize_0/001828_2014-06-26_21-40-03_260595134347_rgbf000024-resize_0-target.png,125,4.8260000000000005,80,9192,124,meters,jsons/VE125_randls_64.json,2359658,2700288,39,Man
113,105636,DepthScenes,duration_manipulation_targetAtFixation,jsons/VE125_randls_64.json,http://54.235.29.9/FacialAge/BNav_EC2/DepthDuration/v2_depth_duration_MTurk/v2_DepthDuration_HTML.html#38,38,1366,657,1366,768,8-21-2022,7-43-24,114,depth_duration_stimuli/000447_2014-06-08_16-15-46_260595134347_rgbf000130-resize_1/000447_2014-06-08_16-15-46_260595134347_rgbf000130-resize_1-target.png,125,4.479,80,6438,124,meters,jsons/VE125_randls_64.json,2359658,2700288,39,Man
114,105636,DepthScenes,duration_manipulation_targetAtFixation,jsons/VE125_randls_64.json,http://54.235.29.9/FacialAge/BNav_EC2/DepthDuration/v2_depth_duration_MTurk/v2_DepthDuration_HTML.html#38,38,1366,657,1366,768,8-21-2022,7-43-24,115,depth_duration_stimuli/001447_2014-06-19_17-00-32_260595134347_rgbf000082-resize_5/001447_2014-06-19_17-00-32_260595134347_rgbf000082-resize_5-target.png,125,4.13775,70,9427,124,meters,jsons/VE125_randls_64.json,2359658,2700288,39,Man
115,105636,DepthScenes,duration_manipulation_targetAtFixation,jsons/VE125_randls_64.json,http://54.235.29.9/FacialAge/BNav_EC2/DepthDuration/v2_depth_duration_MTurk/v2_DepthDuration_HTML.html#38,38,1366,657,1366,768,8-21-2022,7-43-24,116,depth_duration_stimuli/001170_2014-06-17_15-43-44_260595134347_rgbf000096-resize_6/001170_2014-06-17_15-43-44_260595134347_rgbf000096-resize-original.jpg,125,1.1909999999999998,80,6852,125,meters,jsons/VE125_randls_64.json,2359658,2700288,39,Man
116,105636,DepthScenes,duration_manipulation_targetAtFixation,jsons/VE125_randls_64.json,http://54.235.29.9/FacialAge/BNav_EC2/DepthDuration/v2_depth_duration_MTurk/v2_DepthDuration_HTML.html#38,38,1366,657,1366,768,8-21-2022,7-43-24,117,depth_duration_stimuli/002118_2014-06-25_20-32-08_260595134347_rgbf000078-resize_1/002118_2014-06-25_20-32-08_260595134347_rgbf000078-resize_1-target.png,125,2.6460000000000004,80,5334,129,meters,jsons/VE125_randls_64.json,2359658,2700288,39,Man
117,105636,DepthScenes,duration_manipulation_targetAtFixation,jsons/VE125_randls_64.json,http://54.235.29.9/FacialAge/BNav_EC2/DepthDuration/v2_depth_duration_MTurk/v2_DepthDuration_HTML.html#38,38,1366,657,1366,768,8-21-2022,7-43-24,118,depth_duration_stimuli/001516_2014-06-20_16-25-09_260595134347_rgbf000076-resize_2/001516_2014-06-20_16-25-09_260595134347_rgbf000076-resize_2-target.png,125,1.7445,60,27184,110,meters,jsons/VE125_randls_64.json,2359658,2700288,39,Man
118,105636,DepthScenes,duration_manipulation_targetAtFixation,jsons/VE125_randls_64.json,http://54.235.29.9/FacialAge/BNav_EC2/DepthDuration/v2_depth_duration_MTurk/v2_DepthDuration_HTML.html#38,38,1366,657,1366,768,8-21-2022,7-43-24,119,depth_duration_stimuli/001110_2014-06-15_17-25-28_260595134347_rgbf000150-resize_1/001110_2014-06-15_17-25-28_260595134347_rgbf000150-resize_1-target.png,125,1.7115,70,10158,124,meters,jsons/VE125_randls_64.json,2359658,2700288,39,Man
119,105636,DepthScenes,duration_manipulation_targetAtFixation,jsons/VE125_randls_64.json,http://54.235.29.9/FacialAge/BNav_EC2/DepthDuration/v2_depth_duration_MTurk/v2_DepthDuration_HTML.html#38,38,1366,657,1366,768,8-21-2022,7-43-24,120,depth_duration_stimuli/000927_2014-06-09_16-32-30_260595134347_rgbf000123-resize_3/000927_2014-06-09_16-32-30_260595134347_rgbf000123-resize_3-target.png,125,2.6785,80,28327,124,meters,jsons/VE125_randls_64.json,2359658,2700288,39,Man
120,105636,DepthScenes,duration_manipulation_targetAtFixation,jsons/VE125_randls_64.json,http://54.235.29.9/FacialAge/BNav_EC2/DepthDuration/v2_depth_duration_MTurk/v2_DepthDuration_HTML.html#38,38,1366,657,1366,768,8-21-2022,7-43-24,121,depth_duration_stimuli/003292_2014-05-14_21-53-49_094959634447_rgbf000100-resize_2/003292_2014-05-14_21-53-49_094959634447_rgbf000100-resize_2-target.png,125,3.4815,70,7688,125,meters,jsons/VE125_randls_64.json,2359658,2700288,39,Man
121,105636,DepthScenes,duration_manipulation_targetAtFixation,jsons/VE125_randls_64.json,http://54.235.29.9/FacialAge/BNav_EC2/DepthDuration/v2_depth_duration_MTurk/v2_DepthDuration_HTML.html#38,38,1366,657,1366,768,8-21-2022,7-43-24,122,depth_duration_stimuli/002639_2014-06-24_14-51-37_094959634447_rgbf000074-resize_4/002639_2014-06-24_14-51-37_094959634447_rgbf000074-resize_4-target.png,125,4.0375,60,25758,124,meters,jsons/VE125_randls_64.json,2359658,2700288,39,Man
122,105636,DepthScenes,duration_manipulation_targetAtFixation,jsons/VE125_randls_64.json,http://54.235.29.9/FacialAge/BNav_EC2/DepthDuration/v2_depth_duration_MTurk/v2_DepthDuration_HTML.html#38,38,1366,657,1366,768,8-21-2022,7-43-24,123,depth_duration_stimuli/000414_2014-06-04_19-49-13_260595134347_rgbf000044-resize_0/000414_2014-06-04_19-49-13_260595134347_rgbf000044-resize_0-target.png,125,4.329,80,30934,120,meters,jsons/VE125_randls_64.json,2359658,2700288,39,Man
123,105636,DepthScenes,duration_manipulation_targetAtFixation,jsons/VE125_randls_64.json,http://54.235.29.9/FacialAge/BNav_EC2/DepthDuration/v2_depth_duration_MTurk/v2_DepthDuration_HTML.html#38,38,1366,657,1366,768,8-21-2022,7-43-24,124,depth_duration_stimuli/003129_2014-05-12_10-48-10_094959634447_rgbf000100-resize_0/003129_2014-05-12_10-48-10_094959634447_rgbf000100-resize_0-target.png,125,4.9305,60,6106,94,meters,jsons/VE125_randls_64.json,2359658,2700288,39,Man
124,105636,DepthScenes,duration_manipulation_targetAtFixation,jsons/VE125_randls_64.json,http://54.235.29.9/FacialAge/BNav_EC2/DepthDuration/v2_depth_duration_MTurk/v2_DepthDuration_HTML.html#38,38,1366,657,1366,768,8-21-2022,7-43-24,125,depth_duration_stimuli/002057_2014-06-24_21-00-13_260595134347_rgbf000120-resize_1/002057_2014-06-24_21-00-13_260595134347_rgbf000120-resize_1-target.png,125,2.967,70,8439,102,meters,jsons/VE125_randls_64.json,2359658,2700288,39,Man
125,105636,DepthScenes,duration_manipulation_targetAtFixation,jsons/VE125_randls_64.json,http://54.235.29.9/FacialAge/BNav_EC2/DepthDuration/v2_depth_duration_MTurk/v2_DepthDuration_HTML.html#38,38,1366,657,1366,768,8-21-2022,7-43-24,126,depth_duration_stimuli/000709_2014-06-08_13-51-55_260595134347_rgbf000068-resize_3/000709_2014-06-08_13-51-55_260595134347_rgbf000068-resize_3-target.png,125,1.8030000000000002,60,5649,124,meters,jsons/VE125_randls_64.json,2359658,2700288,39,Man
126,105636,DepthScenes,duration_manipulation_targetAtFixation,jsons/VE125_randls_64.json,http://54.235.29.9/FacialAge/BNav_EC2/DepthDuration/v2_depth_duration_MTurk/v2_DepthDuration_HTML.html#38,38,1366,657,1366,768,8-21-2022,7-43-24,127,depth_duration_stimuli/000906_2014-06-08_13-35-43_260595134347_rgbf000155-resize_1/000906_2014-06-08_13-35-43_260595134347_rgbf000155-resize_1-target.png,125,2.8489999999999998,80,5463,212,meters,jsons/VE125_randls_64.json,2359658,2700288,39,Man
127,105636,DepthScenes,duration_manipulation_targetAtFixation,jsons/VE125_randls_64.json,http://54.235.29.9/FacialAge/BNav_EC2/DepthDuration/v2_depth_duration_MTurk/v2_DepthDuration_HTML.html#38,38,1366,657,1366,768,8-21-2022,7-43-24,128,depth_duration_stimuli/002805_2014-06-22_19-54-03_094959634447_rgbf000079-resize_1/002805_2014-06-22_19-54-03_094959634447_rgbf000079-resize_1-target.png,125,3.1439999999999997,80,6413,124,meters,jsons/VE125_randls_64.json,2359658,2700288,39,Man
128,105636,DepthScenes,duration_manipulation_targetAtFixation,jsons/VE125_randls_64.json,http://54.235.29.9/FacialAge/BNav_EC2/DepthDuration/v2_depth_duration_MTurk/v2_DepthDuration_HTML.html#38,38,1366,657,1366,768,8-21-2022,7-43-24,129,depth_duration_stimuli/002600_2014-06-24_14-27-04_094959634447_rgbf000074-resize_2/002600_2014-06-24_14-27-04_094959634447_rgbf000074-resize_2-target.png,125,2.7575,80,5403,124,meters,jsons/VE125_randls_64.json,2359658,2700288,39,Man
129,105636,DepthScenes,duration_manipulation_targetAtFixation,jsons/VE125_randls_64.json,http://54.235.29.9/FacialAge/BNav_EC2/DepthDuration/v2_depth_duration_MTurk/v2_DepthDuration_HTML.html#38,38,1366,657,1366,768,8-21-2022,7-43-24,130,depth_duration_stimuli/003228_2014-05-14_13-42-35_094959634447_rgbf000101-resize_1/003228_2014-05-14_13-42-35_094959634447_rgbf000101-resize_1-target.png,125,1.9680000000000002,60,6138,124,meters,jsons/VE125_randls_64.json,2359658,2700288,39,Man
130,105636,DepthScenes,duration_manipulation_targetAtFixation,jsons/VE125_randls_64.json,http://54.235.29.9/FacialAge/BNav_EC2/DepthDuration/v2_depth_duration_MTurk/v2_DepthDuration_HTML.html#38,38,1366,657,1366,768,8-21-2022,7-43-24,131,depth_duration_stimuli/001150_2014-06-17_15-27-34_260595134347_rgbf000108-resize_2/001150_2014-06-17_15-27-34_260595134347_rgbf000108-resize_2-target.png,125,4.0325,80,17538,124,meters,jsons/VE125_randls_64.json,2359658,2700288,39,Man
131,105636,DepthScenes,duration_manipulation_targetAtFixation,jsons/VE125_randls_64.json,http://54.235.29.9/FacialAge/BNav_EC2/DepthDuration/v2_depth_duration_MTurk/v2_DepthDuration_HTML.html#38,38,1366,657,1366,768,8-21-2022,7-43-24,132,depth_duration_stimuli/000665_2014-06-09_20-42-35_260595134347_rgbf000110-resize_1/000665_2014-06-09_20-42-35_260595134347_rgbf000110-resize_1-target.png,125,3.057,70,50715,124,meters,jsons/VE125_randls_64.json,2359658,2700288,39,Man
132,105636,DepthScenes,duration_manipulation_targetAtFixation,jsons/VE125_randls_64.json,http://54.235.29.9/FacialAge/BNav_EC2/DepthDuration/v2_depth_duration_MTurk/v2_DepthDuration_HTML.html#38,38,1366,657,1366,768,8-21-2022,7-43-24,133,depth_duration_stimuli/001175_2014-06-17_15-45-55_260595134347_rgbf000129-resize_4/001175_2014-06-17_15-45-55_260595134347_rgbf000129-resize_4-target.png,125,4.255,80,8363,125,meters,jsons/VE125_randls_64.json,2359658,2700288,39,Man
133,105636,DepthScenes,duration_manipulation_targetAtFixation,jsons/VE125_randls_64.json,http://54.235.29.9/FacialAge/BNav_EC2/DepthDuration/v2_depth_duration_MTurk/v2_DepthDuration_HTML.html#38,38,1366,657,1366,768,8-21-2022,7-43-24,134,depth_duration_stimuli/003490_2014-05-21_15-50-11_094959634447_rgbf000101-resize_3/003490_2014-05-21_15-50-11_094959634447_rgbf000101-resize_3-target.png,125,3.6445,70,7860,110,meters,jsons/VE125_randls_64.json,2359658,2700288,39,Man
134,105636,DepthScenes,duration_manipulation_targetAtFixation,jsons/VE125_randls_64.json,http://54.235.29.9/FacialAge/BNav_EC2/DepthDuration/v2_depth_duration_MTurk/v2_DepthDuration_HTML.html#38,38,1366,657,1366,768,8-21-2022,7-43-24,135,depth_duration_stimuli/002072_2014-06-24_21-48-06_260595134347_rgbf000115-resize_0/002072_2014-06-24_21-48-06_260595134347_rgbf000115-resize-original.jpg,125,4.702,80,23725,125,meters,jsons/VE125_randls_64.json,2359658,2700288,39,Man
135,105636,DepthScenes,duration_manipulation_targetAtFixation,jsons/VE125_randls_64.json,http://54.235.29.9/FacialAge/BNav_EC2/DepthDuration/v2_depth_duration_MTurk/v2_DepthDuration_HTML.html#38,38,1366,657,1366,768,8-21-2022,7-43-24,136,depth_duration_stimuli/000773_2014-06-08_22-24-54_260595134347_rgbf000093-resize_1/000773_2014-06-08_22-24-54_260595134347_rgbf000093-resize_1-target.png,125,4.973,80,6944,137,meters,jsons/VE125_randls_64.json,2359658,2700288,39,Man
136,105636,DepthScenes,duration_manipulation_targetAtFixation,jsons/VE125_randls_64.json,http://54.235.29.9/FacialAge/BNav_EC2/DepthDuration/v2_depth_duration_MTurk/v2_DepthDuration_HTML.html#38,38,1366,657,1366,768,8-21-2022,7-43-24,137,depth_duration_stimuli/002414_2014-06-28_20-24-58_260595134347_rgbf000067-resize_4/002414_2014-06-28_20-24-58_260595134347_rgbf000067-resize_4-target.png,125,4.363,70,27903,124,meters,jsons/VE125_randls_64.json,2359658,2700288,39,Man
137,105636,DepthScenes,duration_manipulation_targetAtFixation,jsons/VE125_randls_64.json,http://54.235.29.9/FacialAge/BNav_EC2/DepthDuration/v2_depth_duration_MTurk/v2_DepthDuration_HTML.html#38,38,1366,657,1366,768,8-21-2022,7-43-24,138,depth_duration_stimuli/002375_2014-06-28_20-13-44_260595134347_rgbf000032-resize_1/002375_2014-06-28_20-13-44_260595134347_rgbf000032-resize_1-target.png,125,4.0175,60,6111,124,meters,jsons/VE125_randls_64.json,2359658,2700288,39,Man
138,105636,DepthScenes,duration_manipulation_targetAtFixation,jsons/VE125_randls_64.json,http://54.235.29.9/FacialAge/BNav_EC2/DepthDuration/v2_depth_duration_MTurk/v2_DepthDuration_HTML.html#38,38,1366,657,1366,768,8-21-2022,7-43-24,139,depth_duration_stimuli/002657_2014-06-13_15-29-54_094959634447_rgbf000150-resize_1/002657_2014-06-13_15-29-54_094959634447_rgbf000150-resize_1-target.png,125,4.919,40,7169,124,meters,jsons/VE125_randls_64.json,2359658,2700288,39,Man
139,105636,DepthScenes,duration_manipulation_targetAtFixation,jsons/VE125_randls_64.json,http://54.235.29.9/FacialAge/BNav_EC2/DepthDuration/v2_depth_duration_MTurk/v2_DepthDuration_HTML.html#38,38,1366,657,1366,768,8-21-2022,7-43-24,140,depth_duration_stimuli/001059_2014-06-08_21-53-27_260595134347_rgbf000061-resize_4/001059_2014-06-08_21-53-27_260595134347_rgbf000061-resize_4-target.png,125,2.4185,60,5436,124,meters,jsons/VE125_randls_64.json,2359658,2700288,39,Man
140,105636,DepthScenes,duration_manipulation_targetAtFixation,jsons/VE125_randls_64.json,http://54.235.29.9/FacialAge/BNav_EC2/DepthDuration/v2_depth_duration_MTurk/v2_DepthDuration_HTML.html#38,38,1366,657,1366,768,8-21-2022,7-43-24,141,depth_duration_stimuli/001032_2014-06-08_13-23-17_260595134347_rgbf000021-resize_3/001032_2014-06-08_13-23-17_260595134347_rgbf000021-resize_3-target.png,125,3.2725,70,6237,125,meters,jsons/VE125_randls_64.json,2359658,2700288,39,Man
141,105636,DepthScenes,duration_manipulation_targetAtFixation,jsons/VE125_randls_64.json,http://54.235.29.9/FacialAge/BNav_EC2/DepthDuration/v2_depth_duration_MTurk/v2_DepthDuration_HTML.html#38,38,1366,657,1366,768,8-21-2022,7-43-24,142,depth_duration_stimuli/001011_2014-06-08_23-18-54_260595134347_rgbf000044-resize_4/001011_2014-06-08_23-18-54_260595134347_rgbf000044-resize_4-target.png,125,2.4730000000000003,70,27920,91,meters,jsons/VE125_randls_64.json,2359658,2700288,39,Man
142,105636,DepthScenes,duration_manipulation_targetAtFixation,jsons/VE125_randls_64.json,http://54.235.29.9/FacialAge/BNav_EC2/DepthDuration/v2_depth_duration_MTurk/v2_DepthDuration_HTML.html#38,38,1366,657,1366,768,8-21-2022,7-43-24,143,depth_duration_stimuli/002875_2014-06-01_15-19-00_094959634447_rgbf000151-resize_1/002875_2014-06-01_15-19-00_094959634447_rgbf000151-resize_1-target.png,125,1.9675,80,5884,125,meters,jsons/VE125_randls_64.json,2359658,2700288,39,Man
143,105636,DepthScenes,duration_manipulation_targetAtFixation,jsons/VE125_randls_64.json,http://54.235.29.9/FacialAge/BNav_EC2/DepthDuration/v2_depth_duration_MTurk/v2_DepthDuration_HTML.html#38,38,1366,657,1366,768,8-21-2022,7-43-24,144,depth_duration_stimuli/001806_2014-06-26_20-50-20_260595134347_rgbf000091-resize_1/001806_2014-06-26_20-50-20_260595134347_rgbf000091-resize_1-target.png,125,2.7305,60,7561,124,meters,jsons/VE125_randls_64.json,2359658,2700288,39,Man
144,105636,DepthScenes,duration_manipulation_targetAtFixation,jsons/VE125_randls_64.json,http://54.235.29.9/FacialAge/BNav_EC2/DepthDuration/v2_depth_duration_MTurk/v2_DepthDuration_HTML.html#38,38,1366,657,1366,768,8-21-2022,7-43-24,145,depth_duration_stimuli/001617_2014-06-20_11-35-32_260595134347_rgbf000066-resize_1/001617_2014-06-20_11-35-32_260595134347_rgbf000066-resize_1-target.png,125,3.7910000000000004,80,5696,125,meters,jsons/VE125_randls_64.json,2359658,2700288,39,Man
145,105636,DepthScenes,duration_manipulation_targetAtFixation,jsons/VE125_randls_64.json,http://54.235.29.9/FacialAge/BNav_EC2/DepthDuration/v2_depth_duration_MTurk/v2_DepthDuration_HTML.html#38,38,1366,657,1366,768,8-21-2022,7-43-24,146,depth_duration_stimuli/001498_2014-06-19_17-45-14_260595134347_rgbf000129-resize_4/001498_2014-06-19_17-45-14_260595134347_rgbf000129-resize-original.jpg,125,1.4075,60,5978,124,meters,jsons/VE125_randls_64.json,2359658,2700288,39,Man
146,105636,DepthScenes,duration_manipulation_targetAtFixation,jsons/VE125_randls_64.json,http://54.235.29.9/FacialAge/BNav_EC2/DepthDuration/v2_depth_duration_MTurk/v2_DepthDuration_HTML.html#38,38,1366,657,1366,768,8-21-2022,7-43-24,147,depth_duration_stimuli/000469_2014-06-09_19-42-10_260595134347_rgbf000081-resize_1/000469_2014-06-09_19-42-10_260595134347_rgbf000081-resize_1-target.png,125,1.652,60,5218,123,meters,jsons/VE125_randls_64.json,2359658,2700288,39,Man
147,105636,DepthScenes,duration_manipulation_targetAtFixation,jsons/VE125_randls_64.json,http://54.235.29.9/FacialAge/BNav_EC2/DepthDuration/v2_depth_duration_MTurk/v2_DepthDuration_HTML.html#38,38,1366,657,1366,768,8-21-2022,7-43-24,148,depth_duration_stimuli/000483_2014-06-09_20-41-45_260595134347_rgbf000116-resize_4/000483_2014-06-09_20-41-45_260595134347_rgbf000116-resize_4-target.png,125,1.337,60,5958,124,meters,jsons/VE125_randls_64.json,2359658,2700288,39,Man
148,105636,DepthScenes,duration_manipulation_targetAtFixation,jsons/VE125_randls_64.json,http://54.235.29.9/FacialAge/BNav_EC2/DepthDuration/v2_depth_duration_MTurk/v2_DepthDuration_HTML.html#38,38,1366,657,1366,768,8-21-2022,7-43-24,149,depth_duration_stimuli/001133_2014-06-17_14-49-16_260595134347_rgbf000100-resize_0/001133_2014-06-17_14-49-16_260595134347_rgbf000100-resize_0-target.png,125,4.2115,40,28662,137,meters,jsons/VE125_randls_64.json,2359658,2700288,39,Man
149,105636,DepthScenes,duration_manipulation_targetAtFixation,jsons/VE125_randls_64.json,http://54.235.29.9/FacialAge/BNav_EC2/DepthDuration/v2_depth_duration_MTurk/v2_DepthDuration_HTML.html#38,38,1366,657,1366,768,8-21-2022,7-43-24,150,depth_duration_stimuli/001132_2014-06-17_14-48-54_260595134347_rgbf000100-resize_2/001132_2014-06-17_14-48-54_260595134347_rgbf000100-resize_2-target.png,125,3.753,80,6400,66,meters,jsons/VE125_randls_64.json,2359658,2700288,39,Man
150,105636,DepthScenes,duration_manipulation_targetAtFixation,jsons/VE125_randls_64.json,http://54.235.29.9/FacialAge/BNav_EC2/DepthDuration/v2_depth_duration_MTurk/v2_DepthDuration_HTML.html#38,38,1366,657,1366,768,8-21-2022,7-43-24,151,depth_duration_stimuli/000522_2014-06-08_13-35-06_260595134347_rgbf000244-resize_1/000522_2014-06-08_13-35-06_260595134347_rgbf000244-resize_1-target.png,125,2.3715,70,5424,125,meters,jsons/VE125_randls_64.json,2359658,2700288,39,Man
151,105636,DepthScenes,duration_manipulation_targetAtFixation,jsons/VE125_randls_64.json,http://54.235.29.9/FacialAge/BNav_EC2/DepthDuration/v2_depth_duration_MTurk/v2_DepthDuration_HTML.html#38,38,1366,657,1366,768,8-21-2022,7-43-24,152,depth_duration_stimuli/002949_2014-06-26_15-57-42_094959634447_rgbf000079-resize_1/002949_2014-06-26_15-57-42_094959634447_rgbf000079-resize_1-target.png,125,1.8915,40,29592,126,meters,jsons/VE125_randls_64.json,2359658,2700288,39,Man
152,105636,DepthScenes,duration_manipulation_targetAtFixation,jsons/VE125_randls_64.json,http://54.235.29.9/FacialAge/BNav_EC2/DepthDuration/v2_depth_duration_MTurk/v2_DepthDuration_HTML.html#38,38,1366,657,1366,768,8-21-2022,7-43-24,153,depth_duration_stimuli/002549_2014-06-24_13-41-39_094959634447_rgbf000022-resize_3/002549_2014-06-24_13-41-39_094959634447_rgbf000022-resize_3-target.png,125,1.476,60,5435,124,meters,jsons/VE125_randls_64.json,2359658,2700288,39,Man
153,105636,DepthScenes,duration_manipulation_targetAtFixation,jsons/VE125_randls_64.json,http://54.235.29.9/FacialAge/BNav_EC2/DepthDuration/v2_depth_duration_MTurk/v2_DepthDuration_HTML.html#38,38,1366,657,1366,768,8-21-2022,7-43-24,154,depth_duration_stimuli/002750_2014-06-22_19-08-03_094959634447_rgbf000094-resize_4/002750_2014-06-22_19-08-03_094959634447_rgbf000094-resize_4-target.png,125,2.354,40,26748,124,meters,jsons/VE125_randls_64.json,2359658,2700288,39,Man
154,105636,DepthScenes,duration_manipulation_targetAtFixation,jsons/VE125_randls_64.json,http://54.235.29.9/FacialAge/BNav_EC2/DepthDuration/v2_depth_duration_MTurk/v2_DepthDuration_HTML.html#38,38,1366,657,1366,768,8-21-2022,7-43-24,155,depth_duration_stimuli/002905_2014-06-03_18-04-43_094959634447_rgbf000151-resize_2/002905_2014-06-03_18-04-43_094959634447_rgbf000151-resize_2-target.png,125,2.0295,60,31771,123,meters,jsons/VE125_randls_64.json,2359658,2700288,39,Man
155,105636,DepthScenes,duration_manipulation_targetAtFixation,jsons/VE125_randls_64.json,http://54.235.29.9/FacialAge/BNav_EC2/DepthDuration/v2_depth_duration_MTurk/v2_DepthDuration_HTML.html#38,38,1366,657,1366,768,8-21-2022,7-43-24,156,depth_duration_stimuli/003423_2014-05-21_10-23-26_094959634447_rgbf002665-resize_2/003423_2014-05-21_10-23-26_094959634447_rgbf002665-resize_2-target.png,125,3.2575,80,25288,116,meters,jsons/VE125_randls_64.json,2359658,2700288,39,Man
156,105636,DepthScenes,duration_manipulation_targetAtFixation,jsons/VE125_randls_64.json,http://54.235.29.9/FacialAge/BNav_EC2/DepthDuration/v2_depth_duration_MTurk/v2_DepthDuration_HTML.html#38,38,1366,657,1366,768,8-21-2022,7-43-24,157,depth_duration_stimuli/000436_2014-06-09_22-25-11_260595134347_rgbf000137-resize_1/000436_2014-06-09_22-25-11_260595134347_rgbf000137-resize_1-target.png,125,4.0705,80,6298,132,meters,jsons/VE125_randls_64.json,2359658,2700288,39,Man
157,105636,DepthScenes,duration_manipulation_targetAtFixation,jsons/VE125_randls_64.json,http://54.235.29.9/FacialAge/BNav_EC2/DepthDuration/v2_depth_duration_MTurk/v2_DepthDuration_HTML.html#38,38,1366,657,1366,768,8-21-2022,7-43-24,158,depth_duration_stimuli/002444_2014-06-28_20-32-08_260595134347_rgbf000027-resize_0/002444_2014-06-28_20-32-08_260595134347_rgbf000027-resize_0-target.png,125,4.388999999999999,70,24137,124,meters,jsons/VE125_randls_64.json,2359658,2700288,39,Man
158,105636,DepthScenes,duration_manipulation_targetAtFixation,jsons/VE125_randls_64.json,http://54.235.29.9/FacialAge/BNav_EC2/DepthDuration/v2_depth_duration_MTurk/v2_DepthDuration_HTML.html#38,38,1366,657,1366,768,8-21-2022,7-43-24,159,depth_duration_stimuli/003534_2014-05-22_15-06-10_094959634447_rgbf000102-resize_4/003534_2014-05-22_15-06-10_094959634447_rgbf000102-resize_4-target.png,125,1.426,80,7479,124,meters,jsons/VE125_randls_64.json,2359658,2700288,39,Man
159,105636,DepthScenes,duration_manipulation_targetAtFixation,jsons/VE125_randls_64.json,http://54.235.29.9/FacialAge/BNav_EC2/DepthDuration/v2_depth_duration_MTurk/v2_DepthDuration_HTML.html#38,38,1366,657,1366,768,8-21-2022,7-43-24,160,depth_duration_stimuli/002637_2014-06-24_14-51-13_094959634447_rgbf000066-resize_4/002637_2014-06-24_14-51-13_094959634447_rgbf000066-resize_4-target.png,125,1.9955,60,4858,123,meters,jsons/VE125_randls_64.json,2359658,2700288,39,Man
160,105636,DepthScenes,duration_manipulation_targetAtFixation,jsons/VE125_randls_64.json,http://54.235.29.9/FacialAge/BNav_EC2/DepthDuration/v2_depth_duration_MTurk/v2_DepthDuration_HTML.html#38,38,1366,657,1366,768,8-21-2022,7-43-24,161,depth_duration_stimuli/001158_2014-06-17_15-32-16_260595134347_rgbf000138-resize_2/001158_2014-06-17_15-32-16_260595134347_rgbf000138-resize_2-target.png,125,4.5315,70,6417,123,meters,jsons/VE125_randls_64.json,2359658,2700288,39,Man
161,105636,DepthScenes,duration_manipulation_targetAtFixation,jsons/VE125_randls_64.json,http://54.235.29.9/FacialAge/BNav_EC2/DepthDuration/v2_depth_duration_MTurk/v2_DepthDuration_HTML.html#38,38,1366,657,1366,768,8-21-2022,7-43-24,162,depth_duration_stimuli/000556_2014-06-09_22-42-56_260595134347_rgbf000214-resize_1/000556_2014-06-09_22-42-56_260595134347_rgbf000214-resize_1-target.png,125,4.8415,80,6398,125,meters,jsons/VE125_randls_64.json,2359658,2700288,39,Man
162,105636,DepthScenes,duration_manipulation_targetAtFixation,jsons/VE125_randls_64.json,http://54.235.29.9/FacialAge/BNav_EC2/DepthDuration/v2_depth_duration_MTurk/v2_DepthDuration_HTML.html#38,38,1366,657,1366,768,8-21-2022,7-43-24,163,depth_duration_stimuli/002630_2014-06-24_14-47-50_094959634447_rgbf000055-resize_1/002630_2014-06-24_14-47-50_094959634447_rgbf000055-resize_1-target.png,125,3.0095,80,4477,123,meters,jsons/VE125_randls_64.json,2359658,2700288,39,Man
163,105636,DepthScenes,duration_manipulation_targetAtFixation,jsons/VE125_randls_64.json,http://54.235.29.9/FacialAge/BNav_EC2/DepthDuration/v2_depth_duration_MTurk/v2_DepthDuration_HTML.html#38,38,1366,657,1366,768,8-21-2022,7-43-24,164,depth_duration_stimuli/002758_2014-06-22_19-11-20_094959634447_rgbf000128-resize_1/002758_2014-06-22_19-11-20_094959634447_rgbf000128-resize_1-target.png,125,2.555,40,6670,125,meters,jsons/VE125_randls_64.json,2359658,2700288,39,Man
