,subjID,experimentName,versionName,sequenceName,url,selected_row,windowWidth,windowHeight,screenWidth,screenHeight,startDate,startTime,trial,stimulus,duration,actual_depth,depth_estimate,trial_RT,log_sceneDuration,unitSelection,seq_filepath,experimentTime,totalTime,age,gender
0,106816,DepthScenes,duration_manipulation_targetAtFixation,jsons/v1_VE1000_randls_38_rotated.json,http://54.235.29.9/FacialAge/BNav_EC2/DepthDuration/v2_depth_duration_MTurk/v2_DepthDuration_HTML.html#138,138,1366,625,1366,768,8-22-2022,5-4-25,1,depth_duration_stimuli/002103_2014-06-25_20-00-40_260595134347_rgbf000049-resize_0/002103_2014-06-25_20-00-40_260595134347_rgbf000049-resize_0-target.png,1000,4.105,1,19123,1000,meters,jsons/v1_VE1000_randls_38_rotated.json,1117007,1965742,59,Woman
1,106816,DepthScenes,duration_manipulation_targetAtFixation,jsons/v1_VE1000_randls_38_rotated.json,http://54.235.29.9/FacialAge/BNav_EC2/DepthDuration/v2_depth_duration_MTurk/v2_DepthDuration_HTML.html#138,138,1366,625,1366,768,8-22-2022,5-4-25,2,depth_duration_stimuli/002039_2014-06-24_20-22-38_260595134347_rgbf000084-resize_1/002039_2014-06-24_20-22-38_260595134347_rgbf000084-resize_1-target.png,1000,4.408,2,4867,999,meters,jsons/v1_VE1000_randls_38_rotated.json,1117007,1965742,59,Woman
2,106816,DepthScenes,duration_manipulation_targetAtFixation,jsons/v1_VE1000_randls_38_rotated.json,http://54.235.29.9/FacialAge/BNav_EC2/DepthDuration/v2_depth_duration_MTurk/v2_DepthDuration_HTML.html#138,138,1366,625,1366,768,8-22-2022,5-4-25,3,depth_duration_stimuli/003079_2014-06-15_15-18-20_094959634447_rgbf000152-resize_8/003079_2014-06-15_15-18-20_094959634447_rgbf000152-resize_8-target.png,1000,2.8775,4,8987,1000,meters,jsons/v1_VE1000_randls_38_rotated.json,1117007,1965742,59,Woman
3,106816,DepthScenes,duration_manipulation_targetAtFixation,jsons/v1_VE1000_randls_38_rotated.json,http://54.235.29.9/FacialAge/BNav_EC2/DepthDuration/v2_depth_duration_MTurk/v2_DepthDuration_HTML.html#138,138,1366,625,1366,768,8-22-2022,5-4-25,4,depth_duration_stimuli/000506_2014-06-08_23-21-00_260595134347_rgbf000070-resize_7/000506_2014-06-08_23-21-00_260595134347_rgbf000070-resize_7-target.png,1000,4.0585,3,4756,1000,meters,jsons/v1_VE1000_randls_38_rotated.json,1117007,1965742,59,Woman
4,106816,DepthScenes,duration_manipulation_targetAtFixation,jsons/v1_VE1000_randls_38_rotated.json,http://54.235.29.9/FacialAge/BNav_EC2/DepthDuration/v2_depth_duration_MTurk/v2_DepthDuration_HTML.html#138,138,1366,625,1366,768,8-22-2022,5-4-25,5,depth_duration_stimuli/000677_2014-06-08_23-10-32_260595134347_rgbf000158-resize_6/000677_2014-06-08_23-10-32_260595134347_rgbf000158-resize_6-target.png,1000,3.556,3,8601,998,meters,jsons/v1_VE1000_randls_38_rotated.json,1117007,1965742,59,Woman
5,106816,DepthScenes,duration_manipulation_targetAtFixation,jsons/v1_VE1000_randls_38_rotated.json,http://54.235.29.9/FacialAge/BNav_EC2/DepthDuration/v2_depth_duration_MTurk/v2_DepthDuration_HTML.html#138,138,1366,625,1366,768,8-22-2022,5-4-25,6,depth_duration_stimuli/001029_2014-06-08_13-17-57_260595134347_rgbf000065-resize_1/001029_2014-06-08_13-17-57_260595134347_rgbf000065-resize_1-target.png,1000,3.0835,2,4537,1000,meters,jsons/v1_VE1000_randls_38_rotated.json,1117007,1965742,59,Woman
6,106816,DepthScenes,duration_manipulation_targetAtFixation,jsons/v1_VE1000_randls_38_rotated.json,http://54.235.29.9/FacialAge/BNav_EC2/DepthDuration/v2_depth_duration_MTurk/v2_DepthDuration_HTML.html#138,138,1366,625,1366,768,8-22-2022,5-4-25,7,depth_duration_stimuli/000483_2014-06-09_20-41-45_260595134347_rgbf000116-resize_4/000483_2014-06-09_20-41-45_260595134347_rgbf000116-resize_4-target.png,1000,1.337,1,8349,1000,meters,jsons/v1_VE1000_randls_38_rotated.json,1117007,1965742,59,Woman
7,106816,DepthScenes,duration_manipulation_targetAtFixation,jsons/v1_VE1000_randls_38_rotated.json,http://54.235.29.9/FacialAge/BNav_EC2/DepthDuration/v2_depth_duration_MTurk/v2_DepthDuration_HTML.html#138,138,1366,625,1366,768,8-22-2022,5-4-25,8,depth_duration_stimuli/000469_2014-06-09_19-42-10_260595134347_rgbf000081-resize_1/000469_2014-06-09_19-42-10_260595134347_rgbf000081-resize_1-target.png,1000,1.652,1,4236,1009,meters,jsons/v1_VE1000_randls_38_rotated.json,1117007,1965742,59,Woman
8,106816,DepthScenes,duration_manipulation_targetAtFixation,jsons/v1_VE1000_randls_38_rotated.json,http://54.235.29.9/FacialAge/BNav_EC2/DepthDuration/v2_depth_duration_MTurk/v2_DepthDuration_HTML.html#138,138,1366,625,1366,768,8-22-2022,5-4-25,9,depth_duration_stimuli/002805_2014-06-22_19-54-03_094959634447_rgbf000079-resize_1/002805_2014-06-22_19-54-03_094959634447_rgbf000079-resize_1-target.png,1000,3.1439999999999997,5,7787,1000,meters,jsons/v1_VE1000_randls_38_rotated.json,1117007,1965742,59,Woman
9,106816,DepthScenes,duration_manipulation_targetAtFixation,jsons/v1_VE1000_randls_38_rotated.json,http://54.235.29.9/FacialAge/BNav_EC2/DepthDuration/v2_depth_duration_MTurk/v2_DepthDuration_HTML.html#138,138,1366,625,1366,768,8-22-2022,5-4-25,10,depth_duration_stimuli/000906_2014-06-08_13-35-43_260595134347_rgbf000155-resize_1/000906_2014-06-08_13-35-43_260595134347_rgbf000155-resize_1-target.png,1000,2.8489999999999998,4,4339,1000,meters,jsons/v1_VE1000_randls_38_rotated.json,1117007,1965742,59,Woman
10,106816,DepthScenes,duration_manipulation_targetAtFixation,jsons/v1_VE1000_randls_38_rotated.json,http://54.235.29.9/FacialAge/BNav_EC2/DepthDuration/v2_depth_duration_MTurk/v2_DepthDuration_HTML.html#138,138,1366,625,1366,768,8-22-2022,5-4-25,11,depth_duration_stimuli/001392_2014-06-19_16-07-59_260595134347_rgbf000046-resize_1/001392_2014-06-19_16-07-59_260595134347_rgbf000046-resize_1-target.png,1000,4.135,4,7664,999,meters,jsons/v1_VE1000_randls_38_rotated.json,1117007,1965742,59,Woman
11,106816,DepthScenes,duration_manipulation_targetAtFixation,jsons/v1_VE1000_randls_38_rotated.json,http://54.235.29.9/FacialAge/BNav_EC2/DepthDuration/v2_depth_duration_MTurk/v2_DepthDuration_HTML.html#138,138,1366,625,1366,768,8-22-2022,5-4-25,12,depth_duration_stimuli/001570_2014-06-20_17-21-09_260595134347_rgbf000135-resize_4/001570_2014-06-20_17-21-09_260595134347_rgbf000135-resize_4-target.png,1000,4.467,3,6161,1006,meters,jsons/v1_VE1000_randls_38_rotated.json,1117007,1965742,59,Woman
12,106816,DepthScenes,duration_manipulation_targetAtFixation,jsons/v1_VE1000_randls_38_rotated.json,http://54.235.29.9/FacialAge/BNav_EC2/DepthDuration/v2_depth_duration_MTurk/v2_DepthDuration_HTML.html#138,138,1366,625,1366,768,8-22-2022,5-4-25,13,depth_duration_stimuli/002414_2014-06-28_20-24-58_260595134347_rgbf000067-resize_4/002414_2014-06-28_20-24-58_260595134347_rgbf000067-resize_4-target.png,1000,4.363,6,7708,1000,meters,jsons/v1_VE1000_randls_38_rotated.json,1117007,1965742,59,Woman
13,106816,DepthScenes,duration_manipulation_targetAtFixation,jsons/v1_VE1000_randls_38_rotated.json,http://54.235.29.9/FacialAge/BNav_EC2/DepthDuration/v2_depth_duration_MTurk/v2_DepthDuration_HTML.html#138,138,1366,625,1366,768,8-22-2022,5-4-25,14,depth_duration_stimuli/000773_2014-06-08_22-24-54_260595134347_rgbf000093-resize_1/000773_2014-06-08_22-24-54_260595134347_rgbf000093-resize_1-target.png,1000,4.973,4,5570,999,meters,jsons/v1_VE1000_randls_38_rotated.json,1117007,1965742,59,Woman
14,106816,DepthScenes,duration_manipulation_targetAtFixation,jsons/v1_VE1000_randls_38_rotated.json,http://54.235.29.9/FacialAge/BNav_EC2/DepthDuration/v2_depth_duration_MTurk/v2_DepthDuration_HTML.html#138,138,1366,625,1366,768,8-22-2022,5-4-25,15,depth_duration_stimuli/000866_2014-06-09_20-45-42_260595134347_rgbf000139-resize_1/000866_2014-06-09_20-45-42_260595134347_rgbf000139-resize_1-target.png,1000,3.2155,1,6604,1006,meters,jsons/v1_VE1000_randls_38_rotated.json,1117007,1965742,59,Woman
15,106816,DepthScenes,duration_manipulation_targetAtFixation,jsons/v1_VE1000_randls_38_rotated.json,http://54.235.29.9/FacialAge/BNav_EC2/DepthDuration/v2_depth_duration_MTurk/v2_DepthDuration_HTML.html#138,138,1366,625,1366,768,8-22-2022,5-4-25,16,depth_duration_stimuli/002989_2014-06-15_12-25-03_094959634447_rgbf000150-resize_3/002989_2014-06-15_12-25-03_094959634447_rgbf000150-resize_3-target.png,1000,4.1975,6,5438,1000,meters,jsons/v1_VE1000_randls_38_rotated.json,1117007,1965742,59,Woman
16,106816,DepthScenes,duration_manipulation_targetAtFixation,jsons/v1_VE1000_randls_38_rotated.json,http://54.235.29.9/FacialAge/BNav_EC2/DepthDuration/v2_depth_duration_MTurk/v2_DepthDuration_HTML.html#138,138,1366,625,1366,768,8-22-2022,5-4-25,17,depth_duration_stimuli/003083_2014-06-15_15-21-03_094959634447_rgbf000063-resize_1/003083_2014-06-15_15-21-03_094959634447_rgbf000063-resize_1-target.png,1000,4.1405,4,7317,1015,meters,jsons/v1_VE1000_randls_38_rotated.json,1117007,1965742,59,Woman
17,106816,DepthScenes,duration_manipulation_targetAtFixation,jsons/v1_VE1000_randls_38_rotated.json,http://54.235.29.9/FacialAge/BNav_EC2/DepthDuration/v2_depth_duration_MTurk/v2_DepthDuration_HTML.html#138,138,1366,625,1366,768,8-22-2022,5-4-25,18,depth_duration_stimuli/000486_2014-06-09_20-47-20_260595134347_rgbf000143-resize_2/000486_2014-06-09_20-47-20_260595134347_rgbf000143-resize_2-target.png,1000,4.8325,2,6528,1000,meters,jsons/v1_VE1000_randls_38_rotated.json,1117007,1965742,59,Woman
18,106816,DepthScenes,duration_manipulation_targetAtFixation,jsons/v1_VE1000_randls_38_rotated.json,http://54.235.29.9/FacialAge/BNav_EC2/DepthDuration/v2_depth_duration_MTurk/v2_DepthDuration_HTML.html#138,138,1366,625,1366,768,8-22-2022,5-4-25,19,depth_duration_stimuli/001498_2014-06-19_17-45-14_260595134347_rgbf000129-resize_4/001498_2014-06-19_17-45-14_260595134347_rgbf000129-resize-original.jpg,1000,1.4075,0,7713,1000,meters,jsons/v1_VE1000_randls_38_rotated.json,1117007,1965742,59,Woman
19,106816,DepthScenes,duration_manipulation_targetAtFixation,jsons/v1_VE1000_randls_38_rotated.json,http://54.235.29.9/FacialAge/BNav_EC2/DepthDuration/v2_depth_duration_MTurk/v2_DepthDuration_HTML.html#138,138,1366,625,1366,768,8-22-2022,5-4-25,20,depth_duration_stimuli/003495_2014-05-21_16-01-51_094959634447_rgbf000100-resize_3/003495_2014-05-21_16-01-51_094959634447_rgbf000100-resize_3-target.png,1000,1.6255,3,5644,1000,meters,jsons/v1_VE1000_randls_38_rotated.json,1117007,1965742,59,Woman
20,106816,DepthScenes,duration_manipulation_targetAtFixation,jsons/v1_VE1000_randls_38_rotated.json,http://54.235.29.9/FacialAge/BNav_EC2/DepthDuration/v2_depth_duration_MTurk/v2_DepthDuration_HTML.html#138,138,1366,625,1366,768,8-22-2022,5-4-25,21,depth_duration_stimuli/001244_2014-06-17_16-47-45_260595134347_rgbf000030-resize_4/001244_2014-06-17_16-47-45_260595134347_rgbf000030-resize_4-target.png,1000,2.0425,2,4147,999,meters,jsons/v1_VE1000_randls_38_rotated.json,1117007,1965742,59,Woman
21,106816,DepthScenes,duration_manipulation_targetAtFixation,jsons/v1_VE1000_randls_38_rotated.json,http://54.235.29.9/FacialAge/BNav_EC2/DepthDuration/v2_depth_duration_MTurk/v2_DepthDuration_HTML.html#138,138,1366,625,1366,768,8-22-2022,5-4-25,22,depth_duration_stimuli/002758_2014-06-22_19-11-20_094959634447_rgbf000128-resize_1/002758_2014-06-22_19-11-20_094959634447_rgbf000128-resize_1-target.png,1000,2.555,3,5707,1001,meters,jsons/v1_VE1000_randls_38_rotated.json,1117007,1965742,59,Woman
22,106816,DepthScenes,duration_manipulation_targetAtFixation,jsons/v1_VE1000_randls_38_rotated.json,http://54.235.29.9/FacialAge/BNav_EC2/DepthDuration/v2_depth_duration_MTurk/v2_DepthDuration_HTML.html#138,138,1366,625,1366,768,8-22-2022,5-4-25,23,depth_duration_stimuli/002630_2014-06-24_14-47-50_094959634447_rgbf000055-resize_1/002630_2014-06-24_14-47-50_094959634447_rgbf000055-resize_1-target.png,1000,3.0095,6,4370,1000,meters,jsons/v1_VE1000_randls_38_rotated.json,1117007,1965742,59,Woman
23,106816,DepthScenes,duration_manipulation_targetAtFixation,jsons/v1_VE1000_randls_38_rotated.json,http://54.235.29.9/FacialAge/BNav_EC2/DepthDuration/v2_depth_duration_MTurk/v2_DepthDuration_HTML.html#138,138,1366,625,1366,768,8-22-2022,5-4-25,24,depth_duration_stimuli/003129_2014-05-12_10-48-10_094959634447_rgbf000100-resize_0/003129_2014-05-12_10-48-10_094959634447_rgbf000100-resize_0-target.png,1000,4.9305,5,7044,1001,meters,jsons/v1_VE1000_randls_38_rotated.json,1117007,1965742,59,Woman
24,106816,DepthScenes,duration_manipulation_targetAtFixation,jsons/v1_VE1000_randls_38_rotated.json,http://54.235.29.9/FacialAge/BNav_EC2/DepthDuration/v2_depth_duration_MTurk/v2_DepthDuration_HTML.html#138,138,1366,625,1366,768,8-22-2022,5-4-25,25,depth_duration_stimuli/000414_2014-06-04_19-49-13_260595134347_rgbf000044-resize_0/000414_2014-06-04_19-49-13_260595134347_rgbf000044-resize_0-target.png,1000,4.329,10,5116,1000,meters,jsons/v1_VE1000_randls_38_rotated.json,1117007,1965742,59,Woman
25,106816,DepthScenes,duration_manipulation_targetAtFixation,jsons/v1_VE1000_randls_38_rotated.json,http://54.235.29.9/FacialAge/BNav_EC2/DepthDuration/v2_depth_duration_MTurk/v2_DepthDuration_HTML.html#138,138,1366,625,1366,768,8-22-2022,5-4-25,26,depth_duration_stimuli/002344_2014-06-28_20-06-29_260595134347_rgbf000030-resize_1/002344_2014-06-28_20-06-29_260595134347_rgbf000030-resize_1-target.png,1000,1.5795,5,5890,1000,meters,jsons/v1_VE1000_randls_38_rotated.json,1117007,1965742,59,Woman
26,106816,DepthScenes,duration_manipulation_targetAtFixation,jsons/v1_VE1000_randls_38_rotated.json,http://54.235.29.9/FacialAge/BNav_EC2/DepthDuration/v2_depth_duration_MTurk/v2_DepthDuration_HTML.html#138,138,1366,625,1366,768,8-22-2022,5-4-25,27,depth_duration_stimuli/002725_2014-06-22_11-47-51_094959634447_rgbf000070-resize_1/002725_2014-06-22_11-47-51_094959634447_rgbf000070-resize_1-target.png,1000,2.195,7,4315,1000,meters,jsons/v1_VE1000_randls_38_rotated.json,1117007,1965742,59,Woman
27,106816,DepthScenes,duration_manipulation_targetAtFixation,jsons/v1_VE1000_randls_38_rotated.json,http://54.235.29.9/FacialAge/BNav_EC2/DepthDuration/v2_depth_duration_MTurk/v2_DepthDuration_HTML.html#138,138,1366,625,1366,768,8-22-2022,5-4-25,28,depth_duration_stimuli/002678_2014-06-13_16-15-32_094959634447_rgbf000151-resize_6/002678_2014-06-13_16-15-32_094959634447_rgbf000151-resize_6-target.png,1000,2.1830000000000003,4,5889,1000,meters,jsons/v1_VE1000_randls_38_rotated.json,1117007,1965742,59,Woman
28,106816,DepthScenes,duration_manipulation_targetAtFixation,jsons/v1_VE1000_randls_38_rotated.json,http://54.235.29.9/FacialAge/BNav_EC2/DepthDuration/v2_depth_duration_MTurk/v2_DepthDuration_HTML.html#138,138,1366,625,1366,768,8-22-2022,5-4-25,29,depth_duration_stimuli/000368_2014-06-09_15-53-01_260595134347_rgbf000155-resize_2/000368_2014-06-09_15-53-01_260595134347_rgbf000155-resize_2-target.png,1000,2.4859999999999998,5,4341,998,meters,jsons/v1_VE1000_randls_38_rotated.json,1117007,1965742,59,Woman
29,106816,DepthScenes,duration_manipulation_targetAtFixation,jsons/v1_VE1000_randls_38_rotated.json,http://54.235.29.9/FacialAge/BNav_EC2/DepthDuration/v2_depth_duration_MTurk/v2_DepthDuration_HTML.html#138,138,1366,625,1366,768,8-22-2022,5-4-25,30,depth_duration_stimuli/002072_2014-06-24_21-48-06_260595134347_rgbf000115-resize_0/002072_2014-06-24_21-48-06_260595134347_rgbf000115-resize-original.jpg,1000,4.702,0,5761,999,meters,jsons/v1_VE1000_randls_38_rotated.json,1117007,1965742,59,Woman
30,106816,DepthScenes,duration_manipulation_targetAtFixation,jsons/v1_VE1000_randls_38_rotated.json,http://54.235.29.9/FacialAge/BNav_EC2/DepthDuration/v2_depth_duration_MTurk/v2_DepthDuration_HTML.html#138,138,1366,625,1366,768,8-22-2022,5-4-25,31,depth_duration_stimuli/000927_2014-06-09_16-32-30_260595134347_rgbf000123-resize_3/000927_2014-06-09_16-32-30_260595134347_rgbf000123-resize_3-target.png,1000,2.6785,6,6594,1000,meters,jsons/v1_VE1000_randls_38_rotated.json,1117007,1965742,59,Woman
31,106816,DepthScenes,duration_manipulation_targetAtFixation,jsons/v1_VE1000_randls_38_rotated.json,http://54.235.29.9/FacialAge/BNav_EC2/DepthDuration/v2_depth_duration_MTurk/v2_DepthDuration_HTML.html#138,138,1366,625,1366,768,8-22-2022,5-4-25,32,depth_duration_stimuli/001110_2014-06-15_17-25-28_260595134347_rgbf000150-resize_1/001110_2014-06-15_17-25-28_260595134347_rgbf000150-resize_1-target.png,1000,1.7115,2,5169,1000,meters,jsons/v1_VE1000_randls_38_rotated.json,1117007,1965742,59,Woman
32,106816,DepthScenes,duration_manipulation_targetAtFixation,jsons/v1_VE1000_randls_38_rotated.json,http://54.235.29.9/FacialAge/BNav_EC2/DepthDuration/v2_depth_duration_MTurk/v2_DepthDuration_HTML.html#138,138,1366,625,1366,768,8-22-2022,5-4-25,33,depth_duration_stimuli/003081_2014-06-15_15-19-16_094959634447_rgbf000150-resize_1/003081_2014-06-15_15-19-16_094959634447_rgbf000150-resize_1-target.png,1000,3.9125,4,8396,1001,meters,jsons/v1_VE1000_randls_38_rotated.json,1117007,1965742,59,Woman
33,106816,DepthScenes,duration_manipulation_targetAtFixation,jsons/v1_VE1000_randls_38_rotated.json,http://54.235.29.9/FacialAge/BNav_EC2/DepthDuration/v2_depth_duration_MTurk/v2_DepthDuration_HTML.html#138,138,1366,625,1366,768,8-22-2022,5-4-25,34,depth_duration_stimuli/001417_2014-06-19_16-25-36_260595134347_rgbf000115-resize_5/001417_2014-06-19_16-25-36_260595134347_rgbf000115-resize_5-target.png,1000,4.6255,8,7522,1000,meters,jsons/v1_VE1000_randls_38_rotated.json,1117007,1965742,59,Woman
34,106816,DepthScenes,duration_manipulation_targetAtFixation,jsons/v1_VE1000_randls_38_rotated.json,http://54.235.29.9/FacialAge/BNav_EC2/DepthDuration/v2_depth_duration_MTurk/v2_DepthDuration_HTML.html#138,138,1366,625,1366,768,8-22-2022,5-4-25,35,depth_duration_stimuli/002660_2014-06-13_15-44-18_094959634447_rgbf001878-resize_2/002660_2014-06-13_15-44-18_094959634447_rgbf001878-resize_2-target.png,1000,3.576,5,7384,998,meters,jsons/v1_VE1000_randls_38_rotated.json,1117007,1965742,59,Woman
35,106816,DepthScenes,duration_manipulation_targetAtFixation,jsons/v1_VE1000_randls_38_rotated.json,http://54.235.29.9/FacialAge/BNav_EC2/DepthDuration/v2_depth_duration_MTurk/v2_DepthDuration_HTML.html#138,138,1366,625,1366,768,8-22-2022,5-4-25,36,depth_duration_stimuli/002153_2014-06-25_21-27-18_260595134347_rgbf000038-resize_5/002153_2014-06-25_21-27-18_260595134347_rgbf000038-resize_5-target.png,1000,2.505,5,4539,1000,meters,jsons/v1_VE1000_randls_38_rotated.json,1117007,1965742,59,Woman
36,106816,DepthScenes,duration_manipulation_targetAtFixation,jsons/v1_VE1000_randls_38_rotated.json,http://54.235.29.9/FacialAge/BNav_EC2/DepthDuration/v2_depth_duration_MTurk/v2_DepthDuration_HTML.html#138,138,1366,625,1366,768,8-22-2022,5-4-25,37,depth_duration_stimuli/001100_2014-06-15_17-46-26_260595134347_rgbf000225-resize_2/001100_2014-06-15_17-46-26_260595134347_rgbf000225-resize_2-target.png,1000,2.24,2,5637,1000,meters,jsons/v1_VE1000_randls_38_rotated.json,1117007,1965742,59,Woman
37,106816,DepthScenes,duration_manipulation_targetAtFixation,jsons/v1_VE1000_randls_38_rotated.json,http://54.235.29.9/FacialAge/BNav_EC2/DepthDuration/v2_depth_duration_MTurk/v2_DepthDuration_HTML.html#138,138,1366,625,1366,768,8-22-2022,5-4-25,38,depth_duration_stimuli/002784_2014-06-22_19-26-30_094959634447_rgbf000083-resize_3/002784_2014-06-22_19-26-30_094959634447_rgbf000083-resize_3-target.png,1000,1.8046666666667,3,5314,1000,meters,jsons/v1_VE1000_randls_38_rotated.json,1117007,1965742,59,Woman
38,106816,DepthScenes,duration_manipulation_targetAtFixation,jsons/v1_VE1000_randls_38_rotated.json,http://54.235.29.9/FacialAge/BNav_EC2/DepthDuration/v2_depth_duration_MTurk/v2_DepthDuration_HTML.html#138,138,1366,625,1366,768,8-22-2022,5-4-25,39,depth_duration_stimuli/003338_2014-05-20_11-01-23_094959634447_rgbf000051-resize_6/003338_2014-05-20_11-01-23_094959634447_rgbf000051-resize_6-target.png,1000,1.693,3,5971,999,meters,jsons/v1_VE1000_randls_38_rotated.json,1117007,1965742,59,Woman
39,106816,DepthScenes,duration_manipulation_targetAtFixation,jsons/v1_VE1000_randls_38_rotated.json,http://54.235.29.9/FacialAge/BNav_EC2/DepthDuration/v2_depth_duration_MTurk/v2_DepthDuration_HTML.html#138,138,1366,625,1366,768,8-22-2022,5-4-25,40,depth_duration_stimuli/002509_2014-06-24_13-19-22_094959634447_rgbf000077-resize_0/002509_2014-06-24_13-19-22_094959634447_rgbf000077-resize_0-target.png,1000,1.3065,5,4331,1000,meters,jsons/v1_VE1000_randls_38_rotated.json,1117007,1965742,59,Woman
40,106816,DepthScenes,duration_manipulation_targetAtFixation,jsons/v1_VE1000_randls_38_rotated.json,http://54.235.29.9/FacialAge/BNav_EC2/DepthDuration/v2_depth_duration_MTurk/v2_DepthDuration_HTML.html#138,138,1366,625,1366,768,8-22-2022,5-4-25,41,depth_duration_stimuli/002209_2014-06-28_18-36-10_260595134347_rgbf000051-resize_1/002209_2014-06-28_18-36-10_260595134347_rgbf000051-resize_1-target.png,1000,2.057,6,6642,999,meters,jsons/v1_VE1000_randls_38_rotated.json,1117007,1965742,59,Woman
41,106816,DepthScenes,duration_manipulation_targetAtFixation,jsons/v1_VE1000_randls_38_rotated.json,http://54.235.29.9/FacialAge/BNav_EC2/DepthDuration/v2_depth_duration_MTurk/v2_DepthDuration_HTML.html#138,138,1366,625,1366,768,8-22-2022,5-4-25,42,depth_duration_stimuli/002763_2014-06-22_19-13-10_094959634447_rgbf000075-resize_4/002763_2014-06-22_19-13-10_094959634447_rgbf000075-resize_4-target.png,1000,1.68375,2,4515,1000,meters,jsons/v1_VE1000_randls_38_rotated.json,1117007,1965742,59,Woman
42,106816,DepthScenes,duration_manipulation_targetAtFixation,jsons/v1_VE1000_randls_38_rotated.json,http://54.235.29.9/FacialAge/BNav_EC2/DepthDuration/v2_depth_duration_MTurk/v2_DepthDuration_HTML.html#138,138,1366,625,1366,768,8-22-2022,5-4-25,43,depth_duration_stimuli/001032_2014-06-08_13-23-17_260595134347_rgbf000021-resize_3/001032_2014-06-08_13-23-17_260595134347_rgbf000021-resize_3-target.png,1000,3.2725,4,4738,999,meters,jsons/v1_VE1000_randls_38_rotated.json,1117007,1965742,59,Woman
43,106816,DepthScenes,duration_manipulation_targetAtFixation,jsons/v1_VE1000_randls_38_rotated.json,http://54.235.29.9/FacialAge/BNav_EC2/DepthDuration/v2_depth_duration_MTurk/v2_DepthDuration_HTML.html#138,138,1366,625,1366,768,8-22-2022,5-4-25,44,depth_duration_stimuli/001059_2014-06-08_21-53-27_260595134347_rgbf000061-resize_4/001059_2014-06-08_21-53-27_260595134347_rgbf000061-resize_4-target.png,1000,2.4185,6,3893,999,meters,jsons/v1_VE1000_randls_38_rotated.json,1117007,1965742,59,Woman
44,106816,DepthScenes,duration_manipulation_targetAtFixation,jsons/v1_VE1000_randls_38_rotated.json,http://54.235.29.9/FacialAge/BNav_EC2/DepthDuration/v2_depth_duration_MTurk/v2_DepthDuration_HTML.html#138,138,1366,625,1366,768,8-22-2022,5-4-25,45,depth_duration_stimuli/000943_2014-06-09_19-31-07_260595134347_rgbf000128-resize_1/000943_2014-06-09_19-31-07_260595134347_rgbf000128-resize_1-target.png,1000,1.9765,1,5220,999,meters,jsons/v1_VE1000_randls_38_rotated.json,1117007,1965742,59,Woman
45,106816,DepthScenes,duration_manipulation_targetAtFixation,jsons/v1_VE1000_randls_38_rotated.json,http://54.235.29.9/FacialAge/BNav_EC2/DepthDuration/v2_depth_duration_MTurk/v2_DepthDuration_HTML.html#138,138,1366,625,1366,768,8-22-2022,5-4-25,46,depth_duration_stimuli/003070_2014-06-15_14-58-27_094959634447_rgbf000150-resize_3/003070_2014-06-15_14-58-27_094959634447_rgbf000150-resize_3-target.png,1000,2.9415,5,4353,999,meters,jsons/v1_VE1000_randls_38_rotated.json,1117007,1965742,59,Woman
46,106816,DepthScenes,duration_manipulation_targetAtFixation,jsons/v1_VE1000_randls_38_rotated.json,http://54.235.29.9/FacialAge/BNav_EC2/DepthDuration/v2_depth_duration_MTurk/v2_DepthDuration_HTML.html#138,138,1366,625,1366,768,8-22-2022,5-4-25,47,depth_duration_stimuli/000734_2014-06-08_17-39-11_260595134347_rgbf000128-resize_2/000734_2014-06-08_17-39-11_260595134347_rgbf000128-resize_2-target.png,1000,4.098,3,6801,1000,meters,jsons/v1_VE1000_randls_38_rotated.json,1117007,1965742,59,Woman
47,106816,DepthScenes,duration_manipulation_targetAtFixation,jsons/v1_VE1000_randls_38_rotated.json,http://54.235.29.9/FacialAge/BNav_EC2/DepthDuration/v2_depth_duration_MTurk/v2_DepthDuration_HTML.html#138,138,1366,625,1366,768,8-22-2022,5-4-25,48,depth_duration_stimuli/000739_2014-06-08_18-45-58_260595134347_rgbf000068-resize_1/000739_2014-06-08_18-45-58_260595134347_rgbf000068-resize_1-target.png,1000,3.534,5,6003,1000,meters,jsons/v1_VE1000_randls_38_rotated.json,1117007,1965742,59,Woman
48,106816,DepthScenes,duration_manipulation_targetAtFixation,jsons/v1_VE1000_randls_38_rotated.json,http://54.235.29.9/FacialAge/BNav_EC2/DepthDuration/v2_depth_duration_MTurk/v2_DepthDuration_HTML.html#138,138,1366,625,1366,768,8-22-2022,5-4-25,49,depth_duration_stimuli/001170_2014-06-17_15-43-44_260595134347_rgbf000096-resize_6/001170_2014-06-17_15-43-44_260595134347_rgbf000096-resize-original.jpg,1000,1.1909999999999998,0,5963,1000,meters,jsons/v1_VE1000_randls_38_rotated.json,1117007,1965742,59,Woman
49,106816,DepthScenes,duration_manipulation_targetAtFixation,jsons/v1_VE1000_randls_38_rotated.json,http://54.235.29.9/FacialAge/BNav_EC2/DepthDuration/v2_depth_duration_MTurk/v2_DepthDuration_HTML.html#138,138,1366,625,1366,768,8-22-2022,5-4-25,50,depth_duration_stimuli/000854_2014-06-09_19-43-13_260595134347_rgbf000066-resize_0/000854_2014-06-09_19-43-13_260595134347_rgbf000066-resize_0-target.png,1000,3.068,2,6869,1001,meters,jsons/v1_VE1000_randls_38_rotated.json,1117007,1965742,59,Woman
50,106816,DepthScenes,duration_manipulation_targetAtFixation,jsons/v1_VE1000_randls_38_rotated.json,http://54.235.29.9/FacialAge/BNav_EC2/DepthDuration/v2_depth_duration_MTurk/v2_DepthDuration_HTML.html#138,138,1366,625,1366,768,8-22-2022,5-4-25,51,depth_duration_stimuli/000758_2014-06-08_22-05-08_260595134347_rgbf000085-resize_0/000758_2014-06-08_22-05-08_260595134347_rgbf000085-resize_0-target.png,1000,3.3810000000000002,7,4173,1000,meters,jsons/v1_VE1000_randls_38_rotated.json,1117007,1965742,59,Woman
51,106816,DepthScenes,duration_manipulation_targetAtFixation,jsons/v1_VE1000_randls_38_rotated.json,http://54.235.29.9/FacialAge/BNav_EC2/DepthDuration/v2_depth_duration_MTurk/v2_DepthDuration_HTML.html#138,138,1366,625,1366,768,8-22-2022,5-4-25,52,depth_duration_stimuli/003490_2014-05-21_15-50-11_094959634447_rgbf000101-resize_3/003490_2014-05-21_15-50-11_094959634447_rgbf000101-resize_3-target.png,1000,3.6445,8,5898,1001,meters,jsons/v1_VE1000_randls_38_rotated.json,1117007,1965742,59,Woman
52,106816,DepthScenes,duration_manipulation_targetAtFixation,jsons/v1_VE1000_randls_38_rotated.json,http://54.235.29.9/FacialAge/BNav_EC2/DepthDuration/v2_depth_duration_MTurk/v2_DepthDuration_HTML.html#138,138,1366,625,1366,768,8-22-2022,5-4-25,53,depth_duration_stimuli/001175_2014-06-17_15-45-55_260595134347_rgbf000129-resize_4/001175_2014-06-17_15-45-55_260595134347_rgbf000129-resize_4-target.png,1000,4.255,12,4571,1000,meters,jsons/v1_VE1000_randls_38_rotated.json,1117007,1965742,59,Woman
53,106816,DepthScenes,duration_manipulation_targetAtFixation,jsons/v1_VE1000_randls_38_rotated.json,http://54.235.29.9/FacialAge/BNav_EC2/DepthDuration/v2_depth_duration_MTurk/v2_DepthDuration_HTML.html#138,138,1366,625,1366,768,8-22-2022,5-4-25,54,depth_duration_stimuli/000556_2014-06-09_22-42-56_260595134347_rgbf000214-resize_1/000556_2014-06-09_22-42-56_260595134347_rgbf000214-resize_1-target.png,1000,4.8415,10,6604,999,meters,jsons/v1_VE1000_randls_38_rotated.json,1117007,1965742,59,Woman
54,106816,DepthScenes,duration_manipulation_targetAtFixation,jsons/v1_VE1000_randls_38_rotated.json,http://54.235.29.9/FacialAge/BNav_EC2/DepthDuration/v2_depth_duration_MTurk/v2_DepthDuration_HTML.html#138,138,1366,625,1366,768,8-22-2022,5-4-25,55,depth_duration_stimuli/001158_2014-06-17_15-32-16_260595134347_rgbf000138-resize_2/001158_2014-06-17_15-32-16_260595134347_rgbf000138-resize_2-target.png,1000,4.5315,15,4619,998,meters,jsons/v1_VE1000_randls_38_rotated.json,1117007,1965742,59,Woman
55,106816,DepthScenes,duration_manipulation_targetAtFixation,jsons/v1_VE1000_randls_38_rotated.json,http://54.235.29.9/FacialAge/BNav_EC2/DepthDuration/v2_depth_duration_MTurk/v2_DepthDuration_HTML.html#138,138,1366,625,1366,768,8-22-2022,5-4-25,56,depth_duration_stimuli/001650_2014-06-20_12-09-00_260595134347_rgbf000087-resize_3/001650_2014-06-20_12-09-00_260595134347_rgbf000087-resize_3-target.png,1000,1.9505,2,5696,999,meters,jsons/v1_VE1000_randls_38_rotated.json,1117007,1965742,59,Woman
56,106816,DepthScenes,duration_manipulation_targetAtFixation,jsons/v1_VE1000_randls_38_rotated.json,http://54.235.29.9/FacialAge/BNav_EC2/DepthDuration/v2_depth_duration_MTurk/v2_DepthDuration_HTML.html#138,138,1366,625,1366,768,8-22-2022,5-4-25,57,depth_duration_stimuli/000682_2014-06-08_23-14-58_260595134347_rgbf000041-resize_5/000682_2014-06-08_23-14-58_260595134347_rgbf000041-resize_5-target.png,1000,2.7239999999999998,6,4098,1000,meters,jsons/v1_VE1000_randls_38_rotated.json,1117007,1965742,59,Woman
57,106816,DepthScenes,duration_manipulation_targetAtFixation,jsons/v1_VE1000_randls_38_rotated.json,http://54.235.29.9/FacialAge/BNav_EC2/DepthDuration/v2_depth_duration_MTurk/v2_DepthDuration_HTML.html#138,138,1366,625,1366,768,8-22-2022,5-4-25,58,depth_duration_stimuli/002953_2014-06-08_17-32-18_094959634447_rgbf000059-resize_5/002953_2014-06-08_17-32-18_094959634447_rgbf000059-resize_5-target.png,1000,1.551,3,5820,1001,meters,jsons/v1_VE1000_randls_38_rotated.json,1117007,1965742,59,Woman
58,106816,DepthScenes,duration_manipulation_targetAtFixation,jsons/v1_VE1000_randls_38_rotated.json,http://54.235.29.9/FacialAge/BNav_EC2/DepthDuration/v2_depth_duration_MTurk/v2_DepthDuration_HTML.html#138,138,1366,625,1366,768,8-22-2022,5-4-25,59,depth_duration_stimuli/000878_2014-06-08_22-52-45_260595134347_rgbf000045-resize_2/000878_2014-06-08_22-52-45_260595134347_rgbf000045-resize_2-target.png,1000,2.092,6,3843,1000,meters,jsons/v1_VE1000_randls_38_rotated.json,1117007,1965742,59,Woman
59,106816,DepthScenes,duration_manipulation_targetAtFixation,jsons/v1_VE1000_randls_38_rotated.json,http://54.235.29.9/FacialAge/BNav_EC2/DepthDuration/v2_depth_duration_MTurk/v2_DepthDuration_HTML.html#138,138,1366,625,1366,768,8-22-2022,5-4-25,60,depth_duration_stimuli/002568_2014-06-24_13-59-21_094959634447_rgbf000062-resize_4/002568_2014-06-24_13-59-21_094959634447_rgbf000062-resize_4-target.png,1000,3.015,8,5587,1000,meters,jsons/v1_VE1000_randls_38_rotated.json,1117007,1965742,59,Woman
60,106816,DepthScenes,duration_manipulation_targetAtFixation,jsons/v1_VE1000_randls_38_rotated.json,http://54.235.29.9/FacialAge/BNav_EC2/DepthDuration/v2_depth_duration_MTurk/v2_DepthDuration_HTML.html#138,138,1366,625,1366,768,8-22-2022,5-4-25,61,depth_duration_stimuli/003492_2014-05-21_15-50-55_094959634447_rgbf000828-resize_1/003492_2014-05-21_15-50-55_094959634447_rgbf000828-resize_1-target.png,1000,4.06875,10,5282,1000,meters,jsons/v1_VE1000_randls_38_rotated.json,1117007,1965742,59,Woman
61,106816,DepthScenes,duration_manipulation_targetAtFixation,jsons/v1_VE1000_randls_38_rotated.json,http://54.235.29.9/FacialAge/BNav_EC2/DepthDuration/v2_depth_duration_MTurk/v2_DepthDuration_HTML.html#138,138,1366,625,1366,768,8-22-2022,5-4-25,62,depth_duration_stimuli/000409_2014-06-04_19-23-33_260595134347_rgbf000067-resize_0/000409_2014-06-04_19-23-33_260595134347_rgbf000067-resize_0-target.png,1000,3.7335,8,5708,1001,meters,jsons/v1_VE1000_randls_38_rotated.json,1117007,1965742,59,Woman
62,106816,DepthScenes,duration_manipulation_targetAtFixation,jsons/v1_VE1000_randls_38_rotated.json,http://54.235.29.9/FacialAge/BNav_EC2/DepthDuration/v2_depth_duration_MTurk/v2_DepthDuration_HTML.html#138,138,1366,625,1366,768,8-22-2022,5-4-25,63,depth_duration_stimuli/002663_2014-06-13_15-50-26_094959634447_rgbf000075-resize_1/002663_2014-06-13_15-50-26_094959634447_rgbf000075-resize_1-target.png,1000,4.7495,12,4868,999,meters,jsons/v1_VE1000_randls_38_rotated.json,1117007,1965742,59,Woman
63,106816,DepthScenes,duration_manipulation_targetAtFixation,jsons/v1_VE1000_randls_38_rotated.json,http://54.235.29.9/FacialAge/BNav_EC2/DepthDuration/v2_depth_duration_MTurk/v2_DepthDuration_HTML.html#138,138,1366,625,1366,768,8-22-2022,5-4-25,64,depth_duration_stimuli/000709_2014-06-08_13-51-55_260595134347_rgbf000068-resize_3/000709_2014-06-08_13-51-55_260595134347_rgbf000068-resize_3-target.png,1000,1.8030000000000002,5,5524,1000,meters,jsons/v1_VE1000_randls_38_rotated.json,1117007,1965742,59,Woman
64,106816,DepthScenes,duration_manipulation_targetAtFixation,jsons/v1_VE1000_randls_38_rotated.json,http://54.235.29.9/FacialAge/BNav_EC2/DepthDuration/v2_depth_duration_MTurk/v2_DepthDuration_HTML.html#138,138,1366,625,1366,768,8-22-2022,5-4-25,65,depth_duration_stimuli/002057_2014-06-24_21-00-13_260595134347_rgbf000120-resize_1/002057_2014-06-24_21-00-13_260595134347_rgbf000120-resize_1-target.png,1000,2.967,9,5233,992,meters,jsons/v1_VE1000_randls_38_rotated.json,1117007,1965742,59,Woman
65,106816,DepthScenes,duration_manipulation_targetAtFixation,jsons/v1_VE1000_randls_38_rotated.json,http://54.235.29.9/FacialAge/BNav_EC2/DepthDuration/v2_depth_duration_MTurk/v2_DepthDuration_HTML.html#138,138,1366,625,1366,768,8-22-2022,5-4-25,66,depth_duration_stimuli/001540_2014-06-20_17-01-05_260595134347_rgbf000086-resize_2/001540_2014-06-20_17-01-05_260595134347_rgbf000086-resize-original.jpg,1000,1.459,0,6219,1000,meters,jsons/v1_VE1000_randls_38_rotated.json,1117007,1965742,59,Woman
66,106816,DepthScenes,duration_manipulation_targetAtFixation,jsons/v1_VE1000_randls_38_rotated.json,http://54.235.29.9/FacialAge/BNav_EC2/DepthDuration/v2_depth_duration_MTurk/v2_DepthDuration_HTML.html#138,138,1366,625,1366,768,8-22-2022,5-4-25,67,depth_duration_stimuli/002467_2014-06-28_20-38-07_260595134347_rgbf000026-resize_2/002467_2014-06-28_20-38-07_260595134347_rgbf000026-resize_2-target.png,1000,4.742,5,6284,999,meters,jsons/v1_VE1000_randls_38_rotated.json,1117007,1965742,59,Woman
67,106816,DepthScenes,duration_manipulation_targetAtFixation,jsons/v1_VE1000_randls_38_rotated.json,http://54.235.29.9/FacialAge/BNav_EC2/DepthDuration/v2_depth_duration_MTurk/v2_DepthDuration_HTML.html#138,138,1366,625,1366,768,8-22-2022,5-4-25,68,depth_duration_stimuli/002570_2014-06-24_13-59-54_094959634447_rgbf000059-resize_0/002570_2014-06-24_13-59-54_094959634447_rgbf000059-resize_0-target.png,1000,4.037,9,4713,1000,meters,jsons/v1_VE1000_randls_38_rotated.json,1117007,1965742,59,Woman
68,106816,DepthScenes,duration_manipulation_targetAtFixation,jsons/v1_VE1000_randls_38_rotated.json,http://54.235.29.9/FacialAge/BNav_EC2/DepthDuration/v2_depth_duration_MTurk/v2_DepthDuration_HTML.html#138,138,1366,625,1366,768,8-22-2022,5-4-25,69,depth_duration_stimuli/003048_2014-06-15_13-49-43_094959634447_rgbf000150-resize_1/003048_2014-06-15_13-49-43_094959634447_rgbf000150-resize_1-target.png,1000,4.0035,10,5940,999,meters,jsons/v1_VE1000_randls_38_rotated.json,1117007,1965742,59,Woman
69,106816,DepthScenes,duration_manipulation_targetAtFixation,jsons/v1_VE1000_randls_38_rotated.json,http://54.235.29.9/FacialAge/BNav_EC2/DepthDuration/v2_depth_duration_MTurk/v2_DepthDuration_HTML.html#138,138,1366,625,1366,768,8-22-2022,5-4-25,70,depth_duration_stimuli/002043_2014-06-24_20-29-38_260595134347_rgbf000039-resize_4/002043_2014-06-24_20-29-38_260595134347_rgbf000039-resize_4-target.png,1000,2.8435,6,4154,1000,meters,jsons/v1_VE1000_randls_38_rotated.json,1117007,1965742,59,Woman
70,106816,DepthScenes,duration_manipulation_targetAtFixation,jsons/v1_VE1000_randls_38_rotated.json,http://54.235.29.9/FacialAge/BNav_EC2/DepthDuration/v2_depth_duration_MTurk/v2_DepthDuration_HTML.html#138,138,1366,625,1366,768,8-22-2022,5-4-25,71,depth_duration_stimuli/000549_2014-06-08_22-10-24_260595134347_rgbf000247-resize_3/000549_2014-06-08_22-10-24_260595134347_rgbf000247-resize_3-target.png,1000,1.841,4,5140,1000,meters,jsons/v1_VE1000_randls_38_rotated.json,1117007,1965742,59,Woman
71,106816,DepthScenes,duration_manipulation_targetAtFixation,jsons/v1_VE1000_randls_38_rotated.json,http://54.235.29.9/FacialAge/BNav_EC2/DepthDuration/v2_depth_duration_MTurk/v2_DepthDuration_HTML.html#138,138,1366,625,1366,768,8-22-2022,5-4-25,72,depth_duration_stimuli/001055_2014-06-08_18-45-35_260595134347_rgbf000111-resize_4/001055_2014-06-08_18-45-35_260595134347_rgbf000111-resize_4-target.png,1000,2.4290000000000003,3,5057,1001,meters,jsons/v1_VE1000_randls_38_rotated.json,1117007,1965742,59,Woman
72,106816,DepthScenes,duration_manipulation_targetAtFixation,jsons/v1_VE1000_randls_38_rotated.json,http://54.235.29.9/FacialAge/BNav_EC2/DepthDuration/v2_depth_duration_MTurk/v2_DepthDuration_HTML.html#138,138,1366,625,1366,768,8-22-2022,5-4-25,73,depth_duration_stimuli/001132_2014-06-17_14-48-54_260595134347_rgbf000100-resize_2/001132_2014-06-17_14-48-54_260595134347_rgbf000100-resize_2-target.png,1000,3.753,5,4916,1001,meters,jsons/v1_VE1000_randls_38_rotated.json,1117007,1965742,59,Woman
73,106816,DepthScenes,duration_manipulation_targetAtFixation,jsons/v1_VE1000_randls_38_rotated.json,http://54.235.29.9/FacialAge/BNav_EC2/DepthDuration/v2_depth_duration_MTurk/v2_DepthDuration_HTML.html#138,138,1366,625,1366,768,8-22-2022,5-4-25,74,depth_duration_stimuli/001133_2014-06-17_14-49-16_260595134347_rgbf000100-resize_0/001133_2014-06-17_14-49-16_260595134347_rgbf000100-resize_0-target.png,1000,4.2115,8,4275,999,meters,jsons/v1_VE1000_randls_38_rotated.json,1117007,1965742,59,Woman
74,106816,DepthScenes,duration_manipulation_targetAtFixation,jsons/v1_VE1000_randls_38_rotated.json,http://54.235.29.9/FacialAge/BNav_EC2/DepthDuration/v2_depth_duration_MTurk/v2_DepthDuration_HTML.html#138,138,1366,625,1366,768,8-22-2022,5-4-25,75,depth_duration_stimuli/001094_2014-06-15_17-36-00_260595134347_rgbf000205-resize_0/001094_2014-06-15_17-36-00_260595134347_rgbf000205-resize_0-target.png,1000,4.2175,10,6978,1000,meters,jsons/v1_VE1000_randls_38_rotated.json,1117007,1965742,59,Woman
75,106816,DepthScenes,duration_manipulation_targetAtFixation,jsons/v1_VE1000_randls_38_rotated.json,http://54.235.29.9/FacialAge/BNav_EC2/DepthDuration/v2_depth_duration_MTurk/v2_DepthDuration_HTML.html#138,138,1366,625,1366,768,8-22-2022,5-4-25,76,depth_duration_stimuli/000692_2014-06-08_13-09-42_260595134347_rgbf000199-resize_2/000692_2014-06-08_13-09-42_260595134347_rgbf000199-resize_2-target.png,1000,3.661,0,6131,1000,meters,jsons/v1_VE1000_randls_38_rotated.json,1117007,1965742,59,Woman
76,106816,DepthScenes,duration_manipulation_targetAtFixation,jsons/v1_VE1000_randls_38_rotated.json,http://54.235.29.9/FacialAge/BNav_EC2/DepthDuration/v2_depth_duration_MTurk/v2_DepthDuration_HTML.html#138,138,1366,625,1366,768,8-22-2022,5-4-25,77,depth_duration_stimuli/002750_2014-06-22_19-08-03_094959634447_rgbf000094-resize_4/002750_2014-06-22_19-08-03_094959634447_rgbf000094-resize_4-target.png,1000,2.354,6,5348,1000,meters,jsons/v1_VE1000_randls_38_rotated.json,1117007,1965742,59,Woman
77,106816,DepthScenes,duration_manipulation_targetAtFixation,jsons/v1_VE1000_randls_38_rotated.json,http://54.235.29.9/FacialAge/BNav_EC2/DepthDuration/v2_depth_duration_MTurk/v2_DepthDuration_HTML.html#138,138,1366,625,1366,768,8-22-2022,5-4-25,78,depth_duration_stimuli/002549_2014-06-24_13-41-39_094959634447_rgbf000022-resize_3/002549_2014-06-24_13-41-39_094959634447_rgbf000022-resize_3-target.png,1000,1.476,5,11892,1001,meters,jsons/v1_VE1000_randls_38_rotated.json,1117007,1965742,59,Woman
78,106816,DepthScenes,duration_manipulation_targetAtFixation,jsons/v1_VE1000_randls_38_rotated.json,http://54.235.29.9/FacialAge/BNav_EC2/DepthDuration/v2_depth_duration_MTurk/v2_DepthDuration_HTML.html#138,138,1366,625,1366,768,8-22-2022,5-4-25,79,depth_duration_stimuli/002995_2014-06-15_12-31-26_094959634447_rgbf000150-resize_1/002995_2014-06-15_12-31-26_094959634447_rgbf000150-resize_1-target.png,1000,3.8360000000000003,10,6514,1000,meters,jsons/v1_VE1000_randls_38_rotated.json,1117007,1965742,59,Woman
79,106816,DepthScenes,duration_manipulation_targetAtFixation,jsons/v1_VE1000_randls_38_rotated.json,http://54.235.29.9/FacialAge/BNav_EC2/DepthDuration/v2_depth_duration_MTurk/v2_DepthDuration_HTML.html#138,138,1366,625,1366,768,8-22-2022,5-4-25,80,depth_duration_stimuli/002748_2014-06-22_19-07-22_094959634447_rgbf000078-resize_1/002748_2014-06-22_19-07-22_094959634447_rgbf000078-resize_1-target.png,1000,4.6705,12,4619,1000,meters,jsons/v1_VE1000_randls_38_rotated.json,1117007,1965742,59,Woman
80,106816,DepthScenes,duration_manipulation_targetAtFixation,jsons/v1_VE1000_randls_38_rotated.json,http://54.235.29.9/FacialAge/BNav_EC2/DepthDuration/v2_depth_duration_MTurk/v2_DepthDuration_HTML.html#138,138,1366,625,1366,768,8-22-2022,5-4-25,81,depth_duration_stimuli/003010_2014-06-15_12-54-35_094959634447_rgbf000112-resize_0/003010_2014-06-15_12-54-35_094959634447_rgbf000112-resize_0-target.png,1000,3.1185,8,6116,1000,meters,jsons/v1_VE1000_randls_38_rotated.json,1117007,1965742,59,Woman
81,106816,DepthScenes,duration_manipulation_targetAtFixation,jsons/v1_VE1000_randls_38_rotated.json,http://54.235.29.9/FacialAge/BNav_EC2/DepthDuration/v2_depth_duration_MTurk/v2_DepthDuration_HTML.html#138,138,1366,625,1366,768,8-22-2022,5-4-25,82,depth_duration_stimuli/001810_2014-06-26_20-51-35_260595134347_rgbf000040-resize_3/001810_2014-06-26_20-51-35_260595134347_rgbf000040-resize_3-target.png,1000,2.2525,4,5114,999,meters,jsons/v1_VE1000_randls_38_rotated.json,1117007,1965742,59,Woman
82,106816,DepthScenes,duration_manipulation_targetAtFixation,jsons/v1_VE1000_randls_38_rotated.json,http://54.235.29.9/FacialAge/BNav_EC2/DepthDuration/v2_depth_duration_MTurk/v2_DepthDuration_HTML.html#138,138,1366,625,1366,768,8-22-2022,5-4-25,83,depth_duration_stimuli/002323_2014-06-28_20-01-54_260595134347_rgbf000051-resize_4/002323_2014-06-28_20-01-54_260595134347_rgbf000051-resize_4-target.png,1000,3.7310000000000003,10,6612,1000,meters,jsons/v1_VE1000_randls_38_rotated.json,1117007,1965742,59,Woman
83,106816,DepthScenes,duration_manipulation_targetAtFixation,jsons/v1_VE1000_randls_38_rotated.json,http://54.235.29.9/FacialAge/BNav_EC2/DepthDuration/v2_depth_duration_MTurk/v2_DepthDuration_HTML.html#138,138,1366,625,1366,768,8-22-2022,5-4-25,84,depth_duration_stimuli/000917_2014-06-09_22-45-29_260595134347_rgbf000149-resize_3/000917_2014-06-09_22-45-29_260595134347_rgbf000149-resize_3-target.png,1000,4.1865,9,4907,1001,meters,jsons/v1_VE1000_randls_38_rotated.json,1117007,1965742,59,Woman
84,106816,DepthScenes,duration_manipulation_targetAtFixation,jsons/v1_VE1000_randls_38_rotated.json,http://54.235.29.9/FacialAge/BNav_EC2/DepthDuration/v2_depth_duration_MTurk/v2_DepthDuration_HTML.html#138,138,1366,625,1366,768,8-22-2022,5-4-25,85,depth_duration_stimuli/003228_2014-05-14_13-42-35_094959634447_rgbf000101-resize_1/003228_2014-05-14_13-42-35_094959634447_rgbf000101-resize_1-target.png,1000,1.9680000000000002,5,5681,1000,meters,jsons/v1_VE1000_randls_38_rotated.json,1117007,1965742,59,Woman
85,106816,DepthScenes,duration_manipulation_targetAtFixation,jsons/v1_VE1000_randls_38_rotated.json,http://54.235.29.9/FacialAge/BNav_EC2/DepthDuration/v2_depth_duration_MTurk/v2_DepthDuration_HTML.html#138,138,1366,625,1366,768,8-22-2022,5-4-25,86,depth_duration_stimuli/002600_2014-06-24_14-27-04_094959634447_rgbf000074-resize_2/002600_2014-06-24_14-27-04_094959634447_rgbf000074-resize_2-target.png,1000,2.7575,15,4979,1000,meters,jsons/v1_VE1000_randls_38_rotated.json,1117007,1965742,59,Woman
86,106816,DepthScenes,duration_manipulation_targetAtFixation,jsons/v1_VE1000_randls_38_rotated.json,http://54.235.29.9/FacialAge/BNav_EC2/DepthDuration/v2_depth_duration_MTurk/v2_DepthDuration_HTML.html#138,138,1366,625,1366,768,8-22-2022,5-4-25,87,depth_duration_stimuli/000457_2014-06-08_16-52-43_260595134347_rgbf000199-resize_1/000457_2014-06-08_16-52-43_260595134347_rgbf000199-resize_1-target.png,1000,3.6489999999999996,8,6754,998,meters,jsons/v1_VE1000_randls_38_rotated.json,1117007,1965742,59,Woman
87,106816,DepthScenes,duration_manipulation_targetAtFixation,jsons/v1_VE1000_randls_38_rotated.json,http://54.235.29.9/FacialAge/BNav_EC2/DepthDuration/v2_depth_duration_MTurk/v2_DepthDuration_HTML.html#138,138,1366,625,1366,768,8-22-2022,5-4-25,88,depth_duration_stimuli/000929_2014-06-09_16-33-19_260595134347_rgbf000139-resize_0/000929_2014-06-09_16-33-19_260595134347_rgbf000139-resize_0-target.png,1000,2.8680000000000003,7,4741,1000,meters,jsons/v1_VE1000_randls_38_rotated.json,1117007,1965742,59,Woman
88,106816,DepthScenes,duration_manipulation_targetAtFixation,jsons/v1_VE1000_randls_38_rotated.json,http://54.235.29.9/FacialAge/BNav_EC2/DepthDuration/v2_depth_duration_MTurk/v2_DepthDuration_HTML.html#138,138,1366,625,1366,768,8-22-2022,5-4-25,89,depth_duration_stimuli/001571_2014-06-20_17-21-32_260595134347_rgbf000089-resize_1/001571_2014-06-20_17-21-32_260595134347_rgbf000089-resize_1-target.png,1000,1.86,4,5921,999,meters,jsons/v1_VE1000_randls_38_rotated.json,1117007,1965742,59,Woman
89,106816,DepthScenes,duration_manipulation_targetAtFixation,jsons/v1_VE1000_randls_38_rotated.json,http://54.235.29.9/FacialAge/BNav_EC2/DepthDuration/v2_depth_duration_MTurk/v2_DepthDuration_HTML.html#138,138,1366,625,1366,768,8-22-2022,5-4-25,90,depth_duration_stimuli/002272_2014-06-28_18-53-56_260595134347_rgbf000067-resize_2/002272_2014-06-28_18-53-56_260595134347_rgbf000067-resize_2-target.png,1000,1.138,3,4428,1000,meters,jsons/v1_VE1000_randls_38_rotated.json,1117007,1965742,59,Woman
90,106816,DepthScenes,duration_manipulation_targetAtFixation,jsons/v1_VE1000_randls_38_rotated.json,http://54.235.29.9/FacialAge/BNav_EC2/DepthDuration/v2_depth_duration_MTurk/v2_DepthDuration_HTML.html#138,138,1366,625,1366,768,8-22-2022,5-4-25,91,depth_duration_stimuli/003423_2014-05-21_10-23-26_094959634447_rgbf002665-resize_2/003423_2014-05-21_10-23-26_094959634447_rgbf002665-resize_2-target.png,1000,3.2575,6,6707,1000,meters,jsons/v1_VE1000_randls_38_rotated.json,1117007,1965742,59,Woman
91,106816,DepthScenes,duration_manipulation_targetAtFixation,jsons/v1_VE1000_randls_38_rotated.json,http://54.235.29.9/FacialAge/BNav_EC2/DepthDuration/v2_depth_duration_MTurk/v2_DepthDuration_HTML.html#138,138,1366,625,1366,768,8-22-2022,5-4-25,92,depth_duration_stimuli/002905_2014-06-03_18-04-43_094959634447_rgbf000151-resize_2/002905_2014-06-03_18-04-43_094959634447_rgbf000151-resize_2-target.png,1000,2.0295,5,18154,1000,meters,jsons/v1_VE1000_randls_38_rotated.json,1117007,1965742,59,Woman
92,106816,DepthScenes,duration_manipulation_targetAtFixation,jsons/v1_VE1000_randls_38_rotated.json,http://54.235.29.9/FacialAge/BNav_EC2/DepthDuration/v2_depth_duration_MTurk/v2_DepthDuration_HTML.html#138,138,1366,625,1366,768,8-22-2022,5-4-25,93,depth_duration_stimuli/002637_2014-06-24_14-51-13_094959634447_rgbf000066-resize_4/002637_2014-06-24_14-51-13_094959634447_rgbf000066-resize_4-target.png,1000,1.9955,5,5771,1001,meters,jsons/v1_VE1000_randls_38_rotated.json,1117007,1965742,59,Woman
93,106816,DepthScenes,duration_manipulation_targetAtFixation,jsons/v1_VE1000_randls_38_rotated.json,http://54.235.29.9/FacialAge/BNav_EC2/DepthDuration/v2_depth_duration_MTurk/v2_DepthDuration_HTML.html#138,138,1366,625,1366,768,8-22-2022,5-4-25,94,depth_duration_stimuli/003534_2014-05-22_15-06-10_094959634447_rgbf000102-resize_4/003534_2014-05-22_15-06-10_094959634447_rgbf000102-resize_4-target.png,1000,1.426,3,4540,1001,meters,jsons/v1_VE1000_randls_38_rotated.json,1117007,1965742,59,Woman
94,106816,DepthScenes,duration_manipulation_targetAtFixation,jsons/v1_VE1000_randls_38_rotated.json,http://54.235.29.9/FacialAge/BNav_EC2/DepthDuration/v2_depth_duration_MTurk/v2_DepthDuration_HTML.html#138,138,1366,625,1366,768,8-22-2022,5-4-25,95,depth_duration_stimuli/000691_2014-06-08_13-08-50_260595134347_rgbf000132-resize_3/000691_2014-06-08_13-08-50_260595134347_rgbf000132-resize_3-target.png,1000,4.1530000000000005,8,5219,999,meters,jsons/v1_VE1000_randls_38_rotated.json,1117007,1965742,59,Woman
95,106816,DepthScenes,duration_manipulation_targetAtFixation,jsons/v1_VE1000_randls_38_rotated.json,http://54.235.29.9/FacialAge/BNav_EC2/DepthDuration/v2_depth_duration_MTurk/v2_DepthDuration_HTML.html#138,138,1366,625,1366,768,8-22-2022,5-4-25,96,depth_duration_stimuli/002213_2014-06-28_18-37-58_260595134347_rgbf000055-resize_1/002213_2014-06-28_18-37-58_260595134347_rgbf000055-resize_1-target.png,1000,3.62,11,5259,1000,meters,jsons/v1_VE1000_randls_38_rotated.json,1117007,1965742,59,Woman
96,106816,DepthScenes,duration_manipulation_targetAtFixation,jsons/v1_VE1000_randls_38_rotated.json,http://54.235.29.9/FacialAge/BNav_EC2/DepthDuration/v2_depth_duration_MTurk/v2_DepthDuration_HTML.html#138,138,1366,625,1366,768,8-22-2022,5-4-25,97,depth_duration_stimuli/002340_2014-06-28_20-05-46_260595134347_rgbf000113-resize_0/002340_2014-06-28_20-05-46_260595134347_rgbf000113-resize_0-target.png,1000,2.4735,7,5692,999,meters,jsons/v1_VE1000_randls_38_rotated.json,1117007,1965742,59,Woman
97,106816,DepthScenes,duration_manipulation_targetAtFixation,jsons/v1_VE1000_randls_38_rotated.json,http://54.235.29.9/FacialAge/BNav_EC2/DepthDuration/v2_depth_duration_MTurk/v2_DepthDuration_HTML.html#138,138,1366,625,1366,768,8-22-2022,5-4-25,98,depth_duration_stimuli/001016_2014-06-09_16-16-10_260595134347_rgbf000112-resize_5/001016_2014-06-09_16-16-10_260595134347_rgbf000112-resize_5-target.png,1000,1.6565,5,4154,1000,meters,jsons/v1_VE1000_randls_38_rotated.json,1117007,1965742,59,Woman
98,106816,DepthScenes,duration_manipulation_targetAtFixation,jsons/v1_VE1000_randls_38_rotated.json,http://54.235.29.9/FacialAge/BNav_EC2/DepthDuration/v2_depth_duration_MTurk/v2_DepthDuration_HTML.html#138,138,1366,625,1366,768,8-22-2022,5-4-25,99,depth_duration_stimuli/001222_2014-06-17_16-24-06_260595134347_rgbf000073-resize_0/001222_2014-06-17_16-24-06_260595134347_rgbf000073-resize-original.jpg,1000,1.4385,0,5402,999,meters,jsons/v1_VE1000_randls_38_rotated.json,1117007,1965742,59,Woman
99,106816,DepthScenes,duration_manipulation_targetAtFixation,jsons/v1_VE1000_randls_38_rotated.json,http://54.235.29.9/FacialAge/BNav_EC2/DepthDuration/v2_depth_duration_MTurk/v2_DepthDuration_HTML.html#138,138,1366,625,1366,768,8-22-2022,5-4-25,100,depth_duration_stimuli/001516_2014-06-20_16-25-09_260595134347_rgbf000076-resize_2/001516_2014-06-20_16-25-09_260595134347_rgbf000076-resize_2-target.png,1000,1.7445,4,5524,1000,meters,jsons/v1_VE1000_randls_38_rotated.json,1117007,1965742,59,Woman
100,106816,DepthScenes,duration_manipulation_targetAtFixation,jsons/v1_VE1000_randls_38_rotated.json,http://54.235.29.9/FacialAge/BNav_EC2/DepthDuration/v2_depth_duration_MTurk/v2_DepthDuration_HTML.html#138,138,1366,625,1366,768,8-22-2022,5-4-25,101,depth_duration_stimuli/002118_2014-06-25_20-32-08_260595134347_rgbf000078-resize_1/002118_2014-06-25_20-32-08_260595134347_rgbf000078-resize_1-target.png,1000,2.6460000000000004,15,5160,999,meters,jsons/v1_VE1000_randls_38_rotated.json,1117007,1965742,59,Woman
101,106816,DepthScenes,duration_manipulation_targetAtFixation,jsons/v1_VE1000_randls_38_rotated.json,http://54.235.29.9/FacialAge/BNav_EC2/DepthDuration/v2_depth_duration_MTurk/v2_DepthDuration_HTML.html#138,138,1366,625,1366,768,8-22-2022,5-4-25,102,depth_duration_stimuli/000780_2014-06-08_22-28-29_260595134347_rgbf000126-resize_1/000780_2014-06-08_22-28-29_260595134347_rgbf000126-resize_1-target.png,1000,3.3825,5,4962,999,meters,jsons/v1_VE1000_randls_38_rotated.json,1117007,1965742,59,Woman
102,106816,DepthScenes,duration_manipulation_targetAtFixation,jsons/v1_VE1000_randls_38_rotated.json,http://54.235.29.9/FacialAge/BNav_EC2/DepthDuration/v2_depth_duration_MTurk/v2_DepthDuration_HTML.html#138,138,1366,625,1366,768,8-22-2022,5-4-25,103,depth_duration_stimuli/002445_2014-06-28_20-32-16_260595134347_rgbf000029-resize_4/002445_2014-06-28_20-32-16_260595134347_rgbf000029-resize_4-target.png,1000,2.5315,5,4944,1000,meters,jsons/v1_VE1000_randls_38_rotated.json,1117007,1965742,59,Woman
103,106816,DepthScenes,duration_manipulation_targetAtFixation,jsons/v1_VE1000_randls_38_rotated.json,http://54.235.29.9/FacialAge/BNav_EC2/DepthDuration/v2_depth_duration_MTurk/v2_DepthDuration_HTML.html#138,138,1366,625,1366,768,8-22-2022,5-4-25,104,depth_duration_stimuli/001052_2014-06-08_18-24-54_260595134347_rgbf000130-resize_1/001052_2014-06-08_18-24-54_260595134347_rgbf000130-resize_1-target.png,1000,4.1045,8,5971,999,meters,jsons/v1_VE1000_randls_38_rotated.json,1117007,1965742,59,Woman
104,106816,DepthScenes,duration_manipulation_targetAtFixation,jsons/v1_VE1000_randls_38_rotated.json,http://54.235.29.9/FacialAge/BNav_EC2/DepthDuration/v2_depth_duration_MTurk/v2_DepthDuration_HTML.html#138,138,1366,625,1366,768,8-22-2022,5-4-25,105,depth_duration_stimuli/002988_2014-06-15_12-24-20_094959634447_rgbf000150-resize_1/002988_2014-06-15_12-24-20_094959634447_rgbf000150-resize_1-target.png,1000,4.7669999999999995,10,5317,1000,meters,jsons/v1_VE1000_randls_38_rotated.json,1117007,1965742,59,Woman
105,106816,DepthScenes,duration_manipulation_targetAtFixation,jsons/v1_VE1000_randls_38_rotated.json,http://54.235.29.9/FacialAge/BNav_EC2/DepthDuration/v2_depth_duration_MTurk/v2_DepthDuration_HTML.html#138,138,1366,625,1366,768,8-22-2022,5-4-25,106,depth_duration_stimuli/001235_2014-06-17_16-37-36_260595134347_rgbf000084-resize_4/001235_2014-06-17_16-37-36_260595134347_rgbf000084-resize_4-target.png,1000,3.6605,4,5898,999,meters,jsons/v1_VE1000_randls_38_rotated.json,1117007,1965742,59,Woman
106,106816,DepthScenes,duration_manipulation_targetAtFixation,jsons/v1_VE1000_randls_38_rotated.json,http://54.235.29.9/FacialAge/BNav_EC2/DepthDuration/v2_depth_duration_MTurk/v2_DepthDuration_HTML.html#138,138,1366,625,1366,768,8-22-2022,5-4-25,107,depth_duration_stimuli/000788_2014-06-08_22-34-36_260595134347_rgbf000131-resize_1/000788_2014-06-08_22-34-36_260595134347_rgbf000131-resize_1-target.png,1000,3.359,6,3929,1001,meters,jsons/v1_VE1000_randls_38_rotated.json,1117007,1965742,59,Woman
107,106816,DepthScenes,duration_manipulation_targetAtFixation,jsons/v1_VE1000_randls_38_rotated.json,http://54.235.29.9/FacialAge/BNav_EC2/DepthDuration/v2_depth_duration_MTurk/v2_DepthDuration_HTML.html#138,138,1366,625,1366,768,8-22-2022,5-4-25,108,depth_duration_stimuli/001828_2014-06-26_21-40-03_260595134347_rgbf000024-resize_0/001828_2014-06-26_21-40-03_260595134347_rgbf000024-resize_0-target.png,1000,4.8260000000000005,6,5117,1001,meters,jsons/v1_VE1000_randls_38_rotated.json,1117007,1965742,59,Woman
108,106816,DepthScenes,duration_manipulation_targetAtFixation,jsons/v1_VE1000_randls_38_rotated.json,http://54.235.29.9/FacialAge/BNav_EC2/DepthDuration/v2_depth_duration_MTurk/v2_DepthDuration_HTML.html#138,138,1366,625,1366,768,8-22-2022,5-4-25,109,depth_duration_stimuli/000009_2014-05-26_14-32-05_260595134347_rgbf000034-resize_3/000009_2014-05-26_14-32-05_260595134347_rgbf000034-resize_3-target.png,1000,3.8715,12,4981,1000,meters,jsons/v1_VE1000_randls_38_rotated.json,1117007,1965742,59,Woman
109,106816,DepthScenes,duration_manipulation_targetAtFixation,jsons/v1_VE1000_randls_38_rotated.json,http://54.235.29.9/FacialAge/BNav_EC2/DepthDuration/v2_depth_duration_MTurk/v2_DepthDuration_HTML.html#138,138,1366,625,1366,768,8-22-2022,5-4-25,110,depth_duration_stimuli/001450_2014-06-19_17-02-03_260595134347_rgbf000203-resize_4/001450_2014-06-19_17-02-03_260595134347_rgbf000203-resize_4-target.png,1000,4.0106666666667,8,5081,1001,meters,jsons/v1_VE1000_randls_38_rotated.json,1117007,1965742,59,Woman
110,106816,DepthScenes,duration_manipulation_targetAtFixation,jsons/v1_VE1000_randls_38_rotated.json,http://54.235.29.9/FacialAge/BNav_EC2/DepthDuration/v2_depth_duration_MTurk/v2_DepthDuration_HTML.html#138,138,1366,625,1366,768,8-22-2022,5-4-25,111,depth_duration_stimuli/001449_2014-06-19_17-01-27_260595134347_rgbf000116-resize_2/001449_2014-06-19_17-01-27_260595134347_rgbf000116-resize_2-target.png,1000,3.452,6,5107,999,meters,jsons/v1_VE1000_randls_38_rotated.json,1117007,1965742,59,Woman
111,106816,DepthScenes,duration_manipulation_targetAtFixation,jsons/v1_VE1000_randls_38_rotated.json,http://54.235.29.9/FacialAge/BNav_EC2/DepthDuration/v2_depth_duration_MTurk/v2_DepthDuration_HTML.html#138,138,1366,625,1366,768,8-22-2022,5-4-25,112,depth_duration_stimuli/001815_2014-06-26_20-52-55_260595134347_rgbf000020-resize_0/001815_2014-06-26_20-52-55_260595134347_rgbf000020-resize_0-target.png,1000,3.3865,7,6509,1001,meters,jsons/v1_VE1000_randls_38_rotated.json,1117007,1965742,59,Woman
112,106816,DepthScenes,duration_manipulation_targetAtFixation,jsons/v1_VE1000_randls_38_rotated.json,http://54.235.29.9/FacialAge/BNav_EC2/DepthDuration/v2_depth_duration_MTurk/v2_DepthDuration_HTML.html#138,138,1366,625,1366,768,8-22-2022,5-4-25,113,depth_duration_stimuli/001808_2014-06-26_20-50-58_260595134347_rgbf000029-resize_1/001808_2014-06-26_20-50-58_260595134347_rgbf000029-resize_1-target.png,1000,4.249,12,5340,999,meters,jsons/v1_VE1000_randls_38_rotated.json,1117007,1965742,59,Woman
113,106816,DepthScenes,duration_manipulation_targetAtFixation,jsons/v1_VE1000_randls_38_rotated.json,http://54.235.29.9/FacialAge/BNav_EC2/DepthDuration/v2_depth_duration_MTurk/v2_DepthDuration_HTML.html#138,138,1366,625,1366,768,8-22-2022,5-4-25,114,depth_duration_stimuli/001136_2014-06-17_15-19-41_260595134347_rgbf000076-resize_3/001136_2014-06-17_15-19-41_260595134347_rgbf000076-resize_3-target.png,1000,1.8655,9,7097,999,meters,jsons/v1_VE1000_randls_38_rotated.json,1117007,1965742,59,Woman
114,106816,DepthScenes,duration_manipulation_targetAtFixation,jsons/v1_VE1000_randls_38_rotated.json,http://54.235.29.9/FacialAge/BNav_EC2/DepthDuration/v2_depth_duration_MTurk/v2_DepthDuration_HTML.html#138,138,1366,625,1366,768,8-22-2022,5-4-25,115,depth_duration_stimuli/001164_2014-06-17_15-35-46_260595134347_rgbf000085-resize_3/001164_2014-06-17_15-35-46_260595134347_rgbf000085-resize_3-target.png,1000,2.354,4,4082,999,meters,jsons/v1_VE1000_randls_38_rotated.json,1117007,1965742,59,Woman
115,106816,DepthScenes,duration_manipulation_targetAtFixation,jsons/v1_VE1000_randls_38_rotated.json,http://54.235.29.9/FacialAge/BNav_EC2/DepthDuration/v2_depth_duration_MTurk/v2_DepthDuration_HTML.html#138,138,1366,625,1366,768,8-22-2022,5-4-25,116,depth_duration_stimuli/002444_2014-06-28_20-32-08_260595134347_rgbf000027-resize_0/002444_2014-06-28_20-32-08_260595134347_rgbf000027-resize_0-target.png,1000,4.388999999999999,9,5746,1000,meters,jsons/v1_VE1000_randls_38_rotated.json,1117007,1965742,59,Woman
116,106816,DepthScenes,duration_manipulation_targetAtFixation,jsons/v1_VE1000_randls_38_rotated.json,http://54.235.29.9/FacialAge/BNav_EC2/DepthDuration/v2_depth_duration_MTurk/v2_DepthDuration_HTML.html#138,138,1366,625,1366,768,8-22-2022,5-4-25,117,depth_duration_stimuli/000436_2014-06-09_22-25-11_260595134347_rgbf000137-resize_1/000436_2014-06-09_22-25-11_260595134347_rgbf000137-resize_1-target.png,1000,4.0705,10,6476,1002,meters,jsons/v1_VE1000_randls_38_rotated.json,1117007,1965742,59,Woman
117,106816,DepthScenes,duration_manipulation_targetAtFixation,jsons/v1_VE1000_randls_38_rotated.json,http://54.235.29.9/FacialAge/BNav_EC2/DepthDuration/v2_depth_duration_MTurk/v2_DepthDuration_HTML.html#138,138,1366,625,1366,768,8-22-2022,5-4-25,118,depth_duration_stimuli/002639_2014-06-24_14-51-37_094959634447_rgbf000074-resize_4/002639_2014-06-24_14-51-37_094959634447_rgbf000074-resize_4-target.png,1000,4.0375,9,5795,999,meters,jsons/v1_VE1000_randls_38_rotated.json,1117007,1965742,59,Woman
118,106816,DepthScenes,duration_manipulation_targetAtFixation,jsons/v1_VE1000_randls_38_rotated.json,http://54.235.29.9/FacialAge/BNav_EC2/DepthDuration/v2_depth_duration_MTurk/v2_DepthDuration_HTML.html#138,138,1366,625,1366,768,8-22-2022,5-4-25,119,depth_duration_stimuli/003292_2014-05-14_21-53-49_094959634447_rgbf000100-resize_2/003292_2014-05-14_21-53-49_094959634447_rgbf000100-resize_2-target.png,1000,3.4815,7,4202,999,meters,jsons/v1_VE1000_randls_38_rotated.json,1117007,1965742,59,Woman
119,106816,DepthScenes,duration_manipulation_targetAtFixation,jsons/v1_VE1000_randls_38_rotated.json,http://54.235.29.9/FacialAge/BNav_EC2/DepthDuration/v2_depth_duration_MTurk/v2_DepthDuration_HTML.html#138,138,1366,625,1366,768,8-22-2022,5-4-25,120,depth_duration_stimuli/000787_2014-06-08_22-33-53_260595134347_rgbf000175-resize_1/000787_2014-06-08_22-33-53_260595134347_rgbf000175-resize-original.jpg,1000,4.784,0,5529,1000,meters,jsons/v1_VE1000_randls_38_rotated.json,1117007,1965742,59,Woman
120,106816,DepthScenes,duration_manipulation_targetAtFixation,jsons/v1_VE1000_randls_38_rotated.json,http://54.235.29.9/FacialAge/BNav_EC2/DepthDuration/v2_depth_duration_MTurk/v2_DepthDuration_HTML.html#138,138,1366,625,1366,768,8-22-2022,5-4-25,121,depth_duration_stimuli/000137_2014-05-20_17-04-49_260595134347_rgbf000120-resize_1/000137_2014-05-20_17-04-49_260595134347_rgbf000120-resize_1-target.png,1000,3.786,0,41506,1000,meters,jsons/v1_VE1000_randls_38_rotated.json,1117007,1965742,59,Woman
121,106816,DepthScenes,duration_manipulation_targetAtFixation,jsons/v1_VE1000_randls_38_rotated.json,http://54.235.29.9/FacialAge/BNav_EC2/DepthDuration/v2_depth_duration_MTurk/v2_DepthDuration_HTML.html#138,138,1366,625,1366,768,8-22-2022,5-4-25,122,depth_duration_stimuli/000736_2014-06-08_18-24-15_260595134347_rgbf000206-resize_3/000736_2014-06-08_18-24-15_260595134347_rgbf000206-resize_3-target.png,1000,3.515,8,5971,999,meters,jsons/v1_VE1000_randls_38_rotated.json,1117007,1965742,59,Woman
122,106816,DepthScenes,duration_manipulation_targetAtFixation,jsons/v1_VE1000_randls_38_rotated.json,http://54.235.29.9/FacialAge/BNav_EC2/DepthDuration/v2_depth_duration_MTurk/v2_DepthDuration_HTML.html#138,138,1366,625,1366,768,8-22-2022,5-4-25,123,depth_duration_stimuli/001617_2014-06-20_11-35-32_260595134347_rgbf000066-resize_1/001617_2014-06-20_11-35-32_260595134347_rgbf000066-resize_1-target.png,1000,3.7910000000000004,10,6428,1001,meters,jsons/v1_VE1000_randls_38_rotated.json,1117007,1965742,59,Woman
123,106816,DepthScenes,duration_manipulation_targetAtFixation,jsons/v1_VE1000_randls_38_rotated.json,http://54.235.29.9/FacialAge/BNav_EC2/DepthDuration/v2_depth_duration_MTurk/v2_DepthDuration_HTML.html#138,138,1366,625,1366,768,8-22-2022,5-4-25,124,depth_duration_stimuli/001806_2014-06-26_20-50-20_260595134347_rgbf000091-resize_1/001806_2014-06-26_20-50-20_260595134347_rgbf000091-resize_1-target.png,1000,2.7305,4,4282,1000,meters,jsons/v1_VE1000_randls_38_rotated.json,1117007,1965742,59,Woman
124,106816,DepthScenes,duration_manipulation_targetAtFixation,jsons/v1_VE1000_randls_38_rotated.json,http://54.235.29.9/FacialAge/BNav_EC2/DepthDuration/v2_depth_duration_MTurk/v2_DepthDuration_HTML.html#138,138,1366,625,1366,768,8-22-2022,5-4-25,125,depth_duration_stimuli/000665_2014-06-09_20-42-35_260595134347_rgbf000110-resize_1/000665_2014-06-09_20-42-35_260595134347_rgbf000110-resize_1-target.png,1000,3.057,5,6154,999,meters,jsons/v1_VE1000_randls_38_rotated.json,1117007,1965742,59,Woman
125,106816,DepthScenes,duration_manipulation_targetAtFixation,jsons/v1_VE1000_randls_38_rotated.json,http://54.235.29.9/FacialAge/BNav_EC2/DepthDuration/v2_depth_duration_MTurk/v2_DepthDuration_HTML.html#138,138,1366,625,1366,768,8-22-2022,5-4-25,126,depth_duration_stimuli/001150_2014-06-17_15-27-34_260595134347_rgbf000108-resize_2/001150_2014-06-17_15-27-34_260595134347_rgbf000108-resize_2-target.png,1000,4.0325,7,4121,1000,meters,jsons/v1_VE1000_randls_38_rotated.json,1117007,1965742,59,Woman
126,106816,DepthScenes,duration_manipulation_targetAtFixation,jsons/v1_VE1000_randls_38_rotated.json,http://54.235.29.9/FacialAge/BNav_EC2/DepthDuration/v2_depth_duration_MTurk/v2_DepthDuration_HTML.html#138,138,1366,625,1366,768,8-22-2022,5-4-25,127,depth_duration_stimuli/000742_2014-06-08_18-48-09_260595134347_rgbf000164-resize_4/000742_2014-06-08_18-48-09_260595134347_rgbf000164-resize_4-target.png,1000,4.632,7,5348,999,meters,jsons/v1_VE1000_randls_38_rotated.json,1117007,1965742,59,Woman
127,106816,DepthScenes,duration_manipulation_targetAtFixation,jsons/v1_VE1000_randls_38_rotated.json,http://54.235.29.9/FacialAge/BNav_EC2/DepthDuration/v2_depth_duration_MTurk/v2_DepthDuration_HTML.html#138,138,1366,625,1366,768,8-22-2022,5-4-25,128,depth_duration_stimuli/001066_2014-06-08_22-03-20_260595134347_rgbf000066-resize_4/001066_2014-06-08_22-03-20_260595134347_rgbf000066-resize_4-target.png,1000,4.2330000000000005,9,4276,1001,meters,jsons/v1_VE1000_randls_38_rotated.json,1117007,1965742,59,Woman
128,106816,DepthScenes,duration_manipulation_targetAtFixation,jsons/v1_VE1000_randls_38_rotated.json,http://54.235.29.9/FacialAge/BNav_EC2/DepthDuration/v2_depth_duration_MTurk/v2_DepthDuration_HTML.html#138,138,1366,625,1366,768,8-22-2022,5-4-25,129,depth_duration_stimuli/002657_2014-06-13_15-29-54_094959634447_rgbf000150-resize_1/002657_2014-06-13_15-29-54_094959634447_rgbf000150-resize_1-target.png,1000,4.919,8,6458,999,meters,jsons/v1_VE1000_randls_38_rotated.json,1117007,1965742,59,Woman
129,106816,DepthScenes,duration_manipulation_targetAtFixation,jsons/v1_VE1000_randls_38_rotated.json,http://54.235.29.9/FacialAge/BNav_EC2/DepthDuration/v2_depth_duration_MTurk/v2_DepthDuration_HTML.html#138,138,1366,625,1366,768,8-22-2022,5-4-25,130,depth_duration_stimuli/002375_2014-06-28_20-13-44_260595134347_rgbf000032-resize_1/002375_2014-06-28_20-13-44_260595134347_rgbf000032-resize_1-target.png,1000,4.0175,6,4115,1000,meters,jsons/v1_VE1000_randls_38_rotated.json,1117007,1965742,59,Woman
130,106816,DepthScenes,duration_manipulation_targetAtFixation,jsons/v1_VE1000_randls_38_rotated.json,http://54.235.29.9/FacialAge/BNav_EC2/DepthDuration/v2_depth_duration_MTurk/v2_DepthDuration_HTML.html#138,138,1366,625,1366,768,8-22-2022,5-4-25,131,depth_duration_stimuli/002136_2014-06-25_21-18-03_260595134347_rgbf000109-resize_3/002136_2014-06-25_21-18-03_260595134347_rgbf000109-resize_3-target.png,1000,1.9569999999999999,4,6982,999,meters,jsons/v1_VE1000_randls_38_rotated.json,1117007,1965742,59,Woman
131,106816,DepthScenes,duration_manipulation_targetAtFixation,jsons/v1_VE1000_randls_38_rotated.json,http://54.235.29.9/FacialAge/BNav_EC2/DepthDuration/v2_depth_duration_MTurk/v2_DepthDuration_HTML.html#138,138,1366,625,1366,768,8-22-2022,5-4-25,132,depth_duration_stimuli/002964_2014-06-08_17-46-11_094959634447_rgbf000091-resize_4/002964_2014-06-08_17-46-11_094959634447_rgbf000091-resize_4-target.png,1000,1.6909999999999998,2,4814,1000,meters,jsons/v1_VE1000_randls_38_rotated.json,1117007,1965742,59,Woman
132,106816,DepthScenes,duration_manipulation_targetAtFixation,jsons/v1_VE1000_randls_38_rotated.json,http://54.235.29.9/FacialAge/BNav_EC2/DepthDuration/v2_depth_duration_MTurk/v2_DepthDuration_HTML.html#138,138,1366,625,1366,768,8-22-2022,5-4-25,133,depth_duration_stimuli/000109_2014-05-14_23-41-52_260595134347_rgbf000035-resize_9/000109_2014-05-14_23-41-52_260595134347_rgbf000035-resize_9-target.png,1000,1.3545,2,5365,999,meters,jsons/v1_VE1000_randls_38_rotated.json,1117007,1965742,59,Woman
133,106816,DepthScenes,duration_manipulation_targetAtFixation,jsons/v1_VE1000_randls_38_rotated.json,http://54.235.29.9/FacialAge/BNav_EC2/DepthDuration/v2_depth_duration_MTurk/v2_DepthDuration_HTML.html#138,138,1366,625,1366,768,8-22-2022,5-4-25,134,depth_duration_stimuli/000470_2014-06-09_19-42-40_260595134347_rgbf000094-resize_1/000470_2014-06-09_19-42-40_260595134347_rgbf000094-resize_1-target.png,1000,1.831,4,4188,1001,meters,jsons/v1_VE1000_randls_38_rotated.json,1117007,1965742,59,Woman
134,106816,DepthScenes,duration_manipulation_targetAtFixation,jsons/v1_VE1000_randls_38_rotated.json,http://54.235.29.9/FacialAge/BNav_EC2/DepthDuration/v2_depth_duration_MTurk/v2_DepthDuration_HTML.html#138,138,1366,625,1366,768,8-22-2022,5-4-25,135,depth_duration_stimuli/000375_2014-06-08_11-17-29_260595134347_rgbf000133-resize_2/000375_2014-06-08_11-17-29_260595134347_rgbf000133-resize-original.jpg,1000,4.718,0,6106,999,meters,jsons/v1_VE1000_randls_38_rotated.json,1117007,1965742,59,Woman
135,106816,DepthScenes,duration_manipulation_targetAtFixation,jsons/v1_VE1000_randls_38_rotated.json,http://54.235.29.9/FacialAge/BNav_EC2/DepthDuration/v2_depth_duration_MTurk/v2_DepthDuration_HTML.html#138,138,1366,625,1366,768,8-22-2022,5-4-25,136,depth_duration_stimuli/001447_2014-06-19_17-00-32_260595134347_rgbf000082-resize_5/001447_2014-06-19_17-00-32_260595134347_rgbf000082-resize_5-target.png,1000,4.13775,12,6691,999,meters,jsons/v1_VE1000_randls_38_rotated.json,1117007,1965742,59,Woman
136,106816,DepthScenes,duration_manipulation_targetAtFixation,jsons/v1_VE1000_randls_38_rotated.json,http://54.235.29.9/FacialAge/BNav_EC2/DepthDuration/v2_depth_duration_MTurk/v2_DepthDuration_HTML.html#138,138,1366,625,1366,768,8-22-2022,5-4-25,137,depth_duration_stimuli/000447_2014-06-08_16-15-46_260595134347_rgbf000130-resize_1/000447_2014-06-08_16-15-46_260595134347_rgbf000130-resize_1-target.png,1000,4.479,8,5794,1000,meters,jsons/v1_VE1000_randls_38_rotated.json,1117007,1965742,59,Woman
137,106816,DepthScenes,duration_manipulation_targetAtFixation,jsons/v1_VE1000_randls_38_rotated.json,http://54.235.29.9/FacialAge/BNav_EC2/DepthDuration/v2_depth_duration_MTurk/v2_DepthDuration_HTML.html#138,138,1366,625,1366,768,8-22-2022,5-4-25,138,depth_duration_stimuli/000191_2014-05-12_17-07-38_260595134347_rgbf000199-resize_0/000191_2014-05-12_17-07-38_260595134347_rgbf000199-resize_0-target.png,1000,3.7995,6,8352,1000,meters,jsons/v1_VE1000_randls_38_rotated.json,1117007,1965742,59,Woman
138,106816,DepthScenes,duration_manipulation_targetAtFixation,jsons/v1_VE1000_randls_38_rotated.json,http://54.235.29.9/FacialAge/BNav_EC2/DepthDuration/v2_depth_duration_MTurk/v2_DepthDuration_HTML.html#138,138,1366,625,1366,768,8-22-2022,5-4-25,139,depth_duration_stimuli/000493_2014-06-09_21-01-18_260595134347_rgbf000196-resize_3/000493_2014-06-09_21-01-18_260595134347_rgbf000196-resize_3-target.png,1000,3.44,5,5108,999,meters,jsons/v1_VE1000_randls_38_rotated.json,1117007,1965742,59,Woman
139,106816,DepthScenes,duration_manipulation_targetAtFixation,jsons/v1_VE1000_randls_38_rotated.json,http://54.235.29.9/FacialAge/BNav_EC2/DepthDuration/v2_depth_duration_MTurk/v2_DepthDuration_HTML.html#138,138,1366,625,1366,768,8-22-2022,5-4-25,140,depth_duration_stimuli/000749_2014-06-08_21-55-06_260595134347_rgbf000070-resize_2/000749_2014-06-08_21-55-06_260595134347_rgbf000070-resize_2-target.png,1000,2.331,4,7026,1000,meters,jsons/v1_VE1000_randls_38_rotated.json,1117007,1965742,59,Woman
140,106816,DepthScenes,duration_manipulation_targetAtFixation,jsons/v1_VE1000_randls_38_rotated.json,http://54.235.29.9/FacialAge/BNav_EC2/DepthDuration/v2_depth_duration_MTurk/v2_DepthDuration_HTML.html#138,138,1366,625,1366,768,8-22-2022,5-4-25,141,depth_duration_stimuli/002788_2014-06-22_19-36-03_094959634447_rgbf000088-resize_2/002788_2014-06-22_19-36-03_094959634447_rgbf000088-resize_2-target.png,1000,1.6465,4,5442,1000,meters,jsons/v1_VE1000_randls_38_rotated.json,1117007,1965742,59,Woman
141,106816,DepthScenes,duration_manipulation_targetAtFixation,jsons/v1_VE1000_randls_38_rotated.json,http://54.235.29.9/FacialAge/BNav_EC2/DepthDuration/v2_depth_duration_MTurk/v2_DepthDuration_HTML.html#138,138,1366,625,1366,768,8-22-2022,5-4-25,142,depth_duration_stimuli/002949_2014-06-26_15-57-42_094959634447_rgbf000079-resize_1/002949_2014-06-26_15-57-42_094959634447_rgbf000079-resize_1-target.png,1000,1.8915,2,25803,1000,meters,jsons/v1_VE1000_randls_38_rotated.json,1117007,1965742,59,Woman
142,106816,DepthScenes,duration_manipulation_targetAtFixation,jsons/v1_VE1000_randls_38_rotated.json,http://54.235.29.9/FacialAge/BNav_EC2/DepthDuration/v2_depth_duration_MTurk/v2_DepthDuration_HTML.html#138,138,1366,625,1366,768,8-22-2022,5-4-25,143,depth_duration_stimuli/000522_2014-06-08_13-35-06_260595134347_rgbf000244-resize_1/000522_2014-06-08_13-35-06_260595134347_rgbf000244-resize_1-target.png,1000,2.3715,3,13973,1001,meters,jsons/v1_VE1000_randls_38_rotated.json,1117007,1965742,59,Woman
143,106816,DepthScenes,duration_manipulation_targetAtFixation,jsons/v1_VE1000_randls_38_rotated.json,http://54.235.29.9/FacialAge/BNav_EC2/DepthDuration/v2_depth_duration_MTurk/v2_DepthDuration_HTML.html#138,138,1366,625,1366,768,8-22-2022,5-4-25,144,depth_duration_stimuli/001214_2014-06-17_16-13-55_260595134347_rgbf000111-resize_0/001214_2014-06-17_16-13-55_260595134347_rgbf000111-resize_0-target.png,1000,2.6505,5,7908,1000,meters,jsons/v1_VE1000_randls_38_rotated.json,1117007,1965742,59,Woman
144,106816,DepthScenes,duration_manipulation_targetAtFixation,jsons/v1_VE1000_randls_38_rotated.json,http://54.235.29.9/FacialAge/BNav_EC2/DepthDuration/v2_depth_duration_MTurk/v2_DepthDuration_HTML.html#138,138,1366,625,1366,768,8-22-2022,5-4-25,145,depth_duration_stimuli/000810_2014-06-08_17-20-01_260595134347_rgbf000105-resize_0/000810_2014-06-08_17-20-01_260595134347_rgbf000105-resize_0-target.png,1000,1.4865,4,5042,1000,meters,jsons/v1_VE1000_randls_38_rotated.json,1117007,1965742,59,Woman
145,106816,DepthScenes,duration_manipulation_targetAtFixation,jsons/v1_VE1000_randls_38_rotated.json,http://54.235.29.9/FacialAge/BNav_EC2/DepthDuration/v2_depth_duration_MTurk/v2_DepthDuration_HTML.html#138,138,1366,625,1366,768,8-22-2022,5-4-25,146,depth_duration_stimuli/003587_2014-05-23_16-48-02_094959634447_rgbf002384-resize_2/003587_2014-05-23_16-48-02_094959634447_rgbf002384-resize_2-target.png,1000,1.357,5,7628,1000,meters,jsons/v1_VE1000_randls_38_rotated.json,1117007,1965742,59,Woman
146,106816,DepthScenes,duration_manipulation_targetAtFixation,jsons/v1_VE1000_randls_38_rotated.json,http://54.235.29.9/FacialAge/BNav_EC2/DepthDuration/v2_depth_duration_MTurk/v2_DepthDuration_HTML.html#138,138,1366,625,1366,768,8-22-2022,5-4-25,147,depth_duration_stimuli/001167_2014-06-17_15-38-07_260595134347_rgbf000108-resize_0/001167_2014-06-17_15-38-07_260595134347_rgbf000108-resize_0-target.png,1000,1.8505,2,4211,1000,meters,jsons/v1_VE1000_randls_38_rotated.json,1117007,1965742,59,Woman
147,106816,DepthScenes,duration_manipulation_targetAtFixation,jsons/v1_VE1000_randls_38_rotated.json,http://54.235.29.9/FacialAge/BNav_EC2/DepthDuration/v2_depth_duration_MTurk/v2_DepthDuration_HTML.html#138,138,1366,625,1366,768,8-22-2022,5-4-25,148,depth_duration_stimuli/002545_2014-06-24_13-38-53_094959634447_rgbf000080-resize_4/002545_2014-06-24_13-38-53_094959634447_rgbf000080-resize_4-target.png,1000,1.9205,6,8058,1000,meters,jsons/v1_VE1000_randls_38_rotated.json,1117007,1965742,59,Woman
148,106816,DepthScenes,duration_manipulation_targetAtFixation,jsons/v1_VE1000_randls_38_rotated.json,http://54.235.29.9/FacialAge/BNav_EC2/DepthDuration/v2_depth_duration_MTurk/v2_DepthDuration_HTML.html#138,138,1366,625,1366,768,8-22-2022,5-4-25,149,depth_duration_stimuli/001092_2014-06-15_17-34-58_260595134347_rgbf000171-resize_3/001092_2014-06-15_17-34-58_260595134347_rgbf000171-resize_3-target.png,1000,2.6935,5,4662,999,meters,jsons/v1_VE1000_randls_38_rotated.json,1117007,1965742,59,Woman
149,106816,DepthScenes,duration_manipulation_targetAtFixation,jsons/v1_VE1000_randls_38_rotated.json,http://54.235.29.9/FacialAge/BNav_EC2/DepthDuration/v2_depth_duration_MTurk/v2_DepthDuration_HTML.html#138,138,1366,625,1366,768,8-22-2022,5-4-25,150,depth_duration_stimuli/002425_2014-06-28_20-27-29_260595134347_rgbf000031-resize_8/002425_2014-06-28_20-27-29_260595134347_rgbf000031-resize_8-target.png,1000,3.8960000000000004,4,7059,1001,meters,jsons/v1_VE1000_randls_38_rotated.json,1117007,1965742,59,Woman
150,106816,DepthScenes,duration_manipulation_targetAtFixation,jsons/v1_VE1000_randls_38_rotated.json,http://54.235.29.9/FacialAge/BNav_EC2/DepthDuration/v2_depth_duration_MTurk/v2_DepthDuration_HTML.html#138,138,1366,625,1366,768,8-22-2022,5-4-25,151,depth_duration_stimuli/000642_2014-06-08_16-59-25_260595134347_rgbf000098-resize_2/000642_2014-06-08_16-59-25_260595134347_rgbf000098-resize_2-target.png,1000,2.8815,6,5328,1000,meters,jsons/v1_VE1000_randls_38_rotated.json,1117007,1965742,59,Woman
151,106816,DepthScenes,duration_manipulation_targetAtFixation,jsons/v1_VE1000_randls_38_rotated.json,http://54.235.29.9/FacialAge/BNav_EC2/DepthDuration/v2_depth_duration_MTurk/v2_DepthDuration_HTML.html#138,138,1366,625,1366,768,8-22-2022,5-4-25,152,depth_duration_stimuli/000569_2014-06-09_22-51-47_260595134347_rgbf000141-resize_3/000569_2014-06-09_22-51-47_260595134347_rgbf000141-resize-original.jpg,1000,4.512,0,6556,999,meters,jsons/v1_VE1000_randls_38_rotated.json,1117007,1965742,59,Woman
152,106816,DepthScenes,duration_manipulation_targetAtFixation,jsons/v1_VE1000_randls_38_rotated.json,http://54.235.29.9/FacialAge/BNav_EC2/DepthDuration/v2_depth_duration_MTurk/v2_DepthDuration_HTML.html#138,138,1366,625,1366,768,8-22-2022,5-4-25,153,depth_duration_stimuli/001584_2014-06-20_11-07-43_260595134347_rgbf000002-resize_1/001584_2014-06-20_11-07-43_260595134347_rgbf000002-resize_1-target.png,1000,3.53,2,7683,1001,meters,jsons/v1_VE1000_randls_38_rotated.json,1117007,1965742,59,Woman
153,106816,DepthScenes,duration_manipulation_targetAtFixation,jsons/v1_VE1000_randls_38_rotated.json,http://54.235.29.9/FacialAge/BNav_EC2/DepthDuration/v2_depth_duration_MTurk/v2_DepthDuration_HTML.html#138,138,1366,625,1366,768,8-22-2022,5-4-25,154,depth_duration_stimuli/003621_2014-05-23_18-06-08_094959634447_rgbf000101-resize_1/003621_2014-05-23_18-06-08_094959634447_rgbf000101-resize_1-target.png,1000,3.9835,4,4565,1001,meters,jsons/v1_VE1000_randls_38_rotated.json,1117007,1965742,59,Woman
154,106816,DepthScenes,duration_manipulation_targetAtFixation,jsons/v1_VE1000_randls_38_rotated.json,http://54.235.29.9/FacialAge/BNav_EC2/DepthDuration/v2_depth_duration_MTurk/v2_DepthDuration_HTML.html#138,138,1366,625,1366,768,8-22-2022,5-4-25,155,depth_duration_stimuli/002199_2014-06-28_18-33-56_260595134347_rgbf000074-resize_0/002199_2014-06-28_18-33-56_260595134347_rgbf000074-resize_0-target.png,1000,1.996,1,6659,1000,meters,jsons/v1_VE1000_randls_38_rotated.json,1117007,1965742,59,Woman
155,106816,DepthScenes,duration_manipulation_targetAtFixation,jsons/v1_VE1000_randls_38_rotated.json,http://54.235.29.9/FacialAge/BNav_EC2/DepthDuration/v2_depth_duration_MTurk/v2_DepthDuration_HTML.html#138,138,1366,625,1366,768,8-22-2022,5-4-25,156,depth_duration_stimuli/001056_2014-06-08_18-46-44_260595134347_rgbf000068-resize_0/001056_2014-06-08_18-46-44_260595134347_rgbf000068-resize_0-target.png,1000,2.6625,4,4466,1000,meters,jsons/v1_VE1000_randls_38_rotated.json,1117007,1965742,59,Woman
156,106816,DepthScenes,duration_manipulation_targetAtFixation,jsons/v1_VE1000_randls_38_rotated.json,http://54.235.29.9/FacialAge/BNav_EC2/DepthDuration/v2_depth_duration_MTurk/v2_DepthDuration_HTML.html#138,138,1366,625,1366,768,8-22-2022,5-4-25,157,depth_duration_stimuli/002875_2014-06-01_15-19-00_094959634447_rgbf000151-resize_1/002875_2014-06-01_15-19-00_094959634447_rgbf000151-resize_1-target.png,1000,1.9675,2,14780,1000,meters,jsons/v1_VE1000_randls_38_rotated.json,1117007,1965742,59,Woman
157,106816,DepthScenes,duration_manipulation_targetAtFixation,jsons/v1_VE1000_randls_38_rotated.json,http://54.235.29.9/FacialAge/BNav_EC2/DepthDuration/v2_depth_duration_MTurk/v2_DepthDuration_HTML.html#138,138,1366,625,1366,768,8-22-2022,5-4-25,158,depth_duration_stimuli/001011_2014-06-08_23-18-54_260595134347_rgbf000044-resize_4/001011_2014-06-08_23-18-54_260595134347_rgbf000044-resize_4-target.png,1000,2.4730000000000003,3,5040,1000,meters,jsons/v1_VE1000_randls_38_rotated.json,1117007,1965742,59,Woman
158,106816,DepthScenes,duration_manipulation_targetAtFixation,jsons/v1_VE1000_randls_38_rotated.json,http://54.235.29.9/FacialAge/BNav_EC2/DepthDuration/v2_depth_duration_MTurk/v2_DepthDuration_HTML.html#138,138,1366,625,1366,768,8-22-2022,5-4-25,159,depth_duration_stimuli/000103_2014-05-14_22-01-17_260595134347_rgbf000152-resize_5/000103_2014-05-14_22-01-17_260595134347_rgbf000152-resize_5-target.png,1000,1.993,5,7821,1000,meters,jsons/v1_VE1000_randls_38_rotated.json,1117007,1965742,59,Woman
159,106816,DepthScenes,duration_manipulation_targetAtFixation,jsons/v1_VE1000_randls_38_rotated.json,http://54.235.29.9/FacialAge/BNav_EC2/DepthDuration/v2_depth_duration_MTurk/v2_DepthDuration_HTML.html#138,138,1366,625,1366,768,8-22-2022,5-4-25,160,depth_duration_stimuli/001555_2014-06-20_17-12-10_260595134347_rgbf000065-resize_4/001555_2014-06-20_17-12-10_260595134347_rgbf000065-resize_4-target.png,1000,1.633,2,5011,999,meters,jsons/v1_VE1000_randls_38_rotated.json,1117007,1965742,59,Woman
160,106816,DepthScenes,duration_manipulation_targetAtFixation,jsons/v1_VE1000_randls_38_rotated.json,http://54.235.29.9/FacialAge/BNav_EC2/DepthDuration/v2_depth_duration_MTurk/v2_DepthDuration_HTML.html#138,138,1366,625,1366,768,8-22-2022,5-4-25,161,depth_duration_stimuli/000635_2014-06-08_16-38-42_260595134347_rgbf000106-resize_1/000635_2014-06-08_16-38-42_260595134347_rgbf000106-resize_1-target.png,1000,2.074,3,7354,999,meters,jsons/v1_VE1000_randls_38_rotated.json,1117007,1965742,59,Woman
161,106816,DepthScenes,duration_manipulation_targetAtFixation,jsons/v1_VE1000_randls_38_rotated.json,http://54.235.29.9/FacialAge/BNav_EC2/DepthDuration/v2_depth_duration_MTurk/v2_DepthDuration_HTML.html#138,138,1366,625,1366,768,8-22-2022,5-4-25,162,depth_duration_stimuli/002279_2014-06-28_18-55-32_260595134347_rgbf000040-resize_5/002279_2014-06-28_18-55-32_260595134347_rgbf000040-resize_5-target.png,1000,1.5043333333333,2,4402,999,meters,jsons/v1_VE1000_randls_38_rotated.json,1117007,1965742,59,Woman
162,106816,DepthScenes,duration_manipulation_targetAtFixation,jsons/v1_VE1000_randls_38_rotated.json,http://54.235.29.9/FacialAge/BNav_EC2/DepthDuration/v2_depth_duration_MTurk/v2_DepthDuration_HTML.html#138,138,1366,625,1366,768,8-22-2022,5-4-25,163,depth_duration_stimuli/000502_2014-06-08_23-02-32_260595134347_rgbf000063-resize_4/000502_2014-06-08_23-02-32_260595134347_rgbf000063-resize_4-target.png,1000,2.431,4,6748,1000,meters,jsons/v1_VE1000_randls_38_rotated.json,1117007,1965742,59,Woman
163,106816,DepthScenes,duration_manipulation_targetAtFixation,jsons/v1_VE1000_randls_38_rotated.json,http://54.235.29.9/FacialAge/BNav_EC2/DepthDuration/v2_depth_duration_MTurk/v2_DepthDuration_HTML.html#138,138,1366,625,1366,768,8-22-2022,5-4-25,164,depth_duration_stimuli/001199_2014-06-17_16-03-48_260595134347_rgbf000077-resize_0/001199_2014-06-17_16-03-48_260595134347_rgbf000077-resize_0-target.png,1000,3.4375,5,4443,1000,meters,jsons/v1_VE1000_randls_38_rotated.json,1117007,1965742,59,Woman
