,subjID,experimentName,versionName,sequenceName,url,selected_row,windowWidth,windowHeight,screenWidth,screenHeight,startDate,startTime,trial,stimulus,duration,actual_depth,depth_estimate,trial_RT,log_sceneDuration,unitSelection,seq_filepath,experimentTime,totalTime,age,gender
0,107650,DepthScenes,duration_manipulation_targetAtFixation,jsons/v1_VE250_randls_3.json,http://54.235.29.9/FacialAge/BNav_EC2/DepthDuration/v2_depth_duration_MTurk/v2_DepthDuration_HTML.html#163,163,1268,608,1280,800,8-29-2022,10-42-44,1,depth_duration_stimuli/000368_2014-06-09_15-53-01_260595134347_rgbf000155-resize_2/000368_2014-06-09_15-53-01_260595134347_rgbf000155-resize_2-target.png,250,2.4859999999999998,0,3691,248,meters,jsons/v1_VE250_randls_3.json,1753982,1852671,25,Man
1,107650,DepthScenes,duration_manipulation_targetAtFixation,jsons/v1_VE250_randls_3.json,http://54.235.29.9/FacialAge/BNav_EC2/DepthDuration/v2_depth_duration_MTurk/v2_DepthDuration_HTML.html#163,163,1268,608,1280,800,8-29-2022,10-42-44,2,depth_duration_stimuli/002678_2014-06-13_16-15-32_094959634447_rgbf000151-resize_6/002678_2014-06-13_16-15-32_094959634447_rgbf000151-resize_6-target.png,250,2.1830000000000003,0,3204,255,meters,jsons/v1_VE250_randls_3.json,1753982,1852671,25,Man
2,107650,DepthScenes,duration_manipulation_targetAtFixation,jsons/v1_VE250_randls_3.json,http://54.235.29.9/FacialAge/BNav_EC2/DepthDuration/v2_depth_duration_MTurk/v2_DepthDuration_HTML.html#163,163,1268,608,1280,800,8-29-2022,10-42-44,3,depth_duration_stimuli/002445_2014-06-28_20-32-16_260595134347_rgbf000029-resize_4/002445_2014-06-28_20-32-16_260595134347_rgbf000029-resize_4-target.png,250,2.5315,1,3510,275,meters,jsons/v1_VE250_randls_3.json,1753982,1852671,25,Man
3,107650,DepthScenes,duration_manipulation_targetAtFixation,jsons/v1_VE250_randls_3.json,http://54.235.29.9/FacialAge/BNav_EC2/DepthDuration/v2_depth_duration_MTurk/v2_DepthDuration_HTML.html#163,163,1268,608,1280,800,8-29-2022,10-42-44,4,depth_duration_stimuli/000780_2014-06-08_22-28-29_260595134347_rgbf000126-resize_1/000780_2014-06-08_22-28-29_260595134347_rgbf000126-resize_1-target.png,250,3.3825,0,5585,250,meters,jsons/v1_VE250_randls_3.json,1753982,1852671,25,Man
4,107650,DepthScenes,duration_manipulation_targetAtFixation,jsons/v1_VE250_randls_3.json,http://54.235.29.9/FacialAge/BNav_EC2/DepthDuration/v2_depth_duration_MTurk/v2_DepthDuration_HTML.html#163,163,1268,608,1280,800,8-29-2022,10-42-44,5,depth_duration_stimuli/001167_2014-06-17_15-38-07_260595134347_rgbf000108-resize_0/001167_2014-06-17_15-38-07_260595134347_rgbf000108-resize_0-target.png,250,1.8505,0,5008,250,meters,jsons/v1_VE250_randls_3.json,1753982,1852671,25,Man
5,107650,DepthScenes,duration_manipulation_targetAtFixation,jsons/v1_VE250_randls_3.json,http://54.235.29.9/FacialAge/BNav_EC2/DepthDuration/v2_depth_duration_MTurk/v2_DepthDuration_HTML.html#163,163,1268,608,1280,800,8-29-2022,10-42-44,6,depth_duration_stimuli/003587_2014-05-23_16-48-02_094959634447_rgbf002384-resize_2/003587_2014-05-23_16-48-02_094959634447_rgbf002384-resize_2-target.png,250,1.357,1,2551,249,meters,jsons/v1_VE250_randls_3.json,1753982,1852671,25,Man
6,107650,DepthScenes,duration_manipulation_targetAtFixation,jsons/v1_VE250_randls_3.json,http://54.235.29.9/FacialAge/BNav_EC2/DepthDuration/v2_depth_duration_MTurk/v2_DepthDuration_HTML.html#163,163,1268,608,1280,800,8-29-2022,10-42-44,7,depth_duration_stimuli/002784_2014-06-22_19-26-30_094959634447_rgbf000083-resize_3/002784_2014-06-22_19-26-30_094959634447_rgbf000083-resize_3-target.png,250,1.8046666666667,0,2726,250,meters,jsons/v1_VE250_randls_3.json,1753982,1852671,25,Man
7,107650,DepthScenes,duration_manipulation_targetAtFixation,jsons/v1_VE250_randls_3.json,http://54.235.29.9/FacialAge/BNav_EC2/DepthDuration/v2_depth_duration_MTurk/v2_DepthDuration_HTML.html#163,163,1268,608,1280,800,8-29-2022,10-42-44,8,depth_duration_stimuli/001100_2014-06-15_17-46-26_260595134347_rgbf000225-resize_2/001100_2014-06-15_17-46-26_260595134347_rgbf000225-resize_2-target.png,250,2.24,1,2668,249,meters,jsons/v1_VE250_randls_3.json,1753982,1852671,25,Man
8,107650,DepthScenes,duration_manipulation_targetAtFixation,jsons/v1_VE250_randls_3.json,http://54.235.29.9/FacialAge/BNav_EC2/DepthDuration/v2_depth_duration_MTurk/v2_DepthDuration_HTML.html#163,163,1268,608,1280,800,8-29-2022,10-42-44,9,depth_duration_stimuli/001055_2014-06-08_18-45-35_260595134347_rgbf000111-resize_4/001055_2014-06-08_18-45-35_260595134347_rgbf000111-resize_4-target.png,250,2.4290000000000003,0,2650,251,meters,jsons/v1_VE250_randls_3.json,1753982,1852671,25,Man
9,107650,DepthScenes,duration_manipulation_targetAtFixation,jsons/v1_VE250_randls_3.json,http://54.235.29.9/FacialAge/BNav_EC2/DepthDuration/v2_depth_duration_MTurk/v2_DepthDuration_HTML.html#163,163,1268,608,1280,800,8-29-2022,10-42-44,10,depth_duration_stimuli/000549_2014-06-08_22-10-24_260595134347_rgbf000247-resize_3/000549_2014-06-08_22-10-24_260595134347_rgbf000247-resize_3-target.png,250,1.841,0,2447,252,meters,jsons/v1_VE250_randls_3.json,1753982,1852671,25,Man
10,107650,DepthScenes,duration_manipulation_targetAtFixation,jsons/v1_VE250_randls_3.json,http://54.235.29.9/FacialAge/BNav_EC2/DepthDuration/v2_depth_duration_MTurk/v2_DepthDuration_HTML.html#163,163,1268,608,1280,800,8-29-2022,10-42-44,11,depth_duration_stimuli/002788_2014-06-22_19-36-03_094959634447_rgbf000088-resize_2/002788_2014-06-22_19-36-03_094959634447_rgbf000088-resize_2-target.png,250,1.6465,0,2908,250,meters,jsons/v1_VE250_randls_3.json,1753982,1852671,25,Man
11,107650,DepthScenes,duration_manipulation_targetAtFixation,jsons/v1_VE250_randls_3.json,http://54.235.29.9/FacialAge/BNav_EC2/DepthDuration/v2_depth_duration_MTurk/v2_DepthDuration_HTML.html#163,163,1268,608,1280,800,8-29-2022,10-42-44,12,depth_duration_stimuli/000749_2014-06-08_21-55-06_260595134347_rgbf000070-resize_2/000749_2014-06-08_21-55-06_260595134347_rgbf000070-resize_2-target.png,250,2.331,0,104223,255,meters,jsons/v1_VE250_randls_3.json,1753982,1852671,25,Man
12,107650,DepthScenes,duration_manipulation_targetAtFixation,jsons/v1_VE250_randls_3.json,http://54.235.29.9/FacialAge/BNav_EC2/DepthDuration/v2_depth_duration_MTurk/v2_DepthDuration_HTML.html#163,163,1268,608,1280,800,8-29-2022,10-42-44,13,depth_duration_stimuli/000569_2014-06-09_22-51-47_260595134347_rgbf000141-resize_3/000569_2014-06-09_22-51-47_260595134347_rgbf000141-resize-original.jpg,250,4.512,0,3264,250,meters,jsons/v1_VE250_randls_3.json,1753982,1852671,25,Man
13,107650,DepthScenes,duration_manipulation_targetAtFixation,jsons/v1_VE250_randls_3.json,http://54.235.29.9/FacialAge/BNav_EC2/DepthDuration/v2_depth_duration_MTurk/v2_DepthDuration_HTML.html#163,163,1268,608,1280,800,8-29-2022,10-42-44,14,depth_duration_stimuli/003534_2014-05-22_15-06-10_094959634447_rgbf000102-resize_4/003534_2014-05-22_15-06-10_094959634447_rgbf000102-resize_4-target.png,250,1.426,0,3524,265,meters,jsons/v1_VE250_randls_3.json,1753982,1852671,25,Man
14,107650,DepthScenes,duration_manipulation_targetAtFixation,jsons/v1_VE250_randls_3.json,http://54.235.29.9/FacialAge/BNav_EC2/DepthDuration/v2_depth_duration_MTurk/v2_DepthDuration_HTML.html#163,163,1268,608,1280,800,8-29-2022,10-42-44,15,depth_duration_stimuli/002637_2014-06-24_14-51-13_094959634447_rgbf000066-resize_4/002637_2014-06-24_14-51-13_094959634447_rgbf000066-resize_4-target.png,250,1.9955,1,2772,236,meters,jsons/v1_VE250_randls_3.json,1753982,1852671,25,Man
15,107650,DepthScenes,duration_manipulation_targetAtFixation,jsons/v1_VE250_randls_3.json,http://54.235.29.9/FacialAge/BNav_EC2/DepthDuration/v2_depth_duration_MTurk/v2_DepthDuration_HTML.html#163,163,1268,608,1280,800,8-29-2022,10-42-44,16,depth_duration_stimuli/000773_2014-06-08_22-24-54_260595134347_rgbf000093-resize_1/000773_2014-06-08_22-24-54_260595134347_rgbf000093-resize_1-target.png,250,4.973,0,3146,246,meters,jsons/v1_VE250_randls_3.json,1753982,1852671,25,Man
16,107650,DepthScenes,duration_manipulation_targetAtFixation,jsons/v1_VE250_randls_3.json,http://54.235.29.9/FacialAge/BNav_EC2/DepthDuration/v2_depth_duration_MTurk/v2_DepthDuration_HTML.html#163,163,1268,608,1280,800,8-29-2022,10-42-44,17,depth_duration_stimuli/002414_2014-06-28_20-24-58_260595134347_rgbf000067-resize_4/002414_2014-06-28_20-24-58_260595134347_rgbf000067-resize_4-target.png,250,4.363,1,2758,251,meters,jsons/v1_VE250_randls_3.json,1753982,1852671,25,Man
17,107650,DepthScenes,duration_manipulation_targetAtFixation,jsons/v1_VE250_randls_3.json,http://54.235.29.9/FacialAge/BNav_EC2/DepthDuration/v2_depth_duration_MTurk/v2_DepthDuration_HTML.html#163,163,1268,608,1280,800,8-29-2022,10-42-44,18,depth_duration_stimuli/002153_2014-06-25_21-27-18_260595134347_rgbf000038-resize_5/002153_2014-06-25_21-27-18_260595134347_rgbf000038-resize_5-target.png,250,2.505,0,839846,253,meters,jsons/v1_VE250_randls_3.json,1753982,1852671,25,Man
18,107650,DepthScenes,duration_manipulation_targetAtFixation,jsons/v1_VE250_randls_3.json,http://54.235.29.9/FacialAge/BNav_EC2/DepthDuration/v2_depth_duration_MTurk/v2_DepthDuration_HTML.html#163,163,1268,608,1280,800,8-29-2022,10-42-44,19,depth_duration_stimuli/002660_2014-06-13_15-44-18_094959634447_rgbf001878-resize_2/002660_2014-06-13_15-44-18_094959634447_rgbf001878-resize_2-target.png,250,3.576,0,3502,251,meters,jsons/v1_VE250_randls_3.json,1753982,1852671,25,Man
19,107650,DepthScenes,duration_manipulation_targetAtFixation,jsons/v1_VE250_randls_3.json,http://54.235.29.9/FacialAge/BNav_EC2/DepthDuration/v2_depth_duration_MTurk/v2_DepthDuration_HTML.html#163,163,1268,608,1280,800,8-29-2022,10-42-44,20,depth_duration_stimuli/000788_2014-06-08_22-34-36_260595134347_rgbf000131-resize_1/000788_2014-06-08_22-34-36_260595134347_rgbf000131-resize_1-target.png,250,3.359,0,128990,245,meters,jsons/v1_VE250_randls_3.json,1753982,1852671,25,Man
20,107650,DepthScenes,duration_manipulation_targetAtFixation,jsons/v1_VE250_randls_3.json,http://54.235.29.9/FacialAge/BNav_EC2/DepthDuration/v2_depth_duration_MTurk/v2_DepthDuration_HTML.html#163,163,1268,608,1280,800,8-29-2022,10-42-44,21,depth_duration_stimuli/001235_2014-06-17_16-37-36_260595134347_rgbf000084-resize_4/001235_2014-06-17_16-37-36_260595134347_rgbf000084-resize_4-target.png,250,3.6605,1,3852,249,meters,jsons/v1_VE250_randls_3.json,1753982,1852671,25,Man
21,107650,DepthScenes,duration_manipulation_targetAtFixation,jsons/v1_VE250_randls_3.json,http://54.235.29.9/FacialAge/BNav_EC2/DepthDuration/v2_depth_duration_MTurk/v2_DepthDuration_HTML.html#163,163,1268,608,1280,800,8-29-2022,10-42-44,22,depth_duration_stimuli/002272_2014-06-28_18-53-56_260595134347_rgbf000067-resize_2/002272_2014-06-28_18-53-56_260595134347_rgbf000067-resize_2-target.png,250,1.138,0,7386,250,meters,jsons/v1_VE250_randls_3.json,1753982,1852671,25,Man
22,107650,DepthScenes,duration_manipulation_targetAtFixation,jsons/v1_VE250_randls_3.json,http://54.235.29.9/FacialAge/BNav_EC2/DepthDuration/v2_depth_duration_MTurk/v2_DepthDuration_HTML.html#163,163,1268,608,1280,800,8-29-2022,10-42-44,23,depth_duration_stimuli/001571_2014-06-20_17-21-32_260595134347_rgbf000089-resize_1/001571_2014-06-20_17-21-32_260595134347_rgbf000089-resize_1-target.png,250,1.86,1,3652,250,meters,jsons/v1_VE250_randls_3.json,1753982,1852671,25,Man
23,107650,DepthScenes,duration_manipulation_targetAtFixation,jsons/v1_VE250_randls_3.json,http://54.235.29.9/FacialAge/BNav_EC2/DepthDuration/v2_depth_duration_MTurk/v2_DepthDuration_HTML.html#163,163,1268,608,1280,800,8-29-2022,10-42-44,24,depth_duration_stimuli/002057_2014-06-24_21-00-13_260595134347_rgbf000120-resize_1/002057_2014-06-24_21-00-13_260595134347_rgbf000120-resize_1-target.png,250,2.967,0,6418,249,meters,jsons/v1_VE250_randls_3.json,1753982,1852671,25,Man
24,107650,DepthScenes,duration_manipulation_targetAtFixation,jsons/v1_VE250_randls_3.json,http://54.235.29.9/FacialAge/BNav_EC2/DepthDuration/v2_depth_duration_MTurk/v2_DepthDuration_HTML.html#163,163,1268,608,1280,800,8-29-2022,10-42-44,25,depth_duration_stimuli/000709_2014-06-08_13-51-55_260595134347_rgbf000068-resize_3/000709_2014-06-08_13-51-55_260595134347_rgbf000068-resize_3-target.png,250,1.8030000000000002,0,5523,255,meters,jsons/v1_VE250_randls_3.json,1753982,1852671,25,Man
25,107650,DepthScenes,duration_manipulation_targetAtFixation,jsons/v1_VE250_randls_3.json,http://54.235.29.9/FacialAge/BNav_EC2/DepthDuration/v2_depth_duration_MTurk/v2_DepthDuration_HTML.html#163,163,1268,608,1280,800,8-29-2022,10-42-44,26,depth_duration_stimuli/000736_2014-06-08_18-24-15_260595134347_rgbf000206-resize_3/000736_2014-06-08_18-24-15_260595134347_rgbf000206-resize_3-target.png,250,3.515,1,5835,252,meters,jsons/v1_VE250_randls_3.json,1753982,1852671,25,Man
26,107650,DepthScenes,duration_manipulation_targetAtFixation,jsons/v1_VE250_randls_3.json,http://54.235.29.9/FacialAge/BNav_EC2/DepthDuration/v2_depth_duration_MTurk/v2_DepthDuration_HTML.html#163,163,1268,608,1280,800,8-29-2022,10-42-44,27,depth_duration_stimuli/000137_2014-05-20_17-04-49_260595134347_rgbf000120-resize_1/000137_2014-05-20_17-04-49_260595134347_rgbf000120-resize_1-target.png,250,3.786,0,7164,250,meters,jsons/v1_VE250_randls_3.json,1753982,1852671,25,Man
27,107650,DepthScenes,duration_manipulation_targetAtFixation,jsons/v1_VE250_randls_3.json,http://54.235.29.9/FacialAge/BNav_EC2/DepthDuration/v2_depth_duration_MTurk/v2_DepthDuration_HTML.html#163,163,1268,608,1280,800,8-29-2022,10-42-44,28,depth_duration_stimuli/001449_2014-06-19_17-01-27_260595134347_rgbf000116-resize_2/001449_2014-06-19_17-01-27_260595134347_rgbf000116-resize_2-target.png,250,3.452,0,10999,238,meters,jsons/v1_VE250_randls_3.json,1753982,1852671,25,Man
28,107650,DepthScenes,duration_manipulation_targetAtFixation,jsons/v1_VE250_randls_3.json,http://54.235.29.9/FacialAge/BNav_EC2/DepthDuration/v2_depth_duration_MTurk/v2_DepthDuration_HTML.html#163,163,1268,608,1280,800,8-29-2022,10-42-44,29,depth_duration_stimuli/001450_2014-06-19_17-02-03_260595134347_rgbf000203-resize_4/001450_2014-06-19_17-02-03_260595134347_rgbf000203-resize_4-target.png,250,4.0106666666667,0,3729,244,meters,jsons/v1_VE250_randls_3.json,1753982,1852671,25,Man
29,107650,DepthScenes,duration_manipulation_targetAtFixation,jsons/v1_VE250_randls_3.json,http://54.235.29.9/FacialAge/BNav_EC2/DepthDuration/v2_depth_duration_MTurk/v2_DepthDuration_HTML.html#163,163,1268,608,1280,800,8-29-2022,10-42-44,30,depth_duration_stimuli/000375_2014-06-08_11-17-29_260595134347_rgbf000133-resize_2/000375_2014-06-08_11-17-29_260595134347_rgbf000133-resize-original.jpg,250,4.718,0,3050,262,meters,jsons/v1_VE250_randls_3.json,1753982,1852671,25,Man
30,107650,DepthScenes,duration_manipulation_targetAtFixation,jsons/v1_VE250_randls_3.json,http://54.235.29.9/FacialAge/BNav_EC2/DepthDuration/v2_depth_duration_MTurk/v2_DepthDuration_HTML.html#163,163,1268,608,1280,800,8-29-2022,10-42-44,31,depth_duration_stimuli/000009_2014-05-26_14-32-05_260595134347_rgbf000034-resize_3/000009_2014-05-26_14-32-05_260595134347_rgbf000034-resize_3-target.png,250,3.8715,0,3091,261,meters,jsons/v1_VE250_randls_3.json,1753982,1852671,25,Man
31,107650,DepthScenes,duration_manipulation_targetAtFixation,jsons/v1_VE250_randls_3.json,http://54.235.29.9/FacialAge/BNav_EC2/DepthDuration/v2_depth_duration_MTurk/v2_DepthDuration_HTML.html#163,163,1268,608,1280,800,8-29-2022,10-42-44,32,depth_duration_stimuli/001828_2014-06-26_21-40-03_260595134347_rgbf000024-resize_0/001828_2014-06-26_21-40-03_260595134347_rgbf000024-resize_0-target.png,250,4.8260000000000005,0,3088,250,meters,jsons/v1_VE250_randls_3.json,1753982,1852671,25,Man
32,107650,DepthScenes,duration_manipulation_targetAtFixation,jsons/v1_VE250_randls_3.json,http://54.235.29.9/FacialAge/BNav_EC2/DepthDuration/v2_depth_duration_MTurk/v2_DepthDuration_HTML.html#163,163,1268,608,1280,800,8-29-2022,10-42-44,33,depth_duration_stimuli/001056_2014-06-08_18-46-44_260595134347_rgbf000068-resize_0/001056_2014-06-08_18-46-44_260595134347_rgbf000068-resize_0-target.png,250,2.6625,0,17953,234,meters,jsons/v1_VE250_randls_3.json,1753982,1852671,25,Man
33,107650,DepthScenes,duration_manipulation_targetAtFixation,jsons/v1_VE250_randls_3.json,http://54.235.29.9/FacialAge/BNav_EC2/DepthDuration/v2_depth_duration_MTurk/v2_DepthDuration_HTML.html#163,163,1268,608,1280,800,8-29-2022,10-42-44,34,depth_duration_stimuli/002199_2014-06-28_18-33-56_260595134347_rgbf000074-resize_0/002199_2014-06-28_18-33-56_260595134347_rgbf000074-resize_0-target.png,250,1.996,0,3999,244,meters,jsons/v1_VE250_randls_3.json,1753982,1852671,25,Man
34,107650,DepthScenes,duration_manipulation_targetAtFixation,jsons/v1_VE250_randls_3.json,http://54.235.29.9/FacialAge/BNav_EC2/DepthDuration/v2_depth_duration_MTurk/v2_DepthDuration_HTML.html#163,163,1268,608,1280,800,8-29-2022,10-42-44,35,depth_duration_stimuli/000414_2014-06-04_19-49-13_260595134347_rgbf000044-resize_0/000414_2014-06-04_19-49-13_260595134347_rgbf000044-resize_0-target.png,250,4.329,0,7154,250,meters,jsons/v1_VE250_randls_3.json,1753982,1852671,25,Man
35,107650,DepthScenes,duration_manipulation_targetAtFixation,jsons/v1_VE250_randls_3.json,http://54.235.29.9/FacialAge/BNav_EC2/DepthDuration/v2_depth_duration_MTurk/v2_DepthDuration_HTML.html#163,163,1268,608,1280,800,8-29-2022,10-42-44,36,depth_duration_stimuli/003129_2014-05-12_10-48-10_094959634447_rgbf000100-resize_0/003129_2014-05-12_10-48-10_094959634447_rgbf000100-resize_0-target.png,250,4.9305,0,6218,254,meters,jsons/v1_VE250_randls_3.json,1753982,1852671,25,Man
36,107650,DepthScenes,duration_manipulation_targetAtFixation,jsons/v1_VE250_randls_3.json,http://54.235.29.9/FacialAge/BNav_EC2/DepthDuration/v2_depth_duration_MTurk/v2_DepthDuration_HTML.html#163,163,1268,608,1280,800,8-29-2022,10-42-44,37,depth_duration_stimuli/002043_2014-06-24_20-29-38_260595134347_rgbf000039-resize_4/002043_2014-06-24_20-29-38_260595134347_rgbf000039-resize_4-target.png,250,2.8435,1,10244,252,meters,jsons/v1_VE250_randls_3.json,1753982,1852671,25,Man
37,107650,DepthScenes,duration_manipulation_targetAtFixation,jsons/v1_VE250_randls_3.json,http://54.235.29.9/FacialAge/BNav_EC2/DepthDuration/v2_depth_duration_MTurk/v2_DepthDuration_HTML.html#163,163,1268,608,1280,800,8-29-2022,10-42-44,38,depth_duration_stimuli/003048_2014-06-15_13-49-43_094959634447_rgbf000150-resize_1/003048_2014-06-15_13-49-43_094959634447_rgbf000150-resize_1-target.png,250,4.0035,1,59837,246,meters,jsons/v1_VE250_randls_3.json,1753982,1852671,25,Man
38,107650,DepthScenes,duration_manipulation_targetAtFixation,jsons/v1_VE250_randls_3.json,http://54.235.29.9/FacialAge/BNav_EC2/DepthDuration/v2_depth_duration_MTurk/v2_DepthDuration_HTML.html#163,163,1268,608,1280,800,8-29-2022,10-42-44,39,depth_duration_stimuli/001806_2014-06-26_20-50-20_260595134347_rgbf000091-resize_1/001806_2014-06-26_20-50-20_260595134347_rgbf000091-resize_1-target.png,250,2.7305,1,3629,249,meters,jsons/v1_VE250_randls_3.json,1753982,1852671,25,Man
39,107650,DepthScenes,duration_manipulation_targetAtFixation,jsons/v1_VE250_randls_3.json,http://54.235.29.9/FacialAge/BNav_EC2/DepthDuration/v2_depth_duration_MTurk/v2_DepthDuration_HTML.html#163,163,1268,608,1280,800,8-29-2022,10-42-44,40,depth_duration_stimuli/001617_2014-06-20_11-35-32_260595134347_rgbf000066-resize_1/001617_2014-06-20_11-35-32_260595134347_rgbf000066-resize_1-target.png,250,3.7910000000000004,0,4154,254,meters,jsons/v1_VE250_randls_3.json,1753982,1852671,25,Man
40,107650,DepthScenes,duration_manipulation_targetAtFixation,jsons/v1_VE250_randls_3.json,http://54.235.29.9/FacialAge/BNav_EC2/DepthDuration/v2_depth_duration_MTurk/v2_DepthDuration_HTML.html#163,163,1268,608,1280,800,8-29-2022,10-42-44,41,depth_duration_stimuli/001810_2014-06-26_20-51-35_260595134347_rgbf000040-resize_3/001810_2014-06-26_20-51-35_260595134347_rgbf000040-resize_3-target.png,250,2.2525,0,38891,246,meters,jsons/v1_VE250_randls_3.json,1753982,1852671,25,Man
41,107650,DepthScenes,duration_manipulation_targetAtFixation,jsons/v1_VE250_randls_3.json,http://54.235.29.9/FacialAge/BNav_EC2/DepthDuration/v2_depth_duration_MTurk/v2_DepthDuration_HTML.html#163,163,1268,608,1280,800,8-29-2022,10-42-44,42,depth_duration_stimuli/003010_2014-06-15_12-54-35_094959634447_rgbf000112-resize_0/003010_2014-06-15_12-54-35_094959634447_rgbf000112-resize_0-target.png,250,3.1185,1,3093,248,meters,jsons/v1_VE250_randls_3.json,1753982,1852671,25,Man
42,107650,DepthScenes,duration_manipulation_targetAtFixation,jsons/v1_VE250_randls_3.json,http://54.235.29.9/FacialAge/BNav_EC2/DepthDuration/v2_depth_duration_MTurk/v2_DepthDuration_HTML.html#163,163,1268,608,1280,800,8-29-2022,10-42-44,43,depth_duration_stimuli/002600_2014-06-24_14-27-04_094959634447_rgbf000074-resize_2/002600_2014-06-24_14-27-04_094959634447_rgbf000074-resize_2-target.png,250,2.7575,1,2227,256,meters,jsons/v1_VE250_randls_3.json,1753982,1852671,25,Man
43,107650,DepthScenes,duration_manipulation_targetAtFixation,jsons/v1_VE250_randls_3.json,http://54.235.29.9/FacialAge/BNav_EC2/DepthDuration/v2_depth_duration_MTurk/v2_DepthDuration_HTML.html#163,163,1268,608,1280,800,8-29-2022,10-42-44,44,depth_duration_stimuli/003228_2014-05-14_13-42-35_094959634447_rgbf000101-resize_1/003228_2014-05-14_13-42-35_094959634447_rgbf000101-resize_1-target.png,250,1.9680000000000002,1,1963,251,meters,jsons/v1_VE250_randls_3.json,1753982,1852671,25,Man
44,107650,DepthScenes,duration_manipulation_targetAtFixation,jsons/v1_VE250_randls_3.json,http://54.235.29.9/FacialAge/BNav_EC2/DepthDuration/v2_depth_duration_MTurk/v2_DepthDuration_HTML.html#163,163,1268,608,1280,800,8-29-2022,10-42-44,45,depth_duration_stimuli/000787_2014-06-08_22-33-53_260595134347_rgbf000175-resize_1/000787_2014-06-08_22-33-53_260595134347_rgbf000175-resize-original.jpg,250,4.784,0,2591,244,meters,jsons/v1_VE250_randls_3.json,1753982,1852671,25,Man
45,107650,DepthScenes,duration_manipulation_targetAtFixation,jsons/v1_VE250_randls_3.json,http://54.235.29.9/FacialAge/BNav_EC2/DepthDuration/v2_depth_duration_MTurk/v2_DepthDuration_HTML.html#163,163,1268,608,1280,800,8-29-2022,10-42-44,46,depth_duration_stimuli/002905_2014-06-03_18-04-43_094959634447_rgbf000151-resize_2/002905_2014-06-03_18-04-43_094959634447_rgbf000151-resize_2-target.png,250,2.0295,1,2554,250,meters,jsons/v1_VE250_randls_3.json,1753982,1852671,25,Man
46,107650,DepthScenes,duration_manipulation_targetAtFixation,jsons/v1_VE250_randls_3.json,http://54.235.29.9/FacialAge/BNav_EC2/DepthDuration/v2_depth_duration_MTurk/v2_DepthDuration_HTML.html#163,163,1268,608,1280,800,8-29-2022,10-42-44,47,depth_duration_stimuli/003423_2014-05-21_10-23-26_094959634447_rgbf002665-resize_2/003423_2014-05-21_10-23-26_094959634447_rgbf002665-resize_2-target.png,250,3.2575,0,2243,253,meters,jsons/v1_VE250_randls_3.json,1753982,1852671,25,Man
47,107650,DepthScenes,duration_manipulation_targetAtFixation,jsons/v1_VE250_randls_3.json,http://54.235.29.9/FacialAge/BNav_EC2/DepthDuration/v2_depth_duration_MTurk/v2_DepthDuration_HTML.html#163,163,1268,608,1280,800,8-29-2022,10-42-44,48,depth_duration_stimuli/000469_2014-06-09_19-42-10_260595134347_rgbf000081-resize_1/000469_2014-06-09_19-42-10_260595134347_rgbf000081-resize_1-target.png,250,1.652,0,2530,250,meters,jsons/v1_VE250_randls_3.json,1753982,1852671,25,Man
48,107650,DepthScenes,duration_manipulation_targetAtFixation,jsons/v1_VE250_randls_3.json,http://54.235.29.9/FacialAge/BNav_EC2/DepthDuration/v2_depth_duration_MTurk/v2_DepthDuration_HTML.html#163,163,1268,608,1280,800,8-29-2022,10-42-44,49,depth_duration_stimuli/000483_2014-06-09_20-41-45_260595134347_rgbf000116-resize_4/000483_2014-06-09_20-41-45_260595134347_rgbf000116-resize_4-target.png,250,1.337,0,2151,238,meters,jsons/v1_VE250_randls_3.json,1753982,1852671,25,Man
49,107650,DepthScenes,duration_manipulation_targetAtFixation,jsons/v1_VE250_randls_3.json,http://54.235.29.9/FacialAge/BNav_EC2/DepthDuration/v2_depth_duration_MTurk/v2_DepthDuration_HTML.html#163,163,1268,608,1280,800,8-29-2022,10-42-44,50,depth_duration_stimuli/000906_2014-06-08_13-35-43_260595134347_rgbf000155-resize_1/000906_2014-06-08_13-35-43_260595134347_rgbf000155-resize_1-target.png,250,2.8489999999999998,0,2419,244,meters,jsons/v1_VE250_randls_3.json,1753982,1852671,25,Man
50,107650,DepthScenes,duration_manipulation_targetAtFixation,jsons/v1_VE250_randls_3.json,http://54.235.29.9/FacialAge/BNav_EC2/DepthDuration/v2_depth_duration_MTurk/v2_DepthDuration_HTML.html#163,163,1268,608,1280,800,8-29-2022,10-42-44,51,depth_duration_stimuli/002805_2014-06-22_19-54-03_094959634447_rgbf000079-resize_1/002805_2014-06-22_19-54-03_094959634447_rgbf000079-resize_1-target.png,250,3.1439999999999997,1,2634,249,meters,jsons/v1_VE250_randls_3.json,1753982,1852671,25,Man
51,107650,DepthScenes,duration_manipulation_targetAtFixation,jsons/v1_VE250_randls_3.json,http://54.235.29.9/FacialAge/BNav_EC2/DepthDuration/v2_depth_duration_MTurk/v2_DepthDuration_HTML.html#163,163,1268,608,1280,800,8-29-2022,10-42-44,52,depth_duration_stimuli/002989_2014-06-15_12-25-03_094959634447_rgbf000150-resize_3/002989_2014-06-15_12-25-03_094959634447_rgbf000150-resize_3-target.png,250,4.1975,0,2589,246,meters,jsons/v1_VE250_randls_3.json,1753982,1852671,25,Man
52,107650,DepthScenes,duration_manipulation_targetAtFixation,jsons/v1_VE250_randls_3.json,http://54.235.29.9/FacialAge/BNav_EC2/DepthDuration/v2_depth_duration_MTurk/v2_DepthDuration_HTML.html#163,163,1268,608,1280,800,8-29-2022,10-42-44,53,depth_duration_stimuli/000866_2014-06-09_20-45-42_260595134347_rgbf000139-resize_1/000866_2014-06-09_20-45-42_260595134347_rgbf000139-resize_1-target.png,250,3.2155,0,2263,245,meters,jsons/v1_VE250_randls_3.json,1753982,1852671,25,Man
53,107650,DepthScenes,duration_manipulation_targetAtFixation,jsons/v1_VE250_randls_3.json,http://54.235.29.9/FacialAge/BNav_EC2/DepthDuration/v2_depth_duration_MTurk/v2_DepthDuration_HTML.html#163,163,1268,608,1280,800,8-29-2022,10-42-44,54,depth_duration_stimuli/000758_2014-06-08_22-05-08_260595134347_rgbf000085-resize_0/000758_2014-06-08_22-05-08_260595134347_rgbf000085-resize_0-target.png,250,3.3810000000000002,0,2430,249,meters,jsons/v1_VE250_randls_3.json,1753982,1852671,25,Man
54,107650,DepthScenes,duration_manipulation_targetAtFixation,jsons/v1_VE250_randls_3.json,http://54.235.29.9/FacialAge/BNav_EC2/DepthDuration/v2_depth_duration_MTurk/v2_DepthDuration_HTML.html#163,163,1268,608,1280,800,8-29-2022,10-42-44,55,depth_duration_stimuli/000854_2014-06-09_19-43-13_260595134347_rgbf000066-resize_0/000854_2014-06-09_19-43-13_260595134347_rgbf000066-resize_0-target.png,250,3.068,0,2234,250,meters,jsons/v1_VE250_randls_3.json,1753982,1852671,25,Man
55,107650,DepthScenes,duration_manipulation_targetAtFixation,jsons/v1_VE250_randls_3.json,http://54.235.29.9/FacialAge/BNav_EC2/DepthDuration/v2_depth_duration_MTurk/v2_DepthDuration_HTML.html#163,163,1268,608,1280,800,8-29-2022,10-42-44,56,depth_duration_stimuli/001066_2014-06-08_22-03-20_260595134347_rgbf000066-resize_4/001066_2014-06-08_22-03-20_260595134347_rgbf000066-resize_4-target.png,250,4.2330000000000005,0,2300,247,meters,jsons/v1_VE250_randls_3.json,1753982,1852671,25,Man
56,107650,DepthScenes,duration_manipulation_targetAtFixation,jsons/v1_VE250_randls_3.json,http://54.235.29.9/FacialAge/BNav_EC2/DepthDuration/v2_depth_duration_MTurk/v2_DepthDuration_HTML.html#163,163,1268,608,1280,800,8-29-2022,10-42-44,57,depth_duration_stimuli/000742_2014-06-08_18-48-09_260595134347_rgbf000164-resize_4/000742_2014-06-08_18-48-09_260595134347_rgbf000164-resize_4-target.png,250,4.632,0,2361,250,meters,jsons/v1_VE250_randls_3.json,1753982,1852671,25,Man
57,107650,DepthScenes,duration_manipulation_targetAtFixation,jsons/v1_VE250_randls_3.json,http://54.235.29.9/FacialAge/BNav_EC2/DepthDuration/v2_depth_duration_MTurk/v2_DepthDuration_HTML.html#163,163,1268,608,1280,800,8-29-2022,10-42-44,58,depth_duration_stimuli/000692_2014-06-08_13-09-42_260595134347_rgbf000199-resize_2/000692_2014-06-08_13-09-42_260595134347_rgbf000199-resize_2-target.png,250,3.661,0,3075,250,meters,jsons/v1_VE250_randls_3.json,1753982,1852671,25,Man
58,107650,DepthScenes,duration_manipulation_targetAtFixation,jsons/v1_VE250_randls_3.json,http://54.235.29.9/FacialAge/BNav_EC2/DepthDuration/v2_depth_duration_MTurk/v2_DepthDuration_HTML.html#163,163,1268,608,1280,800,8-29-2022,10-42-44,59,depth_duration_stimuli/001094_2014-06-15_17-36-00_260595134347_rgbf000205-resize_0/001094_2014-06-15_17-36-00_260595134347_rgbf000205-resize_0-target.png,250,4.2175,0,2238,216,meters,jsons/v1_VE250_randls_3.json,1753982,1852671,25,Man
59,107650,DepthScenes,duration_manipulation_targetAtFixation,jsons/v1_VE250_randls_3.json,http://54.235.29.9/FacialAge/BNav_EC2/DepthDuration/v2_depth_duration_MTurk/v2_DepthDuration_HTML.html#163,163,1268,608,1280,800,8-29-2022,10-42-44,60,depth_duration_stimuli/001158_2014-06-17_15-32-16_260595134347_rgbf000138-resize_2/001158_2014-06-17_15-32-16_260595134347_rgbf000138-resize_2-target.png,250,4.5315,1,2948,258,meters,jsons/v1_VE250_randls_3.json,1753982,1852671,25,Man
60,107650,DepthScenes,duration_manipulation_targetAtFixation,jsons/v1_VE250_randls_3.json,http://54.235.29.9/FacialAge/BNav_EC2/DepthDuration/v2_depth_duration_MTurk/v2_DepthDuration_HTML.html#163,163,1268,608,1280,800,8-29-2022,10-42-44,61,depth_duration_stimuli/000556_2014-06-09_22-42-56_260595134347_rgbf000214-resize_1/000556_2014-06-09_22-42-56_260595134347_rgbf000214-resize_1-target.png,250,4.8415,0,2087,249,meters,jsons/v1_VE250_randls_3.json,1753982,1852671,25,Man
61,107650,DepthScenes,duration_manipulation_targetAtFixation,jsons/v1_VE250_randls_3.json,http://54.235.29.9/FacialAge/BNav_EC2/DepthDuration/v2_depth_duration_MTurk/v2_DepthDuration_HTML.html#163,163,1268,608,1280,800,8-29-2022,10-42-44,62,depth_duration_stimuli/001808_2014-06-26_20-50-58_260595134347_rgbf000029-resize_1/001808_2014-06-26_20-50-58_260595134347_rgbf000029-resize_1-target.png,250,4.249,0,2535,246,meters,jsons/v1_VE250_randls_3.json,1753982,1852671,25,Man
62,107650,DepthScenes,duration_manipulation_targetAtFixation,jsons/v1_VE250_randls_3.json,http://54.235.29.9/FacialAge/BNav_EC2/DepthDuration/v2_depth_duration_MTurk/v2_DepthDuration_HTML.html#163,163,1268,608,1280,800,8-29-2022,10-42-44,63,depth_duration_stimuli/001815_2014-06-26_20-52-55_260595134347_rgbf000020-resize_0/001815_2014-06-26_20-52-55_260595134347_rgbf000020-resize_0-target.png,250,3.3865,0,2539,250,meters,jsons/v1_VE250_randls_3.json,1753982,1852671,25,Man
63,107650,DepthScenes,duration_manipulation_targetAtFixation,jsons/v1_VE250_randls_3.json,http://54.235.29.9/FacialAge/BNav_EC2/DepthDuration/v2_depth_duration_MTurk/v2_DepthDuration_HTML.html#163,163,1268,608,1280,800,8-29-2022,10-42-44,64,depth_duration_stimuli/003492_2014-05-21_15-50-55_094959634447_rgbf000828-resize_1/003492_2014-05-21_15-50-55_094959634447_rgbf000828-resize_1-target.png,250,4.06875,0,2490,249,meters,jsons/v1_VE250_randls_3.json,1753982,1852671,25,Man
64,107650,DepthScenes,duration_manipulation_targetAtFixation,jsons/v1_VE250_randls_3.json,http://54.235.29.9/FacialAge/BNav_EC2/DepthDuration/v2_depth_duration_MTurk/v2_DepthDuration_HTML.html#163,163,1268,608,1280,800,8-29-2022,10-42-44,65,depth_duration_stimuli/002568_2014-06-24_13-59-21_094959634447_rgbf000062-resize_4/002568_2014-06-24_13-59-21_094959634447_rgbf000062-resize_4-target.png,250,3.015,1,2210,250,meters,jsons/v1_VE250_randls_3.json,1753982,1852671,25,Man
65,107650,DepthScenes,duration_manipulation_targetAtFixation,jsons/v1_VE250_randls_3.json,http://54.235.29.9/FacialAge/BNav_EC2/DepthDuration/v2_depth_duration_MTurk/v2_DepthDuration_HTML.html#163,163,1268,608,1280,800,8-29-2022,10-42-44,66,depth_duration_stimuli/001222_2014-06-17_16-24-06_260595134347_rgbf000073-resize_0/001222_2014-06-17_16-24-06_260595134347_rgbf000073-resize-original.jpg,250,1.4385,0,2586,248,meters,jsons/v1_VE250_randls_3.json,1753982,1852671,25,Man
66,107650,DepthScenes,duration_manipulation_targetAtFixation,jsons/v1_VE250_randls_3.json,http://54.235.29.9/FacialAge/BNav_EC2/DepthDuration/v2_depth_duration_MTurk/v2_DepthDuration_HTML.html#163,163,1268,608,1280,800,8-29-2022,10-42-44,67,depth_duration_stimuli/000470_2014-06-09_19-42-40_260595134347_rgbf000094-resize_1/000470_2014-06-09_19-42-40_260595134347_rgbf000094-resize_1-target.png,250,1.831,1,2670,250,meters,jsons/v1_VE250_randls_3.json,1753982,1852671,25,Man
67,107650,DepthScenes,duration_manipulation_targetAtFixation,jsons/v1_VE250_randls_3.json,http://54.235.29.9/FacialAge/BNav_EC2/DepthDuration/v2_depth_duration_MTurk/v2_DepthDuration_HTML.html#163,163,1268,608,1280,800,8-29-2022,10-42-44,68,depth_duration_stimuli/000109_2014-05-14_23-41-52_260595134347_rgbf000035-resize_9/000109_2014-05-14_23-41-52_260595134347_rgbf000035-resize_9-target.png,250,1.3545,0,2257,240,meters,jsons/v1_VE250_randls_3.json,1753982,1852671,25,Man
68,107650,DepthScenes,duration_manipulation_targetAtFixation,jsons/v1_VE250_randls_3.json,http://54.235.29.9/FacialAge/BNav_EC2/DepthDuration/v2_depth_duration_MTurk/v2_DepthDuration_HTML.html#163,163,1268,608,1280,800,8-29-2022,10-42-44,69,depth_duration_stimuli/001059_2014-06-08_21-53-27_260595134347_rgbf000061-resize_4/001059_2014-06-08_21-53-27_260595134347_rgbf000061-resize_4-target.png,250,2.4185,0,2822,251,meters,jsons/v1_VE250_randls_3.json,1753982,1852671,25,Man
69,107650,DepthScenes,duration_manipulation_targetAtFixation,jsons/v1_VE250_randls_3.json,http://54.235.29.9/FacialAge/BNav_EC2/DepthDuration/v2_depth_duration_MTurk/v2_DepthDuration_HTML.html#163,163,1268,608,1280,800,8-29-2022,10-42-44,70,depth_duration_stimuli/001032_2014-06-08_13-23-17_260595134347_rgbf000021-resize_3/001032_2014-06-08_13-23-17_260595134347_rgbf000021-resize_3-target.png,250,3.2725,0,2289,250,meters,jsons/v1_VE250_randls_3.json,1753982,1852671,25,Man
70,107650,DepthScenes,duration_manipulation_targetAtFixation,jsons/v1_VE250_randls_3.json,http://54.235.29.9/FacialAge/BNav_EC2/DepthDuration/v2_depth_duration_MTurk/v2_DepthDuration_HTML.html#163,163,1268,608,1280,800,8-29-2022,10-42-44,71,depth_duration_stimuli/002663_2014-06-13_15-50-26_094959634447_rgbf000075-resize_1/002663_2014-06-13_15-50-26_094959634447_rgbf000075-resize_1-target.png,250,4.7495,0,2589,259,meters,jsons/v1_VE250_randls_3.json,1753982,1852671,25,Man
71,107650,DepthScenes,duration_manipulation_targetAtFixation,jsons/v1_VE250_randls_3.json,http://54.235.29.9/FacialAge/BNav_EC2/DepthDuration/v2_depth_duration_MTurk/v2_DepthDuration_HTML.html#163,163,1268,608,1280,800,8-29-2022,10-42-44,72,depth_duration_stimuli/000409_2014-06-04_19-23-33_260595134347_rgbf000067-resize_0/000409_2014-06-04_19-23-33_260595134347_rgbf000067-resize_0-target.png,250,3.7335,1,2068,248,meters,jsons/v1_VE250_randls_3.json,1753982,1852671,25,Man
72,107650,DepthScenes,duration_manipulation_targetAtFixation,jsons/v1_VE250_randls_3.json,http://54.235.29.9/FacialAge/BNav_EC2/DepthDuration/v2_depth_duration_MTurk/v2_DepthDuration_HTML.html#163,163,1268,608,1280,800,8-29-2022,10-42-44,73,depth_duration_stimuli/002570_2014-06-24_13-59-54_094959634447_rgbf000059-resize_0/002570_2014-06-24_13-59-54_094959634447_rgbf000059-resize_0-target.png,250,4.037,1,2871,250,meters,jsons/v1_VE250_randls_3.json,1753982,1852671,25,Man
73,107650,DepthScenes,duration_manipulation_targetAtFixation,jsons/v1_VE250_randls_3.json,http://54.235.29.9/FacialAge/BNav_EC2/DepthDuration/v2_depth_duration_MTurk/v2_DepthDuration_HTML.html#163,163,1268,608,1280,800,8-29-2022,10-42-44,74,depth_duration_stimuli/002467_2014-06-28_20-38-07_260595134347_rgbf000026-resize_2/002467_2014-06-28_20-38-07_260595134347_rgbf000026-resize_2-target.png,250,4.742,0,2292,248,meters,jsons/v1_VE250_randls_3.json,1753982,1852671,25,Man
74,107650,DepthScenes,duration_manipulation_targetAtFixation,jsons/v1_VE250_randls_3.json,http://54.235.29.9/FacialAge/BNav_EC2/DepthDuration/v2_depth_duration_MTurk/v2_DepthDuration_HTML.html#163,163,1268,608,1280,800,8-29-2022,10-42-44,75,depth_duration_stimuli/001092_2014-06-15_17-34-58_260595134347_rgbf000171-resize_3/001092_2014-06-15_17-34-58_260595134347_rgbf000171-resize_3-target.png,250,2.6935,1,2367,250,meters,jsons/v1_VE250_randls_3.json,1753982,1852671,25,Man
75,107650,DepthScenes,duration_manipulation_targetAtFixation,jsons/v1_VE250_randls_3.json,http://54.235.29.9/FacialAge/BNav_EC2/DepthDuration/v2_depth_duration_MTurk/v2_DepthDuration_HTML.html#163,163,1268,608,1280,800,8-29-2022,10-42-44,76,depth_duration_stimuli/002545_2014-06-24_13-38-53_094959634447_rgbf000080-resize_4/002545_2014-06-24_13-38-53_094959634447_rgbf000080-resize_4-target.png,250,1.9205,1,2132,252,meters,jsons/v1_VE250_randls_3.json,1753982,1852671,25,Man
76,107650,DepthScenes,duration_manipulation_targetAtFixation,jsons/v1_VE250_randls_3.json,http://54.235.29.9/FacialAge/BNav_EC2/DepthDuration/v2_depth_duration_MTurk/v2_DepthDuration_HTML.html#163,163,1268,608,1280,800,8-29-2022,10-42-44,77,depth_duration_stimuli/001150_2014-06-17_15-27-34_260595134347_rgbf000108-resize_2/001150_2014-06-17_15-27-34_260595134347_rgbf000108-resize_2-target.png,250,4.0325,0,2403,250,meters,jsons/v1_VE250_randls_3.json,1753982,1852671,25,Man
77,107650,DepthScenes,duration_manipulation_targetAtFixation,jsons/v1_VE250_randls_3.json,http://54.235.29.9/FacialAge/BNav_EC2/DepthDuration/v2_depth_duration_MTurk/v2_DepthDuration_HTML.html#163,163,1268,608,1280,800,8-29-2022,10-42-44,78,depth_duration_stimuli/000665_2014-06-09_20-42-35_260595134347_rgbf000110-resize_1/000665_2014-06-09_20-42-35_260595134347_rgbf000110-resize_1-target.png,250,3.057,0,2348,262,meters,jsons/v1_VE250_randls_3.json,1753982,1852671,25,Man
78,107650,DepthScenes,duration_manipulation_targetAtFixation,jsons/v1_VE250_randls_3.json,http://54.235.29.9/FacialAge/BNav_EC2/DepthDuration/v2_depth_duration_MTurk/v2_DepthDuration_HTML.html#163,163,1268,608,1280,800,8-29-2022,10-42-44,79,depth_duration_stimuli/001011_2014-06-08_23-18-54_260595134347_rgbf000044-resize_4/001011_2014-06-08_23-18-54_260595134347_rgbf000044-resize_4-target.png,250,2.4730000000000003,0,2671,251,meters,jsons/v1_VE250_randls_3.json,1753982,1852671,25,Man
79,107650,DepthScenes,duration_manipulation_targetAtFixation,jsons/v1_VE250_randls_3.json,http://54.235.29.9/FacialAge/BNav_EC2/DepthDuration/v2_depth_duration_MTurk/v2_DepthDuration_HTML.html#163,163,1268,608,1280,800,8-29-2022,10-42-44,80,depth_duration_stimuli/002875_2014-06-01_15-19-00_094959634447_rgbf000151-resize_1/002875_2014-06-01_15-19-00_094959634447_rgbf000151-resize_1-target.png,250,1.9675,1,2276,263,meters,jsons/v1_VE250_randls_3.json,1753982,1852671,25,Man
80,107650,DepthScenes,duration_manipulation_targetAtFixation,jsons/v1_VE250_randls_3.json,http://54.235.29.9/FacialAge/BNav_EC2/DepthDuration/v2_depth_duration_MTurk/v2_DepthDuration_HTML.html#163,163,1268,608,1280,800,8-29-2022,10-42-44,81,depth_duration_stimuli/000486_2014-06-09_20-47-20_260595134347_rgbf000143-resize_2/000486_2014-06-09_20-47-20_260595134347_rgbf000143-resize_2-target.png,250,4.8325,1,3000,250,meters,jsons/v1_VE250_randls_3.json,1753982,1852671,25,Man
81,107650,DepthScenes,duration_manipulation_targetAtFixation,jsons/v1_VE250_randls_3.json,http://54.235.29.9/FacialAge/BNav_EC2/DepthDuration/v2_depth_duration_MTurk/v2_DepthDuration_HTML.html#163,163,1268,608,1280,800,8-29-2022,10-42-44,82,depth_duration_stimuli/003083_2014-06-15_15-21-03_094959634447_rgbf000063-resize_1/003083_2014-06-15_15-21-03_094959634447_rgbf000063-resize_1-target.png,250,4.1405,0,2444,245,meters,jsons/v1_VE250_randls_3.json,1753982,1852671,25,Man
82,107650,DepthScenes,duration_manipulation_targetAtFixation,jsons/v1_VE250_randls_3.json,http://54.235.29.9/FacialAge/BNav_EC2/DepthDuration/v2_depth_duration_MTurk/v2_DepthDuration_HTML.html#163,163,1268,608,1280,800,8-29-2022,10-42-44,83,depth_duration_stimuli/001244_2014-06-17_16-47-45_260595134347_rgbf000030-resize_4/001244_2014-06-17_16-47-45_260595134347_rgbf000030-resize_4-target.png,250,2.0425,1,2691,264,meters,jsons/v1_VE250_randls_3.json,1753982,1852671,25,Man
83,107650,DepthScenes,duration_manipulation_targetAtFixation,jsons/v1_VE250_randls_3.json,http://54.235.29.9/FacialAge/BNav_EC2/DepthDuration/v2_depth_duration_MTurk/v2_DepthDuration_HTML.html#163,163,1268,608,1280,800,8-29-2022,10-42-44,84,depth_duration_stimuli/003495_2014-05-21_16-01-51_094959634447_rgbf000100-resize_3/003495_2014-05-21_16-01-51_094959634447_rgbf000100-resize_3-target.png,250,1.6255,1,2310,252,meters,jsons/v1_VE250_randls_3.json,1753982,1852671,25,Man
84,107650,DepthScenes,duration_manipulation_targetAtFixation,jsons/v1_VE250_randls_3.json,http://54.235.29.9/FacialAge/BNav_EC2/DepthDuration/v2_depth_duration_MTurk/v2_DepthDuration_HTML.html#163,163,1268,608,1280,800,8-29-2022,10-42-44,85,depth_duration_stimuli/002630_2014-06-24_14-47-50_094959634447_rgbf000055-resize_1/002630_2014-06-24_14-47-50_094959634447_rgbf000055-resize_1-target.png,250,3.0095,0,2742,251,meters,jsons/v1_VE250_randls_3.json,1753982,1852671,25,Man
85,107650,DepthScenes,duration_manipulation_targetAtFixation,jsons/v1_VE250_randls_3.json,http://54.235.29.9/FacialAge/BNav_EC2/DepthDuration/v2_depth_duration_MTurk/v2_DepthDuration_HTML.html#163,163,1268,608,1280,800,8-29-2022,10-42-44,86,depth_duration_stimuli/002758_2014-06-22_19-11-20_094959634447_rgbf000128-resize_1/002758_2014-06-22_19-11-20_094959634447_rgbf000128-resize_1-target.png,250,2.555,0,2410,250,meters,jsons/v1_VE250_randls_3.json,1753982,1852671,25,Man
86,107650,DepthScenes,duration_manipulation_targetAtFixation,jsons/v1_VE250_randls_3.json,http://54.235.29.9/FacialAge/BNav_EC2/DepthDuration/v2_depth_duration_MTurk/v2_DepthDuration_HTML.html#163,163,1268,608,1280,800,8-29-2022,10-42-44,87,depth_duration_stimuli/002279_2014-06-28_18-55-32_260595134347_rgbf000040-resize_5/002279_2014-06-28_18-55-32_260595134347_rgbf000040-resize_5-target.png,250,1.5043333333333,0,24934,266,meters,jsons/v1_VE250_randls_3.json,1753982,1852671,25,Man
87,107650,DepthScenes,duration_manipulation_targetAtFixation,jsons/v1_VE250_randls_3.json,http://54.235.29.9/FacialAge/BNav_EC2/DepthDuration/v2_depth_duration_MTurk/v2_DepthDuration_HTML.html#163,163,1268,608,1280,800,8-29-2022,10-42-44,88,depth_duration_stimuli/000635_2014-06-08_16-38-42_260595134347_rgbf000106-resize_1/000635_2014-06-08_16-38-42_260595134347_rgbf000106-resize_1-target.png,250,2.074,1,2628,251,meters,jsons/v1_VE250_randls_3.json,1753982,1852671,25,Man
88,107650,DepthScenes,duration_manipulation_targetAtFixation,jsons/v1_VE250_randls_3.json,http://54.235.29.9/FacialAge/BNav_EC2/DepthDuration/v2_depth_duration_MTurk/v2_DepthDuration_HTML.html#163,163,1268,608,1280,800,8-29-2022,10-42-44,89,depth_duration_stimuli/002213_2014-06-28_18-37-58_260595134347_rgbf000055-resize_1/002213_2014-06-28_18-37-58_260595134347_rgbf000055-resize_1-target.png,250,3.62,0,2250,239,meters,jsons/v1_VE250_randls_3.json,1753982,1852671,25,Man
89,107650,DepthScenes,duration_manipulation_targetAtFixation,jsons/v1_VE250_randls_3.json,http://54.235.29.9/FacialAge/BNav_EC2/DepthDuration/v2_depth_duration_MTurk/v2_DepthDuration_HTML.html#163,163,1268,608,1280,800,8-29-2022,10-42-44,90,depth_duration_stimuli/000691_2014-06-08_13-08-50_260595134347_rgbf000132-resize_3/000691_2014-06-08_13-08-50_260595134347_rgbf000132-resize_3-target.png,250,4.1530000000000005,0,2098,249,meters,jsons/v1_VE250_randls_3.json,1753982,1852671,25,Man
90,107650,DepthScenes,duration_manipulation_targetAtFixation,jsons/v1_VE250_randls_3.json,http://54.235.29.9/FacialAge/BNav_EC2/DepthDuration/v2_depth_duration_MTurk/v2_DepthDuration_HTML.html#163,163,1268,608,1280,800,8-29-2022,10-42-44,91,depth_duration_stimuli/000642_2014-06-08_16-59-25_260595134347_rgbf000098-resize_2/000642_2014-06-08_16-59-25_260595134347_rgbf000098-resize_2-target.png,250,2.8815,0,2426,249,meters,jsons/v1_VE250_randls_3.json,1753982,1852671,25,Man
91,107650,DepthScenes,duration_manipulation_targetAtFixation,jsons/v1_VE250_randls_3.json,http://54.235.29.9/FacialAge/BNav_EC2/DepthDuration/v2_depth_duration_MTurk/v2_DepthDuration_HTML.html#163,163,1268,608,1280,800,8-29-2022,10-42-44,92,depth_duration_stimuli/002425_2014-06-28_20-27-29_260595134347_rgbf000031-resize_8/002425_2014-06-28_20-27-29_260595134347_rgbf000031-resize_8-target.png,250,3.8960000000000004,0,1978,249,meters,jsons/v1_VE250_randls_3.json,1753982,1852671,25,Man
92,107650,DepthScenes,duration_manipulation_targetAtFixation,jsons/v1_VE250_randls_3.json,http://54.235.29.9/FacialAge/BNav_EC2/DepthDuration/v2_depth_duration_MTurk/v2_DepthDuration_HTML.html#163,163,1268,608,1280,800,8-29-2022,10-42-44,93,depth_duration_stimuli/003621_2014-05-23_18-06-08_094959634447_rgbf000101-resize_1/003621_2014-05-23_18-06-08_094959634447_rgbf000101-resize_1-target.png,250,3.9835,0,2118,244,meters,jsons/v1_VE250_randls_3.json,1753982,1852671,25,Man
93,107650,DepthScenes,duration_manipulation_targetAtFixation,jsons/v1_VE250_randls_3.json,http://54.235.29.9/FacialAge/BNav_EC2/DepthDuration/v2_depth_duration_MTurk/v2_DepthDuration_HTML.html#163,163,1268,608,1280,800,8-29-2022,10-42-44,94,depth_duration_stimuli/001584_2014-06-20_11-07-43_260595134347_rgbf000002-resize_1/001584_2014-06-20_11-07-43_260595134347_rgbf000002-resize_1-target.png,250,3.53,0,2107,246,meters,jsons/v1_VE250_randls_3.json,1753982,1852671,25,Man
94,107650,DepthScenes,duration_manipulation_targetAtFixation,jsons/v1_VE250_randls_3.json,http://54.235.29.9/FacialAge/BNav_EC2/DepthDuration/v2_depth_duration_MTurk/v2_DepthDuration_HTML.html#163,163,1268,608,1280,800,8-29-2022,10-42-44,95,depth_duration_stimuli/000878_2014-06-08_22-52-45_260595134347_rgbf000045-resize_2/000878_2014-06-08_22-52-45_260595134347_rgbf000045-resize_2-target.png,250,2.092,0,2386,249,meters,jsons/v1_VE250_randls_3.json,1753982,1852671,25,Man
95,107650,DepthScenes,duration_manipulation_targetAtFixation,jsons/v1_VE250_randls_3.json,http://54.235.29.9/FacialAge/BNav_EC2/DepthDuration/v2_depth_duration_MTurk/v2_DepthDuration_HTML.html#163,163,1268,608,1280,800,8-29-2022,10-42-44,96,depth_duration_stimuli/002953_2014-06-08_17-32-18_094959634447_rgbf000059-resize_5/002953_2014-06-08_17-32-18_094959634447_rgbf000059-resize_5-target.png,250,1.551,1,2189,256,meters,jsons/v1_VE250_randls_3.json,1753982,1852671,25,Man
96,107650,DepthScenes,duration_manipulation_targetAtFixation,jsons/v1_VE250_randls_3.json,http://54.235.29.9/FacialAge/BNav_EC2/DepthDuration/v2_depth_duration_MTurk/v2_DepthDuration_HTML.html#163,163,1268,608,1280,800,8-29-2022,10-42-44,97,depth_duration_stimuli/000447_2014-06-08_16-15-46_260595134347_rgbf000130-resize_1/000447_2014-06-08_16-15-46_260595134347_rgbf000130-resize_1-target.png,250,4.479,0,2352,241,meters,jsons/v1_VE250_randls_3.json,1753982,1852671,25,Man
97,107650,DepthScenes,duration_manipulation_targetAtFixation,jsons/v1_VE250_randls_3.json,http://54.235.29.9/FacialAge/BNav_EC2/DepthDuration/v2_depth_duration_MTurk/v2_DepthDuration_HTML.html#163,163,1268,608,1280,800,8-29-2022,10-42-44,98,depth_duration_stimuli/001447_2014-06-19_17-00-32_260595134347_rgbf000082-resize_5/001447_2014-06-19_17-00-32_260595134347_rgbf000082-resize_5-target.png,250,4.13775,1,2144,255,meters,jsons/v1_VE250_randls_3.json,1753982,1852671,25,Man
98,107650,DepthScenes,duration_manipulation_targetAtFixation,jsons/v1_VE250_randls_3.json,http://54.235.29.9/FacialAge/BNav_EC2/DepthDuration/v2_depth_duration_MTurk/v2_DepthDuration_HTML.html#163,163,1268,608,1280,800,8-29-2022,10-42-44,99,depth_duration_stimuli/001540_2014-06-20_17-01-05_260595134347_rgbf000086-resize_2/001540_2014-06-20_17-01-05_260595134347_rgbf000086-resize-original.jpg,250,1.459,0,2609,250,meters,jsons/v1_VE250_randls_3.json,1753982,1852671,25,Man
99,107650,DepthScenes,duration_manipulation_targetAtFixation,jsons/v1_VE250_randls_3.json,http://54.235.29.9/FacialAge/BNav_EC2/DepthDuration/v2_depth_duration_MTurk/v2_DepthDuration_HTML.html#163,163,1268,608,1280,800,8-29-2022,10-42-44,100,depth_duration_stimuli/000929_2014-06-09_16-33-19_260595134347_rgbf000139-resize_0/000929_2014-06-09_16-33-19_260595134347_rgbf000139-resize_0-target.png,250,2.8680000000000003,1,2313,234,meters,jsons/v1_VE250_randls_3.json,1753982,1852671,25,Man
100,107650,DepthScenes,duration_manipulation_targetAtFixation,jsons/v1_VE250_randls_3.json,http://54.235.29.9/FacialAge/BNav_EC2/DepthDuration/v2_depth_duration_MTurk/v2_DepthDuration_HTML.html#163,163,1268,608,1280,800,8-29-2022,10-42-44,101,depth_duration_stimuli/000457_2014-06-08_16-52-43_260595134347_rgbf000199-resize_1/000457_2014-06-08_16-52-43_260595134347_rgbf000199-resize_1-target.png,250,3.6489999999999996,0,2088,250,meters,jsons/v1_VE250_randls_3.json,1753982,1852671,25,Man
101,107650,DepthScenes,duration_manipulation_targetAtFixation,jsons/v1_VE250_randls_3.json,http://54.235.29.9/FacialAge/BNav_EC2/DepthDuration/v2_depth_duration_MTurk/v2_DepthDuration_HTML.html#163,163,1268,608,1280,800,8-29-2022,10-42-44,102,depth_duration_stimuli/002964_2014-06-08_17-46-11_094959634447_rgbf000091-resize_4/002964_2014-06-08_17-46-11_094959634447_rgbf000091-resize_4-target.png,250,1.6909999999999998,1,2288,247,meters,jsons/v1_VE250_randls_3.json,1753982,1852671,25,Man
102,107650,DepthScenes,duration_manipulation_targetAtFixation,jsons/v1_VE250_randls_3.json,http://54.235.29.9/FacialAge/BNav_EC2/DepthDuration/v2_depth_duration_MTurk/v2_DepthDuration_HTML.html#163,163,1268,608,1280,800,8-29-2022,10-42-44,103,depth_duration_stimuli/002136_2014-06-25_21-18-03_260595134347_rgbf000109-resize_3/002136_2014-06-25_21-18-03_260595134347_rgbf000109-resize_3-target.png,250,1.9569999999999999,1,2354,279,meters,jsons/v1_VE250_randls_3.json,1753982,1852671,25,Man
103,107650,DepthScenes,duration_manipulation_targetAtFixation,jsons/v1_VE250_randls_3.json,http://54.235.29.9/FacialAge/BNav_EC2/DepthDuration/v2_depth_duration_MTurk/v2_DepthDuration_HTML.html#163,163,1268,608,1280,800,8-29-2022,10-42-44,104,depth_duration_stimuli/000917_2014-06-09_22-45-29_260595134347_rgbf000149-resize_3/000917_2014-06-09_22-45-29_260595134347_rgbf000149-resize_3-target.png,250,4.1865,0,2536,237,meters,jsons/v1_VE250_randls_3.json,1753982,1852671,25,Man
104,107650,DepthScenes,duration_manipulation_targetAtFixation,jsons/v1_VE250_randls_3.json,http://54.235.29.9/FacialAge/BNav_EC2/DepthDuration/v2_depth_duration_MTurk/v2_DepthDuration_HTML.html#163,163,1268,608,1280,800,8-29-2022,10-42-44,105,depth_duration_stimuli/002323_2014-06-28_20-01-54_260595134347_rgbf000051-resize_4/002323_2014-06-28_20-01-54_260595134347_rgbf000051-resize_4-target.png,250,3.7310000000000003,0,3388,264,meters,jsons/v1_VE250_randls_3.json,1753982,1852671,25,Man
105,107650,DepthScenes,duration_manipulation_targetAtFixation,jsons/v1_VE250_randls_3.json,http://54.235.29.9/FacialAge/BNav_EC2/DepthDuration/v2_depth_duration_MTurk/v2_DepthDuration_HTML.html#163,163,1268,608,1280,800,8-29-2022,10-42-44,106,depth_duration_stimuli/001199_2014-06-17_16-03-48_260595134347_rgbf000077-resize_0/001199_2014-06-17_16-03-48_260595134347_rgbf000077-resize_0-target.png,250,3.4375,0,2432,265,meters,jsons/v1_VE250_randls_3.json,1753982,1852671,25,Man
106,107650,DepthScenes,duration_manipulation_targetAtFixation,jsons/v1_VE250_randls_3.json,http://54.235.29.9/FacialAge/BNav_EC2/DepthDuration/v2_depth_duration_MTurk/v2_DepthDuration_HTML.html#163,163,1268,608,1280,800,8-29-2022,10-42-44,107,depth_duration_stimuli/000502_2014-06-08_23-02-32_260595134347_rgbf000063-resize_4/000502_2014-06-08_23-02-32_260595134347_rgbf000063-resize_4-target.png,250,2.431,0,2107,249,meters,jsons/v1_VE250_randls_3.json,1753982,1852671,25,Man
107,107650,DepthScenes,duration_manipulation_targetAtFixation,jsons/v1_VE250_randls_3.json,http://54.235.29.9/FacialAge/BNav_EC2/DepthDuration/v2_depth_duration_MTurk/v2_DepthDuration_HTML.html#163,163,1268,608,1280,800,8-29-2022,10-42-44,108,depth_duration_stimuli/001555_2014-06-20_17-12-10_260595134347_rgbf000065-resize_4/001555_2014-06-20_17-12-10_260595134347_rgbf000065-resize_4-target.png,250,1.633,0,2267,250,meters,jsons/v1_VE250_randls_3.json,1753982,1852671,25,Man
108,107650,DepthScenes,duration_manipulation_targetAtFixation,jsons/v1_VE250_randls_3.json,http://54.235.29.9/FacialAge/BNav_EC2/DepthDuration/v2_depth_duration_MTurk/v2_DepthDuration_HTML.html#163,163,1268,608,1280,800,8-29-2022,10-42-44,109,depth_duration_stimuli/000103_2014-05-14_22-01-17_260595134347_rgbf000152-resize_5/000103_2014-05-14_22-01-17_260595134347_rgbf000152-resize_5-target.png,250,1.993,0,2067,250,meters,jsons/v1_VE250_randls_3.json,1753982,1852671,25,Man
109,107650,DepthScenes,duration_manipulation_targetAtFixation,jsons/v1_VE250_randls_3.json,http://54.235.29.9/FacialAge/BNav_EC2/DepthDuration/v2_depth_duration_MTurk/v2_DepthDuration_HTML.html#163,163,1268,608,1280,800,8-29-2022,10-42-44,110,depth_duration_stimuli/000436_2014-06-09_22-25-11_260595134347_rgbf000137-resize_1/000436_2014-06-09_22-25-11_260595134347_rgbf000137-resize_1-target.png,250,4.0705,0,2445,251,meters,jsons/v1_VE250_randls_3.json,1753982,1852671,25,Man
110,107650,DepthScenes,duration_manipulation_targetAtFixation,jsons/v1_VE250_randls_3.json,http://54.235.29.9/FacialAge/BNav_EC2/DepthDuration/v2_depth_duration_MTurk/v2_DepthDuration_HTML.html#163,163,1268,608,1280,800,8-29-2022,10-42-44,111,depth_duration_stimuli/002444_2014-06-28_20-32-08_260595134347_rgbf000027-resize_0/002444_2014-06-28_20-32-08_260595134347_rgbf000027-resize_0-target.png,250,4.388999999999999,0,2375,248,meters,jsons/v1_VE250_randls_3.json,1753982,1852671,25,Man
111,107650,DepthScenes,duration_manipulation_targetAtFixation,jsons/v1_VE250_randls_3.json,http://54.235.29.9/FacialAge/BNav_EC2/DepthDuration/v2_depth_duration_MTurk/v2_DepthDuration_HTML.html#163,163,1268,608,1280,800,8-29-2022,10-42-44,112,depth_duration_stimuli/002725_2014-06-22_11-47-51_094959634447_rgbf000070-resize_1/002725_2014-06-22_11-47-51_094959634447_rgbf000070-resize_1-target.png,250,2.195,0,2506,254,meters,jsons/v1_VE250_randls_3.json,1753982,1852671,25,Man
112,107650,DepthScenes,duration_manipulation_targetAtFixation,jsons/v1_VE250_randls_3.json,http://54.235.29.9/FacialAge/BNav_EC2/DepthDuration/v2_depth_duration_MTurk/v2_DepthDuration_HTML.html#163,163,1268,608,1280,800,8-29-2022,10-42-44,113,depth_duration_stimuli/002344_2014-06-28_20-06-29_260595134347_rgbf000030-resize_1/002344_2014-06-28_20-06-29_260595134347_rgbf000030-resize_1-target.png,250,1.5795,0,3283,249,meters,jsons/v1_VE250_randls_3.json,1753982,1852671,25,Man
113,107650,DepthScenes,duration_manipulation_targetAtFixation,jsons/v1_VE250_randls_3.json,http://54.235.29.9/FacialAge/BNav_EC2/DepthDuration/v2_depth_duration_MTurk/v2_DepthDuration_HTML.html#163,163,1268,608,1280,800,8-29-2022,10-42-44,114,depth_duration_stimuli/000739_2014-06-08_18-45-58_260595134347_rgbf000068-resize_1/000739_2014-06-08_18-45-58_260595134347_rgbf000068-resize_1-target.png,250,3.534,0,2468,251,meters,jsons/v1_VE250_randls_3.json,1753982,1852671,25,Man
114,107650,DepthScenes,duration_manipulation_targetAtFixation,jsons/v1_VE250_randls_3.json,http://54.235.29.9/FacialAge/BNav_EC2/DepthDuration/v2_depth_duration_MTurk/v2_DepthDuration_HTML.html#163,163,1268,608,1280,800,8-29-2022,10-42-44,115,depth_duration_stimuli/000734_2014-06-08_17-39-11_260595134347_rgbf000128-resize_2/000734_2014-06-08_17-39-11_260595134347_rgbf000128-resize_2-target.png,250,4.098,1,3539,250,meters,jsons/v1_VE250_randls_3.json,1753982,1852671,25,Man
115,107650,DepthScenes,duration_manipulation_targetAtFixation,jsons/v1_VE250_randls_3.json,http://54.235.29.9/FacialAge/BNav_EC2/DepthDuration/v2_depth_duration_MTurk/v2_DepthDuration_HTML.html#163,163,1268,608,1280,800,8-29-2022,10-42-44,116,depth_duration_stimuli/001170_2014-06-17_15-43-44_260595134347_rgbf000096-resize_6/001170_2014-06-17_15-43-44_260595134347_rgbf000096-resize-original.jpg,250,1.1909999999999998,0,2573,247,meters,jsons/v1_VE250_randls_3.json,1753982,1852671,25,Man
116,107650,DepthScenes,duration_manipulation_targetAtFixation,jsons/v1_VE250_randls_3.json,http://54.235.29.9/FacialAge/BNav_EC2/DepthDuration/v2_depth_duration_MTurk/v2_DepthDuration_HTML.html#163,163,1268,608,1280,800,8-29-2022,10-42-44,117,depth_duration_stimuli/001175_2014-06-17_15-45-55_260595134347_rgbf000129-resize_4/001175_2014-06-17_15-45-55_260595134347_rgbf000129-resize_4-target.png,250,4.255,0,2402,250,meters,jsons/v1_VE250_randls_3.json,1753982,1852671,25,Man
117,107650,DepthScenes,duration_manipulation_targetAtFixation,jsons/v1_VE250_randls_3.json,http://54.235.29.9/FacialAge/BNav_EC2/DepthDuration/v2_depth_duration_MTurk/v2_DepthDuration_HTML.html#163,163,1268,608,1280,800,8-29-2022,10-42-44,118,depth_duration_stimuli/003490_2014-05-21_15-50-11_094959634447_rgbf000101-resize_3/003490_2014-05-21_15-50-11_094959634447_rgbf000101-resize_3-target.png,250,3.6445,0,2431,250,meters,jsons/v1_VE250_randls_3.json,1753982,1852671,25,Man
118,107650,DepthScenes,duration_manipulation_targetAtFixation,jsons/v1_VE250_randls_3.json,http://54.235.29.9/FacialAge/BNav_EC2/DepthDuration/v2_depth_duration_MTurk/v2_DepthDuration_HTML.html#163,163,1268,608,1280,800,8-29-2022,10-42-44,119,depth_duration_stimuli/002375_2014-06-28_20-13-44_260595134347_rgbf000032-resize_1/002375_2014-06-28_20-13-44_260595134347_rgbf000032-resize_1-target.png,250,4.0175,0,2450,244,meters,jsons/v1_VE250_randls_3.json,1753982,1852671,25,Man
119,107650,DepthScenes,duration_manipulation_targetAtFixation,jsons/v1_VE250_randls_3.json,http://54.235.29.9/FacialAge/BNav_EC2/DepthDuration/v2_depth_duration_MTurk/v2_DepthDuration_HTML.html#163,163,1268,608,1280,800,8-29-2022,10-42-44,120,depth_duration_stimuli/002657_2014-06-13_15-29-54_094959634447_rgbf000150-resize_1/002657_2014-06-13_15-29-54_094959634447_rgbf000150-resize_1-target.png,250,4.919,0,2241,249,meters,jsons/v1_VE250_randls_3.json,1753982,1852671,25,Man
120,107650,DepthScenes,duration_manipulation_targetAtFixation,jsons/v1_VE250_randls_3.json,http://54.235.29.9/FacialAge/BNav_EC2/DepthDuration/v2_depth_duration_MTurk/v2_DepthDuration_HTML.html#163,163,1268,608,1280,800,8-29-2022,10-42-44,121,depth_duration_stimuli/001016_2014-06-09_16-16-10_260595134347_rgbf000112-resize_5/001016_2014-06-09_16-16-10_260595134347_rgbf000112-resize_5-target.png,250,1.6565,1,2235,248,meters,jsons/v1_VE250_randls_3.json,1753982,1852671,25,Man
121,107650,DepthScenes,duration_manipulation_targetAtFixation,jsons/v1_VE250_randls_3.json,http://54.235.29.9/FacialAge/BNav_EC2/DepthDuration/v2_depth_duration_MTurk/v2_DepthDuration_HTML.html#163,163,1268,608,1280,800,8-29-2022,10-42-44,122,depth_duration_stimuli/002340_2014-06-28_20-05-46_260595134347_rgbf000113-resize_0/002340_2014-06-28_20-05-46_260595134347_rgbf000113-resize_0-target.png,250,2.4735,0,2090,249,meters,jsons/v1_VE250_randls_3.json,1753982,1852671,25,Man
122,107650,DepthScenes,duration_manipulation_targetAtFixation,jsons/v1_VE250_randls_3.json,http://54.235.29.9/FacialAge/BNav_EC2/DepthDuration/v2_depth_duration_MTurk/v2_DepthDuration_HTML.html#163,163,1268,608,1280,800,8-29-2022,10-42-44,123,depth_duration_stimuli/000506_2014-06-08_23-21-00_260595134347_rgbf000070-resize_7/000506_2014-06-08_23-21-00_260595134347_rgbf000070-resize_7-target.png,250,4.0585,0,2251,250,meters,jsons/v1_VE250_randls_3.json,1753982,1852671,25,Man
123,107650,DepthScenes,duration_manipulation_targetAtFixation,jsons/v1_VE250_randls_3.json,http://54.235.29.9/FacialAge/BNav_EC2/DepthDuration/v2_depth_duration_MTurk/v2_DepthDuration_HTML.html#163,163,1268,608,1280,800,8-29-2022,10-42-44,124,depth_duration_stimuli/003079_2014-06-15_15-18-20_094959634447_rgbf000152-resize_8/003079_2014-06-15_15-18-20_094959634447_rgbf000152-resize_8-target.png,250,2.8775,0,2066,241,meters,jsons/v1_VE250_randls_3.json,1753982,1852671,25,Man
124,107650,DepthScenes,duration_manipulation_targetAtFixation,jsons/v1_VE250_randls_3.json,http://54.235.29.9/FacialAge/BNav_EC2/DepthDuration/v2_depth_duration_MTurk/v2_DepthDuration_HTML.html#163,163,1268,608,1280,800,8-29-2022,10-42-44,125,depth_duration_stimuli/000493_2014-06-09_21-01-18_260595134347_rgbf000196-resize_3/000493_2014-06-09_21-01-18_260595134347_rgbf000196-resize_3-target.png,250,3.44,0,2252,250,meters,jsons/v1_VE250_randls_3.json,1753982,1852671,25,Man
125,107650,DepthScenes,duration_manipulation_targetAtFixation,jsons/v1_VE250_randls_3.json,http://54.235.29.9/FacialAge/BNav_EC2/DepthDuration/v2_depth_duration_MTurk/v2_DepthDuration_HTML.html#163,163,1268,608,1280,800,8-29-2022,10-42-44,126,depth_duration_stimuli/000191_2014-05-12_17-07-38_260595134347_rgbf000199-resize_0/000191_2014-05-12_17-07-38_260595134347_rgbf000199-resize_0-target.png,250,3.7995,0,2861,250,meters,jsons/v1_VE250_randls_3.json,1753982,1852671,25,Man
126,107650,DepthScenes,duration_manipulation_targetAtFixation,jsons/v1_VE250_randls_3.json,http://54.235.29.9/FacialAge/BNav_EC2/DepthDuration/v2_depth_duration_MTurk/v2_DepthDuration_HTML.html#163,163,1268,608,1280,800,8-29-2022,10-42-44,127,depth_duration_stimuli/002763_2014-06-22_19-13-10_094959634447_rgbf000075-resize_4/002763_2014-06-22_19-13-10_094959634447_rgbf000075-resize_4-target.png,250,1.68375,1,3025,251,meters,jsons/v1_VE250_randls_3.json,1753982,1852671,25,Man
127,107650,DepthScenes,duration_manipulation_targetAtFixation,jsons/v1_VE250_randls_3.json,http://54.235.29.9/FacialAge/BNav_EC2/DepthDuration/v2_depth_duration_MTurk/v2_DepthDuration_HTML.html#163,163,1268,608,1280,800,8-29-2022,10-42-44,128,depth_duration_stimuli/002209_2014-06-28_18-36-10_260595134347_rgbf000051-resize_1/002209_2014-06-28_18-36-10_260595134347_rgbf000051-resize_1-target.png,250,2.057,1,2051,249,meters,jsons/v1_VE250_randls_3.json,1753982,1852671,25,Man
128,107650,DepthScenes,duration_manipulation_targetAtFixation,jsons/v1_VE250_randls_3.json,http://54.235.29.9/FacialAge/BNav_EC2/DepthDuration/v2_depth_duration_MTurk/v2_DepthDuration_HTML.html#163,163,1268,608,1280,800,8-29-2022,10-42-44,129,depth_duration_stimuli/003292_2014-05-14_21-53-49_094959634447_rgbf000100-resize_2/003292_2014-05-14_21-53-49_094959634447_rgbf000100-resize_2-target.png,250,3.4815,1,2316,249,meters,jsons/v1_VE250_randls_3.json,1753982,1852671,25,Man
129,107650,DepthScenes,duration_manipulation_targetAtFixation,jsons/v1_VE250_randls_3.json,http://54.235.29.9/FacialAge/BNav_EC2/DepthDuration/v2_depth_duration_MTurk/v2_DepthDuration_HTML.html#163,163,1268,608,1280,800,8-29-2022,10-42-44,130,depth_duration_stimuli/002639_2014-06-24_14-51-37_094959634447_rgbf000074-resize_4/002639_2014-06-24_14-51-37_094959634447_rgbf000074-resize_4-target.png,250,4.0375,1,3043,249,meters,jsons/v1_VE250_randls_3.json,1753982,1852671,25,Man
130,107650,DepthScenes,duration_manipulation_targetAtFixation,jsons/v1_VE250_randls_3.json,http://54.235.29.9/FacialAge/BNav_EC2/DepthDuration/v2_depth_duration_MTurk/v2_DepthDuration_HTML.html#163,163,1268,608,1280,800,8-29-2022,10-42-44,131,depth_duration_stimuli/001133_2014-06-17_14-49-16_260595134347_rgbf000100-resize_0/001133_2014-06-17_14-49-16_260595134347_rgbf000100-resize_0-target.png,250,4.2115,1,2484,250,meters,jsons/v1_VE250_randls_3.json,1753982,1852671,25,Man
131,107650,DepthScenes,duration_manipulation_targetAtFixation,jsons/v1_VE250_randls_3.json,http://54.235.29.9/FacialAge/BNav_EC2/DepthDuration/v2_depth_duration_MTurk/v2_DepthDuration_HTML.html#163,163,1268,608,1280,800,8-29-2022,10-42-44,132,depth_duration_stimuli/001132_2014-06-17_14-48-54_260595134347_rgbf000100-resize_2/001132_2014-06-17_14-48-54_260595134347_rgbf000100-resize_2-target.png,250,3.753,1,2075,251,meters,jsons/v1_VE250_randls_3.json,1753982,1852671,25,Man
132,107650,DepthScenes,duration_manipulation_targetAtFixation,jsons/v1_VE250_randls_3.json,http://54.235.29.9/FacialAge/BNav_EC2/DepthDuration/v2_depth_duration_MTurk/v2_DepthDuration_HTML.html#163,163,1268,608,1280,800,8-29-2022,10-42-44,133,depth_duration_stimuli/002988_2014-06-15_12-24-20_094959634447_rgbf000150-resize_1/002988_2014-06-15_12-24-20_094959634447_rgbf000150-resize_1-target.png,250,4.7669999999999995,0,2295,250,meters,jsons/v1_VE250_randls_3.json,1753982,1852671,25,Man
133,107650,DepthScenes,duration_manipulation_targetAtFixation,jsons/v1_VE250_randls_3.json,http://54.235.29.9/FacialAge/BNav_EC2/DepthDuration/v2_depth_duration_MTurk/v2_DepthDuration_HTML.html#163,163,1268,608,1280,800,8-29-2022,10-42-44,134,depth_duration_stimuli/001052_2014-06-08_18-24-54_260595134347_rgbf000130-resize_1/001052_2014-06-08_18-24-54_260595134347_rgbf000130-resize_1-target.png,250,4.1045,0,2063,251,meters,jsons/v1_VE250_randls_3.json,1753982,1852671,25,Man
134,107650,DepthScenes,duration_manipulation_targetAtFixation,jsons/v1_VE250_randls_3.json,http://54.235.29.9/FacialAge/BNav_EC2/DepthDuration/v2_depth_duration_MTurk/v2_DepthDuration_HTML.html#163,163,1268,608,1280,800,8-29-2022,10-42-44,135,depth_duration_stimuli/002072_2014-06-24_21-48-06_260595134347_rgbf000115-resize_0/002072_2014-06-24_21-48-06_260595134347_rgbf000115-resize-original.jpg,250,4.702,0,2385,262,meters,jsons/v1_VE250_randls_3.json,1753982,1852671,25,Man
135,107650,DepthScenes,duration_manipulation_targetAtFixation,jsons/v1_VE250_randls_3.json,http://54.235.29.9/FacialAge/BNav_EC2/DepthDuration/v2_depth_duration_MTurk/v2_DepthDuration_HTML.html#163,163,1268,608,1280,800,8-29-2022,10-42-44,136,depth_duration_stimuli/002118_2014-06-25_20-32-08_260595134347_rgbf000078-resize_1/002118_2014-06-25_20-32-08_260595134347_rgbf000078-resize_1-target.png,250,2.6460000000000004,0,2501,249,meters,jsons/v1_VE250_randls_3.json,1753982,1852671,25,Man
136,107650,DepthScenes,duration_manipulation_targetAtFixation,jsons/v1_VE250_randls_3.json,http://54.235.29.9/FacialAge/BNav_EC2/DepthDuration/v2_depth_duration_MTurk/v2_DepthDuration_HTML.html#163,163,1268,608,1280,800,8-29-2022,10-42-44,137,depth_duration_stimuli/001516_2014-06-20_16-25-09_260595134347_rgbf000076-resize_2/001516_2014-06-20_16-25-09_260595134347_rgbf000076-resize_2-target.png,250,1.7445,1,2292,264,meters,jsons/v1_VE250_randls_3.json,1753982,1852671,25,Man
137,107650,DepthScenes,duration_manipulation_targetAtFixation,jsons/v1_VE250_randls_3.json,http://54.235.29.9/FacialAge/BNav_EC2/DepthDuration/v2_depth_duration_MTurk/v2_DepthDuration_HTML.html#163,163,1268,608,1280,800,8-29-2022,10-42-44,138,depth_duration_stimuli/002039_2014-06-24_20-22-38_260595134347_rgbf000084-resize_1/002039_2014-06-24_20-22-38_260595134347_rgbf000084-resize_1-target.png,250,4.408,1,4917,251,meters,jsons/v1_VE250_randls_3.json,1753982,1852671,25,Man
138,107650,DepthScenes,duration_manipulation_targetAtFixation,jsons/v1_VE250_randls_3.json,http://54.235.29.9/FacialAge/BNav_EC2/DepthDuration/v2_depth_duration_MTurk/v2_DepthDuration_HTML.html#163,163,1268,608,1280,800,8-29-2022,10-42-44,139,depth_duration_stimuli/002103_2014-06-25_20-00-40_260595134347_rgbf000049-resize_0/002103_2014-06-25_20-00-40_260595134347_rgbf000049-resize_0-target.png,250,4.105,0,2426,261,meters,jsons/v1_VE250_randls_3.json,1753982,1852671,25,Man
139,107650,DepthScenes,duration_manipulation_targetAtFixation,jsons/v1_VE250_randls_3.json,http://54.235.29.9/FacialAge/BNav_EC2/DepthDuration/v2_depth_duration_MTurk/v2_DepthDuration_HTML.html#163,163,1268,608,1280,800,8-29-2022,10-42-44,140,depth_duration_stimuli/002748_2014-06-22_19-07-22_094959634447_rgbf000078-resize_1/002748_2014-06-22_19-07-22_094959634447_rgbf000078-resize_1-target.png,250,4.6705,0,3242,243,meters,jsons/v1_VE250_randls_3.json,1753982,1852671,25,Man
140,107650,DepthScenes,duration_manipulation_targetAtFixation,jsons/v1_VE250_randls_3.json,http://54.235.29.9/FacialAge/BNav_EC2/DepthDuration/v2_depth_duration_MTurk/v2_DepthDuration_HTML.html#163,163,1268,608,1280,800,8-29-2022,10-42-44,141,depth_duration_stimuli/002995_2014-06-15_12-31-26_094959634447_rgbf000150-resize_1/002995_2014-06-15_12-31-26_094959634447_rgbf000150-resize_1-target.png,250,3.8360000000000003,0,2139,249,meters,jsons/v1_VE250_randls_3.json,1753982,1852671,25,Man
141,107650,DepthScenes,duration_manipulation_targetAtFixation,jsons/v1_VE250_randls_3.json,http://54.235.29.9/FacialAge/BNav_EC2/DepthDuration/v2_depth_duration_MTurk/v2_DepthDuration_HTML.html#163,163,1268,608,1280,800,8-29-2022,10-42-44,142,depth_duration_stimuli/001417_2014-06-19_16-25-36_260595134347_rgbf000115-resize_5/001417_2014-06-19_16-25-36_260595134347_rgbf000115-resize_5-target.png,250,4.6255,0,2583,250,meters,jsons/v1_VE250_randls_3.json,1753982,1852671,25,Man
142,107650,DepthScenes,duration_manipulation_targetAtFixation,jsons/v1_VE250_randls_3.json,http://54.235.29.9/FacialAge/BNav_EC2/DepthDuration/v2_depth_duration_MTurk/v2_DepthDuration_HTML.html#163,163,1268,608,1280,800,8-29-2022,10-42-44,143,depth_duration_stimuli/003081_2014-06-15_15-19-16_094959634447_rgbf000150-resize_1/003081_2014-06-15_15-19-16_094959634447_rgbf000150-resize_1-target.png,250,3.9125,0,2325,235,meters,jsons/v1_VE250_randls_3.json,1753982,1852671,25,Man
143,107650,DepthScenes,duration_manipulation_targetAtFixation,jsons/v1_VE250_randls_3.json,http://54.235.29.9/FacialAge/BNav_EC2/DepthDuration/v2_depth_duration_MTurk/v2_DepthDuration_HTML.html#163,163,1268,608,1280,800,8-29-2022,10-42-44,144,depth_duration_stimuli/000522_2014-06-08_13-35-06_260595134347_rgbf000244-resize_1/000522_2014-06-08_13-35-06_260595134347_rgbf000244-resize_1-target.png,250,2.3715,1,2499,250,meters,jsons/v1_VE250_randls_3.json,1753982,1852671,25,Man
144,107650,DepthScenes,duration_manipulation_targetAtFixation,jsons/v1_VE250_randls_3.json,http://54.235.29.9/FacialAge/BNav_EC2/DepthDuration/v2_depth_duration_MTurk/v2_DepthDuration_HTML.html#163,163,1268,608,1280,800,8-29-2022,10-42-44,145,depth_duration_stimuli/002949_2014-06-26_15-57-42_094959634447_rgbf000079-resize_1/002949_2014-06-26_15-57-42_094959634447_rgbf000079-resize_1-target.png,250,1.8915,0,2395,249,meters,jsons/v1_VE250_randls_3.json,1753982,1852671,25,Man
145,107650,DepthScenes,duration_manipulation_targetAtFixation,jsons/v1_VE250_randls_3.json,http://54.235.29.9/FacialAge/BNav_EC2/DepthDuration/v2_depth_duration_MTurk/v2_DepthDuration_HTML.html#163,163,1268,608,1280,800,8-29-2022,10-42-44,146,depth_duration_stimuli/001498_2014-06-19_17-45-14_260595134347_rgbf000129-resize_4/001498_2014-06-19_17-45-14_260595134347_rgbf000129-resize-original.jpg,250,1.4075,0,2536,250,meters,jsons/v1_VE250_randls_3.json,1753982,1852671,25,Man
146,107650,DepthScenes,duration_manipulation_targetAtFixation,jsons/v1_VE250_randls_3.json,http://54.235.29.9/FacialAge/BNav_EC2/DepthDuration/v2_depth_duration_MTurk/v2_DepthDuration_HTML.html#163,163,1268,608,1280,800,8-29-2022,10-42-44,147,depth_duration_stimuli/002549_2014-06-24_13-41-39_094959634447_rgbf000022-resize_3/002549_2014-06-24_13-41-39_094959634447_rgbf000022-resize_3-target.png,250,1.476,1,2960,252,meters,jsons/v1_VE250_randls_3.json,1753982,1852671,25,Man
147,107650,DepthScenes,duration_manipulation_targetAtFixation,jsons/v1_VE250_randls_3.json,http://54.235.29.9/FacialAge/BNav_EC2/DepthDuration/v2_depth_duration_MTurk/v2_DepthDuration_HTML.html#163,163,1268,608,1280,800,8-29-2022,10-42-44,148,depth_duration_stimuli/002750_2014-06-22_19-08-03_094959634447_rgbf000094-resize_4/002750_2014-06-22_19-08-03_094959634447_rgbf000094-resize_4-target.png,250,2.354,1,3131,247,meters,jsons/v1_VE250_randls_3.json,1753982,1852671,25,Man
148,107650,DepthScenes,duration_manipulation_targetAtFixation,jsons/v1_VE250_randls_3.json,http://54.235.29.9/FacialAge/BNav_EC2/DepthDuration/v2_depth_duration_MTurk/v2_DepthDuration_HTML.html#163,163,1268,608,1280,800,8-29-2022,10-42-44,149,depth_duration_stimuli/001570_2014-06-20_17-21-09_260595134347_rgbf000135-resize_4/001570_2014-06-20_17-21-09_260595134347_rgbf000135-resize_4-target.png,250,4.467,0,3157,248,meters,jsons/v1_VE250_randls_3.json,1753982,1852671,25,Man
149,107650,DepthScenes,duration_manipulation_targetAtFixation,jsons/v1_VE250_randls_3.json,http://54.235.29.9/FacialAge/BNav_EC2/DepthDuration/v2_depth_duration_MTurk/v2_DepthDuration_HTML.html#163,163,1268,608,1280,800,8-29-2022,10-42-44,150,depth_duration_stimuli/001392_2014-06-19_16-07-59_260595134347_rgbf000046-resize_1/001392_2014-06-19_16-07-59_260595134347_rgbf000046-resize_1-target.png,250,4.135,0,2680,250,meters,jsons/v1_VE250_randls_3.json,1753982,1852671,25,Man
150,107650,DepthScenes,duration_manipulation_targetAtFixation,jsons/v1_VE250_randls_3.json,http://54.235.29.9/FacialAge/BNav_EC2/DepthDuration/v2_depth_duration_MTurk/v2_DepthDuration_HTML.html#163,163,1268,608,1280,800,8-29-2022,10-42-44,151,depth_duration_stimuli/003070_2014-06-15_14-58-27_094959634447_rgbf000150-resize_3/003070_2014-06-15_14-58-27_094959634447_rgbf000150-resize_3-target.png,250,2.9415,1,2260,250,meters,jsons/v1_VE250_randls_3.json,1753982,1852671,25,Man
151,107650,DepthScenes,duration_manipulation_targetAtFixation,jsons/v1_VE250_randls_3.json,http://54.235.29.9/FacialAge/BNav_EC2/DepthDuration/v2_depth_duration_MTurk/v2_DepthDuration_HTML.html#163,163,1268,608,1280,800,8-29-2022,10-42-44,152,depth_duration_stimuli/000943_2014-06-09_19-31-07_260595134347_rgbf000128-resize_1/000943_2014-06-09_19-31-07_260595134347_rgbf000128-resize_1-target.png,250,1.9765,1,2780,249,meters,jsons/v1_VE250_randls_3.json,1753982,1852671,25,Man
152,107650,DepthScenes,duration_manipulation_targetAtFixation,jsons/v1_VE250_randls_3.json,http://54.235.29.9/FacialAge/BNav_EC2/DepthDuration/v2_depth_duration_MTurk/v2_DepthDuration_HTML.html#163,163,1268,608,1280,800,8-29-2022,10-42-44,153,depth_duration_stimuli/000682_2014-06-08_23-14-58_260595134347_rgbf000041-resize_5/000682_2014-06-08_23-14-58_260595134347_rgbf000041-resize_5-target.png,250,2.7239999999999998,0,2306,250,meters,jsons/v1_VE250_randls_3.json,1753982,1852671,25,Man
153,107650,DepthScenes,duration_manipulation_targetAtFixation,jsons/v1_VE250_randls_3.json,http://54.235.29.9/FacialAge/BNav_EC2/DepthDuration/v2_depth_duration_MTurk/v2_DepthDuration_HTML.html#163,163,1268,608,1280,800,8-29-2022,10-42-44,154,depth_duration_stimuli/001650_2014-06-20_12-09-00_260595134347_rgbf000087-resize_3/001650_2014-06-20_12-09-00_260595134347_rgbf000087-resize_3-target.png,250,1.9505,0,2169,250,meters,jsons/v1_VE250_randls_3.json,1753982,1852671,25,Man
154,107650,DepthScenes,duration_manipulation_targetAtFixation,jsons/v1_VE250_randls_3.json,http://54.235.29.9/FacialAge/BNav_EC2/DepthDuration/v2_depth_duration_MTurk/v2_DepthDuration_HTML.html#163,163,1268,608,1280,800,8-29-2022,10-42-44,155,depth_duration_stimuli/001029_2014-06-08_13-17-57_260595134347_rgbf000065-resize_1/001029_2014-06-08_13-17-57_260595134347_rgbf000065-resize_1-target.png,250,3.0835,0,2502,252,meters,jsons/v1_VE250_randls_3.json,1753982,1852671,25,Man
155,107650,DepthScenes,duration_manipulation_targetAtFixation,jsons/v1_VE250_randls_3.json,http://54.235.29.9/FacialAge/BNav_EC2/DepthDuration/v2_depth_duration_MTurk/v2_DepthDuration_HTML.html#163,163,1268,608,1280,800,8-29-2022,10-42-44,156,depth_duration_stimuli/000677_2014-06-08_23-10-32_260595134347_rgbf000158-resize_6/000677_2014-06-08_23-10-32_260595134347_rgbf000158-resize_6-target.png,250,3.556,1,2236,237,meters,jsons/v1_VE250_randls_3.json,1753982,1852671,25,Man
156,107650,DepthScenes,duration_manipulation_targetAtFixation,jsons/v1_VE250_randls_3.json,http://54.235.29.9/FacialAge/BNav_EC2/DepthDuration/v2_depth_duration_MTurk/v2_DepthDuration_HTML.html#163,163,1268,608,1280,800,8-29-2022,10-42-44,157,depth_duration_stimuli/002509_2014-06-24_13-19-22_094959634447_rgbf000077-resize_0/002509_2014-06-24_13-19-22_094959634447_rgbf000077-resize_0-target.png,250,1.3065,0,2382,236,meters,jsons/v1_VE250_randls_3.json,1753982,1852671,25,Man
157,107650,DepthScenes,duration_manipulation_targetAtFixation,jsons/v1_VE250_randls_3.json,http://54.235.29.9/FacialAge/BNav_EC2/DepthDuration/v2_depth_duration_MTurk/v2_DepthDuration_HTML.html#163,163,1268,608,1280,800,8-29-2022,10-42-44,158,depth_duration_stimuli/003338_2014-05-20_11-01-23_094959634447_rgbf000051-resize_6/003338_2014-05-20_11-01-23_094959634447_rgbf000051-resize_6-target.png,250,1.693,1,2459,251,meters,jsons/v1_VE250_randls_3.json,1753982,1852671,25,Man
158,107650,DepthScenes,duration_manipulation_targetAtFixation,jsons/v1_VE250_randls_3.json,http://54.235.29.9/FacialAge/BNav_EC2/DepthDuration/v2_depth_duration_MTurk/v2_DepthDuration_HTML.html#163,163,1268,608,1280,800,8-29-2022,10-42-44,159,depth_duration_stimuli/001164_2014-06-17_15-35-46_260595134347_rgbf000085-resize_3/001164_2014-06-17_15-35-46_260595134347_rgbf000085-resize_3-target.png,250,2.354,0,2300,251,meters,jsons/v1_VE250_randls_3.json,1753982,1852671,25,Man
159,107650,DepthScenes,duration_manipulation_targetAtFixation,jsons/v1_VE250_randls_3.json,http://54.235.29.9/FacialAge/BNav_EC2/DepthDuration/v2_depth_duration_MTurk/v2_DepthDuration_HTML.html#163,163,1268,608,1280,800,8-29-2022,10-42-44,160,depth_duration_stimuli/001136_2014-06-17_15-19-41_260595134347_rgbf000076-resize_3/001136_2014-06-17_15-19-41_260595134347_rgbf000076-resize_3-target.png,250,1.8655,0,1979,264,meters,jsons/v1_VE250_randls_3.json,1753982,1852671,25,Man
160,107650,DepthScenes,duration_manipulation_targetAtFixation,jsons/v1_VE250_randls_3.json,http://54.235.29.9/FacialAge/BNav_EC2/DepthDuration/v2_depth_duration_MTurk/v2_DepthDuration_HTML.html#163,163,1268,608,1280,800,8-29-2022,10-42-44,161,depth_duration_stimuli/000810_2014-06-08_17-20-01_260595134347_rgbf000105-resize_0/000810_2014-06-08_17-20-01_260595134347_rgbf000105-resize_0-target.png,250,1.4865,0,2238,249,meters,jsons/v1_VE250_randls_3.json,1753982,1852671,25,Man
161,107650,DepthScenes,duration_manipulation_targetAtFixation,jsons/v1_VE250_randls_3.json,http://54.235.29.9/FacialAge/BNav_EC2/DepthDuration/v2_depth_duration_MTurk/v2_DepthDuration_HTML.html#163,163,1268,608,1280,800,8-29-2022,10-42-44,162,depth_duration_stimuli/001214_2014-06-17_16-13-55_260595134347_rgbf000111-resize_0/001214_2014-06-17_16-13-55_260595134347_rgbf000111-resize_0-target.png,250,2.6505,0,2090,250,meters,jsons/v1_VE250_randls_3.json,1753982,1852671,25,Man
162,107650,DepthScenes,duration_manipulation_targetAtFixation,jsons/v1_VE250_randls_3.json,http://54.235.29.9/FacialAge/BNav_EC2/DepthDuration/v2_depth_duration_MTurk/v2_DepthDuration_HTML.html#163,163,1268,608,1280,800,8-29-2022,10-42-44,163,depth_duration_stimuli/001110_2014-06-15_17-25-28_260595134347_rgbf000150-resize_1/001110_2014-06-15_17-25-28_260595134347_rgbf000150-resize_1-target.png,250,1.7115,1,2176,255,meters,jsons/v1_VE250_randls_3.json,1753982,1852671,25,Man
163,107650,DepthScenes,duration_manipulation_targetAtFixation,jsons/v1_VE250_randls_3.json,http://54.235.29.9/FacialAge/BNav_EC2/DepthDuration/v2_depth_duration_MTurk/v2_DepthDuration_HTML.html#163,163,1268,608,1280,800,8-29-2022,10-42-44,164,depth_duration_stimuli/000927_2014-06-09_16-32-30_260595134347_rgbf000123-resize_3/000927_2014-06-09_16-32-30_260595134347_rgbf000123-resize_3-target.png,250,2.6785,1,3207,254,meters,jsons/v1_VE250_randls_3.json,1753982,1852671,25,Man
