,subjID,experimentName,versionName,sequenceName,url,selected_row,windowWidth,windowHeight,screenWidth,screenHeight,startDate,startTime,trial,stimulus,duration,actual_depth,depth_estimate,trial_RT,log_sceneDuration,unitSelection,seq_filepath,experimentTime,totalTime,age,gender
0,107774,DepthScenes,duration_manipulation_targetAtFixation,jsons/VE125_randls_13.json,http://54.235.29.9/FacialAge/BNav_EC2/DepthDuration/v2_depth_duration_MTurk/v2_DepthDuration_HTML.html#58,58,1366,625,1366,768,8-21-2022,8-56-6,1,depth_duration_stimuli/001808_2014-06-26_20-50-58_260595134347_rgbf000029-resize_1/001808_2014-06-26_20-50-58_260595134347_rgbf000029-resize_1-target.png,125,4.249,8,3708,118,feet,jsons/VE125_randls_13.json,1094594,1254411,35,Woman
1,107774,DepthScenes,duration_manipulation_targetAtFixation,jsons/VE125_randls_13.json,http://54.235.29.9/FacialAge/BNav_EC2/DepthDuration/v2_depth_duration_MTurk/v2_DepthDuration_HTML.html#58,58,1366,625,1366,768,8-21-2022,8-56-6,2,depth_duration_stimuli/001815_2014-06-26_20-52-55_260595134347_rgbf000020-resize_0/001815_2014-06-26_20-52-55_260595134347_rgbf000020-resize_0-target.png,125,3.3865,6,3200,123,feet,jsons/VE125_randls_13.json,1094594,1254411,35,Woman
2,107774,DepthScenes,duration_manipulation_targetAtFixation,jsons/VE125_randls_13.json,http://54.235.29.9/FacialAge/BNav_EC2/DepthDuration/v2_depth_duration_MTurk/v2_DepthDuration_HTML.html#58,58,1366,625,1366,768,8-21-2022,8-56-6,3,depth_duration_stimuli/001029_2014-06-08_13-17-57_260595134347_rgbf000065-resize_1/001029_2014-06-08_13-17-57_260595134347_rgbf000065-resize_1-target.png,125,3.0835,7,3431,125,feet,jsons/VE125_randls_13.json,1094594,1254411,35,Woman
3,107774,DepthScenes,duration_manipulation_targetAtFixation,jsons/VE125_randls_13.json,http://54.235.29.9/FacialAge/BNav_EC2/DepthDuration/v2_depth_duration_MTurk/v2_DepthDuration_HTML.html#58,58,1366,625,1366,768,8-21-2022,8-56-6,4,depth_duration_stimuli/000677_2014-06-08_23-10-32_260595134347_rgbf000158-resize_6/000677_2014-06-08_23-10-32_260595134347_rgbf000158-resize_6-target.png,125,3.556,5,2992,134,feet,jsons/VE125_randls_13.json,1094594,1254411,35,Woman
4,107774,DepthScenes,duration_manipulation_targetAtFixation,jsons/VE125_randls_13.json,http://54.235.29.9/FacialAge/BNav_EC2/DepthDuration/v2_depth_duration_MTurk/v2_DepthDuration_HTML.html#58,58,1366,625,1366,768,8-21-2022,8-56-6,5,depth_duration_stimuli/002118_2014-06-25_20-32-08_260595134347_rgbf000078-resize_1/002118_2014-06-25_20-32-08_260595134347_rgbf000078-resize_1-target.png,125,2.6460000000000004,8,2888,124,feet,jsons/VE125_randls_13.json,1094594,1254411,35,Woman
5,107774,DepthScenes,duration_manipulation_targetAtFixation,jsons/VE125_randls_13.json,http://54.235.29.9/FacialAge/BNav_EC2/DepthDuration/v2_depth_duration_MTurk/v2_DepthDuration_HTML.html#58,58,1366,625,1366,768,8-21-2022,8-56-6,6,depth_duration_stimuli/001516_2014-06-20_16-25-09_260595134347_rgbf000076-resize_2/001516_2014-06-20_16-25-09_260595134347_rgbf000076-resize_2-target.png,125,1.7445,6,3167,122,feet,jsons/VE125_randls_13.json,1094594,1254411,35,Woman
6,107774,DepthScenes,duration_manipulation_targetAtFixation,jsons/VE125_randls_13.json,http://54.235.29.9/FacialAge/BNav_EC2/DepthDuration/v2_depth_duration_MTurk/v2_DepthDuration_HTML.html#58,58,1366,625,1366,768,8-21-2022,8-56-6,7,depth_duration_stimuli/001417_2014-06-19_16-25-36_260595134347_rgbf000115-resize_5/001417_2014-06-19_16-25-36_260595134347_rgbf000115-resize_5-target.png,125,4.6255,3,2996,127,feet,jsons/VE125_randls_13.json,1094594,1254411,35,Woman
7,107774,DepthScenes,duration_manipulation_targetAtFixation,jsons/VE125_randls_13.json,http://54.235.29.9/FacialAge/BNav_EC2/DepthDuration/v2_depth_duration_MTurk/v2_DepthDuration_HTML.html#58,58,1366,625,1366,768,8-21-2022,8-56-6,8,depth_duration_stimuli/003081_2014-06-15_15-19-16_094959634447_rgbf000150-resize_1/003081_2014-06-15_15-19-16_094959634447_rgbf000150-resize_1-target.png,125,3.9125,7,4064,130,feet,jsons/VE125_randls_13.json,1094594,1254411,35,Woman
8,107774,DepthScenes,duration_manipulation_targetAtFixation,jsons/VE125_randls_13.json,http://54.235.29.9/FacialAge/BNav_EC2/DepthDuration/v2_depth_duration_MTurk/v2_DepthDuration_HTML.html#58,58,1366,625,1366,768,8-21-2022,8-56-6,9,depth_duration_stimuli/000682_2014-06-08_23-14-58_260595134347_rgbf000041-resize_5/000682_2014-06-08_23-14-58_260595134347_rgbf000041-resize_5-target.png,125,2.7239999999999998,5,104222,127,feet,jsons/VE125_randls_13.json,1094594,1254411,35,Woman
9,107774,DepthScenes,duration_manipulation_targetAtFixation,jsons/VE125_randls_13.json,http://54.235.29.9/FacialAge/BNav_EC2/DepthDuration/v2_depth_duration_MTurk/v2_DepthDuration_HTML.html#58,58,1366,625,1366,768,8-21-2022,8-56-6,10,depth_duration_stimuli/001650_2014-06-20_12-09-00_260595134347_rgbf000087-resize_3/001650_2014-06-20_12-09-00_260595134347_rgbf000087-resize_3-target.png,125,1.9505,8,3481,130,feet,jsons/VE125_randls_13.json,1094594,1254411,35,Woman
10,107774,DepthScenes,duration_manipulation_targetAtFixation,jsons/VE125_randls_13.json,http://54.235.29.9/FacialAge/BNav_EC2/DepthDuration/v2_depth_duration_MTurk/v2_DepthDuration_HTML.html#58,58,1366,625,1366,768,8-21-2022,8-56-6,11,depth_duration_stimuli/001244_2014-06-17_16-47-45_260595134347_rgbf000030-resize_4/001244_2014-06-17_16-47-45_260595134347_rgbf000030-resize_4-target.png,125,2.0425,6,19253,137,feet,jsons/VE125_randls_13.json,1094594,1254411,35,Woman
11,107774,DepthScenes,duration_manipulation_targetAtFixation,jsons/VE125_randls_13.json,http://54.235.29.9/FacialAge/BNav_EC2/DepthDuration/v2_depth_duration_MTurk/v2_DepthDuration_HTML.html#58,58,1366,625,1366,768,8-21-2022,8-56-6,12,depth_duration_stimuli/003495_2014-05-21_16-01-51_094959634447_rgbf000100-resize_3/003495_2014-05-21_16-01-51_094959634447_rgbf000100-resize_3-target.png,125,1.6255,7,9922,115,feet,jsons/VE125_randls_13.json,1094594,1254411,35,Woman
12,107774,DepthScenes,duration_manipulation_targetAtFixation,jsons/VE125_randls_13.json,http://54.235.29.9/FacialAge/BNav_EC2/DepthDuration/v2_depth_duration_MTurk/v2_DepthDuration_HTML.html#58,58,1366,625,1366,768,8-21-2022,8-56-6,13,depth_duration_stimuli/000569_2014-06-09_22-51-47_260595134347_rgbf000141-resize_3/000569_2014-06-09_22-51-47_260595134347_rgbf000141-resize-original.jpg,125,4.512,7,13110,123,feet,jsons/VE125_randls_13.json,1094594,1254411,35,Woman
13,107774,DepthScenes,duration_manipulation_targetAtFixation,jsons/VE125_randls_13.json,http://54.235.29.9/FacialAge/BNav_EC2/DepthDuration/v2_depth_duration_MTurk/v2_DepthDuration_HTML.html#58,58,1366,625,1366,768,8-21-2022,8-56-6,14,depth_duration_stimuli/001158_2014-06-17_15-32-16_260595134347_rgbf000138-resize_2/001158_2014-06-17_15-32-16_260595134347_rgbf000138-resize_2-target.png,125,4.5315,7,5301,130,feet,jsons/VE125_randls_13.json,1094594,1254411,35,Woman
14,107774,DepthScenes,duration_manipulation_targetAtFixation,jsons/VE125_randls_13.json,http://54.235.29.9/FacialAge/BNav_EC2/DepthDuration/v2_depth_duration_MTurk/v2_DepthDuration_HTML.html#58,58,1366,625,1366,768,8-21-2022,8-56-6,15,depth_duration_stimuli/000556_2014-06-09_22-42-56_260595134347_rgbf000214-resize_1/000556_2014-06-09_22-42-56_260595134347_rgbf000214-resize_1-target.png,125,4.8415,8,2929,132,feet,jsons/VE125_randls_13.json,1094594,1254411,35,Woman
15,107774,DepthScenes,duration_manipulation_targetAtFixation,jsons/VE125_randls_13.json,http://54.235.29.9/FacialAge/BNav_EC2/DepthDuration/v2_depth_duration_MTurk/v2_DepthDuration_HTML.html#58,58,1366,625,1366,768,8-21-2022,8-56-6,16,depth_duration_stimuli/001150_2014-06-17_15-27-34_260595134347_rgbf000108-resize_2/001150_2014-06-17_15-27-34_260595134347_rgbf000108-resize_2-target.png,125,4.0325,4,23474,114,feet,jsons/VE125_randls_13.json,1094594,1254411,35,Woman
16,107774,DepthScenes,duration_manipulation_targetAtFixation,jsons/VE125_randls_13.json,http://54.235.29.9/FacialAge/BNav_EC2/DepthDuration/v2_depth_duration_MTurk/v2_DepthDuration_HTML.html#58,58,1366,625,1366,768,8-21-2022,8-56-6,17,depth_duration_stimuli/000665_2014-06-09_20-42-35_260595134347_rgbf000110-resize_1/000665_2014-06-09_20-42-35_260595134347_rgbf000110-resize_1-target.png,125,3.057,5,15592,117,feet,jsons/VE125_randls_13.json,1094594,1254411,35,Woman
17,107774,DepthScenes,duration_manipulation_targetAtFixation,jsons/VE125_randls_13.json,http://54.235.29.9/FacialAge/BNav_EC2/DepthDuration/v2_depth_duration_MTurk/v2_DepthDuration_HTML.html#58,58,1366,625,1366,768,8-21-2022,8-56-6,18,depth_duration_stimuli/002375_2014-06-28_20-13-44_260595134347_rgbf000032-resize_1/002375_2014-06-28_20-13-44_260595134347_rgbf000032-resize_1-target.png,125,4.0175,7,14595,126,feet,jsons/VE125_randls_13.json,1094594,1254411,35,Woman
18,107774,DepthScenes,duration_manipulation_targetAtFixation,jsons/VE125_randls_13.json,http://54.235.29.9/FacialAge/BNav_EC2/DepthDuration/v2_depth_duration_MTurk/v2_DepthDuration_HTML.html#58,58,1366,625,1366,768,8-21-2022,8-56-6,19,depth_duration_stimuli/002657_2014-06-13_15-29-54_094959634447_rgbf000150-resize_1/002657_2014-06-13_15-29-54_094959634447_rgbf000150-resize_1-target.png,125,4.919,2,16380,128,feet,jsons/VE125_randls_13.json,1094594,1254411,35,Woman
19,107774,DepthScenes,duration_manipulation_targetAtFixation,jsons/VE125_randls_13.json,http://54.235.29.9/FacialAge/BNav_EC2/DepthDuration/v2_depth_duration_MTurk/v2_DepthDuration_HTML.html#58,58,1366,625,1366,768,8-21-2022,8-56-6,20,depth_duration_stimuli/003492_2014-05-21_15-50-55_094959634447_rgbf000828-resize_1/003492_2014-05-21_15-50-55_094959634447_rgbf000828-resize_1-target.png,125,4.06875,9,27306,135,feet,jsons/VE125_randls_13.json,1094594,1254411,35,Woman
20,107774,DepthScenes,duration_manipulation_targetAtFixation,jsons/VE125_randls_13.json,http://54.235.29.9/FacialAge/BNav_EC2/DepthDuration/v2_depth_duration_MTurk/v2_DepthDuration_HTML.html#58,58,1366,625,1366,768,8-21-2022,8-56-6,21,depth_duration_stimuli/002568_2014-06-24_13-59-21_094959634447_rgbf000062-resize_4/002568_2014-06-24_13-59-21_094959634447_rgbf000062-resize_4-target.png,125,3.015,3,14188,122,feet,jsons/VE125_randls_13.json,1094594,1254411,35,Woman
21,107774,DepthScenes,duration_manipulation_targetAtFixation,jsons/VE125_randls_13.json,http://54.235.29.9/FacialAge/BNav_EC2/DepthDuration/v2_depth_duration_MTurk/v2_DepthDuration_HTML.html#58,58,1366,625,1366,768,8-21-2022,8-56-6,22,depth_duration_stimuli/000788_2014-06-08_22-34-36_260595134347_rgbf000131-resize_1/000788_2014-06-08_22-34-36_260595134347_rgbf000131-resize_1-target.png,125,3.359,1,19719,136,feet,jsons/VE125_randls_13.json,1094594,1254411,35,Woman
22,107774,DepthScenes,duration_manipulation_targetAtFixation,jsons/VE125_randls_13.json,http://54.235.29.9/FacialAge/BNav_EC2/DepthDuration/v2_depth_duration_MTurk/v2_DepthDuration_HTML.html#58,58,1366,625,1366,768,8-21-2022,8-56-6,23,depth_duration_stimuli/001235_2014-06-17_16-37-36_260595134347_rgbf000084-resize_4/001235_2014-06-17_16-37-36_260595134347_rgbf000084-resize_4-target.png,125,3.6605,9,50107,125,feet,jsons/VE125_randls_13.json,1094594,1254411,35,Woman
23,107774,DepthScenes,duration_manipulation_targetAtFixation,jsons/VE125_randls_13.json,http://54.235.29.9/FacialAge/BNav_EC2/DepthDuration/v2_depth_duration_MTurk/v2_DepthDuration_HTML.html#58,58,1366,625,1366,768,8-21-2022,8-56-6,24,depth_duration_stimuli/000692_2014-06-08_13-09-42_260595134347_rgbf000199-resize_2/000692_2014-06-08_13-09-42_260595134347_rgbf000199-resize_2-target.png,125,3.661,3,41786,132,feet,jsons/VE125_randls_13.json,1094594,1254411,35,Woman
24,107774,DepthScenes,duration_manipulation_targetAtFixation,jsons/VE125_randls_13.json,http://54.235.29.9/FacialAge/BNav_EC2/DepthDuration/v2_depth_duration_MTurk/v2_DepthDuration_HTML.html#58,58,1366,625,1366,768,8-21-2022,8-56-6,25,depth_duration_stimuli/001094_2014-06-15_17-36-00_260595134347_rgbf000205-resize_0/001094_2014-06-15_17-36-00_260595134347_rgbf000205-resize_0-target.png,125,4.2175,31,19754,126,feet,jsons/VE125_randls_13.json,1094594,1254411,35,Woman
25,107774,DepthScenes,duration_manipulation_targetAtFixation,jsons/VE125_randls_13.json,http://54.235.29.9/FacialAge/BNav_EC2/DepthDuration/v2_depth_duration_MTurk/v2_DepthDuration_HTML.html#58,58,1366,625,1366,768,8-21-2022,8-56-6,26,depth_duration_stimuli/002445_2014-06-28_20-32-16_260595134347_rgbf000029-resize_4/002445_2014-06-28_20-32-16_260595134347_rgbf000029-resize_4-target.png,125,2.5315,11,18678,133,feet,jsons/VE125_randls_13.json,1094594,1254411,35,Woman
26,107774,DepthScenes,duration_manipulation_targetAtFixation,jsons/VE125_randls_13.json,http://54.235.29.9/FacialAge/BNav_EC2/DepthDuration/v2_depth_duration_MTurk/v2_DepthDuration_HTML.html#58,58,1366,625,1366,768,8-21-2022,8-56-6,27,depth_duration_stimuli/000780_2014-06-08_22-28-29_260595134347_rgbf000126-resize_1/000780_2014-06-08_22-28-29_260595134347_rgbf000126-resize_1-target.png,125,3.3825,12,21813,128,feet,jsons/VE125_randls_13.json,1094594,1254411,35,Woman
27,107774,DepthScenes,duration_manipulation_targetAtFixation,jsons/VE125_randls_13.json,http://54.235.29.9/FacialAge/BNav_EC2/DepthDuration/v2_depth_duration_MTurk/v2_DepthDuration_HTML.html#58,58,1366,625,1366,768,8-21-2022,8-56-6,28,depth_duration_stimuli/000470_2014-06-09_19-42-40_260595134347_rgbf000094-resize_1/000470_2014-06-09_19-42-40_260595134347_rgbf000094-resize_1-target.png,125,1.831,8,10801,129,feet,jsons/VE125_randls_13.json,1094594,1254411,35,Woman
28,107774,DepthScenes,duration_manipulation_targetAtFixation,jsons/VE125_randls_13.json,http://54.235.29.9/FacialAge/BNav_EC2/DepthDuration/v2_depth_duration_MTurk/v2_DepthDuration_HTML.html#58,58,1366,625,1366,768,8-21-2022,8-56-6,29,depth_duration_stimuli/000109_2014-05-14_23-41-52_260595134347_rgbf000035-resize_9/000109_2014-05-14_23-41-52_260595134347_rgbf000035-resize_9-target.png,125,1.3545,5,18571,124,feet,jsons/VE125_randls_13.json,1094594,1254411,35,Woman
29,107774,DepthScenes,duration_manipulation_targetAtFixation,jsons/VE125_randls_13.json,http://54.235.29.9/FacialAge/BNav_EC2/DepthDuration/v2_depth_duration_MTurk/v2_DepthDuration_HTML.html#58,58,1366,625,1366,768,8-21-2022,8-56-6,30,depth_duration_stimuli/000375_2014-06-08_11-17-29_260595134347_rgbf000133-resize_2/000375_2014-06-08_11-17-29_260595134347_rgbf000133-resize-original.jpg,125,4.718,4,12841,120,feet,jsons/VE125_randls_13.json,1094594,1254411,35,Woman
30,107774,DepthScenes,duration_manipulation_targetAtFixation,jsons/VE125_randls_13.json,http://54.235.29.9/FacialAge/BNav_EC2/DepthDuration/v2_depth_duration_MTurk/v2_DepthDuration_HTML.html#58,58,1366,625,1366,768,8-21-2022,8-56-6,31,depth_duration_stimuli/002509_2014-06-24_13-19-22_094959634447_rgbf000077-resize_0/002509_2014-06-24_13-19-22_094959634447_rgbf000077-resize_0-target.png,125,1.3065,17,26591,126,feet,jsons/VE125_randls_13.json,1094594,1254411,35,Woman
31,107774,DepthScenes,duration_manipulation_targetAtFixation,jsons/VE125_randls_13.json,http://54.235.29.9/FacialAge/BNav_EC2/DepthDuration/v2_depth_duration_MTurk/v2_DepthDuration_HTML.html#58,58,1366,625,1366,768,8-21-2022,8-56-6,32,depth_duration_stimuli/003338_2014-05-20_11-01-23_094959634447_rgbf000051-resize_6/003338_2014-05-20_11-01-23_094959634447_rgbf000051-resize_6-target.png,125,1.693,19,22387,123,feet,jsons/VE125_randls_13.json,1094594,1254411,35,Woman
32,107774,DepthScenes,duration_manipulation_targetAtFixation,jsons/VE125_randls_13.json,http://54.235.29.9/FacialAge/BNav_EC2/DepthDuration/v2_depth_duration_MTurk/v2_DepthDuration_HTML.html#58,58,1366,625,1366,768,8-21-2022,8-56-6,33,depth_duration_stimuli/002784_2014-06-22_19-26-30_094959634447_rgbf000083-resize_3/002784_2014-06-22_19-26-30_094959634447_rgbf000083-resize_3-target.png,125,1.8046666666667,1,12851,122,feet,jsons/VE125_randls_13.json,1094594,1254411,35,Woman
33,107774,DepthScenes,duration_manipulation_targetAtFixation,jsons/VE125_randls_13.json,http://54.235.29.9/FacialAge/BNav_EC2/DepthDuration/v2_depth_duration_MTurk/v2_DepthDuration_HTML.html#58,58,1366,625,1366,768,8-21-2022,8-56-6,34,depth_duration_stimuli/001100_2014-06-15_17-46-26_260595134347_rgbf000225-resize_2/001100_2014-06-15_17-46-26_260595134347_rgbf000225-resize_2-target.png,125,2.24,44,11832,129,feet,jsons/VE125_randls_13.json,1094594,1254411,35,Woman
34,107774,DepthScenes,duration_manipulation_targetAtFixation,jsons/VE125_randls_13.json,http://54.235.29.9/FacialAge/BNav_EC2/DepthDuration/v2_depth_duration_MTurk/v2_DepthDuration_HTML.html#58,58,1366,625,1366,768,8-21-2022,8-56-6,35,depth_duration_stimuli/000469_2014-06-09_19-42-10_260595134347_rgbf000081-resize_1/000469_2014-06-09_19-42-10_260595134347_rgbf000081-resize_1-target.png,125,1.652,56,23898,124,feet,jsons/VE125_randls_13.json,1094594,1254411,35,Woman
35,107774,DepthScenes,duration_manipulation_targetAtFixation,jsons/VE125_randls_13.json,http://54.235.29.9/FacialAge/BNav_EC2/DepthDuration/v2_depth_duration_MTurk/v2_DepthDuration_HTML.html#58,58,1366,625,1366,768,8-21-2022,8-56-6,36,depth_duration_stimuli/000483_2014-06-09_20-41-45_260595134347_rgbf000116-resize_4/000483_2014-06-09_20-41-45_260595134347_rgbf000116-resize_4-target.png,125,1.337,14,22759,114,feet,jsons/VE125_randls_13.json,1094594,1254411,35,Woman
36,107774,DepthScenes,duration_manipulation_targetAtFixation,jsons/VE125_randls_13.json,http://54.235.29.9/FacialAge/BNav_EC2/DepthDuration/v2_depth_duration_MTurk/v2_DepthDuration_HTML.html#58,58,1366,625,1366,768,8-21-2022,8-56-6,37,depth_duration_stimuli/002964_2014-06-08_17-46-11_094959634447_rgbf000091-resize_4/002964_2014-06-08_17-46-11_094959634447_rgbf000091-resize_4-target.png,125,1.6909999999999998,19,12736,124,feet,jsons/VE125_randls_13.json,1094594,1254411,35,Woman
37,107774,DepthScenes,duration_manipulation_targetAtFixation,jsons/VE125_randls_13.json,http://54.235.29.9/FacialAge/BNav_EC2/DepthDuration/v2_depth_duration_MTurk/v2_DepthDuration_HTML.html#58,58,1366,625,1366,768,8-21-2022,8-56-6,38,depth_duration_stimuli/002136_2014-06-25_21-18-03_260595134347_rgbf000109-resize_3/002136_2014-06-25_21-18-03_260595134347_rgbf000109-resize_3-target.png,125,1.9569999999999999,3,15347,128,feet,jsons/VE125_randls_13.json,1094594,1254411,35,Woman
38,107774,DepthScenes,duration_manipulation_targetAtFixation,jsons/VE125_randls_13.json,http://54.235.29.9/FacialAge/BNav_EC2/DepthDuration/v2_depth_duration_MTurk/v2_DepthDuration_HTML.html#58,58,1366,625,1366,768,8-21-2022,8-56-6,39,depth_duration_stimuli/002039_2014-06-24_20-22-38_260595134347_rgbf000084-resize_1/002039_2014-06-24_20-22-38_260595134347_rgbf000084-resize_1-target.png,125,4.408,5,2626,124,feet,jsons/VE125_randls_13.json,1094594,1254411,35,Woman
39,107774,DepthScenes,duration_manipulation_targetAtFixation,jsons/VE125_randls_13.json,http://54.235.29.9/FacialAge/BNav_EC2/DepthDuration/v2_depth_duration_MTurk/v2_DepthDuration_HTML.html#58,58,1366,625,1366,768,8-21-2022,8-56-6,40,depth_duration_stimuli/002103_2014-06-25_20-00-40_260595134347_rgbf000049-resize_0/002103_2014-06-25_20-00-40_260595134347_rgbf000049-resize_0-target.png,125,4.105,7,3023,126,feet,jsons/VE125_randls_13.json,1094594,1254411,35,Woman
40,107774,DepthScenes,duration_manipulation_targetAtFixation,jsons/VE125_randls_13.json,http://54.235.29.9/FacialAge/BNav_EC2/DepthDuration/v2_depth_duration_MTurk/v2_DepthDuration_HTML.html#58,58,1366,625,1366,768,8-21-2022,8-56-6,41,depth_duration_stimuli/002213_2014-06-28_18-37-58_260595134347_rgbf000055-resize_1/002213_2014-06-28_18-37-58_260595134347_rgbf000055-resize_1-target.png,125,3.62,8,4456,124,feet,jsons/VE125_randls_13.json,1094594,1254411,35,Woman
41,107774,DepthScenes,duration_manipulation_targetAtFixation,jsons/VE125_randls_13.json,http://54.235.29.9/FacialAge/BNav_EC2/DepthDuration/v2_depth_duration_MTurk/v2_DepthDuration_HTML.html#58,58,1366,625,1366,768,8-21-2022,8-56-6,42,depth_duration_stimuli/000691_2014-06-08_13-08-50_260595134347_rgbf000132-resize_3/000691_2014-06-08_13-08-50_260595134347_rgbf000132-resize_3-target.png,125,4.1530000000000005,3,2908,123,feet,jsons/VE125_randls_13.json,1094594,1254411,35,Woman
42,107774,DepthScenes,duration_manipulation_targetAtFixation,jsons/VE125_randls_13.json,http://54.235.29.9/FacialAge/BNav_EC2/DepthDuration/v2_depth_duration_MTurk/v2_DepthDuration_HTML.html#58,58,1366,625,1366,768,8-21-2022,8-56-6,43,depth_duration_stimuli/000929_2014-06-09_16-33-19_260595134347_rgbf000139-resize_0/000929_2014-06-09_16-33-19_260595134347_rgbf000139-resize_0-target.png,125,2.8680000000000003,5,2793,133,feet,jsons/VE125_randls_13.json,1094594,1254411,35,Woman
43,107774,DepthScenes,duration_manipulation_targetAtFixation,jsons/VE125_randls_13.json,http://54.235.29.9/FacialAge/BNav_EC2/DepthDuration/v2_depth_duration_MTurk/v2_DepthDuration_HTML.html#58,58,1366,625,1366,768,8-21-2022,8-56-6,44,depth_duration_stimuli/000457_2014-06-08_16-52-43_260595134347_rgbf000199-resize_1/000457_2014-06-08_16-52-43_260595134347_rgbf000199-resize_1-target.png,125,3.6489999999999996,6,2621,126,feet,jsons/VE125_randls_13.json,1094594,1254411,35,Woman
44,107774,DepthScenes,duration_manipulation_targetAtFixation,jsons/VE125_randls_13.json,http://54.235.29.9/FacialAge/BNav_EC2/DepthDuration/v2_depth_duration_MTurk/v2_DepthDuration_HTML.html#58,58,1366,625,1366,768,8-21-2022,8-56-6,45,depth_duration_stimuli/000787_2014-06-08_22-33-53_260595134347_rgbf000175-resize_1/000787_2014-06-08_22-33-53_260595134347_rgbf000175-resize-original.jpg,125,4.784,0,2806,131,feet,jsons/VE125_randls_13.json,1094594,1254411,35,Woman
45,107774,DepthScenes,duration_manipulation_targetAtFixation,jsons/VE125_randls_13.json,http://54.235.29.9/FacialAge/BNav_EC2/DepthDuration/v2_depth_duration_MTurk/v2_DepthDuration_HTML.html#58,58,1366,625,1366,768,8-21-2022,8-56-6,46,depth_duration_stimuli/003621_2014-05-23_18-06-08_094959634447_rgbf000101-resize_1/003621_2014-05-23_18-06-08_094959634447_rgbf000101-resize_1-target.png,125,3.9835,4,2368,126,feet,jsons/VE125_randls_13.json,1094594,1254411,35,Woman
46,107774,DepthScenes,duration_manipulation_targetAtFixation,jsons/VE125_randls_13.json,http://54.235.29.9/FacialAge/BNav_EC2/DepthDuration/v2_depth_duration_MTurk/v2_DepthDuration_HTML.html#58,58,1366,625,1366,768,8-21-2022,8-56-6,47,depth_duration_stimuli/001584_2014-06-20_11-07-43_260595134347_rgbf000002-resize_1/001584_2014-06-20_11-07-43_260595134347_rgbf000002-resize_1-target.png,125,3.53,4,2757,132,feet,jsons/VE125_randls_13.json,1094594,1254411,35,Woman
47,107774,DepthScenes,duration_manipulation_targetAtFixation,jsons/VE125_randls_13.json,http://54.235.29.9/FacialAge/BNav_EC2/DepthDuration/v2_depth_duration_MTurk/v2_DepthDuration_HTML.html#58,58,1366,625,1366,768,8-21-2022,8-56-6,48,depth_duration_stimuli/001175_2014-06-17_15-45-55_260595134347_rgbf000129-resize_4/001175_2014-06-17_15-45-55_260595134347_rgbf000129-resize_4-target.png,125,4.255,2,2951,130,feet,jsons/VE125_randls_13.json,1094594,1254411,35,Woman
48,107774,DepthScenes,duration_manipulation_targetAtFixation,jsons/VE125_randls_13.json,http://54.235.29.9/FacialAge/BNav_EC2/DepthDuration/v2_depth_duration_MTurk/v2_DepthDuration_HTML.html#58,58,1366,625,1366,768,8-21-2022,8-56-6,49,depth_duration_stimuli/003490_2014-05-21_15-50-11_094959634447_rgbf000101-resize_3/003490_2014-05-21_15-50-11_094959634447_rgbf000101-resize_3-target.png,125,3.6445,6,2720,122,feet,jsons/VE125_randls_13.json,1094594,1254411,35,Woman
49,107774,DepthScenes,duration_manipulation_targetAtFixation,jsons/VE125_randls_13.json,http://54.235.29.9/FacialAge/BNav_EC2/DepthDuration/v2_depth_duration_MTurk/v2_DepthDuration_HTML.html#58,58,1366,625,1366,768,8-21-2022,8-56-6,50,depth_duration_stimuli/002279_2014-06-28_18-55-32_260595134347_rgbf000040-resize_5/002279_2014-06-28_18-55-32_260595134347_rgbf000040-resize_5-target.png,125,1.5043333333333,2,2899,116,feet,jsons/VE125_randls_13.json,1094594,1254411,35,Woman
50,107774,DepthScenes,duration_manipulation_targetAtFixation,jsons/VE125_randls_13.json,http://54.235.29.9/FacialAge/BNav_EC2/DepthDuration/v2_depth_duration_MTurk/v2_DepthDuration_HTML.html#58,58,1366,625,1366,768,8-21-2022,8-56-6,51,depth_duration_stimuli/000635_2014-06-08_16-38-42_260595134347_rgbf000106-resize_1/000635_2014-06-08_16-38-42_260595134347_rgbf000106-resize_1-target.png,125,2.074,7,2877,123,feet,jsons/VE125_randls_13.json,1094594,1254411,35,Woman
51,107774,DepthScenes,duration_manipulation_targetAtFixation,jsons/VE125_randls_13.json,http://54.235.29.9/FacialAge/BNav_EC2/DepthDuration/v2_depth_duration_MTurk/v2_DepthDuration_HTML.html#58,58,1366,625,1366,768,8-21-2022,8-56-6,52,depth_duration_stimuli/002043_2014-06-24_20-29-38_260595134347_rgbf000039-resize_4/002043_2014-06-24_20-29-38_260595134347_rgbf000039-resize_4-target.png,125,2.8435,3,3865,131,feet,jsons/VE125_randls_13.json,1094594,1254411,35,Woman
52,107774,DepthScenes,duration_manipulation_targetAtFixation,jsons/VE125_randls_13.json,http://54.235.29.9/FacialAge/BNav_EC2/DepthDuration/v2_depth_duration_MTurk/v2_DepthDuration_HTML.html#58,58,1366,625,1366,768,8-21-2022,8-56-6,53,depth_duration_stimuli/003048_2014-06-15_13-49-43_094959634447_rgbf000150-resize_1/003048_2014-06-15_13-49-43_094959634447_rgbf000150-resize_1-target.png,125,4.0035,8,2557,125,feet,jsons/VE125_randls_13.json,1094594,1254411,35,Woman
53,107774,DepthScenes,duration_manipulation_targetAtFixation,jsons/VE125_randls_13.json,http://54.235.29.9/FacialAge/BNav_EC2/DepthDuration/v2_depth_duration_MTurk/v2_DepthDuration_HTML.html#58,58,1366,625,1366,768,8-21-2022,8-56-6,54,depth_duration_stimuli/002725_2014-06-22_11-47-51_094959634447_rgbf000070-resize_1/002725_2014-06-22_11-47-51_094959634447_rgbf000070-resize_1-target.png,125,2.195,3,2127,132,feet,jsons/VE125_randls_13.json,1094594,1254411,35,Woman
54,107774,DepthScenes,duration_manipulation_targetAtFixation,jsons/VE125_randls_13.json,http://54.235.29.9/FacialAge/BNav_EC2/DepthDuration/v2_depth_duration_MTurk/v2_DepthDuration_HTML.html#58,58,1366,625,1366,768,8-21-2022,8-56-6,55,depth_duration_stimuli/002344_2014-06-28_20-06-29_260595134347_rgbf000030-resize_1/002344_2014-06-28_20-06-29_260595134347_rgbf000030-resize_1-target.png,125,1.5795,4,2054,120,feet,jsons/VE125_randls_13.json,1094594,1254411,35,Woman
55,107774,DepthScenes,duration_manipulation_targetAtFixation,jsons/VE125_randls_13.json,http://54.235.29.9/FacialAge/BNav_EC2/DepthDuration/v2_depth_duration_MTurk/v2_DepthDuration_HTML.html#58,58,1366,625,1366,768,8-21-2022,8-56-6,56,depth_duration_stimuli/001055_2014-06-08_18-45-35_260595134347_rgbf000111-resize_4/001055_2014-06-08_18-45-35_260595134347_rgbf000111-resize_4-target.png,125,2.4290000000000003,6,2095,123,feet,jsons/VE125_randls_13.json,1094594,1254411,35,Woman
56,107774,DepthScenes,duration_manipulation_targetAtFixation,jsons/VE125_randls_13.json,http://54.235.29.9/FacialAge/BNav_EC2/DepthDuration/v2_depth_duration_MTurk/v2_DepthDuration_HTML.html#58,58,1366,625,1366,768,8-21-2022,8-56-6,57,depth_duration_stimuli/000549_2014-06-08_22-10-24_260595134347_rgbf000247-resize_3/000549_2014-06-08_22-10-24_260595134347_rgbf000247-resize_3-target.png,125,1.841,2,4508,126,feet,jsons/VE125_randls_13.json,1094594,1254411,35,Woman
57,107774,DepthScenes,duration_manipulation_targetAtFixation,jsons/VE125_randls_13.json,http://54.235.29.9/FacialAge/BNav_EC2/DepthDuration/v2_depth_duration_MTurk/v2_DepthDuration_HTML.html#58,58,1366,625,1366,768,8-21-2022,8-56-6,58,depth_duration_stimuli/000736_2014-06-08_18-24-15_260595134347_rgbf000206-resize_3/000736_2014-06-08_18-24-15_260595134347_rgbf000206-resize_3-target.png,125,3.515,8,3173,123,feet,jsons/VE125_randls_13.json,1094594,1254411,35,Woman
58,107774,DepthScenes,duration_manipulation_targetAtFixation,jsons/VE125_randls_13.json,http://54.235.29.9/FacialAge/BNav_EC2/DepthDuration/v2_depth_duration_MTurk/v2_DepthDuration_HTML.html#58,58,1366,625,1366,768,8-21-2022,8-56-6,59,depth_duration_stimuli/000137_2014-05-20_17-04-49_260595134347_rgbf000120-resize_1/000137_2014-05-20_17-04-49_260595134347_rgbf000120-resize_1-target.png,125,3.786,2,3798,132,feet,jsons/VE125_randls_13.json,1094594,1254411,35,Woman
59,107774,DepthScenes,duration_manipulation_targetAtFixation,jsons/VE125_randls_13.json,http://54.235.29.9/FacialAge/BNav_EC2/DepthDuration/v2_depth_duration_MTurk/v2_DepthDuration_HTML.html#58,58,1366,625,1366,768,8-21-2022,8-56-6,60,depth_duration_stimuli/000642_2014-06-08_16-59-25_260595134347_rgbf000098-resize_2/000642_2014-06-08_16-59-25_260595134347_rgbf000098-resize_2-target.png,125,2.8815,5,3796,120,feet,jsons/VE125_randls_13.json,1094594,1254411,35,Woman
60,107774,DepthScenes,duration_manipulation_targetAtFixation,jsons/VE125_randls_13.json,http://54.235.29.9/FacialAge/BNav_EC2/DepthDuration/v2_depth_duration_MTurk/v2_DepthDuration_HTML.html#58,58,1366,625,1366,768,8-21-2022,8-56-6,61,depth_duration_stimuli/002425_2014-06-28_20-27-29_260595134347_rgbf000031-resize_8/002425_2014-06-28_20-27-29_260595134347_rgbf000031-resize_8-target.png,125,3.8960000000000004,8,2673,116,feet,jsons/VE125_randls_13.json,1094594,1254411,35,Woman
61,107774,DepthScenes,duration_manipulation_targetAtFixation,jsons/VE125_randls_13.json,http://54.235.29.9/FacialAge/BNav_EC2/DepthDuration/v2_depth_duration_MTurk/v2_DepthDuration_HTML.html#58,58,1366,625,1366,768,8-21-2022,8-56-6,62,depth_duration_stimuli/001056_2014-06-08_18-46-44_260595134347_rgbf000068-resize_0/001056_2014-06-08_18-46-44_260595134347_rgbf000068-resize_0-target.png,125,2.6625,3,2029,123,feet,jsons/VE125_randls_13.json,1094594,1254411,35,Woman
62,107774,DepthScenes,duration_manipulation_targetAtFixation,jsons/VE125_randls_13.json,http://54.235.29.9/FacialAge/BNav_EC2/DepthDuration/v2_depth_duration_MTurk/v2_DepthDuration_HTML.html#58,58,1366,625,1366,768,8-21-2022,8-56-6,63,depth_duration_stimuli/002199_2014-06-28_18-33-56_260595134347_rgbf000074-resize_0/002199_2014-06-28_18-33-56_260595134347_rgbf000074-resize_0-target.png,125,1.996,4,2566,122,feet,jsons/VE125_randls_13.json,1094594,1254411,35,Woman
63,107774,DepthScenes,duration_manipulation_targetAtFixation,jsons/VE125_randls_13.json,http://54.235.29.9/FacialAge/BNav_EC2/DepthDuration/v2_depth_duration_MTurk/v2_DepthDuration_HTML.html#58,58,1366,625,1366,768,8-21-2022,8-56-6,64,depth_duration_stimuli/000917_2014-06-09_22-45-29_260595134347_rgbf000149-resize_3/000917_2014-06-09_22-45-29_260595134347_rgbf000149-resize_3-target.png,125,4.1865,1,3632,124,feet,jsons/VE125_randls_13.json,1094594,1254411,35,Woman
64,107774,DepthScenes,duration_manipulation_targetAtFixation,jsons/VE125_randls_13.json,http://54.235.29.9/FacialAge/BNav_EC2/DepthDuration/v2_depth_duration_MTurk/v2_DepthDuration_HTML.html#58,58,1366,625,1366,768,8-21-2022,8-56-6,65,depth_duration_stimuli/002323_2014-06-28_20-01-54_260595134347_rgbf000051-resize_4/002323_2014-06-28_20-01-54_260595134347_rgbf000051-resize_4-target.png,125,3.7310000000000003,3,2961,124,feet,jsons/VE125_randls_13.json,1094594,1254411,35,Woman
65,107774,DepthScenes,duration_manipulation_targetAtFixation,jsons/VE125_randls_13.json,http://54.235.29.9/FacialAge/BNav_EC2/DepthDuration/v2_depth_duration_MTurk/v2_DepthDuration_HTML.html#58,58,1366,625,1366,768,8-21-2022,8-56-6,66,depth_duration_stimuli/001222_2014-06-17_16-24-06_260595134347_rgbf000073-resize_0/001222_2014-06-17_16-24-06_260595134347_rgbf000073-resize-original.jpg,125,1.4385,0,6536,117,feet,jsons/VE125_randls_13.json,1094594,1254411,35,Woman
66,107774,DepthScenes,duration_manipulation_targetAtFixation,jsons/VE125_randls_13.json,http://54.235.29.9/FacialAge/BNav_EC2/DepthDuration/v2_depth_duration_MTurk/v2_DepthDuration_HTML.html#58,58,1366,625,1366,768,8-21-2022,8-56-6,67,depth_duration_stimuli/000878_2014-06-08_22-52-45_260595134347_rgbf000045-resize_2/000878_2014-06-08_22-52-45_260595134347_rgbf000045-resize_2-target.png,125,2.092,3,2986,121,feet,jsons/VE125_randls_13.json,1094594,1254411,35,Woman
67,107774,DepthScenes,duration_manipulation_targetAtFixation,jsons/VE125_randls_13.json,http://54.235.29.9/FacialAge/BNav_EC2/DepthDuration/v2_depth_duration_MTurk/v2_DepthDuration_HTML.html#58,58,1366,625,1366,768,8-21-2022,8-56-6,68,depth_duration_stimuli/002953_2014-06-08_17-32-18_094959634447_rgbf000059-resize_5/002953_2014-06-08_17-32-18_094959634447_rgbf000059-resize_5-target.png,125,1.551,5,3176,129,feet,jsons/VE125_randls_13.json,1094594,1254411,35,Woman
68,107774,DepthScenes,duration_manipulation_targetAtFixation,jsons/VE125_randls_13.json,http://54.235.29.9/FacialAge/BNav_EC2/DepthDuration/v2_depth_duration_MTurk/v2_DepthDuration_HTML.html#58,58,1366,625,1366,768,8-21-2022,8-56-6,69,depth_duration_stimuli/002905_2014-06-03_18-04-43_094959634447_rgbf000151-resize_2/002905_2014-06-03_18-04-43_094959634447_rgbf000151-resize_2-target.png,125,2.0295,3,3394,125,feet,jsons/VE125_randls_13.json,1094594,1254411,35,Woman
69,107774,DepthScenes,duration_manipulation_targetAtFixation,jsons/VE125_randls_13.json,http://54.235.29.9/FacialAge/BNav_EC2/DepthDuration/v2_depth_duration_MTurk/v2_DepthDuration_HTML.html#58,58,1366,625,1366,768,8-21-2022,8-56-6,70,depth_duration_stimuli/003423_2014-05-21_10-23-26_094959634447_rgbf002665-resize_2/003423_2014-05-21_10-23-26_094959634447_rgbf002665-resize_2-target.png,125,3.2575,2,2968,123,feet,jsons/VE125_randls_13.json,1094594,1254411,35,Woman
70,107774,DepthScenes,duration_manipulation_targetAtFixation,jsons/VE125_randls_13.json,http://54.235.29.9/FacialAge/BNav_EC2/DepthDuration/v2_depth_duration_MTurk/v2_DepthDuration_HTML.html#58,58,1366,625,1366,768,8-21-2022,8-56-6,71,depth_duration_stimuli/000414_2014-06-04_19-49-13_260595134347_rgbf000044-resize_0/000414_2014-06-04_19-49-13_260595134347_rgbf000044-resize_0-target.png,125,4.329,7,2727,123,feet,jsons/VE125_randls_13.json,1094594,1254411,35,Woman
71,107774,DepthScenes,duration_manipulation_targetAtFixation,jsons/VE125_randls_13.json,http://54.235.29.9/FacialAge/BNav_EC2/DepthDuration/v2_depth_duration_MTurk/v2_DepthDuration_HTML.html#58,58,1366,625,1366,768,8-21-2022,8-56-6,72,depth_duration_stimuli/003129_2014-05-12_10-48-10_094959634447_rgbf000100-resize_0/003129_2014-05-12_10-48-10_094959634447_rgbf000100-resize_0-target.png,125,4.9305,2,2728,124,feet,jsons/VE125_randls_13.json,1094594,1254411,35,Woman
72,107774,DepthScenes,duration_manipulation_targetAtFixation,jsons/VE125_randls_13.json,http://54.235.29.9/FacialAge/BNav_EC2/DepthDuration/v2_depth_duration_MTurk/v2_DepthDuration_HTML.html#58,58,1366,625,1366,768,8-21-2022,8-56-6,73,depth_duration_stimuli/002988_2014-06-15_12-24-20_094959634447_rgbf000150-resize_1/002988_2014-06-15_12-24-20_094959634447_rgbf000150-resize_1-target.png,125,4.7669999999999995,5,2882,123,feet,jsons/VE125_randls_13.json,1094594,1254411,35,Woman
73,107774,DepthScenes,duration_manipulation_targetAtFixation,jsons/VE125_randls_13.json,http://54.235.29.9/FacialAge/BNav_EC2/DepthDuration/v2_depth_duration_MTurk/v2_DepthDuration_HTML.html#58,58,1366,625,1366,768,8-21-2022,8-56-6,74,depth_duration_stimuli/001052_2014-06-08_18-24-54_260595134347_rgbf000130-resize_1/001052_2014-06-08_18-24-54_260595134347_rgbf000130-resize_1-target.png,125,4.1045,2,2799,120,feet,jsons/VE125_randls_13.json,1094594,1254411,35,Woman
74,107774,DepthScenes,duration_manipulation_targetAtFixation,jsons/VE125_randls_13.json,http://54.235.29.9/FacialAge/BNav_EC2/DepthDuration/v2_depth_duration_MTurk/v2_DepthDuration_HTML.html#58,58,1366,625,1366,768,8-21-2022,8-56-6,75,depth_duration_stimuli/000810_2014-06-08_17-20-01_260595134347_rgbf000105-resize_0/000810_2014-06-08_17-20-01_260595134347_rgbf000105-resize_0-target.png,125,1.4865,7,4450,113,feet,jsons/VE125_randls_13.json,1094594,1254411,35,Woman
75,107774,DepthScenes,duration_manipulation_targetAtFixation,jsons/VE125_randls_13.json,http://54.235.29.9/FacialAge/BNav_EC2/DepthDuration/v2_depth_duration_MTurk/v2_DepthDuration_HTML.html#58,58,1366,625,1366,768,8-21-2022,8-56-6,76,depth_duration_stimuli/001214_2014-06-17_16-13-55_260595134347_rgbf000111-resize_0/001214_2014-06-17_16-13-55_260595134347_rgbf000111-resize_0-target.png,125,2.6505,3,2496,114,feet,jsons/VE125_randls_13.json,1094594,1254411,35,Woman
76,107774,DepthScenes,duration_manipulation_targetAtFixation,jsons/VE125_randls_13.json,http://54.235.29.9/FacialAge/BNav_EC2/DepthDuration/v2_depth_duration_MTurk/v2_DepthDuration_HTML.html#58,58,1366,625,1366,768,8-21-2022,8-56-6,77,depth_duration_stimuli/002272_2014-06-28_18-53-56_260595134347_rgbf000067-resize_2/002272_2014-06-28_18-53-56_260595134347_rgbf000067-resize_2-target.png,125,1.138,2,3814,131,feet,jsons/VE125_randls_13.json,1094594,1254411,35,Woman
77,107774,DepthScenes,duration_manipulation_targetAtFixation,jsons/VE125_randls_13.json,http://54.235.29.9/FacialAge/BNav_EC2/DepthDuration/v2_depth_duration_MTurk/v2_DepthDuration_HTML.html#58,58,1366,625,1366,768,8-21-2022,8-56-6,78,depth_duration_stimuli/001571_2014-06-20_17-21-32_260595134347_rgbf000089-resize_1/001571_2014-06-20_17-21-32_260595134347_rgbf000089-resize_1-target.png,125,1.86,9,2953,118,feet,jsons/VE125_randls_13.json,1094594,1254411,35,Woman
78,107774,DepthScenes,duration_manipulation_targetAtFixation,jsons/VE125_randls_13.json,http://54.235.29.9/FacialAge/BNav_EC2/DepthDuration/v2_depth_duration_MTurk/v2_DepthDuration_HTML.html#58,58,1366,625,1366,768,8-21-2022,8-56-6,79,depth_duration_stimuli/002788_2014-06-22_19-36-03_094959634447_rgbf000088-resize_2/002788_2014-06-22_19-36-03_094959634447_rgbf000088-resize_2-target.png,125,1.6465,2,3317,123,feet,jsons/VE125_randls_13.json,1094594,1254411,35,Woman
79,107774,DepthScenes,duration_manipulation_targetAtFixation,jsons/VE125_randls_13.json,http://54.235.29.9/FacialAge/BNav_EC2/DepthDuration/v2_depth_duration_MTurk/v2_DepthDuration_HTML.html#58,58,1366,625,1366,768,8-21-2022,8-56-6,80,depth_duration_stimuli/000749_2014-06-08_21-55-06_260595134347_rgbf000070-resize_2/000749_2014-06-08_21-55-06_260595134347_rgbf000070-resize_2-target.png,125,2.331,6,2543,124,feet,jsons/VE125_randls_13.json,1094594,1254411,35,Woman
80,107774,DepthScenes,duration_manipulation_targetAtFixation,jsons/VE125_randls_13.json,http://54.235.29.9/FacialAge/BNav_EC2/DepthDuration/v2_depth_duration_MTurk/v2_DepthDuration_HTML.html#58,58,1366,625,1366,768,8-21-2022,8-56-6,81,depth_duration_stimuli/002748_2014-06-22_19-07-22_094959634447_rgbf000078-resize_1/002748_2014-06-22_19-07-22_094959634447_rgbf000078-resize_1-target.png,125,4.6705,3,3528,121,feet,jsons/VE125_randls_13.json,1094594,1254411,35,Woman
81,107774,DepthScenes,duration_manipulation_targetAtFixation,jsons/VE125_randls_13.json,http://54.235.29.9/FacialAge/BNav_EC2/DepthDuration/v2_depth_duration_MTurk/v2_DepthDuration_HTML.html#58,58,1366,625,1366,768,8-21-2022,8-56-6,82,depth_duration_stimuli/002995_2014-06-15_12-31-26_094959634447_rgbf000150-resize_1/002995_2014-06-15_12-31-26_094959634447_rgbf000150-resize_1-target.png,125,3.8360000000000003,2,2402,117,feet,jsons/VE125_randls_13.json,1094594,1254411,35,Woman
82,107774,DepthScenes,duration_manipulation_targetAtFixation,jsons/VE125_randls_13.json,http://54.235.29.9/FacialAge/BNav_EC2/DepthDuration/v2_depth_duration_MTurk/v2_DepthDuration_HTML.html#58,58,1366,625,1366,768,8-21-2022,8-56-6,83,depth_duration_stimuli/000436_2014-06-09_22-25-11_260595134347_rgbf000137-resize_1/000436_2014-06-09_22-25-11_260595134347_rgbf000137-resize_1-target.png,125,4.0705,4,3154,117,feet,jsons/VE125_randls_13.json,1094594,1254411,35,Woman
83,107774,DepthScenes,duration_manipulation_targetAtFixation,jsons/VE125_randls_13.json,http://54.235.29.9/FacialAge/BNav_EC2/DepthDuration/v2_depth_duration_MTurk/v2_DepthDuration_HTML.html#58,58,1366,625,1366,768,8-21-2022,8-56-6,84,depth_duration_stimuli/002444_2014-06-28_20-32-08_260595134347_rgbf000027-resize_0/002444_2014-06-28_20-32-08_260595134347_rgbf000027-resize_0-target.png,125,4.388999999999999,1,3306,124,feet,jsons/VE125_randls_13.json,1094594,1254411,35,Woman
84,107774,DepthScenes,duration_manipulation_targetAtFixation,jsons/VE125_randls_13.json,http://54.235.29.9/FacialAge/BNav_EC2/DepthDuration/v2_depth_duration_MTurk/v2_DepthDuration_HTML.html#58,58,1366,625,1366,768,8-21-2022,8-56-6,85,depth_duration_stimuli/001133_2014-06-17_14-49-16_260595134347_rgbf000100-resize_0/001133_2014-06-17_14-49-16_260595134347_rgbf000100-resize_0-target.png,125,4.2115,4,4253,122,feet,jsons/VE125_randls_13.json,1094594,1254411,35,Woman
85,107774,DepthScenes,duration_manipulation_targetAtFixation,jsons/VE125_randls_13.json,http://54.235.29.9/FacialAge/BNav_EC2/DepthDuration/v2_depth_duration_MTurk/v2_DepthDuration_HTML.html#58,58,1366,625,1366,768,8-21-2022,8-56-6,86,depth_duration_stimuli/001132_2014-06-17_14-48-54_260595134347_rgbf000100-resize_2/001132_2014-06-17_14-48-54_260595134347_rgbf000100-resize_2-target.png,125,3.753,2,3004,125,feet,jsons/VE125_randls_13.json,1094594,1254411,35,Woman
86,107774,DepthScenes,duration_manipulation_targetAtFixation,jsons/VE125_randls_13.json,http://54.235.29.9/FacialAge/BNav_EC2/DepthDuration/v2_depth_duration_MTurk/v2_DepthDuration_HTML.html#58,58,1366,625,1366,768,8-21-2022,8-56-6,87,depth_duration_stimuli/003070_2014-06-15_14-58-27_094959634447_rgbf000150-resize_3/003070_2014-06-15_14-58-27_094959634447_rgbf000150-resize_3-target.png,125,2.9415,5,2707,125,feet,jsons/VE125_randls_13.json,1094594,1254411,35,Woman
87,107774,DepthScenes,duration_manipulation_targetAtFixation,jsons/VE125_randls_13.json,http://54.235.29.9/FacialAge/BNav_EC2/DepthDuration/v2_depth_duration_MTurk/v2_DepthDuration_HTML.html#58,58,1366,625,1366,768,8-21-2022,8-56-6,88,depth_duration_stimuli/000943_2014-06-09_19-31-07_260595134347_rgbf000128-resize_1/000943_2014-06-09_19-31-07_260595134347_rgbf000128-resize_1-target.png,125,1.9765,2,3927,124,feet,jsons/VE125_randls_13.json,1094594,1254411,35,Woman
88,107774,DepthScenes,duration_manipulation_targetAtFixation,jsons/VE125_randls_13.json,http://54.235.29.9/FacialAge/BNav_EC2/DepthDuration/v2_depth_duration_MTurk/v2_DepthDuration_HTML.html#58,58,1366,625,1366,768,8-21-2022,8-56-6,89,depth_duration_stimuli/002057_2014-06-24_21-00-13_260595134347_rgbf000120-resize_1/002057_2014-06-24_21-00-13_260595134347_rgbf000120-resize_1-target.png,125,2.967,8,2677,123,feet,jsons/VE125_randls_13.json,1094594,1254411,35,Woman
89,107774,DepthScenes,duration_manipulation_targetAtFixation,jsons/VE125_randls_13.json,http://54.235.29.9/FacialAge/BNav_EC2/DepthDuration/v2_depth_duration_MTurk/v2_DepthDuration_HTML.html#58,58,1366,625,1366,768,8-21-2022,8-56-6,90,depth_duration_stimuli/000709_2014-06-08_13-51-55_260595134347_rgbf000068-resize_3/000709_2014-06-08_13-51-55_260595134347_rgbf000068-resize_3-target.png,125,1.8030000000000002,3,2578,124,feet,jsons/VE125_randls_13.json,1094594,1254411,35,Woman
90,107774,DepthScenes,duration_manipulation_targetAtFixation,jsons/VE125_randls_13.json,http://54.235.29.9/FacialAge/BNav_EC2/DepthDuration/v2_depth_duration_MTurk/v2_DepthDuration_HTML.html#58,58,1366,625,1366,768,8-21-2022,8-56-6,91,depth_duration_stimuli/000758_2014-06-08_22-05-08_260595134347_rgbf000085-resize_0/000758_2014-06-08_22-05-08_260595134347_rgbf000085-resize_0-target.png,125,3.3810000000000002,2,3533,140,feet,jsons/VE125_randls_13.json,1094594,1254411,35,Woman
91,107774,DepthScenes,duration_manipulation_targetAtFixation,jsons/VE125_randls_13.json,http://54.235.29.9/FacialAge/BNav_EC2/DepthDuration/v2_depth_duration_MTurk/v2_DepthDuration_HTML.html#58,58,1366,625,1366,768,8-21-2022,8-56-6,92,depth_duration_stimuli/000854_2014-06-09_19-43-13_260595134347_rgbf000066-resize_0/000854_2014-06-09_19-43-13_260595134347_rgbf000066-resize_0-target.png,125,3.068,6,2257,123,feet,jsons/VE125_randls_13.json,1094594,1254411,35,Woman
92,107774,DepthScenes,duration_manipulation_targetAtFixation,jsons/VE125_randls_13.json,http://54.235.29.9/FacialAge/BNav_EC2/DepthDuration/v2_depth_duration_MTurk/v2_DepthDuration_HTML.html#58,58,1366,625,1366,768,8-21-2022,8-56-6,93,depth_duration_stimuli/001164_2014-06-17_15-35-46_260595134347_rgbf000085-resize_3/001164_2014-06-17_15-35-46_260595134347_rgbf000085-resize_3-target.png,125,2.354,8,2327,125,feet,jsons/VE125_randls_13.json,1094594,1254411,35,Woman
93,107774,DepthScenes,duration_manipulation_targetAtFixation,jsons/VE125_randls_13.json,http://54.235.29.9/FacialAge/BNav_EC2/DepthDuration/v2_depth_duration_MTurk/v2_DepthDuration_HTML.html#58,58,1366,625,1366,768,8-21-2022,8-56-6,94,depth_duration_stimuli/001136_2014-06-17_15-19-41_260595134347_rgbf000076-resize_3/001136_2014-06-17_15-19-41_260595134347_rgbf000076-resize_3-target.png,125,1.8655,2,2533,124,feet,jsons/VE125_randls_13.json,1094594,1254411,35,Woman
94,107774,DepthScenes,duration_manipulation_targetAtFixation,jsons/VE125_randls_13.json,http://54.235.29.9/FacialAge/BNav_EC2/DepthDuration/v2_depth_duration_MTurk/v2_DepthDuration_HTML.html#58,58,1366,625,1366,768,8-21-2022,8-56-6,95,depth_duration_stimuli/002153_2014-06-25_21-27-18_260595134347_rgbf000038-resize_5/002153_2014-06-25_21-27-18_260595134347_rgbf000038-resize_5-target.png,125,2.505,4,3471,120,feet,jsons/VE125_randls_13.json,1094594,1254411,35,Woman
95,107774,DepthScenes,duration_manipulation_targetAtFixation,jsons/VE125_randls_13.json,http://54.235.29.9/FacialAge/BNav_EC2/DepthDuration/v2_depth_duration_MTurk/v2_DepthDuration_HTML.html#58,58,1366,625,1366,768,8-21-2022,8-56-6,96,depth_duration_stimuli/002660_2014-06-13_15-44-18_094959634447_rgbf001878-resize_2/002660_2014-06-13_15-44-18_094959634447_rgbf001878-resize_2-target.png,125,3.576,2,2799,134,feet,jsons/VE125_randls_13.json,1094594,1254411,35,Woman
96,107774,DepthScenes,duration_manipulation_targetAtFixation,jsons/VE125_randls_13.json,http://54.235.29.9/FacialAge/BNav_EC2/DepthDuration/v2_depth_duration_MTurk/v2_DepthDuration_HTML.html#58,58,1366,625,1366,768,8-21-2022,8-56-6,97,depth_duration_stimuli/000739_2014-06-08_18-45-58_260595134347_rgbf000068-resize_1/000739_2014-06-08_18-45-58_260595134347_rgbf000068-resize_1-target.png,125,3.534,3,1962,124,feet,jsons/VE125_randls_13.json,1094594,1254411,35,Woman
97,107774,DepthScenes,duration_manipulation_targetAtFixation,jsons/VE125_randls_13.json,http://54.235.29.9/FacialAge/BNav_EC2/DepthDuration/v2_depth_duration_MTurk/v2_DepthDuration_HTML.html#58,58,1366,625,1366,768,8-21-2022,8-56-6,98,depth_duration_stimuli/000734_2014-06-08_17-39-11_260595134347_rgbf000128-resize_2/000734_2014-06-08_17-39-11_260595134347_rgbf000128-resize_2-target.png,125,4.098,6,2195,124,feet,jsons/VE125_randls_13.json,1094594,1254411,35,Woman
98,107774,DepthScenes,duration_manipulation_targetAtFixation,jsons/VE125_randls_13.json,http://54.235.29.9/FacialAge/BNav_EC2/DepthDuration/v2_depth_duration_MTurk/v2_DepthDuration_HTML.html#58,58,1366,625,1366,768,8-21-2022,8-56-6,99,depth_duration_stimuli/001540_2014-06-20_17-01-05_260595134347_rgbf000086-resize_2/001540_2014-06-20_17-01-05_260595134347_rgbf000086-resize-original.jpg,125,1.459,7,2128,120,feet,jsons/VE125_randls_13.json,1094594,1254411,35,Woman
99,107774,DepthScenes,duration_manipulation_targetAtFixation,jsons/VE125_randls_13.json,http://54.235.29.9/FacialAge/BNav_EC2/DepthDuration/v2_depth_duration_MTurk/v2_DepthDuration_HTML.html#58,58,1366,625,1366,768,8-21-2022,8-56-6,100,depth_duration_stimuli/000522_2014-06-08_13-35-06_260595134347_rgbf000244-resize_1/000522_2014-06-08_13-35-06_260595134347_rgbf000244-resize_1-target.png,125,2.3715,1,1996,136,feet,jsons/VE125_randls_13.json,1094594,1254411,35,Woman
100,107774,DepthScenes,duration_manipulation_targetAtFixation,jsons/VE125_randls_13.json,http://54.235.29.9/FacialAge/BNav_EC2/DepthDuration/v2_depth_duration_MTurk/v2_DepthDuration_HTML.html#58,58,1366,625,1366,768,8-21-2022,8-56-6,101,depth_duration_stimuli/002949_2014-06-26_15-57-42_094959634447_rgbf000079-resize_1/002949_2014-06-26_15-57-42_094959634447_rgbf000079-resize_1-target.png,125,1.8915,4,2035,123,feet,jsons/VE125_randls_13.json,1094594,1254411,35,Woman
101,107774,DepthScenes,duration_manipulation_targetAtFixation,jsons/VE125_randls_13.json,http://54.235.29.9/FacialAge/BNav_EC2/DepthDuration/v2_depth_duration_MTurk/v2_DepthDuration_HTML.html#58,58,1366,625,1366,768,8-21-2022,8-56-6,102,depth_duration_stimuli/002989_2014-06-15_12-25-03_094959634447_rgbf000150-resize_3/002989_2014-06-15_12-25-03_094959634447_rgbf000150-resize_3-target.png,125,4.1975,6,2314,127,feet,jsons/VE125_randls_13.json,1094594,1254411,35,Woman
102,107774,DepthScenes,duration_manipulation_targetAtFixation,jsons/VE125_randls_13.json,http://54.235.29.9/FacialAge/BNav_EC2/DepthDuration/v2_depth_duration_MTurk/v2_DepthDuration_HTML.html#58,58,1366,625,1366,768,8-21-2022,8-56-6,103,depth_duration_stimuli/000866_2014-06-09_20-45-42_260595134347_rgbf000139-resize_1/000866_2014-06-09_20-45-42_260595134347_rgbf000139-resize_1-target.png,125,3.2155,3,1871,124,feet,jsons/VE125_randls_13.json,1094594,1254411,35,Woman
103,107774,DepthScenes,duration_manipulation_targetAtFixation,jsons/VE125_randls_13.json,http://54.235.29.9/FacialAge/BNav_EC2/DepthDuration/v2_depth_duration_MTurk/v2_DepthDuration_HTML.html#58,58,1366,625,1366,768,8-21-2022,8-56-6,104,depth_duration_stimuli/001555_2014-06-20_17-12-10_260595134347_rgbf000065-resize_4/001555_2014-06-20_17-12-10_260595134347_rgbf000065-resize_4-target.png,125,1.633,6,3042,111,feet,jsons/VE125_randls_13.json,1094594,1254411,35,Woman
104,107774,DepthScenes,duration_manipulation_targetAtFixation,jsons/VE125_randls_13.json,http://54.235.29.9/FacialAge/BNav_EC2/DepthDuration/v2_depth_duration_MTurk/v2_DepthDuration_HTML.html#58,58,1366,625,1366,768,8-21-2022,8-56-6,105,depth_duration_stimuli/000103_2014-05-14_22-01-17_260595134347_rgbf000152-resize_5/000103_2014-05-14_22-01-17_260595134347_rgbf000152-resize_5-target.png,125,1.993,3,3970,124,feet,jsons/VE125_randls_13.json,1094594,1254411,35,Woman
105,107774,DepthScenes,duration_manipulation_targetAtFixation,jsons/VE125_randls_13.json,http://54.235.29.9/FacialAge/BNav_EC2/DepthDuration/v2_depth_duration_MTurk/v2_DepthDuration_HTML.html#58,58,1366,625,1366,768,8-21-2022,8-56-6,106,depth_duration_stimuli/003534_2014-05-22_15-06-10_094959634447_rgbf000102-resize_4/003534_2014-05-22_15-06-10_094959634447_rgbf000102-resize_4-target.png,125,1.426,2,2711,123,feet,jsons/VE125_randls_13.json,1094594,1254411,35,Woman
106,107774,DepthScenes,duration_manipulation_targetAtFixation,jsons/VE125_randls_13.json,http://54.235.29.9/FacialAge/BNav_EC2/DepthDuration/v2_depth_duration_MTurk/v2_DepthDuration_HTML.html#58,58,1366,625,1366,768,8-21-2022,8-56-6,107,depth_duration_stimuli/002637_2014-06-24_14-51-13_094959634447_rgbf000066-resize_4/002637_2014-06-24_14-51-13_094959634447_rgbf000066-resize_4-target.png,125,1.9955,5,2126,124,feet,jsons/VE125_randls_13.json,1094594,1254411,35,Woman
107,107774,DepthScenes,duration_manipulation_targetAtFixation,jsons/VE125_randls_13.json,http://54.235.29.9/FacialAge/BNav_EC2/DepthDuration/v2_depth_duration_MTurk/v2_DepthDuration_HTML.html#58,58,1366,625,1366,768,8-21-2022,8-56-6,108,depth_duration_stimuli/001016_2014-06-09_16-16-10_260595134347_rgbf000112-resize_5/001016_2014-06-09_16-16-10_260595134347_rgbf000112-resize_5-target.png,125,1.6565,2,2023,122,feet,jsons/VE125_randls_13.json,1094594,1254411,35,Woman
108,107774,DepthScenes,duration_manipulation_targetAtFixation,jsons/VE125_randls_13.json,http://54.235.29.9/FacialAge/BNav_EC2/DepthDuration/v2_depth_duration_MTurk/v2_DepthDuration_HTML.html#58,58,1366,625,1366,768,8-21-2022,8-56-6,109,depth_duration_stimuli/002340_2014-06-28_20-05-46_260595134347_rgbf000113-resize_0/002340_2014-06-28_20-05-46_260595134347_rgbf000113-resize_0-target.png,125,2.4735,5,2350,123,feet,jsons/VE125_randls_13.json,1094594,1254411,35,Woman
109,107774,DepthScenes,duration_manipulation_targetAtFixation,jsons/VE125_randls_13.json,http://54.235.29.9/FacialAge/BNav_EC2/DepthDuration/v2_depth_duration_MTurk/v2_DepthDuration_HTML.html#58,58,1366,625,1366,768,8-21-2022,8-56-6,110,depth_duration_stimuli/000773_2014-06-08_22-24-54_260595134347_rgbf000093-resize_1/000773_2014-06-08_22-24-54_260595134347_rgbf000093-resize_1-target.png,125,4.973,1,2552,151,feet,jsons/VE125_randls_13.json,1094594,1254411,35,Woman
110,107774,DepthScenes,duration_manipulation_targetAtFixation,jsons/VE125_randls_13.json,http://54.235.29.9/FacialAge/BNav_EC2/DepthDuration/v2_depth_duration_MTurk/v2_DepthDuration_HTML.html#58,58,1366,625,1366,768,8-21-2022,8-56-6,111,depth_duration_stimuli/002414_2014-06-28_20-24-58_260595134347_rgbf000067-resize_4/002414_2014-06-28_20-24-58_260595134347_rgbf000067-resize_4-target.png,125,4.363,3,2715,129,feet,jsons/VE125_randls_13.json,1094594,1254411,35,Woman
111,107774,DepthScenes,duration_manipulation_targetAtFixation,jsons/VE125_randls_13.json,http://54.235.29.9/FacialAge/BNav_EC2/DepthDuration/v2_depth_duration_MTurk/v2_DepthDuration_HTML.html#58,58,1366,625,1366,768,8-21-2022,8-56-6,112,depth_duration_stimuli/001059_2014-06-08_21-53-27_260595134347_rgbf000061-resize_4/001059_2014-06-08_21-53-27_260595134347_rgbf000061-resize_4-target.png,125,2.4185,2,2782,124,feet,jsons/VE125_randls_13.json,1094594,1254411,35,Woman
112,107774,DepthScenes,duration_manipulation_targetAtFixation,jsons/VE125_randls_13.json,http://54.235.29.9/FacialAge/BNav_EC2/DepthDuration/v2_depth_duration_MTurk/v2_DepthDuration_HTML.html#58,58,1366,625,1366,768,8-21-2022,8-56-6,113,depth_duration_stimuli/001032_2014-06-08_13-23-17_260595134347_rgbf000021-resize_3/001032_2014-06-08_13-23-17_260595134347_rgbf000021-resize_3-target.png,125,3.2725,4,2599,124,feet,jsons/VE125_randls_13.json,1094594,1254411,35,Woman
113,107774,DepthScenes,duration_manipulation_targetAtFixation,jsons/VE125_randls_13.json,http://54.235.29.9/FacialAge/BNav_EC2/DepthDuration/v2_depth_duration_MTurk/v2_DepthDuration_HTML.html#58,58,1366,625,1366,768,8-21-2022,8-56-6,114,depth_duration_stimuli/003292_2014-05-14_21-53-49_094959634447_rgbf000100-resize_2/003292_2014-05-14_21-53-49_094959634447_rgbf000100-resize_2-target.png,125,3.4815,1,2661,120,feet,jsons/VE125_randls_13.json,1094594,1254411,35,Woman
114,107774,DepthScenes,duration_manipulation_targetAtFixation,jsons/VE125_randls_13.json,http://54.235.29.9/FacialAge/BNav_EC2/DepthDuration/v2_depth_duration_MTurk/v2_DepthDuration_HTML.html#58,58,1366,625,1366,768,8-21-2022,8-56-6,115,depth_duration_stimuli/002639_2014-06-24_14-51-37_094959634447_rgbf000074-resize_4/002639_2014-06-24_14-51-37_094959634447_rgbf000074-resize_4-target.png,125,4.0375,2,2067,112,feet,jsons/VE125_randls_13.json,1094594,1254411,35,Woman
115,107774,DepthScenes,duration_manipulation_targetAtFixation,jsons/VE125_randls_13.json,http://54.235.29.9/FacialAge/BNav_EC2/DepthDuration/v2_depth_duration_MTurk/v2_DepthDuration_HTML.html#58,58,1366,625,1366,768,8-21-2022,8-56-6,116,depth_duration_stimuli/001170_2014-06-17_15-43-44_260595134347_rgbf000096-resize_6/001170_2014-06-17_15-43-44_260595134347_rgbf000096-resize-original.jpg,125,1.1909999999999998,0,2774,130,feet,jsons/VE125_randls_13.json,1094594,1254411,35,Woman
116,107774,DepthScenes,duration_manipulation_targetAtFixation,jsons/VE125_randls_13.json,http://54.235.29.9/FacialAge/BNav_EC2/DepthDuration/v2_depth_duration_MTurk/v2_DepthDuration_HTML.html#58,58,1366,625,1366,768,8-21-2022,8-56-6,117,depth_duration_stimuli/001570_2014-06-20_17-21-09_260595134347_rgbf000135-resize_4/001570_2014-06-20_17-21-09_260595134347_rgbf000135-resize_4-target.png,125,4.467,3,2336,130,feet,jsons/VE125_randls_13.json,1094594,1254411,35,Woman
117,107774,DepthScenes,duration_manipulation_targetAtFixation,jsons/VE125_randls_13.json,http://54.235.29.9/FacialAge/BNav_EC2/DepthDuration/v2_depth_duration_MTurk/v2_DepthDuration_HTML.html#58,58,1366,625,1366,768,8-21-2022,8-56-6,118,depth_duration_stimuli/001392_2014-06-19_16-07-59_260595134347_rgbf000046-resize_1/001392_2014-06-19_16-07-59_260595134347_rgbf000046-resize_1-target.png,125,4.135,2,2324,130,feet,jsons/VE125_randls_13.json,1094594,1254411,35,Woman
118,107774,DepthScenes,duration_manipulation_targetAtFixation,jsons/VE125_randls_13.json,http://54.235.29.9/FacialAge/BNav_EC2/DepthDuration/v2_depth_duration_MTurk/v2_DepthDuration_HTML.html#58,58,1366,625,1366,768,8-21-2022,8-56-6,119,depth_duration_stimuli/000447_2014-06-08_16-15-46_260595134347_rgbf000130-resize_1/000447_2014-06-08_16-15-46_260595134347_rgbf000130-resize_1-target.png,125,4.479,3,2259,115,feet,jsons/VE125_randls_13.json,1094594,1254411,35,Woman
119,107774,DepthScenes,duration_manipulation_targetAtFixation,jsons/VE125_randls_13.json,http://54.235.29.9/FacialAge/BNav_EC2/DepthDuration/v2_depth_duration_MTurk/v2_DepthDuration_HTML.html#58,58,1366,625,1366,768,8-21-2022,8-56-6,120,depth_duration_stimuli/001447_2014-06-19_17-00-32_260595134347_rgbf000082-resize_5/001447_2014-06-19_17-00-32_260595134347_rgbf000082-resize_5-target.png,125,4.13775,3,2079,124,feet,jsons/VE125_randls_13.json,1094594,1254411,35,Woman
120,107774,DepthScenes,duration_manipulation_targetAtFixation,jsons/VE125_randls_13.json,http://54.235.29.9/FacialAge/BNav_EC2/DepthDuration/v2_depth_duration_MTurk/v2_DepthDuration_HTML.html#58,58,1366,625,1366,768,8-21-2022,8-56-6,121,depth_duration_stimuli/001066_2014-06-08_22-03-20_260595134347_rgbf000066-resize_4/001066_2014-06-08_22-03-20_260595134347_rgbf000066-resize_4-target.png,125,4.2330000000000005,8,5545,111,feet,jsons/VE125_randls_13.json,1094594,1254411,35,Woman
121,107774,DepthScenes,duration_manipulation_targetAtFixation,jsons/VE125_randls_13.json,http://54.235.29.9/FacialAge/BNav_EC2/DepthDuration/v2_depth_duration_MTurk/v2_DepthDuration_HTML.html#58,58,1366,625,1366,768,8-21-2022,8-56-6,122,depth_duration_stimuli/000742_2014-06-08_18-48-09_260595134347_rgbf000164-resize_4/000742_2014-06-08_18-48-09_260595134347_rgbf000164-resize_4-target.png,125,4.632,2,2473,120,feet,jsons/VE125_randls_13.json,1094594,1254411,35,Woman
122,107774,DepthScenes,duration_manipulation_targetAtFixation,jsons/VE125_randls_13.json,http://54.235.29.9/FacialAge/BNav_EC2/DepthDuration/v2_depth_duration_MTurk/v2_DepthDuration_HTML.html#58,58,1366,625,1366,768,8-21-2022,8-56-6,123,depth_duration_stimuli/002630_2014-06-24_14-47-50_094959634447_rgbf000055-resize_1/002630_2014-06-24_14-47-50_094959634447_rgbf000055-resize_1-target.png,125,3.0095,3,2778,112,feet,jsons/VE125_randls_13.json,1094594,1254411,35,Woman
123,107774,DepthScenes,duration_manipulation_targetAtFixation,jsons/VE125_randls_13.json,http://54.235.29.9/FacialAge/BNav_EC2/DepthDuration/v2_depth_duration_MTurk/v2_DepthDuration_HTML.html#58,58,1366,625,1366,768,8-21-2022,8-56-6,124,depth_duration_stimuli/002758_2014-06-22_19-11-20_094959634447_rgbf000128-resize_1/002758_2014-06-22_19-11-20_094959634447_rgbf000128-resize_1-target.png,125,2.555,1,2121,137,feet,jsons/VE125_randls_13.json,1094594,1254411,35,Woman
124,107774,DepthScenes,duration_manipulation_targetAtFixation,jsons/VE125_randls_13.json,http://54.235.29.9/FacialAge/BNav_EC2/DepthDuration/v2_depth_duration_MTurk/v2_DepthDuration_HTML.html#58,58,1366,625,1366,768,8-21-2022,8-56-6,125,depth_duration_stimuli/002549_2014-06-24_13-41-39_094959634447_rgbf000022-resize_3/002549_2014-06-24_13-41-39_094959634447_rgbf000022-resize_3-target.png,125,1.476,4,2506,115,feet,jsons/VE125_randls_13.json,1094594,1254411,35,Woman
125,107774,DepthScenes,duration_manipulation_targetAtFixation,jsons/VE125_randls_13.json,http://54.235.29.9/FacialAge/BNav_EC2/DepthDuration/v2_depth_duration_MTurk/v2_DepthDuration_HTML.html#58,58,1366,625,1366,768,8-21-2022,8-56-6,126,depth_duration_stimuli/002750_2014-06-22_19-08-03_094959634447_rgbf000094-resize_4/002750_2014-06-22_19-08-03_094959634447_rgbf000094-resize_4-target.png,125,2.354,2,2471,130,feet,jsons/VE125_randls_13.json,1094594,1254411,35,Woman
126,107774,DepthScenes,duration_manipulation_targetAtFixation,jsons/VE125_randls_13.json,http://54.235.29.9/FacialAge/BNav_EC2/DepthDuration/v2_depth_duration_MTurk/v2_DepthDuration_HTML.html#58,58,1366,625,1366,768,8-21-2022,8-56-6,127,depth_duration_stimuli/001199_2014-06-17_16-03-48_260595134347_rgbf000077-resize_0/001199_2014-06-17_16-03-48_260595134347_rgbf000077-resize_0-target.png,125,3.4375,4,2320,121,feet,jsons/VE125_randls_13.json,1094594,1254411,35,Woman
127,107774,DepthScenes,duration_manipulation_targetAtFixation,jsons/VE125_randls_13.json,http://54.235.29.9/FacialAge/BNav_EC2/DepthDuration/v2_depth_duration_MTurk/v2_DepthDuration_HTML.html#58,58,1366,625,1366,768,8-21-2022,8-56-6,128,depth_duration_stimuli/000502_2014-06-08_23-02-32_260595134347_rgbf000063-resize_4/000502_2014-06-08_23-02-32_260595134347_rgbf000063-resize_4-target.png,125,2.431,2,2050,117,feet,jsons/VE125_randls_13.json,1094594,1254411,35,Woman
128,107774,DepthScenes,duration_manipulation_targetAtFixation,jsons/VE125_randls_13.json,http://54.235.29.9/FacialAge/BNav_EC2/DepthDuration/v2_depth_duration_MTurk/v2_DepthDuration_HTML.html#58,58,1366,625,1366,768,8-21-2022,8-56-6,129,depth_duration_stimuli/000486_2014-06-09_20-47-20_260595134347_rgbf000143-resize_2/000486_2014-06-09_20-47-20_260595134347_rgbf000143-resize_2-target.png,125,4.8325,5,2206,124,feet,jsons/VE125_randls_13.json,1094594,1254411,35,Woman
129,107774,DepthScenes,duration_manipulation_targetAtFixation,jsons/VE125_randls_13.json,http://54.235.29.9/FacialAge/BNav_EC2/DepthDuration/v2_depth_duration_MTurk/v2_DepthDuration_HTML.html#58,58,1366,625,1366,768,8-21-2022,8-56-6,130,depth_duration_stimuli/003083_2014-06-15_15-21-03_094959634447_rgbf000063-resize_1/003083_2014-06-15_15-21-03_094959634447_rgbf000063-resize_1-target.png,125,4.1405,3,2670,120,feet,jsons/VE125_randls_13.json,1094594,1254411,35,Woman
130,107774,DepthScenes,duration_manipulation_targetAtFixation,jsons/VE125_randls_13.json,http://54.235.29.9/FacialAge/BNav_EC2/DepthDuration/v2_depth_duration_MTurk/v2_DepthDuration_HTML.html#58,58,1366,625,1366,768,8-21-2022,8-56-6,131,depth_duration_stimuli/001806_2014-06-26_20-50-20_260595134347_rgbf000091-resize_1/001806_2014-06-26_20-50-20_260595134347_rgbf000091-resize_1-target.png,125,2.7305,1,2596,123,feet,jsons/VE125_randls_13.json,1094594,1254411,35,Woman
131,107774,DepthScenes,duration_manipulation_targetAtFixation,jsons/VE125_randls_13.json,http://54.235.29.9/FacialAge/BNav_EC2/DepthDuration/v2_depth_duration_MTurk/v2_DepthDuration_HTML.html#58,58,1366,625,1366,768,8-21-2022,8-56-6,132,depth_duration_stimuli/001617_2014-06-20_11-35-32_260595134347_rgbf000066-resize_1/001617_2014-06-20_11-35-32_260595134347_rgbf000066-resize_1-target.png,125,3.7910000000000004,2,2055,112,feet,jsons/VE125_randls_13.json,1094594,1254411,35,Woman
132,107774,DepthScenes,duration_manipulation_targetAtFixation,jsons/VE125_randls_13.json,http://54.235.29.9/FacialAge/BNav_EC2/DepthDuration/v2_depth_duration_MTurk/v2_DepthDuration_HTML.html#58,58,1366,625,1366,768,8-21-2022,8-56-6,133,depth_duration_stimuli/000493_2014-06-09_21-01-18_260595134347_rgbf000196-resize_3/000493_2014-06-09_21-01-18_260595134347_rgbf000196-resize_3-target.png,125,3.44,3,2452,131,feet,jsons/VE125_randls_13.json,1094594,1254411,35,Woman
133,107774,DepthScenes,duration_manipulation_targetAtFixation,jsons/VE125_randls_13.json,http://54.235.29.9/FacialAge/BNav_EC2/DepthDuration/v2_depth_duration_MTurk/v2_DepthDuration_HTML.html#58,58,1366,625,1366,768,8-21-2022,8-56-6,134,depth_duration_stimuli/000191_2014-05-12_17-07-38_260595134347_rgbf000199-resize_0/000191_2014-05-12_17-07-38_260595134347_rgbf000199-resize_0-target.png,125,3.7995,6,2778,132,feet,jsons/VE125_randls_13.json,1094594,1254411,35,Woman
134,107774,DepthScenes,duration_manipulation_targetAtFixation,jsons/VE125_randls_13.json,http://54.235.29.9/FacialAge/BNav_EC2/DepthDuration/v2_depth_duration_MTurk/v2_DepthDuration_HTML.html#58,58,1366,625,1366,768,8-21-2022,8-56-6,135,depth_duration_stimuli/002072_2014-06-24_21-48-06_260595134347_rgbf000115-resize_0/002072_2014-06-24_21-48-06_260595134347_rgbf000115-resize-original.jpg,125,4.702,0,2847,135,feet,jsons/VE125_randls_13.json,1094594,1254411,35,Woman
135,107774,DepthScenes,duration_manipulation_targetAtFixation,jsons/VE125_randls_13.json,http://54.235.29.9/FacialAge/BNav_EC2/DepthDuration/v2_depth_duration_MTurk/v2_DepthDuration_HTML.html#58,58,1366,625,1366,768,8-21-2022,8-56-6,136,depth_duration_stimuli/000506_2014-06-08_23-21-00_260595134347_rgbf000070-resize_7/000506_2014-06-08_23-21-00_260595134347_rgbf000070-resize_7-target.png,125,4.0585,2,2769,128,feet,jsons/VE125_randls_13.json,1094594,1254411,35,Woman
136,107774,DepthScenes,duration_manipulation_targetAtFixation,jsons/VE125_randls_13.json,http://54.235.29.9/FacialAge/BNav_EC2/DepthDuration/v2_depth_duration_MTurk/v2_DepthDuration_HTML.html#58,58,1366,625,1366,768,8-21-2022,8-56-6,137,depth_duration_stimuli/003079_2014-06-15_15-18-20_094959634447_rgbf000152-resize_8/003079_2014-06-15_15-18-20_094959634447_rgbf000152-resize_8-target.png,125,2.8775,4,2149,139,feet,jsons/VE125_randls_13.json,1094594,1254411,35,Woman
137,107774,DepthScenes,duration_manipulation_targetAtFixation,jsons/VE125_randls_13.json,http://54.235.29.9/FacialAge/BNav_EC2/DepthDuration/v2_depth_duration_MTurk/v2_DepthDuration_HTML.html#58,58,1366,625,1366,768,8-21-2022,8-56-6,138,depth_duration_stimuli/001449_2014-06-19_17-01-27_260595134347_rgbf000116-resize_2/001449_2014-06-19_17-01-27_260595134347_rgbf000116-resize_2-target.png,125,3.452,2,2163,114,feet,jsons/VE125_randls_13.json,1094594,1254411,35,Woman
138,107774,DepthScenes,duration_manipulation_targetAtFixation,jsons/VE125_randls_13.json,http://54.235.29.9/FacialAge/BNav_EC2/DepthDuration/v2_depth_duration_MTurk/v2_DepthDuration_HTML.html#58,58,1366,625,1366,768,8-21-2022,8-56-6,139,depth_duration_stimuli/001450_2014-06-19_17-02-03_260595134347_rgbf000203-resize_4/001450_2014-06-19_17-02-03_260595134347_rgbf000203-resize_4-target.png,125,4.0106666666667,6,1998,132,feet,jsons/VE125_randls_13.json,1094594,1254411,35,Woman
139,107774,DepthScenes,duration_manipulation_targetAtFixation,jsons/VE125_randls_13.json,http://54.235.29.9/FacialAge/BNav_EC2/DepthDuration/v2_depth_duration_MTurk/v2_DepthDuration_HTML.html#58,58,1366,625,1366,768,8-21-2022,8-56-6,140,depth_duration_stimuli/002600_2014-06-24_14-27-04_094959634447_rgbf000074-resize_2/002600_2014-06-24_14-27-04_094959634447_rgbf000074-resize_2-target.png,125,2.7575,3,2387,124,feet,jsons/VE125_randls_13.json,1094594,1254411,35,Woman
140,107774,DepthScenes,duration_manipulation_targetAtFixation,jsons/VE125_randls_13.json,http://54.235.29.9/FacialAge/BNav_EC2/DepthDuration/v2_depth_duration_MTurk/v2_DepthDuration_HTML.html#58,58,1366,625,1366,768,8-21-2022,8-56-6,141,depth_duration_stimuli/003228_2014-05-14_13-42-35_094959634447_rgbf000101-resize_1/003228_2014-05-14_13-42-35_094959634447_rgbf000101-resize_1-target.png,125,1.9680000000000002,4,1994,132,feet,jsons/VE125_randls_13.json,1094594,1254411,35,Woman
141,107774,DepthScenes,duration_manipulation_targetAtFixation,jsons/VE125_randls_13.json,http://54.235.29.9/FacialAge/BNav_EC2/DepthDuration/v2_depth_duration_MTurk/v2_DepthDuration_HTML.html#58,58,1366,625,1366,768,8-21-2022,8-56-6,142,depth_duration_stimuli/000368_2014-06-09_15-53-01_260595134347_rgbf000155-resize_2/000368_2014-06-09_15-53-01_260595134347_rgbf000155-resize_2-target.png,125,2.4859999999999998,2,2961,117,feet,jsons/VE125_randls_13.json,1094594,1254411,35,Woman
142,107774,DepthScenes,duration_manipulation_targetAtFixation,jsons/VE125_randls_13.json,http://54.235.29.9/FacialAge/BNav_EC2/DepthDuration/v2_depth_duration_MTurk/v2_DepthDuration_HTML.html#58,58,1366,625,1366,768,8-21-2022,8-56-6,143,depth_duration_stimuli/002678_2014-06-13_16-15-32_094959634447_rgbf000151-resize_6/002678_2014-06-13_16-15-32_094959634447_rgbf000151-resize_6-target.png,125,2.1830000000000003,9,1995,123,feet,jsons/VE125_randls_13.json,1094594,1254411,35,Woman
143,107774,DepthScenes,duration_manipulation_targetAtFixation,jsons/VE125_randls_13.json,http://54.235.29.9/FacialAge/BNav_EC2/DepthDuration/v2_depth_duration_MTurk/v2_DepthDuration_HTML.html#58,58,1366,625,1366,768,8-21-2022,8-56-6,144,depth_duration_stimuli/002763_2014-06-22_19-13-10_094959634447_rgbf000075-resize_4/002763_2014-06-22_19-13-10_094959634447_rgbf000075-resize_4-target.png,125,1.68375,1,2755,121,feet,jsons/VE125_randls_13.json,1094594,1254411,35,Woman
144,107774,DepthScenes,duration_manipulation_targetAtFixation,jsons/VE125_randls_13.json,http://54.235.29.9/FacialAge/BNav_EC2/DepthDuration/v2_depth_duration_MTurk/v2_DepthDuration_HTML.html#58,58,1366,625,1366,768,8-21-2022,8-56-6,145,depth_duration_stimuli/002209_2014-06-28_18-36-10_260595134347_rgbf000051-resize_1/002209_2014-06-28_18-36-10_260595134347_rgbf000051-resize_1-target.png,125,2.057,3,3099,113,feet,jsons/VE125_randls_13.json,1094594,1254411,35,Woman
145,107774,DepthScenes,duration_manipulation_targetAtFixation,jsons/VE125_randls_13.json,http://54.235.29.9/FacialAge/BNav_EC2/DepthDuration/v2_depth_duration_MTurk/v2_DepthDuration_HTML.html#58,58,1366,625,1366,768,8-21-2022,8-56-6,146,depth_duration_stimuli/001498_2014-06-19_17-45-14_260595134347_rgbf000129-resize_4/001498_2014-06-19_17-45-14_260595134347_rgbf000129-resize-original.jpg,125,1.4075,2,1916,112,feet,jsons/VE125_randls_13.json,1094594,1254411,35,Woman
146,107774,DepthScenes,duration_manipulation_targetAtFixation,jsons/VE125_randls_13.json,http://54.235.29.9/FacialAge/BNav_EC2/DepthDuration/v2_depth_duration_MTurk/v2_DepthDuration_HTML.html#58,58,1366,625,1366,768,8-21-2022,8-56-6,147,depth_duration_stimuli/000009_2014-05-26_14-32-05_260595134347_rgbf000034-resize_3/000009_2014-05-26_14-32-05_260595134347_rgbf000034-resize_3-target.png,125,3.8715,2,2261,108,feet,jsons/VE125_randls_13.json,1094594,1254411,35,Woman
147,107774,DepthScenes,duration_manipulation_targetAtFixation,jsons/VE125_randls_13.json,http://54.235.29.9/FacialAge/BNav_EC2/DepthDuration/v2_depth_duration_MTurk/v2_DepthDuration_HTML.html#58,58,1366,625,1366,768,8-21-2022,8-56-6,148,depth_duration_stimuli/001828_2014-06-26_21-40-03_260595134347_rgbf000024-resize_0/001828_2014-06-26_21-40-03_260595134347_rgbf000024-resize_0-target.png,125,4.8260000000000005,4,2502,119,feet,jsons/VE125_randls_13.json,1094594,1254411,35,Woman
148,107774,DepthScenes,duration_manipulation_targetAtFixation,jsons/VE125_randls_13.json,http://54.235.29.9/FacialAge/BNav_EC2/DepthDuration/v2_depth_duration_MTurk/v2_DepthDuration_HTML.html#58,58,1366,625,1366,768,8-21-2022,8-56-6,149,depth_duration_stimuli/000906_2014-06-08_13-35-43_260595134347_rgbf000155-resize_1/000906_2014-06-08_13-35-43_260595134347_rgbf000155-resize_1-target.png,125,2.8489999999999998,2,2048,125,feet,jsons/VE125_randls_13.json,1094594,1254411,35,Woman
149,107774,DepthScenes,duration_manipulation_targetAtFixation,jsons/VE125_randls_13.json,http://54.235.29.9/FacialAge/BNav_EC2/DepthDuration/v2_depth_duration_MTurk/v2_DepthDuration_HTML.html#58,58,1366,625,1366,768,8-21-2022,8-56-6,150,depth_duration_stimuli/002805_2014-06-22_19-54-03_094959634447_rgbf000079-resize_1/002805_2014-06-22_19-54-03_094959634447_rgbf000079-resize_1-target.png,125,3.1439999999999997,1,2066,121,feet,jsons/VE125_randls_13.json,1094594,1254411,35,Woman
150,107774,DepthScenes,duration_manipulation_targetAtFixation,jsons/VE125_randls_13.json,http://54.235.29.9/FacialAge/BNav_EC2/DepthDuration/v2_depth_duration_MTurk/v2_DepthDuration_HTML.html#58,58,1366,625,1366,768,8-21-2022,8-56-6,151,depth_duration_stimuli/001110_2014-06-15_17-25-28_260595134347_rgbf000150-resize_1/001110_2014-06-15_17-25-28_260595134347_rgbf000150-resize_1-target.png,125,1.7115,6,3100,136,feet,jsons/VE125_randls_13.json,1094594,1254411,35,Woman
151,107774,DepthScenes,duration_manipulation_targetAtFixation,jsons/VE125_randls_13.json,http://54.235.29.9/FacialAge/BNav_EC2/DepthDuration/v2_depth_duration_MTurk/v2_DepthDuration_HTML.html#58,58,1366,625,1366,768,8-21-2022,8-56-6,152,depth_duration_stimuli/000927_2014-06-09_16-32-30_260595134347_rgbf000123-resize_3/000927_2014-06-09_16-32-30_260595134347_rgbf000123-resize_3-target.png,125,2.6785,6,6432,124,feet,jsons/VE125_randls_13.json,1094594,1254411,35,Woman
152,107774,DepthScenes,duration_manipulation_targetAtFixation,jsons/VE125_randls_13.json,http://54.235.29.9/FacialAge/BNav_EC2/DepthDuration/v2_depth_duration_MTurk/v2_DepthDuration_HTML.html#58,58,1366,625,1366,768,8-21-2022,8-56-6,153,depth_duration_stimuli/002570_2014-06-24_13-59-54_094959634447_rgbf000059-resize_0/002570_2014-06-24_13-59-54_094959634447_rgbf000059-resize_0-target.png,125,4.037,3,2652,134,feet,jsons/VE125_randls_13.json,1094594,1254411,35,Woman
153,107774,DepthScenes,duration_manipulation_targetAtFixation,jsons/VE125_randls_13.json,http://54.235.29.9/FacialAge/BNav_EC2/DepthDuration/v2_depth_duration_MTurk/v2_DepthDuration_HTML.html#58,58,1366,625,1366,768,8-21-2022,8-56-6,154,depth_duration_stimuli/002467_2014-06-28_20-38-07_260595134347_rgbf000026-resize_2/002467_2014-06-28_20-38-07_260595134347_rgbf000026-resize_2-target.png,125,4.742,2,2376,88,feet,jsons/VE125_randls_13.json,1094594,1254411,35,Woman
154,107774,DepthScenes,duration_manipulation_targetAtFixation,jsons/VE125_randls_13.json,http://54.235.29.9/FacialAge/BNav_EC2/DepthDuration/v2_depth_duration_MTurk/v2_DepthDuration_HTML.html#58,58,1366,625,1366,768,8-21-2022,8-56-6,155,depth_duration_stimuli/001810_2014-06-26_20-51-35_260595134347_rgbf000040-resize_3/001810_2014-06-26_20-51-35_260595134347_rgbf000040-resize_3-target.png,125,2.2525,7,3705,122,feet,jsons/VE125_randls_13.json,1094594,1254411,35,Woman
155,107774,DepthScenes,duration_manipulation_targetAtFixation,jsons/VE125_randls_13.json,http://54.235.29.9/FacialAge/BNav_EC2/DepthDuration/v2_depth_duration_MTurk/v2_DepthDuration_HTML.html#58,58,1366,625,1366,768,8-21-2022,8-56-6,156,depth_duration_stimuli/003010_2014-06-15_12-54-35_094959634447_rgbf000112-resize_0/003010_2014-06-15_12-54-35_094959634447_rgbf000112-resize_0-target.png,125,3.1185,4,2228,125,feet,jsons/VE125_randls_13.json,1094594,1254411,35,Woman
156,107774,DepthScenes,duration_manipulation_targetAtFixation,jsons/VE125_randls_13.json,http://54.235.29.9/FacialAge/BNav_EC2/DepthDuration/v2_depth_duration_MTurk/v2_DepthDuration_HTML.html#58,58,1366,625,1366,768,8-21-2022,8-56-6,157,depth_duration_stimuli/002663_2014-06-13_15-50-26_094959634447_rgbf000075-resize_1/002663_2014-06-13_15-50-26_094959634447_rgbf000075-resize_1-target.png,125,4.7495,2,2665,113,feet,jsons/VE125_randls_13.json,1094594,1254411,35,Woman
157,107774,DepthScenes,duration_manipulation_targetAtFixation,jsons/VE125_randls_13.json,http://54.235.29.9/FacialAge/BNav_EC2/DepthDuration/v2_depth_duration_MTurk/v2_DepthDuration_HTML.html#58,58,1366,625,1366,768,8-21-2022,8-56-6,158,depth_duration_stimuli/000409_2014-06-04_19-23-33_260595134347_rgbf000067-resize_0/000409_2014-06-04_19-23-33_260595134347_rgbf000067-resize_0-target.png,125,3.7335,6,2696,135,feet,jsons/VE125_randls_13.json,1094594,1254411,35,Woman
158,107774,DepthScenes,duration_manipulation_targetAtFixation,jsons/VE125_randls_13.json,http://54.235.29.9/FacialAge/BNav_EC2/DepthDuration/v2_depth_duration_MTurk/v2_DepthDuration_HTML.html#58,58,1366,625,1366,768,8-21-2022,8-56-6,159,depth_duration_stimuli/001011_2014-06-08_23-18-54_260595134347_rgbf000044-resize_4/001011_2014-06-08_23-18-54_260595134347_rgbf000044-resize_4-target.png,125,2.4730000000000003,1,2637,132,feet,jsons/VE125_randls_13.json,1094594,1254411,35,Woman
159,107774,DepthScenes,duration_manipulation_targetAtFixation,jsons/VE125_randls_13.json,http://54.235.29.9/FacialAge/BNav_EC2/DepthDuration/v2_depth_duration_MTurk/v2_DepthDuration_HTML.html#58,58,1366,625,1366,768,8-21-2022,8-56-6,160,depth_duration_stimuli/002875_2014-06-01_15-19-00_094959634447_rgbf000151-resize_1/002875_2014-06-01_15-19-00_094959634447_rgbf000151-resize_1-target.png,125,1.9675,4,2604,131,feet,jsons/VE125_randls_13.json,1094594,1254411,35,Woman
160,107774,DepthScenes,duration_manipulation_targetAtFixation,jsons/VE125_randls_13.json,http://54.235.29.9/FacialAge/BNav_EC2/DepthDuration/v2_depth_duration_MTurk/v2_DepthDuration_HTML.html#58,58,1366,625,1366,768,8-21-2022,8-56-6,161,depth_duration_stimuli/001092_2014-06-15_17-34-58_260595134347_rgbf000171-resize_3/001092_2014-06-15_17-34-58_260595134347_rgbf000171-resize_3-target.png,125,2.6935,3,2800,128,feet,jsons/VE125_randls_13.json,1094594,1254411,35,Woman
161,107774,DepthScenes,duration_manipulation_targetAtFixation,jsons/VE125_randls_13.json,http://54.235.29.9/FacialAge/BNav_EC2/DepthDuration/v2_depth_duration_MTurk/v2_DepthDuration_HTML.html#58,58,1366,625,1366,768,8-21-2022,8-56-6,162,depth_duration_stimuli/002545_2014-06-24_13-38-53_094959634447_rgbf000080-resize_4/002545_2014-06-24_13-38-53_094959634447_rgbf000080-resize_4-target.png,125,1.9205,2,2188,116,feet,jsons/VE125_randls_13.json,1094594,1254411,35,Woman
162,107774,DepthScenes,duration_manipulation_targetAtFixation,jsons/VE125_randls_13.json,http://54.235.29.9/FacialAge/BNav_EC2/DepthDuration/v2_depth_duration_MTurk/v2_DepthDuration_HTML.html#58,58,1366,625,1366,768,8-21-2022,8-56-6,163,depth_duration_stimuli/001167_2014-06-17_15-38-07_260595134347_rgbf000108-resize_0/001167_2014-06-17_15-38-07_260595134347_rgbf000108-resize_0-target.png,125,1.8505,2,3075,121,feet,jsons/VE125_randls_13.json,1094594,1254411,35,Woman
163,107774,DepthScenes,duration_manipulation_targetAtFixation,jsons/VE125_randls_13.json,http://54.235.29.9/FacialAge/BNav_EC2/DepthDuration/v2_depth_duration_MTurk/v2_DepthDuration_HTML.html#58,58,1366,625,1366,768,8-21-2022,8-56-6,164,depth_duration_stimuli/003587_2014-05-23_16-48-02_094959634447_rgbf002384-resize_2/003587_2014-05-23_16-48-02_094959634447_rgbf002384-resize_2-target.png,125,1.357,1,3028,113,feet,jsons/VE125_randls_13.json,1094594,1254411,35,Woman
