,subjID,experimentName,versionName,sequenceName,url,selected_row,windowWidth,windowHeight,screenWidth,screenHeight,startDate,startTime,trial,stimulus,duration,actual_depth,depth_estimate,trial_RT,log_sceneDuration,unitSelection,seq_filepath,experimentTime,totalTime,age,gender
0,110620,DepthScenes,duration_manipulation_targetAtFixation,jsons/VE125_randls_72_rotated.json,http://54.235.29.9/FacialAge/BNav_EC2/DepthDuration/v2_depth_duration_MTurk/v2_DepthDuration_HTML.html#109,109,1920,866,1920,1080,8-21-2022,7-0-36,1,depth_duration_stimuli/002639_2014-06-24_14-51-37_094959634447_rgbf000074-resize_4/002639_2014-06-24_14-51-37_094959634447_rgbf000074-resize_4-target.png,125,4.0375,8,4199,126,feet,jsons/VE125_randls_72_rotated.json,442330,613838,44,Man
1,110620,DepthScenes,duration_manipulation_targetAtFixation,jsons/VE125_randls_72_rotated.json,http://54.235.29.9/FacialAge/BNav_EC2/DepthDuration/v2_depth_duration_MTurk/v2_DepthDuration_HTML.html#109,109,1920,866,1920,1080,8-21-2022,7-0-36,2,depth_duration_stimuli/003292_2014-05-14_21-53-49_094959634447_rgbf000100-resize_2/003292_2014-05-14_21-53-49_094959634447_rgbf000100-resize_2-target.png,125,3.4815,6,2905,125,feet,jsons/VE125_randls_72_rotated.json,442330,613838,44,Man
2,110620,DepthScenes,duration_manipulation_targetAtFixation,jsons/VE125_randls_72_rotated.json,http://54.235.29.9/FacialAge/BNav_EC2/DepthDuration/v2_depth_duration_MTurk/v2_DepthDuration_HTML.html#109,109,1920,866,1920,1080,8-21-2022,7-0-36,3,depth_duration_stimuli/000854_2014-06-09_19-43-13_260595134347_rgbf000066-resize_0/000854_2014-06-09_19-43-13_260595134347_rgbf000066-resize_0-target.png,125,3.068,5,2545,125,feet,jsons/VE125_randls_72_rotated.json,442330,613838,44,Man
3,110620,DepthScenes,duration_manipulation_targetAtFixation,jsons/VE125_randls_72_rotated.json,http://54.235.29.9/FacialAge/BNav_EC2/DepthDuration/v2_depth_duration_MTurk/v2_DepthDuration_HTML.html#109,109,1920,866,1920,1080,8-21-2022,7-0-36,4,depth_duration_stimuli/000758_2014-06-08_22-05-08_260595134347_rgbf000085-resize_0/000758_2014-06-08_22-05-08_260595134347_rgbf000085-resize_0-target.png,125,3.3810000000000002,12,1945,127,feet,jsons/VE125_randls_72_rotated.json,442330,613838,44,Man
4,110620,DepthScenes,duration_manipulation_targetAtFixation,jsons/VE125_randls_72_rotated.json,http://54.235.29.9/FacialAge/BNav_EC2/DepthDuration/v2_depth_duration_MTurk/v2_DepthDuration_HTML.html#109,109,1920,866,1920,1080,8-21-2022,7-0-36,5,depth_duration_stimuli/003010_2014-06-15_12-54-35_094959634447_rgbf000112-resize_0/003010_2014-06-15_12-54-35_094959634447_rgbf000112-resize_0-target.png,125,3.1185,12,2530,128,feet,jsons/VE125_randls_72_rotated.json,442330,613838,44,Man
5,110620,DepthScenes,duration_manipulation_targetAtFixation,jsons/VE125_randls_72_rotated.json,http://54.235.29.9/FacialAge/BNav_EC2/DepthDuration/v2_depth_duration_MTurk/v2_DepthDuration_HTML.html#109,109,1920,866,1920,1080,8-21-2022,7-0-36,6,depth_duration_stimuli/001810_2014-06-26_20-51-35_260595134347_rgbf000040-resize_3/001810_2014-06-26_20-51-35_260595134347_rgbf000040-resize_3-target.png,125,2.2525,6,1701,122,feet,jsons/VE125_randls_72_rotated.json,442330,613838,44,Man
6,110620,DepthScenes,duration_manipulation_targetAtFixation,jsons/VE125_randls_72_rotated.json,http://54.235.29.9/FacialAge/BNav_EC2/DepthDuration/v2_depth_duration_MTurk/v2_DepthDuration_HTML.html#109,109,1920,866,1920,1080,8-21-2022,7-0-36,7,depth_duration_stimuli/002678_2014-06-13_16-15-32_094959634447_rgbf000151-resize_6/002678_2014-06-13_16-15-32_094959634447_rgbf000151-resize_6-target.png,125,2.1830000000000003,20,2244,124,feet,jsons/VE125_randls_72_rotated.json,442330,613838,44,Man
7,110620,DepthScenes,duration_manipulation_targetAtFixation,jsons/VE125_randls_72_rotated.json,http://54.235.29.9/FacialAge/BNav_EC2/DepthDuration/v2_depth_duration_MTurk/v2_DepthDuration_HTML.html#109,109,1920,866,1920,1080,8-21-2022,7-0-36,8,depth_duration_stimuli/000368_2014-06-09_15-53-01_260595134347_rgbf000155-resize_2/000368_2014-06-09_15-53-01_260595134347_rgbf000155-resize_2-target.png,125,2.4859999999999998,6,1881,122,feet,jsons/VE125_randls_72_rotated.json,442330,613838,44,Man
8,110620,DepthScenes,duration_manipulation_targetAtFixation,jsons/VE125_randls_72_rotated.json,http://54.235.29.9/FacialAge/BNav_EC2/DepthDuration/v2_depth_duration_MTurk/v2_DepthDuration_HTML.html#109,109,1920,866,1920,1080,8-21-2022,7-0-36,9,depth_duration_stimuli/002209_2014-06-28_18-36-10_260595134347_rgbf000051-resize_1/002209_2014-06-28_18-36-10_260595134347_rgbf000051-resize_1-target.png,125,2.057,6,2064,126,feet,jsons/VE125_randls_72_rotated.json,442330,613838,44,Man
9,110620,DepthScenes,duration_manipulation_targetAtFixation,jsons/VE125_randls_72_rotated.json,http://54.235.29.9/FacialAge/BNav_EC2/DepthDuration/v2_depth_duration_MTurk/v2_DepthDuration_HTML.html#109,109,1920,866,1920,1080,8-21-2022,7-0-36,10,depth_duration_stimuli/002763_2014-06-22_19-13-10_094959634447_rgbf000075-resize_4/002763_2014-06-22_19-13-10_094959634447_rgbf000075-resize_4-target.png,125,1.68375,5,1838,126,feet,jsons/VE125_randls_72_rotated.json,442330,613838,44,Man
10,110620,DepthScenes,duration_manipulation_targetAtFixation,jsons/VE125_randls_72_rotated.json,http://54.235.29.9/FacialAge/BNav_EC2/DepthDuration/v2_depth_duration_MTurk/v2_DepthDuration_HTML.html#109,109,1920,866,1920,1080,8-21-2022,7-0-36,11,depth_duration_stimuli/001447_2014-06-19_17-00-32_260595134347_rgbf000082-resize_5/001447_2014-06-19_17-00-32_260595134347_rgbf000082-resize_5-target.png,125,4.13775,8,1702,123,feet,jsons/VE125_randls_72_rotated.json,442330,613838,44,Man
11,110620,DepthScenes,duration_manipulation_targetAtFixation,jsons/VE125_randls_72_rotated.json,http://54.235.29.9/FacialAge/BNav_EC2/DepthDuration/v2_depth_duration_MTurk/v2_DepthDuration_HTML.html#109,109,1920,866,1920,1080,8-21-2022,7-0-36,12,depth_duration_stimuli/000447_2014-06-08_16-15-46_260595134347_rgbf000130-resize_1/000447_2014-06-08_16-15-46_260595134347_rgbf000130-resize_1-target.png,125,4.479,10,2814,126,feet,jsons/VE125_randls_72_rotated.json,442330,613838,44,Man
12,110620,DepthScenes,duration_manipulation_targetAtFixation,jsons/VE125_randls_72_rotated.json,http://54.235.29.9/FacialAge/BNav_EC2/DepthDuration/v2_depth_duration_MTurk/v2_DepthDuration_HTML.html#109,109,1920,866,1920,1080,8-21-2022,7-0-36,13,depth_duration_stimuli/002444_2014-06-28_20-32-08_260595134347_rgbf000027-resize_0/002444_2014-06-28_20-32-08_260595134347_rgbf000027-resize_0-target.png,125,4.388999999999999,10,1809,127,feet,jsons/VE125_randls_72_rotated.json,442330,613838,44,Man
13,110620,DepthScenes,duration_manipulation_targetAtFixation,jsons/VE125_randls_72_rotated.json,http://54.235.29.9/FacialAge/BNav_EC2/DepthDuration/v2_depth_duration_MTurk/v2_DepthDuration_HTML.html#109,109,1920,866,1920,1080,8-21-2022,7-0-36,14,depth_duration_stimuli/000436_2014-06-09_22-25-11_260595134347_rgbf000137-resize_1/000436_2014-06-09_22-25-11_260595134347_rgbf000137-resize_1-target.png,125,4.0705,6,3055,125,feet,jsons/VE125_randls_72_rotated.json,442330,613838,44,Man
14,110620,DepthScenes,duration_manipulation_targetAtFixation,jsons/VE125_randls_72_rotated.json,http://54.235.29.9/FacialAge/BNav_EC2/DepthDuration/v2_depth_duration_MTurk/v2_DepthDuration_HTML.html#109,109,1920,866,1920,1080,8-21-2022,7-0-36,15,depth_duration_stimuli/000742_2014-06-08_18-48-09_260595134347_rgbf000164-resize_4/000742_2014-06-08_18-48-09_260595134347_rgbf000164-resize_4-target.png,125,4.632,12,2617,126,feet,jsons/VE125_randls_72_rotated.json,442330,613838,44,Man
15,110620,DepthScenes,duration_manipulation_targetAtFixation,jsons/VE125_randls_72_rotated.json,http://54.235.29.9/FacialAge/BNav_EC2/DepthDuration/v2_depth_duration_MTurk/v2_DepthDuration_HTML.html#109,109,1920,866,1920,1080,8-21-2022,7-0-36,16,depth_duration_stimuli/001066_2014-06-08_22-03-20_260595134347_rgbf000066-resize_4/001066_2014-06-08_22-03-20_260595134347_rgbf000066-resize_4-target.png,125,4.2330000000000005,16,2272,122,feet,jsons/VE125_randls_72_rotated.json,442330,613838,44,Man
16,110620,DepthScenes,duration_manipulation_targetAtFixation,jsons/VE125_randls_72_rotated.json,http://54.235.29.9/FacialAge/BNav_EC2/DepthDuration/v2_depth_duration_MTurk/v2_DepthDuration_HTML.html#109,109,1920,866,1920,1080,8-21-2022,7-0-36,17,depth_duration_stimuli/002467_2014-06-28_20-38-07_260595134347_rgbf000026-resize_2/002467_2014-06-28_20-38-07_260595134347_rgbf000026-resize_2-target.png,125,4.742,16,2256,122,feet,jsons/VE125_randls_72_rotated.json,442330,613838,44,Man
17,110620,DepthScenes,duration_manipulation_targetAtFixation,jsons/VE125_randls_72_rotated.json,http://54.235.29.9/FacialAge/BNav_EC2/DepthDuration/v2_depth_duration_MTurk/v2_DepthDuration_HTML.html#109,109,1920,866,1920,1080,8-21-2022,7-0-36,18,depth_duration_stimuli/002570_2014-06-24_13-59-54_094959634447_rgbf000059-resize_0/002570_2014-06-24_13-59-54_094959634447_rgbf000059-resize_0-target.png,125,4.037,8,1795,126,feet,jsons/VE125_randls_72_rotated.json,442330,613838,44,Man
18,110620,DepthScenes,duration_manipulation_targetAtFixation,jsons/VE125_randls_72_rotated.json,http://54.235.29.9/FacialAge/BNav_EC2/DepthDuration/v2_depth_duration_MTurk/v2_DepthDuration_HTML.html#109,109,1920,866,1920,1080,8-21-2022,7-0-36,19,depth_duration_stimuli/001498_2014-06-19_17-45-14_260595134347_rgbf000129-resize_4/001498_2014-06-19_17-45-14_260595134347_rgbf000129-resize-original.jpg,125,1.4075,0,1827,128,feet,jsons/VE125_randls_72_rotated.json,442330,613838,44,Man
19,110620,DepthScenes,duration_manipulation_targetAtFixation,jsons/VE125_randls_72_rotated.json,http://54.235.29.9/FacialAge/BNav_EC2/DepthDuration/v2_depth_duration_MTurk/v2_DepthDuration_HTML.html#109,109,1920,866,1920,1080,8-21-2022,7-0-36,20,depth_duration_stimuli/001214_2014-06-17_16-13-55_260595134347_rgbf000111-resize_0/001214_2014-06-17_16-13-55_260595134347_rgbf000111-resize_0-target.png,125,2.6505,6,1580,124,feet,jsons/VE125_randls_72_rotated.json,442330,613838,44,Man
20,110620,DepthScenes,duration_manipulation_targetAtFixation,jsons/VE125_randls_72_rotated.json,http://54.235.29.9/FacialAge/BNav_EC2/DepthDuration/v2_depth_duration_MTurk/v2_DepthDuration_HTML.html#109,109,1920,866,1920,1080,8-21-2022,7-0-36,21,depth_duration_stimuli/000810_2014-06-08_17-20-01_260595134347_rgbf000105-resize_0/000810_2014-06-08_17-20-01_260595134347_rgbf000105-resize_0-target.png,125,1.4865,5,3068,123,feet,jsons/VE125_randls_72_rotated.json,442330,613838,44,Man
21,110620,DepthScenes,duration_manipulation_targetAtFixation,jsons/VE125_randls_72_rotated.json,http://54.235.29.9/FacialAge/BNav_EC2/DepthDuration/v2_depth_duration_MTurk/v2_DepthDuration_HTML.html#109,109,1920,866,1920,1080,8-21-2022,7-0-36,22,depth_duration_stimuli/002657_2014-06-13_15-29-54_094959634447_rgbf000150-resize_1/002657_2014-06-13_15-29-54_094959634447_rgbf000150-resize_1-target.png,125,4.919,8,1719,126,feet,jsons/VE125_randls_72_rotated.json,442330,613838,44,Man
22,110620,DepthScenes,duration_manipulation_targetAtFixation,jsons/VE125_randls_72_rotated.json,http://54.235.29.9/FacialAge/BNav_EC2/DepthDuration/v2_depth_duration_MTurk/v2_DepthDuration_HTML.html#109,109,1920,866,1920,1080,8-21-2022,7-0-36,23,depth_duration_stimuli/002375_2014-06-28_20-13-44_260595134347_rgbf000032-resize_1/002375_2014-06-28_20-13-44_260595134347_rgbf000032-resize_1-target.png,125,4.0175,6,1838,124,feet,jsons/VE125_randls_72_rotated.json,442330,613838,44,Man
23,110620,DepthScenes,duration_manipulation_targetAtFixation,jsons/VE125_randls_72_rotated.json,http://54.235.29.9/FacialAge/BNav_EC2/DepthDuration/v2_depth_duration_MTurk/v2_DepthDuration_HTML.html#109,109,1920,866,1920,1080,8-21-2022,7-0-36,24,depth_duration_stimuli/003081_2014-06-15_15-19-16_094959634447_rgbf000150-resize_1/003081_2014-06-15_15-19-16_094959634447_rgbf000150-resize_1-target.png,125,3.9125,8,3714,126,feet,jsons/VE125_randls_72_rotated.json,442330,613838,44,Man
24,110620,DepthScenes,duration_manipulation_targetAtFixation,jsons/VE125_randls_72_rotated.json,http://54.235.29.9/FacialAge/BNav_EC2/DepthDuration/v2_depth_duration_MTurk/v2_DepthDuration_HTML.html#109,109,1920,866,1920,1080,8-21-2022,7-0-36,25,depth_duration_stimuli/001417_2014-06-19_16-25-36_260595134347_rgbf000115-resize_5/001417_2014-06-19_16-25-36_260595134347_rgbf000115-resize_5-target.png,125,4.6255,5,2484,129,feet,jsons/VE125_randls_72_rotated.json,442330,613838,44,Man
25,110620,DepthScenes,duration_manipulation_targetAtFixation,jsons/VE125_randls_72_rotated.json,http://54.235.29.9/FacialAge/BNav_EC2/DepthDuration/v2_depth_duration_MTurk/v2_DepthDuration_HTML.html#109,109,1920,866,1920,1080,8-21-2022,7-0-36,26,depth_duration_stimuli/000483_2014-06-09_20-41-45_260595134347_rgbf000116-resize_4/000483_2014-06-09_20-41-45_260595134347_rgbf000116-resize_4-target.png,125,1.337,4,2180,121,feet,jsons/VE125_randls_72_rotated.json,442330,613838,44,Man
26,110620,DepthScenes,duration_manipulation_targetAtFixation,jsons/VE125_randls_72_rotated.json,http://54.235.29.9/FacialAge/BNav_EC2/DepthDuration/v2_depth_duration_MTurk/v2_DepthDuration_HTML.html#109,109,1920,866,1920,1080,8-21-2022,7-0-36,27,depth_duration_stimuli/000469_2014-06-09_19-42-10_260595134347_rgbf000081-resize_1/000469_2014-06-09_19-42-10_260595134347_rgbf000081-resize_1-target.png,125,1.652,4,2602,124,feet,jsons/VE125_randls_72_rotated.json,442330,613838,44,Man
27,110620,DepthScenes,duration_manipulation_targetAtFixation,jsons/VE125_randls_72_rotated.json,http://54.235.29.9/FacialAge/BNav_EC2/DepthDuration/v2_depth_duration_MTurk/v2_DepthDuration_HTML.html#109,109,1920,866,1920,1080,8-21-2022,7-0-36,28,depth_duration_stimuli/001132_2014-06-17_14-48-54_260595134347_rgbf000100-resize_2/001132_2014-06-17_14-48-54_260595134347_rgbf000100-resize_2-target.png,125,3.753,6,1704,129,feet,jsons/VE125_randls_72_rotated.json,442330,613838,44,Man
28,110620,DepthScenes,duration_manipulation_targetAtFixation,jsons/VE125_randls_72_rotated.json,http://54.235.29.9/FacialAge/BNav_EC2/DepthDuration/v2_depth_duration_MTurk/v2_DepthDuration_HTML.html#109,109,1920,866,1920,1080,8-21-2022,7-0-36,29,depth_duration_stimuli/001133_2014-06-17_14-49-16_260595134347_rgbf000100-resize_0/001133_2014-06-17_14-49-16_260595134347_rgbf000100-resize_0-target.png,125,4.2115,8,1658,129,feet,jsons/VE125_randls_72_rotated.json,442330,613838,44,Man
29,110620,DepthScenes,duration_manipulation_targetAtFixation,jsons/VE125_randls_72_rotated.json,http://54.235.29.9/FacialAge/BNav_EC2/DepthDuration/v2_depth_duration_MTurk/v2_DepthDuration_HTML.html#109,109,1920,866,1920,1080,8-21-2022,7-0-36,30,depth_duration_stimuli/002072_2014-06-24_21-48-06_260595134347_rgbf000115-resize_0/002072_2014-06-24_21-48-06_260595134347_rgbf000115-resize-original.jpg,125,4.702,0,1490,124,feet,jsons/VE125_randls_72_rotated.json,442330,613838,44,Man
30,110620,DepthScenes,duration_manipulation_targetAtFixation,jsons/VE125_randls_72_rotated.json,http://54.235.29.9/FacialAge/BNav_EC2/DepthDuration/v2_depth_duration_MTurk/v2_DepthDuration_HTML.html#109,109,1920,866,1920,1080,8-21-2022,7-0-36,31,depth_duration_stimuli/000866_2014-06-09_20-45-42_260595134347_rgbf000139-resize_1/000866_2014-06-09_20-45-42_260595134347_rgbf000139-resize_1-target.png,125,3.2155,6,2378,123,feet,jsons/VE125_randls_72_rotated.json,442330,613838,44,Man
31,110620,DepthScenes,duration_manipulation_targetAtFixation,jsons/VE125_randls_72_rotated.json,http://54.235.29.9/FacialAge/BNav_EC2/DepthDuration/v2_depth_duration_MTurk/v2_DepthDuration_HTML.html#109,109,1920,866,1920,1080,8-21-2022,7-0-36,32,depth_duration_stimuli/002989_2014-06-15_12-25-03_094959634447_rgbf000150-resize_3/002989_2014-06-15_12-25-03_094959634447_rgbf000150-resize_3-target.png,125,4.1975,10,2333,127,feet,jsons/VE125_randls_72_rotated.json,442330,613838,44,Man
32,110620,DepthScenes,duration_manipulation_targetAtFixation,jsons/VE125_randls_72_rotated.json,http://54.235.29.9/FacialAge/BNav_EC2/DepthDuration/v2_depth_duration_MTurk/v2_DepthDuration_HTML.html#109,109,1920,866,1920,1080,8-21-2022,7-0-36,33,depth_duration_stimuli/000709_2014-06-08_13-51-55_260595134347_rgbf000068-resize_3/000709_2014-06-08_13-51-55_260595134347_rgbf000068-resize_3-target.png,125,1.8030000000000002,6,2035,125,feet,jsons/VE125_randls_72_rotated.json,442330,613838,44,Man
33,110620,DepthScenes,duration_manipulation_targetAtFixation,jsons/VE125_randls_72_rotated.json,http://54.235.29.9/FacialAge/BNav_EC2/DepthDuration/v2_depth_duration_MTurk/v2_DepthDuration_HTML.html#109,109,1920,866,1920,1080,8-21-2022,7-0-36,34,depth_duration_stimuli/002057_2014-06-24_21-00-13_260595134347_rgbf000120-resize_1/002057_2014-06-24_21-00-13_260595134347_rgbf000120-resize_1-target.png,125,2.967,8,1698,126,feet,jsons/VE125_randls_72_rotated.json,442330,613838,44,Man
34,110620,DepthScenes,duration_manipulation_targetAtFixation,jsons/VE125_randls_72_rotated.json,http://54.235.29.9/FacialAge/BNav_EC2/DepthDuration/v2_depth_duration_MTurk/v2_DepthDuration_HTML.html#109,109,1920,866,1920,1080,8-21-2022,7-0-36,35,depth_duration_stimuli/002323_2014-06-28_20-01-54_260595134347_rgbf000051-resize_4/002323_2014-06-28_20-01-54_260595134347_rgbf000051-resize_4-target.png,125,3.7310000000000003,10,2834,124,feet,jsons/VE125_randls_72_rotated.json,442330,613838,44,Man
35,110620,DepthScenes,duration_manipulation_targetAtFixation,jsons/VE125_randls_72_rotated.json,http://54.235.29.9/FacialAge/BNav_EC2/DepthDuration/v2_depth_duration_MTurk/v2_DepthDuration_HTML.html#109,109,1920,866,1920,1080,8-21-2022,7-0-36,36,depth_duration_stimuli/000917_2014-06-09_22-45-29_260595134347_rgbf000149-resize_3/000917_2014-06-09_22-45-29_260595134347_rgbf000149-resize_3-target.png,125,4.1865,12,2064,124,feet,jsons/VE125_randls_72_rotated.json,442330,613838,44,Man
36,110620,DepthScenes,duration_manipulation_targetAtFixation,jsons/VE125_randls_72_rotated.json,http://54.235.29.9/FacialAge/BNav_EC2/DepthDuration/v2_depth_duration_MTurk/v2_DepthDuration_HTML.html#109,109,1920,866,1920,1080,8-21-2022,7-0-36,37,depth_duration_stimuli/000549_2014-06-08_22-10-24_260595134347_rgbf000247-resize_3/000549_2014-06-08_22-10-24_260595134347_rgbf000247-resize_3-target.png,125,1.841,4,2662,122,feet,jsons/VE125_randls_72_rotated.json,442330,613838,44,Man
37,110620,DepthScenes,duration_manipulation_targetAtFixation,jsons/VE125_randls_72_rotated.json,http://54.235.29.9/FacialAge/BNav_EC2/DepthDuration/v2_depth_duration_MTurk/v2_DepthDuration_HTML.html#109,109,1920,866,1920,1080,8-21-2022,7-0-36,38,depth_duration_stimuli/001055_2014-06-08_18-45-35_260595134347_rgbf000111-resize_4/001055_2014-06-08_18-45-35_260595134347_rgbf000111-resize_4-target.png,125,2.4290000000000003,20,1780,124,feet,jsons/VE125_randls_72_rotated.json,442330,613838,44,Man
38,110620,DepthScenes,duration_manipulation_targetAtFixation,jsons/VE125_randls_72_rotated.json,http://54.235.29.9/FacialAge/BNav_EC2/DepthDuration/v2_depth_duration_MTurk/v2_DepthDuration_HTML.html#109,109,1920,866,1920,1080,8-21-2022,7-0-36,39,depth_duration_stimuli/002414_2014-06-28_20-24-58_260595134347_rgbf000067-resize_4/002414_2014-06-28_20-24-58_260595134347_rgbf000067-resize_4-target.png,125,4.363,15,1809,124,feet,jsons/VE125_randls_72_rotated.json,442330,613838,44,Man
39,110620,DepthScenes,duration_manipulation_targetAtFixation,jsons/VE125_randls_72_rotated.json,http://54.235.29.9/FacialAge/BNav_EC2/DepthDuration/v2_depth_duration_MTurk/v2_DepthDuration_HTML.html#109,109,1920,866,1920,1080,8-21-2022,7-0-36,40,depth_duration_stimuli/000773_2014-06-08_22-24-54_260595134347_rgbf000093-resize_1/000773_2014-06-08_22-24-54_260595134347_rgbf000093-resize_1-target.png,125,4.973,12,2300,121,feet,jsons/VE125_randls_72_rotated.json,442330,613838,44,Man
40,110620,DepthScenes,duration_manipulation_targetAtFixation,jsons/VE125_randls_72_rotated.json,http://54.235.29.9/FacialAge/BNav_EC2/DepthDuration/v2_depth_duration_MTurk/v2_DepthDuration_HTML.html#109,109,1920,866,1920,1080,8-21-2022,7-0-36,41,depth_duration_stimuli/002875_2014-06-01_15-19-00_094959634447_rgbf000151-resize_1/002875_2014-06-01_15-19-00_094959634447_rgbf000151-resize_1-target.png,125,1.9675,6,2815,127,feet,jsons/VE125_randls_72_rotated.json,442330,613838,44,Man
41,110620,DepthScenes,duration_manipulation_targetAtFixation,jsons/VE125_randls_72_rotated.json,http://54.235.29.9/FacialAge/BNav_EC2/DepthDuration/v2_depth_duration_MTurk/v2_DepthDuration_HTML.html#109,109,1920,866,1920,1080,8-21-2022,7-0-36,42,depth_duration_stimuli/001011_2014-06-08_23-18-54_260595134347_rgbf000044-resize_4/001011_2014-06-08_23-18-54_260595134347_rgbf000044-resize_4-target.png,125,2.4730000000000003,8,1642,125,feet,jsons/VE125_randls_72_rotated.json,442330,613838,44,Man
42,110620,DepthScenes,duration_manipulation_targetAtFixation,jsons/VE125_randls_72_rotated.json,http://54.235.29.9/FacialAge/BNav_EC2/DepthDuration/v2_depth_duration_MTurk/v2_DepthDuration_HTML.html#109,109,1920,866,1920,1080,8-21-2022,7-0-36,43,depth_duration_stimuli/001571_2014-06-20_17-21-32_260595134347_rgbf000089-resize_1/001571_2014-06-20_17-21-32_260595134347_rgbf000089-resize_1-target.png,125,1.86,4,1626,121,feet,jsons/VE125_randls_72_rotated.json,442330,613838,44,Man
43,110620,DepthScenes,duration_manipulation_targetAtFixation,jsons/VE125_randls_72_rotated.json,http://54.235.29.9/FacialAge/BNav_EC2/DepthDuration/v2_depth_duration_MTurk/v2_DepthDuration_HTML.html#109,109,1920,866,1920,1080,8-21-2022,7-0-36,44,depth_duration_stimuli/002272_2014-06-28_18-53-56_260595134347_rgbf000067-resize_2/002272_2014-06-28_18-53-56_260595134347_rgbf000067-resize_2-target.png,125,1.138,4,1760,121,feet,jsons/VE125_randls_72_rotated.json,442330,613838,44,Man
44,110620,DepthScenes,duration_manipulation_targetAtFixation,jsons/VE125_randls_72_rotated.json,http://54.235.29.9/FacialAge/BNav_EC2/DepthDuration/v2_depth_duration_MTurk/v2_DepthDuration_HTML.html#109,109,1920,866,1920,1080,8-21-2022,7-0-36,45,depth_duration_stimuli/000635_2014-06-08_16-38-42_260595134347_rgbf000106-resize_1/000635_2014-06-08_16-38-42_260595134347_rgbf000106-resize_1-target.png,125,2.074,8,1629,127,feet,jsons/VE125_randls_72_rotated.json,442330,613838,44,Man
45,110620,DepthScenes,duration_manipulation_targetAtFixation,jsons/VE125_randls_72_rotated.json,http://54.235.29.9/FacialAge/BNav_EC2/DepthDuration/v2_depth_duration_MTurk/v2_DepthDuration_HTML.html#109,109,1920,866,1920,1080,8-21-2022,7-0-36,46,depth_duration_stimuli/002279_2014-06-28_18-55-32_260595134347_rgbf000040-resize_5/002279_2014-06-28_18-55-32_260595134347_rgbf000040-resize_5-target.png,125,1.5043333333333,6,4460,121,feet,jsons/VE125_randls_72_rotated.json,442330,613838,44,Man
46,110620,DepthScenes,duration_manipulation_targetAtFixation,jsons/VE125_randls_72_rotated.json,http://54.235.29.9/FacialAge/BNav_EC2/DepthDuration/v2_depth_duration_MTurk/v2_DepthDuration_HTML.html#109,109,1920,866,1920,1080,8-21-2022,7-0-36,47,depth_duration_stimuli/002637_2014-06-24_14-51-13_094959634447_rgbf000066-resize_4/002637_2014-06-24_14-51-13_094959634447_rgbf000066-resize_4-target.png,125,1.9955,5,2063,124,feet,jsons/VE125_randls_72_rotated.json,442330,613838,44,Man
47,110620,DepthScenes,duration_manipulation_targetAtFixation,jsons/VE125_randls_72_rotated.json,http://54.235.29.9/FacialAge/BNav_EC2/DepthDuration/v2_depth_duration_MTurk/v2_DepthDuration_HTML.html#109,109,1920,866,1920,1080,8-21-2022,7-0-36,48,depth_duration_stimuli/003534_2014-05-22_15-06-10_094959634447_rgbf000102-resize_4/003534_2014-05-22_15-06-10_094959634447_rgbf000102-resize_4-target.png,125,1.426,4,1689,130,feet,jsons/VE125_randls_72_rotated.json,442330,613838,44,Man
48,110620,DepthScenes,duration_manipulation_targetAtFixation,jsons/VE125_randls_72_rotated.json,http://54.235.29.9/FacialAge/BNav_EC2/DepthDuration/v2_depth_duration_MTurk/v2_DepthDuration_HTML.html#109,109,1920,866,1920,1080,8-21-2022,7-0-36,49,depth_duration_stimuli/001170_2014-06-17_15-43-44_260595134347_rgbf000096-resize_6/001170_2014-06-17_15-43-44_260595134347_rgbf000096-resize-original.jpg,125,1.1909999999999998,0,1658,124,feet,jsons/VE125_randls_72_rotated.json,442330,613838,44,Man
49,110620,DepthScenes,duration_manipulation_targetAtFixation,jsons/VE125_randls_72_rotated.json,http://54.235.29.9/FacialAge/BNav_EC2/DepthDuration/v2_depth_duration_MTurk/v2_DepthDuration_HTML.html#109,109,1920,866,1920,1080,8-21-2022,7-0-36,50,depth_duration_stimuli/003495_2014-05-21_16-01-51_094959634447_rgbf000100-resize_3/003495_2014-05-21_16-01-51_094959634447_rgbf000100-resize_3-target.png,125,1.6255,3,1779,128,feet,jsons/VE125_randls_72_rotated.json,442330,613838,44,Man
50,110620,DepthScenes,duration_manipulation_targetAtFixation,jsons/VE125_randls_72_rotated.json,http://54.235.29.9/FacialAge/BNav_EC2/DepthDuration/v2_depth_duration_MTurk/v2_DepthDuration_HTML.html#109,109,1920,866,1920,1080,8-21-2022,7-0-36,51,depth_duration_stimuli/001244_2014-06-17_16-47-45_260595134347_rgbf000030-resize_4/001244_2014-06-17_16-47-45_260595134347_rgbf000030-resize_4-target.png,125,2.0425,8,1685,123,feet,jsons/VE125_randls_72_rotated.json,442330,613838,44,Man
51,110620,DepthScenes,duration_manipulation_targetAtFixation,jsons/VE125_randls_72_rotated.json,http://54.235.29.9/FacialAge/BNav_EC2/DepthDuration/v2_depth_duration_MTurk/v2_DepthDuration_HTML.html#109,109,1920,866,1920,1080,8-21-2022,7-0-36,52,depth_duration_stimuli/002805_2014-06-22_19-54-03_094959634447_rgbf000079-resize_1/002805_2014-06-22_19-54-03_094959634447_rgbf000079-resize_1-target.png,125,3.1439999999999997,12,2274,127,feet,jsons/VE125_randls_72_rotated.json,442330,613838,44,Man
52,110620,DepthScenes,duration_manipulation_targetAtFixation,jsons/VE125_randls_72_rotated.json,http://54.235.29.9/FacialAge/BNav_EC2/DepthDuration/v2_depth_duration_MTurk/v2_DepthDuration_HTML.html#109,109,1920,866,1920,1080,8-21-2022,7-0-36,53,depth_duration_stimuli/000906_2014-06-08_13-35-43_260595134347_rgbf000155-resize_1/000906_2014-06-08_13-35-43_260595134347_rgbf000155-resize_1-target.png,125,2.8489999999999998,15,4119,125,feet,jsons/VE125_randls_72_rotated.json,442330,613838,44,Man
53,110620,DepthScenes,duration_manipulation_targetAtFixation,jsons/VE125_randls_72_rotated.json,http://54.235.29.9/FacialAge/BNav_EC2/DepthDuration/v2_depth_duration_MTurk/v2_DepthDuration_HTML.html#109,109,1920,866,1920,1080,8-21-2022,7-0-36,54,depth_duration_stimuli/003338_2014-05-20_11-01-23_094959634447_rgbf000051-resize_6/003338_2014-05-20_11-01-23_094959634447_rgbf000051-resize_6-target.png,125,1.693,4,1854,130,feet,jsons/VE125_randls_72_rotated.json,442330,613838,44,Man
54,110620,DepthScenes,duration_manipulation_targetAtFixation,jsons/VE125_randls_72_rotated.json,http://54.235.29.9/FacialAge/BNav_EC2/DepthDuration/v2_depth_duration_MTurk/v2_DepthDuration_HTML.html#109,109,1920,866,1920,1080,8-21-2022,7-0-36,55,depth_duration_stimuli/002509_2014-06-24_13-19-22_094959634447_rgbf000077-resize_0/002509_2014-06-24_13-19-22_094959634447_rgbf000077-resize_0-target.png,125,1.3065,6,1896,122,feet,jsons/VE125_randls_72_rotated.json,442330,613838,44,Man
55,110620,DepthScenes,duration_manipulation_targetAtFixation,jsons/VE125_randls_72_rotated.json,http://54.235.29.9/FacialAge/BNav_EC2/DepthDuration/v2_depth_duration_MTurk/v2_DepthDuration_HTML.html#109,109,1920,866,1920,1080,8-21-2022,7-0-36,56,depth_duration_stimuli/001094_2014-06-15_17-36-00_260595134347_rgbf000205-resize_0/001094_2014-06-15_17-36-00_260595134347_rgbf000205-resize_0-target.png,125,4.2175,8,1760,121,feet,jsons/VE125_randls_72_rotated.json,442330,613838,44,Man
56,110620,DepthScenes,duration_manipulation_targetAtFixation,jsons/VE125_randls_72_rotated.json,http://54.235.29.9/FacialAge/BNav_EC2/DepthDuration/v2_depth_duration_MTurk/v2_DepthDuration_HTML.html#109,109,1920,866,1920,1080,8-21-2022,7-0-36,57,depth_duration_stimuli/000692_2014-06-08_13-09-42_260595134347_rgbf000199-resize_2/000692_2014-06-08_13-09-42_260595134347_rgbf000199-resize_2-target.png,125,3.661,10,1898,125,feet,jsons/VE125_randls_72_rotated.json,442330,613838,44,Man
57,110620,DepthScenes,duration_manipulation_targetAtFixation,jsons/VE125_randls_72_rotated.json,http://54.235.29.9/FacialAge/BNav_EC2/DepthDuration/v2_depth_duration_MTurk/v2_DepthDuration_HTML.html#109,109,1920,866,1920,1080,8-21-2022,7-0-36,58,depth_duration_stimuli/000749_2014-06-08_21-55-06_260595134347_rgbf000070-resize_2/000749_2014-06-08_21-55-06_260595134347_rgbf000070-resize_2-target.png,125,2.331,6,3609,124,feet,jsons/VE125_randls_72_rotated.json,442330,613838,44,Man
58,110620,DepthScenes,duration_manipulation_targetAtFixation,jsons/VE125_randls_72_rotated.json,http://54.235.29.9/FacialAge/BNav_EC2/DepthDuration/v2_depth_duration_MTurk/v2_DepthDuration_HTML.html#109,109,1920,866,1920,1080,8-21-2022,7-0-36,59,depth_duration_stimuli/002788_2014-06-22_19-36-03_094959634447_rgbf000088-resize_2/002788_2014-06-22_19-36-03_094959634447_rgbf000088-resize_2-target.png,125,1.6465,12,2154,126,feet,jsons/VE125_randls_72_rotated.json,442330,613838,44,Man
59,110620,DepthScenes,duration_manipulation_targetAtFixation,jsons/VE125_randls_72_rotated.json,http://54.235.29.9/FacialAge/BNav_EC2/DepthDuration/v2_depth_duration_MTurk/v2_DepthDuration_HTML.html#109,109,1920,866,1920,1080,8-21-2022,7-0-36,60,depth_duration_stimuli/002103_2014-06-25_20-00-40_260595134347_rgbf000049-resize_0/002103_2014-06-25_20-00-40_260595134347_rgbf000049-resize_0-target.png,125,4.105,8,2556,124,feet,jsons/VE125_randls_72_rotated.json,442330,613838,44,Man
60,110620,DepthScenes,duration_manipulation_targetAtFixation,jsons/VE125_randls_72_rotated.json,http://54.235.29.9/FacialAge/BNav_EC2/DepthDuration/v2_depth_duration_MTurk/v2_DepthDuration_HTML.html#109,109,1920,866,1920,1080,8-21-2022,7-0-36,61,depth_duration_stimuli/002039_2014-06-24_20-22-38_260595134347_rgbf000084-resize_1/002039_2014-06-24_20-22-38_260595134347_rgbf000084-resize_1-target.png,125,4.408,12,2213,124,feet,jsons/VE125_randls_72_rotated.json,442330,613838,44,Man
61,110620,DepthScenes,duration_manipulation_targetAtFixation,jsons/VE125_randls_72_rotated.json,http://54.235.29.9/FacialAge/BNav_EC2/DepthDuration/v2_depth_duration_MTurk/v2_DepthDuration_HTML.html#109,109,1920,866,1920,1080,8-21-2022,7-0-36,62,depth_duration_stimuli/000780_2014-06-08_22-28-29_260595134347_rgbf000126-resize_1/000780_2014-06-08_22-28-29_260595134347_rgbf000126-resize_1-target.png,125,3.3825,12,4761,124,feet,jsons/VE125_randls_72_rotated.json,442330,613838,44,Man
62,110620,DepthScenes,duration_manipulation_targetAtFixation,jsons/VE125_randls_72_rotated.json,http://54.235.29.9/FacialAge/BNav_EC2/DepthDuration/v2_depth_duration_MTurk/v2_DepthDuration_HTML.html#109,109,1920,866,1920,1080,8-21-2022,7-0-36,63,depth_duration_stimuli/002445_2014-06-28_20-32-16_260595134347_rgbf000029-resize_4/002445_2014-06-28_20-32-16_260595134347_rgbf000029-resize_4-target.png,125,2.5315,6,2482,122,feet,jsons/VE125_randls_72_rotated.json,442330,613838,44,Man
63,110620,DepthScenes,duration_manipulation_targetAtFixation,jsons/VE125_randls_72_rotated.json,http://54.235.29.9/FacialAge/BNav_EC2/DepthDuration/v2_depth_duration_MTurk/v2_DepthDuration_HTML.html#109,109,1920,866,1920,1080,8-21-2022,7-0-36,64,depth_duration_stimuli/003228_2014-05-14_13-42-35_094959634447_rgbf000101-resize_1/003228_2014-05-14_13-42-35_094959634447_rgbf000101-resize_1-target.png,125,1.9680000000000002,0,1567,125,feet,jsons/VE125_randls_72_rotated.json,442330,613838,44,Man
64,110620,DepthScenes,duration_manipulation_targetAtFixation,jsons/VE125_randls_72_rotated.json,http://54.235.29.9/FacialAge/BNav_EC2/DepthDuration/v2_depth_duration_MTurk/v2_DepthDuration_HTML.html#109,109,1920,866,1920,1080,8-21-2022,7-0-36,65,depth_duration_stimuli/002600_2014-06-24_14-27-04_094959634447_rgbf000074-resize_2/002600_2014-06-24_14-27-04_094959634447_rgbf000074-resize_2-target.png,125,2.7575,6,1673,125,feet,jsons/VE125_randls_72_rotated.json,442330,613838,44,Man
65,110620,DepthScenes,duration_manipulation_targetAtFixation,jsons/VE125_randls_72_rotated.json,http://54.235.29.9/FacialAge/BNav_EC2/DepthDuration/v2_depth_duration_MTurk/v2_DepthDuration_HTML.html#109,109,1920,866,1920,1080,8-21-2022,7-0-36,66,depth_duration_stimuli/001540_2014-06-20_17-01-05_260595134347_rgbf000086-resize_2/001540_2014-06-20_17-01-05_260595134347_rgbf000086-resize-original.jpg,125,1.459,0,1551,122,feet,jsons/VE125_randls_72_rotated.json,442330,613838,44,Man
66,110620,DepthScenes,duration_manipulation_targetAtFixation,jsons/VE125_randls_72_rotated.json,http://54.235.29.9/FacialAge/BNav_EC2/DepthDuration/v2_depth_duration_MTurk/v2_DepthDuration_HTML.html#109,109,1920,866,1920,1080,8-21-2022,7-0-36,67,depth_duration_stimuli/003048_2014-06-15_13-49-43_094959634447_rgbf000150-resize_1/003048_2014-06-15_13-49-43_094959634447_rgbf000150-resize_1-target.png,125,4.0035,8,1670,121,feet,jsons/VE125_randls_72_rotated.json,442330,613838,44,Man
67,110620,DepthScenes,duration_manipulation_targetAtFixation,jsons/VE125_randls_72_rotated.json,http://54.235.29.9/FacialAge/BNav_EC2/DepthDuration/v2_depth_duration_MTurk/v2_DepthDuration_HTML.html#109,109,1920,866,1920,1080,8-21-2022,7-0-36,68,depth_duration_stimuli/002043_2014-06-24_20-29-38_260595134347_rgbf000039-resize_4/002043_2014-06-24_20-29-38_260595134347_rgbf000039-resize_4-target.png,125,2.8435,6,1838,124,feet,jsons/VE125_randls_72_rotated.json,442330,613838,44,Man
68,110620,DepthScenes,duration_manipulation_targetAtFixation,jsons/VE125_randls_72_rotated.json,http://54.235.29.9/FacialAge/BNav_EC2/DepthDuration/v2_depth_duration_MTurk/v2_DepthDuration_HTML.html#109,109,1920,866,1920,1080,8-21-2022,7-0-36,69,depth_duration_stimuli/000137_2014-05-20_17-04-49_260595134347_rgbf000120-resize_1/000137_2014-05-20_17-04-49_260595134347_rgbf000120-resize_1-target.png,125,3.786,8,1579,120,feet,jsons/VE125_randls_72_rotated.json,442330,613838,44,Man
69,110620,DepthScenes,duration_manipulation_targetAtFixation,jsons/VE125_randls_72_rotated.json,http://54.235.29.9/FacialAge/BNav_EC2/DepthDuration/v2_depth_duration_MTurk/v2_DepthDuration_HTML.html#109,109,1920,866,1920,1080,8-21-2022,7-0-36,70,depth_duration_stimuli/000736_2014-06-08_18-24-15_260595134347_rgbf000206-resize_3/000736_2014-06-08_18-24-15_260595134347_rgbf000206-resize_3-target.png,125,3.515,0,2171,127,feet,jsons/VE125_randls_72_rotated.json,442330,613838,44,Man
70,110620,DepthScenes,duration_manipulation_targetAtFixation,jsons/VE125_randls_72_rotated.json,http://54.235.29.9/FacialAge/BNav_EC2/DepthDuration/v2_depth_duration_MTurk/v2_DepthDuration_HTML.html#109,109,1920,866,1920,1080,8-21-2022,7-0-36,71,depth_duration_stimuli/003423_2014-05-21_10-23-26_094959634447_rgbf002665-resize_2/003423_2014-05-21_10-23-26_094959634447_rgbf002665-resize_2-target.png,125,3.2575,12,2528,124,feet,jsons/VE125_randls_72_rotated.json,442330,613838,44,Man
71,110620,DepthScenes,duration_manipulation_targetAtFixation,jsons/VE125_randls_72_rotated.json,http://54.235.29.9/FacialAge/BNav_EC2/DepthDuration/v2_depth_duration_MTurk/v2_DepthDuration_HTML.html#109,109,1920,866,1920,1080,8-21-2022,7-0-36,72,depth_duration_stimuli/002905_2014-06-03_18-04-43_094959634447_rgbf000151-resize_2/002905_2014-06-03_18-04-43_094959634447_rgbf000151-resize_2-target.png,125,2.0295,8,1523,124,feet,jsons/VE125_randls_72_rotated.json,442330,613838,44,Man
72,110620,DepthScenes,duration_manipulation_targetAtFixation,jsons/VE125_randls_72_rotated.json,http://54.235.29.9/FacialAge/BNav_EC2/DepthDuration/v2_depth_duration_MTurk/v2_DepthDuration_HTML.html#109,109,1920,866,1920,1080,8-21-2022,7-0-36,73,depth_duration_stimuli/002660_2014-06-13_15-44-18_094959634447_rgbf001878-resize_2/002660_2014-06-13_15-44-18_094959634447_rgbf001878-resize_2-target.png,125,3.576,10,1555,124,feet,jsons/VE125_randls_72_rotated.json,442330,613838,44,Man
73,110620,DepthScenes,duration_manipulation_targetAtFixation,jsons/VE125_randls_72_rotated.json,http://54.235.29.9/FacialAge/BNav_EC2/DepthDuration/v2_depth_duration_MTurk/v2_DepthDuration_HTML.html#109,109,1920,866,1920,1080,8-21-2022,7-0-36,74,depth_duration_stimuli/002153_2014-06-25_21-27-18_260595134347_rgbf000038-resize_5/002153_2014-06-25_21-27-18_260595134347_rgbf000038-resize_5-target.png,125,2.505,6,1569,128,feet,jsons/VE125_randls_72_rotated.json,442330,613838,44,Man
74,110620,DepthScenes,duration_manipulation_targetAtFixation,jsons/VE125_randls_72_rotated.json,http://54.235.29.9/FacialAge/BNav_EC2/DepthDuration/v2_depth_duration_MTurk/v2_DepthDuration_HTML.html#109,109,1920,866,1920,1080,8-21-2022,7-0-36,75,depth_duration_stimuli/000556_2014-06-09_22-42-56_260595134347_rgbf000214-resize_1/000556_2014-06-09_22-42-56_260595134347_rgbf000214-resize_1-target.png,125,4.8415,12,1750,125,feet,jsons/VE125_randls_72_rotated.json,442330,613838,44,Man
75,110620,DepthScenes,duration_manipulation_targetAtFixation,jsons/VE125_randls_72_rotated.json,http://54.235.29.9/FacialAge/BNav_EC2/DepthDuration/v2_depth_duration_MTurk/v2_DepthDuration_HTML.html#109,109,1920,866,1920,1080,8-21-2022,7-0-36,76,depth_duration_stimuli/001158_2014-06-17_15-32-16_260595134347_rgbf000138-resize_2/001158_2014-06-17_15-32-16_260595134347_rgbf000138-resize_2-target.png,125,4.5315,14,3039,126,feet,jsons/VE125_randls_72_rotated.json,442330,613838,44,Man
76,110620,DepthScenes,duration_manipulation_targetAtFixation,jsons/VE125_randls_72_rotated.json,http://54.235.29.9/FacialAge/BNav_EC2/DepthDuration/v2_depth_duration_MTurk/v2_DepthDuration_HTML.html#109,109,1920,866,1920,1080,8-21-2022,7-0-36,77,depth_duration_stimuli/003079_2014-06-15_15-18-20_094959634447_rgbf000152-resize_8/003079_2014-06-15_15-18-20_094959634447_rgbf000152-resize_8-target.png,125,2.8775,10,2348,123,feet,jsons/VE125_randls_72_rotated.json,442330,613838,44,Man
77,110620,DepthScenes,duration_manipulation_targetAtFixation,jsons/VE125_randls_72_rotated.json,http://54.235.29.9/FacialAge/BNav_EC2/DepthDuration/v2_depth_duration_MTurk/v2_DepthDuration_HTML.html#109,109,1920,866,1920,1080,8-21-2022,7-0-36,78,depth_duration_stimuli/000506_2014-06-08_23-21-00_260595134347_rgbf000070-resize_7/000506_2014-06-08_23-21-00_260595134347_rgbf000070-resize_7-target.png,125,4.0585,12,2603,125,feet,jsons/VE125_randls_72_rotated.json,442330,613838,44,Man
78,110620,DepthScenes,duration_manipulation_targetAtFixation,jsons/VE125_randls_72_rotated.json,http://54.235.29.9/FacialAge/BNav_EC2/DepthDuration/v2_depth_duration_MTurk/v2_DepthDuration_HTML.html#109,109,1920,866,1920,1080,8-21-2022,7-0-36,79,depth_duration_stimuli/000943_2014-06-09_19-31-07_260595134347_rgbf000128-resize_1/000943_2014-06-09_19-31-07_260595134347_rgbf000128-resize_1-target.png,125,1.9765,6,1645,125,feet,jsons/VE125_randls_72_rotated.json,442330,613838,44,Man
79,110620,DepthScenes,duration_manipulation_targetAtFixation,jsons/VE125_randls_72_rotated.json,http://54.235.29.9/FacialAge/BNav_EC2/DepthDuration/v2_depth_duration_MTurk/v2_DepthDuration_HTML.html#109,109,1920,866,1920,1080,8-21-2022,7-0-36,80,depth_duration_stimuli/003070_2014-06-15_14-58-27_094959634447_rgbf000150-resize_3/003070_2014-06-15_14-58-27_094959634447_rgbf000150-resize_3-target.png,125,2.9415,10,2751,123,feet,jsons/VE125_randls_72_rotated.json,442330,613838,44,Man
80,110620,DepthScenes,duration_manipulation_targetAtFixation,jsons/VE125_randls_72_rotated.json,http://54.235.29.9/FacialAge/BNav_EC2/DepthDuration/v2_depth_duration_MTurk/v2_DepthDuration_HTML.html#109,109,1920,866,1920,1080,8-21-2022,7-0-36,81,depth_duration_stimuli/000677_2014-06-08_23-10-32_260595134347_rgbf000158-resize_6/000677_2014-06-08_23-10-32_260595134347_rgbf000158-resize_6-target.png,125,3.556,8,5050,124,feet,jsons/VE125_randls_72_rotated.json,442330,613838,44,Man
81,110620,DepthScenes,duration_manipulation_targetAtFixation,jsons/VE125_randls_72_rotated.json,http://54.235.29.9/FacialAge/BNav_EC2/DepthDuration/v2_depth_duration_MTurk/v2_DepthDuration_HTML.html#109,109,1920,866,1920,1080,8-21-2022,7-0-36,82,depth_duration_stimuli/001029_2014-06-08_13-17-57_260595134347_rgbf000065-resize_1/001029_2014-06-08_13-17-57_260595134347_rgbf000065-resize_1-target.png,125,3.0835,8,1897,122,feet,jsons/VE125_randls_72_rotated.json,442330,613838,44,Man
82,110620,DepthScenes,duration_manipulation_targetAtFixation,jsons/VE125_randls_72_rotated.json,http://54.235.29.9/FacialAge/BNav_EC2/DepthDuration/v2_depth_duration_MTurk/v2_DepthDuration_HTML.html#109,109,1920,866,1920,1080,8-21-2022,7-0-36,83,depth_duration_stimuli/000103_2014-05-14_22-01-17_260595134347_rgbf000152-resize_5/000103_2014-05-14_22-01-17_260595134347_rgbf000152-resize_5-target.png,125,1.993,12,1720,125,feet,jsons/VE125_randls_72_rotated.json,442330,613838,44,Man
83,110620,DepthScenes,duration_manipulation_targetAtFixation,jsons/VE125_randls_72_rotated.json,http://54.235.29.9/FacialAge/BNav_EC2/DepthDuration/v2_depth_duration_MTurk/v2_DepthDuration_HTML.html#109,109,1920,866,1920,1080,8-21-2022,7-0-36,84,depth_duration_stimuli/001555_2014-06-20_17-12-10_260595134347_rgbf000065-resize_4/001555_2014-06-20_17-12-10_260595134347_rgbf000065-resize_4-target.png,125,1.633,6,1643,123,feet,jsons/VE125_randls_72_rotated.json,442330,613838,44,Man
84,110620,DepthScenes,duration_manipulation_targetAtFixation,jsons/VE125_randls_72_rotated.json,http://54.235.29.9/FacialAge/BNav_EC2/DepthDuration/v2_depth_duration_MTurk/v2_DepthDuration_HTML.html#109,109,1920,866,1920,1080,8-21-2022,7-0-36,85,depth_duration_stimuli/001516_2014-06-20_16-25-09_260595134347_rgbf000076-resize_2/001516_2014-06-20_16-25-09_260595134347_rgbf000076-resize_2-target.png,125,1.7445,8,3743,123,feet,jsons/VE125_randls_72_rotated.json,442330,613838,44,Man
85,110620,DepthScenes,duration_manipulation_targetAtFixation,jsons/VE125_randls_72_rotated.json,http://54.235.29.9/FacialAge/BNav_EC2/DepthDuration/v2_depth_duration_MTurk/v2_DepthDuration_HTML.html#109,109,1920,866,1920,1080,8-21-2022,7-0-36,86,depth_duration_stimuli/002118_2014-06-25_20-32-08_260595134347_rgbf000078-resize_1/002118_2014-06-25_20-32-08_260595134347_rgbf000078-resize_1-target.png,125,2.6460000000000004,6,3475,128,feet,jsons/VE125_randls_72_rotated.json,442330,613838,44,Man
86,110620,DepthScenes,duration_manipulation_targetAtFixation,jsons/VE125_randls_72_rotated.json,http://54.235.29.9/FacialAge/BNav_EC2/DepthDuration/v2_depth_duration_MTurk/v2_DepthDuration_HTML.html#109,109,1920,866,1920,1080,8-21-2022,7-0-36,87,depth_duration_stimuli/002758_2014-06-22_19-11-20_094959634447_rgbf000128-resize_1/002758_2014-06-22_19-11-20_094959634447_rgbf000128-resize_1-target.png,125,2.555,6,3726,123,feet,jsons/VE125_randls_72_rotated.json,442330,613838,44,Man
87,110620,DepthScenes,duration_manipulation_targetAtFixation,jsons/VE125_randls_72_rotated.json,http://54.235.29.9/FacialAge/BNav_EC2/DepthDuration/v2_depth_duration_MTurk/v2_DepthDuration_HTML.html#109,109,1920,866,1920,1080,8-21-2022,7-0-36,88,depth_duration_stimuli/002630_2014-06-24_14-47-50_094959634447_rgbf000055-resize_1/002630_2014-06-24_14-47-50_094959634447_rgbf000055-resize_1-target.png,125,3.0095,12,2589,128,feet,jsons/VE125_randls_72_rotated.json,442330,613838,44,Man
88,110620,DepthScenes,duration_manipulation_targetAtFixation,jsons/VE125_randls_72_rotated.json,http://54.235.29.9/FacialAge/BNav_EC2/DepthDuration/v2_depth_duration_MTurk/v2_DepthDuration_HTML.html#109,109,1920,866,1920,1080,8-21-2022,7-0-36,89,depth_duration_stimuli/002425_2014-06-28_20-27-29_260595134347_rgbf000031-resize_8/002425_2014-06-28_20-27-29_260595134347_rgbf000031-resize_8-target.png,125,3.8960000000000004,10,1838,124,feet,jsons/VE125_randls_72_rotated.json,442330,613838,44,Man
89,110620,DepthScenes,duration_manipulation_targetAtFixation,jsons/VE125_randls_72_rotated.json,http://54.235.29.9/FacialAge/BNav_EC2/DepthDuration/v2_depth_duration_MTurk/v2_DepthDuration_HTML.html#109,109,1920,866,1920,1080,8-21-2022,7-0-36,90,depth_duration_stimuli/000642_2014-06-08_16-59-25_260595134347_rgbf000098-resize_2/000642_2014-06-08_16-59-25_260595134347_rgbf000098-resize_2-target.png,125,2.8815,8,1553,123,feet,jsons/VE125_randls_72_rotated.json,442330,613838,44,Man
90,110620,DepthScenes,duration_manipulation_targetAtFixation,jsons/VE125_randls_72_rotated.json,http://54.235.29.9/FacialAge/BNav_EC2/DepthDuration/v2_depth_duration_MTurk/v2_DepthDuration_HTML.html#109,109,1920,866,1920,1080,8-21-2022,7-0-36,91,depth_duration_stimuli/001828_2014-06-26_21-40-03_260595134347_rgbf000024-resize_0/001828_2014-06-26_21-40-03_260595134347_rgbf000024-resize_0-target.png,125,4.8260000000000005,10,2842,124,feet,jsons/VE125_randls_72_rotated.json,442330,613838,44,Man
91,110620,DepthScenes,duration_manipulation_targetAtFixation,jsons/VE125_randls_72_rotated.json,http://54.235.29.9/FacialAge/BNav_EC2/DepthDuration/v2_depth_duration_MTurk/v2_DepthDuration_HTML.html#109,109,1920,866,1920,1080,8-21-2022,7-0-36,92,depth_duration_stimuli/000009_2014-05-26_14-32-05_260595134347_rgbf000034-resize_3/000009_2014-05-26_14-32-05_260595134347_rgbf000034-resize_3-target.png,125,3.8715,12,1686,126,feet,jsons/VE125_randls_72_rotated.json,442330,613838,44,Man
92,110620,DepthScenes,duration_manipulation_targetAtFixation,jsons/VE125_randls_72_rotated.json,http://54.235.29.9/FacialAge/BNav_EC2/DepthDuration/v2_depth_duration_MTurk/v2_DepthDuration_HTML.html#109,109,1920,866,1920,1080,8-21-2022,7-0-36,93,depth_duration_stimuli/001032_2014-06-08_13-23-17_260595134347_rgbf000021-resize_3/001032_2014-06-08_13-23-17_260595134347_rgbf000021-resize_3-target.png,125,3.2725,8,4300,125,feet,jsons/VE125_randls_72_rotated.json,442330,613838,44,Man
93,110620,DepthScenes,duration_manipulation_targetAtFixation,jsons/VE125_randls_72_rotated.json,http://54.235.29.9/FacialAge/BNav_EC2/DepthDuration/v2_depth_duration_MTurk/v2_DepthDuration_HTML.html#109,109,1920,866,1920,1080,8-21-2022,7-0-36,94,depth_duration_stimuli/001059_2014-06-08_21-53-27_260595134347_rgbf000061-resize_4/001059_2014-06-08_21-53-27_260595134347_rgbf000061-resize_4-target.png,125,2.4185,10,2229,127,feet,jsons/VE125_randls_72_rotated.json,442330,613838,44,Man
94,110620,DepthScenes,duration_manipulation_targetAtFixation,jsons/VE125_randls_72_rotated.json,http://54.235.29.9/FacialAge/BNav_EC2/DepthDuration/v2_depth_duration_MTurk/v2_DepthDuration_HTML.html#109,109,1920,866,1920,1080,8-21-2022,7-0-36,95,depth_duration_stimuli/001584_2014-06-20_11-07-43_260595134347_rgbf000002-resize_1/001584_2014-06-20_11-07-43_260595134347_rgbf000002-resize_1-target.png,125,3.53,8,1687,123,feet,jsons/VE125_randls_72_rotated.json,442330,613838,44,Man
95,110620,DepthScenes,duration_manipulation_targetAtFixation,jsons/VE125_randls_72_rotated.json,http://54.235.29.9/FacialAge/BNav_EC2/DepthDuration/v2_depth_duration_MTurk/v2_DepthDuration_HTML.html#109,109,1920,866,1920,1080,8-21-2022,7-0-36,96,depth_duration_stimuli/003621_2014-05-23_18-06-08_094959634447_rgbf000101-resize_1/003621_2014-05-23_18-06-08_094959634447_rgbf000101-resize_1-target.png,125,3.9835,10,1733,124,feet,jsons/VE125_randls_72_rotated.json,442330,613838,44,Man
96,110620,DepthScenes,duration_manipulation_targetAtFixation,jsons/VE125_randls_72_rotated.json,http://54.235.29.9/FacialAge/BNav_EC2/DepthDuration/v2_depth_duration_MTurk/v2_DepthDuration_HTML.html#109,109,1920,866,1920,1080,8-21-2022,7-0-36,97,depth_duration_stimuli/002344_2014-06-28_20-06-29_260595134347_rgbf000030-resize_1/002344_2014-06-28_20-06-29_260595134347_rgbf000030-resize_1-target.png,125,1.5795,4,2720,122,feet,jsons/VE125_randls_72_rotated.json,442330,613838,44,Man
97,110620,DepthScenes,duration_manipulation_targetAtFixation,jsons/VE125_randls_72_rotated.json,http://54.235.29.9/FacialAge/BNav_EC2/DepthDuration/v2_depth_duration_MTurk/v2_DepthDuration_HTML.html#109,109,1920,866,1920,1080,8-21-2022,7-0-36,98,depth_duration_stimuli/002725_2014-06-22_11-47-51_094959634447_rgbf000070-resize_1/002725_2014-06-22_11-47-51_094959634447_rgbf000070-resize_1-target.png,125,2.195,8,6909,125,feet,jsons/VE125_randls_72_rotated.json,442330,613838,44,Man
98,110620,DepthScenes,duration_manipulation_targetAtFixation,jsons/VE125_randls_72_rotated.json,http://54.235.29.9/FacialAge/BNav_EC2/DepthDuration/v2_depth_duration_MTurk/v2_DepthDuration_HTML.html#109,109,1920,866,1920,1080,8-21-2022,7-0-36,99,depth_duration_stimuli/001222_2014-06-17_16-24-06_260595134347_rgbf000073-resize_0/001222_2014-06-17_16-24-06_260595134347_rgbf000073-resize-original.jpg,125,1.4385,0,1658,124,feet,jsons/VE125_randls_72_rotated.json,442330,613838,44,Man
99,110620,DepthScenes,duration_manipulation_targetAtFixation,jsons/VE125_randls_72_rotated.json,http://54.235.29.9/FacialAge/BNav_EC2/DepthDuration/v2_depth_duration_MTurk/v2_DepthDuration_HTML.html#109,109,1920,866,1920,1080,8-21-2022,7-0-36,100,depth_duration_stimuli/002995_2014-06-15_12-31-26_094959634447_rgbf000150-resize_1/002995_2014-06-15_12-31-26_094959634447_rgbf000150-resize_1-target.png,125,3.8360000000000003,10,3504,125,feet,jsons/VE125_randls_72_rotated.json,442330,613838,44,Man
100,110620,DepthScenes,duration_manipulation_targetAtFixation,jsons/VE125_randls_72_rotated.json,http://54.235.29.9/FacialAge/BNav_EC2/DepthDuration/v2_depth_duration_MTurk/v2_DepthDuration_HTML.html#109,109,1920,866,1920,1080,8-21-2022,7-0-36,101,depth_duration_stimuli/002748_2014-06-22_19-07-22_094959634447_rgbf000078-resize_1/002748_2014-06-22_19-07-22_094959634447_rgbf000078-resize_1-target.png,125,4.6705,12,2405,122,feet,jsons/VE125_randls_72_rotated.json,442330,613838,44,Man
101,110620,DepthScenes,duration_manipulation_targetAtFixation,jsons/VE125_randls_72_rotated.json,http://54.235.29.9/FacialAge/BNav_EC2/DepthDuration/v2_depth_duration_MTurk/v2_DepthDuration_HTML.html#109,109,1920,866,1920,1080,8-21-2022,7-0-36,102,depth_duration_stimuli/001052_2014-06-08_18-24-54_260595134347_rgbf000130-resize_1/001052_2014-06-08_18-24-54_260595134347_rgbf000130-resize_1-target.png,125,4.1045,10,3199,123,feet,jsons/VE125_randls_72_rotated.json,442330,613838,44,Man
102,110620,DepthScenes,duration_manipulation_targetAtFixation,jsons/VE125_randls_72_rotated.json,http://54.235.29.9/FacialAge/BNav_EC2/DepthDuration/v2_depth_duration_MTurk/v2_DepthDuration_HTML.html#109,109,1920,866,1920,1080,8-21-2022,7-0-36,103,depth_duration_stimuli/002988_2014-06-15_12-24-20_094959634447_rgbf000150-resize_1/002988_2014-06-15_12-24-20_094959634447_rgbf000150-resize_1-target.png,125,4.7669999999999995,12,1599,125,feet,jsons/VE125_randls_72_rotated.json,442330,613838,44,Man
103,110620,DepthScenes,duration_manipulation_targetAtFixation,jsons/VE125_randls_72_rotated.json,http://54.235.29.9/FacialAge/BNav_EC2/DepthDuration/v2_depth_duration_MTurk/v2_DepthDuration_HTML.html#109,109,1920,866,1920,1080,8-21-2022,7-0-36,104,depth_duration_stimuli/001392_2014-06-19_16-07-59_260595134347_rgbf000046-resize_1/001392_2014-06-19_16-07-59_260595134347_rgbf000046-resize_1-target.png,125,4.135,12,3787,122,feet,jsons/VE125_randls_72_rotated.json,442330,613838,44,Man
104,110620,DepthScenes,duration_manipulation_targetAtFixation,jsons/VE125_randls_72_rotated.json,http://54.235.29.9/FacialAge/BNav_EC2/DepthDuration/v2_depth_duration_MTurk/v2_DepthDuration_HTML.html#109,109,1920,866,1920,1080,8-21-2022,7-0-36,105,depth_duration_stimuli/001570_2014-06-20_17-21-09_260595134347_rgbf000135-resize_4/001570_2014-06-20_17-21-09_260595134347_rgbf000135-resize_4-target.png,125,4.467,14,5949,127,feet,jsons/VE125_randls_72_rotated.json,442330,613838,44,Man
105,110620,DepthScenes,duration_manipulation_targetAtFixation,jsons/VE125_randls_72_rotated.json,http://54.235.29.9/FacialAge/BNav_EC2/DepthDuration/v2_depth_duration_MTurk/v2_DepthDuration_HTML.html#109,109,1920,866,1920,1080,8-21-2022,7-0-36,106,depth_duration_stimuli/001650_2014-06-20_12-09-00_260595134347_rgbf000087-resize_3/001650_2014-06-20_12-09-00_260595134347_rgbf000087-resize_3-target.png,125,1.9505,3,1960,126,feet,jsons/VE125_randls_72_rotated.json,442330,613838,44,Man
106,110620,DepthScenes,duration_manipulation_targetAtFixation,jsons/VE125_randls_72_rotated.json,http://54.235.29.9/FacialAge/BNav_EC2/DepthDuration/v2_depth_duration_MTurk/v2_DepthDuration_HTML.html#109,109,1920,866,1920,1080,8-21-2022,7-0-36,107,depth_duration_stimuli/000682_2014-06-08_23-14-58_260595134347_rgbf000041-resize_5/000682_2014-06-08_23-14-58_260595134347_rgbf000041-resize_5-target.png,125,2.7239999999999998,6,1793,127,feet,jsons/VE125_randls_72_rotated.json,442330,613838,44,Man
107,110620,DepthScenes,duration_manipulation_targetAtFixation,jsons/VE125_randls_72_rotated.json,http://54.235.29.9/FacialAge/BNav_EC2/DepthDuration/v2_depth_duration_MTurk/v2_DepthDuration_HTML.html#109,109,1920,866,1920,1080,8-21-2022,7-0-36,108,depth_duration_stimuli/002136_2014-06-25_21-18-03_260595134347_rgbf000109-resize_3/002136_2014-06-25_21-18-03_260595134347_rgbf000109-resize_3-target.png,125,1.9569999999999999,6,1911,122,feet,jsons/VE125_randls_72_rotated.json,442330,613838,44,Man
108,110620,DepthScenes,duration_manipulation_targetAtFixation,jsons/VE125_randls_72_rotated.json,http://54.235.29.9/FacialAge/BNav_EC2/DepthDuration/v2_depth_duration_MTurk/v2_DepthDuration_HTML.html#109,109,1920,866,1920,1080,8-21-2022,7-0-36,109,depth_duration_stimuli/002964_2014-06-08_17-46-11_094959634447_rgbf000091-resize_4/002964_2014-06-08_17-46-11_094959634447_rgbf000091-resize_4-target.png,125,1.6909999999999998,5,1598,127,feet,jsons/VE125_randls_72_rotated.json,442330,613838,44,Man
109,110620,DepthScenes,duration_manipulation_targetAtFixation,jsons/VE125_randls_72_rotated.json,http://54.235.29.9/FacialAge/BNav_EC2/DepthDuration/v2_depth_duration_MTurk/v2_DepthDuration_HTML.html#109,109,1920,866,1920,1080,8-21-2022,7-0-36,110,depth_duration_stimuli/002750_2014-06-22_19-08-03_094959634447_rgbf000094-resize_4/002750_2014-06-22_19-08-03_094959634447_rgbf000094-resize_4-target.png,125,2.354,8,2019,126,feet,jsons/VE125_randls_72_rotated.json,442330,613838,44,Man
110,110620,DepthScenes,duration_manipulation_targetAtFixation,jsons/VE125_randls_72_rotated.json,http://54.235.29.9/FacialAge/BNav_EC2/DepthDuration/v2_depth_duration_MTurk/v2_DepthDuration_HTML.html#109,109,1920,866,1920,1080,8-21-2022,7-0-36,111,depth_duration_stimuli/002549_2014-06-24_13-41-39_094959634447_rgbf000022-resize_3/002549_2014-06-24_13-41-39_094959634447_rgbf000022-resize_3-target.png,125,1.476,4,2123,124,feet,jsons/VE125_randls_72_rotated.json,442330,613838,44,Man
111,110620,DepthScenes,duration_manipulation_targetAtFixation,jsons/VE125_randls_72_rotated.json,http://54.235.29.9/FacialAge/BNav_EC2/DepthDuration/v2_depth_duration_MTurk/v2_DepthDuration_HTML.html#109,109,1920,866,1920,1080,8-21-2022,7-0-36,112,depth_duration_stimuli/000191_2014-05-12_17-07-38_260595134347_rgbf000199-resize_0/000191_2014-05-12_17-07-38_260595134347_rgbf000199-resize_0-target.png,125,3.7995,10,1853,125,feet,jsons/VE125_randls_72_rotated.json,442330,613838,44,Man
112,110620,DepthScenes,duration_manipulation_targetAtFixation,jsons/VE125_randls_72_rotated.json,http://54.235.29.9/FacialAge/BNav_EC2/DepthDuration/v2_depth_duration_MTurk/v2_DepthDuration_HTML.html#109,109,1920,866,1920,1080,8-21-2022,7-0-36,113,depth_duration_stimuli/000493_2014-06-09_21-01-18_260595134347_rgbf000196-resize_3/000493_2014-06-09_21-01-18_260595134347_rgbf000196-resize_3-target.png,125,3.44,8,2047,125,feet,jsons/VE125_randls_72_rotated.json,442330,613838,44,Man
113,110620,DepthScenes,duration_manipulation_targetAtFixation,jsons/VE125_randls_72_rotated.json,http://54.235.29.9/FacialAge/BNav_EC2/DepthDuration/v2_depth_duration_MTurk/v2_DepthDuration_HTML.html#109,109,1920,866,1920,1080,8-21-2022,7-0-36,114,depth_duration_stimuli/002953_2014-06-08_17-32-18_094959634447_rgbf000059-resize_5/002953_2014-06-08_17-32-18_094959634447_rgbf000059-resize_5-target.png,125,1.551,4,3414,125,feet,jsons/VE125_randls_72_rotated.json,442330,613838,44,Man
114,110620,DepthScenes,duration_manipulation_targetAtFixation,jsons/VE125_randls_72_rotated.json,http://54.235.29.9/FacialAge/BNav_EC2/DepthDuration/v2_depth_duration_MTurk/v2_DepthDuration_HTML.html#109,109,1920,866,1920,1080,8-21-2022,7-0-36,115,depth_duration_stimuli/000878_2014-06-08_22-52-45_260595134347_rgbf000045-resize_2/000878_2014-06-08_22-52-45_260595134347_rgbf000045-resize_2-target.png,125,2.092,6,2032,124,feet,jsons/VE125_randls_72_rotated.json,442330,613838,44,Man
115,110620,DepthScenes,duration_manipulation_targetAtFixation,jsons/VE125_randls_72_rotated.json,http://54.235.29.9/FacialAge/BNav_EC2/DepthDuration/v2_depth_duration_MTurk/v2_DepthDuration_HTML.html#109,109,1920,866,1920,1080,8-21-2022,7-0-36,116,depth_duration_stimuli/002199_2014-06-28_18-33-56_260595134347_rgbf000074-resize_0/002199_2014-06-28_18-33-56_260595134347_rgbf000074-resize_0-target.png,125,1.996,3,1539,128,feet,jsons/VE125_randls_72_rotated.json,442330,613838,44,Man
116,110620,DepthScenes,duration_manipulation_targetAtFixation,jsons/VE125_randls_72_rotated.json,http://54.235.29.9/FacialAge/BNav_EC2/DepthDuration/v2_depth_duration_MTurk/v2_DepthDuration_HTML.html#109,109,1920,866,1920,1080,8-21-2022,7-0-36,117,depth_duration_stimuli/001056_2014-06-08_18-46-44_260595134347_rgbf000068-resize_0/001056_2014-06-08_18-46-44_260595134347_rgbf000068-resize_0-target.png,125,2.6625,6,4387,125,feet,jsons/VE125_randls_72_rotated.json,442330,613838,44,Man
117,110620,DepthScenes,duration_manipulation_targetAtFixation,jsons/VE125_randls_72_rotated.json,http://54.235.29.9/FacialAge/BNav_EC2/DepthDuration/v2_depth_duration_MTurk/v2_DepthDuration_HTML.html#109,109,1920,866,1920,1080,8-21-2022,7-0-36,118,depth_duration_stimuli/001235_2014-06-17_16-37-36_260595134347_rgbf000084-resize_4/001235_2014-06-17_16-37-36_260595134347_rgbf000084-resize_4-target.png,125,3.6605,10,2303,124,feet,jsons/VE125_randls_72_rotated.json,442330,613838,44,Man
118,110620,DepthScenes,duration_manipulation_targetAtFixation,jsons/VE125_randls_72_rotated.json,http://54.235.29.9/FacialAge/BNav_EC2/DepthDuration/v2_depth_duration_MTurk/v2_DepthDuration_HTML.html#109,109,1920,866,1920,1080,8-21-2022,7-0-36,119,depth_duration_stimuli/000788_2014-06-08_22-34-36_260595134347_rgbf000131-resize_1/000788_2014-06-08_22-34-36_260595134347_rgbf000131-resize_1-target.png,125,3.359,10,2931,126,feet,jsons/VE125_randls_72_rotated.json,442330,613838,44,Man
119,110620,DepthScenes,duration_manipulation_targetAtFixation,jsons/VE125_randls_72_rotated.json,http://54.235.29.9/FacialAge/BNav_EC2/DepthDuration/v2_depth_duration_MTurk/v2_DepthDuration_HTML.html#109,109,1920,866,1920,1080,8-21-2022,7-0-36,120,depth_duration_stimuli/000787_2014-06-08_22-33-53_260595134347_rgbf000175-resize_1/000787_2014-06-08_22-33-53_260595134347_rgbf000175-resize-original.jpg,125,4.784,0,1569,125,feet,jsons/VE125_randls_72_rotated.json,442330,613838,44,Man
120,110620,DepthScenes,duration_manipulation_targetAtFixation,jsons/VE125_randls_72_rotated.json,http://54.235.29.9/FacialAge/BNav_EC2/DepthDuration/v2_depth_duration_MTurk/v2_DepthDuration_HTML.html#109,109,1920,866,1920,1080,8-21-2022,7-0-36,121,depth_duration_stimuli/000691_2014-06-08_13-08-50_260595134347_rgbf000132-resize_3/000691_2014-06-08_13-08-50_260595134347_rgbf000132-resize_3-target.png,125,4.1530000000000005,12,2557,124,feet,jsons/VE125_randls_72_rotated.json,442330,613838,44,Man
121,110620,DepthScenes,duration_manipulation_targetAtFixation,jsons/VE125_randls_72_rotated.json,http://54.235.29.9/FacialAge/BNav_EC2/DepthDuration/v2_depth_duration_MTurk/v2_DepthDuration_HTML.html#109,109,1920,866,1920,1080,8-21-2022,7-0-36,122,depth_duration_stimuli/002213_2014-06-28_18-37-58_260595134347_rgbf000055-resize_1/002213_2014-06-28_18-37-58_260595134347_rgbf000055-resize_1-target.png,125,3.62,16,1778,126,feet,jsons/VE125_randls_72_rotated.json,442330,613838,44,Man
122,110620,DepthScenes,duration_manipulation_targetAtFixation,jsons/VE125_randls_72_rotated.json,http://54.235.29.9/FacialAge/BNav_EC2/DepthDuration/v2_depth_duration_MTurk/v2_DepthDuration_HTML.html#109,109,1920,866,1920,1080,8-21-2022,7-0-36,123,depth_duration_stimuli/003587_2014-05-23_16-48-02_094959634447_rgbf002384-resize_2/003587_2014-05-23_16-48-02_094959634447_rgbf002384-resize_2-target.png,125,1.357,3,1570,128,feet,jsons/VE125_randls_72_rotated.json,442330,613838,44,Man
123,110620,DepthScenes,duration_manipulation_targetAtFixation,jsons/VE125_randls_72_rotated.json,http://54.235.29.9/FacialAge/BNav_EC2/DepthDuration/v2_depth_duration_MTurk/v2_DepthDuration_HTML.html#109,109,1920,866,1920,1080,8-21-2022,7-0-36,124,depth_duration_stimuli/001167_2014-06-17_15-38-07_260595134347_rgbf000108-resize_0/001167_2014-06-17_15-38-07_260595134347_rgbf000108-resize_0-target.png,125,1.8505,4,1777,125,feet,jsons/VE125_randls_72_rotated.json,442330,613838,44,Man
124,110620,DepthScenes,duration_manipulation_targetAtFixation,jsons/VE125_randls_72_rotated.json,http://54.235.29.9/FacialAge/BNav_EC2/DepthDuration/v2_depth_duration_MTurk/v2_DepthDuration_HTML.html#109,109,1920,866,1920,1080,8-21-2022,7-0-36,125,depth_duration_stimuli/000734_2014-06-08_17-39-11_260595134347_rgbf000128-resize_2/000734_2014-06-08_17-39-11_260595134347_rgbf000128-resize_2-target.png,125,4.098,10,2964,124,feet,jsons/VE125_randls_72_rotated.json,442330,613838,44,Man
125,110620,DepthScenes,duration_manipulation_targetAtFixation,jsons/VE125_randls_72_rotated.json,http://54.235.29.9/FacialAge/BNav_EC2/DepthDuration/v2_depth_duration_MTurk/v2_DepthDuration_HTML.html#109,109,1920,866,1920,1080,8-21-2022,7-0-36,126,depth_duration_stimuli/000739_2014-06-08_18-45-58_260595134347_rgbf000068-resize_1/000739_2014-06-08_18-45-58_260595134347_rgbf000068-resize_1-target.png,125,3.534,12,1795,127,feet,jsons/VE125_randls_72_rotated.json,442330,613838,44,Man
126,110620,DepthScenes,duration_manipulation_targetAtFixation,jsons/VE125_randls_72_rotated.json,http://54.235.29.9/FacialAge/BNav_EC2/DepthDuration/v2_depth_duration_MTurk/v2_DepthDuration_HTML.html#109,109,1920,866,1920,1080,8-21-2022,7-0-36,127,depth_duration_stimuli/002545_2014-06-24_13-38-53_094959634447_rgbf000080-resize_4/002545_2014-06-24_13-38-53_094959634447_rgbf000080-resize_4-target.png,125,1.9205,0,1855,125,feet,jsons/VE125_randls_72_rotated.json,442330,613838,44,Man
127,110620,DepthScenes,duration_manipulation_targetAtFixation,jsons/VE125_randls_72_rotated.json,http://54.235.29.9/FacialAge/BNav_EC2/DepthDuration/v2_depth_duration_MTurk/v2_DepthDuration_HTML.html#109,109,1920,866,1920,1080,8-21-2022,7-0-36,128,depth_duration_stimuli/001092_2014-06-15_17-34-58_260595134347_rgbf000171-resize_3/001092_2014-06-15_17-34-58_260595134347_rgbf000171-resize_3-target.png,125,2.6935,6,1690,128,feet,jsons/VE125_randls_72_rotated.json,442330,613838,44,Man
128,110620,DepthScenes,duration_manipulation_targetAtFixation,jsons/VE125_randls_72_rotated.json,http://54.235.29.9/FacialAge/BNav_EC2/DepthDuration/v2_depth_duration_MTurk/v2_DepthDuration_HTML.html#109,109,1920,866,1920,1080,8-21-2022,7-0-36,129,depth_duration_stimuli/003083_2014-06-15_15-21-03_094959634447_rgbf000063-resize_1/003083_2014-06-15_15-21-03_094959634447_rgbf000063-resize_1-target.png,125,4.1405,10,1702,124,feet,jsons/VE125_randls_72_rotated.json,442330,613838,44,Man
129,110620,DepthScenes,duration_manipulation_targetAtFixation,jsons/VE125_randls_72_rotated.json,http://54.235.29.9/FacialAge/BNav_EC2/DepthDuration/v2_depth_duration_MTurk/v2_DepthDuration_HTML.html#109,109,1920,866,1920,1080,8-21-2022,7-0-36,130,depth_duration_stimuli/000486_2014-06-09_20-47-20_260595134347_rgbf000143-resize_2/000486_2014-06-09_20-47-20_260595134347_rgbf000143-resize_2-target.png,125,4.8325,8,1898,127,feet,jsons/VE125_randls_72_rotated.json,442330,613838,44,Man
130,110620,DepthScenes,duration_manipulation_targetAtFixation,jsons/VE125_randls_72_rotated.json,http://54.235.29.9/FacialAge/BNav_EC2/DepthDuration/v2_depth_duration_MTurk/v2_DepthDuration_HTML.html#109,109,1920,866,1920,1080,8-21-2022,7-0-36,131,depth_duration_stimuli/001815_2014-06-26_20-52-55_260595134347_rgbf000020-resize_0/001815_2014-06-26_20-52-55_260595134347_rgbf000020-resize_0-target.png,125,3.3865,10,1571,124,feet,jsons/VE125_randls_72_rotated.json,442330,613838,44,Man
131,110620,DepthScenes,duration_manipulation_targetAtFixation,jsons/VE125_randls_72_rotated.json,http://54.235.29.9/FacialAge/BNav_EC2/DepthDuration/v2_depth_duration_MTurk/v2_DepthDuration_HTML.html#109,109,1920,866,1920,1080,8-21-2022,7-0-36,132,depth_duration_stimuli/001808_2014-06-26_20-50-58_260595134347_rgbf000029-resize_1/001808_2014-06-26_20-50-58_260595134347_rgbf000029-resize_1-target.png,125,4.249,12,1760,128,feet,jsons/VE125_randls_72_rotated.json,442330,613838,44,Man
132,110620,DepthScenes,duration_manipulation_targetAtFixation,jsons/VE125_randls_72_rotated.json,http://54.235.29.9/FacialAge/BNav_EC2/DepthDuration/v2_depth_duration_MTurk/v2_DepthDuration_HTML.html#109,109,1920,866,1920,1080,8-21-2022,7-0-36,133,depth_duration_stimuli/001136_2014-06-17_15-19-41_260595134347_rgbf000076-resize_3/001136_2014-06-17_15-19-41_260595134347_rgbf000076-resize_3-target.png,125,1.8655,8,1433,125,feet,jsons/VE125_randls_72_rotated.json,442330,613838,44,Man
133,110620,DepthScenes,duration_manipulation_targetAtFixation,jsons/VE125_randls_72_rotated.json,http://54.235.29.9/FacialAge/BNav_EC2/DepthDuration/v2_depth_duration_MTurk/v2_DepthDuration_HTML.html#109,109,1920,866,1920,1080,8-21-2022,7-0-36,134,depth_duration_stimuli/001164_2014-06-17_15-35-46_260595134347_rgbf000085-resize_3/001164_2014-06-17_15-35-46_260595134347_rgbf000085-resize_3-target.png,125,2.354,8,1523,124,feet,jsons/VE125_randls_72_rotated.json,442330,613838,44,Man
134,110620,DepthScenes,duration_manipulation_targetAtFixation,jsons/VE125_randls_72_rotated.json,http://54.235.29.9/FacialAge/BNav_EC2/DepthDuration/v2_depth_duration_MTurk/v2_DepthDuration_HTML.html#109,109,1920,866,1920,1080,8-21-2022,7-0-36,135,depth_duration_stimuli/000375_2014-06-08_11-17-29_260595134347_rgbf000133-resize_2/000375_2014-06-08_11-17-29_260595134347_rgbf000133-resize-original.jpg,125,4.718,0,1372,126,feet,jsons/VE125_randls_72_rotated.json,442330,613838,44,Man
135,110620,DepthScenes,duration_manipulation_targetAtFixation,jsons/VE125_randls_72_rotated.json,http://54.235.29.9/FacialAge/BNav_EC2/DepthDuration/v2_depth_duration_MTurk/v2_DepthDuration_HTML.html#109,109,1920,866,1920,1080,8-21-2022,7-0-36,136,depth_duration_stimuli/003129_2014-05-12_10-48-10_094959634447_rgbf000100-resize_0/003129_2014-05-12_10-48-10_094959634447_rgbf000100-resize_0-target.png,125,4.9305,10,1697,119,feet,jsons/VE125_randls_72_rotated.json,442330,613838,44,Man
136,110620,DepthScenes,duration_manipulation_targetAtFixation,jsons/VE125_randls_72_rotated.json,http://54.235.29.9/FacialAge/BNav_EC2/DepthDuration/v2_depth_duration_MTurk/v2_DepthDuration_HTML.html#109,109,1920,866,1920,1080,8-21-2022,7-0-36,137,depth_duration_stimuli/000414_2014-06-04_19-49-13_260595134347_rgbf000044-resize_0/000414_2014-06-04_19-49-13_260595134347_rgbf000044-resize_0-target.png,125,4.329,12,1688,127,feet,jsons/VE125_randls_72_rotated.json,442330,613838,44,Man
137,110620,DepthScenes,duration_manipulation_targetAtFixation,jsons/VE125_randls_72_rotated.json,http://54.235.29.9/FacialAge/BNav_EC2/DepthDuration/v2_depth_duration_MTurk/v2_DepthDuration_HTML.html#109,109,1920,866,1920,1080,8-21-2022,7-0-36,138,depth_duration_stimuli/001617_2014-06-20_11-35-32_260595134347_rgbf000066-resize_1/001617_2014-06-20_11-35-32_260595134347_rgbf000066-resize_1-target.png,125,3.7910000000000004,14,2121,124,feet,jsons/VE125_randls_72_rotated.json,442330,613838,44,Man
138,110620,DepthScenes,duration_manipulation_targetAtFixation,jsons/VE125_randls_72_rotated.json,http://54.235.29.9/FacialAge/BNav_EC2/DepthDuration/v2_depth_duration_MTurk/v2_DepthDuration_HTML.html#109,109,1920,866,1920,1080,8-21-2022,7-0-36,139,depth_duration_stimuli/001806_2014-06-26_20-50-20_260595134347_rgbf000091-resize_1/001806_2014-06-26_20-50-20_260595134347_rgbf000091-resize_1-target.png,125,2.7305,6,1792,126,feet,jsons/VE125_randls_72_rotated.json,442330,613838,44,Man
139,110620,DepthScenes,duration_manipulation_targetAtFixation,jsons/VE125_randls_72_rotated.json,http://54.235.29.9/FacialAge/BNav_EC2/DepthDuration/v2_depth_duration_MTurk/v2_DepthDuration_HTML.html#109,109,1920,866,1920,1080,8-21-2022,7-0-36,140,depth_duration_stimuli/002949_2014-06-26_15-57-42_094959634447_rgbf000079-resize_1/002949_2014-06-26_15-57-42_094959634447_rgbf000079-resize_1-target.png,125,1.8915,6,2405,121,feet,jsons/VE125_randls_72_rotated.json,442330,613838,44,Man
140,110620,DepthScenes,duration_manipulation_targetAtFixation,jsons/VE125_randls_72_rotated.json,http://54.235.29.9/FacialAge/BNav_EC2/DepthDuration/v2_depth_duration_MTurk/v2_DepthDuration_HTML.html#109,109,1920,866,1920,1080,8-21-2022,7-0-36,141,depth_duration_stimuli/000522_2014-06-08_13-35-06_260595134347_rgbf000244-resize_1/000522_2014-06-08_13-35-06_260595134347_rgbf000244-resize_1-target.png,125,2.3715,3,1672,123,feet,jsons/VE125_randls_72_rotated.json,442330,613838,44,Man
141,110620,DepthScenes,duration_manipulation_targetAtFixation,jsons/VE125_randls_72_rotated.json,http://54.235.29.9/FacialAge/BNav_EC2/DepthDuration/v2_depth_duration_MTurk/v2_DepthDuration_HTML.html#109,109,1920,866,1920,1080,8-21-2022,7-0-36,142,depth_duration_stimuli/000409_2014-06-04_19-23-33_260595134347_rgbf000067-resize_0/000409_2014-06-04_19-23-33_260595134347_rgbf000067-resize_0-target.png,125,3.7335,8,1401,123,feet,jsons/VE125_randls_72_rotated.json,442330,613838,44,Man
142,110620,DepthScenes,duration_manipulation_targetAtFixation,jsons/VE125_randls_72_rotated.json,http://54.235.29.9/FacialAge/BNav_EC2/DepthDuration/v2_depth_duration_MTurk/v2_DepthDuration_HTML.html#109,109,1920,866,1920,1080,8-21-2022,7-0-36,143,depth_duration_stimuli/002663_2014-06-13_15-50-26_094959634447_rgbf000075-resize_1/002663_2014-06-13_15-50-26_094959634447_rgbf000075-resize_1-target.png,125,4.7495,12,1911,122,feet,jsons/VE125_randls_72_rotated.json,442330,613838,44,Man
143,110620,DepthScenes,duration_manipulation_targetAtFixation,jsons/VE125_randls_72_rotated.json,http://54.235.29.9/FacialAge/BNav_EC2/DepthDuration/v2_depth_duration_MTurk/v2_DepthDuration_HTML.html#109,109,1920,866,1920,1080,8-21-2022,7-0-36,144,depth_duration_stimuli/000927_2014-06-09_16-32-30_260595134347_rgbf000123-resize_3/000927_2014-06-09_16-32-30_260595134347_rgbf000123-resize_3-target.png,125,2.6785,8,1614,128,feet,jsons/VE125_randls_72_rotated.json,442330,613838,44,Man
144,110620,DepthScenes,duration_manipulation_targetAtFixation,jsons/VE125_randls_72_rotated.json,http://54.235.29.9/FacialAge/BNav_EC2/DepthDuration/v2_depth_duration_MTurk/v2_DepthDuration_HTML.html#109,109,1920,866,1920,1080,8-21-2022,7-0-36,145,depth_duration_stimuli/001110_2014-06-15_17-25-28_260595134347_rgbf000150-resize_1/001110_2014-06-15_17-25-28_260595134347_rgbf000150-resize_1-target.png,125,1.7115,3,1434,128,feet,jsons/VE125_randls_72_rotated.json,442330,613838,44,Man
145,110620,DepthScenes,duration_manipulation_targetAtFixation,jsons/VE125_randls_72_rotated.json,http://54.235.29.9/FacialAge/BNav_EC2/DepthDuration/v2_depth_duration_MTurk/v2_DepthDuration_HTML.html#109,109,1920,866,1920,1080,8-21-2022,7-0-36,146,depth_duration_stimuli/003490_2014-05-21_15-50-11_094959634447_rgbf000101-resize_3/003490_2014-05-21_15-50-11_094959634447_rgbf000101-resize_3-target.png,125,3.6445,6,1643,124,feet,jsons/VE125_randls_72_rotated.json,442330,613838,44,Man
146,110620,DepthScenes,duration_manipulation_targetAtFixation,jsons/VE125_randls_72_rotated.json,http://54.235.29.9/FacialAge/BNav_EC2/DepthDuration/v2_depth_duration_MTurk/v2_DepthDuration_HTML.html#109,109,1920,866,1920,1080,8-21-2022,7-0-36,147,depth_duration_stimuli/001175_2014-06-17_15-45-55_260595134347_rgbf000129-resize_4/001175_2014-06-17_15-45-55_260595134347_rgbf000129-resize_4-target.png,125,4.255,10,1570,128,feet,jsons/VE125_randls_72_rotated.json,442330,613838,44,Man
147,110620,DepthScenes,duration_manipulation_targetAtFixation,jsons/VE125_randls_72_rotated.json,http://54.235.29.9/FacialAge/BNav_EC2/DepthDuration/v2_depth_duration_MTurk/v2_DepthDuration_HTML.html#109,109,1920,866,1920,1080,8-21-2022,7-0-36,148,depth_duration_stimuli/001100_2014-06-15_17-46-26_260595134347_rgbf000225-resize_2/001100_2014-06-15_17-46-26_260595134347_rgbf000225-resize_2-target.png,125,2.24,4,1673,123,feet,jsons/VE125_randls_72_rotated.json,442330,613838,44,Man
148,110620,DepthScenes,duration_manipulation_targetAtFixation,jsons/VE125_randls_72_rotated.json,http://54.235.29.9/FacialAge/BNav_EC2/DepthDuration/v2_depth_duration_MTurk/v2_DepthDuration_HTML.html#109,109,1920,866,1920,1080,8-21-2022,7-0-36,149,depth_duration_stimuli/002784_2014-06-22_19-26-30_094959634447_rgbf000083-resize_3/002784_2014-06-22_19-26-30_094959634447_rgbf000083-resize_3-target.png,125,1.8046666666667,4,1655,127,feet,jsons/VE125_randls_72_rotated.json,442330,613838,44,Man
149,110620,DepthScenes,duration_manipulation_targetAtFixation,jsons/VE125_randls_72_rotated.json,http://54.235.29.9/FacialAge/BNav_EC2/DepthDuration/v2_depth_duration_MTurk/v2_DepthDuration_HTML.html#109,109,1920,866,1920,1080,8-21-2022,7-0-36,150,depth_duration_stimuli/002568_2014-06-24_13-59-21_094959634447_rgbf000062-resize_4/002568_2014-06-24_13-59-21_094959634447_rgbf000062-resize_4-target.png,125,3.015,6,1669,125,feet,jsons/VE125_randls_72_rotated.json,442330,613838,44,Man
150,110620,DepthScenes,duration_manipulation_targetAtFixation,jsons/VE125_randls_72_rotated.json,http://54.235.29.9/FacialAge/BNav_EC2/DepthDuration/v2_depth_duration_MTurk/v2_DepthDuration_HTML.html#109,109,1920,866,1920,1080,8-21-2022,7-0-36,151,depth_duration_stimuli/003492_2014-05-21_15-50-55_094959634447_rgbf000828-resize_1/003492_2014-05-21_15-50-55_094959634447_rgbf000828-resize_1-target.png,125,4.06875,8,2051,122,feet,jsons/VE125_randls_72_rotated.json,442330,613838,44,Man
151,110620,DepthScenes,duration_manipulation_targetAtFixation,jsons/VE125_randls_72_rotated.json,http://54.235.29.9/FacialAge/BNav_EC2/DepthDuration/v2_depth_duration_MTurk/v2_DepthDuration_HTML.html#109,109,1920,866,1920,1080,8-21-2022,7-0-36,152,depth_duration_stimuli/000569_2014-06-09_22-51-47_260595134347_rgbf000141-resize_3/000569_2014-06-09_22-51-47_260595134347_rgbf000141-resize-original.jpg,125,4.512,0,1509,125,feet,jsons/VE125_randls_72_rotated.json,442330,613838,44,Man
152,110620,DepthScenes,duration_manipulation_targetAtFixation,jsons/VE125_randls_72_rotated.json,http://54.235.29.9/FacialAge/BNav_EC2/DepthDuration/v2_depth_duration_MTurk/v2_DepthDuration_HTML.html#109,109,1920,866,1920,1080,8-21-2022,7-0-36,153,depth_duration_stimuli/002340_2014-06-28_20-05-46_260595134347_rgbf000113-resize_0/002340_2014-06-28_20-05-46_260595134347_rgbf000113-resize_0-target.png,125,2.4735,10,1479,125,feet,jsons/VE125_randls_72_rotated.json,442330,613838,44,Man
153,110620,DepthScenes,duration_manipulation_targetAtFixation,jsons/VE125_randls_72_rotated.json,http://54.235.29.9/FacialAge/BNav_EC2/DepthDuration/v2_depth_duration_MTurk/v2_DepthDuration_HTML.html#109,109,1920,866,1920,1080,8-21-2022,7-0-36,154,depth_duration_stimuli/001016_2014-06-09_16-16-10_260595134347_rgbf000112-resize_5/001016_2014-06-09_16-16-10_260595134347_rgbf000112-resize_5-target.png,125,1.6565,6,1460,121,feet,jsons/VE125_randls_72_rotated.json,442330,613838,44,Man
154,110620,DepthScenes,duration_manipulation_targetAtFixation,jsons/VE125_randls_72_rotated.json,http://54.235.29.9/FacialAge/BNav_EC2/DepthDuration/v2_depth_duration_MTurk/v2_DepthDuration_HTML.html#109,109,1920,866,1920,1080,8-21-2022,7-0-36,155,depth_duration_stimuli/000665_2014-06-09_20-42-35_260595134347_rgbf000110-resize_1/000665_2014-06-09_20-42-35_260595134347_rgbf000110-resize_1-target.png,125,3.057,6,1462,128,feet,jsons/VE125_randls_72_rotated.json,442330,613838,44,Man
155,110620,DepthScenes,duration_manipulation_targetAtFixation,jsons/VE125_randls_72_rotated.json,http://54.235.29.9/FacialAge/BNav_EC2/DepthDuration/v2_depth_duration_MTurk/v2_DepthDuration_HTML.html#109,109,1920,866,1920,1080,8-21-2022,7-0-36,156,depth_duration_stimuli/001150_2014-06-17_15-27-34_260595134347_rgbf000108-resize_2/001150_2014-06-17_15-27-34_260595134347_rgbf000108-resize_2-target.png,125,4.0325,8,1478,124,feet,jsons/VE125_randls_72_rotated.json,442330,613838,44,Man
156,110620,DepthScenes,duration_manipulation_targetAtFixation,jsons/VE125_randls_72_rotated.json,http://54.235.29.9/FacialAge/BNav_EC2/DepthDuration/v2_depth_duration_MTurk/v2_DepthDuration_HTML.html#109,109,1920,866,1920,1080,8-21-2022,7-0-36,157,depth_duration_stimuli/000109_2014-05-14_23-41-52_260595134347_rgbf000035-resize_9/000109_2014-05-14_23-41-52_260595134347_rgbf000035-resize_9-target.png,125,1.3545,3,1703,127,feet,jsons/VE125_randls_72_rotated.json,442330,613838,44,Man
157,110620,DepthScenes,duration_manipulation_targetAtFixation,jsons/VE125_randls_72_rotated.json,http://54.235.29.9/FacialAge/BNav_EC2/DepthDuration/v2_depth_duration_MTurk/v2_DepthDuration_HTML.html#109,109,1920,866,1920,1080,8-21-2022,7-0-36,158,depth_duration_stimuli/000470_2014-06-09_19-42-40_260595134347_rgbf000094-resize_1/000470_2014-06-09_19-42-40_260595134347_rgbf000094-resize_1-target.png,125,1.831,4,1536,125,feet,jsons/VE125_randls_72_rotated.json,442330,613838,44,Man
158,110620,DepthScenes,duration_manipulation_targetAtFixation,jsons/VE125_randls_72_rotated.json,http://54.235.29.9/FacialAge/BNav_EC2/DepthDuration/v2_depth_duration_MTurk/v2_DepthDuration_HTML.html#109,109,1920,866,1920,1080,8-21-2022,7-0-36,159,depth_duration_stimuli/000457_2014-06-08_16-52-43_260595134347_rgbf000199-resize_1/000457_2014-06-08_16-52-43_260595134347_rgbf000199-resize_1-target.png,125,3.6489999999999996,6,1612,126,feet,jsons/VE125_randls_72_rotated.json,442330,613838,44,Man
159,110620,DepthScenes,duration_manipulation_targetAtFixation,jsons/VE125_randls_72_rotated.json,http://54.235.29.9/FacialAge/BNav_EC2/DepthDuration/v2_depth_duration_MTurk/v2_DepthDuration_HTML.html#109,109,1920,866,1920,1080,8-21-2022,7-0-36,160,depth_duration_stimuli/000929_2014-06-09_16-33-19_260595134347_rgbf000139-resize_0/000929_2014-06-09_16-33-19_260595134347_rgbf000139-resize_0-target.png,125,2.8680000000000003,6,1524,126,feet,jsons/VE125_randls_72_rotated.json,442330,613838,44,Man
160,110620,DepthScenes,duration_manipulation_targetAtFixation,jsons/VE125_randls_72_rotated.json,http://54.235.29.9/FacialAge/BNav_EC2/DepthDuration/v2_depth_duration_MTurk/v2_DepthDuration_HTML.html#109,109,1920,866,1920,1080,8-21-2022,7-0-36,161,depth_duration_stimuli/000502_2014-06-08_23-02-32_260595134347_rgbf000063-resize_4/000502_2014-06-08_23-02-32_260595134347_rgbf000063-resize_4-target.png,125,2.431,6,1596,124,feet,jsons/VE125_randls_72_rotated.json,442330,613838,44,Man
161,110620,DepthScenes,duration_manipulation_targetAtFixation,jsons/VE125_randls_72_rotated.json,http://54.235.29.9/FacialAge/BNav_EC2/DepthDuration/v2_depth_duration_MTurk/v2_DepthDuration_HTML.html#109,109,1920,866,1920,1080,8-21-2022,7-0-36,162,depth_duration_stimuli/001199_2014-06-17_16-03-48_260595134347_rgbf000077-resize_0/001199_2014-06-17_16-03-48_260595134347_rgbf000077-resize_0-target.png,125,3.4375,8,1492,123,feet,jsons/VE125_randls_72_rotated.json,442330,613838,44,Man
162,110620,DepthScenes,duration_manipulation_targetAtFixation,jsons/VE125_randls_72_rotated.json,http://54.235.29.9/FacialAge/BNav_EC2/DepthDuration/v2_depth_duration_MTurk/v2_DepthDuration_HTML.html#109,109,1920,866,1920,1080,8-21-2022,7-0-36,163,depth_duration_stimuli/001450_2014-06-19_17-02-03_260595134347_rgbf000203-resize_4/001450_2014-06-19_17-02-03_260595134347_rgbf000203-resize_4-target.png,125,4.0106666666667,10,1508,128,feet,jsons/VE125_randls_72_rotated.json,442330,613838,44,Man
163,110620,DepthScenes,duration_manipulation_targetAtFixation,jsons/VE125_randls_72_rotated.json,http://54.235.29.9/FacialAge/BNav_EC2/DepthDuration/v2_depth_duration_MTurk/v2_DepthDuration_HTML.html#109,109,1920,866,1920,1080,8-21-2022,7-0-36,164,depth_duration_stimuli/001449_2014-06-19_17-01-27_260595134347_rgbf000116-resize_2/001449_2014-06-19_17-01-27_260595134347_rgbf000116-resize_2-target.png,125,3.452,8,1776,125,feet,jsons/VE125_randls_72_rotated.json,442330,613838,44,Man
