,subjID,experimentName,versionName,sequenceName,url,selected_row,windowWidth,windowHeight,screenWidth,screenHeight,startDate,startTime,trial,stimulus,duration,actual_depth,depth_estimate,trial_RT,log_sceneDuration,unitSelection,seq_filepath,experimentTime,totalTime,age,gender
0,112343,DepthScenes,duration_manipulation_targetAtFixation,jsons/VE125_randls_66.json,http://54.235.29.9/FacialAge/BNav_EC2/DepthDuration/v2_depth_duration_MTurk/v2_DepthDuration_HTML.html#95,95,1920,979,1920,1080,8-21-2022,6-35-28,1,depth_duration_stimuli/000692_2014-06-08_13-09-42_260595134347_rgbf000199-resize_2/000692_2014-06-08_13-09-42_260595134347_rgbf000199-resize_2-target.png,125,3.661,10,2952,136,feet,jsons/VE125_randls_66.json,549306,827029,27,Man
1,112343,DepthScenes,duration_manipulation_targetAtFixation,jsons/VE125_randls_66.json,http://54.235.29.9/FacialAge/BNav_EC2/DepthDuration/v2_depth_duration_MTurk/v2_DepthDuration_HTML.html#95,95,1920,979,1920,1080,8-21-2022,6-35-28,2,depth_duration_stimuli/001094_2014-06-15_17-36-00_260595134347_rgbf000205-resize_0/001094_2014-06-15_17-36-00_260595134347_rgbf000205-resize_0-target.png,125,4.2175,7,2271,128,feet,jsons/VE125_randls_66.json,549306,827029,27,Man
2,112343,DepthScenes,duration_manipulation_targetAtFixation,jsons/VE125_randls_66.json,http://54.235.29.9/FacialAge/BNav_EC2/DepthDuration/v2_depth_duration_MTurk/v2_DepthDuration_HTML.html#95,95,1920,979,1920,1080,8-21-2022,6-35-28,3,depth_duration_stimuli/001164_2014-06-17_15-35-46_260595134347_rgbf000085-resize_3/001164_2014-06-17_15-35-46_260595134347_rgbf000085-resize_3-target.png,125,2.354,2,2510,124,feet,jsons/VE125_randls_66.json,549306,827029,27,Man
3,112343,DepthScenes,duration_manipulation_targetAtFixation,jsons/VE125_randls_66.json,http://54.235.29.9/FacialAge/BNav_EC2/DepthDuration/v2_depth_duration_MTurk/v2_DepthDuration_HTML.html#95,95,1920,979,1920,1080,8-21-2022,6-35-28,4,depth_duration_stimuli/001136_2014-06-17_15-19-41_260595134347_rgbf000076-resize_3/001136_2014-06-17_15-19-41_260595134347_rgbf000076-resize_3-target.png,125,1.8655,2,2478,127,feet,jsons/VE125_randls_66.json,549306,827029,27,Man
4,112343,DepthScenes,duration_manipulation_targetAtFixation,jsons/VE125_randls_66.json,http://54.235.29.9/FacialAge/BNav_EC2/DepthDuration/v2_depth_duration_MTurk/v2_DepthDuration_HTML.html#95,95,1920,979,1920,1080,8-21-2022,6-35-28,5,depth_duration_stimuli/001056_2014-06-08_18-46-44_260595134347_rgbf000068-resize_0/001056_2014-06-08_18-46-44_260595134347_rgbf000068-resize_0-target.png,125,2.6625,6,1992,126,feet,jsons/VE125_randls_66.json,549306,827029,27,Man
5,112343,DepthScenes,duration_manipulation_targetAtFixation,jsons/VE125_randls_66.json,http://54.235.29.9/FacialAge/BNav_EC2/DepthDuration/v2_depth_duration_MTurk/v2_DepthDuration_HTML.html#95,95,1920,979,1920,1080,8-21-2022,6-35-28,6,depth_duration_stimuli/002199_2014-06-28_18-33-56_260595134347_rgbf000074-resize_0/002199_2014-06-28_18-33-56_260595134347_rgbf000074-resize_0-target.png,125,1.996,2,1923,125,feet,jsons/VE125_randls_66.json,549306,827029,27,Man
6,112343,DepthScenes,duration_manipulation_targetAtFixation,jsons/VE125_randls_66.json,http://54.235.29.9/FacialAge/BNav_EC2/DepthDuration/v2_depth_duration_MTurk/v2_DepthDuration_HTML.html#95,95,1920,979,1920,1080,8-21-2022,6-35-28,7,depth_duration_stimuli/002748_2014-06-22_19-07-22_094959634447_rgbf000078-resize_1/002748_2014-06-22_19-07-22_094959634447_rgbf000078-resize_1-target.png,125,4.6705,12,2409,126,feet,jsons/VE125_randls_66.json,549306,827029,27,Man
7,112343,DepthScenes,duration_manipulation_targetAtFixation,jsons/VE125_randls_66.json,http://54.235.29.9/FacialAge/BNav_EC2/DepthDuration/v2_depth_duration_MTurk/v2_DepthDuration_HTML.html#95,95,1920,979,1920,1080,8-21-2022,6-35-28,8,depth_duration_stimuli/002995_2014-06-15_12-31-26_094959634447_rgbf000150-resize_1/002995_2014-06-15_12-31-26_094959634447_rgbf000150-resize_1-target.png,125,3.8360000000000003,7,4630,126,feet,jsons/VE125_randls_66.json,549306,827029,27,Man
8,112343,DepthScenes,duration_manipulation_targetAtFixation,jsons/VE125_randls_66.json,http://54.235.29.9/FacialAge/BNav_EC2/DepthDuration/v2_depth_duration_MTurk/v2_DepthDuration_HTML.html#95,95,1920,979,1920,1080,8-21-2022,6-35-28,9,depth_duration_stimuli/001016_2014-06-09_16-16-10_260595134347_rgbf000112-resize_5/001016_2014-06-09_16-16-10_260595134347_rgbf000112-resize_5-target.png,125,1.6565,3,2940,126,feet,jsons/VE125_randls_66.json,549306,827029,27,Man
9,112343,DepthScenes,duration_manipulation_targetAtFixation,jsons/VE125_randls_66.json,http://54.235.29.9/FacialAge/BNav_EC2/DepthDuration/v2_depth_duration_MTurk/v2_DepthDuration_HTML.html#95,95,1920,979,1920,1080,8-21-2022,6-35-28,10,depth_duration_stimuli/002340_2014-06-28_20-05-46_260595134347_rgbf000113-resize_0/002340_2014-06-28_20-05-46_260595134347_rgbf000113-resize_0-target.png,125,2.4735,6,2832,126,feet,jsons/VE125_randls_66.json,549306,827029,27,Man
10,112343,DepthScenes,duration_manipulation_targetAtFixation,jsons/VE125_randls_66.json,http://54.235.29.9/FacialAge/BNav_EC2/DepthDuration/v2_depth_duration_MTurk/v2_DepthDuration_HTML.html#95,95,1920,979,1920,1080,8-21-2022,6-35-28,11,depth_duration_stimuli/001199_2014-06-17_16-03-48_260595134347_rgbf000077-resize_0/001199_2014-06-17_16-03-48_260595134347_rgbf000077-resize_0-target.png,125,3.4375,6,2251,127,feet,jsons/VE125_randls_66.json,549306,827029,27,Man
11,112343,DepthScenes,duration_manipulation_targetAtFixation,jsons/VE125_randls_66.json,http://54.235.29.9/FacialAge/BNav_EC2/DepthDuration/v2_depth_duration_MTurk/v2_DepthDuration_HTML.html#95,95,1920,979,1920,1080,8-21-2022,6-35-28,12,depth_duration_stimuli/000502_2014-06-08_23-02-32_260595134347_rgbf000063-resize_4/000502_2014-06-08_23-02-32_260595134347_rgbf000063-resize_4-target.png,125,2.431,5,2414,115,feet,jsons/VE125_randls_66.json,549306,827029,27,Man
12,112343,DepthScenes,duration_manipulation_targetAtFixation,jsons/VE125_randls_66.json,http://54.235.29.9/FacialAge/BNav_EC2/DepthDuration/v2_depth_duration_MTurk/v2_DepthDuration_HTML.html#95,95,1920,979,1920,1080,8-21-2022,6-35-28,13,depth_duration_stimuli/000569_2014-06-09_22-51-47_260595134347_rgbf000141-resize_3/000569_2014-06-09_22-51-47_260595134347_rgbf000141-resize-original.jpg,125,4.512,0,2863,112,feet,jsons/VE125_randls_66.json,549306,827029,27,Man
13,112343,DepthScenes,duration_manipulation_targetAtFixation,jsons/VE125_randls_66.json,http://54.235.29.9/FacialAge/BNav_EC2/DepthDuration/v2_depth_duration_MTurk/v2_DepthDuration_HTML.html#95,95,1920,979,1920,1080,8-21-2022,6-35-28,14,depth_duration_stimuli/000906_2014-06-08_13-35-43_260595134347_rgbf000155-resize_1/000906_2014-06-08_13-35-43_260595134347_rgbf000155-resize_1-target.png,125,2.8489999999999998,7,3659,127,feet,jsons/VE125_randls_66.json,549306,827029,27,Man
14,112343,DepthScenes,duration_manipulation_targetAtFixation,jsons/VE125_randls_66.json,http://54.235.29.9/FacialAge/BNav_EC2/DepthDuration/v2_depth_duration_MTurk/v2_DepthDuration_HTML.html#95,95,1920,979,1920,1080,8-21-2022,6-35-28,15,depth_duration_stimuli/002805_2014-06-22_19-54-03_094959634447_rgbf000079-resize_1/002805_2014-06-22_19-54-03_094959634447_rgbf000079-resize_1-target.png,125,3.1439999999999997,7,2933,128,feet,jsons/VE125_randls_66.json,549306,827029,27,Man
15,112343,DepthScenes,duration_manipulation_targetAtFixation,jsons/VE125_randls_66.json,http://54.235.29.9/FacialAge/BNav_EC2/DepthDuration/v2_depth_duration_MTurk/v2_DepthDuration_HTML.html#95,95,1920,979,1920,1080,8-21-2022,6-35-28,16,depth_duration_stimuli/002272_2014-06-28_18-53-56_260595134347_rgbf000067-resize_2/002272_2014-06-28_18-53-56_260595134347_rgbf000067-resize_2-target.png,125,1.138,2,1686,124,feet,jsons/VE125_randls_66.json,549306,827029,27,Man
16,112343,DepthScenes,duration_manipulation_targetAtFixation,jsons/VE125_randls_66.json,http://54.235.29.9/FacialAge/BNav_EC2/DepthDuration/v2_depth_duration_MTurk/v2_DepthDuration_HTML.html#95,95,1920,979,1920,1080,8-21-2022,6-35-28,17,depth_duration_stimuli/001571_2014-06-20_17-21-32_260595134347_rgbf000089-resize_1/001571_2014-06-20_17-21-32_260595134347_rgbf000089-resize_1-target.png,125,1.86,3,2247,126,feet,jsons/VE125_randls_66.json,549306,827029,27,Man
17,112343,DepthScenes,duration_manipulation_targetAtFixation,jsons/VE125_randls_66.json,http://54.235.29.9/FacialAge/BNav_EC2/DepthDuration/v2_depth_duration_MTurk/v2_DepthDuration_HTML.html#95,95,1920,979,1920,1080,8-21-2022,6-35-28,18,depth_duration_stimuli/002570_2014-06-24_13-59-54_094959634447_rgbf000059-resize_0/002570_2014-06-24_13-59-54_094959634447_rgbf000059-resize_0-target.png,125,4.037,3,1830,128,feet,jsons/VE125_randls_66.json,549306,827029,27,Man
18,112343,DepthScenes,duration_manipulation_targetAtFixation,jsons/VE125_randls_66.json,http://54.235.29.9/FacialAge/BNav_EC2/DepthDuration/v2_depth_duration_MTurk/v2_DepthDuration_HTML.html#95,95,1920,979,1920,1080,8-21-2022,6-35-28,19,depth_duration_stimuli/002467_2014-06-28_20-38-07_260595134347_rgbf000026-resize_2/002467_2014-06-28_20-38-07_260595134347_rgbf000026-resize_2-target.png,125,4.742,6,2153,127,feet,jsons/VE125_randls_66.json,549306,827029,27,Man
19,112343,DepthScenes,duration_manipulation_targetAtFixation,jsons/VE125_randls_66.json,http://54.235.29.9/FacialAge/BNav_EC2/DepthDuration/v2_depth_duration_MTurk/v2_DepthDuration_HTML.html#95,95,1920,979,1920,1080,8-21-2022,6-35-28,20,depth_duration_stimuli/002279_2014-06-28_18-55-32_260595134347_rgbf000040-resize_5/002279_2014-06-28_18-55-32_260595134347_rgbf000040-resize_5-target.png,125,1.5043333333333,2,1689,127,feet,jsons/VE125_randls_66.json,549306,827029,27,Man
20,112343,DepthScenes,duration_manipulation_targetAtFixation,jsons/VE125_randls_66.json,http://54.235.29.9/FacialAge/BNav_EC2/DepthDuration/v2_depth_duration_MTurk/v2_DepthDuration_HTML.html#95,95,1920,979,1920,1080,8-21-2022,6-35-28,21,depth_duration_stimuli/000635_2014-06-08_16-38-42_260595134347_rgbf000106-resize_1/000635_2014-06-08_16-38-42_260595134347_rgbf000106-resize_1-target.png,125,2.074,4,1932,126,feet,jsons/VE125_randls_66.json,549306,827029,27,Man
21,112343,DepthScenes,duration_manipulation_targetAtFixation,jsons/VE125_randls_66.json,http://54.235.29.9/FacialAge/BNav_EC2/DepthDuration/v2_depth_duration_MTurk/v2_DepthDuration_HTML.html#95,95,1920,979,1920,1080,8-21-2022,6-35-28,22,depth_duration_stimuli/003621_2014-05-23_18-06-08_094959634447_rgbf000101-resize_1/003621_2014-05-23_18-06-08_094959634447_rgbf000101-resize_1-target.png,125,3.9835,8,2292,128,feet,jsons/VE125_randls_66.json,549306,827029,27,Man
22,112343,DepthScenes,duration_manipulation_targetAtFixation,jsons/VE125_randls_66.json,http://54.235.29.9/FacialAge/BNav_EC2/DepthDuration/v2_depth_duration_MTurk/v2_DepthDuration_HTML.html#95,95,1920,979,1920,1080,8-21-2022,6-35-28,23,depth_duration_stimuli/001584_2014-06-20_11-07-43_260595134347_rgbf000002-resize_1/001584_2014-06-20_11-07-43_260595134347_rgbf000002-resize_1-target.png,125,3.53,5,2346,124,feet,jsons/VE125_randls_66.json,549306,827029,27,Man
23,112343,DepthScenes,duration_manipulation_targetAtFixation,jsons/VE125_randls_66.json,http://54.235.29.9/FacialAge/BNav_EC2/DepthDuration/v2_depth_duration_MTurk/v2_DepthDuration_HTML.html#95,95,1920,979,1920,1080,8-21-2022,6-35-28,24,depth_duration_stimuli/003492_2014-05-21_15-50-55_094959634447_rgbf000828-resize_1/003492_2014-05-21_15-50-55_094959634447_rgbf000828-resize_1-target.png,125,4.06875,8,2101,127,feet,jsons/VE125_randls_66.json,549306,827029,27,Man
24,112343,DepthScenes,duration_manipulation_targetAtFixation,jsons/VE125_randls_66.json,http://54.235.29.9/FacialAge/BNav_EC2/DepthDuration/v2_depth_duration_MTurk/v2_DepthDuration_HTML.html#95,95,1920,979,1920,1080,8-21-2022,6-35-28,25,depth_duration_stimuli/002568_2014-06-24_13-59-21_094959634447_rgbf000062-resize_4/002568_2014-06-24_13-59-21_094959634447_rgbf000062-resize_4-target.png,125,3.015,4,1917,127,feet,jsons/VE125_randls_66.json,549306,827029,27,Man
25,112343,DepthScenes,duration_manipulation_targetAtFixation,jsons/VE125_randls_66.json,http://54.235.29.9/FacialAge/BNav_EC2/DepthDuration/v2_depth_duration_MTurk/v2_DepthDuration_HTML.html#95,95,1920,979,1920,1080,8-21-2022,6-35-28,26,depth_duration_stimuli/000469_2014-06-09_19-42-10_260595134347_rgbf000081-resize_1/000469_2014-06-09_19-42-10_260595134347_rgbf000081-resize_1-target.png,125,1.652,4,2190,126,feet,jsons/VE125_randls_66.json,549306,827029,27,Man
26,112343,DepthScenes,duration_manipulation_targetAtFixation,jsons/VE125_randls_66.json,http://54.235.29.9/FacialAge/BNav_EC2/DepthDuration/v2_depth_duration_MTurk/v2_DepthDuration_HTML.html#95,95,1920,979,1920,1080,8-21-2022,6-35-28,27,depth_duration_stimuli/000483_2014-06-09_20-41-45_260595134347_rgbf000116-resize_4/000483_2014-06-09_20-41-45_260595134347_rgbf000116-resize_4-target.png,125,1.337,2,1572,128,feet,jsons/VE125_randls_66.json,549306,827029,27,Man
27,112343,DepthScenes,duration_manipulation_targetAtFixation,jsons/VE125_randls_66.json,http://54.235.29.9/FacialAge/BNav_EC2/DepthDuration/v2_depth_duration_MTurk/v2_DepthDuration_HTML.html#95,95,1920,979,1920,1080,8-21-2022,6-35-28,28,depth_duration_stimuli/002788_2014-06-22_19-36-03_094959634447_rgbf000088-resize_2/002788_2014-06-22_19-36-03_094959634447_rgbf000088-resize_2-target.png,125,1.6465,7,1916,128,feet,jsons/VE125_randls_66.json,549306,827029,27,Man
28,112343,DepthScenes,duration_manipulation_targetAtFixation,jsons/VE125_randls_66.json,http://54.235.29.9/FacialAge/BNav_EC2/DepthDuration/v2_depth_duration_MTurk/v2_DepthDuration_HTML.html#95,95,1920,979,1920,1080,8-21-2022,6-35-28,29,depth_duration_stimuli/000749_2014-06-08_21-55-06_260595134347_rgbf000070-resize_2/000749_2014-06-08_21-55-06_260595134347_rgbf000070-resize_2-target.png,125,2.331,4,1682,125,feet,jsons/VE125_randls_66.json,549306,827029,27,Man
29,112343,DepthScenes,duration_manipulation_targetAtFixation,jsons/VE125_randls_66.json,http://54.235.29.9/FacialAge/BNav_EC2/DepthDuration/v2_depth_duration_MTurk/v2_DepthDuration_HTML.html#95,95,1920,979,1920,1080,8-21-2022,6-35-28,30,depth_duration_stimuli/000375_2014-06-08_11-17-29_260595134347_rgbf000133-resize_2/000375_2014-06-08_11-17-29_260595134347_rgbf000133-resize-original.jpg,125,4.718,0,2366,126,feet,jsons/VE125_randls_66.json,549306,827029,27,Man
30,112343,DepthScenes,duration_manipulation_targetAtFixation,jsons/VE125_randls_66.json,http://54.235.29.9/FacialAge/BNav_EC2/DepthDuration/v2_depth_duration_MTurk/v2_DepthDuration_HTML.html#95,95,1920,979,1920,1080,8-21-2022,6-35-28,31,depth_duration_stimuli/000736_2014-06-08_18-24-15_260595134347_rgbf000206-resize_3/000736_2014-06-08_18-24-15_260595134347_rgbf000206-resize_3-target.png,125,3.515,5,2226,126,feet,jsons/VE125_randls_66.json,549306,827029,27,Man
31,112343,DepthScenes,duration_manipulation_targetAtFixation,jsons/VE125_randls_66.json,http://54.235.29.9/FacialAge/BNav_EC2/DepthDuration/v2_depth_duration_MTurk/v2_DepthDuration_HTML.html#95,95,1920,979,1920,1080,8-21-2022,6-35-28,32,depth_duration_stimuli/000137_2014-05-20_17-04-49_260595134347_rgbf000120-resize_1/000137_2014-05-20_17-04-49_260595134347_rgbf000120-resize_1-target.png,125,3.786,6,3093,110,feet,jsons/VE125_randls_66.json,549306,827029,27,Man
32,112343,DepthScenes,duration_manipulation_targetAtFixation,jsons/VE125_randls_66.json,http://54.235.29.9/FacialAge/BNav_EC2/DepthDuration/v2_depth_duration_MTurk/v2_DepthDuration_HTML.html#95,95,1920,979,1920,1080,8-21-2022,6-35-28,33,depth_duration_stimuli/001092_2014-06-15_17-34-58_260595134347_rgbf000171-resize_3/001092_2014-06-15_17-34-58_260595134347_rgbf000171-resize_3-target.png,125,2.6935,4,1608,128,feet,jsons/VE125_randls_66.json,549306,827029,27,Man
33,112343,DepthScenes,duration_manipulation_targetAtFixation,jsons/VE125_randls_66.json,http://54.235.29.9/FacialAge/BNav_EC2/DepthDuration/v2_depth_duration_MTurk/v2_DepthDuration_HTML.html#95,95,1920,979,1920,1080,8-21-2022,6-35-28,34,depth_duration_stimuli/002545_2014-06-24_13-38-53_094959634447_rgbf000080-resize_4/002545_2014-06-24_13-38-53_094959634447_rgbf000080-resize_4-target.png,125,1.9205,4,1571,125,feet,jsons/VE125_randls_66.json,549306,827029,27,Man
34,112343,DepthScenes,duration_manipulation_targetAtFixation,jsons/VE125_randls_66.json,http://54.235.29.9/FacialAge/BNav_EC2/DepthDuration/v2_depth_duration_MTurk/v2_DepthDuration_HTML.html#95,95,1920,979,1920,1080,8-21-2022,6-35-28,35,depth_duration_stimuli/000009_2014-05-26_14-32-05_260595134347_rgbf000034-resize_3/000009_2014-05-26_14-32-05_260595134347_rgbf000034-resize_3-target.png,125,3.8715,8,1779,127,feet,jsons/VE125_randls_66.json,549306,827029,27,Man
35,112343,DepthScenes,duration_manipulation_targetAtFixation,jsons/VE125_randls_66.json,http://54.235.29.9/FacialAge/BNav_EC2/DepthDuration/v2_depth_duration_MTurk/v2_DepthDuration_HTML.html#95,95,1920,979,1920,1080,8-21-2022,6-35-28,36,depth_duration_stimuli/001828_2014-06-26_21-40-03_260595134347_rgbf000024-resize_0/001828_2014-06-26_21-40-03_260595134347_rgbf000024-resize_0-target.png,125,4.8260000000000005,7,2875,127,feet,jsons/VE125_randls_66.json,549306,827029,27,Man
36,112343,DepthScenes,duration_manipulation_targetAtFixation,jsons/VE125_randls_66.json,http://54.235.29.9/FacialAge/BNav_EC2/DepthDuration/v2_depth_duration_MTurk/v2_DepthDuration_HTML.html#95,95,1920,979,1920,1080,8-21-2022,6-35-28,37,depth_duration_stimuli/002784_2014-06-22_19-26-30_094959634447_rgbf000083-resize_3/002784_2014-06-22_19-26-30_094959634447_rgbf000083-resize_3-target.png,125,1.8046666666667,3,1557,125,feet,jsons/VE125_randls_66.json,549306,827029,27,Man
37,112343,DepthScenes,duration_manipulation_targetAtFixation,jsons/VE125_randls_66.json,http://54.235.29.9/FacialAge/BNav_EC2/DepthDuration/v2_depth_duration_MTurk/v2_DepthDuration_HTML.html#95,95,1920,979,1920,1080,8-21-2022,6-35-28,38,depth_duration_stimuli/001100_2014-06-15_17-46-26_260595134347_rgbf000225-resize_2/001100_2014-06-15_17-46-26_260595134347_rgbf000225-resize_2-target.png,125,2.24,4,1606,124,feet,jsons/VE125_randls_66.json,549306,827029,27,Man
38,112343,DepthScenes,duration_manipulation_targetAtFixation,jsons/VE125_randls_66.json,http://54.235.29.9/FacialAge/BNav_EC2/DepthDuration/v2_depth_duration_MTurk/v2_DepthDuration_HTML.html#95,95,1920,979,1920,1080,8-21-2022,6-35-28,39,depth_duration_stimuli/000436_2014-06-09_22-25-11_260595134347_rgbf000137-resize_1/000436_2014-06-09_22-25-11_260595134347_rgbf000137-resize_1-target.png,125,4.0705,8,2845,126,feet,jsons/VE125_randls_66.json,549306,827029,27,Man
39,112343,DepthScenes,duration_manipulation_targetAtFixation,jsons/VE125_randls_66.json,http://54.235.29.9/FacialAge/BNav_EC2/DepthDuration/v2_depth_duration_MTurk/v2_DepthDuration_HTML.html#95,95,1920,979,1920,1080,8-21-2022,6-35-28,40,depth_duration_stimuli/002444_2014-06-28_20-32-08_260595134347_rgbf000027-resize_0/002444_2014-06-28_20-32-08_260595134347_rgbf000027-resize_0-target.png,125,4.388999999999999,9,2449,127,feet,jsons/VE125_randls_66.json,549306,827029,27,Man
40,112343,DepthScenes,duration_manipulation_targetAtFixation,jsons/VE125_randls_66.json,http://54.235.29.9/FacialAge/BNav_EC2/DepthDuration/v2_depth_duration_MTurk/v2_DepthDuration_HTML.html#95,95,1920,979,1920,1080,8-21-2022,6-35-28,41,depth_duration_stimuli/002630_2014-06-24_14-47-50_094959634447_rgbf000055-resize_1/002630_2014-06-24_14-47-50_094959634447_rgbf000055-resize_1-target.png,125,3.0095,8,2272,128,feet,jsons/VE125_randls_66.json,549306,827029,27,Man
41,112343,DepthScenes,duration_manipulation_targetAtFixation,jsons/VE125_randls_66.json,http://54.235.29.9/FacialAge/BNav_EC2/DepthDuration/v2_depth_duration_MTurk/v2_DepthDuration_HTML.html#95,95,1920,979,1920,1080,8-21-2022,6-35-28,42,depth_duration_stimuli/002758_2014-06-22_19-11-20_094959634447_rgbf000128-resize_1/002758_2014-06-22_19-11-20_094959634447_rgbf000128-resize_1-target.png,125,2.555,3,3458,124,feet,jsons/VE125_randls_66.json,549306,827029,27,Man
42,112343,DepthScenes,duration_manipulation_targetAtFixation,jsons/VE125_randls_66.json,http://54.235.29.9/FacialAge/BNav_EC2/DepthDuration/v2_depth_duration_MTurk/v2_DepthDuration_HTML.html#95,95,1920,979,1920,1080,8-21-2022,6-35-28,43,depth_duration_stimuli/000368_2014-06-09_15-53-01_260595134347_rgbf000155-resize_2/000368_2014-06-09_15-53-01_260595134347_rgbf000155-resize_2-target.png,125,2.4859999999999998,5,2476,128,feet,jsons/VE125_randls_66.json,549306,827029,27,Man
43,112343,DepthScenes,duration_manipulation_targetAtFixation,jsons/VE125_randls_66.json,http://54.235.29.9/FacialAge/BNav_EC2/DepthDuration/v2_depth_duration_MTurk/v2_DepthDuration_HTML.html#95,95,1920,979,1920,1080,8-21-2022,6-35-28,44,depth_duration_stimuli/002678_2014-06-13_16-15-32_094959634447_rgbf000151-resize_6/002678_2014-06-13_16-15-32_094959634447_rgbf000151-resize_6-target.png,125,2.1830000000000003,5,1488,126,feet,jsons/VE125_randls_66.json,549306,827029,27,Man
44,112343,DepthScenes,duration_manipulation_targetAtFixation,jsons/VE125_randls_66.json,http://54.235.29.9/FacialAge/BNav_EC2/DepthDuration/v2_depth_duration_MTurk/v2_DepthDuration_HTML.html#95,95,1920,979,1920,1080,8-21-2022,6-35-28,45,depth_duration_stimuli/000787_2014-06-08_22-33-53_260595134347_rgbf000175-resize_1/000787_2014-06-08_22-33-53_260595134347_rgbf000175-resize-original.jpg,125,4.784,0,12233,126,feet,jsons/VE125_randls_66.json,549306,827029,27,Man
45,112343,DepthScenes,duration_manipulation_targetAtFixation,jsons/VE125_randls_66.json,http://54.235.29.9/FacialAge/BNav_EC2/DepthDuration/v2_depth_duration_MTurk/v2_DepthDuration_HTML.html#95,95,1920,979,1920,1080,8-21-2022,6-35-28,46,depth_duration_stimuli/002763_2014-06-22_19-13-10_094959634447_rgbf000075-resize_4/002763_2014-06-22_19-13-10_094959634447_rgbf000075-resize_4-target.png,125,1.68375,4,2068,127,feet,jsons/VE125_randls_66.json,549306,827029,27,Man
46,112343,DepthScenes,duration_manipulation_targetAtFixation,jsons/VE125_randls_66.json,http://54.235.29.9/FacialAge/BNav_EC2/DepthDuration/v2_depth_duration_MTurk/v2_DepthDuration_HTML.html#95,95,1920,979,1920,1080,8-21-2022,6-35-28,47,depth_duration_stimuli/002209_2014-06-28_18-36-10_260595134347_rgbf000051-resize_1/002209_2014-06-28_18-36-10_260595134347_rgbf000051-resize_1-target.png,125,2.057,3,1583,111,feet,jsons/VE125_randls_66.json,549306,827029,27,Man
47,112343,DepthScenes,duration_manipulation_targetAtFixation,jsons/VE125_randls_66.json,http://54.235.29.9/FacialAge/BNav_EC2/DepthDuration/v2_depth_duration_MTurk/v2_DepthDuration_HTML.html#95,95,1920,979,1920,1080,8-21-2022,6-35-28,48,depth_duration_stimuli/000642_2014-06-08_16-59-25_260595134347_rgbf000098-resize_2/000642_2014-06-08_16-59-25_260595134347_rgbf000098-resize_2-target.png,125,2.8815,4,3137,127,feet,jsons/VE125_randls_66.json,549306,827029,27,Man
48,112343,DepthScenes,duration_manipulation_targetAtFixation,jsons/VE125_randls_66.json,http://54.235.29.9/FacialAge/BNav_EC2/DepthDuration/v2_depth_duration_MTurk/v2_DepthDuration_HTML.html#95,95,1920,979,1920,1080,8-21-2022,6-35-28,49,depth_duration_stimuli/002425_2014-06-28_20-27-29_260595134347_rgbf000031-resize_8/002425_2014-06-28_20-27-29_260595134347_rgbf000031-resize_8-target.png,125,3.8960000000000004,7,1870,128,feet,jsons/VE125_randls_66.json,549306,827029,27,Man
49,112343,DepthScenes,duration_manipulation_targetAtFixation,jsons/VE125_randls_66.json,http://54.235.29.9/FacialAge/BNav_EC2/DepthDuration/v2_depth_duration_MTurk/v2_DepthDuration_HTML.html#95,95,1920,979,1920,1080,8-21-2022,6-35-28,50,depth_duration_stimuli/001810_2014-06-26_20-51-35_260595134347_rgbf000040-resize_3/001810_2014-06-26_20-51-35_260595134347_rgbf000040-resize_3-target.png,125,2.2525,4,1487,128,feet,jsons/VE125_randls_66.json,549306,827029,27,Man
50,112343,DepthScenes,duration_manipulation_targetAtFixation,jsons/VE125_randls_66.json,http://54.235.29.9/FacialAge/BNav_EC2/DepthDuration/v2_depth_duration_MTurk/v2_DepthDuration_HTML.html#95,95,1920,979,1920,1080,8-21-2022,6-35-28,51,depth_duration_stimuli/003010_2014-06-15_12-54-35_094959634447_rgbf000112-resize_0/003010_2014-06-15_12-54-35_094959634447_rgbf000112-resize_0-target.png,125,3.1185,6,5199,128,feet,jsons/VE125_randls_66.json,549306,827029,27,Man
51,112343,DepthScenes,duration_manipulation_targetAtFixation,jsons/VE125_randls_66.json,http://54.235.29.9/FacialAge/BNav_EC2/DepthDuration/v2_depth_duration_MTurk/v2_DepthDuration_HTML.html#95,95,1920,979,1920,1080,8-21-2022,6-35-28,52,depth_duration_stimuli/000447_2014-06-08_16-15-46_260595134347_rgbf000130-resize_1/000447_2014-06-08_16-15-46_260595134347_rgbf000130-resize_1-target.png,125,4.479,8,1956,127,feet,jsons/VE125_randls_66.json,549306,827029,27,Man
52,112343,DepthScenes,duration_manipulation_targetAtFixation,jsons/VE125_randls_66.json,http://54.235.29.9/FacialAge/BNav_EC2/DepthDuration/v2_depth_duration_MTurk/v2_DepthDuration_HTML.html#95,95,1920,979,1920,1080,8-21-2022,6-35-28,53,depth_duration_stimuli/001447_2014-06-19_17-00-32_260595134347_rgbf000082-resize_5/001447_2014-06-19_17-00-32_260595134347_rgbf000082-resize_5-target.png,125,4.13775,5,2446,128,feet,jsons/VE125_randls_66.json,549306,827029,27,Man
53,112343,DepthScenes,duration_manipulation_targetAtFixation,jsons/VE125_randls_66.json,http://54.235.29.9/FacialAge/BNav_EC2/DepthDuration/v2_depth_duration_MTurk/v2_DepthDuration_HTML.html#95,95,1920,979,1920,1080,8-21-2022,6-35-28,54,depth_duration_stimuli/002213_2014-06-28_18-37-58_260595134347_rgbf000055-resize_1/002213_2014-06-28_18-37-58_260595134347_rgbf000055-resize_1-target.png,125,3.62,9,2127,127,feet,jsons/VE125_randls_66.json,549306,827029,27,Man
54,112343,DepthScenes,duration_manipulation_targetAtFixation,jsons/VE125_randls_66.json,http://54.235.29.9/FacialAge/BNav_EC2/DepthDuration/v2_depth_duration_MTurk/v2_DepthDuration_HTML.html#95,95,1920,979,1920,1080,8-21-2022,6-35-28,55,depth_duration_stimuli/000691_2014-06-08_13-08-50_260595134347_rgbf000132-resize_3/000691_2014-06-08_13-08-50_260595134347_rgbf000132-resize_3-target.png,125,4.1530000000000005,5,1913,125,feet,jsons/VE125_randls_66.json,549306,827029,27,Man
55,112343,DepthScenes,duration_manipulation_targetAtFixation,jsons/VE125_randls_66.json,http://54.235.29.9/FacialAge/BNav_EC2/DepthDuration/v2_depth_duration_MTurk/v2_DepthDuration_HTML.html#95,95,1920,979,1920,1080,8-21-2022,6-35-28,56,depth_duration_stimuli/000810_2014-06-08_17-20-01_260595134347_rgbf000105-resize_0/000810_2014-06-08_17-20-01_260595134347_rgbf000105-resize_0-target.png,125,1.4865,3,1490,125,feet,jsons/VE125_randls_66.json,549306,827029,27,Man
56,112343,DepthScenes,duration_manipulation_targetAtFixation,jsons/VE125_randls_66.json,http://54.235.29.9/FacialAge/BNav_EC2/DepthDuration/v2_depth_duration_MTurk/v2_DepthDuration_HTML.html#95,95,1920,979,1920,1080,8-21-2022,6-35-28,57,depth_duration_stimuli/001214_2014-06-17_16-13-55_260595134347_rgbf000111-resize_0/001214_2014-06-17_16-13-55_260595134347_rgbf000111-resize_0-target.png,125,2.6505,4,1552,127,feet,jsons/VE125_randls_66.json,549306,827029,27,Man
57,112343,DepthScenes,duration_manipulation_targetAtFixation,jsons/VE125_randls_66.json,http://54.235.29.9/FacialAge/BNav_EC2/DepthDuration/v2_depth_duration_MTurk/v2_DepthDuration_HTML.html#95,95,1920,979,1920,1080,8-21-2022,6-35-28,58,depth_duration_stimuli/001175_2014-06-17_15-45-55_260595134347_rgbf000129-resize_4/001175_2014-06-17_15-45-55_260595134347_rgbf000129-resize_4-target.png,125,4.255,8,2180,126,feet,jsons/VE125_randls_66.json,549306,827029,27,Man
58,112343,DepthScenes,duration_manipulation_targetAtFixation,jsons/VE125_randls_66.json,http://54.235.29.9/FacialAge/BNav_EC2/DepthDuration/v2_depth_duration_MTurk/v2_DepthDuration_HTML.html#95,95,1920,979,1920,1080,8-21-2022,6-35-28,59,depth_duration_stimuli/003490_2014-05-21_15-50-11_094959634447_rgbf000101-resize_3/003490_2014-05-21_15-50-11_094959634447_rgbf000101-resize_3-target.png,125,3.6445,5,2609,126,feet,jsons/VE125_randls_66.json,549306,827029,27,Man
59,112343,DepthScenes,duration_manipulation_targetAtFixation,jsons/VE125_randls_66.json,http://54.235.29.9/FacialAge/BNav_EC2/DepthDuration/v2_depth_duration_MTurk/v2_DepthDuration_HTML.html#95,95,1920,979,1920,1080,8-21-2022,6-35-28,60,depth_duration_stimuli/000739_2014-06-08_18-45-58_260595134347_rgbf000068-resize_1/000739_2014-06-08_18-45-58_260595134347_rgbf000068-resize_1-target.png,125,3.534,5,1414,111,feet,jsons/VE125_randls_66.json,549306,827029,27,Man
60,112343,DepthScenes,duration_manipulation_targetAtFixation,jsons/VE125_randls_66.json,http://54.235.29.9/FacialAge/BNav_EC2/DepthDuration/v2_depth_duration_MTurk/v2_DepthDuration_HTML.html#95,95,1920,979,1920,1080,8-21-2022,6-35-28,61,depth_duration_stimuli/000734_2014-06-08_17-39-11_260595134347_rgbf000128-resize_2/000734_2014-06-08_17-39-11_260595134347_rgbf000128-resize_2-target.png,125,4.098,6,1513,128,feet,jsons/VE125_randls_66.json,549306,827029,27,Man
61,112343,DepthScenes,duration_manipulation_targetAtFixation,jsons/VE125_randls_66.json,http://54.235.29.9/FacialAge/BNav_EC2/DepthDuration/v2_depth_duration_MTurk/v2_DepthDuration_HTML.html#95,95,1920,979,1920,1080,8-21-2022,6-35-28,62,depth_duration_stimuli/000929_2014-06-09_16-33-19_260595134347_rgbf000139-resize_0/000929_2014-06-09_16-33-19_260595134347_rgbf000139-resize_0-target.png,125,2.8680000000000003,6,2645,112,feet,jsons/VE125_randls_66.json,549306,827029,27,Man
62,112343,DepthScenes,duration_manipulation_targetAtFixation,jsons/VE125_randls_66.json,http://54.235.29.9/FacialAge/BNav_EC2/DepthDuration/v2_depth_duration_MTurk/v2_DepthDuration_HTML.html#95,95,1920,979,1920,1080,8-21-2022,6-35-28,63,depth_duration_stimuli/000457_2014-06-08_16-52-43_260595134347_rgbf000199-resize_1/000457_2014-06-08_16-52-43_260595134347_rgbf000199-resize_1-target.png,125,3.6489999999999996,7,7247,127,feet,jsons/VE125_randls_66.json,549306,827029,27,Man
63,112343,DepthScenes,duration_manipulation_targetAtFixation,jsons/VE125_randls_66.json,http://54.235.29.9/FacialAge/BNav_EC2/DepthDuration/v2_depth_duration_MTurk/v2_DepthDuration_HTML.html#95,95,1920,979,1920,1080,8-21-2022,6-35-28,64,depth_duration_stimuli/002964_2014-06-08_17-46-11_094959634447_rgbf000091-resize_4/002964_2014-06-08_17-46-11_094959634447_rgbf000091-resize_4-target.png,125,1.6909999999999998,3,1666,125,feet,jsons/VE125_randls_66.json,549306,827029,27,Man
64,112343,DepthScenes,duration_manipulation_targetAtFixation,jsons/VE125_randls_66.json,http://54.235.29.9/FacialAge/BNav_EC2/DepthDuration/v2_depth_duration_MTurk/v2_DepthDuration_HTML.html#95,95,1920,979,1920,1080,8-21-2022,6-35-28,65,depth_duration_stimuli/002136_2014-06-25_21-18-03_260595134347_rgbf000109-resize_3/002136_2014-06-25_21-18-03_260595134347_rgbf000109-resize_3-target.png,125,1.9569999999999999,3,1557,125,feet,jsons/VE125_randls_66.json,549306,827029,27,Man
65,112343,DepthScenes,duration_manipulation_targetAtFixation,jsons/VE125_randls_66.json,http://54.235.29.9/FacialAge/BNav_EC2/DepthDuration/v2_depth_duration_MTurk/v2_DepthDuration_HTML.html#95,95,1920,979,1920,1080,8-21-2022,6-35-28,66,depth_duration_stimuli/001222_2014-06-17_16-24-06_260595134347_rgbf000073-resize_0/001222_2014-06-17_16-24-06_260595134347_rgbf000073-resize-original.jpg,125,1.4385,0,1954,125,feet,jsons/VE125_randls_66.json,549306,827029,27,Man
66,112343,DepthScenes,duration_manipulation_targetAtFixation,jsons/VE125_randls_66.json,http://54.235.29.9/FacialAge/BNav_EC2/DepthDuration/v2_depth_duration_MTurk/v2_DepthDuration_HTML.html#95,95,1920,979,1920,1080,8-21-2022,6-35-28,67,depth_duration_stimuli/001011_2014-06-08_23-18-54_260595134347_rgbf000044-resize_4/001011_2014-06-08_23-18-54_260595134347_rgbf000044-resize_4-target.png,125,2.4730000000000003,5,5167,128,feet,jsons/VE125_randls_66.json,549306,827029,27,Man
67,112343,DepthScenes,duration_manipulation_targetAtFixation,jsons/VE125_randls_66.json,http://54.235.29.9/FacialAge/BNav_EC2/DepthDuration/v2_depth_duration_MTurk/v2_DepthDuration_HTML.html#95,95,1920,979,1920,1080,8-21-2022,6-35-28,68,depth_duration_stimuli/002875_2014-06-01_15-19-00_094959634447_rgbf000151-resize_1/002875_2014-06-01_15-19-00_094959634447_rgbf000151-resize_1-target.png,125,1.9675,4,1442,126,feet,jsons/VE125_randls_66.json,549306,827029,27,Man
68,112343,DepthScenes,duration_manipulation_targetAtFixation,jsons/VE125_randls_66.json,http://54.235.29.9/FacialAge/BNav_EC2/DepthDuration/v2_depth_duration_MTurk/v2_DepthDuration_HTML.html#95,95,1920,979,1920,1080,8-21-2022,6-35-28,69,depth_duration_stimuli/001066_2014-06-08_22-03-20_260595134347_rgbf000066-resize_4/001066_2014-06-08_22-03-20_260595134347_rgbf000066-resize_4-target.png,125,4.2330000000000005,6,2107,127,feet,jsons/VE125_randls_66.json,549306,827029,27,Man
69,112343,DepthScenes,duration_manipulation_targetAtFixation,jsons/VE125_randls_66.json,http://54.235.29.9/FacialAge/BNav_EC2/DepthDuration/v2_depth_duration_MTurk/v2_DepthDuration_HTML.html#95,95,1920,979,1920,1080,8-21-2022,6-35-28,70,depth_duration_stimuli/000742_2014-06-08_18-48-09_260595134347_rgbf000164-resize_4/000742_2014-06-08_18-48-09_260595134347_rgbf000164-resize_4-target.png,125,4.632,6,1699,127,feet,jsons/VE125_randls_66.json,549306,827029,27,Man
70,112343,DepthScenes,duration_manipulation_targetAtFixation,jsons/VE125_randls_66.json,http://54.235.29.9/FacialAge/BNav_EC2/DepthDuration/v2_depth_duration_MTurk/v2_DepthDuration_HTML.html#95,95,1920,979,1920,1080,8-21-2022,6-35-28,71,depth_duration_stimuli/002445_2014-06-28_20-32-16_260595134347_rgbf000029-resize_4/002445_2014-06-28_20-32-16_260595134347_rgbf000029-resize_4-target.png,125,2.5315,5,1612,124,feet,jsons/VE125_randls_66.json,549306,827029,27,Man
71,112343,DepthScenes,duration_manipulation_targetAtFixation,jsons/VE125_randls_66.json,http://54.235.29.9/FacialAge/BNav_EC2/DepthDuration/v2_depth_duration_MTurk/v2_DepthDuration_HTML.html#95,95,1920,979,1920,1080,8-21-2022,6-35-28,72,depth_duration_stimuli/000780_2014-06-08_22-28-29_260595134347_rgbf000126-resize_1/000780_2014-06-08_22-28-29_260595134347_rgbf000126-resize_1-target.png,125,3.3825,5,13602,124,feet,jsons/VE125_randls_66.json,549306,827029,27,Man
72,112343,DepthScenes,duration_manipulation_targetAtFixation,jsons/VE125_randls_66.json,http://54.235.29.9/FacialAge/BNav_EC2/DepthDuration/v2_depth_duration_MTurk/v2_DepthDuration_HTML.html#95,95,1920,979,1920,1080,8-21-2022,6-35-28,73,depth_duration_stimuli/002039_2014-06-24_20-22-38_260595134347_rgbf000084-resize_1/002039_2014-06-24_20-22-38_260595134347_rgbf000084-resize_1-target.png,125,4.408,6,10955,126,feet,jsons/VE125_randls_66.json,549306,827029,27,Man
73,112343,DepthScenes,duration_manipulation_targetAtFixation,jsons/VE125_randls_66.json,http://54.235.29.9/FacialAge/BNav_EC2/DepthDuration/v2_depth_duration_MTurk/v2_DepthDuration_HTML.html#95,95,1920,979,1920,1080,8-21-2022,6-35-28,74,depth_duration_stimuli/002103_2014-06-25_20-00-40_260595134347_rgbf000049-resize_0/002103_2014-06-25_20-00-40_260595134347_rgbf000049-resize_0-target.png,125,4.105,7,9859,127,feet,jsons/VE125_randls_66.json,549306,827029,27,Man
74,112343,DepthScenes,duration_manipulation_targetAtFixation,jsons/VE125_randls_66.json,http://54.235.29.9/FacialAge/BNav_EC2/DepthDuration/v2_depth_duration_MTurk/v2_DepthDuration_HTML.html#95,95,1920,979,1920,1080,8-21-2022,6-35-28,75,depth_duration_stimuli/001133_2014-06-17_14-49-16_260595134347_rgbf000100-resize_0/001133_2014-06-17_14-49-16_260595134347_rgbf000100-resize_0-target.png,125,4.2115,7,2774,125,feet,jsons/VE125_randls_66.json,549306,827029,27,Man
75,112343,DepthScenes,duration_manipulation_targetAtFixation,jsons/VE125_randls_66.json,http://54.235.29.9/FacialAge/BNav_EC2/DepthDuration/v2_depth_duration_MTurk/v2_DepthDuration_HTML.html#95,95,1920,979,1920,1080,8-21-2022,6-35-28,76,depth_duration_stimuli/001132_2014-06-17_14-48-54_260595134347_rgbf000100-resize_2/001132_2014-06-17_14-48-54_260595134347_rgbf000100-resize_2-target.png,125,3.753,5,2313,125,feet,jsons/VE125_randls_66.json,549306,827029,27,Man
76,112343,DepthScenes,duration_manipulation_targetAtFixation,jsons/VE125_randls_66.json,http://54.235.29.9/FacialAge/BNav_EC2/DepthDuration/v2_depth_duration_MTurk/v2_DepthDuration_HTML.html#95,95,1920,979,1920,1080,8-21-2022,6-35-28,77,depth_duration_stimuli/000773_2014-06-08_22-24-54_260595134347_rgbf000093-resize_1/000773_2014-06-08_22-24-54_260595134347_rgbf000093-resize_1-target.png,125,4.973,5,7109,116,feet,jsons/VE125_randls_66.json,549306,827029,27,Man
77,112343,DepthScenes,duration_manipulation_targetAtFixation,jsons/VE125_randls_66.json,http://54.235.29.9/FacialAge/BNav_EC2/DepthDuration/v2_depth_duration_MTurk/v2_DepthDuration_HTML.html#95,95,1920,979,1920,1080,8-21-2022,6-35-28,78,depth_duration_stimuli/002414_2014-06-28_20-24-58_260595134347_rgbf000067-resize_4/002414_2014-06-28_20-24-58_260595134347_rgbf000067-resize_4-target.png,125,4.363,7,5809,125,feet,jsons/VE125_randls_66.json,549306,827029,27,Man
78,112343,DepthScenes,duration_manipulation_targetAtFixation,jsons/VE125_randls_66.json,http://54.235.29.9/FacialAge/BNav_EC2/DepthDuration/v2_depth_duration_MTurk/v2_DepthDuration_HTML.html#95,95,1920,979,1920,1080,8-21-2022,6-35-28,79,depth_duration_stimuli/001555_2014-06-20_17-12-10_260595134347_rgbf000065-resize_4/001555_2014-06-20_17-12-10_260595134347_rgbf000065-resize_4-target.png,125,1.633,2,1901,126,feet,jsons/VE125_randls_66.json,549306,827029,27,Man
79,112343,DepthScenes,duration_manipulation_targetAtFixation,jsons/VE125_randls_66.json,http://54.235.29.9/FacialAge/BNav_EC2/DepthDuration/v2_depth_duration_MTurk/v2_DepthDuration_HTML.html#95,95,1920,979,1920,1080,8-21-2022,6-35-28,80,depth_duration_stimuli/000103_2014-05-14_22-01-17_260595134347_rgbf000152-resize_5/000103_2014-05-14_22-01-17_260595134347_rgbf000152-resize_5-target.png,125,1.993,6,1949,126,feet,jsons/VE125_randls_66.json,549306,827029,27,Man
80,112343,DepthScenes,duration_manipulation_targetAtFixation,jsons/VE125_randls_66.json,http://54.235.29.9/FacialAge/BNav_EC2/DepthDuration/v2_depth_duration_MTurk/v2_DepthDuration_HTML.html#95,95,1920,979,1920,1080,8-21-2022,6-35-28,81,depth_duration_stimuli/001167_2014-06-17_15-38-07_260595134347_rgbf000108-resize_0/001167_2014-06-17_15-38-07_260595134347_rgbf000108-resize_0-target.png,125,1.8505,2,2711,139,feet,jsons/VE125_randls_66.json,549306,827029,27,Man
81,112343,DepthScenes,duration_manipulation_targetAtFixation,jsons/VE125_randls_66.json,http://54.235.29.9/FacialAge/BNav_EC2/DepthDuration/v2_depth_duration_MTurk/v2_DepthDuration_HTML.html#95,95,1920,979,1920,1080,8-21-2022,6-35-28,82,depth_duration_stimuli/003587_2014-05-23_16-48-02_094959634447_rgbf002384-resize_2/003587_2014-05-23_16-48-02_094959634447_rgbf002384-resize_2-target.png,125,1.357,2,1547,127,feet,jsons/VE125_randls_66.json,549306,827029,27,Man
82,112343,DepthScenes,duration_manipulation_targetAtFixation,jsons/VE125_randls_66.json,http://54.235.29.9/FacialAge/BNav_EC2/DepthDuration/v2_depth_duration_MTurk/v2_DepthDuration_HTML.html#95,95,1920,979,1920,1080,8-21-2022,6-35-28,83,depth_duration_stimuli/000493_2014-06-09_21-01-18_260595134347_rgbf000196-resize_3/000493_2014-06-09_21-01-18_260595134347_rgbf000196-resize_3-target.png,125,3.44,5,1668,126,feet,jsons/VE125_randls_66.json,549306,827029,27,Man
83,112343,DepthScenes,duration_manipulation_targetAtFixation,jsons/VE125_randls_66.json,http://54.235.29.9/FacialAge/BNav_EC2/DepthDuration/v2_depth_duration_MTurk/v2_DepthDuration_HTML.html#95,95,1920,979,1920,1080,8-21-2022,6-35-28,84,depth_duration_stimuli/000191_2014-05-12_17-07-38_260595134347_rgbf000199-resize_0/000191_2014-05-12_17-07-38_260595134347_rgbf000199-resize_0-target.png,125,3.7995,9,1979,109,feet,jsons/VE125_randls_66.json,549306,827029,27,Man
84,112343,DepthScenes,duration_manipulation_targetAtFixation,jsons/VE125_randls_66.json,http://54.235.29.9/FacialAge/BNav_EC2/DepthDuration/v2_depth_duration_MTurk/v2_DepthDuration_HTML.html#95,95,1920,979,1920,1080,8-21-2022,6-35-28,85,depth_duration_stimuli/002988_2014-06-15_12-24-20_094959634447_rgbf000150-resize_1/002988_2014-06-15_12-24-20_094959634447_rgbf000150-resize_1-target.png,125,4.7669999999999995,6,4802,128,feet,jsons/VE125_randls_66.json,549306,827029,27,Man
85,112343,DepthScenes,duration_manipulation_targetAtFixation,jsons/VE125_randls_66.json,http://54.235.29.9/FacialAge/BNav_EC2/DepthDuration/v2_depth_duration_MTurk/v2_DepthDuration_HTML.html#95,95,1920,979,1920,1080,8-21-2022,6-35-28,86,depth_duration_stimuli/001052_2014-06-08_18-24-54_260595134347_rgbf000130-resize_1/001052_2014-06-08_18-24-54_260595134347_rgbf000130-resize_1-target.png,125,4.1045,6,1447,126,feet,jsons/VE125_randls_66.json,549306,827029,27,Man
86,112343,DepthScenes,duration_manipulation_targetAtFixation,jsons/VE125_randls_66.json,http://54.235.29.9/FacialAge/BNav_EC2/DepthDuration/v2_depth_duration_MTurk/v2_DepthDuration_HTML.html#95,95,1920,979,1920,1080,8-21-2022,6-35-28,87,depth_duration_stimuli/000522_2014-06-08_13-35-06_260595134347_rgbf000244-resize_1/000522_2014-06-08_13-35-06_260595134347_rgbf000244-resize_1-target.png,125,2.3715,1,1316,112,feet,jsons/VE125_randls_66.json,549306,827029,27,Man
87,112343,DepthScenes,duration_manipulation_targetAtFixation,jsons/VE125_randls_66.json,http://54.235.29.9/FacialAge/BNav_EC2/DepthDuration/v2_depth_duration_MTurk/v2_DepthDuration_HTML.html#95,95,1920,979,1920,1080,8-21-2022,6-35-28,88,depth_duration_stimuli/002949_2014-06-26_15-57-42_094959634447_rgbf000079-resize_1/002949_2014-06-26_15-57-42_094959634447_rgbf000079-resize_1-target.png,125,1.8915,3,1400,123,feet,jsons/VE125_randls_66.json,549306,827029,27,Man
88,112343,DepthScenes,duration_manipulation_targetAtFixation,jsons/VE125_randls_66.json,http://54.235.29.9/FacialAge/BNav_EC2/DepthDuration/v2_depth_duration_MTurk/v2_DepthDuration_HTML.html#95,95,1920,979,1920,1080,8-21-2022,6-35-28,89,depth_duration_stimuli/002905_2014-06-03_18-04-43_094959634447_rgbf000151-resize_2/002905_2014-06-03_18-04-43_094959634447_rgbf000151-resize_2-target.png,125,2.0295,4,4779,127,feet,jsons/VE125_randls_66.json,549306,827029,27,Man
89,112343,DepthScenes,duration_manipulation_targetAtFixation,jsons/VE125_randls_66.json,http://54.235.29.9/FacialAge/BNav_EC2/DepthDuration/v2_depth_duration_MTurk/v2_DepthDuration_HTML.html#95,95,1920,979,1920,1080,8-21-2022,6-35-28,90,depth_duration_stimuli/003423_2014-05-21_10-23-26_094959634447_rgbf002665-resize_2/003423_2014-05-21_10-23-26_094959634447_rgbf002665-resize_2-target.png,125,3.2575,5,5934,126,feet,jsons/VE125_randls_66.json,549306,827029,27,Man
90,112343,DepthScenes,duration_manipulation_targetAtFixation,jsons/VE125_randls_66.json,http://54.235.29.9/FacialAge/BNav_EC2/DepthDuration/v2_depth_duration_MTurk/v2_DepthDuration_HTML.html#95,95,1920,979,1920,1080,8-21-2022,6-35-28,91,depth_duration_stimuli/000917_2014-06-09_22-45-29_260595134347_rgbf000149-resize_3/000917_2014-06-09_22-45-29_260595134347_rgbf000149-resize_3-target.png,125,4.1865,6,2149,125,feet,jsons/VE125_randls_66.json,549306,827029,27,Man
91,112343,DepthScenes,duration_manipulation_targetAtFixation,jsons/VE125_randls_66.json,http://54.235.29.9/FacialAge/BNav_EC2/DepthDuration/v2_depth_duration_MTurk/v2_DepthDuration_HTML.html#95,95,1920,979,1920,1080,8-21-2022,6-35-28,92,depth_duration_stimuli/002323_2014-06-28_20-01-54_260595134347_rgbf000051-resize_4/002323_2014-06-28_20-01-54_260595134347_rgbf000051-resize_4-target.png,125,3.7310000000000003,7,1663,126,feet,jsons/VE125_randls_66.json,549306,827029,27,Man
92,112343,DepthScenes,duration_manipulation_targetAtFixation,jsons/VE125_randls_66.json,http://54.235.29.9/FacialAge/BNav_EC2/DepthDuration/v2_depth_duration_MTurk/v2_DepthDuration_HTML.html#95,95,1920,979,1920,1080,8-21-2022,6-35-28,93,depth_duration_stimuli/001150_2014-06-17_15-27-34_260595134347_rgbf000108-resize_2/001150_2014-06-17_15-27-34_260595134347_rgbf000108-resize_2-target.png,125,4.0325,8,3102,127,feet,jsons/VE125_randls_66.json,549306,827029,27,Man
93,112343,DepthScenes,duration_manipulation_targetAtFixation,jsons/VE125_randls_66.json,http://54.235.29.9/FacialAge/BNav_EC2/DepthDuration/v2_depth_duration_MTurk/v2_DepthDuration_HTML.html#95,95,1920,979,1920,1080,8-21-2022,6-35-28,94,depth_duration_stimuli/000665_2014-06-09_20-42-35_260595134347_rgbf000110-resize_1/000665_2014-06-09_20-42-35_260595134347_rgbf000110-resize_1-target.png,125,3.057,5,3268,125,feet,jsons/VE125_randls_66.json,549306,827029,27,Man
94,112343,DepthScenes,duration_manipulation_targetAtFixation,jsons/VE125_randls_66.json,http://54.235.29.9/FacialAge/BNav_EC2/DepthDuration/v2_depth_duration_MTurk/v2_DepthDuration_HTML.html#95,95,1920,979,1920,1080,8-21-2022,6-35-28,95,depth_duration_stimuli/001808_2014-06-26_20-50-58_260595134347_rgbf000029-resize_1/001808_2014-06-26_20-50-58_260595134347_rgbf000029-resize_1-target.png,125,4.249,8,1823,127,feet,jsons/VE125_randls_66.json,549306,827029,27,Man
95,112343,DepthScenes,duration_manipulation_targetAtFixation,jsons/VE125_randls_66.json,http://54.235.29.9/FacialAge/BNav_EC2/DepthDuration/v2_depth_duration_MTurk/v2_DepthDuration_HTML.html#95,95,1920,979,1920,1080,8-21-2022,6-35-28,96,depth_duration_stimuli/001815_2014-06-26_20-52-55_260595134347_rgbf000020-resize_0/001815_2014-06-26_20-52-55_260595134347_rgbf000020-resize_0-target.png,125,3.3865,8,2034,125,feet,jsons/VE125_randls_66.json,549306,827029,27,Man
96,112343,DepthScenes,duration_manipulation_targetAtFixation,jsons/VE125_randls_66.json,http://54.235.29.9/FacialAge/BNav_EC2/DepthDuration/v2_depth_duration_MTurk/v2_DepthDuration_HTML.html#95,95,1920,979,1920,1080,8-21-2022,6-35-28,97,depth_duration_stimuli/002509_2014-06-24_13-19-22_094959634447_rgbf000077-resize_0/002509_2014-06-24_13-19-22_094959634447_rgbf000077-resize_0-target.png,125,1.3065,3,1664,111,feet,jsons/VE125_randls_66.json,549306,827029,27,Man
97,112343,DepthScenes,duration_manipulation_targetAtFixation,jsons/VE125_randls_66.json,http://54.235.29.9/FacialAge/BNav_EC2/DepthDuration/v2_depth_duration_MTurk/v2_DepthDuration_HTML.html#95,95,1920,979,1920,1080,8-21-2022,6-35-28,98,depth_duration_stimuli/003338_2014-05-20_11-01-23_094959634447_rgbf000051-resize_6/003338_2014-05-20_11-01-23_094959634447_rgbf000051-resize_6-target.png,125,1.693,3,1475,125,feet,jsons/VE125_randls_66.json,549306,827029,27,Man
98,112343,DepthScenes,duration_manipulation_targetAtFixation,jsons/VE125_randls_66.json,http://54.235.29.9/FacialAge/BNav_EC2/DepthDuration/v2_depth_duration_MTurk/v2_DepthDuration_HTML.html#95,95,1920,979,1920,1080,8-21-2022,6-35-28,99,depth_duration_stimuli/001540_2014-06-20_17-01-05_260595134347_rgbf000086-resize_2/001540_2014-06-20_17-01-05_260595134347_rgbf000086-resize-original.jpg,125,1.459,0,2461,126,feet,jsons/VE125_randls_66.json,549306,827029,27,Man
99,112343,DepthScenes,duration_manipulation_targetAtFixation,jsons/VE125_randls_66.json,http://54.235.29.9/FacialAge/BNav_EC2/DepthDuration/v2_depth_duration_MTurk/v2_DepthDuration_HTML.html#95,95,1920,979,1920,1080,8-21-2022,6-35-28,100,depth_duration_stimuli/000758_2014-06-08_22-05-08_260595134347_rgbf000085-resize_0/000758_2014-06-08_22-05-08_260595134347_rgbf000085-resize_0-target.png,125,3.3810000000000002,6,1754,137,feet,jsons/VE125_randls_66.json,549306,827029,27,Man
100,112343,DepthScenes,duration_manipulation_targetAtFixation,jsons/VE125_randls_66.json,http://54.235.29.9/FacialAge/BNav_EC2/DepthDuration/v2_depth_duration_MTurk/v2_DepthDuration_HTML.html#95,95,1920,979,1920,1080,8-21-2022,6-35-28,101,depth_duration_stimuli/000854_2014-06-09_19-43-13_260595134347_rgbf000066-resize_0/000854_2014-06-09_19-43-13_260595134347_rgbf000066-resize_0-target.png,125,3.068,4,4864,124,feet,jsons/VE125_randls_66.json,549306,827029,27,Man
101,112343,DepthScenes,duration_manipulation_targetAtFixation,jsons/VE125_randls_66.json,http://54.235.29.9/FacialAge/BNav_EC2/DepthDuration/v2_depth_duration_MTurk/v2_DepthDuration_HTML.html#95,95,1920,979,1920,1080,8-21-2022,6-35-28,102,depth_duration_stimuli/000506_2014-06-08_23-21-00_260595134347_rgbf000070-resize_7/000506_2014-06-08_23-21-00_260595134347_rgbf000070-resize_7-target.png,125,4.0585,8,2442,121,feet,jsons/VE125_randls_66.json,549306,827029,27,Man
102,112343,DepthScenes,duration_manipulation_targetAtFixation,jsons/VE125_randls_66.json,http://54.235.29.9/FacialAge/BNav_EC2/DepthDuration/v2_depth_duration_MTurk/v2_DepthDuration_HTML.html#95,95,1920,979,1920,1080,8-21-2022,6-35-28,103,depth_duration_stimuli/003079_2014-06-15_15-18-20_094959634447_rgbf000152-resize_8/003079_2014-06-15_15-18-20_094959634447_rgbf000152-resize_8-target.png,125,2.8775,7,2010,125,feet,jsons/VE125_randls_66.json,549306,827029,27,Man
103,112343,DepthScenes,duration_manipulation_targetAtFixation,jsons/VE125_randls_66.json,http://54.235.29.9/FacialAge/BNav_EC2/DepthDuration/v2_depth_duration_MTurk/v2_DepthDuration_HTML.html#95,95,1920,979,1920,1080,8-21-2022,6-35-28,104,depth_duration_stimuli/001417_2014-06-19_16-25-36_260595134347_rgbf000115-resize_5/001417_2014-06-19_16-25-36_260595134347_rgbf000115-resize_5-target.png,125,4.6255,7,3222,126,feet,jsons/VE125_randls_66.json,549306,827029,27,Man
104,112343,DepthScenes,duration_manipulation_targetAtFixation,jsons/VE125_randls_66.json,http://54.235.29.9/FacialAge/BNav_EC2/DepthDuration/v2_depth_duration_MTurk/v2_DepthDuration_HTML.html#95,95,1920,979,1920,1080,8-21-2022,6-35-28,105,depth_duration_stimuli/003081_2014-06-15_15-19-16_094959634447_rgbf000150-resize_1/003081_2014-06-15_15-19-16_094959634447_rgbf000150-resize_1-target.png,125,3.9125,6,6142,124,feet,jsons/VE125_randls_66.json,549306,827029,27,Man
105,112343,DepthScenes,duration_manipulation_targetAtFixation,jsons/VE125_randls_66.json,http://54.235.29.9/FacialAge/BNav_EC2/DepthDuration/v2_depth_duration_MTurk/v2_DepthDuration_HTML.html#95,95,1920,979,1920,1080,8-21-2022,6-35-28,106,depth_duration_stimuli/000470_2014-06-09_19-42-40_260595134347_rgbf000094-resize_1/000470_2014-06-09_19-42-40_260595134347_rgbf000094-resize_1-target.png,125,1.831,0,3702,117,feet,jsons/VE125_randls_66.json,549306,827029,27,Man
106,112343,DepthScenes,duration_manipulation_targetAtFixation,jsons/VE125_randls_66.json,http://54.235.29.9/FacialAge/BNav_EC2/DepthDuration/v2_depth_duration_MTurk/v2_DepthDuration_HTML.html#95,95,1920,979,1920,1080,8-21-2022,6-35-28,107,depth_duration_stimuli/000109_2014-05-14_23-41-52_260595134347_rgbf000035-resize_9/000109_2014-05-14_23-41-52_260595134347_rgbf000035-resize_9-target.png,125,1.3545,3,5150,123,feet,jsons/VE125_randls_66.json,549306,827029,27,Man
107,112343,DepthScenes,duration_manipulation_targetAtFixation,jsons/VE125_randls_66.json,http://54.235.29.9/FacialAge/BNav_EC2/DepthDuration/v2_depth_duration_MTurk/v2_DepthDuration_HTML.html#95,95,1920,979,1920,1080,8-21-2022,6-35-28,108,depth_duration_stimuli/002118_2014-06-25_20-32-08_260595134347_rgbf000078-resize_1/002118_2014-06-25_20-32-08_260595134347_rgbf000078-resize_1-target.png,125,2.6460000000000004,6,1781,127,feet,jsons/VE125_randls_66.json,549306,827029,27,Man
108,112343,DepthScenes,duration_manipulation_targetAtFixation,jsons/VE125_randls_66.json,http://54.235.29.9/FacialAge/BNav_EC2/DepthDuration/v2_depth_duration_MTurk/v2_DepthDuration_HTML.html#95,95,1920,979,1920,1080,8-21-2022,6-35-28,109,depth_duration_stimuli/001516_2014-06-20_16-25-09_260595134347_rgbf000076-resize_2/001516_2014-06-20_16-25-09_260595134347_rgbf000076-resize_2-target.png,125,1.7445,3,1708,125,feet,jsons/VE125_randls_66.json,549306,827029,27,Man
109,112343,DepthScenes,duration_manipulation_targetAtFixation,jsons/VE125_randls_66.json,http://54.235.29.9/FacialAge/BNav_EC2/DepthDuration/v2_depth_duration_MTurk/v2_DepthDuration_HTML.html#95,95,1920,979,1920,1080,8-21-2022,6-35-28,110,depth_duration_stimuli/000788_2014-06-08_22-34-36_260595134347_rgbf000131-resize_1/000788_2014-06-08_22-34-36_260595134347_rgbf000131-resize_1-target.png,125,3.359,6,1581,110,feet,jsons/VE125_randls_66.json,549306,827029,27,Man
110,112343,DepthScenes,duration_manipulation_targetAtFixation,jsons/VE125_randls_66.json,http://54.235.29.9/FacialAge/BNav_EC2/DepthDuration/v2_depth_duration_MTurk/v2_DepthDuration_HTML.html#95,95,1920,979,1920,1080,8-21-2022,6-35-28,111,depth_duration_stimuli/001235_2014-06-17_16-37-36_260595134347_rgbf000084-resize_4/001235_2014-06-17_16-37-36_260595134347_rgbf000084-resize_4-target.png,125,3.6605,6,4291,121,feet,jsons/VE125_randls_66.json,549306,827029,27,Man
111,112343,DepthScenes,duration_manipulation_targetAtFixation,jsons/VE125_randls_66.json,http://54.235.29.9/FacialAge/BNav_EC2/DepthDuration/v2_depth_duration_MTurk/v2_DepthDuration_HTML.html#95,95,1920,979,1920,1080,8-21-2022,6-35-28,112,depth_duration_stimuli/002057_2014-06-24_21-00-13_260595134347_rgbf000120-resize_1/002057_2014-06-24_21-00-13_260595134347_rgbf000120-resize_1-target.png,125,2.967,8,2104,125,feet,jsons/VE125_randls_66.json,549306,827029,27,Man
112,112343,DepthScenes,duration_manipulation_targetAtFixation,jsons/VE125_randls_66.json,http://54.235.29.9/FacialAge/BNav_EC2/DepthDuration/v2_depth_duration_MTurk/v2_DepthDuration_HTML.html#95,95,1920,979,1920,1080,8-21-2022,6-35-28,113,depth_duration_stimuli/000709_2014-06-08_13-51-55_260595134347_rgbf000068-resize_3/000709_2014-06-08_13-51-55_260595134347_rgbf000068-resize_3-target.png,125,1.8030000000000002,0,2754,124,feet,jsons/VE125_randls_66.json,549306,827029,27,Man
113,112343,DepthScenes,duration_manipulation_targetAtFixation,jsons/VE125_randls_66.json,http://54.235.29.9/FacialAge/BNav_EC2/DepthDuration/v2_depth_duration_MTurk/v2_DepthDuration_HTML.html#95,95,1920,979,1920,1080,8-21-2022,6-35-28,114,depth_duration_stimuli/002375_2014-06-28_20-13-44_260595134347_rgbf000032-resize_1/002375_2014-06-28_20-13-44_260595134347_rgbf000032-resize_1-target.png,125,4.0175,5,1558,127,feet,jsons/VE125_randls_66.json,549306,827029,27,Man
114,112343,DepthScenes,duration_manipulation_targetAtFixation,jsons/VE125_randls_66.json,http://54.235.29.9/FacialAge/BNav_EC2/DepthDuration/v2_depth_duration_MTurk/v2_DepthDuration_HTML.html#95,95,1920,979,1920,1080,8-21-2022,6-35-28,115,depth_duration_stimuli/002657_2014-06-13_15-29-54_094959634447_rgbf000150-resize_1/002657_2014-06-13_15-29-54_094959634447_rgbf000150-resize_1-target.png,125,4.919,8,1812,127,feet,jsons/VE125_randls_66.json,549306,827029,27,Man
115,112343,DepthScenes,duration_manipulation_targetAtFixation,jsons/VE125_randls_66.json,http://54.235.29.9/FacialAge/BNav_EC2/DepthDuration/v2_depth_duration_MTurk/v2_DepthDuration_HTML.html#95,95,1920,979,1920,1080,8-21-2022,6-35-28,116,depth_duration_stimuli/001170_2014-06-17_15-43-44_260595134347_rgbf000096-resize_6/001170_2014-06-17_15-43-44_260595134347_rgbf000096-resize-original.jpg,125,1.1909999999999998,0,1673,122,feet,jsons/VE125_randls_66.json,549306,827029,27,Man
116,112343,DepthScenes,duration_manipulation_targetAtFixation,jsons/VE125_randls_66.json,http://54.235.29.9/FacialAge/BNav_EC2/DepthDuration/v2_depth_duration_MTurk/v2_DepthDuration_HTML.html#95,95,1920,979,1920,1080,8-21-2022,6-35-28,117,depth_duration_stimuli/001029_2014-06-08_13-17-57_260595134347_rgbf000065-resize_1/001029_2014-06-08_13-17-57_260595134347_rgbf000065-resize_1-target.png,125,3.0835,5,1527,139,feet,jsons/VE125_randls_66.json,549306,827029,27,Man
117,112343,DepthScenes,duration_manipulation_targetAtFixation,jsons/VE125_randls_66.json,http://54.235.29.9/FacialAge/BNav_EC2/DepthDuration/v2_depth_duration_MTurk/v2_DepthDuration_HTML.html#95,95,1920,979,1920,1080,8-21-2022,6-35-28,118,depth_duration_stimuli/000677_2014-06-08_23-10-32_260595134347_rgbf000158-resize_6/000677_2014-06-08_23-10-32_260595134347_rgbf000158-resize_6-target.png,125,3.556,5,1548,112,feet,jsons/VE125_randls_66.json,549306,827029,27,Man
118,112343,DepthScenes,duration_manipulation_targetAtFixation,jsons/VE125_randls_66.json,http://54.235.29.9/FacialAge/BNav_EC2/DepthDuration/v2_depth_duration_MTurk/v2_DepthDuration_HTML.html#95,95,1920,979,1920,1080,8-21-2022,6-35-28,119,depth_duration_stimuli/001806_2014-06-26_20-50-20_260595134347_rgbf000091-resize_1/001806_2014-06-26_20-50-20_260595134347_rgbf000091-resize_1-target.png,125,2.7305,4,1447,111,feet,jsons/VE125_randls_66.json,549306,827029,27,Man
119,112343,DepthScenes,duration_manipulation_targetAtFixation,jsons/VE125_randls_66.json,http://54.235.29.9/FacialAge/BNav_EC2/DepthDuration/v2_depth_duration_MTurk/v2_DepthDuration_HTML.html#95,95,1920,979,1920,1080,8-21-2022,6-35-28,120,depth_duration_stimuli/001617_2014-06-20_11-35-32_260595134347_rgbf000066-resize_1/001617_2014-06-20_11-35-32_260595134347_rgbf000066-resize_1-target.png,125,3.7910000000000004,6,1425,126,feet,jsons/VE125_randls_66.json,549306,827029,27,Man
120,112343,DepthScenes,duration_manipulation_targetAtFixation,jsons/VE125_randls_66.json,http://54.235.29.9/FacialAge/BNav_EC2/DepthDuration/v2_depth_duration_MTurk/v2_DepthDuration_HTML.html#95,95,1920,979,1920,1080,8-21-2022,6-35-28,121,depth_duration_stimuli/000414_2014-06-04_19-49-13_260595134347_rgbf000044-resize_0/000414_2014-06-04_19-49-13_260595134347_rgbf000044-resize_0-target.png,125,4.329,8,1479,127,feet,jsons/VE125_randls_66.json,549306,827029,27,Man
121,112343,DepthScenes,duration_manipulation_targetAtFixation,jsons/VE125_randls_66.json,http://54.235.29.9/FacialAge/BNav_EC2/DepthDuration/v2_depth_duration_MTurk/v2_DepthDuration_HTML.html#95,95,1920,979,1920,1080,8-21-2022,6-35-28,122,depth_duration_stimuli/003129_2014-05-12_10-48-10_094959634447_rgbf000100-resize_0/003129_2014-05-12_10-48-10_094959634447_rgbf000100-resize_0-target.png,125,4.9305,7,1396,128,feet,jsons/VE125_randls_66.json,549306,827029,27,Man
122,112343,DepthScenes,duration_manipulation_targetAtFixation,jsons/VE125_randls_66.json,http://54.235.29.9/FacialAge/BNav_EC2/DepthDuration/v2_depth_duration_MTurk/v2_DepthDuration_HTML.html#95,95,1920,979,1920,1080,8-21-2022,6-35-28,123,depth_duration_stimuli/002663_2014-06-13_15-50-26_094959634447_rgbf000075-resize_1/002663_2014-06-13_15-50-26_094959634447_rgbf000075-resize_1-target.png,125,4.7495,6,1485,126,feet,jsons/VE125_randls_66.json,549306,827029,27,Man
123,112343,DepthScenes,duration_manipulation_targetAtFixation,jsons/VE125_randls_66.json,http://54.235.29.9/FacialAge/BNav_EC2/DepthDuration/v2_depth_duration_MTurk/v2_DepthDuration_HTML.html#95,95,1920,979,1920,1080,8-21-2022,6-35-28,124,depth_duration_stimuli/000409_2014-06-04_19-23-33_260595134347_rgbf000067-resize_0/000409_2014-06-04_19-23-33_260595134347_rgbf000067-resize_0-target.png,125,3.7335,6,2615,125,feet,jsons/VE125_randls_66.json,549306,827029,27,Man
124,112343,DepthScenes,duration_manipulation_targetAtFixation,jsons/VE125_randls_66.json,http://54.235.29.9/FacialAge/BNav_EC2/DepthDuration/v2_depth_duration_MTurk/v2_DepthDuration_HTML.html#95,95,1920,979,1920,1080,8-21-2022,6-35-28,125,depth_duration_stimuli/000682_2014-06-08_23-14-58_260595134347_rgbf000041-resize_5/000682_2014-06-08_23-14-58_260595134347_rgbf000041-resize_5-target.png,125,2.7239999999999998,4,2655,124,feet,jsons/VE125_randls_66.json,549306,827029,27,Man
125,112343,DepthScenes,duration_manipulation_targetAtFixation,jsons/VE125_randls_66.json,http://54.235.29.9/FacialAge/BNav_EC2/DepthDuration/v2_depth_duration_MTurk/v2_DepthDuration_HTML.html#95,95,1920,979,1920,1080,8-21-2022,6-35-28,126,depth_duration_stimuli/001650_2014-06-20_12-09-00_260595134347_rgbf000087-resize_3/001650_2014-06-20_12-09-00_260595134347_rgbf000087-resize_3-target.png,125,1.9505,3,1779,126,feet,jsons/VE125_randls_66.json,549306,827029,27,Man
126,112343,DepthScenes,duration_manipulation_targetAtFixation,jsons/VE125_randls_66.json,http://54.235.29.9/FacialAge/BNav_EC2/DepthDuration/v2_depth_duration_MTurk/v2_DepthDuration_HTML.html#95,95,1920,979,1920,1080,8-21-2022,6-35-28,127,depth_duration_stimuli/003292_2014-05-14_21-53-49_094959634447_rgbf000100-resize_2/003292_2014-05-14_21-53-49_094959634447_rgbf000100-resize_2-target.png,125,3.4815,4,1970,124,feet,jsons/VE125_randls_66.json,549306,827029,27,Man
127,112343,DepthScenes,duration_manipulation_targetAtFixation,jsons/VE125_randls_66.json,http://54.235.29.9/FacialAge/BNav_EC2/DepthDuration/v2_depth_duration_MTurk/v2_DepthDuration_HTML.html#95,95,1920,979,1920,1080,8-21-2022,6-35-28,128,depth_duration_stimuli/002639_2014-06-24_14-51-37_094959634447_rgbf000074-resize_4/002639_2014-06-24_14-51-37_094959634447_rgbf000074-resize_4-target.png,125,4.0375,7,1888,125,feet,jsons/VE125_randls_66.json,549306,827029,27,Man
128,112343,DepthScenes,duration_manipulation_targetAtFixation,jsons/VE125_randls_66.json,http://54.235.29.9/FacialAge/BNav_EC2/DepthDuration/v2_depth_duration_MTurk/v2_DepthDuration_HTML.html#95,95,1920,979,1920,1080,8-21-2022,6-35-28,129,depth_duration_stimuli/002989_2014-06-15_12-25-03_094959634447_rgbf000150-resize_3/002989_2014-06-15_12-25-03_094959634447_rgbf000150-resize_3-target.png,125,4.1975,9,2626,126,feet,jsons/VE125_randls_66.json,549306,827029,27,Man
129,112343,DepthScenes,duration_manipulation_targetAtFixation,jsons/VE125_randls_66.json,http://54.235.29.9/FacialAge/BNav_EC2/DepthDuration/v2_depth_duration_MTurk/v2_DepthDuration_HTML.html#95,95,1920,979,1920,1080,8-21-2022,6-35-28,130,depth_duration_stimuli/000866_2014-06-09_20-45-42_260595134347_rgbf000139-resize_1/000866_2014-06-09_20-45-42_260595134347_rgbf000139-resize_1-target.png,125,3.2155,4,2725,127,feet,jsons/VE125_randls_66.json,549306,827029,27,Man
130,112343,DepthScenes,duration_manipulation_targetAtFixation,jsons/VE125_randls_66.json,http://54.235.29.9/FacialAge/BNav_EC2/DepthDuration/v2_depth_duration_MTurk/v2_DepthDuration_HTML.html#95,95,1920,979,1920,1080,8-21-2022,6-35-28,131,depth_duration_stimuli/002153_2014-06-25_21-27-18_260595134347_rgbf000038-resize_5/002153_2014-06-25_21-27-18_260595134347_rgbf000038-resize_5-target.png,125,2.505,5,1477,125,feet,jsons/VE125_randls_66.json,549306,827029,27,Man
131,112343,DepthScenes,duration_manipulation_targetAtFixation,jsons/VE125_randls_66.json,http://54.235.29.9/FacialAge/BNav_EC2/DepthDuration/v2_depth_duration_MTurk/v2_DepthDuration_HTML.html#95,95,1920,979,1920,1080,8-21-2022,6-35-28,132,depth_duration_stimuli/002660_2014-06-13_15-44-18_094959634447_rgbf001878-resize_2/002660_2014-06-13_15-44-18_094959634447_rgbf001878-resize_2-target.png,125,3.576,8,2147,127,feet,jsons/VE125_randls_66.json,549306,827029,27,Man
132,112343,DepthScenes,duration_manipulation_targetAtFixation,jsons/VE125_randls_66.json,http://54.235.29.9/FacialAge/BNav_EC2/DepthDuration/v2_depth_duration_MTurk/v2_DepthDuration_HTML.html#95,95,1920,979,1920,1080,8-21-2022,6-35-28,133,depth_duration_stimuli/001244_2014-06-17_16-47-45_260595134347_rgbf000030-resize_4/001244_2014-06-17_16-47-45_260595134347_rgbf000030-resize_4-target.png,125,2.0425,3,1515,127,feet,jsons/VE125_randls_66.json,549306,827029,27,Man
133,112343,DepthScenes,duration_manipulation_targetAtFixation,jsons/VE125_randls_66.json,http://54.235.29.9/FacialAge/BNav_EC2/DepthDuration/v2_depth_duration_MTurk/v2_DepthDuration_HTML.html#95,95,1920,979,1920,1080,8-21-2022,6-35-28,134,depth_duration_stimuli/003495_2014-05-21_16-01-51_094959634447_rgbf000100-resize_3/003495_2014-05-21_16-01-51_094959634447_rgbf000100-resize_3-target.png,125,1.6255,3,1589,111,feet,jsons/VE125_randls_66.json,549306,827029,27,Man
134,112343,DepthScenes,duration_manipulation_targetAtFixation,jsons/VE125_randls_66.json,http://54.235.29.9/FacialAge/BNav_EC2/DepthDuration/v2_depth_duration_MTurk/v2_DepthDuration_HTML.html#95,95,1920,979,1920,1080,8-21-2022,6-35-28,135,depth_duration_stimuli/002072_2014-06-24_21-48-06_260595134347_rgbf000115-resize_0/002072_2014-06-24_21-48-06_260595134347_rgbf000115-resize-original.jpg,125,4.702,0,2034,125,feet,jsons/VE125_randls_66.json,549306,827029,27,Man
135,112343,DepthScenes,duration_manipulation_targetAtFixation,jsons/VE125_randls_66.json,http://54.235.29.9/FacialAge/BNav_EC2/DepthDuration/v2_depth_duration_MTurk/v2_DepthDuration_HTML.html#95,95,1920,979,1920,1080,8-21-2022,6-35-28,136,depth_duration_stimuli/001110_2014-06-15_17-25-28_260595134347_rgbf000150-resize_1/001110_2014-06-15_17-25-28_260595134347_rgbf000150-resize_1-target.png,125,1.7115,0,13933,127,feet,jsons/VE125_randls_66.json,549306,827029,27,Man
136,112343,DepthScenes,duration_manipulation_targetAtFixation,jsons/VE125_randls_66.json,http://54.235.29.9/FacialAge/BNav_EC2/DepthDuration/v2_depth_duration_MTurk/v2_DepthDuration_HTML.html#95,95,1920,979,1920,1080,8-21-2022,6-35-28,137,depth_duration_stimuli/000927_2014-06-09_16-32-30_260595134347_rgbf000123-resize_3/000927_2014-06-09_16-32-30_260595134347_rgbf000123-resize_3-target.png,125,2.6785,6,3164,131,feet,jsons/VE125_randls_66.json,549306,827029,27,Man
137,112343,DepthScenes,duration_manipulation_targetAtFixation,jsons/VE125_randls_66.json,http://54.235.29.9/FacialAge/BNav_EC2/DepthDuration/v2_depth_duration_MTurk/v2_DepthDuration_HTML.html#95,95,1920,979,1920,1080,8-21-2022,6-35-28,138,depth_duration_stimuli/001570_2014-06-20_17-21-09_260595134347_rgbf000135-resize_4/001570_2014-06-20_17-21-09_260595134347_rgbf000135-resize_4-target.png,125,4.467,8,2155,117,feet,jsons/VE125_randls_66.json,549306,827029,27,Man
138,112343,DepthScenes,duration_manipulation_targetAtFixation,jsons/VE125_randls_66.json,http://54.235.29.9/FacialAge/BNav_EC2/DepthDuration/v2_depth_duration_MTurk/v2_DepthDuration_HTML.html#95,95,1920,979,1920,1080,8-21-2022,6-35-28,139,depth_duration_stimuli/001392_2014-06-19_16-07-59_260595134347_rgbf000046-resize_1/001392_2014-06-19_16-07-59_260595134347_rgbf000046-resize_1-target.png,125,4.135,8,1425,111,feet,jsons/VE125_randls_66.json,549306,827029,27,Man
139,112343,DepthScenes,duration_manipulation_targetAtFixation,jsons/VE125_randls_66.json,http://54.235.29.9/FacialAge/BNav_EC2/DepthDuration/v2_depth_duration_MTurk/v2_DepthDuration_HTML.html#95,95,1920,979,1920,1080,8-21-2022,6-35-28,140,depth_duration_stimuli/000878_2014-06-08_22-52-45_260595134347_rgbf000045-resize_2/000878_2014-06-08_22-52-45_260595134347_rgbf000045-resize_2-target.png,125,2.092,4,2522,127,feet,jsons/VE125_randls_66.json,549306,827029,27,Man
140,112343,DepthScenes,duration_manipulation_targetAtFixation,jsons/VE125_randls_66.json,http://54.235.29.9/FacialAge/BNav_EC2/DepthDuration/v2_depth_duration_MTurk/v2_DepthDuration_HTML.html#95,95,1920,979,1920,1080,8-21-2022,6-35-28,141,depth_duration_stimuli/002953_2014-06-08_17-32-18_094959634447_rgbf000059-resize_5/002953_2014-06-08_17-32-18_094959634447_rgbf000059-resize_5-target.png,125,1.551,2,2107,127,feet,jsons/VE125_randls_66.json,549306,827029,27,Man
141,112343,DepthScenes,duration_manipulation_targetAtFixation,jsons/VE125_randls_66.json,http://54.235.29.9/FacialAge/BNav_EC2/DepthDuration/v2_depth_duration_MTurk/v2_DepthDuration_HTML.html#95,95,1920,979,1920,1080,8-21-2022,6-35-28,142,depth_duration_stimuli/002725_2014-06-22_11-47-51_094959634447_rgbf000070-resize_1/002725_2014-06-22_11-47-51_094959634447_rgbf000070-resize_1-target.png,125,2.195,5,1652,124,feet,jsons/VE125_randls_66.json,549306,827029,27,Man
142,112343,DepthScenes,duration_manipulation_targetAtFixation,jsons/VE125_randls_66.json,http://54.235.29.9/FacialAge/BNav_EC2/DepthDuration/v2_depth_duration_MTurk/v2_DepthDuration_HTML.html#95,95,1920,979,1920,1080,8-21-2022,6-35-28,143,depth_duration_stimuli/002344_2014-06-28_20-06-29_260595134347_rgbf000030-resize_1/002344_2014-06-28_20-06-29_260595134347_rgbf000030-resize_1-target.png,125,1.5795,4,1354,126,feet,jsons/VE125_randls_66.json,549306,827029,27,Man
143,112343,DepthScenes,duration_manipulation_targetAtFixation,jsons/VE125_randls_66.json,http://54.235.29.9/FacialAge/BNav_EC2/DepthDuration/v2_depth_duration_MTurk/v2_DepthDuration_HTML.html#95,95,1920,979,1920,1080,8-21-2022,6-35-28,144,depth_duration_stimuli/001055_2014-06-08_18-45-35_260595134347_rgbf000111-resize_4/001055_2014-06-08_18-45-35_260595134347_rgbf000111-resize_4-target.png,125,2.4290000000000003,7,1652,126,feet,jsons/VE125_randls_66.json,549306,827029,27,Man
144,112343,DepthScenes,duration_manipulation_targetAtFixation,jsons/VE125_randls_66.json,http://54.235.29.9/FacialAge/BNav_EC2/DepthDuration/v2_depth_duration_MTurk/v2_DepthDuration_HTML.html#95,95,1920,979,1920,1080,8-21-2022,6-35-28,145,depth_duration_stimuli/000549_2014-06-08_22-10-24_260595134347_rgbf000247-resize_3/000549_2014-06-08_22-10-24_260595134347_rgbf000247-resize_3-target.png,125,1.841,2,2926,125,feet,jsons/VE125_randls_66.json,549306,827029,27,Man
145,112343,DepthScenes,duration_manipulation_targetAtFixation,jsons/VE125_randls_66.json,http://54.235.29.9/FacialAge/BNav_EC2/DepthDuration/v2_depth_duration_MTurk/v2_DepthDuration_HTML.html#95,95,1920,979,1920,1080,8-21-2022,6-35-28,146,depth_duration_stimuli/001498_2014-06-19_17-45-14_260595134347_rgbf000129-resize_4/001498_2014-06-19_17-45-14_260595134347_rgbf000129-resize-original.jpg,125,1.4075,0,2033,126,feet,jsons/VE125_randls_66.json,549306,827029,27,Man
146,112343,DepthScenes,duration_manipulation_targetAtFixation,jsons/VE125_randls_66.json,http://54.235.29.9/FacialAge/BNav_EC2/DepthDuration/v2_depth_duration_MTurk/v2_DepthDuration_HTML.html#95,95,1920,979,1920,1080,8-21-2022,6-35-28,147,depth_duration_stimuli/002043_2014-06-24_20-29-38_260595134347_rgbf000039-resize_4/002043_2014-06-24_20-29-38_260595134347_rgbf000039-resize_4-target.png,125,2.8435,6,2033,128,feet,jsons/VE125_randls_66.json,549306,827029,27,Man
147,112343,DepthScenes,duration_manipulation_targetAtFixation,jsons/VE125_randls_66.json,http://54.235.29.9/FacialAge/BNav_EC2/DepthDuration/v2_depth_duration_MTurk/v2_DepthDuration_HTML.html#95,95,1920,979,1920,1080,8-21-2022,6-35-28,148,depth_duration_stimuli/003048_2014-06-15_13-49-43_094959634447_rgbf000150-resize_1/003048_2014-06-15_13-49-43_094959634447_rgbf000150-resize_1-target.png,125,4.0035,8,2000,139,feet,jsons/VE125_randls_66.json,549306,827029,27,Man
148,112343,DepthScenes,duration_manipulation_targetAtFixation,jsons/VE125_randls_66.json,http://54.235.29.9/FacialAge/BNav_EC2/DepthDuration/v2_depth_duration_MTurk/v2_DepthDuration_HTML.html#95,95,1920,979,1920,1080,8-21-2022,6-35-28,149,depth_duration_stimuli/001059_2014-06-08_21-53-27_260595134347_rgbf000061-resize_4/001059_2014-06-08_21-53-27_260595134347_rgbf000061-resize_4-target.png,125,2.4185,5,12417,112,feet,jsons/VE125_randls_66.json,549306,827029,27,Man
149,112343,DepthScenes,duration_manipulation_targetAtFixation,jsons/VE125_randls_66.json,http://54.235.29.9/FacialAge/BNav_EC2/DepthDuration/v2_depth_duration_MTurk/v2_DepthDuration_HTML.html#95,95,1920,979,1920,1080,8-21-2022,6-35-28,150,depth_duration_stimuli/001032_2014-06-08_13-23-17_260595134347_rgbf000021-resize_3/001032_2014-06-08_13-23-17_260595134347_rgbf000021-resize_3-target.png,125,3.2725,4,1612,140,feet,jsons/VE125_randls_66.json,549306,827029,27,Man
150,112343,DepthScenes,duration_manipulation_targetAtFixation,jsons/VE125_randls_66.json,http://54.235.29.9/FacialAge/BNav_EC2/DepthDuration/v2_depth_duration_MTurk/v2_DepthDuration_HTML.html#95,95,1920,979,1920,1080,8-21-2022,6-35-28,151,depth_duration_stimuli/002549_2014-06-24_13-41-39_094959634447_rgbf000022-resize_3/002549_2014-06-24_13-41-39_094959634447_rgbf000022-resize_3-target.png,125,1.476,6,9082,132,feet,jsons/VE125_randls_66.json,549306,827029,27,Man
151,112343,DepthScenes,duration_manipulation_targetAtFixation,jsons/VE125_randls_66.json,http://54.235.29.9/FacialAge/BNav_EC2/DepthDuration/v2_depth_duration_MTurk/v2_DepthDuration_HTML.html#95,95,1920,979,1920,1080,8-21-2022,6-35-28,152,depth_duration_stimuli/002750_2014-06-22_19-08-03_094959634447_rgbf000094-resize_4/002750_2014-06-22_19-08-03_094959634447_rgbf000094-resize_4-target.png,125,2.354,5,1597,112,feet,jsons/VE125_randls_66.json,549306,827029,27,Man
152,112343,DepthScenes,duration_manipulation_targetAtFixation,jsons/VE125_randls_66.json,http://54.235.29.9/FacialAge/BNav_EC2/DepthDuration/v2_depth_duration_MTurk/v2_DepthDuration_HTML.html#95,95,1920,979,1920,1080,8-21-2022,6-35-28,153,depth_duration_stimuli/003534_2014-05-22_15-06-10_094959634447_rgbf000102-resize_4/003534_2014-05-22_15-06-10_094959634447_rgbf000102-resize_4-target.png,125,1.426,3,1255,124,feet,jsons/VE125_randls_66.json,549306,827029,27,Man
153,112343,DepthScenes,duration_manipulation_targetAtFixation,jsons/VE125_randls_66.json,http://54.235.29.9/FacialAge/BNav_EC2/DepthDuration/v2_depth_duration_MTurk/v2_DepthDuration_HTML.html#95,95,1920,979,1920,1080,8-21-2022,6-35-28,154,depth_duration_stimuli/002637_2014-06-24_14-51-13_094959634447_rgbf000066-resize_4/002637_2014-06-24_14-51-13_094959634447_rgbf000066-resize_4-target.png,125,1.9955,6,5452,126,feet,jsons/VE125_randls_66.json,549306,827029,27,Man
154,112343,DepthScenes,duration_manipulation_targetAtFixation,jsons/VE125_randls_66.json,http://54.235.29.9/FacialAge/BNav_EC2/DepthDuration/v2_depth_duration_MTurk/v2_DepthDuration_HTML.html#95,95,1920,979,1920,1080,8-21-2022,6-35-28,155,depth_duration_stimuli/003070_2014-06-15_14-58-27_094959634447_rgbf000150-resize_3/003070_2014-06-15_14-58-27_094959634447_rgbf000150-resize_3-target.png,125,2.9415,44,14718,127,feet,jsons/VE125_randls_66.json,549306,827029,27,Man
155,112343,DepthScenes,duration_manipulation_targetAtFixation,jsons/VE125_randls_66.json,http://54.235.29.9/FacialAge/BNav_EC2/DepthDuration/v2_depth_duration_MTurk/v2_DepthDuration_HTML.html#95,95,1920,979,1920,1080,8-21-2022,6-35-28,156,depth_duration_stimuli/000943_2014-06-09_19-31-07_260595134347_rgbf000128-resize_1/000943_2014-06-09_19-31-07_260595134347_rgbf000128-resize_1-target.png,125,1.9765,4,1758,136,feet,jsons/VE125_randls_66.json,549306,827029,27,Man
156,112343,DepthScenes,duration_manipulation_targetAtFixation,jsons/VE125_randls_66.json,http://54.235.29.9/FacialAge/BNav_EC2/DepthDuration/v2_depth_duration_MTurk/v2_DepthDuration_HTML.html#95,95,1920,979,1920,1080,8-21-2022,6-35-28,157,depth_duration_stimuli/001449_2014-06-19_17-01-27_260595134347_rgbf000116-resize_2/001449_2014-06-19_17-01-27_260595134347_rgbf000116-resize_2-target.png,125,3.452,6,1716,135,feet,jsons/VE125_randls_66.json,549306,827029,27,Man
157,112343,DepthScenes,duration_manipulation_targetAtFixation,jsons/VE125_randls_66.json,http://54.235.29.9/FacialAge/BNav_EC2/DepthDuration/v2_depth_duration_MTurk/v2_DepthDuration_HTML.html#95,95,1920,979,1920,1080,8-21-2022,6-35-28,158,depth_duration_stimuli/001450_2014-06-19_17-02-03_260595134347_rgbf000203-resize_4/001450_2014-06-19_17-02-03_260595134347_rgbf000203-resize_4-target.png,125,4.0106666666667,3,4070,125,feet,jsons/VE125_randls_66.json,549306,827029,27,Man
158,112343,DepthScenes,duration_manipulation_targetAtFixation,jsons/VE125_randls_66.json,http://54.235.29.9/FacialAge/BNav_EC2/DepthDuration/v2_depth_duration_MTurk/v2_DepthDuration_HTML.html#95,95,1920,979,1920,1080,8-21-2022,6-35-28,159,depth_duration_stimuli/001158_2014-06-17_15-32-16_260595134347_rgbf000138-resize_2/001158_2014-06-17_15-32-16_260595134347_rgbf000138-resize_2-target.png,125,4.5315,8,1747,125,feet,jsons/VE125_randls_66.json,549306,827029,27,Man
159,112343,DepthScenes,duration_manipulation_targetAtFixation,jsons/VE125_randls_66.json,http://54.235.29.9/FacialAge/BNav_EC2/DepthDuration/v2_depth_duration_MTurk/v2_DepthDuration_HTML.html#95,95,1920,979,1920,1080,8-21-2022,6-35-28,160,depth_duration_stimuli/000556_2014-06-09_22-42-56_260595134347_rgbf000214-resize_1/000556_2014-06-09_22-42-56_260595134347_rgbf000214-resize_1-target.png,125,4.8415,6,1503,126,feet,jsons/VE125_randls_66.json,549306,827029,27,Man
160,112343,DepthScenes,duration_manipulation_targetAtFixation,jsons/VE125_randls_66.json,http://54.235.29.9/FacialAge/BNav_EC2/DepthDuration/v2_depth_duration_MTurk/v2_DepthDuration_HTML.html#95,95,1920,979,1920,1080,8-21-2022,6-35-28,161,depth_duration_stimuli/002600_2014-06-24_14-27-04_094959634447_rgbf000074-resize_2/002600_2014-06-24_14-27-04_094959634447_rgbf000074-resize_2-target.png,125,2.7575,4,1422,124,feet,jsons/VE125_randls_66.json,549306,827029,27,Man
161,112343,DepthScenes,duration_manipulation_targetAtFixation,jsons/VE125_randls_66.json,http://54.235.29.9/FacialAge/BNav_EC2/DepthDuration/v2_depth_duration_MTurk/v2_DepthDuration_HTML.html#95,95,1920,979,1920,1080,8-21-2022,6-35-28,162,depth_duration_stimuli/003228_2014-05-14_13-42-35_094959634447_rgbf000101-resize_1/003228_2014-05-14_13-42-35_094959634447_rgbf000101-resize_1-target.png,125,1.9680000000000002,2,1410,125,feet,jsons/VE125_randls_66.json,549306,827029,27,Man
162,112343,DepthScenes,duration_manipulation_targetAtFixation,jsons/VE125_randls_66.json,http://54.235.29.9/FacialAge/BNav_EC2/DepthDuration/v2_depth_duration_MTurk/v2_DepthDuration_HTML.html#95,95,1920,979,1920,1080,8-21-2022,6-35-28,163,depth_duration_stimuli/000486_2014-06-09_20-47-20_260595134347_rgbf000143-resize_2/000486_2014-06-09_20-47-20_260595134347_rgbf000143-resize_2-target.png,125,4.8325,7,2316,128,feet,jsons/VE125_randls_66.json,549306,827029,27,Man
163,112343,DepthScenes,duration_manipulation_targetAtFixation,jsons/VE125_randls_66.json,http://54.235.29.9/FacialAge/BNav_EC2/DepthDuration/v2_depth_duration_MTurk/v2_DepthDuration_HTML.html#95,95,1920,979,1920,1080,8-21-2022,6-35-28,164,depth_duration_stimuli/003083_2014-06-15_15-21-03_094959634447_rgbf000063-resize_1/003083_2014-06-15_15-21-03_094959634447_rgbf000063-resize_1-target.png,125,4.1405,8,1568,110,feet,jsons/VE125_randls_66.json,549306,827029,27,Man
