,subjID,experimentName,versionName,sequenceName,url,selected_row,windowWidth,windowHeight,screenWidth,screenHeight,startDate,startTime,trial,stimulus,duration,actual_depth,depth_estimate,trial_RT,log_sceneDuration,unitSelection,seq_filepath,experimentTime,totalTime,age,gender
0,113882,DepthScenes,duration_manipulation_targetAtFixation,jsons/VE125_randls_59.json,http://54.235.29.9/FacialAge/BNav_EC2/DepthDuration/v2_depth_duration_MTurk/v2_DepthDuration_HTML.html#68,68,911,416,1366,768,9-20-2022,12-2-53,1,depth_duration_stimuli/000736_2014-06-08_18-24-15_260595134347_rgbf000206-resize_3/000736_2014-06-08_18-24-15_260595134347_rgbf000206-resize_3-target.png,125,3.515,2,7973,124,feet,jsons/VE125_randls_59.json,823740,1111637,72,Woman
1,113882,DepthScenes,duration_manipulation_targetAtFixation,jsons/VE125_randls_59.json,http://54.235.29.9/FacialAge/BNav_EC2/DepthDuration/v2_depth_duration_MTurk/v2_DepthDuration_HTML.html#68,68,911,416,1366,768,9-20-2022,12-2-53,2,depth_duration_stimuli/000137_2014-05-20_17-04-49_260595134347_rgbf000120-resize_1/000137_2014-05-20_17-04-49_260595134347_rgbf000120-resize_1-target.png,125,3.786,2,6451,123,feet,jsons/VE125_randls_59.json,823740,1111637,72,Woman
2,113882,DepthScenes,duration_manipulation_targetAtFixation,jsons/VE125_randls_59.json,http://54.235.29.9/FacialAge/BNav_EC2/DepthDuration/v2_depth_duration_MTurk/v2_DepthDuration_HTML.html#68,68,911,416,1366,768,9-20-2022,12-2-53,3,depth_duration_stimuli/003534_2014-05-22_15-06-10_094959634447_rgbf000102-resize_4/003534_2014-05-22_15-06-10_094959634447_rgbf000102-resize_4-target.png,125,1.426,2,5974,137,feet,jsons/VE125_randls_59.json,823740,1111637,72,Woman
3,113882,DepthScenes,duration_manipulation_targetAtFixation,jsons/VE125_randls_59.json,http://54.235.29.9/FacialAge/BNav_EC2/DepthDuration/v2_depth_duration_MTurk/v2_DepthDuration_HTML.html#68,68,911,416,1366,768,9-20-2022,12-2-53,4,depth_duration_stimuli/002637_2014-06-24_14-51-13_094959634447_rgbf000066-resize_4/002637_2014-06-24_14-51-13_094959634447_rgbf000066-resize_4-target.png,125,1.9955,2,4739,124,feet,jsons/VE125_randls_59.json,823740,1111637,72,Woman
4,113882,DepthScenes,duration_manipulation_targetAtFixation,jsons/VE125_randls_59.json,http://54.235.29.9/FacialAge/BNav_EC2/DepthDuration/v2_depth_duration_MTurk/v2_DepthDuration_HTML.html#68,68,911,416,1366,768,9-20-2022,12-2-53,5,depth_duration_stimuli/000878_2014-06-08_22-52-45_260595134347_rgbf000045-resize_2/000878_2014-06-08_22-52-45_260595134347_rgbf000045-resize_2-target.png,125,2.092,3,6543,121,feet,jsons/VE125_randls_59.json,823740,1111637,72,Woman
5,113882,DepthScenes,duration_manipulation_targetAtFixation,jsons/VE125_randls_59.json,http://54.235.29.9/FacialAge/BNav_EC2/DepthDuration/v2_depth_duration_MTurk/v2_DepthDuration_HTML.html#68,68,911,416,1366,768,9-20-2022,12-2-53,6,depth_duration_stimuli/002953_2014-06-08_17-32-18_094959634447_rgbf000059-resize_5/002953_2014-06-08_17-32-18_094959634447_rgbf000059-resize_5-target.png,125,1.551,2,4826,123,feet,jsons/VE125_randls_59.json,823740,1111637,72,Woman
6,113882,DepthScenes,duration_manipulation_targetAtFixation,jsons/VE125_randls_59.json,http://54.235.29.9/FacialAge/BNav_EC2/DepthDuration/v2_depth_duration_MTurk/v2_DepthDuration_HTML.html#68,68,911,416,1366,768,9-20-2022,12-2-53,7,depth_duration_stimuli/000436_2014-06-09_22-25-11_260595134347_rgbf000137-resize_1/000436_2014-06-09_22-25-11_260595134347_rgbf000137-resize_1-target.png,125,4.0705,3,4354,126,feet,jsons/VE125_randls_59.json,823740,1111637,72,Woman
7,113882,DepthScenes,duration_manipulation_targetAtFixation,jsons/VE125_randls_59.json,http://54.235.29.9/FacialAge/BNav_EC2/DepthDuration/v2_depth_duration_MTurk/v2_DepthDuration_HTML.html#68,68,911,416,1366,768,9-20-2022,12-2-53,8,depth_duration_stimuli/002444_2014-06-28_20-32-08_260595134347_rgbf000027-resize_0/002444_2014-06-28_20-32-08_260595134347_rgbf000027-resize_0-target.png,125,4.388999999999999,3,4069,125,feet,jsons/VE125_randls_59.json,823740,1111637,72,Woman
8,113882,DepthScenes,duration_manipulation_targetAtFixation,jsons/VE125_randls_59.json,http://54.235.29.9/FacialAge/BNav_EC2/DepthDuration/v2_depth_duration_MTurk/v2_DepthDuration_HTML.html#68,68,911,416,1366,768,9-20-2022,12-2-53,9,depth_duration_stimuli/001066_2014-06-08_22-03-20_260595134347_rgbf000066-resize_4/001066_2014-06-08_22-03-20_260595134347_rgbf000066-resize_4-target.png,125,4.2330000000000005,3,6882,115,feet,jsons/VE125_randls_59.json,823740,1111637,72,Woman
9,113882,DepthScenes,duration_manipulation_targetAtFixation,jsons/VE125_randls_59.json,http://54.235.29.9/FacialAge/BNav_EC2/DepthDuration/v2_depth_duration_MTurk/v2_DepthDuration_HTML.html#68,68,911,416,1366,768,9-20-2022,12-2-53,10,depth_duration_stimuli/000742_2014-06-08_18-48-09_260595134347_rgbf000164-resize_4/000742_2014-06-08_18-48-09_260595134347_rgbf000164-resize_4-target.png,125,4.632,3,3944,122,feet,jsons/VE125_randls_59.json,823740,1111637,72,Woman
10,113882,DepthScenes,duration_manipulation_targetAtFixation,jsons/VE125_randls_59.json,http://54.235.29.9/FacialAge/BNav_EC2/DepthDuration/v2_depth_duration_MTurk/v2_DepthDuration_HTML.html#68,68,911,416,1366,768,9-20-2022,12-2-53,11,depth_duration_stimuli/001808_2014-06-26_20-50-58_260595134347_rgbf000029-resize_1/001808_2014-06-26_20-50-58_260595134347_rgbf000029-resize_1-target.png,125,4.249,3,4544,121,feet,jsons/VE125_randls_59.json,823740,1111637,72,Woman
11,113882,DepthScenes,duration_manipulation_targetAtFixation,jsons/VE125_randls_59.json,http://54.235.29.9/FacialAge/BNav_EC2/DepthDuration/v2_depth_duration_MTurk/v2_DepthDuration_HTML.html#68,68,911,416,1366,768,9-20-2022,12-2-53,12,depth_duration_stimuli/001815_2014-06-26_20-52-55_260595134347_rgbf000020-resize_0/001815_2014-06-26_20-52-55_260595134347_rgbf000020-resize_0-target.png,125,3.3865,4,4434,123,feet,jsons/VE125_randls_59.json,823740,1111637,72,Woman
12,113882,DepthScenes,duration_manipulation_targetAtFixation,jsons/VE125_randls_59.json,http://54.235.29.9/FacialAge/BNav_EC2/DepthDuration/v2_depth_duration_MTurk/v2_DepthDuration_HTML.html#68,68,911,416,1366,768,9-20-2022,12-2-53,13,depth_duration_stimuli/000569_2014-06-09_22-51-47_260595134347_rgbf000141-resize_3/000569_2014-06-09_22-51-47_260595134347_rgbf000141-resize-original.jpg,125,4.512,4,6304,125,feet,jsons/VE125_randls_59.json,823740,1111637,72,Woman
13,113882,DepthScenes,duration_manipulation_targetAtFixation,jsons/VE125_randls_59.json,http://54.235.29.9/FacialAge/BNav_EC2/DepthDuration/v2_depth_duration_MTurk/v2_DepthDuration_HTML.html#68,68,911,416,1366,768,9-20-2022,12-2-53,14,depth_duration_stimuli/001016_2014-06-09_16-16-10_260595134347_rgbf000112-resize_5/001016_2014-06-09_16-16-10_260595134347_rgbf000112-resize_5-target.png,125,1.6565,4,4995,125,feet,jsons/VE125_randls_59.json,823740,1111637,72,Woman
14,113882,DepthScenes,duration_manipulation_targetAtFixation,jsons/VE125_randls_59.json,http://54.235.29.9/FacialAge/BNav_EC2/DepthDuration/v2_depth_duration_MTurk/v2_DepthDuration_HTML.html#68,68,911,416,1366,768,9-20-2022,12-2-53,15,depth_duration_stimuli/002340_2014-06-28_20-05-46_260595134347_rgbf000113-resize_0/002340_2014-06-28_20-05-46_260595134347_rgbf000113-resize_0-target.png,125,2.4735,4,4867,121,feet,jsons/VE125_randls_59.json,823740,1111637,72,Woman
15,113882,DepthScenes,duration_manipulation_targetAtFixation,jsons/VE125_randls_59.json,http://54.235.29.9/FacialAge/BNav_EC2/DepthDuration/v2_depth_duration_MTurk/v2_DepthDuration_HTML.html#68,68,911,416,1366,768,9-20-2022,12-2-53,16,depth_duration_stimuli/002748_2014-06-22_19-07-22_094959634447_rgbf000078-resize_1/002748_2014-06-22_19-07-22_094959634447_rgbf000078-resize_1-target.png,125,4.6705,5,4510,126,feet,jsons/VE125_randls_59.json,823740,1111637,72,Woman
16,113882,DepthScenes,duration_manipulation_targetAtFixation,jsons/VE125_randls_59.json,http://54.235.29.9/FacialAge/BNav_EC2/DepthDuration/v2_depth_duration_MTurk/v2_DepthDuration_HTML.html#68,68,911,416,1366,768,9-20-2022,12-2-53,17,depth_duration_stimuli/002995_2014-06-15_12-31-26_094959634447_rgbf000150-resize_1/002995_2014-06-15_12-31-26_094959634447_rgbf000150-resize_1-target.png,125,3.8360000000000003,0,5321,125,feet,jsons/VE125_randls_59.json,823740,1111637,72,Woman
17,113882,DepthScenes,duration_manipulation_targetAtFixation,jsons/VE125_randls_59.json,http://54.235.29.9/FacialAge/BNav_EC2/DepthDuration/v2_depth_duration_MTurk/v2_DepthDuration_HTML.html#68,68,911,416,1366,768,9-20-2022,12-2-53,18,depth_duration_stimuli/000682_2014-06-08_23-14-58_260595134347_rgbf000041-resize_5/000682_2014-06-08_23-14-58_260595134347_rgbf000041-resize_5-target.png,125,2.7239999999999998,4,4974,123,feet,jsons/VE125_randls_59.json,823740,1111637,72,Woman
18,113882,DepthScenes,duration_manipulation_targetAtFixation,jsons/VE125_randls_59.json,http://54.235.29.9/FacialAge/BNav_EC2/DepthDuration/v2_depth_duration_MTurk/v2_DepthDuration_HTML.html#68,68,911,416,1366,768,9-20-2022,12-2-53,19,depth_duration_stimuli/001650_2014-06-20_12-09-00_260595134347_rgbf000087-resize_3/001650_2014-06-20_12-09-00_260595134347_rgbf000087-resize_3-target.png,125,1.9505,3,4326,124,feet,jsons/VE125_randls_59.json,823740,1111637,72,Woman
19,113882,DepthScenes,duration_manipulation_targetAtFixation,jsons/VE125_randls_59.json,http://54.235.29.9/FacialAge/BNav_EC2/DepthDuration/v2_depth_duration_MTurk/v2_DepthDuration_HTML.html#68,68,911,416,1366,768,9-20-2022,12-2-53,20,depth_duration_stimuli/001167_2014-06-17_15-38-07_260595134347_rgbf000108-resize_0/001167_2014-06-17_15-38-07_260595134347_rgbf000108-resize_0-target.png,125,1.8505,2,4854,127,feet,jsons/VE125_randls_59.json,823740,1111637,72,Woman
20,113882,DepthScenes,duration_manipulation_targetAtFixation,jsons/VE125_randls_59.json,http://54.235.29.9/FacialAge/BNav_EC2/DepthDuration/v2_depth_duration_MTurk/v2_DepthDuration_HTML.html#68,68,911,416,1366,768,9-20-2022,12-2-53,21,depth_duration_stimuli/003587_2014-05-23_16-48-02_094959634447_rgbf002384-resize_2/003587_2014-05-23_16-48-02_094959634447_rgbf002384-resize_2-target.png,125,1.357,3,4135,115,feet,jsons/VE125_randls_59.json,823740,1111637,72,Woman
21,113882,DepthScenes,duration_manipulation_targetAtFixation,jsons/VE125_randls_59.json,http://54.235.29.9/FacialAge/BNav_EC2/DepthDuration/v2_depth_duration_MTurk/v2_DepthDuration_HTML.html#68,68,911,416,1366,768,9-20-2022,12-2-53,22,depth_duration_stimuli/002375_2014-06-28_20-13-44_260595134347_rgbf000032-resize_1/002375_2014-06-28_20-13-44_260595134347_rgbf000032-resize_1-target.png,125,4.0175,4,4279,124,feet,jsons/VE125_randls_59.json,823740,1111637,72,Woman
22,113882,DepthScenes,duration_manipulation_targetAtFixation,jsons/VE125_randls_59.json,http://54.235.29.9/FacialAge/BNav_EC2/DepthDuration/v2_depth_duration_MTurk/v2_DepthDuration_HTML.html#68,68,911,416,1366,768,9-20-2022,12-2-53,23,depth_duration_stimuli/002657_2014-06-13_15-29-54_094959634447_rgbf000150-resize_1/002657_2014-06-13_15-29-54_094959634447_rgbf000150-resize_1-target.png,125,4.919,4,4100,122,feet,jsons/VE125_randls_59.json,823740,1111637,72,Woman
23,113882,DepthScenes,duration_manipulation_targetAtFixation,jsons/VE125_randls_59.json,http://54.235.29.9/FacialAge/BNav_EC2/DepthDuration/v2_depth_duration_MTurk/v2_DepthDuration_HTML.html#68,68,911,416,1366,768,9-20-2022,12-2-53,24,depth_duration_stimuli/001199_2014-06-17_16-03-48_260595134347_rgbf000077-resize_0/001199_2014-06-17_16-03-48_260595134347_rgbf000077-resize_0-target.png,125,3.4375,5,4199,131,feet,jsons/VE125_randls_59.json,823740,1111637,72,Woman
24,113882,DepthScenes,duration_manipulation_targetAtFixation,jsons/VE125_randls_59.json,http://54.235.29.9/FacialAge/BNav_EC2/DepthDuration/v2_depth_duration_MTurk/v2_DepthDuration_HTML.html#68,68,911,416,1366,768,9-20-2022,12-2-53,25,depth_duration_stimuli/000502_2014-06-08_23-02-32_260595134347_rgbf000063-resize_4/000502_2014-06-08_23-02-32_260595134347_rgbf000063-resize_4-target.png,125,2.431,5,4490,127,feet,jsons/VE125_randls_59.json,823740,1111637,72,Woman
25,113882,DepthScenes,duration_manipulation_targetAtFixation,jsons/VE125_randls_59.json,http://54.235.29.9/FacialAge/BNav_EC2/DepthDuration/v2_depth_duration_MTurk/v2_DepthDuration_HTML.html#68,68,911,416,1366,768,9-20-2022,12-2-53,26,depth_duration_stimuli/001164_2014-06-17_15-35-46_260595134347_rgbf000085-resize_3/001164_2014-06-17_15-35-46_260595134347_rgbf000085-resize_3-target.png,125,2.354,5,4486,125,feet,jsons/VE125_randls_59.json,823740,1111637,72,Woman
26,113882,DepthScenes,duration_manipulation_targetAtFixation,jsons/VE125_randls_59.json,http://54.235.29.9/FacialAge/BNav_EC2/DepthDuration/v2_depth_duration_MTurk/v2_DepthDuration_HTML.html#68,68,911,416,1366,768,9-20-2022,12-2-53,27,depth_duration_stimuli/001136_2014-06-17_15-19-41_260595134347_rgbf000076-resize_3/001136_2014-06-17_15-19-41_260595134347_rgbf000076-resize_3-target.png,125,1.8655,5,4299,110,feet,jsons/VE125_randls_59.json,823740,1111637,72,Woman
27,113882,DepthScenes,duration_manipulation_targetAtFixation,jsons/VE125_randls_59.json,http://54.235.29.9/FacialAge/BNav_EC2/DepthDuration/v2_depth_duration_MTurk/v2_DepthDuration_HTML.html#68,68,911,416,1366,768,9-20-2022,12-2-53,28,depth_duration_stimuli/002213_2014-06-28_18-37-58_260595134347_rgbf000055-resize_1/002213_2014-06-28_18-37-58_260595134347_rgbf000055-resize_1-target.png,125,3.62,4,5845,110,feet,jsons/VE125_randls_59.json,823740,1111637,72,Woman
28,113882,DepthScenes,duration_manipulation_targetAtFixation,jsons/VE125_randls_59.json,http://54.235.29.9/FacialAge/BNav_EC2/DepthDuration/v2_depth_duration_MTurk/v2_DepthDuration_HTML.html#68,68,911,416,1366,768,9-20-2022,12-2-53,29,depth_duration_stimuli/000691_2014-06-08_13-08-50_260595134347_rgbf000132-resize_3/000691_2014-06-08_13-08-50_260595134347_rgbf000132-resize_3-target.png,125,4.1530000000000005,5,4299,125,feet,jsons/VE125_randls_59.json,823740,1111637,72,Woman
29,113882,DepthScenes,duration_manipulation_targetAtFixation,jsons/VE125_randls_59.json,http://54.235.29.9/FacialAge/BNav_EC2/DepthDuration/v2_depth_duration_MTurk/v2_DepthDuration_HTML.html#68,68,911,416,1366,768,9-20-2022,12-2-53,30,depth_duration_stimuli/000375_2014-06-08_11-17-29_260595134347_rgbf000133-resize_2/000375_2014-06-08_11-17-29_260595134347_rgbf000133-resize-original.jpg,125,4.718,0,4197,123,feet,jsons/VE125_randls_59.json,823740,1111637,72,Woman
30,113882,DepthScenes,duration_manipulation_targetAtFixation,jsons/VE125_randls_59.json,http://54.235.29.9/FacialAge/BNav_EC2/DepthDuration/v2_depth_duration_MTurk/v2_DepthDuration_HTML.html#68,68,911,416,1366,768,9-20-2022,12-2-53,31,depth_duration_stimuli/001110_2014-06-15_17-25-28_260595134347_rgbf000150-resize_1/001110_2014-06-15_17-25-28_260595134347_rgbf000150-resize_1-target.png,125,1.7115,4,3910,125,feet,jsons/VE125_randls_59.json,823740,1111637,72,Woman
31,113882,DepthScenes,duration_manipulation_targetAtFixation,jsons/VE125_randls_59.json,http://54.235.29.9/FacialAge/BNav_EC2/DepthDuration/v2_depth_duration_MTurk/v2_DepthDuration_HTML.html#68,68,911,416,1366,768,9-20-2022,12-2-53,32,depth_duration_stimuli/000927_2014-06-09_16-32-30_260595134347_rgbf000123-resize_3/000927_2014-06-09_16-32-30_260595134347_rgbf000123-resize_3-target.png,125,2.6785,5,3932,125,feet,jsons/VE125_randls_59.json,823740,1111637,72,Woman
32,113882,DepthScenes,duration_manipulation_targetAtFixation,jsons/VE125_randls_59.json,http://54.235.29.9/FacialAge/BNav_EC2/DepthDuration/v2_depth_duration_MTurk/v2_DepthDuration_HTML.html#68,68,911,416,1366,768,9-20-2022,12-2-53,33,depth_duration_stimuli/003070_2014-06-15_14-58-27_094959634447_rgbf000150-resize_3/003070_2014-06-15_14-58-27_094959634447_rgbf000150-resize_3-target.png,125,2.9415,5,3685,114,feet,jsons/VE125_randls_59.json,823740,1111637,72,Woman
33,113882,DepthScenes,duration_manipulation_targetAtFixation,jsons/VE125_randls_59.json,http://54.235.29.9/FacialAge/BNav_EC2/DepthDuration/v2_depth_duration_MTurk/v2_DepthDuration_HTML.html#68,68,911,416,1366,768,9-20-2022,12-2-53,34,depth_duration_stimuli/000943_2014-06-09_19-31-07_260595134347_rgbf000128-resize_1/000943_2014-06-09_19-31-07_260595134347_rgbf000128-resize_1-target.png,125,1.9765,4,4141,124,feet,jsons/VE125_randls_59.json,823740,1111637,72,Woman
34,113882,DepthScenes,duration_manipulation_targetAtFixation,jsons/VE125_randls_59.json,http://54.235.29.9/FacialAge/BNav_EC2/DepthDuration/v2_depth_duration_MTurk/v2_DepthDuration_HTML.html#68,68,911,416,1366,768,9-20-2022,12-2-53,35,depth_duration_stimuli/001449_2014-06-19_17-01-27_260595134347_rgbf000116-resize_2/001449_2014-06-19_17-01-27_260595134347_rgbf000116-resize_2-target.png,125,3.452,5,3776,127,feet,jsons/VE125_randls_59.json,823740,1111637,72,Woman
35,113882,DepthScenes,duration_manipulation_targetAtFixation,jsons/VE125_randls_59.json,http://54.235.29.9/FacialAge/BNav_EC2/DepthDuration/v2_depth_duration_MTurk/v2_DepthDuration_HTML.html#68,68,911,416,1366,768,9-20-2022,12-2-53,36,depth_duration_stimuli/001450_2014-06-19_17-02-03_260595134347_rgbf000203-resize_4/001450_2014-06-19_17-02-03_260595134347_rgbf000203-resize_4-target.png,125,4.0106666666667,5,4905,125,feet,jsons/VE125_randls_59.json,823740,1111637,72,Woman
36,113882,DepthScenes,duration_manipulation_targetAtFixation,jsons/VE125_randls_59.json,http://54.235.29.9/FacialAge/BNav_EC2/DepthDuration/v2_depth_duration_MTurk/v2_DepthDuration_HTML.html#68,68,911,416,1366,768,9-20-2022,12-2-53,37,depth_duration_stimuli/001150_2014-06-17_15-27-34_260595134347_rgbf000108-resize_2/001150_2014-06-17_15-27-34_260595134347_rgbf000108-resize_2-target.png,125,4.0325,5,4428,121,feet,jsons/VE125_randls_59.json,823740,1111637,72,Woman
37,113882,DepthScenes,duration_manipulation_targetAtFixation,jsons/VE125_randls_59.json,http://54.235.29.9/FacialAge/BNav_EC2/DepthDuration/v2_depth_duration_MTurk/v2_DepthDuration_HTML.html#68,68,911,416,1366,768,9-20-2022,12-2-53,38,depth_duration_stimuli/000665_2014-06-09_20-42-35_260595134347_rgbf000110-resize_1/000665_2014-06-09_20-42-35_260595134347_rgbf000110-resize_1-target.png,125,3.057,5,4598,112,feet,jsons/VE125_randls_59.json,823740,1111637,72,Woman
38,113882,DepthScenes,duration_manipulation_targetAtFixation,jsons/VE125_randls_59.json,http://54.235.29.9/FacialAge/BNav_EC2/DepthDuration/v2_depth_duration_MTurk/v2_DepthDuration_HTML.html#68,68,911,416,1366,768,9-20-2022,12-2-53,39,depth_duration_stimuli/002905_2014-06-03_18-04-43_094959634447_rgbf000151-resize_2/002905_2014-06-03_18-04-43_094959634447_rgbf000151-resize_2-target.png,125,2.0295,4,4196,123,feet,jsons/VE125_randls_59.json,823740,1111637,72,Woman
39,113882,DepthScenes,duration_manipulation_targetAtFixation,jsons/VE125_randls_59.json,http://54.235.29.9/FacialAge/BNav_EC2/DepthDuration/v2_depth_duration_MTurk/v2_DepthDuration_HTML.html#68,68,911,416,1366,768,9-20-2022,12-2-53,40,depth_duration_stimuli/003423_2014-05-21_10-23-26_094959634447_rgbf002665-resize_2/003423_2014-05-21_10-23-26_094959634447_rgbf002665-resize_2-target.png,125,3.2575,5,4002,125,feet,jsons/VE125_randls_59.json,823740,1111637,72,Woman
40,113882,DepthScenes,duration_manipulation_targetAtFixation,jsons/VE125_randls_59.json,http://54.235.29.9/FacialAge/BNav_EC2/DepthDuration/v2_depth_duration_MTurk/v2_DepthDuration_HTML.html#68,68,911,416,1366,768,9-20-2022,12-2-53,41,depth_duration_stimuli/002057_2014-06-24_21-00-13_260595134347_rgbf000120-resize_1/002057_2014-06-24_21-00-13_260595134347_rgbf000120-resize_1-target.png,125,2.967,5,4192,132,feet,jsons/VE125_randls_59.json,823740,1111637,72,Woman
41,113882,DepthScenes,duration_manipulation_targetAtFixation,jsons/VE125_randls_59.json,http://54.235.29.9/FacialAge/BNav_EC2/DepthDuration/v2_depth_duration_MTurk/v2_DepthDuration_HTML.html#68,68,911,416,1366,768,9-20-2022,12-2-53,42,depth_duration_stimuli/000709_2014-06-08_13-51-55_260595134347_rgbf000068-resize_3/000709_2014-06-08_13-51-55_260595134347_rgbf000068-resize_3-target.png,125,1.8030000000000002,5,3888,109,feet,jsons/VE125_randls_59.json,823740,1111637,72,Woman
42,113882,DepthScenes,duration_manipulation_targetAtFixation,jsons/VE125_randls_59.json,http://54.235.29.9/FacialAge/BNav_EC2/DepthDuration/v2_depth_duration_MTurk/v2_DepthDuration_HTML.html#68,68,911,416,1366,768,9-20-2022,12-2-53,43,depth_duration_stimuli/000469_2014-06-09_19-42-10_260595134347_rgbf000081-resize_1/000469_2014-06-09_19-42-10_260595134347_rgbf000081-resize_1-target.png,125,1.652,4,3935,128,feet,jsons/VE125_randls_59.json,823740,1111637,72,Woman
43,113882,DepthScenes,duration_manipulation_targetAtFixation,jsons/VE125_randls_59.json,http://54.235.29.9/FacialAge/BNav_EC2/DepthDuration/v2_depth_duration_MTurk/v2_DepthDuration_HTML.html#68,68,911,416,1366,768,9-20-2022,12-2-53,44,depth_duration_stimuli/000483_2014-06-09_20-41-45_260595134347_rgbf000116-resize_4/000483_2014-06-09_20-41-45_260595134347_rgbf000116-resize_4-target.png,125,1.337,3,8053,123,feet,jsons/VE125_randls_59.json,823740,1111637,72,Woman
44,113882,DepthScenes,duration_manipulation_targetAtFixation,jsons/VE125_randls_59.json,http://54.235.29.9/FacialAge/BNav_EC2/DepthDuration/v2_depth_duration_MTurk/v2_DepthDuration_HTML.html#68,68,911,416,1366,768,9-20-2022,12-2-53,45,depth_duration_stimuli/000787_2014-06-08_22-33-53_260595134347_rgbf000175-resize_1/000787_2014-06-08_22-33-53_260595134347_rgbf000175-resize-original.jpg,125,4.784,0,4416,126,feet,jsons/VE125_randls_59.json,823740,1111637,72,Woman
45,113882,DepthScenes,duration_manipulation_targetAtFixation,jsons/VE125_randls_59.json,http://54.235.29.9/FacialAge/BNav_EC2/DepthDuration/v2_depth_duration_MTurk/v2_DepthDuration_HTML.html#68,68,911,416,1366,768,9-20-2022,12-2-53,46,depth_duration_stimuli/002989_2014-06-15_12-25-03_094959634447_rgbf000150-resize_3/002989_2014-06-15_12-25-03_094959634447_rgbf000150-resize_3-target.png,125,4.1975,5,4490,111,feet,jsons/VE125_randls_59.json,823740,1111637,72,Woman
46,113882,DepthScenes,duration_manipulation_targetAtFixation,jsons/VE125_randls_59.json,http://54.235.29.9/FacialAge/BNav_EC2/DepthDuration/v2_depth_duration_MTurk/v2_DepthDuration_HTML.html#68,68,911,416,1366,768,9-20-2022,12-2-53,47,depth_duration_stimuli/000866_2014-06-09_20-45-42_260595134347_rgbf000139-resize_1/000866_2014-06-09_20-45-42_260595134347_rgbf000139-resize_1-target.png,125,3.2155,6,5694,123,feet,jsons/VE125_randls_59.json,823740,1111637,72,Woman
47,113882,DepthScenes,duration_manipulation_targetAtFixation,jsons/VE125_randls_59.json,http://54.235.29.9/FacialAge/BNav_EC2/DepthDuration/v2_depth_duration_MTurk/v2_DepthDuration_HTML.html#68,68,911,416,1366,768,9-20-2022,12-2-53,48,depth_duration_stimuli/000906_2014-06-08_13-35-43_260595134347_rgbf000155-resize_1/000906_2014-06-08_13-35-43_260595134347_rgbf000155-resize_1-target.png,125,2.8489999999999998,5,4514,118,feet,jsons/VE125_randls_59.json,823740,1111637,72,Woman
48,113882,DepthScenes,duration_manipulation_targetAtFixation,jsons/VE125_randls_59.json,http://54.235.29.9/FacialAge/BNav_EC2/DepthDuration/v2_depth_duration_MTurk/v2_DepthDuration_HTML.html#68,68,911,416,1366,768,9-20-2022,12-2-53,49,depth_duration_stimuli/002805_2014-06-22_19-54-03_094959634447_rgbf000079-resize_1/002805_2014-06-22_19-54-03_094959634447_rgbf000079-resize_1-target.png,125,3.1439999999999997,6,4555,125,feet,jsons/VE125_randls_59.json,823740,1111637,72,Woman
49,113882,DepthScenes,duration_manipulation_targetAtFixation,jsons/VE125_randls_59.json,http://54.235.29.9/FacialAge/BNav_EC2/DepthDuration/v2_depth_duration_MTurk/v2_DepthDuration_HTML.html#68,68,911,416,1366,768,9-20-2022,12-2-53,50,depth_duration_stimuli/000506_2014-06-08_23-21-00_260595134347_rgbf000070-resize_7/000506_2014-06-08_23-21-00_260595134347_rgbf000070-resize_7-target.png,125,4.0585,5,3920,121,feet,jsons/VE125_randls_59.json,823740,1111637,72,Woman
50,113882,DepthScenes,duration_manipulation_targetAtFixation,jsons/VE125_randls_59.json,http://54.235.29.9/FacialAge/BNav_EC2/DepthDuration/v2_depth_duration_MTurk/v2_DepthDuration_HTML.html#68,68,911,416,1366,768,9-20-2022,12-2-53,51,depth_duration_stimuli/003079_2014-06-15_15-18-20_094959634447_rgbf000152-resize_8/003079_2014-06-15_15-18-20_094959634447_rgbf000152-resize_8-target.png,125,2.8775,6,4358,123,feet,jsons/VE125_randls_59.json,823740,1111637,72,Woman
51,113882,DepthScenes,duration_manipulation_targetAtFixation,jsons/VE125_randls_59.json,http://54.235.29.9/FacialAge/BNav_EC2/DepthDuration/v2_depth_duration_MTurk/v2_DepthDuration_HTML.html#68,68,911,416,1366,768,9-20-2022,12-2-53,52,depth_duration_stimuli/002509_2014-06-24_13-19-22_094959634447_rgbf000077-resize_0/002509_2014-06-24_13-19-22_094959634447_rgbf000077-resize_0-target.png,125,1.3065,4,3974,125,feet,jsons/VE125_randls_59.json,823740,1111637,72,Woman
52,113882,DepthScenes,duration_manipulation_targetAtFixation,jsons/VE125_randls_59.json,http://54.235.29.9/FacialAge/BNav_EC2/DepthDuration/v2_depth_duration_MTurk/v2_DepthDuration_HTML.html#68,68,911,416,1366,768,9-20-2022,12-2-53,53,depth_duration_stimuli/003338_2014-05-20_11-01-23_094959634447_rgbf000051-resize_6/003338_2014-05-20_11-01-23_094959634447_rgbf000051-resize_6-target.png,125,1.693,3,4729,124,feet,jsons/VE125_randls_59.json,823740,1111637,72,Woman
53,113882,DepthScenes,duration_manipulation_targetAtFixation,jsons/VE125_randls_59.json,http://54.235.29.9/FacialAge/BNav_EC2/DepthDuration/v2_depth_duration_MTurk/v2_DepthDuration_HTML.html#68,68,911,416,1366,768,9-20-2022,12-2-53,54,depth_duration_stimuli/001158_2014-06-17_15-32-16_260595134347_rgbf000138-resize_2/001158_2014-06-17_15-32-16_260595134347_rgbf000138-resize_2-target.png,125,4.5315,5,4281,125,feet,jsons/VE125_randls_59.json,823740,1111637,72,Woman
54,113882,DepthScenes,duration_manipulation_targetAtFixation,jsons/VE125_randls_59.json,http://54.235.29.9/FacialAge/BNav_EC2/DepthDuration/v2_depth_duration_MTurk/v2_DepthDuration_HTML.html#68,68,911,416,1366,768,9-20-2022,12-2-53,55,depth_duration_stimuli/000556_2014-06-09_22-42-56_260595134347_rgbf000214-resize_1/000556_2014-06-09_22-42-56_260595134347_rgbf000214-resize_1-target.png,125,4.8415,5,8408,112,feet,jsons/VE125_randls_59.json,823740,1111637,72,Woman
55,113882,DepthScenes,duration_manipulation_targetAtFixation,jsons/VE125_randls_59.json,http://54.235.29.9/FacialAge/BNav_EC2/DepthDuration/v2_depth_duration_MTurk/v2_DepthDuration_HTML.html#68,68,911,416,1366,768,9-20-2022,12-2-53,56,depth_duration_stimuli/000788_2014-06-08_22-34-36_260595134347_rgbf000131-resize_1/000788_2014-06-08_22-34-36_260595134347_rgbf000131-resize_1-target.png,125,3.359,5,5281,128,feet,jsons/VE125_randls_59.json,823740,1111637,72,Woman
56,113882,DepthScenes,duration_manipulation_targetAtFixation,jsons/VE125_randls_59.json,http://54.235.29.9/FacialAge/BNav_EC2/DepthDuration/v2_depth_duration_MTurk/v2_DepthDuration_HTML.html#68,68,911,416,1366,768,9-20-2022,12-2-53,57,depth_duration_stimuli/001235_2014-06-17_16-37-36_260595134347_rgbf000084-resize_4/001235_2014-06-17_16-37-36_260595134347_rgbf000084-resize_4-target.png,125,3.6605,6,4286,117,feet,jsons/VE125_randls_59.json,823740,1111637,72,Woman
57,113882,DepthScenes,duration_manipulation_targetAtFixation,jsons/VE125_randls_59.json,http://54.235.29.9/FacialAge/BNav_EC2/DepthDuration/v2_depth_duration_MTurk/v2_DepthDuration_HTML.html#68,68,911,416,1366,768,9-20-2022,12-2-53,58,depth_duration_stimuli/002153_2014-06-25_21-27-18_260595134347_rgbf000038-resize_5/002153_2014-06-25_21-27-18_260595134347_rgbf000038-resize_5-target.png,125,2.505,3,4628,125,feet,jsons/VE125_randls_59.json,823740,1111637,72,Woman
58,113882,DepthScenes,duration_manipulation_targetAtFixation,jsons/VE125_randls_59.json,http://54.235.29.9/FacialAge/BNav_EC2/DepthDuration/v2_depth_duration_MTurk/v2_DepthDuration_HTML.html#68,68,911,416,1366,768,9-20-2022,12-2-53,59,depth_duration_stimuli/002660_2014-06-13_15-44-18_094959634447_rgbf001878-resize_2/002660_2014-06-13_15-44-18_094959634447_rgbf001878-resize_2-target.png,125,3.576,5,4038,125,feet,jsons/VE125_randls_59.json,823740,1111637,72,Woman
59,113882,DepthScenes,duration_manipulation_targetAtFixation,jsons/VE125_randls_59.json,http://54.235.29.9/FacialAge/BNav_EC2/DepthDuration/v2_depth_duration_MTurk/v2_DepthDuration_HTML.html#68,68,911,416,1366,768,9-20-2022,12-2-53,60,depth_duration_stimuli/000810_2014-06-08_17-20-01_260595134347_rgbf000105-resize_0/000810_2014-06-08_17-20-01_260595134347_rgbf000105-resize_0-target.png,125,1.4865,5,4163,122,feet,jsons/VE125_randls_59.json,823740,1111637,72,Woman
60,113882,DepthScenes,duration_manipulation_targetAtFixation,jsons/VE125_randls_59.json,http://54.235.29.9/FacialAge/BNav_EC2/DepthDuration/v2_depth_duration_MTurk/v2_DepthDuration_HTML.html#68,68,911,416,1366,768,9-20-2022,12-2-53,61,depth_duration_stimuli/001214_2014-06-17_16-13-55_260595134347_rgbf000111-resize_0/001214_2014-06-17_16-13-55_260595134347_rgbf000111-resize_0-target.png,125,2.6505,5,4350,118,feet,jsons/VE125_randls_59.json,823740,1111637,72,Woman
61,113882,DepthScenes,duration_manipulation_targetAtFixation,jsons/VE125_randls_59.json,http://54.235.29.9/FacialAge/BNav_EC2/DepthDuration/v2_depth_duration_MTurk/v2_DepthDuration_HTML.html#68,68,911,416,1366,768,9-20-2022,12-2-53,62,depth_duration_stimuli/002039_2014-06-24_20-22-38_260595134347_rgbf000084-resize_1/002039_2014-06-24_20-22-38_260595134347_rgbf000084-resize_1-target.png,125,4.408,6,5072,125,feet,jsons/VE125_randls_59.json,823740,1111637,72,Woman
62,113882,DepthScenes,duration_manipulation_targetAtFixation,jsons/VE125_randls_59.json,http://54.235.29.9/FacialAge/BNav_EC2/DepthDuration/v2_depth_duration_MTurk/v2_DepthDuration_HTML.html#68,68,911,416,1366,768,9-20-2022,12-2-53,63,depth_duration_stimuli/002103_2014-06-25_20-00-40_260595134347_rgbf000049-resize_0/002103_2014-06-25_20-00-40_260595134347_rgbf000049-resize_0-target.png,125,4.105,6,4025,124,feet,jsons/VE125_randls_59.json,823740,1111637,72,Woman
63,113882,DepthScenes,duration_manipulation_targetAtFixation,jsons/VE125_randls_59.json,http://54.235.29.9/FacialAge/BNav_EC2/DepthDuration/v2_depth_duration_MTurk/v2_DepthDuration_HTML.html#68,68,911,416,1366,768,9-20-2022,12-2-53,64,depth_duration_stimuli/003292_2014-05-14_21-53-49_094959634447_rgbf000100-resize_2/003292_2014-05-14_21-53-49_094959634447_rgbf000100-resize_2-target.png,125,3.4815,5,4428,126,feet,jsons/VE125_randls_59.json,823740,1111637,72,Woman
64,113882,DepthScenes,duration_manipulation_targetAtFixation,jsons/VE125_randls_59.json,http://54.235.29.9/FacialAge/BNav_EC2/DepthDuration/v2_depth_duration_MTurk/v2_DepthDuration_HTML.html#68,68,911,416,1366,768,9-20-2022,12-2-53,65,depth_duration_stimuli/002639_2014-06-24_14-51-37_094959634447_rgbf000074-resize_4/002639_2014-06-24_14-51-37_094959634447_rgbf000074-resize_4-target.png,125,4.0375,6,4401,128,feet,jsons/VE125_randls_59.json,823740,1111637,72,Woman
65,113882,DepthScenes,duration_manipulation_targetAtFixation,jsons/VE125_randls_59.json,http://54.235.29.9/FacialAge/BNav_EC2/DepthDuration/v2_depth_duration_MTurk/v2_DepthDuration_HTML.html#68,68,911,416,1366,768,9-20-2022,12-2-53,66,depth_duration_stimuli/001222_2014-06-17_16-24-06_260595134347_rgbf000073-resize_0/001222_2014-06-17_16-24-06_260595134347_rgbf000073-resize-original.jpg,125,1.4385,5,4554,106,feet,jsons/VE125_randls_59.json,823740,1111637,72,Woman
66,113882,DepthScenes,duration_manipulation_targetAtFixation,jsons/VE125_randls_59.json,http://54.235.29.9/FacialAge/BNav_EC2/DepthDuration/v2_depth_duration_MTurk/v2_DepthDuration_HTML.html#68,68,911,416,1366,768,9-20-2022,12-2-53,67,depth_duration_stimuli/003621_2014-05-23_18-06-08_094959634447_rgbf000101-resize_1/003621_2014-05-23_18-06-08_094959634447_rgbf000101-resize_1-target.png,125,3.9835,6,4137,125,feet,jsons/VE125_randls_59.json,823740,1111637,72,Woman
67,113882,DepthScenes,duration_manipulation_targetAtFixation,jsons/VE125_randls_59.json,http://54.235.29.9/FacialAge/BNav_EC2/DepthDuration/v2_depth_duration_MTurk/v2_DepthDuration_HTML.html#68,68,911,416,1366,768,9-20-2022,12-2-53,68,depth_duration_stimuli/001584_2014-06-20_11-07-43_260595134347_rgbf000002-resize_1/001584_2014-06-20_11-07-43_260595134347_rgbf000002-resize_1-target.png,125,3.53,6,4354,111,feet,jsons/VE125_randls_59.json,823740,1111637,72,Woman
68,113882,DepthScenes,duration_manipulation_targetAtFixation,jsons/VE125_randls_59.json,http://54.235.29.9/FacialAge/BNav_EC2/DepthDuration/v2_depth_duration_MTurk/v2_DepthDuration_HTML.html#68,68,911,416,1366,768,9-20-2022,12-2-53,69,depth_duration_stimuli/000773_2014-06-08_22-24-54_260595134347_rgbf000093-resize_1/000773_2014-06-08_22-24-54_260595134347_rgbf000093-resize_1-target.png,125,4.973,5,4681,125,feet,jsons/VE125_randls_59.json,823740,1111637,72,Woman
69,113882,DepthScenes,duration_manipulation_targetAtFixation,jsons/VE125_randls_59.json,http://54.235.29.9/FacialAge/BNav_EC2/DepthDuration/v2_depth_duration_MTurk/v2_DepthDuration_HTML.html#68,68,911,416,1366,768,9-20-2022,12-2-53,70,depth_duration_stimuli/002414_2014-06-28_20-24-58_260595134347_rgbf000067-resize_4/002414_2014-06-28_20-24-58_260595134347_rgbf000067-resize_4-target.png,125,4.363,4,5049,123,feet,jsons/VE125_randls_59.json,823740,1111637,72,Woman
70,113882,DepthScenes,duration_manipulation_targetAtFixation,jsons/VE125_randls_59.json,http://54.235.29.9/FacialAge/BNav_EC2/DepthDuration/v2_depth_duration_MTurk/v2_DepthDuration_HTML.html#68,68,911,416,1366,768,9-20-2022,12-2-53,71,depth_duration_stimuli/001806_2014-06-26_20-50-20_260595134347_rgbf000091-resize_1/001806_2014-06-26_20-50-20_260595134347_rgbf000091-resize_1-target.png,125,2.7305,4,4062,124,feet,jsons/VE125_randls_59.json,823740,1111637,72,Woman
71,113882,DepthScenes,duration_manipulation_targetAtFixation,jsons/VE125_randls_59.json,http://54.235.29.9/FacialAge/BNav_EC2/DepthDuration/v2_depth_duration_MTurk/v2_DepthDuration_HTML.html#68,68,911,416,1366,768,9-20-2022,12-2-53,72,depth_duration_stimuli/001617_2014-06-20_11-35-32_260595134347_rgbf000066-resize_1/001617_2014-06-20_11-35-32_260595134347_rgbf000066-resize_1-target.png,125,3.7910000000000004,6,4207,125,feet,jsons/VE125_randls_59.json,823740,1111637,72,Woman
72,113882,DepthScenes,duration_manipulation_targetAtFixation,jsons/VE125_randls_59.json,http://54.235.29.9/FacialAge/BNav_EC2/DepthDuration/v2_depth_duration_MTurk/v2_DepthDuration_HTML.html#68,68,911,416,1366,768,9-20-2022,12-2-53,73,depth_duration_stimuli/001056_2014-06-08_18-46-44_260595134347_rgbf000068-resize_0/001056_2014-06-08_18-46-44_260595134347_rgbf000068-resize_0-target.png,125,2.6625,5,3866,127,feet,jsons/VE125_randls_59.json,823740,1111637,72,Woman
73,113882,DepthScenes,duration_manipulation_targetAtFixation,jsons/VE125_randls_59.json,http://54.235.29.9/FacialAge/BNav_EC2/DepthDuration/v2_depth_duration_MTurk/v2_DepthDuration_HTML.html#68,68,911,416,1366,768,9-20-2022,12-2-53,74,depth_duration_stimuli/002199_2014-06-28_18-33-56_260595134347_rgbf000074-resize_0/002199_2014-06-28_18-33-56_260595134347_rgbf000074-resize_0-target.png,125,1.996,3,4681,125,feet,jsons/VE125_randls_59.json,823740,1111637,72,Woman
74,113882,DepthScenes,duration_manipulation_targetAtFixation,jsons/VE125_randls_59.json,http://54.235.29.9/FacialAge/BNav_EC2/DepthDuration/v2_depth_duration_MTurk/v2_DepthDuration_HTML.html#68,68,911,416,1366,768,9-20-2022,12-2-53,75,depth_duration_stimuli/001555_2014-06-20_17-12-10_260595134347_rgbf000065-resize_4/001555_2014-06-20_17-12-10_260595134347_rgbf000065-resize_4-target.png,125,1.633,3,4278,111,feet,jsons/VE125_randls_59.json,823740,1111637,72,Woman
75,113882,DepthScenes,duration_manipulation_targetAtFixation,jsons/VE125_randls_59.json,http://54.235.29.9/FacialAge/BNav_EC2/DepthDuration/v2_depth_duration_MTurk/v2_DepthDuration_HTML.html#68,68,911,416,1366,768,9-20-2022,12-2-53,76,depth_duration_stimuli/000103_2014-05-14_22-01-17_260595134347_rgbf000152-resize_5/000103_2014-05-14_22-01-17_260595134347_rgbf000152-resize_5-target.png,125,1.993,4,3870,124,feet,jsons/VE125_randls_59.json,823740,1111637,72,Woman
76,113882,DepthScenes,duration_manipulation_targetAtFixation,jsons/VE125_randls_59.json,http://54.235.29.9/FacialAge/BNav_EC2/DepthDuration/v2_depth_duration_MTurk/v2_DepthDuration_HTML.html#68,68,911,416,1366,768,9-20-2022,12-2-53,77,depth_duration_stimuli/000758_2014-06-08_22-05-08_260595134347_rgbf000085-resize_0/000758_2014-06-08_22-05-08_260595134347_rgbf000085-resize_0-target.png,125,3.3810000000000002,5,4302,128,feet,jsons/VE125_randls_59.json,823740,1111637,72,Woman
77,113882,DepthScenes,duration_manipulation_targetAtFixation,jsons/VE125_randls_59.json,http://54.235.29.9/FacialAge/BNav_EC2/DepthDuration/v2_depth_duration_MTurk/v2_DepthDuration_HTML.html#68,68,911,416,1366,768,9-20-2022,12-2-53,78,depth_duration_stimuli/000854_2014-06-09_19-43-13_260595134347_rgbf000066-resize_0/000854_2014-06-09_19-43-13_260595134347_rgbf000066-resize_0-target.png,125,3.068,5,5340,113,feet,jsons/VE125_randls_59.json,823740,1111637,72,Woman
78,113882,DepthScenes,duration_manipulation_targetAtFixation,jsons/VE125_randls_59.json,http://54.235.29.9/FacialAge/BNav_EC2/DepthDuration/v2_depth_duration_MTurk/v2_DepthDuration_HTML.html#68,68,911,416,1366,768,9-20-2022,12-2-53,79,depth_duration_stimuli/000692_2014-06-08_13-09-42_260595134347_rgbf000199-resize_2/000692_2014-06-08_13-09-42_260595134347_rgbf000199-resize_2-target.png,125,3.661,5,4280,126,feet,jsons/VE125_randls_59.json,823740,1111637,72,Woman
79,113882,DepthScenes,duration_manipulation_targetAtFixation,jsons/VE125_randls_59.json,http://54.235.29.9/FacialAge/BNav_EC2/DepthDuration/v2_depth_duration_MTurk/v2_DepthDuration_HTML.html#68,68,911,416,1366,768,9-20-2022,12-2-53,80,depth_duration_stimuli/001094_2014-06-15_17-36-00_260595134347_rgbf000205-resize_0/001094_2014-06-15_17-36-00_260595134347_rgbf000205-resize_0-target.png,125,4.2175,6,4117,124,feet,jsons/VE125_randls_59.json,823740,1111637,72,Woman
80,113882,DepthScenes,duration_manipulation_targetAtFixation,jsons/VE125_randls_59.json,http://54.235.29.9/FacialAge/BNav_EC2/DepthDuration/v2_depth_duration_MTurk/v2_DepthDuration_HTML.html#68,68,911,416,1366,768,9-20-2022,12-2-53,81,depth_duration_stimuli/002043_2014-06-24_20-29-38_260595134347_rgbf000039-resize_4/002043_2014-06-24_20-29-38_260595134347_rgbf000039-resize_4-target.png,125,2.8435,5,4697,133,feet,jsons/VE125_randls_59.json,823740,1111637,72,Woman
81,113882,DepthScenes,duration_manipulation_targetAtFixation,jsons/VE125_randls_59.json,http://54.235.29.9/FacialAge/BNav_EC2/DepthDuration/v2_depth_duration_MTurk/v2_DepthDuration_HTML.html#68,68,911,416,1366,768,9-20-2022,12-2-53,82,depth_duration_stimuli/003048_2014-06-15_13-49-43_094959634447_rgbf000150-resize_1/003048_2014-06-15_13-49-43_094959634447_rgbf000150-resize_1-target.png,125,4.0035,6,3918,127,feet,jsons/VE125_randls_59.json,823740,1111637,72,Woman
82,113882,DepthScenes,duration_manipulation_targetAtFixation,jsons/VE125_randls_59.json,http://54.235.29.9/FacialAge/BNav_EC2/DepthDuration/v2_depth_duration_MTurk/v2_DepthDuration_HTML.html#68,68,911,416,1366,768,9-20-2022,12-2-53,83,depth_duration_stimuli/002964_2014-06-08_17-46-11_094959634447_rgbf000091-resize_4/002964_2014-06-08_17-46-11_094959634447_rgbf000091-resize_4-target.png,125,1.6909999999999998,3,3953,112,feet,jsons/VE125_randls_59.json,823740,1111637,72,Woman
83,113882,DepthScenes,duration_manipulation_targetAtFixation,jsons/VE125_randls_59.json,http://54.235.29.9/FacialAge/BNav_EC2/DepthDuration/v2_depth_duration_MTurk/v2_DepthDuration_HTML.html#68,68,911,416,1366,768,9-20-2022,12-2-53,84,depth_duration_stimuli/002136_2014-06-25_21-18-03_260595134347_rgbf000109-resize_3/002136_2014-06-25_21-18-03_260595134347_rgbf000109-resize_3-target.png,125,1.9569999999999999,3,4653,134,feet,jsons/VE125_randls_59.json,823740,1111637,72,Woman
84,113882,DepthScenes,duration_manipulation_targetAtFixation,jsons/VE125_randls_59.json,http://54.235.29.9/FacialAge/BNav_EC2/DepthDuration/v2_depth_duration_MTurk/v2_DepthDuration_HTML.html#68,68,911,416,1366,768,9-20-2022,12-2-53,85,depth_duration_stimuli/000447_2014-06-08_16-15-46_260595134347_rgbf000130-resize_1/000447_2014-06-08_16-15-46_260595134347_rgbf000130-resize_1-target.png,125,4.479,0,4823,121,feet,jsons/VE125_randls_59.json,823740,1111637,72,Woman
85,113882,DepthScenes,duration_manipulation_targetAtFixation,jsons/VE125_randls_59.json,http://54.235.29.9/FacialAge/BNav_EC2/DepthDuration/v2_depth_duration_MTurk/v2_DepthDuration_HTML.html#68,68,911,416,1366,768,9-20-2022,12-2-53,86,depth_duration_stimuli/001447_2014-06-19_17-00-32_260595134347_rgbf000082-resize_5/001447_2014-06-19_17-00-32_260595134347_rgbf000082-resize_5-target.png,125,4.13775,4,4143,118,feet,jsons/VE125_randls_59.json,823740,1111637,72,Woman
86,113882,DepthScenes,duration_manipulation_targetAtFixation,jsons/VE125_randls_59.json,http://54.235.29.9/FacialAge/BNav_EC2/DepthDuration/v2_depth_duration_MTurk/v2_DepthDuration_HTML.html#68,68,911,416,1366,768,9-20-2022,12-2-53,87,depth_duration_stimuli/001059_2014-06-08_21-53-27_260595134347_rgbf000061-resize_4/001059_2014-06-08_21-53-27_260595134347_rgbf000061-resize_4-target.png,125,2.4185,5,4026,124,feet,jsons/VE125_randls_59.json,823740,1111637,72,Woman
87,113882,DepthScenes,duration_manipulation_targetAtFixation,jsons/VE125_randls_59.json,http://54.235.29.9/FacialAge/BNav_EC2/DepthDuration/v2_depth_duration_MTurk/v2_DepthDuration_HTML.html#68,68,911,416,1366,768,9-20-2022,12-2-53,88,depth_duration_stimuli/001032_2014-06-08_13-23-17_260595134347_rgbf000021-resize_3/001032_2014-06-08_13-23-17_260595134347_rgbf000021-resize_3-target.png,125,3.2725,4,4392,121,feet,jsons/VE125_randls_59.json,823740,1111637,72,Woman
88,113882,DepthScenes,duration_manipulation_targetAtFixation,jsons/VE125_randls_59.json,http://54.235.29.9/FacialAge/BNav_EC2/DepthDuration/v2_depth_duration_MTurk/v2_DepthDuration_HTML.html#68,68,911,416,1366,768,9-20-2022,12-2-53,89,depth_duration_stimuli/001092_2014-06-15_17-34-58_260595134347_rgbf000171-resize_3/001092_2014-06-15_17-34-58_260595134347_rgbf000171-resize_3-target.png,125,2.6935,2,5645,123,feet,jsons/VE125_randls_59.json,823740,1111637,72,Woman
89,113882,DepthScenes,duration_manipulation_targetAtFixation,jsons/VE125_randls_59.json,http://54.235.29.9/FacialAge/BNav_EC2/DepthDuration/v2_depth_duration_MTurk/v2_DepthDuration_HTML.html#68,68,911,416,1366,768,9-20-2022,12-2-53,90,depth_duration_stimuli/002545_2014-06-24_13-38-53_094959634447_rgbf000080-resize_4/002545_2014-06-24_13-38-53_094959634447_rgbf000080-resize_4-target.png,125,1.9205,4,4159,124,feet,jsons/VE125_randls_59.json,823740,1111637,72,Woman
90,113882,DepthScenes,duration_manipulation_targetAtFixation,jsons/VE125_randls_59.json,http://54.235.29.9/FacialAge/BNav_EC2/DepthDuration/v2_depth_duration_MTurk/v2_DepthDuration_HTML.html#68,68,911,416,1366,768,9-20-2022,12-2-53,91,depth_duration_stimuli/002763_2014-06-22_19-13-10_094959634447_rgbf000075-resize_4/002763_2014-06-22_19-13-10_094959634447_rgbf000075-resize_4-target.png,125,1.68375,4,4759,125,feet,jsons/VE125_randls_59.json,823740,1111637,72,Woman
91,113882,DepthScenes,duration_manipulation_targetAtFixation,jsons/VE125_randls_59.json,http://54.235.29.9/FacialAge/BNav_EC2/DepthDuration/v2_depth_duration_MTurk/v2_DepthDuration_HTML.html#68,68,911,416,1366,768,9-20-2022,12-2-53,92,depth_duration_stimuli/002209_2014-06-28_18-36-10_260595134347_rgbf000051-resize_1/002209_2014-06-28_18-36-10_260595134347_rgbf000051-resize_1-target.png,125,2.057,2,4474,125,feet,jsons/VE125_randls_59.json,823740,1111637,72,Woman
92,113882,DepthScenes,duration_manipulation_targetAtFixation,jsons/VE125_randls_59.json,http://54.235.29.9/FacialAge/BNav_EC2/DepthDuration/v2_depth_duration_MTurk/v2_DepthDuration_HTML.html#68,68,911,416,1366,768,9-20-2022,12-2-53,93,depth_duration_stimuli/000414_2014-06-04_19-49-13_260595134347_rgbf000044-resize_0/000414_2014-06-04_19-49-13_260595134347_rgbf000044-resize_0-target.png,125,4.329,5,4843,116,feet,jsons/VE125_randls_59.json,823740,1111637,72,Woman
93,113882,DepthScenes,duration_manipulation_targetAtFixation,jsons/VE125_randls_59.json,http://54.235.29.9/FacialAge/BNav_EC2/DepthDuration/v2_depth_duration_MTurk/v2_DepthDuration_HTML.html#68,68,911,416,1366,768,9-20-2022,12-2-53,94,depth_duration_stimuli/003129_2014-05-12_10-48-10_094959634447_rgbf000100-resize_0/003129_2014-05-12_10-48-10_094959634447_rgbf000100-resize_0-target.png,125,4.9305,5,4450,109,feet,jsons/VE125_randls_59.json,823740,1111637,72,Woman
94,113882,DepthScenes,duration_manipulation_targetAtFixation,jsons/VE125_randls_59.json,http://54.235.29.9/FacialAge/BNav_EC2/DepthDuration/v2_depth_duration_MTurk/v2_DepthDuration_HTML.html#68,68,911,416,1366,768,9-20-2022,12-2-53,95,depth_duration_stimuli/000929_2014-06-09_16-33-19_260595134347_rgbf000139-resize_0/000929_2014-06-09_16-33-19_260595134347_rgbf000139-resize_0-target.png,125,2.8680000000000003,3,3848,124,feet,jsons/VE125_randls_59.json,823740,1111637,72,Woman
95,113882,DepthScenes,duration_manipulation_targetAtFixation,jsons/VE125_randls_59.json,http://54.235.29.9/FacialAge/BNav_EC2/DepthDuration/v2_depth_duration_MTurk/v2_DepthDuration_HTML.html#68,68,911,416,1366,768,9-20-2022,12-2-53,96,depth_duration_stimuli/000457_2014-06-08_16-52-43_260595134347_rgbf000199-resize_1/000457_2014-06-08_16-52-43_260595134347_rgbf000199-resize_1-target.png,125,3.6489999999999996,0,4300,111,feet,jsons/VE125_randls_59.json,823740,1111637,72,Woman
96,113882,DepthScenes,duration_manipulation_targetAtFixation,jsons/VE125_randls_59.json,http://54.235.29.9/FacialAge/BNav_EC2/DepthDuration/v2_depth_duration_MTurk/v2_DepthDuration_HTML.html#68,68,911,416,1366,768,9-20-2022,12-2-53,97,depth_duration_stimuli/001133_2014-06-17_14-49-16_260595134347_rgbf000100-resize_0/001133_2014-06-17_14-49-16_260595134347_rgbf000100-resize_0-target.png,125,4.2115,4,4401,109,feet,jsons/VE125_randls_59.json,823740,1111637,72,Woman
97,113882,DepthScenes,duration_manipulation_targetAtFixation,jsons/VE125_randls_59.json,http://54.235.29.9/FacialAge/BNav_EC2/DepthDuration/v2_depth_duration_MTurk/v2_DepthDuration_HTML.html#68,68,911,416,1366,768,9-20-2022,12-2-53,98,depth_duration_stimuli/001132_2014-06-17_14-48-54_260595134347_rgbf000100-resize_2/001132_2014-06-17_14-48-54_260595134347_rgbf000100-resize_2-target.png,125,3.753,5,4505,109,feet,jsons/VE125_randls_59.json,823740,1111637,72,Woman
98,113882,DepthScenes,duration_manipulation_targetAtFixation,jsons/VE125_randls_59.json,http://54.235.29.9/FacialAge/BNav_EC2/DepthDuration/v2_depth_duration_MTurk/v2_DepthDuration_HTML.html#68,68,911,416,1366,768,9-20-2022,12-2-53,99,depth_duration_stimuli/001540_2014-06-20_17-01-05_260595134347_rgbf000086-resize_2/001540_2014-06-20_17-01-05_260595134347_rgbf000086-resize-original.jpg,125,1.459,3,4239,124,feet,jsons/VE125_randls_59.json,823740,1111637,72,Woman
99,113882,DepthScenes,duration_manipulation_targetAtFixation,jsons/VE125_randls_59.json,http://54.235.29.9/FacialAge/BNav_EC2/DepthDuration/v2_depth_duration_MTurk/v2_DepthDuration_HTML.html#68,68,911,416,1366,768,9-20-2022,12-2-53,100,depth_duration_stimuli/002570_2014-06-24_13-59-54_094959634447_rgbf000059-resize_0/002570_2014-06-24_13-59-54_094959634447_rgbf000059-resize_0-target.png,125,4.037,3,4182,125,feet,jsons/VE125_randls_59.json,823740,1111637,72,Woman
100,113882,DepthScenes,duration_manipulation_targetAtFixation,jsons/VE125_randls_59.json,http://54.235.29.9/FacialAge/BNav_EC2/DepthDuration/v2_depth_duration_MTurk/v2_DepthDuration_HTML.html#68,68,911,416,1366,768,9-20-2022,12-2-53,101,depth_duration_stimuli/002467_2014-06-28_20-38-07_260595134347_rgbf000026-resize_2/002467_2014-06-28_20-38-07_260595134347_rgbf000026-resize_2-target.png,125,4.742,4,3993,126,feet,jsons/VE125_randls_59.json,823740,1111637,72,Woman
101,113882,DepthScenes,duration_manipulation_targetAtFixation,jsons/VE125_randls_59.json,http://54.235.29.9/FacialAge/BNav_EC2/DepthDuration/v2_depth_duration_MTurk/v2_DepthDuration_HTML.html#68,68,911,416,1366,768,9-20-2022,12-2-53,102,depth_duration_stimuli/001011_2014-06-08_23-18-54_260595134347_rgbf000044-resize_4/001011_2014-06-08_23-18-54_260595134347_rgbf000044-resize_4-target.png,125,2.4730000000000003,4,4891,126,feet,jsons/VE125_randls_59.json,823740,1111637,72,Woman
102,113882,DepthScenes,duration_manipulation_targetAtFixation,jsons/VE125_randls_59.json,http://54.235.29.9/FacialAge/BNav_EC2/DepthDuration/v2_depth_duration_MTurk/v2_DepthDuration_HTML.html#68,68,911,416,1366,768,9-20-2022,12-2-53,103,depth_duration_stimuli/002875_2014-06-01_15-19-00_094959634447_rgbf000151-resize_1/002875_2014-06-01_15-19-00_094959634447_rgbf000151-resize_1-target.png,125,1.9675,4,4249,125,feet,jsons/VE125_randls_59.json,823740,1111637,72,Woman
103,113882,DepthScenes,duration_manipulation_targetAtFixation,jsons/VE125_randls_59.json,http://54.235.29.9/FacialAge/BNav_EC2/DepthDuration/v2_depth_duration_MTurk/v2_DepthDuration_HTML.html#68,68,911,416,1366,768,9-20-2022,12-2-53,104,depth_duration_stimuli/002279_2014-06-28_18-55-32_260595134347_rgbf000040-resize_5/002279_2014-06-28_18-55-32_260595134347_rgbf000040-resize_5-target.png,125,1.5043333333333,3,3906,110,feet,jsons/VE125_randls_59.json,823740,1111637,72,Woman
104,113882,DepthScenes,duration_manipulation_targetAtFixation,jsons/VE125_randls_59.json,http://54.235.29.9/FacialAge/BNav_EC2/DepthDuration/v2_depth_duration_MTurk/v2_DepthDuration_HTML.html#68,68,911,416,1366,768,9-20-2022,12-2-53,105,depth_duration_stimuli/000635_2014-06-08_16-38-42_260595134347_rgbf000106-resize_1/000635_2014-06-08_16-38-42_260595134347_rgbf000106-resize_1-target.png,125,2.074,4,4157,126,feet,jsons/VE125_randls_59.json,823740,1111637,72,Woman
105,113882,DepthScenes,duration_manipulation_targetAtFixation,jsons/VE125_randls_59.json,http://54.235.29.9/FacialAge/BNav_EC2/DepthDuration/v2_depth_duration_MTurk/v2_DepthDuration_HTML.html#68,68,911,416,1366,768,9-20-2022,12-2-53,106,depth_duration_stimuli/002630_2014-06-24_14-47-50_094959634447_rgbf000055-resize_1/002630_2014-06-24_14-47-50_094959634447_rgbf000055-resize_1-target.png,125,3.0095,5,4392,126,feet,jsons/VE125_randls_59.json,823740,1111637,72,Woman
106,113882,DepthScenes,duration_manipulation_targetAtFixation,jsons/VE125_randls_59.json,http://54.235.29.9/FacialAge/BNav_EC2/DepthDuration/v2_depth_duration_MTurk/v2_DepthDuration_HTML.html#68,68,911,416,1366,768,9-20-2022,12-2-53,107,depth_duration_stimuli/002758_2014-06-22_19-11-20_094959634447_rgbf000128-resize_1/002758_2014-06-22_19-11-20_094959634447_rgbf000128-resize_1-target.png,125,2.555,4,3988,132,feet,jsons/VE125_randls_59.json,823740,1111637,72,Woman
107,113882,DepthScenes,duration_manipulation_targetAtFixation,jsons/VE125_randls_59.json,http://54.235.29.9/FacialAge/BNav_EC2/DepthDuration/v2_depth_duration_MTurk/v2_DepthDuration_HTML.html#68,68,911,416,1366,768,9-20-2022,12-2-53,108,depth_duration_stimuli/000642_2014-06-08_16-59-25_260595134347_rgbf000098-resize_2/000642_2014-06-08_16-59-25_260595134347_rgbf000098-resize_2-target.png,125,2.8815,4,4792,119,feet,jsons/VE125_randls_59.json,823740,1111637,72,Woman
108,113882,DepthScenes,duration_manipulation_targetAtFixation,jsons/VE125_randls_59.json,http://54.235.29.9/FacialAge/BNav_EC2/DepthDuration/v2_depth_duration_MTurk/v2_DepthDuration_HTML.html#68,68,911,416,1366,768,9-20-2022,12-2-53,109,depth_duration_stimuli/002425_2014-06-28_20-27-29_260595134347_rgbf000031-resize_8/002425_2014-06-28_20-27-29_260595134347_rgbf000031-resize_8-target.png,125,3.8960000000000004,5,4299,122,feet,jsons/VE125_randls_59.json,823740,1111637,72,Woman
109,113882,DepthScenes,duration_manipulation_targetAtFixation,jsons/VE125_randls_59.json,http://54.235.29.9/FacialAge/BNav_EC2/DepthDuration/v2_depth_duration_MTurk/v2_DepthDuration_HTML.html#68,68,911,416,1366,768,9-20-2022,12-2-53,110,depth_duration_stimuli/002118_2014-06-25_20-32-08_260595134347_rgbf000078-resize_1/002118_2014-06-25_20-32-08_260595134347_rgbf000078-resize_1-target.png,125,2.6460000000000004,4,3940,119,feet,jsons/VE125_randls_59.json,823740,1111637,72,Woman
110,113882,DepthScenes,duration_manipulation_targetAtFixation,jsons/VE125_randls_59.json,http://54.235.29.9/FacialAge/BNav_EC2/DepthDuration/v2_depth_duration_MTurk/v2_DepthDuration_HTML.html#68,68,911,416,1366,768,9-20-2022,12-2-53,111,depth_duration_stimuli/001516_2014-06-20_16-25-09_260595134347_rgbf000076-resize_2/001516_2014-06-20_16-25-09_260595134347_rgbf000076-resize_2-target.png,125,1.7445,3,4068,122,feet,jsons/VE125_randls_59.json,823740,1111637,72,Woman
111,113882,DepthScenes,duration_manipulation_targetAtFixation,jsons/VE125_randls_59.json,http://54.235.29.9/FacialAge/BNav_EC2/DepthDuration/v2_depth_duration_MTurk/v2_DepthDuration_HTML.html#68,68,911,416,1366,768,9-20-2022,12-2-53,112,depth_duration_stimuli/003492_2014-05-21_15-50-55_094959634447_rgbf000828-resize_1/003492_2014-05-21_15-50-55_094959634447_rgbf000828-resize_1-target.png,125,4.06875,5,3601,125,feet,jsons/VE125_randls_59.json,823740,1111637,72,Woman
112,113882,DepthScenes,duration_manipulation_targetAtFixation,jsons/VE125_randls_59.json,http://54.235.29.9/FacialAge/BNav_EC2/DepthDuration/v2_depth_duration_MTurk/v2_DepthDuration_HTML.html#68,68,911,416,1366,768,9-20-2022,12-2-53,113,depth_duration_stimuli/002568_2014-06-24_13-59-21_094959634447_rgbf000062-resize_4/002568_2014-06-24_13-59-21_094959634447_rgbf000062-resize_4-target.png,125,3.015,4,3903,124,feet,jsons/VE125_randls_59.json,823740,1111637,72,Woman
113,113882,DepthScenes,duration_manipulation_targetAtFixation,jsons/VE125_randls_59.json,http://54.235.29.9/FacialAge/BNav_EC2/DepthDuration/v2_depth_duration_MTurk/v2_DepthDuration_HTML.html#68,68,911,416,1366,768,9-20-2022,12-2-53,114,depth_duration_stimuli/001175_2014-06-17_15-45-55_260595134347_rgbf000129-resize_4/001175_2014-06-17_15-45-55_260595134347_rgbf000129-resize_4-target.png,125,4.255,0,3970,126,feet,jsons/VE125_randls_59.json,823740,1111637,72,Woman
114,113882,DepthScenes,duration_manipulation_targetAtFixation,jsons/VE125_randls_59.json,http://54.235.29.9/FacialAge/BNav_EC2/DepthDuration/v2_depth_duration_MTurk/v2_DepthDuration_HTML.html#68,68,911,416,1366,768,9-20-2022,12-2-53,115,depth_duration_stimuli/003490_2014-05-21_15-50-11_094959634447_rgbf000101-resize_3/003490_2014-05-21_15-50-11_094959634447_rgbf000101-resize_3-target.png,125,3.6445,5,4342,130,feet,jsons/VE125_randls_59.json,823740,1111637,72,Woman
115,113882,DepthScenes,duration_manipulation_targetAtFixation,jsons/VE125_randls_59.json,http://54.235.29.9/FacialAge/BNav_EC2/DepthDuration/v2_depth_duration_MTurk/v2_DepthDuration_HTML.html#68,68,911,416,1366,768,9-20-2022,12-2-53,116,depth_duration_stimuli/001170_2014-06-17_15-43-44_260595134347_rgbf000096-resize_6/001170_2014-06-17_15-43-44_260595134347_rgbf000096-resize-original.jpg,125,1.1909999999999998,3,6416,126,feet,jsons/VE125_randls_59.json,823740,1111637,72,Woman
116,113882,DepthScenes,duration_manipulation_targetAtFixation,jsons/VE125_randls_59.json,http://54.235.29.9/FacialAge/BNav_EC2/DepthDuration/v2_depth_duration_MTurk/v2_DepthDuration_HTML.html#68,68,911,416,1366,768,9-20-2022,12-2-53,117,depth_duration_stimuli/000470_2014-06-09_19-42-40_260595134347_rgbf000094-resize_1/000470_2014-06-09_19-42-40_260595134347_rgbf000094-resize_1-target.png,125,1.831,3,4259,114,feet,jsons/VE125_randls_59.json,823740,1111637,72,Woman
117,113882,DepthScenes,duration_manipulation_targetAtFixation,jsons/VE125_randls_59.json,http://54.235.29.9/FacialAge/BNav_EC2/DepthDuration/v2_depth_duration_MTurk/v2_DepthDuration_HTML.html#68,68,911,416,1366,768,9-20-2022,12-2-53,118,depth_duration_stimuli/000109_2014-05-14_23-41-52_260595134347_rgbf000035-resize_9/000109_2014-05-14_23-41-52_260595134347_rgbf000035-resize_9-target.png,125,1.3545,3,4547,125,feet,jsons/VE125_randls_59.json,823740,1111637,72,Woman
118,113882,DepthScenes,duration_manipulation_targetAtFixation,jsons/VE125_randls_59.json,http://54.235.29.9/FacialAge/BNav_EC2/DepthDuration/v2_depth_duration_MTurk/v2_DepthDuration_HTML.html#68,68,911,416,1366,768,9-20-2022,12-2-53,119,depth_duration_stimuli/001029_2014-06-08_13-17-57_260595134347_rgbf000065-resize_1/001029_2014-06-08_13-17-57_260595134347_rgbf000065-resize_1-target.png,125,3.0835,4,4002,124,feet,jsons/VE125_randls_59.json,823740,1111637,72,Woman
119,113882,DepthScenes,duration_manipulation_targetAtFixation,jsons/VE125_randls_59.json,http://54.235.29.9/FacialAge/BNav_EC2/DepthDuration/v2_depth_duration_MTurk/v2_DepthDuration_HTML.html#68,68,911,416,1366,768,9-20-2022,12-2-53,120,depth_duration_stimuli/000677_2014-06-08_23-10-32_260595134347_rgbf000158-resize_6/000677_2014-06-08_23-10-32_260595134347_rgbf000158-resize_6-target.png,125,3.556,3,4753,126,feet,jsons/VE125_randls_59.json,823740,1111637,72,Woman
120,113882,DepthScenes,duration_manipulation_targetAtFixation,jsons/VE125_randls_59.json,http://54.235.29.9/FacialAge/BNav_EC2/DepthDuration/v2_depth_duration_MTurk/v2_DepthDuration_HTML.html#68,68,911,416,1366,768,9-20-2022,12-2-53,121,depth_duration_stimuli/000522_2014-06-08_13-35-06_260595134347_rgbf000244-resize_1/000522_2014-06-08_13-35-06_260595134347_rgbf000244-resize_1-target.png,125,2.3715,3,4569,104,feet,jsons/VE125_randls_59.json,823740,1111637,72,Woman
121,113882,DepthScenes,duration_manipulation_targetAtFixation,jsons/VE125_randls_59.json,http://54.235.29.9/FacialAge/BNav_EC2/DepthDuration/v2_depth_duration_MTurk/v2_DepthDuration_HTML.html#68,68,911,416,1366,768,9-20-2022,12-2-53,122,depth_duration_stimuli/002949_2014-06-26_15-57-42_094959634447_rgbf000079-resize_1/002949_2014-06-26_15-57-42_094959634447_rgbf000079-resize_1-target.png,125,1.8915,4,5102,128,feet,jsons/VE125_randls_59.json,823740,1111637,72,Woman
122,113882,DepthScenes,duration_manipulation_targetAtFixation,jsons/VE125_randls_59.json,http://54.235.29.9/FacialAge/BNav_EC2/DepthDuration/v2_depth_duration_MTurk/v2_DepthDuration_HTML.html#68,68,911,416,1366,768,9-20-2022,12-2-53,123,depth_duration_stimuli/000917_2014-06-09_22-45-29_260595134347_rgbf000149-resize_3/000917_2014-06-09_22-45-29_260595134347_rgbf000149-resize_3-target.png,125,4.1865,5,3638,132,feet,jsons/VE125_randls_59.json,823740,1111637,72,Woman
123,113882,DepthScenes,duration_manipulation_targetAtFixation,jsons/VE125_randls_59.json,http://54.235.29.9/FacialAge/BNav_EC2/DepthDuration/v2_depth_duration_MTurk/v2_DepthDuration_HTML.html#68,68,911,416,1366,768,9-20-2022,12-2-53,124,depth_duration_stimuli/002323_2014-06-28_20-01-54_260595134347_rgbf000051-resize_4/002323_2014-06-28_20-01-54_260595134347_rgbf000051-resize_4-target.png,125,3.7310000000000003,5,3885,125,feet,jsons/VE125_randls_59.json,823740,1111637,72,Woman
124,113882,DepthScenes,duration_manipulation_targetAtFixation,jsons/VE125_randls_59.json,http://54.235.29.9/FacialAge/BNav_EC2/DepthDuration/v2_depth_duration_MTurk/v2_DepthDuration_HTML.html#68,68,911,416,1366,768,9-20-2022,12-2-53,125,depth_duration_stimuli/000486_2014-06-09_20-47-20_260595134347_rgbf000143-resize_2/000486_2014-06-09_20-47-20_260595134347_rgbf000143-resize_2-target.png,125,4.8325,3,4255,127,feet,jsons/VE125_randls_59.json,823740,1111637,72,Woman
125,113882,DepthScenes,duration_manipulation_targetAtFixation,jsons/VE125_randls_59.json,http://54.235.29.9/FacialAge/BNav_EC2/DepthDuration/v2_depth_duration_MTurk/v2_DepthDuration_HTML.html#68,68,911,416,1366,768,9-20-2022,12-2-53,126,depth_duration_stimuli/003083_2014-06-15_15-21-03_094959634447_rgbf000063-resize_1/003083_2014-06-15_15-21-03_094959634447_rgbf000063-resize_1-target.png,125,4.1405,4,4484,112,feet,jsons/VE125_randls_59.json,823740,1111637,72,Woman
126,113882,DepthScenes,duration_manipulation_targetAtFixation,jsons/VE125_randls_59.json,http://54.235.29.9/FacialAge/BNav_EC2/DepthDuration/v2_depth_duration_MTurk/v2_DepthDuration_HTML.html#68,68,911,416,1366,768,9-20-2022,12-2-53,127,depth_duration_stimuli/001810_2014-06-26_20-51-35_260595134347_rgbf000040-resize_3/001810_2014-06-26_20-51-35_260595134347_rgbf000040-resize_3-target.png,125,2.2525,2,3634,109,feet,jsons/VE125_randls_59.json,823740,1111637,72,Woman
127,113882,DepthScenes,duration_manipulation_targetAtFixation,jsons/VE125_randls_59.json,http://54.235.29.9/FacialAge/BNav_EC2/DepthDuration/v2_depth_duration_MTurk/v2_DepthDuration_HTML.html#68,68,911,416,1366,768,9-20-2022,12-2-53,128,depth_duration_stimuli/003010_2014-06-15_12-54-35_094959634447_rgbf000112-resize_0/003010_2014-06-15_12-54-35_094959634447_rgbf000112-resize_0-target.png,125,3.1185,3,4487,124,feet,jsons/VE125_randls_59.json,823740,1111637,72,Woman
128,113882,DepthScenes,duration_manipulation_targetAtFixation,jsons/VE125_randls_59.json,http://54.235.29.9/FacialAge/BNav_EC2/DepthDuration/v2_depth_duration_MTurk/v2_DepthDuration_HTML.html#68,68,911,416,1366,768,9-20-2022,12-2-53,129,depth_duration_stimuli/002549_2014-06-24_13-41-39_094959634447_rgbf000022-resize_3/002549_2014-06-24_13-41-39_094959634447_rgbf000022-resize_3-target.png,125,1.476,3,4070,127,feet,jsons/VE125_randls_59.json,823740,1111637,72,Woman
129,113882,DepthScenes,duration_manipulation_targetAtFixation,jsons/VE125_randls_59.json,http://54.235.29.9/FacialAge/BNav_EC2/DepthDuration/v2_depth_duration_MTurk/v2_DepthDuration_HTML.html#68,68,911,416,1366,768,9-20-2022,12-2-53,130,depth_duration_stimuli/002750_2014-06-22_19-08-03_094959634447_rgbf000094-resize_4/002750_2014-06-22_19-08-03_094959634447_rgbf000094-resize_4-target.png,125,2.354,3,4828,133,feet,jsons/VE125_randls_59.json,823740,1111637,72,Woman
130,113882,DepthScenes,duration_manipulation_targetAtFixation,jsons/VE125_randls_59.json,http://54.235.29.9/FacialAge/BNav_EC2/DepthDuration/v2_depth_duration_MTurk/v2_DepthDuration_HTML.html#68,68,911,416,1366,768,9-20-2022,12-2-53,131,depth_duration_stimuli/002784_2014-06-22_19-26-30_094959634447_rgbf000083-resize_3/002784_2014-06-22_19-26-30_094959634447_rgbf000083-resize_3-target.png,125,1.8046666666667,2,5784,126,feet,jsons/VE125_randls_59.json,823740,1111637,72,Woman
131,113882,DepthScenes,duration_manipulation_targetAtFixation,jsons/VE125_randls_59.json,http://54.235.29.9/FacialAge/BNav_EC2/DepthDuration/v2_depth_duration_MTurk/v2_DepthDuration_HTML.html#68,68,911,416,1366,768,9-20-2022,12-2-53,132,depth_duration_stimuli/001100_2014-06-15_17-46-26_260595134347_rgbf000225-resize_2/001100_2014-06-15_17-46-26_260595134347_rgbf000225-resize_2-target.png,125,2.24,1,4212,111,feet,jsons/VE125_randls_59.json,823740,1111637,72,Woman
132,113882,DepthScenes,duration_manipulation_targetAtFixation,jsons/VE125_randls_59.json,http://54.235.29.9/FacialAge/BNav_EC2/DepthDuration/v2_depth_duration_MTurk/v2_DepthDuration_HTML.html#68,68,911,416,1366,768,9-20-2022,12-2-53,133,depth_duration_stimuli/002725_2014-06-22_11-47-51_094959634447_rgbf000070-resize_1/002725_2014-06-22_11-47-51_094959634447_rgbf000070-resize_1-target.png,125,2.195,3,4006,124,feet,jsons/VE125_randls_59.json,823740,1111637,72,Woman
133,113882,DepthScenes,duration_manipulation_targetAtFixation,jsons/VE125_randls_59.json,http://54.235.29.9/FacialAge/BNav_EC2/DepthDuration/v2_depth_duration_MTurk/v2_DepthDuration_HTML.html#68,68,911,416,1366,768,9-20-2022,12-2-53,134,depth_duration_stimuli/002344_2014-06-28_20-06-29_260595134347_rgbf000030-resize_1/002344_2014-06-28_20-06-29_260595134347_rgbf000030-resize_1-target.png,125,1.5795,2,3713,120,feet,jsons/VE125_randls_59.json,823740,1111637,72,Woman
134,113882,DepthScenes,duration_manipulation_targetAtFixation,jsons/VE125_randls_59.json,http://54.235.29.9/FacialAge/BNav_EC2/DepthDuration/v2_depth_duration_MTurk/v2_DepthDuration_HTML.html#68,68,911,416,1366,768,9-20-2022,12-2-53,135,depth_duration_stimuli/002072_2014-06-24_21-48-06_260595134347_rgbf000115-resize_0/002072_2014-06-24_21-48-06_260595134347_rgbf000115-resize-original.jpg,125,4.702,3,5488,124,feet,jsons/VE125_randls_59.json,823740,1111637,72,Woman
135,113882,DepthScenes,duration_manipulation_targetAtFixation,jsons/VE125_randls_59.json,http://54.235.29.9/FacialAge/BNav_EC2/DepthDuration/v2_depth_duration_MTurk/v2_DepthDuration_HTML.html#68,68,911,416,1366,768,9-20-2022,12-2-53,136,depth_duration_stimuli/001570_2014-06-20_17-21-09_260595134347_rgbf000135-resize_4/001570_2014-06-20_17-21-09_260595134347_rgbf000135-resize_4-target.png,125,4.467,5,3860,124,feet,jsons/VE125_randls_59.json,823740,1111637,72,Woman
136,113882,DepthScenes,duration_manipulation_targetAtFixation,jsons/VE125_randls_59.json,http://54.235.29.9/FacialAge/BNav_EC2/DepthDuration/v2_depth_duration_MTurk/v2_DepthDuration_HTML.html#68,68,911,416,1366,768,9-20-2022,12-2-53,137,depth_duration_stimuli/001392_2014-06-19_16-07-59_260595134347_rgbf000046-resize_1/001392_2014-06-19_16-07-59_260595134347_rgbf000046-resize_1-target.png,125,4.135,5,4115,124,feet,jsons/VE125_randls_59.json,823740,1111637,72,Woman
137,113882,DepthScenes,duration_manipulation_targetAtFixation,jsons/VE125_randls_59.json,http://54.235.29.9/FacialAge/BNav_EC2/DepthDuration/v2_depth_duration_MTurk/v2_DepthDuration_HTML.html#68,68,911,416,1366,768,9-20-2022,12-2-53,138,depth_duration_stimuli/002663_2014-06-13_15-50-26_094959634447_rgbf000075-resize_1/002663_2014-06-13_15-50-26_094959634447_rgbf000075-resize_1-target.png,125,4.7495,5,4497,125,feet,jsons/VE125_randls_59.json,823740,1111637,72,Woman
138,113882,DepthScenes,duration_manipulation_targetAtFixation,jsons/VE125_randls_59.json,http://54.235.29.9/FacialAge/BNav_EC2/DepthDuration/v2_depth_duration_MTurk/v2_DepthDuration_HTML.html#68,68,911,416,1366,768,9-20-2022,12-2-53,139,depth_duration_stimuli/000409_2014-06-04_19-23-33_260595134347_rgbf000067-resize_0/000409_2014-06-04_19-23-33_260595134347_rgbf000067-resize_0-target.png,125,3.7335,5,4023,123,feet,jsons/VE125_randls_59.json,823740,1111637,72,Woman
139,113882,DepthScenes,duration_manipulation_targetAtFixation,jsons/VE125_randls_59.json,http://54.235.29.9/FacialAge/BNav_EC2/DepthDuration/v2_depth_duration_MTurk/v2_DepthDuration_HTML.html#68,68,911,416,1366,768,9-20-2022,12-2-53,140,depth_duration_stimuli/000009_2014-05-26_14-32-05_260595134347_rgbf000034-resize_3/000009_2014-05-26_14-32-05_260595134347_rgbf000034-resize_3-target.png,125,3.8715,6,4135,126,feet,jsons/VE125_randls_59.json,823740,1111637,72,Woman
140,113882,DepthScenes,duration_manipulation_targetAtFixation,jsons/VE125_randls_59.json,http://54.235.29.9/FacialAge/BNav_EC2/DepthDuration/v2_depth_duration_MTurk/v2_DepthDuration_HTML.html#68,68,911,416,1366,768,9-20-2022,12-2-53,141,depth_duration_stimuli/001828_2014-06-26_21-40-03_260595134347_rgbf000024-resize_0/001828_2014-06-26_21-40-03_260595134347_rgbf000024-resize_0-target.png,125,4.8260000000000005,6,3767,124,feet,jsons/VE125_randls_59.json,823740,1111637,72,Woman
141,113882,DepthScenes,duration_manipulation_targetAtFixation,jsons/VE125_randls_59.json,http://54.235.29.9/FacialAge/BNav_EC2/DepthDuration/v2_depth_duration_MTurk/v2_DepthDuration_HTML.html#68,68,911,416,1366,768,9-20-2022,12-2-53,142,depth_duration_stimuli/002272_2014-06-28_18-53-56_260595134347_rgbf000067-resize_2/002272_2014-06-28_18-53-56_260595134347_rgbf000067-resize_2-target.png,125,1.138,2,4249,109,feet,jsons/VE125_randls_59.json,823740,1111637,72,Woman
142,113882,DepthScenes,duration_manipulation_targetAtFixation,jsons/VE125_randls_59.json,http://54.235.29.9/FacialAge/BNav_EC2/DepthDuration/v2_depth_duration_MTurk/v2_DepthDuration_HTML.html#68,68,911,416,1366,768,9-20-2022,12-2-53,143,depth_duration_stimuli/001571_2014-06-20_17-21-32_260595134347_rgbf000089-resize_1/001571_2014-06-20_17-21-32_260595134347_rgbf000089-resize_1-target.png,125,1.86,2,4127,110,feet,jsons/VE125_randls_59.json,823740,1111637,72,Woman
143,113882,DepthScenes,duration_manipulation_targetAtFixation,jsons/VE125_randls_59.json,http://54.235.29.9/FacialAge/BNav_EC2/DepthDuration/v2_depth_duration_MTurk/v2_DepthDuration_HTML.html#68,68,911,416,1366,768,9-20-2022,12-2-53,144,depth_duration_stimuli/002600_2014-06-24_14-27-04_094959634447_rgbf000074-resize_2/002600_2014-06-24_14-27-04_094959634447_rgbf000074-resize_2-target.png,125,2.7575,2,4480,116,feet,jsons/VE125_randls_59.json,823740,1111637,72,Woman
144,113882,DepthScenes,duration_manipulation_targetAtFixation,jsons/VE125_randls_59.json,http://54.235.29.9/FacialAge/BNav_EC2/DepthDuration/v2_depth_duration_MTurk/v2_DepthDuration_HTML.html#68,68,911,416,1366,768,9-20-2022,12-2-53,145,depth_duration_stimuli/003228_2014-05-14_13-42-35_094959634447_rgbf000101-resize_1/003228_2014-05-14_13-42-35_094959634447_rgbf000101-resize_1-target.png,125,1.9680000000000002,2,4165,125,feet,jsons/VE125_randls_59.json,823740,1111637,72,Woman
145,113882,DepthScenes,duration_manipulation_targetAtFixation,jsons/VE125_randls_59.json,http://54.235.29.9/FacialAge/BNav_EC2/DepthDuration/v2_depth_duration_MTurk/v2_DepthDuration_HTML.html#68,68,911,416,1366,768,9-20-2022,12-2-53,146,depth_duration_stimuli/001498_2014-06-19_17-45-14_260595134347_rgbf000129-resize_4/001498_2014-06-19_17-45-14_260595134347_rgbf000129-resize-original.jpg,125,1.4075,0,5151,121,feet,jsons/VE125_randls_59.json,823740,1111637,72,Woman
146,113882,DepthScenes,duration_manipulation_targetAtFixation,jsons/VE125_randls_59.json,http://54.235.29.9/FacialAge/BNav_EC2/DepthDuration/v2_depth_duration_MTurk/v2_DepthDuration_HTML.html#68,68,911,416,1366,768,9-20-2022,12-2-53,147,depth_duration_stimuli/002445_2014-06-28_20-32-16_260595134347_rgbf000029-resize_4/002445_2014-06-28_20-32-16_260595134347_rgbf000029-resize_4-target.png,125,2.5315,2,4064,123,feet,jsons/VE125_randls_59.json,823740,1111637,72,Woman
147,113882,DepthScenes,duration_manipulation_targetAtFixation,jsons/VE125_randls_59.json,http://54.235.29.9/FacialAge/BNav_EC2/DepthDuration/v2_depth_duration_MTurk/v2_DepthDuration_HTML.html#68,68,911,416,1366,768,9-20-2022,12-2-53,148,depth_duration_stimuli/000780_2014-06-08_22-28-29_260595134347_rgbf000126-resize_1/000780_2014-06-08_22-28-29_260595134347_rgbf000126-resize_1-target.png,125,3.3825,5,3980,125,feet,jsons/VE125_randls_59.json,823740,1111637,72,Woman
148,113882,DepthScenes,duration_manipulation_targetAtFixation,jsons/VE125_randls_59.json,http://54.235.29.9/FacialAge/BNav_EC2/DepthDuration/v2_depth_duration_MTurk/v2_DepthDuration_HTML.html#68,68,911,416,1366,768,9-20-2022,12-2-53,149,depth_duration_stimuli/001417_2014-06-19_16-25-36_260595134347_rgbf000115-resize_5/001417_2014-06-19_16-25-36_260595134347_rgbf000115-resize_5-target.png,125,4.6255,5,4145,124,feet,jsons/VE125_randls_59.json,823740,1111637,72,Woman
149,113882,DepthScenes,duration_manipulation_targetAtFixation,jsons/VE125_randls_59.json,http://54.235.29.9/FacialAge/BNav_EC2/DepthDuration/v2_depth_duration_MTurk/v2_DepthDuration_HTML.html#68,68,911,416,1366,768,9-20-2022,12-2-53,150,depth_duration_stimuli/003081_2014-06-15_15-19-16_094959634447_rgbf000150-resize_1/003081_2014-06-15_15-19-16_094959634447_rgbf000150-resize_1-target.png,125,3.9125,5,3900,121,feet,jsons/VE125_randls_59.json,823740,1111637,72,Woman
150,113882,DepthScenes,duration_manipulation_targetAtFixation,jsons/VE125_randls_59.json,http://54.235.29.9/FacialAge/BNav_EC2/DepthDuration/v2_depth_duration_MTurk/v2_DepthDuration_HTML.html#68,68,911,416,1366,768,9-20-2022,12-2-53,151,depth_duration_stimuli/001244_2014-06-17_16-47-45_260595134347_rgbf000030-resize_4/001244_2014-06-17_16-47-45_260595134347_rgbf000030-resize_4-target.png,125,2.0425,5,4815,110,feet,jsons/VE125_randls_59.json,823740,1111637,72,Woman
151,113882,DepthScenes,duration_manipulation_targetAtFixation,jsons/VE125_randls_59.json,http://54.235.29.9/FacialAge/BNav_EC2/DepthDuration/v2_depth_duration_MTurk/v2_DepthDuration_HTML.html#68,68,911,416,1366,768,9-20-2022,12-2-53,152,depth_duration_stimuli/003495_2014-05-21_16-01-51_094959634447_rgbf000100-resize_3/003495_2014-05-21_16-01-51_094959634447_rgbf000100-resize_3-target.png,125,1.6255,3,4100,124,feet,jsons/VE125_randls_59.json,823740,1111637,72,Woman
152,113882,DepthScenes,duration_manipulation_targetAtFixation,jsons/VE125_randls_59.json,http://54.235.29.9/FacialAge/BNav_EC2/DepthDuration/v2_depth_duration_MTurk/v2_DepthDuration_HTML.html#68,68,911,416,1366,768,9-20-2022,12-2-53,153,depth_duration_stimuli/000368_2014-06-09_15-53-01_260595134347_rgbf000155-resize_2/000368_2014-06-09_15-53-01_260595134347_rgbf000155-resize_2-target.png,125,2.4859999999999998,3,3588,110,feet,jsons/VE125_randls_59.json,823740,1111637,72,Woman
153,113882,DepthScenes,duration_manipulation_targetAtFixation,jsons/VE125_randls_59.json,http://54.235.29.9/FacialAge/BNav_EC2/DepthDuration/v2_depth_duration_MTurk/v2_DepthDuration_HTML.html#68,68,911,416,1366,768,9-20-2022,12-2-53,154,depth_duration_stimuli/002678_2014-06-13_16-15-32_094959634447_rgbf000151-resize_6/002678_2014-06-13_16-15-32_094959634447_rgbf000151-resize_6-target.png,125,2.1830000000000003,4,3810,124,feet,jsons/VE125_randls_59.json,823740,1111637,72,Woman
154,113882,DepthScenes,duration_manipulation_targetAtFixation,jsons/VE125_randls_59.json,http://54.235.29.9/FacialAge/BNav_EC2/DepthDuration/v2_depth_duration_MTurk/v2_DepthDuration_HTML.html#68,68,911,416,1366,768,9-20-2022,12-2-53,155,depth_duration_stimuli/000493_2014-06-09_21-01-18_260595134347_rgbf000196-resize_3/000493_2014-06-09_21-01-18_260595134347_rgbf000196-resize_3-target.png,125,3.44,5,4175,121,feet,jsons/VE125_randls_59.json,823740,1111637,72,Woman
155,113882,DepthScenes,duration_manipulation_targetAtFixation,jsons/VE125_randls_59.json,http://54.235.29.9/FacialAge/BNav_EC2/DepthDuration/v2_depth_duration_MTurk/v2_DepthDuration_HTML.html#68,68,911,416,1366,768,9-20-2022,12-2-53,156,depth_duration_stimuli/000191_2014-05-12_17-07-38_260595134347_rgbf000199-resize_0/000191_2014-05-12_17-07-38_260595134347_rgbf000199-resize_0-target.png,125,3.7995,5,5071,125,feet,jsons/VE125_randls_59.json,823740,1111637,72,Woman
156,113882,DepthScenes,duration_manipulation_targetAtFixation,jsons/VE125_randls_59.json,http://54.235.29.9/FacialAge/BNav_EC2/DepthDuration/v2_depth_duration_MTurk/v2_DepthDuration_HTML.html#68,68,911,416,1366,768,9-20-2022,12-2-53,157,depth_duration_stimuli/002988_2014-06-15_12-24-20_094959634447_rgbf000150-resize_1/002988_2014-06-15_12-24-20_094959634447_rgbf000150-resize_1-target.png,125,4.7669999999999995,5,5050,121,feet,jsons/VE125_randls_59.json,823740,1111637,72,Woman
157,113882,DepthScenes,duration_manipulation_targetAtFixation,jsons/VE125_randls_59.json,http://54.235.29.9/FacialAge/BNav_EC2/DepthDuration/v2_depth_duration_MTurk/v2_DepthDuration_HTML.html#68,68,911,416,1366,768,9-20-2022,12-2-53,158,depth_duration_stimuli/001052_2014-06-08_18-24-54_260595134347_rgbf000130-resize_1/001052_2014-06-08_18-24-54_260595134347_rgbf000130-resize_1-target.png,125,4.1045,5,3980,107,feet,jsons/VE125_randls_59.json,823740,1111637,72,Woman
158,113882,DepthScenes,duration_manipulation_targetAtFixation,jsons/VE125_randls_59.json,http://54.235.29.9/FacialAge/BNav_EC2/DepthDuration/v2_depth_duration_MTurk/v2_DepthDuration_HTML.html#68,68,911,416,1366,768,9-20-2022,12-2-53,159,depth_duration_stimuli/002788_2014-06-22_19-36-03_094959634447_rgbf000088-resize_2/002788_2014-06-22_19-36-03_094959634447_rgbf000088-resize_2-target.png,125,1.6465,5,4330,113,feet,jsons/VE125_randls_59.json,823740,1111637,72,Woman
159,113882,DepthScenes,duration_manipulation_targetAtFixation,jsons/VE125_randls_59.json,http://54.235.29.9/FacialAge/BNav_EC2/DepthDuration/v2_depth_duration_MTurk/v2_DepthDuration_HTML.html#68,68,911,416,1366,768,9-20-2022,12-2-53,160,depth_duration_stimuli/000749_2014-06-08_21-55-06_260595134347_rgbf000070-resize_2/000749_2014-06-08_21-55-06_260595134347_rgbf000070-resize_2-target.png,125,2.331,4,3908,124,feet,jsons/VE125_randls_59.json,823740,1111637,72,Woman
160,113882,DepthScenes,duration_manipulation_targetAtFixation,jsons/VE125_randls_59.json,http://54.235.29.9/FacialAge/BNav_EC2/DepthDuration/v2_depth_duration_MTurk/v2_DepthDuration_HTML.html#68,68,911,416,1366,768,9-20-2022,12-2-53,161,depth_duration_stimuli/000739_2014-06-08_18-45-58_260595134347_rgbf000068-resize_1/000739_2014-06-08_18-45-58_260595134347_rgbf000068-resize_1-target.png,125,3.534,4,4447,129,feet,jsons/VE125_randls_59.json,823740,1111637,72,Woman
161,113882,DepthScenes,duration_manipulation_targetAtFixation,jsons/VE125_randls_59.json,http://54.235.29.9/FacialAge/BNav_EC2/DepthDuration/v2_depth_duration_MTurk/v2_DepthDuration_HTML.html#68,68,911,416,1366,768,9-20-2022,12-2-53,162,depth_duration_stimuli/000734_2014-06-08_17-39-11_260595134347_rgbf000128-resize_2/000734_2014-06-08_17-39-11_260595134347_rgbf000128-resize_2-target.png,125,4.098,5,4796,129,feet,jsons/VE125_randls_59.json,823740,1111637,72,Woman
162,113882,DepthScenes,duration_manipulation_targetAtFixation,jsons/VE125_randls_59.json,http://54.235.29.9/FacialAge/BNav_EC2/DepthDuration/v2_depth_duration_MTurk/v2_DepthDuration_HTML.html#68,68,911,416,1366,768,9-20-2022,12-2-53,163,depth_duration_stimuli/001055_2014-06-08_18-45-35_260595134347_rgbf000111-resize_4/001055_2014-06-08_18-45-35_260595134347_rgbf000111-resize_4-target.png,125,2.4290000000000003,4,5505,126,feet,jsons/VE125_randls_59.json,823740,1111637,72,Woman
163,113882,DepthScenes,duration_manipulation_targetAtFixation,jsons/VE125_randls_59.json,http://54.235.29.9/FacialAge/BNav_EC2/DepthDuration/v2_depth_duration_MTurk/v2_DepthDuration_HTML.html#68,68,911,416,1366,768,9-20-2022,12-2-53,164,depth_duration_stimuli/000549_2014-06-08_22-10-24_260595134347_rgbf000247-resize_3/000549_2014-06-08_22-10-24_260595134347_rgbf000247-resize_3-target.png,125,1.841,4,4224,119,feet,jsons/VE125_randls_59.json,823740,1111637,72,Woman
