,subjID,experimentName,versionName,sequenceName,url,selected_row,windowWidth,windowHeight,screenWidth,screenHeight,startDate,startTime,trial,stimulus,duration,actual_depth,depth_estimate,trial_RT,log_sceneDuration,unitSelection,seq_filepath,experimentTime,totalTime,age,gender
0,116060,DepthScenes,duration_manipulation_targetAtFixation,jsons/v1_VE1000_randls_62_rotated.json,http://54.235.29.9/FacialAge/BNav_EC2/DepthDuration/v2_depth_duration_MTurk/v2_DepthDuration_HTML.html#37,37,1366,625,1366,768,8-22-2022,7-58-20,1,depth_duration_stimuli/001214_2014-06-17_16-13-55_260595134347_rgbf000111-resize_0/001214_2014-06-17_16-13-55_260595134347_rgbf000111-resize_0-target.png,1000,2.6505,1,4955,984,feet,jsons/v1_VE1000_randls_62_rotated.json,717882,988153,58,Woman
1,116060,DepthScenes,duration_manipulation_targetAtFixation,jsons/v1_VE1000_randls_62_rotated.json,http://54.235.29.9/FacialAge/BNav_EC2/DepthDuration/v2_depth_duration_MTurk/v2_DepthDuration_HTML.html#37,37,1366,625,1366,768,8-22-2022,7-58-20,2,depth_duration_stimuli/000810_2014-06-08_17-20-01_260595134347_rgbf000105-resize_0/000810_2014-06-08_17-20-01_260595134347_rgbf000105-resize_0-target.png,1000,1.4865,1,4259,1012,feet,jsons/v1_VE1000_randls_62_rotated.json,717882,988153,58,Woman
2,116060,DepthScenes,duration_manipulation_targetAtFixation,jsons/v1_VE1000_randls_62_rotated.json,http://54.235.29.9/FacialAge/BNav_EC2/DepthDuration/v2_depth_duration_MTurk/v2_DepthDuration_HTML.html#37,37,1366,625,1366,768,8-22-2022,7-58-20,3,depth_duration_stimuli/002953_2014-06-08_17-32-18_094959634447_rgbf000059-resize_5/002953_2014-06-08_17-32-18_094959634447_rgbf000059-resize_5-target.png,1000,1.551,1,3316,993,feet,jsons/v1_VE1000_randls_62_rotated.json,717882,988153,58,Woman
3,116060,DepthScenes,duration_manipulation_targetAtFixation,jsons/v1_VE1000_randls_62_rotated.json,http://54.235.29.9/FacialAge/BNav_EC2/DepthDuration/v2_depth_duration_MTurk/v2_DepthDuration_HTML.html#37,37,1366,625,1366,768,8-22-2022,7-58-20,4,depth_duration_stimuli/000878_2014-06-08_22-52-45_260595134347_rgbf000045-resize_2/000878_2014-06-08_22-52-45_260595134347_rgbf000045-resize_2-target.png,1000,2.092,2,4824,1009,feet,jsons/v1_VE1000_randls_62_rotated.json,717882,988153,58,Woman
4,116060,DepthScenes,duration_manipulation_targetAtFixation,jsons/v1_VE1000_randls_62_rotated.json,http://54.235.29.9/FacialAge/BNav_EC2/DepthDuration/v2_depth_duration_MTurk/v2_DepthDuration_HTML.html#37,37,1366,625,1366,768,8-22-2022,7-58-20,5,depth_duration_stimuli/001516_2014-06-20_16-25-09_260595134347_rgbf000076-resize_2/001516_2014-06-20_16-25-09_260595134347_rgbf000076-resize_2-target.png,1000,1.7445,3,4363,1012,feet,jsons/v1_VE1000_randls_62_rotated.json,717882,988153,58,Woman
5,116060,DepthScenes,duration_manipulation_targetAtFixation,jsons/v1_VE1000_randls_62_rotated.json,http://54.235.29.9/FacialAge/BNav_EC2/DepthDuration/v2_depth_duration_MTurk/v2_DepthDuration_HTML.html#37,37,1366,625,1366,768,8-22-2022,7-58-20,6,depth_duration_stimuli/002118_2014-06-25_20-32-08_260595134347_rgbf000078-resize_1/002118_2014-06-25_20-32-08_260595134347_rgbf000078-resize_1-target.png,1000,2.6460000000000004,3,4598,1011,feet,jsons/v1_VE1000_randls_62_rotated.json,717882,988153,58,Woman
6,116060,DepthScenes,duration_manipulation_targetAtFixation,jsons/v1_VE1000_randls_62_rotated.json,http://54.235.29.9/FacialAge/BNav_EC2/DepthDuration/v2_depth_duration_MTurk/v2_DepthDuration_HTML.html#37,37,1366,625,1366,768,8-22-2022,7-58-20,7,depth_duration_stimuli/003490_2014-05-21_15-50-11_094959634447_rgbf000101-resize_3/003490_2014-05-21_15-50-11_094959634447_rgbf000101-resize_3-target.png,1000,3.6445,4,4383,1005,feet,jsons/v1_VE1000_randls_62_rotated.json,717882,988153,58,Woman
7,116060,DepthScenes,duration_manipulation_targetAtFixation,jsons/v1_VE1000_randls_62_rotated.json,http://54.235.29.9/FacialAge/BNav_EC2/DepthDuration/v2_depth_duration_MTurk/v2_DepthDuration_HTML.html#37,37,1366,625,1366,768,8-22-2022,7-58-20,8,depth_duration_stimuli/001175_2014-06-17_15-45-55_260595134347_rgbf000129-resize_4/001175_2014-06-17_15-45-55_260595134347_rgbf000129-resize_4-target.png,1000,4.255,4,3968,1004,feet,jsons/v1_VE1000_randls_62_rotated.json,717882,988153,58,Woman
8,116060,DepthScenes,duration_manipulation_targetAtFixation,jsons/v1_VE1000_randls_62_rotated.json,http://54.235.29.9/FacialAge/BNav_EC2/DepthDuration/v2_depth_duration_MTurk/v2_DepthDuration_HTML.html#37,37,1366,625,1366,768,8-22-2022,7-58-20,9,depth_duration_stimuli/001450_2014-06-19_17-02-03_260595134347_rgbf000203-resize_4/001450_2014-06-19_17-02-03_260595134347_rgbf000203-resize_4-target.png,1000,4.0106666666667,4,3203,997,feet,jsons/v1_VE1000_randls_62_rotated.json,717882,988153,58,Woman
9,116060,DepthScenes,duration_manipulation_targetAtFixation,jsons/v1_VE1000_randls_62_rotated.json,http://54.235.29.9/FacialAge/BNav_EC2/DepthDuration/v2_depth_duration_MTurk/v2_DepthDuration_HTML.html#37,37,1366,625,1366,768,8-22-2022,7-58-20,10,depth_duration_stimuli/001449_2014-06-19_17-01-27_260595134347_rgbf000116-resize_2/001449_2014-06-19_17-01-27_260595134347_rgbf000116-resize_2-target.png,1000,3.452,3,3505,1003,feet,jsons/v1_VE1000_randls_62_rotated.json,717882,988153,58,Woman
10,116060,DepthScenes,duration_manipulation_targetAtFixation,jsons/v1_VE1000_randls_62_rotated.json,http://54.235.29.9/FacialAge/BNav_EC2/DepthDuration/v2_depth_duration_MTurk/v2_DepthDuration_HTML.html#37,37,1366,625,1366,768,8-22-2022,7-58-20,11,depth_duration_stimuli/003083_2014-06-15_15-21-03_094959634447_rgbf000063-resize_1/003083_2014-06-15_15-21-03_094959634447_rgbf000063-resize_1-target.png,1000,4.1405,4,3490,1014,feet,jsons/v1_VE1000_randls_62_rotated.json,717882,988153,58,Woman
11,116060,DepthScenes,duration_manipulation_targetAtFixation,jsons/v1_VE1000_randls_62_rotated.json,http://54.235.29.9/FacialAge/BNav_EC2/DepthDuration/v2_depth_duration_MTurk/v2_DepthDuration_HTML.html#37,37,1366,625,1366,768,8-22-2022,7-58-20,12,depth_duration_stimuli/000486_2014-06-09_20-47-20_260595134347_rgbf000143-resize_2/000486_2014-06-09_20-47-20_260595134347_rgbf000143-resize_2-target.png,1000,4.8325,3,4010,990,feet,jsons/v1_VE1000_randls_62_rotated.json,717882,988153,58,Woman
12,116060,DepthScenes,duration_manipulation_targetAtFixation,jsons/v1_VE1000_randls_62_rotated.json,http://54.235.29.9/FacialAge/BNav_EC2/DepthDuration/v2_depth_duration_MTurk/v2_DepthDuration_HTML.html#37,37,1366,625,1366,768,8-22-2022,7-58-20,13,depth_duration_stimuli/000556_2014-06-09_22-42-56_260595134347_rgbf000214-resize_1/000556_2014-06-09_22-42-56_260595134347_rgbf000214-resize_1-target.png,1000,4.8415,4,3979,995,feet,jsons/v1_VE1000_randls_62_rotated.json,717882,988153,58,Woman
13,116060,DepthScenes,duration_manipulation_targetAtFixation,jsons/v1_VE1000_randls_62_rotated.json,http://54.235.29.9/FacialAge/BNav_EC2/DepthDuration/v2_depth_duration_MTurk/v2_DepthDuration_HTML.html#37,37,1366,625,1366,768,8-22-2022,7-58-20,14,depth_duration_stimuli/001158_2014-06-17_15-32-16_260595134347_rgbf000138-resize_2/001158_2014-06-17_15-32-16_260595134347_rgbf000138-resize_2-target.png,1000,4.5315,6,3666,993,feet,jsons/v1_VE1000_randls_62_rotated.json,717882,988153,58,Woman
14,116060,DepthScenes,duration_manipulation_targetAtFixation,jsons/v1_VE1000_randls_62_rotated.json,http://54.235.29.9/FacialAge/BNav_EC2/DepthDuration/v2_depth_duration_MTurk/v2_DepthDuration_HTML.html#37,37,1366,625,1366,768,8-22-2022,7-58-20,15,depth_duration_stimuli/000457_2014-06-08_16-52-43_260595134347_rgbf000199-resize_1/000457_2014-06-08_16-52-43_260595134347_rgbf000199-resize_1-target.png,1000,3.6489999999999996,4,3148,996,feet,jsons/v1_VE1000_randls_62_rotated.json,717882,988153,58,Woman
15,116060,DepthScenes,duration_manipulation_targetAtFixation,jsons/v1_VE1000_randls_62_rotated.json,http://54.235.29.9/FacialAge/BNav_EC2/DepthDuration/v2_depth_duration_MTurk/v2_DepthDuration_HTML.html#37,37,1366,625,1366,768,8-22-2022,7-58-20,16,depth_duration_stimuli/000929_2014-06-09_16-33-19_260595134347_rgbf000139-resize_0/000929_2014-06-09_16-33-19_260595134347_rgbf000139-resize_0-target.png,1000,2.8680000000000003,3,3071,1008,feet,jsons/v1_VE1000_randls_62_rotated.json,717882,988153,58,Woman
16,116060,DepthScenes,duration_manipulation_targetAtFixation,jsons/v1_VE1000_randls_62_rotated.json,http://54.235.29.9/FacialAge/BNav_EC2/DepthDuration/v2_depth_duration_MTurk/v2_DepthDuration_HTML.html#37,37,1366,625,1366,768,8-22-2022,7-58-20,17,depth_duration_stimuli/002340_2014-06-28_20-05-46_260595134347_rgbf000113-resize_0/002340_2014-06-28_20-05-46_260595134347_rgbf000113-resize_0-target.png,1000,2.4735,4,3316,1006,feet,jsons/v1_VE1000_randls_62_rotated.json,717882,988153,58,Woman
17,116060,DepthScenes,duration_manipulation_targetAtFixation,jsons/v1_VE1000_randls_62_rotated.json,http://54.235.29.9/FacialAge/BNav_EC2/DepthDuration/v2_depth_duration_MTurk/v2_DepthDuration_HTML.html#37,37,1366,625,1366,768,8-22-2022,7-58-20,18,depth_duration_stimuli/001016_2014-06-09_16-16-10_260595134347_rgbf000112-resize_5/001016_2014-06-09_16-16-10_260595134347_rgbf000112-resize_5-target.png,1000,1.6565,2,3624,993,feet,jsons/v1_VE1000_randls_62_rotated.json,717882,988153,58,Woman
18,116060,DepthScenes,duration_manipulation_targetAtFixation,jsons/v1_VE1000_randls_62_rotated.json,http://54.235.29.9/FacialAge/BNav_EC2/DepthDuration/v2_depth_duration_MTurk/v2_DepthDuration_HTML.html#37,37,1366,625,1366,768,8-22-2022,7-58-20,19,depth_duration_stimuli/001498_2014-06-19_17-45-14_260595134347_rgbf000129-resize_4/001498_2014-06-19_17-45-14_260595134347_rgbf000129-resize-original.jpg,1000,1.4075,0,4542,1006,feet,jsons/v1_VE1000_randls_62_rotated.json,717882,988153,58,Woman
19,116060,DepthScenes,duration_manipulation_targetAtFixation,jsons/v1_VE1000_randls_62_rotated.json,http://54.235.29.9/FacialAge/BNav_EC2/DepthDuration/v2_depth_duration_MTurk/v2_DepthDuration_HTML.html#37,37,1366,625,1366,768,8-22-2022,7-58-20,20,depth_duration_stimuli/000854_2014-06-09_19-43-13_260595134347_rgbf000066-resize_0/000854_2014-06-09_19-43-13_260595134347_rgbf000066-resize_0-target.png,1000,3.068,2,3135,1002,feet,jsons/v1_VE1000_randls_62_rotated.json,717882,988153,58,Woman
20,116060,DepthScenes,duration_manipulation_targetAtFixation,jsons/v1_VE1000_randls_62_rotated.json,http://54.235.29.9/FacialAge/BNav_EC2/DepthDuration/v2_depth_duration_MTurk/v2_DepthDuration_HTML.html#37,37,1366,625,1366,768,8-22-2022,7-58-20,21,depth_duration_stimuli/000758_2014-06-08_22-05-08_260595134347_rgbf000085-resize_0/000758_2014-06-08_22-05-08_260595134347_rgbf000085-resize_0-target.png,1000,3.3810000000000002,3,3488,999,feet,jsons/v1_VE1000_randls_62_rotated.json,717882,988153,58,Woman
21,116060,DepthScenes,duration_manipulation_targetAtFixation,jsons/v1_VE1000_randls_62_rotated.json,http://54.235.29.9/FacialAge/BNav_EC2/DepthDuration/v2_depth_duration_MTurk/v2_DepthDuration_HTML.html#37,37,1366,625,1366,768,8-22-2022,7-58-20,22,depth_duration_stimuli/001650_2014-06-20_12-09-00_260595134347_rgbf000087-resize_3/001650_2014-06-20_12-09-00_260595134347_rgbf000087-resize_3-target.png,1000,1.9505,1,3721,1002,feet,jsons/v1_VE1000_randls_62_rotated.json,717882,988153,58,Woman
22,116060,DepthScenes,duration_manipulation_targetAtFixation,jsons/v1_VE1000_randls_62_rotated.json,http://54.235.29.9/FacialAge/BNav_EC2/DepthDuration/v2_depth_duration_MTurk/v2_DepthDuration_HTML.html#37,37,1366,625,1366,768,8-22-2022,7-58-20,23,depth_duration_stimuli/000682_2014-06-08_23-14-58_260595134347_rgbf000041-resize_5/000682_2014-06-08_23-14-58_260595134347_rgbf000041-resize_5-target.png,1000,2.7239999999999998,2,3343,993,feet,jsons/v1_VE1000_randls_62_rotated.json,717882,988153,58,Woman
23,116060,DepthScenes,duration_manipulation_targetAtFixation,jsons/v1_VE1000_randls_62_rotated.json,http://54.235.29.9/FacialAge/BNav_EC2/DepthDuration/v2_depth_duration_MTurk/v2_DepthDuration_HTML.html#37,37,1366,625,1366,768,8-22-2022,7-58-20,24,depth_duration_stimuli/001617_2014-06-20_11-35-32_260595134347_rgbf000066-resize_1/001617_2014-06-20_11-35-32_260595134347_rgbf000066-resize_1-target.png,1000,3.7910000000000004,3,3156,996,feet,jsons/v1_VE1000_randls_62_rotated.json,717882,988153,58,Woman
24,116060,DepthScenes,duration_manipulation_targetAtFixation,jsons/v1_VE1000_randls_62_rotated.json,http://54.235.29.9/FacialAge/BNav_EC2/DepthDuration/v2_depth_duration_MTurk/v2_DepthDuration_HTML.html#37,37,1366,625,1366,768,8-22-2022,7-58-20,25,depth_duration_stimuli/001806_2014-06-26_20-50-20_260595134347_rgbf000091-resize_1/001806_2014-06-26_20-50-20_260595134347_rgbf000091-resize_1-target.png,1000,2.7305,2,4442,994,feet,jsons/v1_VE1000_randls_62_rotated.json,717882,988153,58,Woman
25,116060,DepthScenes,duration_manipulation_targetAtFixation,jsons/v1_VE1000_randls_62_rotated.json,http://54.235.29.9/FacialAge/BNav_EC2/DepthDuration/v2_depth_duration_MTurk/v2_DepthDuration_HTML.html#37,37,1366,625,1366,768,8-22-2022,7-58-20,26,depth_duration_stimuli/001815_2014-06-26_20-52-55_260595134347_rgbf000020-resize_0/001815_2014-06-26_20-52-55_260595134347_rgbf000020-resize_0-target.png,1000,3.3865,6,5346,995,feet,jsons/v1_VE1000_randls_62_rotated.json,717882,988153,58,Woman
26,116060,DepthScenes,duration_manipulation_targetAtFixation,jsons/v1_VE1000_randls_62_rotated.json,http://54.235.29.9/FacialAge/BNav_EC2/DepthDuration/v2_depth_duration_MTurk/v2_DepthDuration_HTML.html#37,37,1366,625,1366,768,8-22-2022,7-58-20,27,depth_duration_stimuli/001808_2014-06-26_20-50-58_260595134347_rgbf000029-resize_1/001808_2014-06-26_20-50-58_260595134347_rgbf000029-resize_1-target.png,1000,4.249,6,3598,1002,feet,jsons/v1_VE1000_randls_62_rotated.json,717882,988153,58,Woman
27,116060,DepthScenes,duration_manipulation_targetAtFixation,jsons/v1_VE1000_randls_62_rotated.json,http://54.235.29.9/FacialAge/BNav_EC2/DepthDuration/v2_depth_duration_MTurk/v2_DepthDuration_HTML.html#37,37,1366,625,1366,768,8-22-2022,7-58-20,28,depth_duration_stimuli/002444_2014-06-28_20-32-08_260595134347_rgbf000027-resize_0/002444_2014-06-28_20-32-08_260595134347_rgbf000027-resize_0-target.png,1000,4.388999999999999,6,3755,1001,feet,jsons/v1_VE1000_randls_62_rotated.json,717882,988153,58,Woman
28,116060,DepthScenes,duration_manipulation_targetAtFixation,jsons/v1_VE1000_randls_62_rotated.json,http://54.235.29.9/FacialAge/BNav_EC2/DepthDuration/v2_depth_duration_MTurk/v2_DepthDuration_HTML.html#37,37,1366,625,1366,768,8-22-2022,7-58-20,29,depth_duration_stimuli/000436_2014-06-09_22-25-11_260595134347_rgbf000137-resize_1/000436_2014-06-09_22-25-11_260595134347_rgbf000137-resize_1-target.png,1000,4.0705,8,4586,1000,feet,jsons/v1_VE1000_randls_62_rotated.json,717882,988153,58,Woman
29,116060,DepthScenes,duration_manipulation_targetAtFixation,jsons/v1_VE1000_randls_62_rotated.json,http://54.235.29.9/FacialAge/BNav_EC2/DepthDuration/v2_depth_duration_MTurk/v2_DepthDuration_HTML.html#37,37,1366,625,1366,768,8-22-2022,7-58-20,30,depth_duration_stimuli/002072_2014-06-24_21-48-06_260595134347_rgbf000115-resize_0/002072_2014-06-24_21-48-06_260595134347_rgbf000115-resize-original.jpg,1000,4.702,0,4494,1004,feet,jsons/v1_VE1000_randls_62_rotated.json,717882,988153,58,Woman
30,116060,DepthScenes,duration_manipulation_targetAtFixation,jsons/v1_VE1000_randls_62_rotated.json,http://54.235.29.9/FacialAge/BNav_EC2/DepthDuration/v2_depth_duration_MTurk/v2_DepthDuration_HTML.html#37,37,1366,625,1366,768,8-22-2022,7-58-20,31,depth_duration_stimuli/000665_2014-06-09_20-42-35_260595134347_rgbf000110-resize_1/000665_2014-06-09_20-42-35_260595134347_rgbf000110-resize_1-target.png,1000,3.057,4,3274,1003,feet,jsons/v1_VE1000_randls_62_rotated.json,717882,988153,58,Woman
31,116060,DepthScenes,duration_manipulation_targetAtFixation,jsons/v1_VE1000_randls_62_rotated.json,http://54.235.29.9/FacialAge/BNav_EC2/DepthDuration/v2_depth_duration_MTurk/v2_DepthDuration_HTML.html#37,37,1366,625,1366,768,8-22-2022,7-58-20,32,depth_duration_stimuli/001150_2014-06-17_15-27-34_260595134347_rgbf000108-resize_2/001150_2014-06-17_15-27-34_260595134347_rgbf000108-resize_2-target.png,1000,4.0325,6,3799,1000,feet,jsons/v1_VE1000_randls_62_rotated.json,717882,988153,58,Woman
32,116060,DepthScenes,duration_manipulation_targetAtFixation,jsons/v1_VE1000_randls_62_rotated.json,http://54.235.29.9/FacialAge/BNav_EC2/DepthDuration/v2_depth_duration_MTurk/v2_DepthDuration_HTML.html#37,37,1366,625,1366,768,8-22-2022,7-58-20,33,depth_duration_stimuli/000691_2014-06-08_13-08-50_260595134347_rgbf000132-resize_3/000691_2014-06-08_13-08-50_260595134347_rgbf000132-resize_3-target.png,1000,4.1530000000000005,6,3389,998,feet,jsons/v1_VE1000_randls_62_rotated.json,717882,988153,58,Woman
33,116060,DepthScenes,duration_manipulation_targetAtFixation,jsons/v1_VE1000_randls_62_rotated.json,http://54.235.29.9/FacialAge/BNav_EC2/DepthDuration/v2_depth_duration_MTurk/v2_DepthDuration_HTML.html#37,37,1366,625,1366,768,8-22-2022,7-58-20,34,depth_duration_stimuli/002213_2014-06-28_18-37-58_260595134347_rgbf000055-resize_1/002213_2014-06-28_18-37-58_260595134347_rgbf000055-resize_1-target.png,1000,3.62,7,4002,1004,feet,jsons/v1_VE1000_randls_62_rotated.json,717882,988153,58,Woman
34,116060,DepthScenes,duration_manipulation_targetAtFixation,jsons/v1_VE1000_randls_62_rotated.json,http://54.235.29.9/FacialAge/BNav_EC2/DepthDuration/v2_depth_duration_MTurk/v2_DepthDuration_HTML.html#37,37,1366,625,1366,768,8-22-2022,7-58-20,35,depth_duration_stimuli/000409_2014-06-04_19-23-33_260595134347_rgbf000067-resize_0/000409_2014-06-04_19-23-33_260595134347_rgbf000067-resize_0-target.png,1000,3.7335,3,3101,992,feet,jsons/v1_VE1000_randls_62_rotated.json,717882,988153,58,Woman
35,116060,DepthScenes,duration_manipulation_targetAtFixation,jsons/v1_VE1000_randls_62_rotated.json,http://54.235.29.9/FacialAge/BNav_EC2/DepthDuration/v2_depth_duration_MTurk/v2_DepthDuration_HTML.html#37,37,1366,625,1366,768,8-22-2022,7-58-20,36,depth_duration_stimuli/002663_2014-06-13_15-50-26_094959634447_rgbf000075-resize_1/002663_2014-06-13_15-50-26_094959634447_rgbf000075-resize_1-target.png,1000,4.7495,5,3588,1002,feet,jsons/v1_VE1000_randls_62_rotated.json,717882,988153,58,Woman
36,116060,DepthScenes,duration_manipulation_targetAtFixation,jsons/v1_VE1000_randls_62_rotated.json,http://54.235.29.9/FacialAge/BNav_EC2/DepthDuration/v2_depth_duration_MTurk/v2_DepthDuration_HTML.html#37,37,1366,625,1366,768,8-22-2022,7-58-20,37,depth_duration_stimuli/002660_2014-06-13_15-44-18_094959634447_rgbf001878-resize_2/002660_2014-06-13_15-44-18_094959634447_rgbf001878-resize_2-target.png,1000,3.576,5,3789,1007,feet,jsons/v1_VE1000_randls_62_rotated.json,717882,988153,58,Woman
37,116060,DepthScenes,duration_manipulation_targetAtFixation,jsons/v1_VE1000_randls_62_rotated.json,http://54.235.29.9/FacialAge/BNav_EC2/DepthDuration/v2_depth_duration_MTurk/v2_DepthDuration_HTML.html#37,37,1366,625,1366,768,8-22-2022,7-58-20,38,depth_duration_stimuli/002153_2014-06-25_21-27-18_260595134347_rgbf000038-resize_5/002153_2014-06-25_21-27-18_260595134347_rgbf000038-resize_5-target.png,1000,2.505,3,4050,996,feet,jsons/v1_VE1000_randls_62_rotated.json,717882,988153,58,Woman
38,116060,DepthScenes,duration_manipulation_targetAtFixation,jsons/v1_VE1000_randls_62_rotated.json,http://54.235.29.9/FacialAge/BNav_EC2/DepthDuration/v2_depth_duration_MTurk/v2_DepthDuration_HTML.html#37,37,1366,625,1366,768,8-22-2022,7-58-20,39,depth_duration_stimuli/002875_2014-06-01_15-19-00_094959634447_rgbf000151-resize_1/002875_2014-06-01_15-19-00_094959634447_rgbf000151-resize_1-target.png,1000,1.9675,4,3296,997,feet,jsons/v1_VE1000_randls_62_rotated.json,717882,988153,58,Woman
39,116060,DepthScenes,duration_manipulation_targetAtFixation,jsons/v1_VE1000_randls_62_rotated.json,http://54.235.29.9/FacialAge/BNav_EC2/DepthDuration/v2_depth_duration_MTurk/v2_DepthDuration_HTML.html#37,37,1366,625,1366,768,8-22-2022,7-58-20,40,depth_duration_stimuli/001011_2014-06-08_23-18-54_260595134347_rgbf000044-resize_4/001011_2014-06-08_23-18-54_260595134347_rgbf000044-resize_4-target.png,1000,2.4730000000000003,4,3633,997,feet,jsons/v1_VE1000_randls_62_rotated.json,717882,988153,58,Woman
40,116060,DepthScenes,duration_manipulation_targetAtFixation,jsons/v1_VE1000_randls_62_rotated.json,http://54.235.29.9/FacialAge/BNav_EC2/DepthDuration/v2_depth_duration_MTurk/v2_DepthDuration_HTML.html#37,37,1366,625,1366,768,8-22-2022,7-58-20,41,depth_duration_stimuli/002657_2014-06-13_15-29-54_094959634447_rgbf000150-resize_1/002657_2014-06-13_15-29-54_094959634447_rgbf000150-resize_1-target.png,1000,4.919,5,3277,994,feet,jsons/v1_VE1000_randls_62_rotated.json,717882,988153,58,Woman
41,116060,DepthScenes,duration_manipulation_targetAtFixation,jsons/v1_VE1000_randls_62_rotated.json,http://54.235.29.9/FacialAge/BNav_EC2/DepthDuration/v2_depth_duration_MTurk/v2_DepthDuration_HTML.html#37,37,1366,625,1366,768,8-22-2022,7-58-20,42,depth_duration_stimuli/002375_2014-06-28_20-13-44_260595134347_rgbf000032-resize_1/002375_2014-06-28_20-13-44_260595134347_rgbf000032-resize_1-target.png,1000,4.0175,4,2851,1001,feet,jsons/v1_VE1000_randls_62_rotated.json,717882,988153,58,Woman
42,116060,DepthScenes,duration_manipulation_targetAtFixation,jsons/v1_VE1000_randls_62_rotated.json,http://54.235.29.9/FacialAge/BNav_EC2/DepthDuration/v2_depth_duration_MTurk/v2_DepthDuration_HTML.html#37,37,1366,625,1366,768,8-22-2022,7-58-20,43,depth_duration_stimuli/002425_2014-06-28_20-27-29_260595134347_rgbf000031-resize_8/002425_2014-06-28_20-27-29_260595134347_rgbf000031-resize_8-target.png,1000,3.8960000000000004,6,4133,1003,feet,jsons/v1_VE1000_randls_62_rotated.json,717882,988153,58,Woman
43,116060,DepthScenes,duration_manipulation_targetAtFixation,jsons/v1_VE1000_randls_62_rotated.json,http://54.235.29.9/FacialAge/BNav_EC2/DepthDuration/v2_depth_duration_MTurk/v2_DepthDuration_HTML.html#37,37,1366,625,1366,768,8-22-2022,7-58-20,44,depth_duration_stimuli/000642_2014-06-08_16-59-25_260595134347_rgbf000098-resize_2/000642_2014-06-08_16-59-25_260595134347_rgbf000098-resize_2-target.png,1000,2.8815,3,3842,1002,feet,jsons/v1_VE1000_randls_62_rotated.json,717882,988153,58,Woman
44,116060,DepthScenes,duration_manipulation_targetAtFixation,jsons/v1_VE1000_randls_62_rotated.json,http://54.235.29.9/FacialAge/BNav_EC2/DepthDuration/v2_depth_duration_MTurk/v2_DepthDuration_HTML.html#37,37,1366,625,1366,768,8-22-2022,7-58-20,45,depth_duration_stimuli/002805_2014-06-22_19-54-03_094959634447_rgbf000079-resize_1/002805_2014-06-22_19-54-03_094959634447_rgbf000079-resize_1-target.png,1000,3.1439999999999997,5,3653,990,feet,jsons/v1_VE1000_randls_62_rotated.json,717882,988153,58,Woman
45,116060,DepthScenes,duration_manipulation_targetAtFixation,jsons/v1_VE1000_randls_62_rotated.json,http://54.235.29.9/FacialAge/BNav_EC2/DepthDuration/v2_depth_duration_MTurk/v2_DepthDuration_HTML.html#37,37,1366,625,1366,768,8-22-2022,7-58-20,46,depth_duration_stimuli/000906_2014-06-08_13-35-43_260595134347_rgbf000155-resize_1/000906_2014-06-08_13-35-43_260595134347_rgbf000155-resize_1-target.png,1000,2.8489999999999998,4,4392,1000,feet,jsons/v1_VE1000_randls_62_rotated.json,717882,988153,58,Woman
46,116060,DepthScenes,duration_manipulation_targetAtFixation,jsons/v1_VE1000_randls_62_rotated.json,http://54.235.29.9/FacialAge/BNav_EC2/DepthDuration/v2_depth_duration_MTurk/v2_DepthDuration_HTML.html#37,37,1366,625,1366,768,8-22-2022,7-58-20,47,depth_duration_stimuli/003495_2014-05-21_16-01-51_094959634447_rgbf000100-resize_3/003495_2014-05-21_16-01-51_094959634447_rgbf000100-resize_3-target.png,1000,1.6255,2,4814,987,feet,jsons/v1_VE1000_randls_62_rotated.json,717882,988153,58,Woman
47,116060,DepthScenes,duration_manipulation_targetAtFixation,jsons/v1_VE1000_randls_62_rotated.json,http://54.235.29.9/FacialAge/BNav_EC2/DepthDuration/v2_depth_duration_MTurk/v2_DepthDuration_HTML.html#37,37,1366,625,1366,768,8-22-2022,7-58-20,48,depth_duration_stimuli/001244_2014-06-17_16-47-45_260595134347_rgbf000030-resize_4/001244_2014-06-17_16-47-45_260595134347_rgbf000030-resize_4-target.png,1000,2.0425,2,4196,988,feet,jsons/v1_VE1000_randls_62_rotated.json,717882,988153,58,Woman
48,116060,DepthScenes,duration_manipulation_targetAtFixation,jsons/v1_VE1000_randls_62_rotated.json,http://54.235.29.9/FacialAge/BNav_EC2/DepthDuration/v2_depth_duration_MTurk/v2_DepthDuration_HTML.html#37,37,1366,625,1366,768,8-22-2022,7-58-20,49,depth_duration_stimuli/001170_2014-06-17_15-43-44_260595134347_rgbf000096-resize_6/001170_2014-06-17_15-43-44_260595134347_rgbf000096-resize-original.jpg,1000,1.1909999999999998,0,5791,1000,feet,jsons/v1_VE1000_randls_62_rotated.json,717882,988153,58,Woman
49,116060,DepthScenes,duration_manipulation_targetAtFixation,jsons/v1_VE1000_randls_62_rotated.json,http://54.235.29.9/FacialAge/BNav_EC2/DepthDuration/v2_depth_duration_MTurk/v2_DepthDuration_HTML.html#37,37,1366,625,1366,768,8-22-2022,7-58-20,50,depth_duration_stimuli/003228_2014-05-14_13-42-35_094959634447_rgbf000101-resize_1/003228_2014-05-14_13-42-35_094959634447_rgbf000101-resize_1-target.png,1000,1.9680000000000002,1,4786,1001,feet,jsons/v1_VE1000_randls_62_rotated.json,717882,988153,58,Woman
50,116060,DepthScenes,duration_manipulation_targetAtFixation,jsons/v1_VE1000_randls_62_rotated.json,http://54.235.29.9/FacialAge/BNav_EC2/DepthDuration/v2_depth_duration_MTurk/v2_DepthDuration_HTML.html#37,37,1366,625,1366,768,8-22-2022,7-58-20,51,depth_duration_stimuli/002600_2014-06-24_14-27-04_094959634447_rgbf000074-resize_2/002600_2014-06-24_14-27-04_094959634447_rgbf000074-resize_2-target.png,1000,2.7575,3,3813,991,feet,jsons/v1_VE1000_randls_62_rotated.json,717882,988153,58,Woman
51,116060,DepthScenes,duration_manipulation_targetAtFixation,jsons/v1_VE1000_randls_62_rotated.json,http://54.235.29.9/FacialAge/BNav_EC2/DepthDuration/v2_depth_duration_MTurk/v2_DepthDuration_HTML.html#37,37,1366,625,1366,768,8-22-2022,7-58-20,52,depth_duration_stimuli/000866_2014-06-09_20-45-42_260595134347_rgbf000139-resize_1/000866_2014-06-09_20-45-42_260595134347_rgbf000139-resize_1-target.png,1000,3.2155,4,3597,989,feet,jsons/v1_VE1000_randls_62_rotated.json,717882,988153,58,Woman
52,116060,DepthScenes,duration_manipulation_targetAtFixation,jsons/v1_VE1000_randls_62_rotated.json,http://54.235.29.9/FacialAge/BNav_EC2/DepthDuration/v2_depth_duration_MTurk/v2_DepthDuration_HTML.html#37,37,1366,625,1366,768,8-22-2022,7-58-20,53,depth_duration_stimuli/002989_2014-06-15_12-25-03_094959634447_rgbf000150-resize_3/002989_2014-06-15_12-25-03_094959634447_rgbf000150-resize_3-target.png,1000,4.1975,4,3823,996,feet,jsons/v1_VE1000_randls_62_rotated.json,717882,988153,58,Woman
53,116060,DepthScenes,duration_manipulation_targetAtFixation,jsons/v1_VE1000_randls_62_rotated.json,http://54.235.29.9/FacialAge/BNav_EC2/DepthDuration/v2_depth_duration_MTurk/v2_DepthDuration_HTML.html#37,37,1366,625,1366,768,8-22-2022,7-58-20,54,depth_duration_stimuli/001571_2014-06-20_17-21-32_260595134347_rgbf000089-resize_1/001571_2014-06-20_17-21-32_260595134347_rgbf000089-resize_1-target.png,1000,1.86,3,5402,1004,feet,jsons/v1_VE1000_randls_62_rotated.json,717882,988153,58,Woman
54,116060,DepthScenes,duration_manipulation_targetAtFixation,jsons/v1_VE1000_randls_62_rotated.json,http://54.235.29.9/FacialAge/BNav_EC2/DepthDuration/v2_depth_duration_MTurk/v2_DepthDuration_HTML.html#37,37,1366,625,1366,768,8-22-2022,7-58-20,55,depth_duration_stimuli/002272_2014-06-28_18-53-56_260595134347_rgbf000067-resize_2/002272_2014-06-28_18-53-56_260595134347_rgbf000067-resize_2-target.png,1000,1.138,1,4366,985,feet,jsons/v1_VE1000_randls_62_rotated.json,717882,988153,58,Woman
55,116060,DepthScenes,duration_manipulation_targetAtFixation,jsons/v1_VE1000_randls_62_rotated.json,http://54.235.29.9/FacialAge/BNav_EC2/DepthDuration/v2_depth_duration_MTurk/v2_DepthDuration_HTML.html#37,37,1366,625,1366,768,8-22-2022,7-58-20,56,depth_duration_stimuli/000677_2014-06-08_23-10-32_260595134347_rgbf000158-resize_6/000677_2014-06-08_23-10-32_260595134347_rgbf000158-resize_6-target.png,1000,3.556,2,3370,1002,feet,jsons/v1_VE1000_randls_62_rotated.json,717882,988153,58,Woman
56,116060,DepthScenes,duration_manipulation_targetAtFixation,jsons/v1_VE1000_randls_62_rotated.json,http://54.235.29.9/FacialAge/BNav_EC2/DepthDuration/v2_depth_duration_MTurk/v2_DepthDuration_HTML.html#37,37,1366,625,1366,768,8-22-2022,7-58-20,57,depth_duration_stimuli/001029_2014-06-08_13-17-57_260595134347_rgbf000065-resize_1/001029_2014-06-08_13-17-57_260595134347_rgbf000065-resize_1-target.png,1000,3.0835,4,4115,1001,feet,jsons/v1_VE1000_randls_62_rotated.json,717882,988153,58,Woman
57,116060,DepthScenes,duration_manipulation_targetAtFixation,jsons/v1_VE1000_randls_62_rotated.json,http://54.235.29.9/FacialAge/BNav_EC2/DepthDuration/v2_depth_duration_MTurk/v2_DepthDuration_HTML.html#37,37,1366,625,1366,768,8-22-2022,7-58-20,58,depth_duration_stimuli/002199_2014-06-28_18-33-56_260595134347_rgbf000074-resize_0/002199_2014-06-28_18-33-56_260595134347_rgbf000074-resize_0-target.png,1000,1.996,1,3610,1006,feet,jsons/v1_VE1000_randls_62_rotated.json,717882,988153,58,Woman
58,116060,DepthScenes,duration_manipulation_targetAtFixation,jsons/v1_VE1000_randls_62_rotated.json,http://54.235.29.9/FacialAge/BNav_EC2/DepthDuration/v2_depth_duration_MTurk/v2_DepthDuration_HTML.html#37,37,1366,625,1366,768,8-22-2022,7-58-20,59,depth_duration_stimuli/001056_2014-06-08_18-46-44_260595134347_rgbf000068-resize_0/001056_2014-06-08_18-46-44_260595134347_rgbf000068-resize_0-target.png,1000,2.6625,4,4021,993,feet,jsons/v1_VE1000_randls_62_rotated.json,717882,988153,58,Woman
59,116060,DepthScenes,duration_manipulation_targetAtFixation,jsons/v1_VE1000_randls_62_rotated.json,http://54.235.29.9/FacialAge/BNav_EC2/DepthDuration/v2_depth_duration_MTurk/v2_DepthDuration_HTML.html#37,37,1366,625,1366,768,8-22-2022,7-58-20,60,depth_duration_stimuli/002995_2014-06-15_12-31-26_094959634447_rgbf000150-resize_1/002995_2014-06-15_12-31-26_094959634447_rgbf000150-resize_1-target.png,1000,3.8360000000000003,8,4447,985,feet,jsons/v1_VE1000_randls_62_rotated.json,717882,988153,58,Woman
60,116060,DepthScenes,duration_manipulation_targetAtFixation,jsons/v1_VE1000_randls_62_rotated.json,http://54.235.29.9/FacialAge/BNav_EC2/DepthDuration/v2_depth_duration_MTurk/v2_DepthDuration_HTML.html#37,37,1366,625,1366,768,8-22-2022,7-58-20,61,depth_duration_stimuli/002748_2014-06-22_19-07-22_094959634447_rgbf000078-resize_1/002748_2014-06-22_19-07-22_094959634447_rgbf000078-resize_1-target.png,1000,4.6705,9,3829,1009,feet,jsons/v1_VE1000_randls_62_rotated.json,717882,988153,58,Woman
61,116060,DepthScenes,duration_manipulation_targetAtFixation,jsons/v1_VE1000_randls_62_rotated.json,http://54.235.29.9/FacialAge/BNav_EC2/DepthDuration/v2_depth_duration_MTurk/v2_DepthDuration_HTML.html#37,37,1366,625,1366,768,8-22-2022,7-58-20,62,depth_duration_stimuli/002637_2014-06-24_14-51-13_094959634447_rgbf000066-resize_4/002637_2014-06-24_14-51-13_094959634447_rgbf000066-resize_4-target.png,1000,1.9955,4,3497,988,feet,jsons/v1_VE1000_randls_62_rotated.json,717882,988153,58,Woman
62,116060,DepthScenes,duration_manipulation_targetAtFixation,jsons/v1_VE1000_randls_62_rotated.json,http://54.235.29.9/FacialAge/BNav_EC2/DepthDuration/v2_depth_duration_MTurk/v2_DepthDuration_HTML.html#37,37,1366,625,1366,768,8-22-2022,7-58-20,63,depth_duration_stimuli/003534_2014-05-22_15-06-10_094959634447_rgbf000102-resize_4/003534_2014-05-22_15-06-10_094959634447_rgbf000102-resize_4-target.png,1000,1.426,1,3449,1003,feet,jsons/v1_VE1000_randls_62_rotated.json,717882,988153,58,Woman
63,116060,DepthScenes,duration_manipulation_targetAtFixation,jsons/v1_VE1000_randls_62_rotated.json,http://54.235.29.9/FacialAge/BNav_EC2/DepthDuration/v2_depth_duration_MTurk/v2_DepthDuration_HTML.html#37,37,1366,625,1366,768,8-22-2022,7-58-20,64,depth_duration_stimuli/002414_2014-06-28_20-24-58_260595134347_rgbf000067-resize_4/002414_2014-06-28_20-24-58_260595134347_rgbf000067-resize_4-target.png,1000,4.363,5,4060,998,feet,jsons/v1_VE1000_randls_62_rotated.json,717882,988153,58,Woman
64,116060,DepthScenes,duration_manipulation_targetAtFixation,jsons/v1_VE1000_randls_62_rotated.json,http://54.235.29.9/FacialAge/BNav_EC2/DepthDuration/v2_depth_duration_MTurk/v2_DepthDuration_HTML.html#37,37,1366,625,1366,768,8-22-2022,7-58-20,65,depth_duration_stimuli/000773_2014-06-08_22-24-54_260595134347_rgbf000093-resize_1/000773_2014-06-08_22-24-54_260595134347_rgbf000093-resize_1-target.png,1000,4.973,6,3532,1000,feet,jsons/v1_VE1000_randls_62_rotated.json,717882,988153,58,Woman
65,116060,DepthScenes,duration_manipulation_targetAtFixation,jsons/v1_VE1000_randls_62_rotated.json,http://54.235.29.9/FacialAge/BNav_EC2/DepthDuration/v2_depth_duration_MTurk/v2_DepthDuration_HTML.html#37,37,1366,625,1366,768,8-22-2022,7-58-20,66,depth_duration_stimuli/001540_2014-06-20_17-01-05_260595134347_rgbf000086-resize_2/001540_2014-06-20_17-01-05_260595134347_rgbf000086-resize-original.jpg,1000,1.459,0,3800,995,feet,jsons/v1_VE1000_randls_62_rotated.json,717882,988153,58,Woman
66,116060,DepthScenes,duration_manipulation_targetAtFixation,jsons/v1_VE1000_randls_62_rotated.json,http://54.235.29.9/FacialAge/BNav_EC2/DepthDuration/v2_depth_duration_MTurk/v2_DepthDuration_HTML.html#37,37,1366,625,1366,768,8-22-2022,7-58-20,67,depth_duration_stimuli/000549_2014-06-08_22-10-24_260595134347_rgbf000247-resize_3/000549_2014-06-08_22-10-24_260595134347_rgbf000247-resize_3-target.png,1000,1.841,1,3431,1000,feet,jsons/v1_VE1000_randls_62_rotated.json,717882,988153,58,Woman
67,116060,DepthScenes,duration_manipulation_targetAtFixation,jsons/v1_VE1000_randls_62_rotated.json,http://54.235.29.9/FacialAge/BNav_EC2/DepthDuration/v2_depth_duration_MTurk/v2_DepthDuration_HTML.html#37,37,1366,625,1366,768,8-22-2022,7-58-20,68,depth_duration_stimuli/001055_2014-06-08_18-45-35_260595134347_rgbf000111-resize_4/001055_2014-06-08_18-45-35_260595134347_rgbf000111-resize_4-target.png,1000,2.4290000000000003,4,3772,1009,feet,jsons/v1_VE1000_randls_62_rotated.json,717882,988153,58,Woman
68,116060,DepthScenes,duration_manipulation_targetAtFixation,jsons/v1_VE1000_randls_62_rotated.json,http://54.235.29.9/FacialAge/BNav_EC2/DepthDuration/v2_depth_duration_MTurk/v2_DepthDuration_HTML.html#37,37,1366,625,1366,768,8-22-2022,7-58-20,69,depth_duration_stimuli/000927_2014-06-09_16-32-30_260595134347_rgbf000123-resize_3/000927_2014-06-09_16-32-30_260595134347_rgbf000123-resize_3-target.png,1000,2.6785,5,3879,998,feet,jsons/v1_VE1000_randls_62_rotated.json,717882,988153,58,Woman
69,116060,DepthScenes,duration_manipulation_targetAtFixation,jsons/v1_VE1000_randls_62_rotated.json,http://54.235.29.9/FacialAge/BNav_EC2/DepthDuration/v2_depth_duration_MTurk/v2_DepthDuration_HTML.html#37,37,1366,625,1366,768,8-22-2022,7-58-20,70,depth_duration_stimuli/001110_2014-06-15_17-25-28_260595134347_rgbf000150-resize_1/001110_2014-06-15_17-25-28_260595134347_rgbf000150-resize_1-target.png,1000,1.7115,3,3710,1004,feet,jsons/v1_VE1000_randls_62_rotated.json,717882,988153,58,Woman
70,116060,DepthScenes,duration_manipulation_targetAtFixation,jsons/v1_VE1000_randls_62_rotated.json,http://54.235.29.9/FacialAge/BNav_EC2/DepthDuration/v2_depth_duration_MTurk/v2_DepthDuration_HTML.html#37,37,1366,625,1366,768,8-22-2022,7-58-20,71,depth_duration_stimuli/000483_2014-06-09_20-41-45_260595134347_rgbf000116-resize_4/000483_2014-06-09_20-41-45_260595134347_rgbf000116-resize_4-target.png,1000,1.337,1,3104,1002,feet,jsons/v1_VE1000_randls_62_rotated.json,717882,988153,58,Woman
71,116060,DepthScenes,duration_manipulation_targetAtFixation,jsons/v1_VE1000_randls_62_rotated.json,http://54.235.29.9/FacialAge/BNav_EC2/DepthDuration/v2_depth_duration_MTurk/v2_DepthDuration_HTML.html#37,37,1366,625,1366,768,8-22-2022,7-58-20,72,depth_duration_stimuli/000469_2014-06-09_19-42-10_260595134347_rgbf000081-resize_1/000469_2014-06-09_19-42-10_260595134347_rgbf000081-resize_1-target.png,1000,1.652,2,3406,998,feet,jsons/v1_VE1000_randls_62_rotated.json,717882,988153,58,Woman
72,116060,DepthScenes,duration_manipulation_targetAtFixation,jsons/v1_VE1000_randls_62_rotated.json,http://54.235.29.9/FacialAge/BNav_EC2/DepthDuration/v2_depth_duration_MTurk/v2_DepthDuration_HTML.html#37,37,1366,625,1366,768,8-22-2022,7-58-20,73,depth_duration_stimuli/000749_2014-06-08_21-55-06_260595134347_rgbf000070-resize_2/000749_2014-06-08_21-55-06_260595134347_rgbf000070-resize_2-target.png,1000,2.331,2,3584,1001,feet,jsons/v1_VE1000_randls_62_rotated.json,717882,988153,58,Woman
73,116060,DepthScenes,duration_manipulation_targetAtFixation,jsons/v1_VE1000_randls_62_rotated.json,http://54.235.29.9/FacialAge/BNav_EC2/DepthDuration/v2_depth_duration_MTurk/v2_DepthDuration_HTML.html#37,37,1366,625,1366,768,8-22-2022,7-58-20,74,depth_duration_stimuli/002788_2014-06-22_19-36-03_094959634447_rgbf000088-resize_2/002788_2014-06-22_19-36-03_094959634447_rgbf000088-resize_2-target.png,1000,1.6465,4,3759,1010,feet,jsons/v1_VE1000_randls_62_rotated.json,717882,988153,58,Woman
74,116060,DepthScenes,duration_manipulation_targetAtFixation,jsons/v1_VE1000_randls_62_rotated.json,http://54.235.29.9/FacialAge/BNav_EC2/DepthDuration/v2_depth_duration_MTurk/v2_DepthDuration_HTML.html#37,37,1366,625,1366,768,8-22-2022,7-58-20,75,depth_duration_stimuli/001584_2014-06-20_11-07-43_260595134347_rgbf000002-resize_1/001584_2014-06-20_11-07-43_260595134347_rgbf000002-resize_1-target.png,1000,3.53,5,3601,1009,feet,jsons/v1_VE1000_randls_62_rotated.json,717882,988153,58,Woman
75,116060,DepthScenes,duration_manipulation_targetAtFixation,jsons/v1_VE1000_randls_62_rotated.json,http://54.235.29.9/FacialAge/BNav_EC2/DepthDuration/v2_depth_duration_MTurk/v2_DepthDuration_HTML.html#37,37,1366,625,1366,768,8-22-2022,7-58-20,76,depth_duration_stimuli/003621_2014-05-23_18-06-08_094959634447_rgbf000101-resize_1/003621_2014-05-23_18-06-08_094959634447_rgbf000101-resize_1-target.png,1000,3.9835,8,6807,993,feet,jsons/v1_VE1000_randls_62_rotated.json,717882,988153,58,Woman
76,116060,DepthScenes,duration_manipulation_targetAtFixation,jsons/v1_VE1000_randls_62_rotated.json,http://54.235.29.9/FacialAge/BNav_EC2/DepthDuration/v2_depth_duration_MTurk/v2_DepthDuration_HTML.html#37,37,1366,625,1366,768,8-22-2022,7-58-20,77,depth_duration_stimuli/000109_2014-05-14_23-41-52_260595134347_rgbf000035-resize_9/000109_2014-05-14_23-41-52_260595134347_rgbf000035-resize_9-target.png,1000,1.3545,2,3881,1007,feet,jsons/v1_VE1000_randls_62_rotated.json,717882,988153,58,Woman
77,116060,DepthScenes,duration_manipulation_targetAtFixation,jsons/v1_VE1000_randls_62_rotated.json,http://54.235.29.9/FacialAge/BNav_EC2/DepthDuration/v2_depth_duration_MTurk/v2_DepthDuration_HTML.html#37,37,1366,625,1366,768,8-22-2022,7-58-20,78,depth_duration_stimuli/000470_2014-06-09_19-42-40_260595134347_rgbf000094-resize_1/000470_2014-06-09_19-42-40_260595134347_rgbf000094-resize_1-target.png,1000,1.831,3,3087,988,feet,jsons/v1_VE1000_randls_62_rotated.json,717882,988153,58,Woman
78,116060,DepthScenes,duration_manipulation_targetAtFixation,jsons/v1_VE1000_randls_62_rotated.json,http://54.235.29.9/FacialAge/BNav_EC2/DepthDuration/v2_depth_duration_MTurk/v2_DepthDuration_HTML.html#37,37,1366,625,1366,768,8-22-2022,7-58-20,79,depth_duration_stimuli/003587_2014-05-23_16-48-02_094959634447_rgbf002384-resize_2/003587_2014-05-23_16-48-02_094959634447_rgbf002384-resize_2-target.png,1000,1.357,2,5978,988,feet,jsons/v1_VE1000_randls_62_rotated.json,717882,988153,58,Woman
79,116060,DepthScenes,duration_manipulation_targetAtFixation,jsons/v1_VE1000_randls_62_rotated.json,http://54.235.29.9/FacialAge/BNav_EC2/DepthDuration/v2_depth_duration_MTurk/v2_DepthDuration_HTML.html#37,37,1366,625,1366,768,8-22-2022,7-58-20,80,depth_duration_stimuli/001167_2014-06-17_15-38-07_260595134347_rgbf000108-resize_0/001167_2014-06-17_15-38-07_260595134347_rgbf000108-resize_0-target.png,1000,1.8505,2,3404,1000,feet,jsons/v1_VE1000_randls_62_rotated.json,717882,988153,58,Woman
80,116060,DepthScenes,duration_manipulation_targetAtFixation,jsons/v1_VE1000_randls_62_rotated.json,http://54.235.29.9/FacialAge/BNav_EC2/DepthDuration/v2_depth_duration_MTurk/v2_DepthDuration_HTML.html#37,37,1366,625,1366,768,8-22-2022,7-58-20,81,depth_duration_stimuli/002639_2014-06-24_14-51-37_094959634447_rgbf000074-resize_4/002639_2014-06-24_14-51-37_094959634447_rgbf000074-resize_4-target.png,1000,4.0375,4,3257,1007,feet,jsons/v1_VE1000_randls_62_rotated.json,717882,988153,58,Woman
81,116060,DepthScenes,duration_manipulation_targetAtFixation,jsons/v1_VE1000_randls_62_rotated.json,http://54.235.29.9/FacialAge/BNav_EC2/DepthDuration/v2_depth_duration_MTurk/v2_DepthDuration_HTML.html#37,37,1366,625,1366,768,8-22-2022,7-58-20,82,depth_duration_stimuli/003292_2014-05-14_21-53-49_094959634447_rgbf000100-resize_2/003292_2014-05-14_21-53-49_094959634447_rgbf000100-resize_2-target.png,1000,3.4815,4,3725,1000,feet,jsons/v1_VE1000_randls_62_rotated.json,717882,988153,58,Woman
82,116060,DepthScenes,duration_manipulation_targetAtFixation,jsons/v1_VE1000_randls_62_rotated.json,http://54.235.29.9/FacialAge/BNav_EC2/DepthDuration/v2_depth_duration_MTurk/v2_DepthDuration_HTML.html#37,37,1366,625,1366,768,8-22-2022,7-58-20,83,depth_duration_stimuli/003079_2014-06-15_15-18-20_094959634447_rgbf000152-resize_8/003079_2014-06-15_15-18-20_094959634447_rgbf000152-resize_8-target.png,1000,2.8775,9,4082,992,feet,jsons/v1_VE1000_randls_62_rotated.json,717882,988153,58,Woman
83,116060,DepthScenes,duration_manipulation_targetAtFixation,jsons/v1_VE1000_randls_62_rotated.json,http://54.235.29.9/FacialAge/BNav_EC2/DepthDuration/v2_depth_duration_MTurk/v2_DepthDuration_HTML.html#37,37,1366,625,1366,768,8-22-2022,7-58-20,84,depth_duration_stimuli/000506_2014-06-08_23-21-00_260595134347_rgbf000070-resize_7/000506_2014-06-08_23-21-00_260595134347_rgbf000070-resize_7-target.png,1000,4.0585,4,3942,1003,feet,jsons/v1_VE1000_randls_62_rotated.json,717882,988153,58,Woman
84,116060,DepthScenes,duration_manipulation_targetAtFixation,jsons/v1_VE1000_randls_62_rotated.json,http://54.235.29.9/FacialAge/BNav_EC2/DepthDuration/v2_depth_duration_MTurk/v2_DepthDuration_HTML.html#37,37,1366,625,1366,768,8-22-2022,7-58-20,85,depth_duration_stimuli/001392_2014-06-19_16-07-59_260595134347_rgbf000046-resize_1/001392_2014-06-19_16-07-59_260595134347_rgbf000046-resize_1-target.png,1000,4.135,8,3924,1007,feet,jsons/v1_VE1000_randls_62_rotated.json,717882,988153,58,Woman
85,116060,DepthScenes,duration_manipulation_targetAtFixation,jsons/v1_VE1000_randls_62_rotated.json,http://54.235.29.9/FacialAge/BNav_EC2/DepthDuration/v2_depth_duration_MTurk/v2_DepthDuration_HTML.html#37,37,1366,625,1366,768,8-22-2022,7-58-20,86,depth_duration_stimuli/001570_2014-06-20_17-21-09_260595134347_rgbf000135-resize_4/001570_2014-06-20_17-21-09_260595134347_rgbf000135-resize_4-target.png,1000,4.467,8,3133,997,feet,jsons/v1_VE1000_randls_62_rotated.json,717882,988153,58,Woman
86,116060,DepthScenes,duration_manipulation_targetAtFixation,jsons/v1_VE1000_randls_62_rotated.json,http://54.235.29.9/FacialAge/BNav_EC2/DepthDuration/v2_depth_duration_MTurk/v2_DepthDuration_HTML.html#37,37,1366,625,1366,768,8-22-2022,7-58-20,87,depth_duration_stimuli/002136_2014-06-25_21-18-03_260595134347_rgbf000109-resize_3/002136_2014-06-25_21-18-03_260595134347_rgbf000109-resize_3-target.png,1000,1.9569999999999999,3,4329,986,feet,jsons/v1_VE1000_randls_62_rotated.json,717882,988153,58,Woman
87,116060,DepthScenes,duration_manipulation_targetAtFixation,jsons/v1_VE1000_randls_62_rotated.json,http://54.235.29.9/FacialAge/BNav_EC2/DepthDuration/v2_depth_duration_MTurk/v2_DepthDuration_HTML.html#37,37,1366,625,1366,768,8-22-2022,7-58-20,88,depth_duration_stimuli/002964_2014-06-08_17-46-11_094959634447_rgbf000091-resize_4/002964_2014-06-08_17-46-11_094959634447_rgbf000091-resize_4-target.png,1000,1.6909999999999998,2,3159,1000,feet,jsons/v1_VE1000_randls_62_rotated.json,717882,988153,58,Woman
88,116060,DepthScenes,duration_manipulation_targetAtFixation,jsons/v1_VE1000_randls_62_rotated.json,http://54.235.29.9/FacialAge/BNav_EC2/DepthDuration/v2_depth_duration_MTurk/v2_DepthDuration_HTML.html#37,37,1366,625,1366,768,8-22-2022,7-58-20,89,depth_duration_stimuli/000191_2014-05-12_17-07-38_260595134347_rgbf000199-resize_0/000191_2014-05-12_17-07-38_260595134347_rgbf000199-resize_0-target.png,1000,3.7995,8,3045,997,feet,jsons/v1_VE1000_randls_62_rotated.json,717882,988153,58,Woman
89,116060,DepthScenes,duration_manipulation_targetAtFixation,jsons/v1_VE1000_randls_62_rotated.json,http://54.235.29.9/FacialAge/BNav_EC2/DepthDuration/v2_depth_duration_MTurk/v2_DepthDuration_HTML.html#37,37,1366,625,1366,768,8-22-2022,7-58-20,90,depth_duration_stimuli/000493_2014-06-09_21-01-18_260595134347_rgbf000196-resize_3/000493_2014-06-09_21-01-18_260595134347_rgbf000196-resize_3-target.png,1000,3.44,4,3540,1002,feet,jsons/v1_VE1000_randls_62_rotated.json,717882,988153,58,Woman
90,116060,DepthScenes,duration_manipulation_targetAtFixation,jsons/v1_VE1000_randls_62_rotated.json,http://54.235.29.9/FacialAge/BNav_EC2/DepthDuration/v2_depth_duration_MTurk/v2_DepthDuration_HTML.html#37,37,1366,625,1366,768,8-22-2022,7-58-20,91,depth_duration_stimuli/000943_2014-06-09_19-31-07_260595134347_rgbf000128-resize_1/000943_2014-06-09_19-31-07_260595134347_rgbf000128-resize_1-target.png,1000,1.9765,3,2756,1005,feet,jsons/v1_VE1000_randls_62_rotated.json,717882,988153,58,Woman
91,116060,DepthScenes,duration_manipulation_targetAtFixation,jsons/v1_VE1000_randls_62_rotated.json,http://54.235.29.9/FacialAge/BNav_EC2/DepthDuration/v2_depth_duration_MTurk/v2_DepthDuration_HTML.html#37,37,1366,625,1366,768,8-22-2022,7-58-20,92,depth_duration_stimuli/003070_2014-06-15_14-58-27_094959634447_rgbf000150-resize_3/003070_2014-06-15_14-58-27_094959634447_rgbf000150-resize_3-target.png,1000,2.9415,4,3206,999,feet,jsons/v1_VE1000_randls_62_rotated.json,717882,988153,58,Woman
92,116060,DepthScenes,duration_manipulation_targetAtFixation,jsons/v1_VE1000_randls_62_rotated.json,http://54.235.29.9/FacialAge/BNav_EC2/DepthDuration/v2_depth_duration_MTurk/v2_DepthDuration_HTML.html#37,37,1366,625,1366,768,8-22-2022,7-58-20,93,depth_duration_stimuli/001132_2014-06-17_14-48-54_260595134347_rgbf000100-resize_2/001132_2014-06-17_14-48-54_260595134347_rgbf000100-resize_2-target.png,1000,3.753,4,4437,1003,feet,jsons/v1_VE1000_randls_62_rotated.json,717882,988153,58,Woman
93,116060,DepthScenes,duration_manipulation_targetAtFixation,jsons/v1_VE1000_randls_62_rotated.json,http://54.235.29.9/FacialAge/BNav_EC2/DepthDuration/v2_depth_duration_MTurk/v2_DepthDuration_HTML.html#37,37,1366,625,1366,768,8-22-2022,7-58-20,94,depth_duration_stimuli/001133_2014-06-17_14-49-16_260595134347_rgbf000100-resize_0/001133_2014-06-17_14-49-16_260595134347_rgbf000100-resize_0-target.png,1000,4.2115,5,3685,1005,feet,jsons/v1_VE1000_randls_62_rotated.json,717882,988153,58,Woman
94,116060,DepthScenes,duration_manipulation_targetAtFixation,jsons/v1_VE1000_randls_62_rotated.json,http://54.235.29.9/FacialAge/BNav_EC2/DepthDuration/v2_depth_duration_MTurk/v2_DepthDuration_HTML.html#37,37,1366,625,1366,768,8-22-2022,7-58-20,95,depth_duration_stimuli/002323_2014-06-28_20-01-54_260595134347_rgbf000051-resize_4/002323_2014-06-28_20-01-54_260595134347_rgbf000051-resize_4-target.png,1000,3.7310000000000003,6,3891,1002,feet,jsons/v1_VE1000_randls_62_rotated.json,717882,988153,58,Woman
95,116060,DepthScenes,duration_manipulation_targetAtFixation,jsons/v1_VE1000_randls_62_rotated.json,http://54.235.29.9/FacialAge/BNav_EC2/DepthDuration/v2_depth_duration_MTurk/v2_DepthDuration_HTML.html#37,37,1366,625,1366,768,8-22-2022,7-58-20,96,depth_duration_stimuli/000917_2014-06-09_22-45-29_260595134347_rgbf000149-resize_3/000917_2014-06-09_22-45-29_260595134347_rgbf000149-resize_3-target.png,1000,4.1865,5,4902,1001,feet,jsons/v1_VE1000_randls_62_rotated.json,717882,988153,58,Woman
96,116060,DepthScenes,duration_manipulation_targetAtFixation,jsons/v1_VE1000_randls_62_rotated.json,http://54.235.29.9/FacialAge/BNav_EC2/DepthDuration/v2_depth_duration_MTurk/v2_DepthDuration_HTML.html#37,37,1366,625,1366,768,8-22-2022,7-58-20,97,depth_duration_stimuli/002209_2014-06-28_18-36-10_260595134347_rgbf000051-resize_1/002209_2014-06-28_18-36-10_260595134347_rgbf000051-resize_1-target.png,1000,2.057,3,4927,999,feet,jsons/v1_VE1000_randls_62_rotated.json,717882,988153,58,Woman
97,116060,DepthScenes,duration_manipulation_targetAtFixation,jsons/v1_VE1000_randls_62_rotated.json,http://54.235.29.9/FacialAge/BNav_EC2/DepthDuration/v2_depth_duration_MTurk/v2_DepthDuration_HTML.html#37,37,1366,625,1366,768,8-22-2022,7-58-20,98,depth_duration_stimuli/002763_2014-06-22_19-13-10_094959634447_rgbf000075-resize_4/002763_2014-06-22_19-13-10_094959634447_rgbf000075-resize_4-target.png,1000,1.68375,3,3848,996,feet,jsons/v1_VE1000_randls_62_rotated.json,717882,988153,58,Woman
98,116060,DepthScenes,duration_manipulation_targetAtFixation,jsons/v1_VE1000_randls_62_rotated.json,http://54.235.29.9/FacialAge/BNav_EC2/DepthDuration/v2_depth_duration_MTurk/v2_DepthDuration_HTML.html#37,37,1366,625,1366,768,8-22-2022,7-58-20,99,depth_duration_stimuli/001222_2014-06-17_16-24-06_260595134347_rgbf000073-resize_0/001222_2014-06-17_16-24-06_260595134347_rgbf000073-resize-original.jpg,1000,1.4385,0,4249,999,feet,jsons/v1_VE1000_randls_62_rotated.json,717882,988153,58,Woman
99,116060,DepthScenes,duration_manipulation_targetAtFixation,jsons/v1_VE1000_randls_62_rotated.json,http://54.235.29.9/FacialAge/BNav_EC2/DepthDuration/v2_depth_duration_MTurk/v2_DepthDuration_HTML.html#37,37,1366,625,1366,768,8-22-2022,7-58-20,100,depth_duration_stimuli/000137_2014-05-20_17-04-49_260595134347_rgbf000120-resize_1/000137_2014-05-20_17-04-49_260595134347_rgbf000120-resize_1-target.png,1000,3.786,4,4603,997,feet,jsons/v1_VE1000_randls_62_rotated.json,717882,988153,58,Woman
100,116060,DepthScenes,duration_manipulation_targetAtFixation,jsons/v1_VE1000_randls_62_rotated.json,http://54.235.29.9/FacialAge/BNav_EC2/DepthDuration/v2_depth_duration_MTurk/v2_DepthDuration_HTML.html#37,37,1366,625,1366,768,8-22-2022,7-58-20,101,depth_duration_stimuli/000736_2014-06-08_18-24-15_260595134347_rgbf000206-resize_3/000736_2014-06-08_18-24-15_260595134347_rgbf000206-resize_3-target.png,1000,3.515,2,3732,1005,feet,jsons/v1_VE1000_randls_62_rotated.json,717882,988153,58,Woman
101,116060,DepthScenes,duration_manipulation_targetAtFixation,jsons/v1_VE1000_randls_62_rotated.json,http://54.235.29.9/FacialAge/BNav_EC2/DepthDuration/v2_depth_duration_MTurk/v2_DepthDuration_HTML.html#37,37,1366,625,1366,768,8-22-2022,7-58-20,102,depth_duration_stimuli/002678_2014-06-13_16-15-32_094959634447_rgbf000151-resize_6/002678_2014-06-13_16-15-32_094959634447_rgbf000151-resize_6-target.png,1000,2.1830000000000003,3,3652,1001,feet,jsons/v1_VE1000_randls_62_rotated.json,717882,988153,58,Woman
102,116060,DepthScenes,duration_manipulation_targetAtFixation,jsons/v1_VE1000_randls_62_rotated.json,http://54.235.29.9/FacialAge/BNav_EC2/DepthDuration/v2_depth_duration_MTurk/v2_DepthDuration_HTML.html#37,37,1366,625,1366,768,8-22-2022,7-58-20,103,depth_duration_stimuli/000368_2014-06-09_15-53-01_260595134347_rgbf000155-resize_2/000368_2014-06-09_15-53-01_260595134347_rgbf000155-resize_2-target.png,1000,2.4859999999999998,2,4334,1001,feet,jsons/v1_VE1000_randls_62_rotated.json,717882,988153,58,Woman
103,116060,DepthScenes,duration_manipulation_targetAtFixation,jsons/v1_VE1000_randls_62_rotated.json,http://54.235.29.9/FacialAge/BNav_EC2/DepthDuration/v2_depth_duration_MTurk/v2_DepthDuration_HTML.html#37,37,1366,625,1366,768,8-22-2022,7-58-20,104,depth_duration_stimuli/003010_2014-06-15_12-54-35_094959634447_rgbf000112-resize_0/003010_2014-06-15_12-54-35_094959634447_rgbf000112-resize_0-target.png,1000,3.1185,7,5206,996,feet,jsons/v1_VE1000_randls_62_rotated.json,717882,988153,58,Woman
104,116060,DepthScenes,duration_manipulation_targetAtFixation,jsons/v1_VE1000_randls_62_rotated.json,http://54.235.29.9/FacialAge/BNav_EC2/DepthDuration/v2_depth_duration_MTurk/v2_DepthDuration_HTML.html#37,37,1366,625,1366,768,8-22-2022,7-58-20,105,depth_duration_stimuli/001810_2014-06-26_20-51-35_260595134347_rgbf000040-resize_3/001810_2014-06-26_20-51-35_260595134347_rgbf000040-resize_3-target.png,1000,2.2525,2,3239,1008,feet,jsons/v1_VE1000_randls_62_rotated.json,717882,988153,58,Woman
105,116060,DepthScenes,duration_manipulation_targetAtFixation,jsons/v1_VE1000_randls_62_rotated.json,http://54.235.29.9/FacialAge/BNav_EC2/DepthDuration/v2_depth_duration_MTurk/v2_DepthDuration_HTML.html#37,37,1366,625,1366,768,8-22-2022,7-58-20,106,depth_duration_stimuli/000780_2014-06-08_22-28-29_260595134347_rgbf000126-resize_1/000780_2014-06-08_22-28-29_260595134347_rgbf000126-resize_1-target.png,1000,3.3825,5,4101,1014,feet,jsons/v1_VE1000_randls_62_rotated.json,717882,988153,58,Woman
106,116060,DepthScenes,duration_manipulation_targetAtFixation,jsons/v1_VE1000_randls_62_rotated.json,http://54.235.29.9/FacialAge/BNav_EC2/DepthDuration/v2_depth_duration_MTurk/v2_DepthDuration_HTML.html#37,37,1366,625,1366,768,8-22-2022,7-58-20,107,depth_duration_stimuli/002445_2014-06-28_20-32-16_260595134347_rgbf000029-resize_4/002445_2014-06-28_20-32-16_260595134347_rgbf000029-resize_4-target.png,1000,2.5315,2,4635,1005,feet,jsons/v1_VE1000_randls_62_rotated.json,717882,988153,58,Woman
107,116060,DepthScenes,duration_manipulation_targetAtFixation,jsons/v1_VE1000_randls_62_rotated.json,http://54.235.29.9/FacialAge/BNav_EC2/DepthDuration/v2_depth_duration_MTurk/v2_DepthDuration_HTML.html#37,37,1366,625,1366,768,8-22-2022,7-58-20,108,depth_duration_stimuli/003338_2014-05-20_11-01-23_094959634447_rgbf000051-resize_6/003338_2014-05-20_11-01-23_094959634447_rgbf000051-resize_6-target.png,1000,1.693,1,2993,990,feet,jsons/v1_VE1000_randls_62_rotated.json,717882,988153,58,Woman
108,116060,DepthScenes,duration_manipulation_targetAtFixation,jsons/v1_VE1000_randls_62_rotated.json,http://54.235.29.9/FacialAge/BNav_EC2/DepthDuration/v2_depth_duration_MTurk/v2_DepthDuration_HTML.html#37,37,1366,625,1366,768,8-22-2022,7-58-20,109,depth_duration_stimuli/002509_2014-06-24_13-19-22_094959634447_rgbf000077-resize_0/002509_2014-06-24_13-19-22_094959634447_rgbf000077-resize_0-target.png,1000,1.3065,2,4011,990,feet,jsons/v1_VE1000_randls_62_rotated.json,717882,988153,58,Woman
109,116060,DepthScenes,duration_manipulation_targetAtFixation,jsons/v1_VE1000_randls_62_rotated.json,http://54.235.29.9/FacialAge/BNav_EC2/DepthDuration/v2_depth_duration_MTurk/v2_DepthDuration_HTML.html#37,37,1366,625,1366,768,8-22-2022,7-58-20,110,depth_duration_stimuli/001136_2014-06-17_15-19-41_260595134347_rgbf000076-resize_3/001136_2014-06-17_15-19-41_260595134347_rgbf000076-resize_3-target.png,1000,1.8655,2,3597,1002,feet,jsons/v1_VE1000_randls_62_rotated.json,717882,988153,58,Woman
110,116060,DepthScenes,duration_manipulation_targetAtFixation,jsons/v1_VE1000_randls_62_rotated.json,http://54.235.29.9/FacialAge/BNav_EC2/DepthDuration/v2_depth_duration_MTurk/v2_DepthDuration_HTML.html#37,37,1366,625,1366,768,8-22-2022,7-58-20,111,depth_duration_stimuli/001164_2014-06-17_15-35-46_260595134347_rgbf000085-resize_3/001164_2014-06-17_15-35-46_260595134347_rgbf000085-resize_3-target.png,1000,2.354,3,3868,1000,feet,jsons/v1_VE1000_randls_62_rotated.json,717882,988153,58,Woman
111,116060,DepthScenes,duration_manipulation_targetAtFixation,jsons/v1_VE1000_randls_62_rotated.json,http://54.235.29.9/FacialAge/BNav_EC2/DepthDuration/v2_depth_duration_MTurk/v2_DepthDuration_HTML.html#37,37,1366,625,1366,768,8-22-2022,7-58-20,112,depth_duration_stimuli/000502_2014-06-08_23-02-32_260595134347_rgbf000063-resize_4/000502_2014-06-08_23-02-32_260595134347_rgbf000063-resize_4-target.png,1000,2.431,2,3193,1001,feet,jsons/v1_VE1000_randls_62_rotated.json,717882,988153,58,Woman
112,116060,DepthScenes,duration_manipulation_targetAtFixation,jsons/v1_VE1000_randls_62_rotated.json,http://54.235.29.9/FacialAge/BNav_EC2/DepthDuration/v2_depth_duration_MTurk/v2_DepthDuration_HTML.html#37,37,1366,625,1366,768,8-22-2022,7-58-20,113,depth_duration_stimuli/001199_2014-06-17_16-03-48_260595134347_rgbf000077-resize_0/001199_2014-06-17_16-03-48_260595134347_rgbf000077-resize_0-target.png,1000,3.4375,4,3245,1008,feet,jsons/v1_VE1000_randls_62_rotated.json,717882,988153,58,Woman
113,116060,DepthScenes,duration_manipulation_targetAtFixation,jsons/v1_VE1000_randls_62_rotated.json,http://54.235.29.9/FacialAge/BNav_EC2/DepthDuration/v2_depth_duration_MTurk/v2_DepthDuration_HTML.html#37,37,1366,625,1366,768,8-22-2022,7-58-20,114,depth_duration_stimuli/002758_2014-06-22_19-11-20_094959634447_rgbf000128-resize_1/002758_2014-06-22_19-11-20_094959634447_rgbf000128-resize_1-target.png,1000,2.555,2,3891,1001,feet,jsons/v1_VE1000_randls_62_rotated.json,717882,988153,58,Woman
114,116060,DepthScenes,duration_manipulation_targetAtFixation,jsons/v1_VE1000_randls_62_rotated.json,http://54.235.29.9/FacialAge/BNav_EC2/DepthDuration/v2_depth_duration_MTurk/v2_DepthDuration_HTML.html#37,37,1366,625,1366,768,8-22-2022,7-58-20,115,depth_duration_stimuli/002630_2014-06-24_14-47-50_094959634447_rgbf000055-resize_1/002630_2014-06-24_14-47-50_094959634447_rgbf000055-resize_1-target.png,1000,3.0095,5,3099,991,feet,jsons/v1_VE1000_randls_62_rotated.json,717882,988153,58,Woman
115,116060,DepthScenes,duration_manipulation_targetAtFixation,jsons/v1_VE1000_randls_62_rotated.json,http://54.235.29.9/FacialAge/BNav_EC2/DepthDuration/v2_depth_duration_MTurk/v2_DepthDuration_HTML.html#37,37,1366,625,1366,768,8-22-2022,7-58-20,116,depth_duration_stimuli/002344_2014-06-28_20-06-29_260595134347_rgbf000030-resize_1/002344_2014-06-28_20-06-29_260595134347_rgbf000030-resize_1-target.png,1000,1.5795,1,3613,1008,feet,jsons/v1_VE1000_randls_62_rotated.json,717882,988153,58,Woman
116,116060,DepthScenes,duration_manipulation_targetAtFixation,jsons/v1_VE1000_randls_62_rotated.json,http://54.235.29.9/FacialAge/BNav_EC2/DepthDuration/v2_depth_duration_MTurk/v2_DepthDuration_HTML.html#37,37,1366,625,1366,768,8-22-2022,7-58-20,117,depth_duration_stimuli/002725_2014-06-22_11-47-51_094959634447_rgbf000070-resize_1/002725_2014-06-22_11-47-51_094959634447_rgbf000070-resize_1-target.png,1000,2.195,3,3609,989,feet,jsons/v1_VE1000_randls_62_rotated.json,717882,988153,58,Woman
117,116060,DepthScenes,duration_manipulation_targetAtFixation,jsons/v1_VE1000_randls_62_rotated.json,http://54.235.29.9/FacialAge/BNav_EC2/DepthDuration/v2_depth_duration_MTurk/v2_DepthDuration_HTML.html#37,37,1366,625,1366,768,8-22-2022,7-58-20,118,depth_duration_stimuli/001447_2014-06-19_17-00-32_260595134347_rgbf000082-resize_5/001447_2014-06-19_17-00-32_260595134347_rgbf000082-resize_5-target.png,1000,4.13775,3,3477,991,feet,jsons/v1_VE1000_randls_62_rotated.json,717882,988153,58,Woman
118,116060,DepthScenes,duration_manipulation_targetAtFixation,jsons/v1_VE1000_randls_62_rotated.json,http://54.235.29.9/FacialAge/BNav_EC2/DepthDuration/v2_depth_duration_MTurk/v2_DepthDuration_HTML.html#37,37,1366,625,1366,768,8-22-2022,7-58-20,119,depth_duration_stimuli/000447_2014-06-08_16-15-46_260595134347_rgbf000130-resize_1/000447_2014-06-08_16-15-46_260595134347_rgbf000130-resize_1-target.png,1000,4.479,5,3580,994,feet,jsons/v1_VE1000_randls_62_rotated.json,717882,988153,58,Woman
119,116060,DepthScenes,duration_manipulation_targetAtFixation,jsons/v1_VE1000_randls_62_rotated.json,http://54.235.29.9/FacialAge/BNav_EC2/DepthDuration/v2_depth_duration_MTurk/v2_DepthDuration_HTML.html#37,37,1366,625,1366,768,8-22-2022,7-58-20,120,depth_duration_stimuli/000787_2014-06-08_22-33-53_260595134347_rgbf000175-resize_1/000787_2014-06-08_22-33-53_260595134347_rgbf000175-resize-original.jpg,1000,4.784,0,4044,1011,feet,jsons/v1_VE1000_randls_62_rotated.json,717882,988153,58,Woman
120,116060,DepthScenes,duration_manipulation_targetAtFixation,jsons/v1_VE1000_randls_62_rotated.json,http://54.235.29.9/FacialAge/BNav_EC2/DepthDuration/v2_depth_duration_MTurk/v2_DepthDuration_HTML.html#37,37,1366,625,1366,768,8-22-2022,7-58-20,121,depth_duration_stimuli/001052_2014-06-08_18-24-54_260595134347_rgbf000130-resize_1/001052_2014-06-08_18-24-54_260595134347_rgbf000130-resize_1-target.png,1000,4.1045,5,3366,1002,feet,jsons/v1_VE1000_randls_62_rotated.json,717882,988153,58,Woman
121,116060,DepthScenes,duration_manipulation_targetAtFixation,jsons/v1_VE1000_randls_62_rotated.json,http://54.235.29.9/FacialAge/BNav_EC2/DepthDuration/v2_depth_duration_MTurk/v2_DepthDuration_HTML.html#37,37,1366,625,1366,768,8-22-2022,7-58-20,122,depth_duration_stimuli/002988_2014-06-15_12-24-20_094959634447_rgbf000150-resize_1/002988_2014-06-15_12-24-20_094959634447_rgbf000150-resize_1-target.png,1000,4.7669999999999995,6,4251,999,feet,jsons/v1_VE1000_randls_62_rotated.json,717882,988153,58,Woman
122,116060,DepthScenes,duration_manipulation_targetAtFixation,jsons/v1_VE1000_randls_62_rotated.json,http://54.235.29.9/FacialAge/BNav_EC2/DepthDuration/v2_depth_duration_MTurk/v2_DepthDuration_HTML.html#37,37,1366,625,1366,768,8-22-2022,7-58-20,123,depth_duration_stimuli/000734_2014-06-08_17-39-11_260595134347_rgbf000128-resize_2/000734_2014-06-08_17-39-11_260595134347_rgbf000128-resize_2-target.png,1000,4.098,4,4119,1007,feet,jsons/v1_VE1000_randls_62_rotated.json,717882,988153,58,Woman
123,116060,DepthScenes,duration_manipulation_targetAtFixation,jsons/v1_VE1000_randls_62_rotated.json,http://54.235.29.9/FacialAge/BNav_EC2/DepthDuration/v2_depth_duration_MTurk/v2_DepthDuration_HTML.html#37,37,1366,625,1366,768,8-22-2022,7-58-20,124,depth_duration_stimuli/000739_2014-06-08_18-45-58_260595134347_rgbf000068-resize_1/000739_2014-06-08_18-45-58_260595134347_rgbf000068-resize_1-target.png,1000,3.534,5,3198,999,feet,jsons/v1_VE1000_randls_62_rotated.json,717882,988153,58,Woman
124,116060,DepthScenes,duration_manipulation_targetAtFixation,jsons/v1_VE1000_randls_62_rotated.json,http://54.235.29.9/FacialAge/BNav_EC2/DepthDuration/v2_depth_duration_MTurk/v2_DepthDuration_HTML.html#37,37,1366,625,1366,768,8-22-2022,7-58-20,125,depth_duration_stimuli/003048_2014-06-15_13-49-43_094959634447_rgbf000150-resize_1/003048_2014-06-15_13-49-43_094959634447_rgbf000150-resize_1-target.png,1000,4.0035,7,3806,1006,feet,jsons/v1_VE1000_randls_62_rotated.json,717882,988153,58,Woman
125,116060,DepthScenes,duration_manipulation_targetAtFixation,jsons/v1_VE1000_randls_62_rotated.json,http://54.235.29.9/FacialAge/BNav_EC2/DepthDuration/v2_depth_duration_MTurk/v2_DepthDuration_HTML.html#37,37,1366,625,1366,768,8-22-2022,7-58-20,126,depth_duration_stimuli/002043_2014-06-24_20-29-38_260595134347_rgbf000039-resize_4/002043_2014-06-24_20-29-38_260595134347_rgbf000039-resize_4-target.png,1000,2.8435,4,3863,994,feet,jsons/v1_VE1000_randls_62_rotated.json,717882,988153,58,Woman
126,116060,DepthScenes,duration_manipulation_targetAtFixation,jsons/v1_VE1000_randls_62_rotated.json,http://54.235.29.9/FacialAge/BNav_EC2/DepthDuration/v2_depth_duration_MTurk/v2_DepthDuration_HTML.html#37,37,1366,625,1366,768,8-22-2022,7-58-20,127,depth_duration_stimuli/001094_2014-06-15_17-36-00_260595134347_rgbf000205-resize_0/001094_2014-06-15_17-36-00_260595134347_rgbf000205-resize_0-target.png,1000,4.2175,5,3878,1013,feet,jsons/v1_VE1000_randls_62_rotated.json,717882,988153,58,Woman
127,116060,DepthScenes,duration_manipulation_targetAtFixation,jsons/v1_VE1000_randls_62_rotated.json,http://54.235.29.9/FacialAge/BNav_EC2/DepthDuration/v2_depth_duration_MTurk/v2_DepthDuration_HTML.html#37,37,1366,625,1366,768,8-22-2022,7-58-20,128,depth_duration_stimuli/000692_2014-06-08_13-09-42_260595134347_rgbf000199-resize_2/000692_2014-06-08_13-09-42_260595134347_rgbf000199-resize_2-target.png,1000,3.661,6,4360,1004,feet,jsons/v1_VE1000_randls_62_rotated.json,717882,988153,58,Woman
128,116060,DepthScenes,duration_manipulation_targetAtFixation,jsons/v1_VE1000_randls_62_rotated.json,http://54.235.29.9/FacialAge/BNav_EC2/DepthDuration/v2_depth_duration_MTurk/v2_DepthDuration_HTML.html#37,37,1366,625,1366,768,8-22-2022,7-58-20,129,depth_duration_stimuli/001100_2014-06-15_17-46-26_260595134347_rgbf000225-resize_2/001100_2014-06-15_17-46-26_260595134347_rgbf000225-resize_2-target.png,1000,2.24,2,3368,988,feet,jsons/v1_VE1000_randls_62_rotated.json,717882,988153,58,Woman
129,116060,DepthScenes,duration_manipulation_targetAtFixation,jsons/v1_VE1000_randls_62_rotated.json,http://54.235.29.9/FacialAge/BNav_EC2/DepthDuration/v2_depth_duration_MTurk/v2_DepthDuration_HTML.html#37,37,1366,625,1366,768,8-22-2022,7-58-20,130,depth_duration_stimuli/002784_2014-06-22_19-26-30_094959634447_rgbf000083-resize_3/002784_2014-06-22_19-26-30_094959634447_rgbf000083-resize_3-target.png,1000,1.8046666666667,2,3411,999,feet,jsons/v1_VE1000_randls_62_rotated.json,717882,988153,58,Woman
130,116060,DepthScenes,duration_manipulation_targetAtFixation,jsons/v1_VE1000_randls_62_rotated.json,http://54.235.29.9/FacialAge/BNav_EC2/DepthDuration/v2_depth_duration_MTurk/v2_DepthDuration_HTML.html#37,37,1366,625,1366,768,8-22-2022,7-58-20,131,depth_duration_stimuli/002467_2014-06-28_20-38-07_260595134347_rgbf000026-resize_2/002467_2014-06-28_20-38-07_260595134347_rgbf000026-resize_2-target.png,1000,4.742,4,3393,1002,feet,jsons/v1_VE1000_randls_62_rotated.json,717882,988153,58,Woman
131,116060,DepthScenes,duration_manipulation_targetAtFixation,jsons/v1_VE1000_randls_62_rotated.json,http://54.235.29.9/FacialAge/BNav_EC2/DepthDuration/v2_depth_duration_MTurk/v2_DepthDuration_HTML.html#37,37,1366,625,1366,768,8-22-2022,7-58-20,132,depth_duration_stimuli/002570_2014-06-24_13-59-54_094959634447_rgbf000059-resize_0/002570_2014-06-24_13-59-54_094959634447_rgbf000059-resize_0-target.png,1000,4.037,4,3628,996,feet,jsons/v1_VE1000_randls_62_rotated.json,717882,988153,58,Woman
132,116060,DepthScenes,duration_manipulation_targetAtFixation,jsons/v1_VE1000_randls_62_rotated.json,http://54.235.29.9/FacialAge/BNav_EC2/DepthDuration/v2_depth_duration_MTurk/v2_DepthDuration_HTML.html#37,37,1366,625,1366,768,8-22-2022,7-58-20,133,depth_duration_stimuli/001032_2014-06-08_13-23-17_260595134347_rgbf000021-resize_3/001032_2014-06-08_13-23-17_260595134347_rgbf000021-resize_3-target.png,1000,3.2725,3,3734,999,feet,jsons/v1_VE1000_randls_62_rotated.json,717882,988153,58,Woman
133,116060,DepthScenes,duration_manipulation_targetAtFixation,jsons/v1_VE1000_randls_62_rotated.json,http://54.235.29.9/FacialAge/BNav_EC2/DepthDuration/v2_depth_duration_MTurk/v2_DepthDuration_HTML.html#37,37,1366,625,1366,768,8-22-2022,7-58-20,134,depth_duration_stimuli/001059_2014-06-08_21-53-27_260595134347_rgbf000061-resize_4/001059_2014-06-08_21-53-27_260595134347_rgbf000061-resize_4-target.png,1000,2.4185,4,4010,1006,feet,jsons/v1_VE1000_randls_62_rotated.json,717882,988153,58,Woman
134,116060,DepthScenes,duration_manipulation_targetAtFixation,jsons/v1_VE1000_randls_62_rotated.json,http://54.235.29.9/FacialAge/BNav_EC2/DepthDuration/v2_depth_duration_MTurk/v2_DepthDuration_HTML.html#37,37,1366,625,1366,768,8-22-2022,7-58-20,135,depth_duration_stimuli/000375_2014-06-08_11-17-29_260595134347_rgbf000133-resize_2/000375_2014-06-08_11-17-29_260595134347_rgbf000133-resize-original.jpg,1000,4.718,0,3986,1005,feet,jsons/v1_VE1000_randls_62_rotated.json,717882,988153,58,Woman
135,116060,DepthScenes,duration_manipulation_targetAtFixation,jsons/v1_VE1000_randls_62_rotated.json,http://54.235.29.9/FacialAge/BNav_EC2/DepthDuration/v2_depth_duration_MTurk/v2_DepthDuration_HTML.html#37,37,1366,625,1366,768,8-22-2022,7-58-20,136,depth_duration_stimuli/000635_2014-06-08_16-38-42_260595134347_rgbf000106-resize_1/000635_2014-06-08_16-38-42_260595134347_rgbf000106-resize_1-target.png,1000,2.074,4,4128,995,feet,jsons/v1_VE1000_randls_62_rotated.json,717882,988153,58,Woman
136,116060,DepthScenes,duration_manipulation_targetAtFixation,jsons/v1_VE1000_randls_62_rotated.json,http://54.235.29.9/FacialAge/BNav_EC2/DepthDuration/v2_depth_duration_MTurk/v2_DepthDuration_HTML.html#37,37,1366,625,1366,768,8-22-2022,7-58-20,137,depth_duration_stimuli/002279_2014-06-28_18-55-32_260595134347_rgbf000040-resize_5/002279_2014-06-28_18-55-32_260595134347_rgbf000040-resize_5-target.png,1000,1.5043333333333,2,4399,998,feet,jsons/v1_VE1000_randls_62_rotated.json,717882,988153,58,Woman
137,116060,DepthScenes,duration_manipulation_targetAtFixation,jsons/v1_VE1000_randls_62_rotated.json,http://54.235.29.9/FacialAge/BNav_EC2/DepthDuration/v2_depth_duration_MTurk/v2_DepthDuration_HTML.html#37,37,1366,625,1366,768,8-22-2022,7-58-20,138,depth_duration_stimuli/001235_2014-06-17_16-37-36_260595134347_rgbf000084-resize_4/001235_2014-06-17_16-37-36_260595134347_rgbf000084-resize_4-target.png,1000,3.6605,3,3429,1010,feet,jsons/v1_VE1000_randls_62_rotated.json,717882,988153,58,Woman
138,116060,DepthScenes,duration_manipulation_targetAtFixation,jsons/v1_VE1000_randls_62_rotated.json,http://54.235.29.9/FacialAge/BNav_EC2/DepthDuration/v2_depth_duration_MTurk/v2_DepthDuration_HTML.html#37,37,1366,625,1366,768,8-22-2022,7-58-20,139,depth_duration_stimuli/000788_2014-06-08_22-34-36_260595134347_rgbf000131-resize_1/000788_2014-06-08_22-34-36_260595134347_rgbf000131-resize_1-target.png,1000,3.359,2,3847,989,feet,jsons/v1_VE1000_randls_62_rotated.json,717882,988153,58,Woman
139,116060,DepthScenes,duration_manipulation_targetAtFixation,jsons/v1_VE1000_randls_62_rotated.json,http://54.235.29.9/FacialAge/BNav_EC2/DepthDuration/v2_depth_duration_MTurk/v2_DepthDuration_HTML.html#37,37,1366,625,1366,768,8-22-2022,7-58-20,140,depth_duration_stimuli/002750_2014-06-22_19-08-03_094959634447_rgbf000094-resize_4/002750_2014-06-22_19-08-03_094959634447_rgbf000094-resize_4-target.png,1000,2.354,3,3593,1002,feet,jsons/v1_VE1000_randls_62_rotated.json,717882,988153,58,Woman
140,116060,DepthScenes,duration_manipulation_targetAtFixation,jsons/v1_VE1000_randls_62_rotated.json,http://54.235.29.9/FacialAge/BNav_EC2/DepthDuration/v2_depth_duration_MTurk/v2_DepthDuration_HTML.html#37,37,1366,625,1366,768,8-22-2022,7-58-20,141,depth_duration_stimuli/002549_2014-06-24_13-41-39_094959634447_rgbf000022-resize_3/002549_2014-06-24_13-41-39_094959634447_rgbf000022-resize_3-target.png,1000,1.476,2,3540,986,feet,jsons/v1_VE1000_randls_62_rotated.json,717882,988153,58,Woman
141,116060,DepthScenes,duration_manipulation_targetAtFixation,jsons/v1_VE1000_randls_62_rotated.json,http://54.235.29.9/FacialAge/BNav_EC2/DepthDuration/v2_depth_duration_MTurk/v2_DepthDuration_HTML.html#37,37,1366,625,1366,768,8-22-2022,7-58-20,142,depth_duration_stimuli/000709_2014-06-08_13-51-55_260595134347_rgbf000068-resize_3/000709_2014-06-08_13-51-55_260595134347_rgbf000068-resize_3-target.png,1000,1.8030000000000002,4,3592,1002,feet,jsons/v1_VE1000_randls_62_rotated.json,717882,988153,58,Woman
142,116060,DepthScenes,duration_manipulation_targetAtFixation,jsons/v1_VE1000_randls_62_rotated.json,http://54.235.29.9/FacialAge/BNav_EC2/DepthDuration/v2_depth_duration_MTurk/v2_DepthDuration_HTML.html#37,37,1366,625,1366,768,8-22-2022,7-58-20,143,depth_duration_stimuli/002057_2014-06-24_21-00-13_260595134347_rgbf000120-resize_1/002057_2014-06-24_21-00-13_260595134347_rgbf000120-resize_1-target.png,1000,2.967,4,4807,1008,feet,jsons/v1_VE1000_randls_62_rotated.json,717882,988153,58,Woman
143,116060,DepthScenes,duration_manipulation_targetAtFixation,jsons/v1_VE1000_randls_62_rotated.json,http://54.235.29.9/FacialAge/BNav_EC2/DepthDuration/v2_depth_duration_MTurk/v2_DepthDuration_HTML.html#37,37,1366,625,1366,768,8-22-2022,7-58-20,144,depth_duration_stimuli/000742_2014-06-08_18-48-09_260595134347_rgbf000164-resize_4/000742_2014-06-08_18-48-09_260595134347_rgbf000164-resize_4-target.png,1000,4.632,6,4482,1003,feet,jsons/v1_VE1000_randls_62_rotated.json,717882,988153,58,Woman
144,116060,DepthScenes,duration_manipulation_targetAtFixation,jsons/v1_VE1000_randls_62_rotated.json,http://54.235.29.9/FacialAge/BNav_EC2/DepthDuration/v2_depth_duration_MTurk/v2_DepthDuration_HTML.html#37,37,1366,625,1366,768,8-22-2022,7-58-20,145,depth_duration_stimuli/001066_2014-06-08_22-03-20_260595134347_rgbf000066-resize_4/001066_2014-06-08_22-03-20_260595134347_rgbf000066-resize_4-target.png,1000,4.2330000000000005,6,4066,1002,feet,jsons/v1_VE1000_randls_62_rotated.json,717882,988153,58,Woman
145,116060,DepthScenes,duration_manipulation_targetAtFixation,jsons/v1_VE1000_randls_62_rotated.json,http://54.235.29.9/FacialAge/BNav_EC2/DepthDuration/v2_depth_duration_MTurk/v2_DepthDuration_HTML.html#37,37,1366,625,1366,768,8-22-2022,7-58-20,146,depth_duration_stimuli/003129_2014-05-12_10-48-10_094959634447_rgbf000100-resize_0/003129_2014-05-12_10-48-10_094959634447_rgbf000100-resize_0-target.png,1000,4.9305,6,3331,993,feet,jsons/v1_VE1000_randls_62_rotated.json,717882,988153,58,Woman
146,116060,DepthScenes,duration_manipulation_targetAtFixation,jsons/v1_VE1000_randls_62_rotated.json,http://54.235.29.9/FacialAge/BNav_EC2/DepthDuration/v2_depth_duration_MTurk/v2_DepthDuration_HTML.html#37,37,1366,625,1366,768,8-22-2022,7-58-20,147,depth_duration_stimuli/000414_2014-06-04_19-49-13_260595134347_rgbf000044-resize_0/000414_2014-06-04_19-49-13_260595134347_rgbf000044-resize_0-target.png,1000,4.329,9,4130,1011,feet,jsons/v1_VE1000_randls_62_rotated.json,717882,988153,58,Woman
147,116060,DepthScenes,duration_manipulation_targetAtFixation,jsons/v1_VE1000_randls_62_rotated.json,http://54.235.29.9/FacialAge/BNav_EC2/DepthDuration/v2_depth_duration_MTurk/v2_DepthDuration_HTML.html#37,37,1366,625,1366,768,8-22-2022,7-58-20,148,depth_duration_stimuli/002103_2014-06-25_20-00-40_260595134347_rgbf000049-resize_0/002103_2014-06-25_20-00-40_260595134347_rgbf000049-resize_0-target.png,1000,4.105,6,5412,1006,feet,jsons/v1_VE1000_randls_62_rotated.json,717882,988153,58,Woman
148,116060,DepthScenes,duration_manipulation_targetAtFixation,jsons/v1_VE1000_randls_62_rotated.json,http://54.235.29.9/FacialAge/BNav_EC2/DepthDuration/v2_depth_duration_MTurk/v2_DepthDuration_HTML.html#37,37,1366,625,1366,768,8-22-2022,7-58-20,149,depth_duration_stimuli/002039_2014-06-24_20-22-38_260595134347_rgbf000084-resize_1/002039_2014-06-24_20-22-38_260595134347_rgbf000084-resize_1-target.png,1000,4.408,9,4107,995,feet,jsons/v1_VE1000_randls_62_rotated.json,717882,988153,58,Woman
149,116060,DepthScenes,duration_manipulation_targetAtFixation,jsons/v1_VE1000_randls_62_rotated.json,http://54.235.29.9/FacialAge/BNav_EC2/DepthDuration/v2_depth_duration_MTurk/v2_DepthDuration_HTML.html#37,37,1366,625,1366,768,8-22-2022,7-58-20,150,depth_duration_stimuli/001828_2014-06-26_21-40-03_260595134347_rgbf000024-resize_0/001828_2014-06-26_21-40-03_260595134347_rgbf000024-resize_0-target.png,1000,4.8260000000000005,3,4423,1008,feet,jsons/v1_VE1000_randls_62_rotated.json,717882,988153,58,Woman
150,116060,DepthScenes,duration_manipulation_targetAtFixation,jsons/v1_VE1000_randls_62_rotated.json,http://54.235.29.9/FacialAge/BNav_EC2/DepthDuration/v2_depth_duration_MTurk/v2_DepthDuration_HTML.html#37,37,1366,625,1366,768,8-22-2022,7-58-20,151,depth_duration_stimuli/000009_2014-05-26_14-32-05_260595134347_rgbf000034-resize_3/000009_2014-05-26_14-32-05_260595134347_rgbf000034-resize_3-target.png,1000,3.8715,9,3591,1005,feet,jsons/v1_VE1000_randls_62_rotated.json,717882,988153,58,Woman
151,116060,DepthScenes,duration_manipulation_targetAtFixation,jsons/v1_VE1000_randls_62_rotated.json,http://54.235.29.9/FacialAge/BNav_EC2/DepthDuration/v2_depth_duration_MTurk/v2_DepthDuration_HTML.html#37,37,1366,625,1366,768,8-22-2022,7-58-20,152,depth_duration_stimuli/000569_2014-06-09_22-51-47_260595134347_rgbf000141-resize_3/000569_2014-06-09_22-51-47_260595134347_rgbf000141-resize-original.jpg,1000,4.512,0,4173,1008,feet,jsons/v1_VE1000_randls_62_rotated.json,717882,988153,58,Woman
152,116060,DepthScenes,duration_manipulation_targetAtFixation,jsons/v1_VE1000_randls_62_rotated.json,http://54.235.29.9/FacialAge/BNav_EC2/DepthDuration/v2_depth_duration_MTurk/v2_DepthDuration_HTML.html#37,37,1366,625,1366,768,8-22-2022,7-58-20,153,depth_duration_stimuli/002545_2014-06-24_13-38-53_094959634447_rgbf000080-resize_4/002545_2014-06-24_13-38-53_094959634447_rgbf000080-resize_4-target.png,1000,1.9205,3,3868,999,feet,jsons/v1_VE1000_randls_62_rotated.json,717882,988153,58,Woman
153,116060,DepthScenes,duration_manipulation_targetAtFixation,jsons/v1_VE1000_randls_62_rotated.json,http://54.235.29.9/FacialAge/BNav_EC2/DepthDuration/v2_depth_duration_MTurk/v2_DepthDuration_HTML.html#37,37,1366,625,1366,768,8-22-2022,7-58-20,154,depth_duration_stimuli/001092_2014-06-15_17-34-58_260595134347_rgbf000171-resize_3/001092_2014-06-15_17-34-58_260595134347_rgbf000171-resize_3-target.png,1000,2.6935,3,4086,997,feet,jsons/v1_VE1000_randls_62_rotated.json,717882,988153,58,Woman
154,116060,DepthScenes,duration_manipulation_targetAtFixation,jsons/v1_VE1000_randls_62_rotated.json,http://54.235.29.9/FacialAge/BNav_EC2/DepthDuration/v2_depth_duration_MTurk/v2_DepthDuration_HTML.html#37,37,1366,625,1366,768,8-22-2022,7-58-20,155,depth_duration_stimuli/003423_2014-05-21_10-23-26_094959634447_rgbf002665-resize_2/003423_2014-05-21_10-23-26_094959634447_rgbf002665-resize_2-target.png,1000,3.2575,5,3793,1004,feet,jsons/v1_VE1000_randls_62_rotated.json,717882,988153,58,Woman
155,116060,DepthScenes,duration_manipulation_targetAtFixation,jsons/v1_VE1000_randls_62_rotated.json,http://54.235.29.9/FacialAge/BNav_EC2/DepthDuration/v2_depth_duration_MTurk/v2_DepthDuration_HTML.html#37,37,1366,625,1366,768,8-22-2022,7-58-20,156,depth_duration_stimuli/002905_2014-06-03_18-04-43_094959634447_rgbf000151-resize_2/002905_2014-06-03_18-04-43_094959634447_rgbf000151-resize_2-target.png,1000,2.0295,3,3487,1006,feet,jsons/v1_VE1000_randls_62_rotated.json,717882,988153,58,Woman
156,116060,DepthScenes,duration_manipulation_targetAtFixation,jsons/v1_VE1000_randls_62_rotated.json,http://54.235.29.9/FacialAge/BNav_EC2/DepthDuration/v2_depth_duration_MTurk/v2_DepthDuration_HTML.html#37,37,1366,625,1366,768,8-22-2022,7-58-20,157,depth_duration_stimuli/002568_2014-06-24_13-59-21_094959634447_rgbf000062-resize_4/002568_2014-06-24_13-59-21_094959634447_rgbf000062-resize_4-target.png,1000,3.015,4,3645,1014,feet,jsons/v1_VE1000_randls_62_rotated.json,717882,988153,58,Woman
157,116060,DepthScenes,duration_manipulation_targetAtFixation,jsons/v1_VE1000_randls_62_rotated.json,http://54.235.29.9/FacialAge/BNav_EC2/DepthDuration/v2_depth_duration_MTurk/v2_DepthDuration_HTML.html#37,37,1366,625,1366,768,8-22-2022,7-58-20,158,depth_duration_stimuli/003492_2014-05-21_15-50-55_094959634447_rgbf000828-resize_1/003492_2014-05-21_15-50-55_094959634447_rgbf000828-resize_1-target.png,1000,4.06875,8,3509,994,feet,jsons/v1_VE1000_randls_62_rotated.json,717882,988153,58,Woman
158,116060,DepthScenes,duration_manipulation_targetAtFixation,jsons/v1_VE1000_randls_62_rotated.json,http://54.235.29.9/FacialAge/BNav_EC2/DepthDuration/v2_depth_duration_MTurk/v2_DepthDuration_HTML.html#37,37,1366,625,1366,768,8-22-2022,7-58-20,159,depth_duration_stimuli/003081_2014-06-15_15-19-16_094959634447_rgbf000150-resize_1/003081_2014-06-15_15-19-16_094959634447_rgbf000150-resize_1-target.png,1000,3.9125,5,4106,1001,feet,jsons/v1_VE1000_randls_62_rotated.json,717882,988153,58,Woman
159,116060,DepthScenes,duration_manipulation_targetAtFixation,jsons/v1_VE1000_randls_62_rotated.json,http://54.235.29.9/FacialAge/BNav_EC2/DepthDuration/v2_depth_duration_MTurk/v2_DepthDuration_HTML.html#37,37,1366,625,1366,768,8-22-2022,7-58-20,160,depth_duration_stimuli/001417_2014-06-19_16-25-36_260595134347_rgbf000115-resize_5/001417_2014-06-19_16-25-36_260595134347_rgbf000115-resize_5-target.png,1000,4.6255,6,3904,992,feet,jsons/v1_VE1000_randls_62_rotated.json,717882,988153,58,Woman
160,116060,DepthScenes,duration_manipulation_targetAtFixation,jsons/v1_VE1000_randls_62_rotated.json,http://54.235.29.9/FacialAge/BNav_EC2/DepthDuration/v2_depth_duration_MTurk/v2_DepthDuration_HTML.html#37,37,1366,625,1366,768,8-22-2022,7-58-20,161,depth_duration_stimuli/002949_2014-06-26_15-57-42_094959634447_rgbf000079-resize_1/002949_2014-06-26_15-57-42_094959634447_rgbf000079-resize_1-target.png,1000,1.8915,3,4245,1008,feet,jsons/v1_VE1000_randls_62_rotated.json,717882,988153,58,Woman
161,116060,DepthScenes,duration_manipulation_targetAtFixation,jsons/v1_VE1000_randls_62_rotated.json,http://54.235.29.9/FacialAge/BNav_EC2/DepthDuration/v2_depth_duration_MTurk/v2_DepthDuration_HTML.html#37,37,1366,625,1366,768,8-22-2022,7-58-20,162,depth_duration_stimuli/000522_2014-06-08_13-35-06_260595134347_rgbf000244-resize_1/000522_2014-06-08_13-35-06_260595134347_rgbf000244-resize_1-target.png,1000,2.3715,1,2781,997,feet,jsons/v1_VE1000_randls_62_rotated.json,717882,988153,58,Woman
162,116060,DepthScenes,duration_manipulation_targetAtFixation,jsons/v1_VE1000_randls_62_rotated.json,http://54.235.29.9/FacialAge/BNav_EC2/DepthDuration/v2_depth_duration_MTurk/v2_DepthDuration_HTML.html#37,37,1366,625,1366,768,8-22-2022,7-58-20,163,depth_duration_stimuli/000103_2014-05-14_22-01-17_260595134347_rgbf000152-resize_5/000103_2014-05-14_22-01-17_260595134347_rgbf000152-resize_5-target.png,1000,1.993,2,2935,996,feet,jsons/v1_VE1000_randls_62_rotated.json,717882,988153,58,Woman
163,116060,DepthScenes,duration_manipulation_targetAtFixation,jsons/v1_VE1000_randls_62_rotated.json,http://54.235.29.9/FacialAge/BNav_EC2/DepthDuration/v2_depth_duration_MTurk/v2_DepthDuration_HTML.html#37,37,1366,625,1366,768,8-22-2022,7-58-20,164,depth_duration_stimuli/001555_2014-06-20_17-12-10_260595134347_rgbf000065-resize_4/001555_2014-06-20_17-12-10_260595134347_rgbf000065-resize_4-target.png,1000,1.633,1,3914,1009,feet,jsons/v1_VE1000_randls_62_rotated.json,717882,988153,58,Woman
