,subjID,experimentName,versionName,sequenceName,url,selected_row,windowWidth,windowHeight,screenWidth,screenHeight,startDate,startTime,trial,stimulus,duration,actual_depth,depth_estimate,trial_RT,log_sceneDuration,unitSelection,seq_filepath,experimentTime,totalTime,age,gender
0,116870,DepthScenes,duration_manipulation_targetAtFixation,jsons/VE125_randls_70_rotated.json,http://54.235.29.9/FacialAge/BNav_EC2/DepthDuration/v2_depth_duration_MTurk/v2_DepthDuration_HTML.html#125,125,1366,625,1366,768,8-30-2022,9-17-34,1,depth_duration_stimuli/002953_2014-06-08_17-32-18_094959634447_rgbf000059-resize_5/002953_2014-06-08_17-32-18_094959634447_rgbf000059-resize_5-target.png,125,1.551,4,4068,125,feet,jsons/VE125_randls_70_rotated.json,834418,957643,29,Man
1,116870,DepthScenes,duration_manipulation_targetAtFixation,jsons/VE125_randls_70_rotated.json,http://54.235.29.9/FacialAge/BNav_EC2/DepthDuration/v2_depth_duration_MTurk/v2_DepthDuration_HTML.html#125,125,1366,625,1366,768,8-30-2022,9-17-34,2,depth_duration_stimuli/000878_2014-06-08_22-52-45_260595134347_rgbf000045-resize_2/000878_2014-06-08_22-52-45_260595134347_rgbf000045-resize_2-target.png,125,2.092,4,3018,135,feet,jsons/VE125_randls_70_rotated.json,834418,957643,29,Man
2,116870,DepthScenes,duration_manipulation_targetAtFixation,jsons/VE125_randls_70_rotated.json,http://54.235.29.9/FacialAge/BNav_EC2/DepthDuration/v2_depth_duration_MTurk/v2_DepthDuration_HTML.html#125,125,1366,625,1366,768,8-30-2022,9-17-34,3,depth_duration_stimuli/001100_2014-06-15_17-46-26_260595134347_rgbf000225-resize_2/001100_2014-06-15_17-46-26_260595134347_rgbf000225-resize_2-target.png,125,2.24,3,3658,124,feet,jsons/VE125_randls_70_rotated.json,834418,957643,29,Man
3,116870,DepthScenes,duration_manipulation_targetAtFixation,jsons/VE125_randls_70_rotated.json,http://54.235.29.9/FacialAge/BNav_EC2/DepthDuration/v2_depth_duration_MTurk/v2_DepthDuration_HTML.html#125,125,1366,625,1366,768,8-30-2022,9-17-34,4,depth_duration_stimuli/002784_2014-06-22_19-26-30_094959634447_rgbf000083-resize_3/002784_2014-06-22_19-26-30_094959634447_rgbf000083-resize_3-target.png,125,1.8046666666667,4,5376,112,feet,jsons/VE125_randls_70_rotated.json,834418,957643,29,Man
4,116870,DepthScenes,duration_manipulation_targetAtFixation,jsons/VE125_randls_70_rotated.json,http://54.235.29.9/FacialAge/BNav_EC2/DepthDuration/v2_depth_duration_MTurk/v2_DepthDuration_HTML.html#125,125,1366,625,1366,768,8-30-2022,9-17-34,5,depth_duration_stimuli/002444_2014-06-28_20-32-08_260595134347_rgbf000027-resize_0/002444_2014-06-28_20-32-08_260595134347_rgbf000027-resize_0-target.png,125,4.388999999999999,5,4231,124,feet,jsons/VE125_randls_70_rotated.json,834418,957643,29,Man
5,116870,DepthScenes,duration_manipulation_targetAtFixation,jsons/VE125_randls_70_rotated.json,http://54.235.29.9/FacialAge/BNav_EC2/DepthDuration/v2_depth_duration_MTurk/v2_DepthDuration_HTML.html#125,125,1366,625,1366,768,8-30-2022,9-17-34,6,depth_duration_stimuli/000436_2014-06-09_22-25-11_260595134347_rgbf000137-resize_1/000436_2014-06-09_22-25-11_260595134347_rgbf000137-resize_1-target.png,125,4.0705,5,3141,122,feet,jsons/VE125_randls_70_rotated.json,834418,957643,29,Man
6,116870,DepthScenes,duration_manipulation_targetAtFixation,jsons/VE125_randls_70_rotated.json,http://54.235.29.9/FacialAge/BNav_EC2/DepthDuration/v2_depth_duration_MTurk/v2_DepthDuration_HTML.html#125,125,1366,625,1366,768,8-30-2022,9-17-34,7,depth_duration_stimuli/001094_2014-06-15_17-36-00_260595134347_rgbf000205-resize_0/001094_2014-06-15_17-36-00_260595134347_rgbf000205-resize_0-target.png,125,4.2175,5,3301,123,feet,jsons/VE125_randls_70_rotated.json,834418,957643,29,Man
7,116870,DepthScenes,duration_manipulation_targetAtFixation,jsons/VE125_randls_70_rotated.json,http://54.235.29.9/FacialAge/BNav_EC2/DepthDuration/v2_depth_duration_MTurk/v2_DepthDuration_HTML.html#125,125,1366,625,1366,768,8-30-2022,9-17-34,8,depth_duration_stimuli/000692_2014-06-08_13-09-42_260595134347_rgbf000199-resize_2/000692_2014-06-08_13-09-42_260595134347_rgbf000199-resize_2-target.png,125,3.661,6,3476,123,feet,jsons/VE125_randls_70_rotated.json,834418,957643,29,Man
8,116870,DepthScenes,duration_manipulation_targetAtFixation,jsons/VE125_randls_70_rotated.json,http://54.235.29.9/FacialAge/BNav_EC2/DepthDuration/v2_depth_duration_MTurk/v2_DepthDuration_HTML.html#125,125,1366,625,1366,768,8-30-2022,9-17-34,9,depth_duration_stimuli/000103_2014-05-14_22-01-17_260595134347_rgbf000152-resize_5/000103_2014-05-14_22-01-17_260595134347_rgbf000152-resize_5-target.png,125,1.993,4,2640,124,feet,jsons/VE125_randls_70_rotated.json,834418,957643,29,Man
9,116870,DepthScenes,duration_manipulation_targetAtFixation,jsons/VE125_randls_70_rotated.json,http://54.235.29.9/FacialAge/BNav_EC2/DepthDuration/v2_depth_duration_MTurk/v2_DepthDuration_HTML.html#125,125,1366,625,1366,768,8-30-2022,9-17-34,10,depth_duration_stimuli/001555_2014-06-20_17-12-10_260595134347_rgbf000065-resize_4/001555_2014-06-20_17-12-10_260595134347_rgbf000065-resize_4-target.png,125,1.633,4,3297,140,feet,jsons/VE125_randls_70_rotated.json,834418,957643,29,Man
10,116870,DepthScenes,duration_manipulation_targetAtFixation,jsons/VE125_randls_70_rotated.json,http://54.235.29.9/FacialAge/BNav_EC2/DepthDuration/v2_depth_duration_MTurk/v2_DepthDuration_HTML.html#125,125,1366,625,1366,768,8-30-2022,9-17-34,11,depth_duration_stimuli/000943_2014-06-09_19-31-07_260595134347_rgbf000128-resize_1/000943_2014-06-09_19-31-07_260595134347_rgbf000128-resize_1-target.png,125,1.9765,4,3611,123,feet,jsons/VE125_randls_70_rotated.json,834418,957643,29,Man
11,116870,DepthScenes,duration_manipulation_targetAtFixation,jsons/VE125_randls_70_rotated.json,http://54.235.29.9/FacialAge/BNav_EC2/DepthDuration/v2_depth_duration_MTurk/v2_DepthDuration_HTML.html#125,125,1366,625,1366,768,8-30-2022,9-17-34,12,depth_duration_stimuli/003070_2014-06-15_14-58-27_094959634447_rgbf000150-resize_3/003070_2014-06-15_14-58-27_094959634447_rgbf000150-resize_3-target.png,125,2.9415,4,135094,122,feet,jsons/VE125_randls_70_rotated.json,834418,957643,29,Man
12,116870,DepthScenes,duration_manipulation_targetAtFixation,jsons/VE125_randls_70_rotated.json,http://54.235.29.9/FacialAge/BNav_EC2/DepthDuration/v2_depth_duration_MTurk/v2_DepthDuration_HTML.html#125,125,1366,625,1366,768,8-30-2022,9-17-34,13,depth_duration_stimuli/000137_2014-05-20_17-04-49_260595134347_rgbf000120-resize_1/000137_2014-05-20_17-04-49_260595134347_rgbf000120-resize_1-target.png,125,3.786,4,6877,123,feet,jsons/VE125_randls_70_rotated.json,834418,957643,29,Man
13,116870,DepthScenes,duration_manipulation_targetAtFixation,jsons/VE125_randls_70_rotated.json,http://54.235.29.9/FacialAge/BNav_EC2/DepthDuration/v2_depth_duration_MTurk/v2_DepthDuration_HTML.html#125,125,1366,625,1366,768,8-30-2022,9-17-34,14,depth_duration_stimuli/000736_2014-06-08_18-24-15_260595134347_rgbf000206-resize_3/000736_2014-06-08_18-24-15_260595134347_rgbf000206-resize_3-target.png,125,3.515,4,5337,125,feet,jsons/VE125_randls_70_rotated.json,834418,957643,29,Man
14,116870,DepthScenes,duration_manipulation_targetAtFixation,jsons/VE125_randls_70_rotated.json,http://54.235.29.9/FacialAge/BNav_EC2/DepthDuration/v2_depth_duration_MTurk/v2_DepthDuration_HTML.html#125,125,1366,625,1366,768,8-30-2022,9-17-34,15,depth_duration_stimuli/001214_2014-06-17_16-13-55_260595134347_rgbf000111-resize_0/001214_2014-06-17_16-13-55_260595134347_rgbf000111-resize_0-target.png,125,2.6505,4,3914,124,feet,jsons/VE125_randls_70_rotated.json,834418,957643,29,Man
15,116870,DepthScenes,duration_manipulation_targetAtFixation,jsons/VE125_randls_70_rotated.json,http://54.235.29.9/FacialAge/BNav_EC2/DepthDuration/v2_depth_duration_MTurk/v2_DepthDuration_HTML.html#125,125,1366,625,1366,768,8-30-2022,9-17-34,16,depth_duration_stimuli/000810_2014-06-08_17-20-01_260595134347_rgbf000105-resize_0/000810_2014-06-08_17-20-01_260595134347_rgbf000105-resize_0-target.png,125,1.4865,5,3388,123,feet,jsons/VE125_randls_70_rotated.json,834418,957643,29,Man
16,116870,DepthScenes,duration_manipulation_targetAtFixation,jsons/VE125_randls_70_rotated.json,http://54.235.29.9/FacialAge/BNav_EC2/DepthDuration/v2_depth_duration_MTurk/v2_DepthDuration_HTML.html#125,125,1366,625,1366,768,8-30-2022,9-17-34,17,depth_duration_stimuli/000854_2014-06-09_19-43-13_260595134347_rgbf000066-resize_0/000854_2014-06-09_19-43-13_260595134347_rgbf000066-resize_0-target.png,125,3.068,5,2739,126,feet,jsons/VE125_randls_70_rotated.json,834418,957643,29,Man
17,116870,DepthScenes,duration_manipulation_targetAtFixation,jsons/VE125_randls_70_rotated.json,http://54.235.29.9/FacialAge/BNav_EC2/DepthDuration/v2_depth_duration_MTurk/v2_DepthDuration_HTML.html#125,125,1366,625,1366,768,8-30-2022,9-17-34,18,depth_duration_stimuli/000758_2014-06-08_22-05-08_260595134347_rgbf000085-resize_0/000758_2014-06-08_22-05-08_260595134347_rgbf000085-resize_0-target.png,125,3.3810000000000002,4,2971,123,feet,jsons/VE125_randls_70_rotated.json,834418,957643,29,Man
18,116870,DepthScenes,duration_manipulation_targetAtFixation,jsons/VE125_randls_70_rotated.json,http://54.235.29.9/FacialAge/BNav_EC2/DepthDuration/v2_depth_duration_MTurk/v2_DepthDuration_HTML.html#125,125,1366,625,1366,768,8-30-2022,9-17-34,19,depth_duration_stimuli/001498_2014-06-19_17-45-14_260595134347_rgbf000129-resize_4/001498_2014-06-19_17-45-14_260595134347_rgbf000129-resize-original.jpg,125,1.4075,0,4519,123,feet,jsons/VE125_randls_70_rotated.json,834418,957643,29,Man
19,116870,DepthScenes,duration_manipulation_targetAtFixation,jsons/VE125_randls_70_rotated.json,http://54.235.29.9/FacialAge/BNav_EC2/DepthDuration/v2_depth_duration_MTurk/v2_DepthDuration_HTML.html#125,125,1366,625,1366,768,8-30-2022,9-17-34,20,depth_duration_stimuli/003587_2014-05-23_16-48-02_094959634447_rgbf002384-resize_2/003587_2014-05-23_16-48-02_094959634447_rgbf002384-resize_2-target.png,125,1.357,3,4098,125,feet,jsons/VE125_randls_70_rotated.json,834418,957643,29,Man
20,116870,DepthScenes,duration_manipulation_targetAtFixation,jsons/VE125_randls_70_rotated.json,http://54.235.29.9/FacialAge/BNav_EC2/DepthDuration/v2_depth_duration_MTurk/v2_DepthDuration_HTML.html#125,125,1366,625,1366,768,8-30-2022,9-17-34,21,depth_duration_stimuli/001167_2014-06-17_15-38-07_260595134347_rgbf000108-resize_0/001167_2014-06-17_15-38-07_260595134347_rgbf000108-resize_0-target.png,125,1.8505,4,2925,126,feet,jsons/VE125_randls_70_rotated.json,834418,957643,29,Man
21,116870,DepthScenes,duration_manipulation_targetAtFixation,jsons/VE125_randls_70_rotated.json,http://54.235.29.9/FacialAge/BNav_EC2/DepthDuration/v2_depth_duration_MTurk/v2_DepthDuration_HTML.html#125,125,1366,625,1366,768,8-30-2022,9-17-34,22,depth_duration_stimuli/000549_2014-06-08_22-10-24_260595134347_rgbf000247-resize_3/000549_2014-06-08_22-10-24_260595134347_rgbf000247-resize_3-target.png,125,1.841,3,3080,124,feet,jsons/VE125_randls_70_rotated.json,834418,957643,29,Man
22,116870,DepthScenes,duration_manipulation_targetAtFixation,jsons/VE125_randls_70_rotated.json,http://54.235.29.9/FacialAge/BNav_EC2/DepthDuration/v2_depth_duration_MTurk/v2_DepthDuration_HTML.html#125,125,1366,625,1366,768,8-30-2022,9-17-34,23,depth_duration_stimuli/001055_2014-06-08_18-45-35_260595134347_rgbf000111-resize_4/001055_2014-06-08_18-45-35_260595134347_rgbf000111-resize_4-target.png,125,2.4290000000000003,6,3444,125,feet,jsons/VE125_randls_70_rotated.json,834418,957643,29,Man
23,116870,DepthScenes,duration_manipulation_targetAtFixation,jsons/VE125_randls_70_rotated.json,http://54.235.29.9/FacialAge/BNav_EC2/DepthDuration/v2_depth_duration_MTurk/v2_DepthDuration_HTML.html#125,125,1366,625,1366,768,8-30-2022,9-17-34,24,depth_duration_stimuli/002660_2014-06-13_15-44-18_094959634447_rgbf001878-resize_2/002660_2014-06-13_15-44-18_094959634447_rgbf001878-resize_2-target.png,125,3.576,5,4785,125,feet,jsons/VE125_randls_70_rotated.json,834418,957643,29,Man
24,116870,DepthScenes,duration_manipulation_targetAtFixation,jsons/VE125_randls_70_rotated.json,http://54.235.29.9/FacialAge/BNav_EC2/DepthDuration/v2_depth_duration_MTurk/v2_DepthDuration_HTML.html#125,125,1366,625,1366,768,8-30-2022,9-17-34,25,depth_duration_stimuli/002153_2014-06-25_21-27-18_260595134347_rgbf000038-resize_5/002153_2014-06-25_21-27-18_260595134347_rgbf000038-resize_5-target.png,125,2.505,4,3721,123,feet,jsons/VE125_randls_70_rotated.json,834418,957643,29,Man
25,116870,DepthScenes,duration_manipulation_targetAtFixation,jsons/VE125_randls_70_rotated.json,http://54.235.29.9/FacialAge/BNav_EC2/DepthDuration/v2_depth_duration_MTurk/v2_DepthDuration_HTML.html#125,125,1366,625,1366,768,8-30-2022,9-17-34,26,depth_duration_stimuli/002467_2014-06-28_20-38-07_260595134347_rgbf000026-resize_2/002467_2014-06-28_20-38-07_260595134347_rgbf000026-resize_2-target.png,125,4.742,5,3909,124,feet,jsons/VE125_randls_70_rotated.json,834418,957643,29,Man
26,116870,DepthScenes,duration_manipulation_targetAtFixation,jsons/VE125_randls_70_rotated.json,http://54.235.29.9/FacialAge/BNav_EC2/DepthDuration/v2_depth_duration_MTurk/v2_DepthDuration_HTML.html#125,125,1366,625,1366,768,8-30-2022,9-17-34,27,depth_duration_stimuli/002570_2014-06-24_13-59-54_094959634447_rgbf000059-resize_0/002570_2014-06-24_13-59-54_094959634447_rgbf000059-resize_0-target.png,125,4.037,5,3358,137,feet,jsons/VE125_randls_70_rotated.json,834418,957643,29,Man
27,116870,DepthScenes,duration_manipulation_targetAtFixation,jsons/VE125_randls_70_rotated.json,http://54.235.29.9/FacialAge/BNav_EC2/DepthDuration/v2_depth_duration_MTurk/v2_DepthDuration_HTML.html#125,125,1366,625,1366,768,8-30-2022,9-17-34,28,depth_duration_stimuli/000780_2014-06-08_22-28-29_260595134347_rgbf000126-resize_1/000780_2014-06-08_22-28-29_260595134347_rgbf000126-resize_1-target.png,125,3.3825,5,4047,125,feet,jsons/VE125_randls_70_rotated.json,834418,957643,29,Man
28,116870,DepthScenes,duration_manipulation_targetAtFixation,jsons/VE125_randls_70_rotated.json,http://54.235.29.9/FacialAge/BNav_EC2/DepthDuration/v2_depth_duration_MTurk/v2_DepthDuration_HTML.html#125,125,1366,625,1366,768,8-30-2022,9-17-34,29,depth_duration_stimuli/002445_2014-06-28_20-32-16_260595134347_rgbf000029-resize_4/002445_2014-06-28_20-32-16_260595134347_rgbf000029-resize_4-target.png,125,2.5315,4,3741,125,feet,jsons/VE125_randls_70_rotated.json,834418,957643,29,Man
29,116870,DepthScenes,duration_manipulation_targetAtFixation,jsons/VE125_randls_70_rotated.json,http://54.235.29.9/FacialAge/BNav_EC2/DepthDuration/v2_depth_duration_MTurk/v2_DepthDuration_HTML.html#125,125,1366,625,1366,768,8-30-2022,9-17-34,30,depth_duration_stimuli/002072_2014-06-24_21-48-06_260595134347_rgbf000115-resize_0/002072_2014-06-24_21-48-06_260595134347_rgbf000115-resize-original.jpg,125,4.702,0,3497,125,feet,jsons/VE125_randls_70_rotated.json,834418,957643,29,Man
30,116870,DepthScenes,duration_manipulation_targetAtFixation,jsons/VE125_randls_70_rotated.json,http://54.235.29.9/FacialAge/BNav_EC2/DepthDuration/v2_depth_duration_MTurk/v2_DepthDuration_HTML.html#125,125,1366,625,1366,768,8-30-2022,9-17-34,31,depth_duration_stimuli/002639_2014-06-24_14-51-37_094959634447_rgbf000074-resize_4/002639_2014-06-24_14-51-37_094959634447_rgbf000074-resize_4-target.png,125,4.0375,5,6892,124,feet,jsons/VE125_randls_70_rotated.json,834418,957643,29,Man
31,116870,DepthScenes,duration_manipulation_targetAtFixation,jsons/VE125_randls_70_rotated.json,http://54.235.29.9/FacialAge/BNav_EC2/DepthDuration/v2_depth_duration_MTurk/v2_DepthDuration_HTML.html#125,125,1366,625,1366,768,8-30-2022,9-17-34,32,depth_duration_stimuli/003292_2014-05-14_21-53-49_094959634447_rgbf000100-resize_2/003292_2014-05-14_21-53-49_094959634447_rgbf000100-resize_2-target.png,125,3.4815,5,3834,126,feet,jsons/VE125_randls_70_rotated.json,834418,957643,29,Man
32,116870,DepthScenes,duration_manipulation_targetAtFixation,jsons/VE125_randls_70_rotated.json,http://54.235.29.9/FacialAge/BNav_EC2/DepthDuration/v2_depth_duration_MTurk/v2_DepthDuration_HTML.html#125,125,1366,625,1366,768,8-30-2022,9-17-34,33,depth_duration_stimuli/001032_2014-06-08_13-23-17_260595134347_rgbf000021-resize_3/001032_2014-06-08_13-23-17_260595134347_rgbf000021-resize_3-target.png,125,3.2725,5,3214,133,feet,jsons/VE125_randls_70_rotated.json,834418,957643,29,Man
33,116870,DepthScenes,duration_manipulation_targetAtFixation,jsons/VE125_randls_70_rotated.json,http://54.235.29.9/FacialAge/BNav_EC2/DepthDuration/v2_depth_duration_MTurk/v2_DepthDuration_HTML.html#125,125,1366,625,1366,768,8-30-2022,9-17-34,34,depth_duration_stimuli/001059_2014-06-08_21-53-27_260595134347_rgbf000061-resize_4/001059_2014-06-08_21-53-27_260595134347_rgbf000061-resize_4-target.png,125,2.4185,4,3299,111,feet,jsons/VE125_randls_70_rotated.json,834418,957643,29,Man
34,116870,DepthScenes,duration_manipulation_targetAtFixation,jsons/VE125_randls_70_rotated.json,http://54.235.29.9/FacialAge/BNav_EC2/DepthDuration/v2_depth_duration_MTurk/v2_DepthDuration_HTML.html#125,125,1366,625,1366,768,8-30-2022,9-17-34,35,depth_duration_stimuli/000109_2014-05-14_23-41-52_260595134347_rgbf000035-resize_9/000109_2014-05-14_23-41-52_260595134347_rgbf000035-resize_9-target.png,125,1.3545,0,3278,125,feet,jsons/VE125_randls_70_rotated.json,834418,957643,29,Man
35,116870,DepthScenes,duration_manipulation_targetAtFixation,jsons/VE125_randls_70_rotated.json,http://54.235.29.9/FacialAge/BNav_EC2/DepthDuration/v2_depth_duration_MTurk/v2_DepthDuration_HTML.html#125,125,1366,625,1366,768,8-30-2022,9-17-34,36,depth_duration_stimuli/000470_2014-06-09_19-42-40_260595134347_rgbf000094-resize_1/000470_2014-06-09_19-42-40_260595134347_rgbf000094-resize_1-target.png,125,1.831,4,4312,139,feet,jsons/VE125_randls_70_rotated.json,834418,957643,29,Man
36,116870,DepthScenes,duration_manipulation_targetAtFixation,jsons/VE125_randls_70_rotated.json,http://54.235.29.9/FacialAge/BNav_EC2/DepthDuration/v2_depth_duration_MTurk/v2_DepthDuration_HTML.html#125,125,1366,625,1366,768,8-30-2022,9-17-34,37,depth_duration_stimuli/002425_2014-06-28_20-27-29_260595134347_rgbf000031-resize_8/002425_2014-06-28_20-27-29_260595134347_rgbf000031-resize_8-target.png,125,3.8960000000000004,6,4007,124,feet,jsons/VE125_randls_70_rotated.json,834418,957643,29,Man
37,116870,DepthScenes,duration_manipulation_targetAtFixation,jsons/VE125_randls_70_rotated.json,http://54.235.29.9/FacialAge/BNav_EC2/DepthDuration/v2_depth_duration_MTurk/v2_DepthDuration_HTML.html#125,125,1366,625,1366,768,8-30-2022,9-17-34,38,depth_duration_stimuli/000642_2014-06-08_16-59-25_260595134347_rgbf000098-resize_2/000642_2014-06-08_16-59-25_260595134347_rgbf000098-resize_2-target.png,125,2.8815,5,5581,125,feet,jsons/VE125_randls_70_rotated.json,834418,957643,29,Man
38,116870,DepthScenes,duration_manipulation_targetAtFixation,jsons/VE125_randls_70_rotated.json,http://54.235.29.9/FacialAge/BNav_EC2/DepthDuration/v2_depth_duration_MTurk/v2_DepthDuration_HTML.html#125,125,1366,625,1366,768,8-30-2022,9-17-34,39,depth_duration_stimuli/002136_2014-06-25_21-18-03_260595134347_rgbf000109-resize_3/002136_2014-06-25_21-18-03_260595134347_rgbf000109-resize_3-target.png,125,1.9569999999999999,5,3689,113,feet,jsons/VE125_randls_70_rotated.json,834418,957643,29,Man
39,116870,DepthScenes,duration_manipulation_targetAtFixation,jsons/VE125_randls_70_rotated.json,http://54.235.29.9/FacialAge/BNav_EC2/DepthDuration/v2_depth_duration_MTurk/v2_DepthDuration_HTML.html#125,125,1366,625,1366,768,8-30-2022,9-17-34,40,depth_duration_stimuli/002964_2014-06-08_17-46-11_094959634447_rgbf000091-resize_4/002964_2014-06-08_17-46-11_094959634447_rgbf000091-resize_4-target.png,125,1.6909999999999998,5,3596,109,feet,jsons/VE125_randls_70_rotated.json,834418,957643,29,Man
40,116870,DepthScenes,duration_manipulation_targetAtFixation,jsons/VE125_randls_70_rotated.json,http://54.235.29.9/FacialAge/BNav_EC2/DepthDuration/v2_depth_duration_MTurk/v2_DepthDuration_HTML.html#125,125,1366,625,1366,768,8-30-2022,9-17-34,41,depth_duration_stimuli/002103_2014-06-25_20-00-40_260595134347_rgbf000049-resize_0/002103_2014-06-25_20-00-40_260595134347_rgbf000049-resize_0-target.png,125,4.105,5,3563,125,feet,jsons/VE125_randls_70_rotated.json,834418,957643,29,Man
41,116870,DepthScenes,duration_manipulation_targetAtFixation,jsons/VE125_randls_70_rotated.json,http://54.235.29.9/FacialAge/BNav_EC2/DepthDuration/v2_depth_duration_MTurk/v2_DepthDuration_HTML.html#125,125,1366,625,1366,768,8-30-2022,9-17-34,42,depth_duration_stimuli/002039_2014-06-24_20-22-38_260595134347_rgbf000084-resize_1/002039_2014-06-24_20-22-38_260595134347_rgbf000084-resize_1-target.png,125,4.408,5,3847,124,feet,jsons/VE125_randls_70_rotated.json,834418,957643,29,Man
42,116870,DepthScenes,duration_manipulation_targetAtFixation,jsons/VE125_randls_70_rotated.json,http://54.235.29.9/FacialAge/BNav_EC2/DepthDuration/v2_depth_duration_MTurk/v2_DepthDuration_HTML.html#125,125,1366,625,1366,768,8-30-2022,9-17-34,43,depth_duration_stimuli/000709_2014-06-08_13-51-55_260595134347_rgbf000068-resize_3/000709_2014-06-08_13-51-55_260595134347_rgbf000068-resize_3-target.png,125,1.8030000000000002,4,3720,112,feet,jsons/VE125_randls_70_rotated.json,834418,957643,29,Man
43,116870,DepthScenes,duration_manipulation_targetAtFixation,jsons/VE125_randls_70_rotated.json,http://54.235.29.9/FacialAge/BNav_EC2/DepthDuration/v2_depth_duration_MTurk/v2_DepthDuration_HTML.html#125,125,1366,625,1366,768,8-30-2022,9-17-34,44,depth_duration_stimuli/002057_2014-06-24_21-00-13_260595134347_rgbf000120-resize_1/002057_2014-06-24_21-00-13_260595134347_rgbf000120-resize_1-target.png,125,2.967,5,3111,123,feet,jsons/VE125_randls_70_rotated.json,834418,957643,29,Man
44,116870,DepthScenes,duration_manipulation_targetAtFixation,jsons/VE125_randls_70_rotated.json,http://54.235.29.9/FacialAge/BNav_EC2/DepthDuration/v2_depth_duration_MTurk/v2_DepthDuration_HTML.html#125,125,1366,625,1366,768,8-30-2022,9-17-34,45,depth_duration_stimuli/001516_2014-06-20_16-25-09_260595134347_rgbf000076-resize_2/001516_2014-06-20_16-25-09_260595134347_rgbf000076-resize_2-target.png,125,1.7445,4,3472,123,feet,jsons/VE125_randls_70_rotated.json,834418,957643,29,Man
45,116870,DepthScenes,duration_manipulation_targetAtFixation,jsons/VE125_randls_70_rotated.json,http://54.235.29.9/FacialAge/BNav_EC2/DepthDuration/v2_depth_duration_MTurk/v2_DepthDuration_HTML.html#125,125,1366,625,1366,768,8-30-2022,9-17-34,46,depth_duration_stimuli/002118_2014-06-25_20-32-08_260595134347_rgbf000078-resize_1/002118_2014-06-25_20-32-08_260595134347_rgbf000078-resize_1-target.png,125,2.6460000000000004,3,2532,124,feet,jsons/VE125_randls_70_rotated.json,834418,957643,29,Man
46,116870,DepthScenes,duration_manipulation_targetAtFixation,jsons/VE125_randls_70_rotated.json,http://54.235.29.9/FacialAge/BNav_EC2/DepthDuration/v2_depth_duration_MTurk/v2_DepthDuration_HTML.html#125,125,1366,625,1366,768,8-30-2022,9-17-34,47,depth_duration_stimuli/002199_2014-06-28_18-33-56_260595134347_rgbf000074-resize_0/002199_2014-06-28_18-33-56_260595134347_rgbf000074-resize_0-target.png,125,1.996,2,3422,139,feet,jsons/VE125_randls_70_rotated.json,834418,957643,29,Man
47,116870,DepthScenes,duration_manipulation_targetAtFixation,jsons/VE125_randls_70_rotated.json,http://54.235.29.9/FacialAge/BNav_EC2/DepthDuration/v2_depth_duration_MTurk/v2_DepthDuration_HTML.html#125,125,1366,625,1366,768,8-30-2022,9-17-34,48,depth_duration_stimuli/001056_2014-06-08_18-46-44_260595134347_rgbf000068-resize_0/001056_2014-06-08_18-46-44_260595134347_rgbf000068-resize_0-target.png,125,2.6625,3,3407,125,feet,jsons/VE125_randls_70_rotated.json,834418,957643,29,Man
48,116870,DepthScenes,duration_manipulation_targetAtFixation,jsons/VE125_randls_70_rotated.json,http://54.235.29.9/FacialAge/BNav_EC2/DepthDuration/v2_depth_duration_MTurk/v2_DepthDuration_HTML.html#125,125,1366,625,1366,768,8-30-2022,9-17-34,49,depth_duration_stimuli/001170_2014-06-17_15-43-44_260595134347_rgbf000096-resize_6/001170_2014-06-17_15-43-44_260595134347_rgbf000096-resize-original.jpg,125,1.1909999999999998,0,4500,123,feet,jsons/VE125_randls_70_rotated.json,834418,957643,29,Man
49,116870,DepthScenes,duration_manipulation_targetAtFixation,jsons/VE125_randls_70_rotated.json,http://54.235.29.9/FacialAge/BNav_EC2/DepthDuration/v2_depth_duration_MTurk/v2_DepthDuration_HTML.html#125,125,1366,625,1366,768,8-30-2022,9-17-34,50,depth_duration_stimuli/002340_2014-06-28_20-05-46_260595134347_rgbf000113-resize_0/002340_2014-06-28_20-05-46_260595134347_rgbf000113-resize_0-target.png,125,2.4735,4,3438,123,feet,jsons/VE125_randls_70_rotated.json,834418,957643,29,Man
50,116870,DepthScenes,duration_manipulation_targetAtFixation,jsons/VE125_randls_70_rotated.json,http://54.235.29.9/FacialAge/BNav_EC2/DepthDuration/v2_depth_duration_MTurk/v2_DepthDuration_HTML.html#125,125,1366,625,1366,768,8-30-2022,9-17-34,51,depth_duration_stimuli/001016_2014-06-09_16-16-10_260595134347_rgbf000112-resize_5/001016_2014-06-09_16-16-10_260595134347_rgbf000112-resize_5-target.png,125,1.6565,4,3658,123,feet,jsons/VE125_randls_70_rotated.json,834418,957643,29,Man
51,116870,DepthScenes,duration_manipulation_targetAtFixation,jsons/VE125_randls_70_rotated.json,http://54.235.29.9/FacialAge/BNav_EC2/DepthDuration/v2_depth_duration_MTurk/v2_DepthDuration_HTML.html#125,125,1366,625,1366,768,8-30-2022,9-17-34,52,depth_duration_stimuli/003010_2014-06-15_12-54-35_094959634447_rgbf000112-resize_0/003010_2014-06-15_12-54-35_094959634447_rgbf000112-resize_0-target.png,125,3.1185,5,2765,125,feet,jsons/VE125_randls_70_rotated.json,834418,957643,29,Man
52,116870,DepthScenes,duration_manipulation_targetAtFixation,jsons/VE125_randls_70_rotated.json,http://54.235.29.9/FacialAge/BNav_EC2/DepthDuration/v2_depth_duration_MTurk/v2_DepthDuration_HTML.html#125,125,1366,625,1366,768,8-30-2022,9-17-34,53,depth_duration_stimuli/001810_2014-06-26_20-51-35_260595134347_rgbf000040-resize_3/001810_2014-06-26_20-51-35_260595134347_rgbf000040-resize_3-target.png,125,2.2525,4,2892,124,feet,jsons/VE125_randls_70_rotated.json,834418,957643,29,Man
53,116870,DepthScenes,duration_manipulation_targetAtFixation,jsons/VE125_randls_70_rotated.json,http://54.235.29.9/FacialAge/BNav_EC2/DepthDuration/v2_depth_duration_MTurk/v2_DepthDuration_HTML.html#125,125,1366,625,1366,768,8-30-2022,9-17-34,54,depth_duration_stimuli/002805_2014-06-22_19-54-03_094959634447_rgbf000079-resize_1/002805_2014-06-22_19-54-03_094959634447_rgbf000079-resize_1-target.png,125,3.1439999999999997,5,3268,123,feet,jsons/VE125_randls_70_rotated.json,834418,957643,29,Man
54,116870,DepthScenes,duration_manipulation_targetAtFixation,jsons/VE125_randls_70_rotated.json,http://54.235.29.9/FacialAge/BNav_EC2/DepthDuration/v2_depth_duration_MTurk/v2_DepthDuration_HTML.html#125,125,1366,625,1366,768,8-30-2022,9-17-34,55,depth_duration_stimuli/000906_2014-06-08_13-35-43_260595134347_rgbf000155-resize_1/000906_2014-06-08_13-35-43_260595134347_rgbf000155-resize_1-target.png,125,2.8489999999999998,4,3142,111,feet,jsons/VE125_randls_70_rotated.json,834418,957643,29,Man
55,116870,DepthScenes,duration_manipulation_targetAtFixation,jsons/VE125_randls_70_rotated.json,http://54.235.29.9/FacialAge/BNav_EC2/DepthDuration/v2_depth_duration_MTurk/v2_DepthDuration_HTML.html#125,125,1366,625,1366,768,8-30-2022,9-17-34,56,depth_duration_stimuli/001828_2014-06-26_21-40-03_260595134347_rgbf000024-resize_0/001828_2014-06-26_21-40-03_260595134347_rgbf000024-resize_0-target.png,125,4.8260000000000005,4,4169,122,feet,jsons/VE125_randls_70_rotated.json,834418,957643,29,Man
56,116870,DepthScenes,duration_manipulation_targetAtFixation,jsons/VE125_randls_70_rotated.json,http://54.235.29.9/FacialAge/BNav_EC2/DepthDuration/v2_depth_duration_MTurk/v2_DepthDuration_HTML.html#125,125,1366,625,1366,768,8-30-2022,9-17-34,57,depth_duration_stimuli/000009_2014-05-26_14-32-05_260595134347_rgbf000034-resize_3/000009_2014-05-26_14-32-05_260595134347_rgbf000034-resize_3-target.png,125,3.8715,4,4095,123,feet,jsons/VE125_randls_70_rotated.json,834418,957643,29,Man
57,116870,DepthScenes,duration_manipulation_targetAtFixation,jsons/VE125_randls_70_rotated.json,http://54.235.29.9/FacialAge/BNav_EC2/DepthDuration/v2_depth_duration_MTurk/v2_DepthDuration_HTML.html#125,125,1366,625,1366,768,8-30-2022,9-17-34,58,depth_duration_stimuli/003048_2014-06-15_13-49-43_094959634447_rgbf000150-resize_1/003048_2014-06-15_13-49-43_094959634447_rgbf000150-resize_1-target.png,125,4.0035,5,4094,123,feet,jsons/VE125_randls_70_rotated.json,834418,957643,29,Man
58,116870,DepthScenes,duration_manipulation_targetAtFixation,jsons/VE125_randls_70_rotated.json,http://54.235.29.9/FacialAge/BNav_EC2/DepthDuration/v2_depth_duration_MTurk/v2_DepthDuration_HTML.html#125,125,1366,625,1366,768,8-30-2022,9-17-34,59,depth_duration_stimuli/002043_2014-06-24_20-29-38_260595134347_rgbf000039-resize_4/002043_2014-06-24_20-29-38_260595134347_rgbf000039-resize_4-target.png,125,2.8435,5,2906,125,feet,jsons/VE125_randls_70_rotated.json,834418,957643,29,Man
59,116870,DepthScenes,duration_manipulation_targetAtFixation,jsons/VE125_randls_70_rotated.json,http://54.235.29.9/FacialAge/BNav_EC2/DepthDuration/v2_depth_duration_MTurk/v2_DepthDuration_HTML.html#125,125,1366,625,1366,768,8-30-2022,9-17-34,60,depth_duration_stimuli/001571_2014-06-20_17-21-32_260595134347_rgbf000089-resize_1/001571_2014-06-20_17-21-32_260595134347_rgbf000089-resize_1-target.png,125,1.86,6,3877,138,feet,jsons/VE125_randls_70_rotated.json,834418,957643,29,Man
60,116870,DepthScenes,duration_manipulation_targetAtFixation,jsons/VE125_randls_70_rotated.json,http://54.235.29.9/FacialAge/BNav_EC2/DepthDuration/v2_depth_duration_MTurk/v2_DepthDuration_HTML.html#125,125,1366,625,1366,768,8-30-2022,9-17-34,61,depth_duration_stimuli/002272_2014-06-28_18-53-56_260595134347_rgbf000067-resize_2/002272_2014-06-28_18-53-56_260595134347_rgbf000067-resize_2-target.png,125,1.138,5,3531,124,feet,jsons/VE125_randls_70_rotated.json,834418,957643,29,Man
61,116870,DepthScenes,duration_manipulation_targetAtFixation,jsons/VE125_randls_70_rotated.json,http://54.235.29.9/FacialAge/BNav_EC2/DepthDuration/v2_depth_duration_MTurk/v2_DepthDuration_HTML.html#125,125,1366,625,1366,768,8-30-2022,9-17-34,62,depth_duration_stimuli/002657_2014-06-13_15-29-54_094959634447_rgbf000150-resize_1/002657_2014-06-13_15-29-54_094959634447_rgbf000150-resize_1-target.png,125,4.919,5,3458,114,feet,jsons/VE125_randls_70_rotated.json,834418,957643,29,Man
62,116870,DepthScenes,duration_manipulation_targetAtFixation,jsons/VE125_randls_70_rotated.json,http://54.235.29.9/FacialAge/BNav_EC2/DepthDuration/v2_depth_duration_MTurk/v2_DepthDuration_HTML.html#125,125,1366,625,1366,768,8-30-2022,9-17-34,63,depth_duration_stimuli/002375_2014-06-28_20-13-44_260595134347_rgbf000032-resize_1/002375_2014-06-28_20-13-44_260595134347_rgbf000032-resize_1-target.png,125,4.0175,6,3093,125,feet,jsons/VE125_randls_70_rotated.json,834418,957643,29,Man
63,116870,DepthScenes,duration_manipulation_targetAtFixation,jsons/VE125_randls_70_rotated.json,http://54.235.29.9/FacialAge/BNav_EC2/DepthDuration/v2_depth_duration_MTurk/v2_DepthDuration_HTML.html#125,125,1366,625,1366,768,8-30-2022,9-17-34,64,depth_duration_stimuli/003338_2014-05-20_11-01-23_094959634447_rgbf000051-resize_6/003338_2014-05-20_11-01-23_094959634447_rgbf000051-resize_6-target.png,125,1.693,4,4627,124,feet,jsons/VE125_randls_70_rotated.json,834418,957643,29,Man
64,116870,DepthScenes,duration_manipulation_targetAtFixation,jsons/VE125_randls_70_rotated.json,http://54.235.29.9/FacialAge/BNav_EC2/DepthDuration/v2_depth_duration_MTurk/v2_DepthDuration_HTML.html#125,125,1366,625,1366,768,8-30-2022,9-17-34,65,depth_duration_stimuli/002509_2014-06-24_13-19-22_094959634447_rgbf000077-resize_0/002509_2014-06-24_13-19-22_094959634447_rgbf000077-resize_0-target.png,125,1.3065,3,3878,122,feet,jsons/VE125_randls_70_rotated.json,834418,957643,29,Man
65,116870,DepthScenes,duration_manipulation_targetAtFixation,jsons/VE125_randls_70_rotated.json,http://54.235.29.9/FacialAge/BNav_EC2/DepthDuration/v2_depth_duration_MTurk/v2_DepthDuration_HTML.html#125,125,1366,625,1366,768,8-30-2022,9-17-34,66,depth_duration_stimuli/001540_2014-06-20_17-01-05_260595134347_rgbf000086-resize_2/001540_2014-06-20_17-01-05_260595134347_rgbf000086-resize-original.jpg,125,1.459,0,5498,124,feet,jsons/VE125_randls_70_rotated.json,834418,957643,29,Man
66,116870,DepthScenes,duration_manipulation_targetAtFixation,jsons/VE125_randls_70_rotated.json,http://54.235.29.9/FacialAge/BNav_EC2/DepthDuration/v2_depth_duration_MTurk/v2_DepthDuration_HTML.html#125,125,1366,625,1366,768,8-30-2022,9-17-34,67,depth_duration_stimuli/000483_2014-06-09_20-41-45_260595134347_rgbf000116-resize_4/000483_2014-06-09_20-41-45_260595134347_rgbf000116-resize_4-target.png,125,1.337,3,7340,124,feet,jsons/VE125_randls_70_rotated.json,834418,957643,29,Man
67,116870,DepthScenes,duration_manipulation_targetAtFixation,jsons/VE125_randls_70_rotated.json,http://54.235.29.9/FacialAge/BNav_EC2/DepthDuration/v2_depth_duration_MTurk/v2_DepthDuration_HTML.html#125,125,1366,625,1366,768,8-30-2022,9-17-34,68,depth_duration_stimuli/000469_2014-06-09_19-42-10_260595134347_rgbf000081-resize_1/000469_2014-06-09_19-42-10_260595134347_rgbf000081-resize_1-target.png,125,1.652,4,3877,122,feet,jsons/VE125_randls_70_rotated.json,834418,957643,29,Man
68,116870,DepthScenes,duration_manipulation_targetAtFixation,jsons/VE125_randls_70_rotated.json,http://54.235.29.9/FacialAge/BNav_EC2/DepthDuration/v2_depth_duration_MTurk/v2_DepthDuration_HTML.html#125,125,1366,625,1366,768,8-30-2022,9-17-34,69,depth_duration_stimuli/001450_2014-06-19_17-02-03_260595134347_rgbf000203-resize_4/001450_2014-06-19_17-02-03_260595134347_rgbf000203-resize_4-target.png,125,4.0106666666667,6,4103,123,feet,jsons/VE125_randls_70_rotated.json,834418,957643,29,Man
69,116870,DepthScenes,duration_manipulation_targetAtFixation,jsons/VE125_randls_70_rotated.json,http://54.235.29.9/FacialAge/BNav_EC2/DepthDuration/v2_depth_duration_MTurk/v2_DepthDuration_HTML.html#125,125,1366,625,1366,768,8-30-2022,9-17-34,70,depth_duration_stimuli/001449_2014-06-19_17-01-27_260595134347_rgbf000116-resize_2/001449_2014-06-19_17-01-27_260595134347_rgbf000116-resize_2-target.png,125,3.452,6,3377,124,feet,jsons/VE125_randls_70_rotated.json,834418,957643,29,Man
70,116870,DepthScenes,duration_manipulation_targetAtFixation,jsons/VE125_randls_70_rotated.json,http://54.235.29.9/FacialAge/BNav_EC2/DepthDuration/v2_depth_duration_MTurk/v2_DepthDuration_HTML.html#125,125,1366,625,1366,768,8-30-2022,9-17-34,71,depth_duration_stimuli/001447_2014-06-19_17-00-32_260595134347_rgbf000082-resize_5/001447_2014-06-19_17-00-32_260595134347_rgbf000082-resize_5-target.png,125,4.13775,5,4892,117,feet,jsons/VE125_randls_70_rotated.json,834418,957643,29,Man
71,116870,DepthScenes,duration_manipulation_targetAtFixation,jsons/VE125_randls_70_rotated.json,http://54.235.29.9/FacialAge/BNav_EC2/DepthDuration/v2_depth_duration_MTurk/v2_DepthDuration_HTML.html#125,125,1366,625,1366,768,8-30-2022,9-17-34,72,depth_duration_stimuli/000447_2014-06-08_16-15-46_260595134347_rgbf000130-resize_1/000447_2014-06-08_16-15-46_260595134347_rgbf000130-resize_1-target.png,125,4.479,5,3600,126,feet,jsons/VE125_randls_70_rotated.json,834418,957643,29,Man
72,116870,DepthScenes,duration_manipulation_targetAtFixation,jsons/VE125_randls_70_rotated.json,http://54.235.29.9/FacialAge/BNav_EC2/DepthDuration/v2_depth_duration_MTurk/v2_DepthDuration_HTML.html#125,125,1366,625,1366,768,8-30-2022,9-17-34,73,depth_duration_stimuli/003081_2014-06-15_15-19-16_094959634447_rgbf000150-resize_1/003081_2014-06-15_15-19-16_094959634447_rgbf000150-resize_1-target.png,125,3.9125,4,3122,126,feet,jsons/VE125_randls_70_rotated.json,834418,957643,29,Man
73,116870,DepthScenes,duration_manipulation_targetAtFixation,jsons/VE125_randls_70_rotated.json,http://54.235.29.9/FacialAge/BNav_EC2/DepthDuration/v2_depth_duration_MTurk/v2_DepthDuration_HTML.html#125,125,1366,625,1366,768,8-30-2022,9-17-34,74,depth_duration_stimuli/001417_2014-06-19_16-25-36_260595134347_rgbf000115-resize_5/001417_2014-06-19_16-25-36_260595134347_rgbf000115-resize_5-target.png,125,4.6255,5,2737,120,feet,jsons/VE125_randls_70_rotated.json,834418,957643,29,Man
74,116870,DepthScenes,duration_manipulation_targetAtFixation,jsons/VE125_randls_70_rotated.json,http://54.235.29.9/FacialAge/BNav_EC2/DepthDuration/v2_depth_duration_MTurk/v2_DepthDuration_HTML.html#125,125,1366,625,1366,768,8-30-2022,9-17-34,75,depth_duration_stimuli/002568_2014-06-24_13-59-21_094959634447_rgbf000062-resize_4/002568_2014-06-24_13-59-21_094959634447_rgbf000062-resize_4-target.png,125,3.015,3,4019,124,feet,jsons/VE125_randls_70_rotated.json,834418,957643,29,Man
75,116870,DepthScenes,duration_manipulation_targetAtFixation,jsons/VE125_randls_70_rotated.json,http://54.235.29.9/FacialAge/BNav_EC2/DepthDuration/v2_depth_duration_MTurk/v2_DepthDuration_HTML.html#125,125,1366,625,1366,768,8-30-2022,9-17-34,76,depth_duration_stimuli/003492_2014-05-21_15-50-55_094959634447_rgbf000828-resize_1/003492_2014-05-21_15-50-55_094959634447_rgbf000828-resize_1-target.png,125,4.06875,6,3189,126,feet,jsons/VE125_randls_70_rotated.json,834418,957643,29,Man
76,116870,DepthScenes,duration_manipulation_targetAtFixation,jsons/VE125_randls_70_rotated.json,http://54.235.29.9/FacialAge/BNav_EC2/DepthDuration/v2_depth_duration_MTurk/v2_DepthDuration_HTML.html#125,125,1366,625,1366,768,8-30-2022,9-17-34,77,depth_duration_stimuli/001136_2014-06-17_15-19-41_260595134347_rgbf000076-resize_3/001136_2014-06-17_15-19-41_260595134347_rgbf000076-resize_3-target.png,125,1.8655,5,4503,126,feet,jsons/VE125_randls_70_rotated.json,834418,957643,29,Man
77,116870,DepthScenes,duration_manipulation_targetAtFixation,jsons/VE125_randls_70_rotated.json,http://54.235.29.9/FacialAge/BNav_EC2/DepthDuration/v2_depth_duration_MTurk/v2_DepthDuration_HTML.html#125,125,1366,625,1366,768,8-30-2022,9-17-34,78,depth_duration_stimuli/001164_2014-06-17_15-35-46_260595134347_rgbf000085-resize_3/001164_2014-06-17_15-35-46_260595134347_rgbf000085-resize_3-target.png,125,2.354,5,2832,126,feet,jsons/VE125_randls_70_rotated.json,834418,957643,29,Man
78,116870,DepthScenes,duration_manipulation_targetAtFixation,jsons/VE125_randls_70_rotated.json,http://54.235.29.9/FacialAge/BNav_EC2/DepthDuration/v2_depth_duration_MTurk/v2_DepthDuration_HTML.html#125,125,1366,625,1366,768,8-30-2022,9-17-34,79,depth_duration_stimuli/003228_2014-05-14_13-42-35_094959634447_rgbf000101-resize_1/003228_2014-05-14_13-42-35_094959634447_rgbf000101-resize_1-target.png,125,1.9680000000000002,2,4300,123,feet,jsons/VE125_randls_70_rotated.json,834418,957643,29,Man
79,116870,DepthScenes,duration_manipulation_targetAtFixation,jsons/VE125_randls_70_rotated.json,http://54.235.29.9/FacialAge/BNav_EC2/DepthDuration/v2_depth_duration_MTurk/v2_DepthDuration_HTML.html#125,125,1366,625,1366,768,8-30-2022,9-17-34,80,depth_duration_stimuli/002600_2014-06-24_14-27-04_094959634447_rgbf000074-resize_2/002600_2014-06-24_14-27-04_094959634447_rgbf000074-resize_2-target.png,125,2.7575,3,2892,122,feet,jsons/VE125_randls_70_rotated.json,834418,957643,29,Man
80,116870,DepthScenes,duration_manipulation_targetAtFixation,jsons/VE125_randls_70_rotated.json,http://54.235.29.9/FacialAge/BNav_EC2/DepthDuration/v2_depth_duration_MTurk/v2_DepthDuration_HTML.html#125,125,1366,625,1366,768,8-30-2022,9-17-34,81,depth_duration_stimuli/001132_2014-06-17_14-48-54_260595134347_rgbf000100-resize_2/001132_2014-06-17_14-48-54_260595134347_rgbf000100-resize_2-target.png,125,3.753,3,3049,124,feet,jsons/VE125_randls_70_rotated.json,834418,957643,29,Man
81,116870,DepthScenes,duration_manipulation_targetAtFixation,jsons/VE125_randls_70_rotated.json,http://54.235.29.9/FacialAge/BNav_EC2/DepthDuration/v2_depth_duration_MTurk/v2_DepthDuration_HTML.html#125,125,1366,625,1366,768,8-30-2022,9-17-34,82,depth_duration_stimuli/001133_2014-06-17_14-49-16_260595134347_rgbf000100-resize_0/001133_2014-06-17_14-49-16_260595134347_rgbf000100-resize_0-target.png,125,4.2115,4,5175,111,feet,jsons/VE125_randls_70_rotated.json,834418,957643,29,Man
82,116870,DepthScenes,duration_manipulation_targetAtFixation,jsons/VE125_randls_70_rotated.json,http://54.235.29.9/FacialAge/BNav_EC2/DepthDuration/v2_depth_duration_MTurk/v2_DepthDuration_HTML.html#125,125,1366,625,1366,768,8-30-2022,9-17-34,83,depth_duration_stimuli/000191_2014-05-12_17-07-38_260595134347_rgbf000199-resize_0/000191_2014-05-12_17-07-38_260595134347_rgbf000199-resize_0-target.png,125,3.7995,5,4781,110,feet,jsons/VE125_randls_70_rotated.json,834418,957643,29,Man
83,116870,DepthScenes,duration_manipulation_targetAtFixation,jsons/VE125_randls_70_rotated.json,http://54.235.29.9/FacialAge/BNav_EC2/DepthDuration/v2_depth_duration_MTurk/v2_DepthDuration_HTML.html#125,125,1366,625,1366,768,8-30-2022,9-17-34,84,depth_duration_stimuli/000493_2014-06-09_21-01-18_260595134347_rgbf000196-resize_3/000493_2014-06-09_21-01-18_260595134347_rgbf000196-resize_3-target.png,125,3.44,5,2816,123,feet,jsons/VE125_randls_70_rotated.json,834418,957643,29,Man
84,116870,DepthScenes,duration_manipulation_targetAtFixation,jsons/VE125_randls_70_rotated.json,http://54.235.29.9/FacialAge/BNav_EC2/DepthDuration/v2_depth_duration_MTurk/v2_DepthDuration_HTML.html#125,125,1366,625,1366,768,8-30-2022,9-17-34,85,depth_duration_stimuli/000866_2014-06-09_20-45-42_260595134347_rgbf000139-resize_1/000866_2014-06-09_20-45-42_260595134347_rgbf000139-resize_1-target.png,125,3.2155,6,3205,123,feet,jsons/VE125_randls_70_rotated.json,834418,957643,29,Man
85,116870,DepthScenes,duration_manipulation_targetAtFixation,jsons/VE125_randls_70_rotated.json,http://54.235.29.9/FacialAge/BNav_EC2/DepthDuration/v2_depth_duration_MTurk/v2_DepthDuration_HTML.html#125,125,1366,625,1366,768,8-30-2022,9-17-34,86,depth_duration_stimuli/002989_2014-06-15_12-25-03_094959634447_rgbf000150-resize_3/002989_2014-06-15_12-25-03_094959634447_rgbf000150-resize_3-target.png,125,4.1975,6,3050,124,feet,jsons/VE125_randls_70_rotated.json,834418,957643,29,Man
86,116870,DepthScenes,duration_manipulation_targetAtFixation,jsons/VE125_randls_70_rotated.json,http://54.235.29.9/FacialAge/BNav_EC2/DepthDuration/v2_depth_duration_MTurk/v2_DepthDuration_HTML.html#125,125,1366,625,1366,768,8-30-2022,9-17-34,87,depth_duration_stimuli/000691_2014-06-08_13-08-50_260595134347_rgbf000132-resize_3/000691_2014-06-08_13-08-50_260595134347_rgbf000132-resize_3-target.png,125,4.1530000000000005,6,3000,124,feet,jsons/VE125_randls_70_rotated.json,834418,957643,29,Man
87,116870,DepthScenes,duration_manipulation_targetAtFixation,jsons/VE125_randls_70_rotated.json,http://54.235.29.9/FacialAge/BNav_EC2/DepthDuration/v2_depth_duration_MTurk/v2_DepthDuration_HTML.html#125,125,1366,625,1366,768,8-30-2022,9-17-34,88,depth_duration_stimuli/002213_2014-06-28_18-37-58_260595134347_rgbf000055-resize_1/002213_2014-06-28_18-37-58_260595134347_rgbf000055-resize_1-target.png,125,3.62,5,2953,125,feet,jsons/VE125_randls_70_rotated.json,834418,957643,29,Man
88,116870,DepthScenes,duration_manipulation_targetAtFixation,jsons/VE125_randls_70_rotated.json,http://54.235.29.9/FacialAge/BNav_EC2/DepthDuration/v2_depth_duration_MTurk/v2_DepthDuration_HTML.html#125,125,1366,625,1366,768,8-30-2022,9-17-34,89,depth_duration_stimuli/000927_2014-06-09_16-32-30_260595134347_rgbf000123-resize_3/000927_2014-06-09_16-32-30_260595134347_rgbf000123-resize_3-target.png,125,2.6785,7,3143,124,feet,jsons/VE125_randls_70_rotated.json,834418,957643,29,Man
89,116870,DepthScenes,duration_manipulation_targetAtFixation,jsons/VE125_randls_70_rotated.json,http://54.235.29.9/FacialAge/BNav_EC2/DepthDuration/v2_depth_duration_MTurk/v2_DepthDuration_HTML.html#125,125,1366,625,1366,768,8-30-2022,9-17-34,90,depth_duration_stimuli/001110_2014-06-15_17-25-28_260595134347_rgbf000150-resize_1/001110_2014-06-15_17-25-28_260595134347_rgbf000150-resize_1-target.png,125,1.7115,3,3425,125,feet,jsons/VE125_randls_70_rotated.json,834418,957643,29,Man
90,116870,DepthScenes,duration_manipulation_targetAtFixation,jsons/VE125_randls_70_rotated.json,http://54.235.29.9/FacialAge/BNav_EC2/DepthDuration/v2_depth_duration_MTurk/v2_DepthDuration_HTML.html#125,125,1366,625,1366,768,8-30-2022,9-17-34,91,depth_duration_stimuli/000665_2014-06-09_20-42-35_260595134347_rgbf000110-resize_1/000665_2014-06-09_20-42-35_260595134347_rgbf000110-resize_1-target.png,125,3.057,5,4766,122,feet,jsons/VE125_randls_70_rotated.json,834418,957643,29,Man
91,116870,DepthScenes,duration_manipulation_targetAtFixation,jsons/VE125_randls_70_rotated.json,http://54.235.29.9/FacialAge/BNav_EC2/DepthDuration/v2_depth_duration_MTurk/v2_DepthDuration_HTML.html#125,125,1366,625,1366,768,8-30-2022,9-17-34,92,depth_duration_stimuli/001150_2014-06-17_15-27-34_260595134347_rgbf000108-resize_2/001150_2014-06-17_15-27-34_260595134347_rgbf000108-resize_2-target.png,125,4.0325,3,4474,126,feet,jsons/VE125_randls_70_rotated.json,834418,957643,29,Man
92,116870,DepthScenes,duration_manipulation_targetAtFixation,jsons/VE125_randls_70_rotated.json,http://54.235.29.9/FacialAge/BNav_EC2/DepthDuration/v2_depth_duration_MTurk/v2_DepthDuration_HTML.html#125,125,1366,625,1366,768,8-30-2022,9-17-34,93,depth_duration_stimuli/000742_2014-06-08_18-48-09_260595134347_rgbf000164-resize_4/000742_2014-06-08_18-48-09_260595134347_rgbf000164-resize_4-target.png,125,4.632,4,2749,132,feet,jsons/VE125_randls_70_rotated.json,834418,957643,29,Man
93,116870,DepthScenes,duration_manipulation_targetAtFixation,jsons/VE125_randls_70_rotated.json,http://54.235.29.9/FacialAge/BNav_EC2/DepthDuration/v2_depth_duration_MTurk/v2_DepthDuration_HTML.html#125,125,1366,625,1366,768,8-30-2022,9-17-34,94,depth_duration_stimuli/001066_2014-06-08_22-03-20_260595134347_rgbf000066-resize_4/001066_2014-06-08_22-03-20_260595134347_rgbf000066-resize_4-target.png,125,4.2330000000000005,6,3111,126,feet,jsons/VE125_randls_70_rotated.json,834418,957643,29,Man
94,116870,DepthScenes,duration_manipulation_targetAtFixation,jsons/VE125_randls_70_rotated.json,http://54.235.29.9/FacialAge/BNav_EC2/DepthDuration/v2_depth_duration_MTurk/v2_DepthDuration_HTML.html#125,125,1366,625,1366,768,8-30-2022,9-17-34,95,depth_duration_stimuli/002545_2014-06-24_13-38-53_094959634447_rgbf000080-resize_4/002545_2014-06-24_13-38-53_094959634447_rgbf000080-resize_4-target.png,125,1.9205,5,4883,125,feet,jsons/VE125_randls_70_rotated.json,834418,957643,29,Man
95,116870,DepthScenes,duration_manipulation_targetAtFixation,jsons/VE125_randls_70_rotated.json,http://54.235.29.9/FacialAge/BNav_EC2/DepthDuration/v2_depth_duration_MTurk/v2_DepthDuration_HTML.html#125,125,1366,625,1366,768,8-30-2022,9-17-34,96,depth_duration_stimuli/001092_2014-06-15_17-34-58_260595134347_rgbf000171-resize_3/001092_2014-06-15_17-34-58_260595134347_rgbf000171-resize_3-target.png,125,2.6935,5,3579,123,feet,jsons/VE125_randls_70_rotated.json,834418,957643,29,Man
96,116870,DepthScenes,duration_manipulation_targetAtFixation,jsons/VE125_randls_70_rotated.json,http://54.235.29.9/FacialAge/BNav_EC2/DepthDuration/v2_depth_duration_MTurk/v2_DepthDuration_HTML.html#125,125,1366,625,1366,768,8-30-2022,9-17-34,97,depth_duration_stimuli/001235_2014-06-17_16-37-36_260595134347_rgbf000084-resize_4/001235_2014-06-17_16-37-36_260595134347_rgbf000084-resize_4-target.png,125,3.6605,4,3296,123,feet,jsons/VE125_randls_70_rotated.json,834418,957643,29,Man
97,116870,DepthScenes,duration_manipulation_targetAtFixation,jsons/VE125_randls_70_rotated.json,http://54.235.29.9/FacialAge/BNav_EC2/DepthDuration/v2_depth_duration_MTurk/v2_DepthDuration_HTML.html#125,125,1366,625,1366,768,8-30-2022,9-17-34,98,depth_duration_stimuli/000788_2014-06-08_22-34-36_260595134347_rgbf000131-resize_1/000788_2014-06-08_22-34-36_260595134347_rgbf000131-resize_1-target.png,125,3.359,4,3471,112,feet,jsons/VE125_randls_70_rotated.json,834418,957643,29,Man
98,116870,DepthScenes,duration_manipulation_targetAtFixation,jsons/VE125_randls_70_rotated.json,http://54.235.29.9/FacialAge/BNav_EC2/DepthDuration/v2_depth_duration_MTurk/v2_DepthDuration_HTML.html#125,125,1366,625,1366,768,8-30-2022,9-17-34,99,depth_duration_stimuli/001222_2014-06-17_16-24-06_260595134347_rgbf000073-resize_0/001222_2014-06-17_16-24-06_260595134347_rgbf000073-resize-original.jpg,125,1.4385,0,4596,126,feet,jsons/VE125_randls_70_rotated.json,834418,957643,29,Man
99,116870,DepthScenes,duration_manipulation_targetAtFixation,jsons/VE125_randls_70_rotated.json,http://54.235.29.9/FacialAge/BNav_EC2/DepthDuration/v2_depth_duration_MTurk/v2_DepthDuration_HTML.html#125,125,1366,625,1366,768,8-30-2022,9-17-34,100,depth_duration_stimuli/000409_2014-06-04_19-23-33_260595134347_rgbf000067-resize_0/000409_2014-06-04_19-23-33_260595134347_rgbf000067-resize_0-target.png,125,3.7335,5,3409,125,feet,jsons/VE125_randls_70_rotated.json,834418,957643,29,Man
100,116870,DepthScenes,duration_manipulation_targetAtFixation,jsons/VE125_randls_70_rotated.json,http://54.235.29.9/FacialAge/BNav_EC2/DepthDuration/v2_depth_duration_MTurk/v2_DepthDuration_HTML.html#125,125,1366,625,1366,768,8-30-2022,9-17-34,101,depth_duration_stimuli/002663_2014-06-13_15-50-26_094959634447_rgbf000075-resize_1/002663_2014-06-13_15-50-26_094959634447_rgbf000075-resize_1-target.png,125,4.7495,4,4106,124,feet,jsons/VE125_randls_70_rotated.json,834418,957643,29,Man
101,116870,DepthScenes,duration_manipulation_targetAtFixation,jsons/VE125_randls_70_rotated.json,http://54.235.29.9/FacialAge/BNav_EC2/DepthDuration/v2_depth_duration_MTurk/v2_DepthDuration_HTML.html#125,125,1366,625,1366,768,8-30-2022,9-17-34,102,depth_duration_stimuli/000677_2014-06-08_23-10-32_260595134347_rgbf000158-resize_6/000677_2014-06-08_23-10-32_260595134347_rgbf000158-resize_6-target.png,125,3.556,4,5268,123,feet,jsons/VE125_randls_70_rotated.json,834418,957643,29,Man
102,116870,DepthScenes,duration_manipulation_targetAtFixation,jsons/VE125_randls_70_rotated.json,http://54.235.29.9/FacialAge/BNav_EC2/DepthDuration/v2_depth_duration_MTurk/v2_DepthDuration_HTML.html#125,125,1366,625,1366,768,8-30-2022,9-17-34,103,depth_duration_stimuli/001029_2014-06-08_13-17-57_260595134347_rgbf000065-resize_1/001029_2014-06-08_13-17-57_260595134347_rgbf000065-resize_1-target.png,125,3.0835,5,3576,126,feet,jsons/VE125_randls_70_rotated.json,834418,957643,29,Man
103,116870,DepthScenes,duration_manipulation_targetAtFixation,jsons/VE125_randls_70_rotated.json,http://54.235.29.9/FacialAge/BNav_EC2/DepthDuration/v2_depth_duration_MTurk/v2_DepthDuration_HTML.html#125,125,1366,625,1366,768,8-30-2022,9-17-34,104,depth_duration_stimuli/000635_2014-06-08_16-38-42_260595134347_rgbf000106-resize_1/000635_2014-06-08_16-38-42_260595134347_rgbf000106-resize_1-target.png,125,2.074,5,4330,111,feet,jsons/VE125_randls_70_rotated.json,834418,957643,29,Man
104,116870,DepthScenes,duration_manipulation_targetAtFixation,jsons/VE125_randls_70_rotated.json,http://54.235.29.9/FacialAge/BNav_EC2/DepthDuration/v2_depth_duration_MTurk/v2_DepthDuration_HTML.html#125,125,1366,625,1366,768,8-30-2022,9-17-34,105,depth_duration_stimuli/002279_2014-06-28_18-55-32_260595134347_rgbf000040-resize_5/002279_2014-06-28_18-55-32_260595134347_rgbf000040-resize_5-target.png,125,1.5043333333333,5,3204,126,feet,jsons/VE125_randls_70_rotated.json,834418,957643,29,Man
105,116870,DepthScenes,duration_manipulation_targetAtFixation,jsons/VE125_randls_70_rotated.json,http://54.235.29.9/FacialAge/BNav_EC2/DepthDuration/v2_depth_duration_MTurk/v2_DepthDuration_HTML.html#125,125,1366,625,1366,768,8-30-2022,9-17-34,106,depth_duration_stimuli/001617_2014-06-20_11-35-32_260595134347_rgbf000066-resize_1/001617_2014-06-20_11-35-32_260595134347_rgbf000066-resize_1-target.png,125,3.7910000000000004,5,3940,125,feet,jsons/VE125_randls_70_rotated.json,834418,957643,29,Man
106,116870,DepthScenes,duration_manipulation_targetAtFixation,jsons/VE125_randls_70_rotated.json,http://54.235.29.9/FacialAge/BNav_EC2/DepthDuration/v2_depth_duration_MTurk/v2_DepthDuration_HTML.html#125,125,1366,625,1366,768,8-30-2022,9-17-34,107,depth_duration_stimuli/001806_2014-06-26_20-50-20_260595134347_rgbf000091-resize_1/001806_2014-06-26_20-50-20_260595134347_rgbf000091-resize_1-target.png,125,2.7305,4,3316,124,feet,jsons/VE125_randls_70_rotated.json,834418,957643,29,Man
107,116870,DepthScenes,duration_manipulation_targetAtFixation,jsons/VE125_randls_70_rotated.json,http://54.235.29.9/FacialAge/BNav_EC2/DepthDuration/v2_depth_duration_MTurk/v2_DepthDuration_HTML.html#125,125,1366,625,1366,768,8-30-2022,9-17-34,108,depth_duration_stimuli/003079_2014-06-15_15-18-20_094959634447_rgbf000152-resize_8/003079_2014-06-15_15-18-20_094959634447_rgbf000152-resize_8-target.png,125,2.8775,5,3642,123,feet,jsons/VE125_randls_70_rotated.json,834418,957643,29,Man
108,116870,DepthScenes,duration_manipulation_targetAtFixation,jsons/VE125_randls_70_rotated.json,http://54.235.29.9/FacialAge/BNav_EC2/DepthDuration/v2_depth_duration_MTurk/v2_DepthDuration_HTML.html#125,125,1366,625,1366,768,8-30-2022,9-17-34,109,depth_duration_stimuli/000506_2014-06-08_23-21-00_260595134347_rgbf000070-resize_7/000506_2014-06-08_23-21-00_260595134347_rgbf000070-resize_7-target.png,125,4.0585,5,4375,111,feet,jsons/VE125_randls_70_rotated.json,834418,957643,29,Man
109,116870,DepthScenes,duration_manipulation_targetAtFixation,jsons/VE125_randls_70_rotated.json,http://54.235.29.9/FacialAge/BNav_EC2/DepthDuration/v2_depth_duration_MTurk/v2_DepthDuration_HTML.html#125,125,1366,625,1366,768,8-30-2022,9-17-34,110,depth_duration_stimuli/002758_2014-06-22_19-11-20_094959634447_rgbf000128-resize_1/002758_2014-06-22_19-11-20_094959634447_rgbf000128-resize_1-target.png,125,2.555,4,4534,111,feet,jsons/VE125_randls_70_rotated.json,834418,957643,29,Man
110,116870,DepthScenes,duration_manipulation_targetAtFixation,jsons/VE125_randls_70_rotated.json,http://54.235.29.9/FacialAge/BNav_EC2/DepthDuration/v2_depth_duration_MTurk/v2_DepthDuration_HTML.html#125,125,1366,625,1366,768,8-30-2022,9-17-34,111,depth_duration_stimuli/002630_2014-06-24_14-47-50_094959634447_rgbf000055-resize_1/002630_2014-06-24_14-47-50_094959634447_rgbf000055-resize_1-target.png,125,3.0095,5,3521,125,feet,jsons/VE125_randls_70_rotated.json,834418,957643,29,Man
111,116870,DepthScenes,duration_manipulation_targetAtFixation,jsons/VE125_randls_70_rotated.json,http://54.235.29.9/FacialAge/BNav_EC2/DepthDuration/v2_depth_duration_MTurk/v2_DepthDuration_HTML.html#125,125,1366,625,1366,768,8-30-2022,9-17-34,112,depth_duration_stimuli/002949_2014-06-26_15-57-42_094959634447_rgbf000079-resize_1/002949_2014-06-26_15-57-42_094959634447_rgbf000079-resize_1-target.png,125,1.8915,4,3609,123,feet,jsons/VE125_randls_70_rotated.json,834418,957643,29,Man
112,116870,DepthScenes,duration_manipulation_targetAtFixation,jsons/VE125_randls_70_rotated.json,http://54.235.29.9/FacialAge/BNav_EC2/DepthDuration/v2_depth_duration_MTurk/v2_DepthDuration_HTML.html#125,125,1366,625,1366,768,8-30-2022,9-17-34,113,depth_duration_stimuli/000522_2014-06-08_13-35-06_260595134347_rgbf000244-resize_1/000522_2014-06-08_13-35-06_260595134347_rgbf000244-resize_1-target.png,125,2.3715,3,3126,137,feet,jsons/VE125_randls_70_rotated.json,834418,957643,29,Man
113,116870,DepthScenes,duration_manipulation_targetAtFixation,jsons/VE125_randls_70_rotated.json,http://54.235.29.9/FacialAge/BNav_EC2/DepthDuration/v2_depth_duration_MTurk/v2_DepthDuration_HTML.html#125,125,1366,625,1366,768,8-30-2022,9-17-34,114,depth_duration_stimuli/002637_2014-06-24_14-51-13_094959634447_rgbf000066-resize_4/002637_2014-06-24_14-51-13_094959634447_rgbf000066-resize_4-target.png,125,1.9955,4,2731,123,feet,jsons/VE125_randls_70_rotated.json,834418,957643,29,Man
114,116870,DepthScenes,duration_manipulation_targetAtFixation,jsons/VE125_randls_70_rotated.json,http://54.235.29.9/FacialAge/BNav_EC2/DepthDuration/v2_depth_duration_MTurk/v2_DepthDuration_HTML.html#125,125,1366,625,1366,768,8-30-2022,9-17-34,115,depth_duration_stimuli/003534_2014-05-22_15-06-10_094959634447_rgbf000102-resize_4/003534_2014-05-22_15-06-10_094959634447_rgbf000102-resize_4-target.png,125,1.426,4,3362,125,feet,jsons/VE125_randls_70_rotated.json,834418,957643,29,Man
115,116870,DepthScenes,duration_manipulation_targetAtFixation,jsons/VE125_randls_70_rotated.json,http://54.235.29.9/FacialAge/BNav_EC2/DepthDuration/v2_depth_duration_MTurk/v2_DepthDuration_HTML.html#125,125,1366,625,1366,768,8-30-2022,9-17-34,116,depth_duration_stimuli/002323_2014-06-28_20-01-54_260595134347_rgbf000051-resize_4/002323_2014-06-28_20-01-54_260595134347_rgbf000051-resize_4-target.png,125,3.7310000000000003,4,3627,124,feet,jsons/VE125_randls_70_rotated.json,834418,957643,29,Man
116,116870,DepthScenes,duration_manipulation_targetAtFixation,jsons/VE125_randls_70_rotated.json,http://54.235.29.9/FacialAge/BNav_EC2/DepthDuration/v2_depth_duration_MTurk/v2_DepthDuration_HTML.html#125,125,1366,625,1366,768,8-30-2022,9-17-34,117,depth_duration_stimuli/000917_2014-06-09_22-45-29_260595134347_rgbf000149-resize_3/000917_2014-06-09_22-45-29_260595134347_rgbf000149-resize_3-target.png,125,4.1865,3,3532,123,feet,jsons/VE125_randls_70_rotated.json,834418,957643,29,Man
117,116870,DepthScenes,duration_manipulation_targetAtFixation,jsons/VE125_randls_70_rotated.json,http://54.235.29.9/FacialAge/BNav_EC2/DepthDuration/v2_depth_duration_MTurk/v2_DepthDuration_HTML.html#125,125,1366,625,1366,768,8-30-2022,9-17-34,118,depth_duration_stimuli/003490_2014-05-21_15-50-11_094959634447_rgbf000101-resize_3/003490_2014-05-21_15-50-11_094959634447_rgbf000101-resize_3-target.png,125,3.6445,4,4596,124,feet,jsons/VE125_randls_70_rotated.json,834418,957643,29,Man
118,116870,DepthScenes,duration_manipulation_targetAtFixation,jsons/VE125_randls_70_rotated.json,http://54.235.29.9/FacialAge/BNav_EC2/DepthDuration/v2_depth_duration_MTurk/v2_DepthDuration_HTML.html#125,125,1366,625,1366,768,8-30-2022,9-17-34,119,depth_duration_stimuli/001175_2014-06-17_15-45-55_260595134347_rgbf000129-resize_4/001175_2014-06-17_15-45-55_260595134347_rgbf000129-resize_4-target.png,125,4.255,5,4191,125,feet,jsons/VE125_randls_70_rotated.json,834418,957643,29,Man
119,116870,DepthScenes,duration_manipulation_targetAtFixation,jsons/VE125_randls_70_rotated.json,http://54.235.29.9/FacialAge/BNav_EC2/DepthDuration/v2_depth_duration_MTurk/v2_DepthDuration_HTML.html#125,125,1366,625,1366,768,8-30-2022,9-17-34,120,depth_duration_stimuli/000787_2014-06-08_22-33-53_260595134347_rgbf000175-resize_1/000787_2014-06-08_22-33-53_260595134347_rgbf000175-resize-original.jpg,125,4.784,0,3579,124,feet,jsons/VE125_randls_70_rotated.json,834418,957643,29,Man
120,116870,DepthScenes,duration_manipulation_targetAtFixation,jsons/VE125_randls_70_rotated.json,http://54.235.29.9/FacialAge/BNav_EC2/DepthDuration/v2_depth_duration_MTurk/v2_DepthDuration_HTML.html#125,125,1366,625,1366,768,8-30-2022,9-17-34,121,depth_duration_stimuli/002750_2014-06-22_19-08-03_094959634447_rgbf000094-resize_4/002750_2014-06-22_19-08-03_094959634447_rgbf000094-resize_4-target.png,125,2.354,4,3096,124,feet,jsons/VE125_randls_70_rotated.json,834418,957643,29,Man
121,116870,DepthScenes,duration_manipulation_targetAtFixation,jsons/VE125_randls_70_rotated.json,http://54.235.29.9/FacialAge/BNav_EC2/DepthDuration/v2_depth_duration_MTurk/v2_DepthDuration_HTML.html#125,125,1366,625,1366,768,8-30-2022,9-17-34,122,depth_duration_stimuli/002549_2014-06-24_13-41-39_094959634447_rgbf000022-resize_3/002549_2014-06-24_13-41-39_094959634447_rgbf000022-resize_3-target.png,125,1.476,4,3955,123,feet,jsons/VE125_randls_70_rotated.json,834418,957643,29,Man
122,116870,DepthScenes,duration_manipulation_targetAtFixation,jsons/VE125_randls_70_rotated.json,http://54.235.29.9/FacialAge/BNav_EC2/DepthDuration/v2_depth_duration_MTurk/v2_DepthDuration_HTML.html#125,125,1366,625,1366,768,8-30-2022,9-17-34,123,depth_duration_stimuli/001392_2014-06-19_16-07-59_260595134347_rgbf000046-resize_1/001392_2014-06-19_16-07-59_260595134347_rgbf000046-resize_1-target.png,125,4.135,5,4018,124,feet,jsons/VE125_randls_70_rotated.json,834418,957643,29,Man
123,116870,DepthScenes,duration_manipulation_targetAtFixation,jsons/VE125_randls_70_rotated.json,http://54.235.29.9/FacialAge/BNav_EC2/DepthDuration/v2_depth_duration_MTurk/v2_DepthDuration_HTML.html#125,125,1366,625,1366,768,8-30-2022,9-17-34,124,depth_duration_stimuli/001570_2014-06-20_17-21-09_260595134347_rgbf000135-resize_4/001570_2014-06-20_17-21-09_260595134347_rgbf000135-resize_4-target.png,125,4.467,5,4096,124,feet,jsons/VE125_randls_70_rotated.json,834418,957643,29,Man
124,116870,DepthScenes,duration_manipulation_targetAtFixation,jsons/VE125_randls_70_rotated.json,http://54.235.29.9/FacialAge/BNav_EC2/DepthDuration/v2_depth_duration_MTurk/v2_DepthDuration_HTML.html#125,125,1366,625,1366,768,8-30-2022,9-17-34,125,depth_duration_stimuli/002414_2014-06-28_20-24-58_260595134347_rgbf000067-resize_4/002414_2014-06-28_20-24-58_260595134347_rgbf000067-resize_4-target.png,125,4.363,5,3585,116,feet,jsons/VE125_randls_70_rotated.json,834418,957643,29,Man
125,116870,DepthScenes,duration_manipulation_targetAtFixation,jsons/VE125_randls_70_rotated.json,http://54.235.29.9/FacialAge/BNav_EC2/DepthDuration/v2_depth_duration_MTurk/v2_DepthDuration_HTML.html#125,125,1366,625,1366,768,8-30-2022,9-17-34,126,depth_duration_stimuli/000773_2014-06-08_22-24-54_260595134347_rgbf000093-resize_1/000773_2014-06-08_22-24-54_260595134347_rgbf000093-resize_1-target.png,125,4.973,5,3628,118,feet,jsons/VE125_randls_70_rotated.json,834418,957643,29,Man
126,116870,DepthScenes,duration_manipulation_targetAtFixation,jsons/VE125_randls_70_rotated.json,http://54.235.29.9/FacialAge/BNav_EC2/DepthDuration/v2_depth_duration_MTurk/v2_DepthDuration_HTML.html#125,125,1366,625,1366,768,8-30-2022,9-17-34,127,depth_duration_stimuli/001052_2014-06-08_18-24-54_260595134347_rgbf000130-resize_1/001052_2014-06-08_18-24-54_260595134347_rgbf000130-resize_1-target.png,125,4.1045,6,3470,123,feet,jsons/VE125_randls_70_rotated.json,834418,957643,29,Man
127,116870,DepthScenes,duration_manipulation_targetAtFixation,jsons/VE125_randls_70_rotated.json,http://54.235.29.9/FacialAge/BNav_EC2/DepthDuration/v2_depth_duration_MTurk/v2_DepthDuration_HTML.html#125,125,1366,625,1366,768,8-30-2022,9-17-34,128,depth_duration_stimuli/002988_2014-06-15_12-24-20_094959634447_rgbf000150-resize_1/002988_2014-06-15_12-24-20_094959634447_rgbf000150-resize_1-target.png,125,4.7669999999999995,6,2846,123,feet,jsons/VE125_randls_70_rotated.json,834418,957643,29,Man
128,116870,DepthScenes,duration_manipulation_targetAtFixation,jsons/VE125_randls_70_rotated.json,http://54.235.29.9/FacialAge/BNav_EC2/DepthDuration/v2_depth_duration_MTurk/v2_DepthDuration_HTML.html#125,125,1366,625,1366,768,8-30-2022,9-17-34,129,depth_duration_stimuli/000556_2014-06-09_22-42-56_260595134347_rgbf000214-resize_1/000556_2014-06-09_22-42-56_260595134347_rgbf000214-resize_1-target.png,125,4.8415,5,3457,125,feet,jsons/VE125_randls_70_rotated.json,834418,957643,29,Man
129,116870,DepthScenes,duration_manipulation_targetAtFixation,jsons/VE125_randls_70_rotated.json,http://54.235.29.9/FacialAge/BNav_EC2/DepthDuration/v2_depth_duration_MTurk/v2_DepthDuration_HTML.html#125,125,1366,625,1366,768,8-30-2022,9-17-34,130,depth_duration_stimuli/001158_2014-06-17_15-32-16_260595134347_rgbf000138-resize_2/001158_2014-06-17_15-32-16_260595134347_rgbf000138-resize_2-target.png,125,4.5315,6,3050,124,feet,jsons/VE125_randls_70_rotated.json,834418,957643,29,Man
130,116870,DepthScenes,duration_manipulation_targetAtFixation,jsons/VE125_randls_70_rotated.json,http://54.235.29.9/FacialAge/BNav_EC2/DepthDuration/v2_depth_duration_MTurk/v2_DepthDuration_HTML.html#125,125,1366,625,1366,768,8-30-2022,9-17-34,131,depth_duration_stimuli/000502_2014-06-08_23-02-32_260595134347_rgbf000063-resize_4/000502_2014-06-08_23-02-32_260595134347_rgbf000063-resize_4-target.png,125,2.431,6,3831,124,feet,jsons/VE125_randls_70_rotated.json,834418,957643,29,Man
131,116870,DepthScenes,duration_manipulation_targetAtFixation,jsons/VE125_randls_70_rotated.json,http://54.235.29.9/FacialAge/BNav_EC2/DepthDuration/v2_depth_duration_MTurk/v2_DepthDuration_HTML.html#125,125,1366,625,1366,768,8-30-2022,9-17-34,132,depth_duration_stimuli/001199_2014-06-17_16-03-48_260595134347_rgbf000077-resize_0/001199_2014-06-17_16-03-48_260595134347_rgbf000077-resize_0-target.png,125,3.4375,4,5582,124,feet,jsons/VE125_randls_70_rotated.json,834418,957643,29,Man
132,116870,DepthScenes,duration_manipulation_targetAtFixation,jsons/VE125_randls_70_rotated.json,http://54.235.29.9/FacialAge/BNav_EC2/DepthDuration/v2_depth_duration_MTurk/v2_DepthDuration_HTML.html#125,125,1366,625,1366,768,8-30-2022,9-17-34,133,depth_duration_stimuli/000749_2014-06-08_21-55-06_260595134347_rgbf000070-resize_2/000749_2014-06-08_21-55-06_260595134347_rgbf000070-resize_2-target.png,125,2.331,5,3128,126,feet,jsons/VE125_randls_70_rotated.json,834418,957643,29,Man
133,116870,DepthScenes,duration_manipulation_targetAtFixation,jsons/VE125_randls_70_rotated.json,http://54.235.29.9/FacialAge/BNav_EC2/DepthDuration/v2_depth_duration_MTurk/v2_DepthDuration_HTML.html#125,125,1366,625,1366,768,8-30-2022,9-17-34,134,depth_duration_stimuli/002788_2014-06-22_19-36-03_094959634447_rgbf000088-resize_2/002788_2014-06-22_19-36-03_094959634447_rgbf000088-resize_2-target.png,125,1.6465,6,3641,125,feet,jsons/VE125_randls_70_rotated.json,834418,957643,29,Man
134,116870,DepthScenes,duration_manipulation_targetAtFixation,jsons/VE125_randls_70_rotated.json,http://54.235.29.9/FacialAge/BNav_EC2/DepthDuration/v2_depth_duration_MTurk/v2_DepthDuration_HTML.html#125,125,1366,625,1366,768,8-30-2022,9-17-34,135,depth_duration_stimuli/000375_2014-06-08_11-17-29_260595134347_rgbf000133-resize_2/000375_2014-06-08_11-17-29_260595134347_rgbf000133-resize-original.jpg,125,4.718,0,4094,123,feet,jsons/VE125_randls_70_rotated.json,834418,957643,29,Man
135,116870,DepthScenes,duration_manipulation_targetAtFixation,jsons/VE125_randls_70_rotated.json,http://54.235.29.9/FacialAge/BNav_EC2/DepthDuration/v2_depth_duration_MTurk/v2_DepthDuration_HTML.html#125,125,1366,625,1366,768,8-30-2022,9-17-34,136,depth_duration_stimuli/002678_2014-06-13_16-15-32_094959634447_rgbf000151-resize_6/002678_2014-06-13_16-15-32_094959634447_rgbf000151-resize_6-target.png,125,2.1830000000000003,6,4576,138,feet,jsons/VE125_randls_70_rotated.json,834418,957643,29,Man
136,116870,DepthScenes,duration_manipulation_targetAtFixation,jsons/VE125_randls_70_rotated.json,http://54.235.29.9/FacialAge/BNav_EC2/DepthDuration/v2_depth_duration_MTurk/v2_DepthDuration_HTML.html#125,125,1366,625,1366,768,8-30-2022,9-17-34,137,depth_duration_stimuli/000368_2014-06-09_15-53-01_260595134347_rgbf000155-resize_2/000368_2014-06-09_15-53-01_260595134347_rgbf000155-resize_2-target.png,125,2.4859999999999998,6,2846,112,feet,jsons/VE125_randls_70_rotated.json,834418,957643,29,Man
137,116870,DepthScenes,duration_manipulation_targetAtFixation,jsons/VE125_randls_70_rotated.json,http://54.235.29.9/FacialAge/BNav_EC2/DepthDuration/v2_depth_duration_MTurk/v2_DepthDuration_HTML.html#125,125,1366,625,1366,768,8-30-2022,9-17-34,138,depth_duration_stimuli/000734_2014-06-08_17-39-11_260595134347_rgbf000128-resize_2/000734_2014-06-08_17-39-11_260595134347_rgbf000128-resize_2-target.png,125,4.098,4,3739,125,feet,jsons/VE125_randls_70_rotated.json,834418,957643,29,Man
138,116870,DepthScenes,duration_manipulation_targetAtFixation,jsons/VE125_randls_70_rotated.json,http://54.235.29.9/FacialAge/BNav_EC2/DepthDuration/v2_depth_duration_MTurk/v2_DepthDuration_HTML.html#125,125,1366,625,1366,768,8-30-2022,9-17-34,139,depth_duration_stimuli/000739_2014-06-08_18-45-58_260595134347_rgbf000068-resize_1/000739_2014-06-08_18-45-58_260595134347_rgbf000068-resize_1-target.png,125,3.534,5,3433,123,feet,jsons/VE125_randls_70_rotated.json,834418,957643,29,Man
139,116870,DepthScenes,duration_manipulation_targetAtFixation,jsons/VE125_randls_70_rotated.json,http://54.235.29.9/FacialAge/BNav_EC2/DepthDuration/v2_depth_duration_MTurk/v2_DepthDuration_HTML.html#125,125,1366,625,1366,768,8-30-2022,9-17-34,140,depth_duration_stimuli/001650_2014-06-20_12-09-00_260595134347_rgbf000087-resize_3/001650_2014-06-20_12-09-00_260595134347_rgbf000087-resize_3-target.png,125,1.9505,5,3206,125,feet,jsons/VE125_randls_70_rotated.json,834418,957643,29,Man
140,116870,DepthScenes,duration_manipulation_targetAtFixation,jsons/VE125_randls_70_rotated.json,http://54.235.29.9/FacialAge/BNav_EC2/DepthDuration/v2_depth_duration_MTurk/v2_DepthDuration_HTML.html#125,125,1366,625,1366,768,8-30-2022,9-17-34,141,depth_duration_stimuli/000682_2014-06-08_23-14-58_260595134347_rgbf000041-resize_5/000682_2014-06-08_23-14-58_260595134347_rgbf000041-resize_5-target.png,125,2.7239999999999998,6,3469,125,feet,jsons/VE125_randls_70_rotated.json,834418,957643,29,Man
141,116870,DepthScenes,duration_manipulation_targetAtFixation,jsons/VE125_randls_70_rotated.json,http://54.235.29.9/FacialAge/BNav_EC2/DepthDuration/v2_depth_duration_MTurk/v2_DepthDuration_HTML.html#125,125,1366,625,1366,768,8-30-2022,9-17-34,142,depth_duration_stimuli/003495_2014-05-21_16-01-51_094959634447_rgbf000100-resize_3/003495_2014-05-21_16-01-51_094959634447_rgbf000100-resize_3-target.png,125,1.6255,3,4139,138,feet,jsons/VE125_randls_70_rotated.json,834418,957643,29,Man
142,116870,DepthScenes,duration_manipulation_targetAtFixation,jsons/VE125_randls_70_rotated.json,http://54.235.29.9/FacialAge/BNav_EC2/DepthDuration/v2_depth_duration_MTurk/v2_DepthDuration_HTML.html#125,125,1366,625,1366,768,8-30-2022,9-17-34,143,depth_duration_stimuli/001244_2014-06-17_16-47-45_260595134347_rgbf000030-resize_4/001244_2014-06-17_16-47-45_260595134347_rgbf000030-resize_4-target.png,125,2.0425,3,2556,109,feet,jsons/VE125_randls_70_rotated.json,834418,957643,29,Man
143,116870,DepthScenes,duration_manipulation_targetAtFixation,jsons/VE125_randls_70_rotated.json,http://54.235.29.9/FacialAge/BNav_EC2/DepthDuration/v2_depth_duration_MTurk/v2_DepthDuration_HTML.html#125,125,1366,625,1366,768,8-30-2022,9-17-34,144,depth_duration_stimuli/000457_2014-06-08_16-52-43_260595134347_rgbf000199-resize_1/000457_2014-06-08_16-52-43_260595134347_rgbf000199-resize_1-target.png,125,3.6489999999999996,3,3533,123,feet,jsons/VE125_randls_70_rotated.json,834418,957643,29,Man
144,116870,DepthScenes,duration_manipulation_targetAtFixation,jsons/VE125_randls_70_rotated.json,http://54.235.29.9/FacialAge/BNav_EC2/DepthDuration/v2_depth_duration_MTurk/v2_DepthDuration_HTML.html#125,125,1366,625,1366,768,8-30-2022,9-17-34,145,depth_duration_stimuli/000929_2014-06-09_16-33-19_260595134347_rgbf000139-resize_0/000929_2014-06-09_16-33-19_260595134347_rgbf000139-resize_0-target.png,125,2.8680000000000003,3,3690,125,feet,jsons/VE125_randls_70_rotated.json,834418,957643,29,Man
145,116870,DepthScenes,duration_manipulation_targetAtFixation,jsons/VE125_randls_70_rotated.json,http://54.235.29.9/FacialAge/BNav_EC2/DepthDuration/v2_depth_duration_MTurk/v2_DepthDuration_HTML.html#125,125,1366,625,1366,768,8-30-2022,9-17-34,146,depth_duration_stimuli/003423_2014-05-21_10-23-26_094959634447_rgbf002665-resize_2/003423_2014-05-21_10-23-26_094959634447_rgbf002665-resize_2-target.png,125,3.2575,2,3080,123,feet,jsons/VE125_randls_70_rotated.json,834418,957643,29,Man
146,116870,DepthScenes,duration_manipulation_targetAtFixation,jsons/VE125_randls_70_rotated.json,http://54.235.29.9/FacialAge/BNav_EC2/DepthDuration/v2_depth_duration_MTurk/v2_DepthDuration_HTML.html#125,125,1366,625,1366,768,8-30-2022,9-17-34,147,depth_duration_stimuli/002905_2014-06-03_18-04-43_094959634447_rgbf000151-resize_2/002905_2014-06-03_18-04-43_094959634447_rgbf000151-resize_2-target.png,125,2.0295,3,3048,126,feet,jsons/VE125_randls_70_rotated.json,834418,957643,29,Man
147,116870,DepthScenes,duration_manipulation_targetAtFixation,jsons/VE125_randls_70_rotated.json,http://54.235.29.9/FacialAge/BNav_EC2/DepthDuration/v2_depth_duration_MTurk/v2_DepthDuration_HTML.html#125,125,1366,625,1366,768,8-30-2022,9-17-34,148,depth_duration_stimuli/002209_2014-06-28_18-36-10_260595134347_rgbf000051-resize_1/002209_2014-06-28_18-36-10_260595134347_rgbf000051-resize_1-target.png,125,2.057,4,4403,124,feet,jsons/VE125_randls_70_rotated.json,834418,957643,29,Man
148,116870,DepthScenes,duration_manipulation_targetAtFixation,jsons/VE125_randls_70_rotated.json,http://54.235.29.9/FacialAge/BNav_EC2/DepthDuration/v2_depth_duration_MTurk/v2_DepthDuration_HTML.html#125,125,1366,625,1366,768,8-30-2022,9-17-34,149,depth_duration_stimuli/002763_2014-06-22_19-13-10_094959634447_rgbf000075-resize_4/002763_2014-06-22_19-13-10_094959634447_rgbf000075-resize_4-target.png,125,1.68375,4,3378,124,feet,jsons/VE125_randls_70_rotated.json,834418,957643,29,Man
149,116870,DepthScenes,duration_manipulation_targetAtFixation,jsons/VE125_randls_70_rotated.json,http://54.235.29.9/FacialAge/BNav_EC2/DepthDuration/v2_depth_duration_MTurk/v2_DepthDuration_HTML.html#125,125,1366,625,1366,768,8-30-2022,9-17-34,150,depth_duration_stimuli/002875_2014-06-01_15-19-00_094959634447_rgbf000151-resize_1/002875_2014-06-01_15-19-00_094959634447_rgbf000151-resize_1-target.png,125,1.9675,4,4643,124,feet,jsons/VE125_randls_70_rotated.json,834418,957643,29,Man
150,116870,DepthScenes,duration_manipulation_targetAtFixation,jsons/VE125_randls_70_rotated.json,http://54.235.29.9/FacialAge/BNav_EC2/DepthDuration/v2_depth_duration_MTurk/v2_DepthDuration_HTML.html#125,125,1366,625,1366,768,8-30-2022,9-17-34,151,depth_duration_stimuli/001011_2014-06-08_23-18-54_260595134347_rgbf000044-resize_4/001011_2014-06-08_23-18-54_260595134347_rgbf000044-resize_4-target.png,125,2.4730000000000003,4,3952,138,feet,jsons/VE125_randls_70_rotated.json,834418,957643,29,Man
151,116870,DepthScenes,duration_manipulation_targetAtFixation,jsons/VE125_randls_70_rotated.json,http://54.235.29.9/FacialAge/BNav_EC2/DepthDuration/v2_depth_duration_MTurk/v2_DepthDuration_HTML.html#125,125,1366,625,1366,768,8-30-2022,9-17-34,152,depth_duration_stimuli/000569_2014-06-09_22-51-47_260595134347_rgbf000141-resize_3/000569_2014-06-09_22-51-47_260595134347_rgbf000141-resize-original.jpg,125,4.512,0,4191,113,feet,jsons/VE125_randls_70_rotated.json,834418,957643,29,Man
152,116870,DepthScenes,duration_manipulation_targetAtFixation,jsons/VE125_randls_70_rotated.json,http://54.235.29.9/FacialAge/BNav_EC2/DepthDuration/v2_depth_duration_MTurk/v2_DepthDuration_HTML.html#125,125,1366,625,1366,768,8-30-2022,9-17-34,153,depth_duration_stimuli/002995_2014-06-15_12-31-26_094959634447_rgbf000150-resize_1/002995_2014-06-15_12-31-26_094959634447_rgbf000150-resize_1-target.png,125,3.8360000000000003,5,3425,119,feet,jsons/VE125_randls_70_rotated.json,834418,957643,29,Man
153,116870,DepthScenes,duration_manipulation_targetAtFixation,jsons/VE125_randls_70_rotated.json,http://54.235.29.9/FacialAge/BNav_EC2/DepthDuration/v2_depth_duration_MTurk/v2_DepthDuration_HTML.html#125,125,1366,625,1366,768,8-30-2022,9-17-34,154,depth_duration_stimuli/002748_2014-06-22_19-07-22_094959634447_rgbf000078-resize_1/002748_2014-06-22_19-07-22_094959634447_rgbf000078-resize_1-target.png,125,4.6705,4,3957,126,feet,jsons/VE125_randls_70_rotated.json,834418,957643,29,Man
154,116870,DepthScenes,duration_manipulation_targetAtFixation,jsons/VE125_randls_70_rotated.json,http://54.235.29.9/FacialAge/BNav_EC2/DepthDuration/v2_depth_duration_MTurk/v2_DepthDuration_HTML.html#125,125,1366,625,1366,768,8-30-2022,9-17-34,155,depth_duration_stimuli/001584_2014-06-20_11-07-43_260595134347_rgbf000002-resize_1/001584_2014-06-20_11-07-43_260595134347_rgbf000002-resize_1-target.png,125,3.53,4,6315,125,feet,jsons/VE125_randls_70_rotated.json,834418,957643,29,Man
155,116870,DepthScenes,duration_manipulation_targetAtFixation,jsons/VE125_randls_70_rotated.json,http://54.235.29.9/FacialAge/BNav_EC2/DepthDuration/v2_depth_duration_MTurk/v2_DepthDuration_HTML.html#125,125,1366,625,1366,768,8-30-2022,9-17-34,156,depth_duration_stimuli/003621_2014-05-23_18-06-08_094959634447_rgbf000101-resize_1/003621_2014-05-23_18-06-08_094959634447_rgbf000101-resize_1-target.png,125,3.9835,4,4550,124,feet,jsons/VE125_randls_70_rotated.json,834418,957643,29,Man
156,116870,DepthScenes,duration_manipulation_targetAtFixation,jsons/VE125_randls_70_rotated.json,http://54.235.29.9/FacialAge/BNav_EC2/DepthDuration/v2_depth_duration_MTurk/v2_DepthDuration_HTML.html#125,125,1366,625,1366,768,8-30-2022,9-17-34,157,depth_duration_stimuli/003129_2014-05-12_10-48-10_094959634447_rgbf000100-resize_0/003129_2014-05-12_10-48-10_094959634447_rgbf000100-resize_0-target.png,125,4.9305,8,3768,124,feet,jsons/VE125_randls_70_rotated.json,834418,957643,29,Man
157,116870,DepthScenes,duration_manipulation_targetAtFixation,jsons/VE125_randls_70_rotated.json,http://54.235.29.9/FacialAge/BNav_EC2/DepthDuration/v2_depth_duration_MTurk/v2_DepthDuration_HTML.html#125,125,1366,625,1366,768,8-30-2022,9-17-34,158,depth_duration_stimuli/000414_2014-06-04_19-49-13_260595134347_rgbf000044-resize_0/000414_2014-06-04_19-49-13_260595134347_rgbf000044-resize_0-target.png,125,4.329,5,4194,139,feet,jsons/VE125_randls_70_rotated.json,834418,957643,29,Man
158,116870,DepthScenes,duration_manipulation_targetAtFixation,jsons/VE125_randls_70_rotated.json,http://54.235.29.9/FacialAge/BNav_EC2/DepthDuration/v2_depth_duration_MTurk/v2_DepthDuration_HTML.html#125,125,1366,625,1366,768,8-30-2022,9-17-34,159,depth_duration_stimuli/003083_2014-06-15_15-21-03_094959634447_rgbf000063-resize_1/003083_2014-06-15_15-21-03_094959634447_rgbf000063-resize_1-target.png,125,4.1405,6,3721,124,feet,jsons/VE125_randls_70_rotated.json,834418,957643,29,Man
159,116870,DepthScenes,duration_manipulation_targetAtFixation,jsons/VE125_randls_70_rotated.json,http://54.235.29.9/FacialAge/BNav_EC2/DepthDuration/v2_depth_duration_MTurk/v2_DepthDuration_HTML.html#125,125,1366,625,1366,768,8-30-2022,9-17-34,160,depth_duration_stimuli/000486_2014-06-09_20-47-20_260595134347_rgbf000143-resize_2/000486_2014-06-09_20-47-20_260595134347_rgbf000143-resize_2-target.png,125,4.8325,6,4627,124,feet,jsons/VE125_randls_70_rotated.json,834418,957643,29,Man
160,116870,DepthScenes,duration_manipulation_targetAtFixation,jsons/VE125_randls_70_rotated.json,http://54.235.29.9/FacialAge/BNav_EC2/DepthDuration/v2_depth_duration_MTurk/v2_DepthDuration_HTML.html#125,125,1366,625,1366,768,8-30-2022,9-17-34,161,depth_duration_stimuli/001815_2014-06-26_20-52-55_260595134347_rgbf000020-resize_0/001815_2014-06-26_20-52-55_260595134347_rgbf000020-resize_0-target.png,125,3.3865,6,4501,123,feet,jsons/VE125_randls_70_rotated.json,834418,957643,29,Man
161,116870,DepthScenes,duration_manipulation_targetAtFixation,jsons/VE125_randls_70_rotated.json,http://54.235.29.9/FacialAge/BNav_EC2/DepthDuration/v2_depth_duration_MTurk/v2_DepthDuration_HTML.html#125,125,1366,625,1366,768,8-30-2022,9-17-34,162,depth_duration_stimuli/001808_2014-06-26_20-50-58_260595134347_rgbf000029-resize_1/001808_2014-06-26_20-50-58_260595134347_rgbf000029-resize_1-target.png,125,4.249,6,3120,112,feet,jsons/VE125_randls_70_rotated.json,834418,957643,29,Man
162,116870,DepthScenes,duration_manipulation_targetAtFixation,jsons/VE125_randls_70_rotated.json,http://54.235.29.9/FacialAge/BNav_EC2/DepthDuration/v2_depth_duration_MTurk/v2_DepthDuration_HTML.html#125,125,1366,625,1366,768,8-30-2022,9-17-34,163,depth_duration_stimuli/002344_2014-06-28_20-06-29_260595134347_rgbf000030-resize_1/002344_2014-06-28_20-06-29_260595134347_rgbf000030-resize_1-target.png,125,1.5795,3,3253,123,feet,jsons/VE125_randls_70_rotated.json,834418,957643,29,Man
163,116870,DepthScenes,duration_manipulation_targetAtFixation,jsons/VE125_randls_70_rotated.json,http://54.235.29.9/FacialAge/BNav_EC2/DepthDuration/v2_depth_duration_MTurk/v2_DepthDuration_HTML.html#125,125,1366,625,1366,768,8-30-2022,9-17-34,164,depth_duration_stimuli/002725_2014-06-22_11-47-51_094959634447_rgbf000070-resize_1/002725_2014-06-22_11-47-51_094959634447_rgbf000070-resize_1-target.png,125,2.195,3,3089,125,feet,jsons/VE125_randls_70_rotated.json,834418,957643,29,Man
