,subjID,experimentName,versionName,sequenceName,url,selected_row,windowWidth,windowHeight,screenWidth,screenHeight,startDate,startTime,trial,stimulus,duration,actual_depth,depth_estimate,trial_RT,log_sceneDuration,unitSelection,seq_filepath,experimentTime,totalTime,age,gender
0,117428,DepthScenes,duration_manipulation_targetAtFixation,jsons/VE125_randls_34.json,http://54.235.29.9/FacialAge/BNav_EC2/DepthDuration/v2_depth_duration_MTurk/v2_DepthDuration_HTML.html#25,25,1364,625,1364,768,8-21-2022,9-37-7,1,depth_duration_stimuli/000739_2014-06-08_18-45-58_260595134347_rgbf000068-resize_1/000739_2014-06-08_18-45-58_260595134347_rgbf000068-resize_1-target.png,125,3.534,50.0,14090,125,meters,jsons/VE125_randls_34.json,885128,1175099,42,Woman
1,117428,DepthScenes,duration_manipulation_targetAtFixation,jsons/VE125_randls_34.json,http://54.235.29.9/FacialAge/BNav_EC2/DepthDuration/v2_depth_duration_MTurk/v2_DepthDuration_HTML.html#25,25,1364,625,1364,768,8-21-2022,9-37-7,2,depth_duration_stimuli/000734_2014-06-08_17-39-11_260595134347_rgbf000128-resize_2/000734_2014-06-08_17-39-11_260595134347_rgbf000128-resize_2-target.png,125,4.098,75.0,7229,126,meters,jsons/VE125_randls_34.json,885128,1175099,42,Woman
2,117428,DepthScenes,duration_manipulation_targetAtFixation,jsons/VE125_randls_34.json,http://54.235.29.9/FacialAge/BNav_EC2/DepthDuration/v2_depth_duration_MTurk/v2_DepthDuration_HTML.html#25,25,1364,625,1364,768,8-21-2022,9-37-7,3,depth_duration_stimuli/000788_2014-06-08_22-34-36_260595134347_rgbf000131-resize_1/000788_2014-06-08_22-34-36_260595134347_rgbf000131-resize_1-target.png,125,3.359,50.0,16259,126,meters,jsons/VE125_randls_34.json,885128,1175099,42,Woman
3,117428,DepthScenes,duration_manipulation_targetAtFixation,jsons/VE125_randls_34.json,http://54.235.29.9/FacialAge/BNav_EC2/DepthDuration/v2_depth_duration_MTurk/v2_DepthDuration_HTML.html#25,25,1364,625,1364,768,8-21-2022,9-37-7,4,depth_duration_stimuli/001235_2014-06-17_16-37-36_260595134347_rgbf000084-resize_4/001235_2014-06-17_16-37-36_260595134347_rgbf000084-resize_4-target.png,125,3.6605,75.0,3229,125,meters,jsons/VE125_randls_34.json,885128,1175099,42,Woman
4,117428,DepthScenes,duration_manipulation_targetAtFixation,jsons/VE125_randls_34.json,http://54.235.29.9/FacialAge/BNav_EC2/DepthDuration/v2_depth_duration_MTurk/v2_DepthDuration_HTML.html#25,25,1364,625,1364,768,8-21-2022,9-37-7,5,depth_duration_stimuli/000493_2014-06-09_21-01-18_260595134347_rgbf000196-resize_3/000493_2014-06-09_21-01-18_260595134347_rgbf000196-resize_3-target.png,125,3.44,50.0,4220,125,meters,jsons/VE125_randls_34.json,885128,1175099,42,Woman
5,117428,DepthScenes,duration_manipulation_targetAtFixation,jsons/VE125_randls_34.json,http://54.235.29.9/FacialAge/BNav_EC2/DepthDuration/v2_depth_duration_MTurk/v2_DepthDuration_HTML.html#25,25,1364,625,1364,768,8-21-2022,9-37-7,6,depth_duration_stimuli/000191_2014-05-12_17-07-38_260595134347_rgbf000199-resize_0/000191_2014-05-12_17-07-38_260595134347_rgbf000199-resize_0-target.png,125,3.7995,50.0,2818,125,meters,jsons/VE125_randls_34.json,885128,1175099,42,Woman
6,117428,DepthScenes,duration_manipulation_targetAtFixation,jsons/VE125_randls_34.json,http://54.235.29.9/FacialAge/BNav_EC2/DepthDuration/v2_depth_duration_MTurk/v2_DepthDuration_HTML.html#25,25,1364,625,1364,768,8-21-2022,9-37-7,7,depth_duration_stimuli/002213_2014-06-28_18-37-58_260595134347_rgbf000055-resize_1/002213_2014-06-28_18-37-58_260595134347_rgbf000055-resize_1-target.png,125,3.62,75.0,5400,125,meters,jsons/VE125_randls_34.json,885128,1175099,42,Woman
7,117428,DepthScenes,duration_manipulation_targetAtFixation,jsons/VE125_randls_34.json,http://54.235.29.9/FacialAge/BNav_EC2/DepthDuration/v2_depth_duration_MTurk/v2_DepthDuration_HTML.html#25,25,1364,625,1364,768,8-21-2022,9-37-7,8,depth_duration_stimuli/000691_2014-06-08_13-08-50_260595134347_rgbf000132-resize_3/000691_2014-06-08_13-08-50_260595134347_rgbf000132-resize_3-target.png,125,4.1530000000000005,50.0,7980,132,meters,jsons/VE125_randls_34.json,885128,1175099,42,Woman
8,117428,DepthScenes,duration_manipulation_targetAtFixation,jsons/VE125_randls_34.json,http://54.235.29.9/FacialAge/BNav_EC2/DepthDuration/v2_depth_duration_MTurk/v2_DepthDuration_HTML.html#25,25,1364,625,1364,768,8-21-2022,9-37-7,9,depth_duration_stimuli/002663_2014-06-13_15-50-26_094959634447_rgbf000075-resize_1/002663_2014-06-13_15-50-26_094959634447_rgbf000075-resize_1-target.png,125,4.7495,75.0,5238,124,meters,jsons/VE125_randls_34.json,885128,1175099,42,Woman
9,117428,DepthScenes,duration_manipulation_targetAtFixation,jsons/VE125_randls_34.json,http://54.235.29.9/FacialAge/BNav_EC2/DepthDuration/v2_depth_duration_MTurk/v2_DepthDuration_HTML.html#25,25,1364,625,1364,768,8-21-2022,9-37-7,10,depth_duration_stimuli/000409_2014-06-04_19-23-33_260595134347_rgbf000067-resize_0/000409_2014-06-04_19-23-33_260595134347_rgbf000067-resize_0-target.png,125,3.7335,50.0,3608,124,meters,jsons/VE125_randls_34.json,885128,1175099,42,Woman
10,117428,DepthScenes,duration_manipulation_targetAtFixation,jsons/VE125_randls_34.json,http://54.235.29.9/FacialAge/BNav_EC2/DepthDuration/v2_depth_duration_MTurk/v2_DepthDuration_HTML.html#25,25,1364,625,1364,768,8-21-2022,9-37-7,11,depth_duration_stimuli/000486_2014-06-09_20-47-20_260595134347_rgbf000143-resize_2/000486_2014-06-09_20-47-20_260595134347_rgbf000143-resize_2-target.png,125,4.8325,50.0,3651,125,meters,jsons/VE125_randls_34.json,885128,1175099,42,Woman
11,117428,DepthScenes,duration_manipulation_targetAtFixation,jsons/VE125_randls_34.json,http://54.235.29.9/FacialAge/BNav_EC2/DepthDuration/v2_depth_duration_MTurk/v2_DepthDuration_HTML.html#25,25,1364,625,1364,768,8-21-2022,9-37-7,12,depth_duration_stimuli/003083_2014-06-15_15-21-03_094959634447_rgbf000063-resize_1/003083_2014-06-15_15-21-03_094959634447_rgbf000063-resize_1-target.png,125,4.1405,75.0,3579,125,meters,jsons/VE125_randls_34.json,885128,1175099,42,Woman
12,117428,DepthScenes,duration_manipulation_targetAtFixation,jsons/VE125_randls_34.json,http://54.235.29.9/FacialAge/BNav_EC2/DepthDuration/v2_depth_duration_MTurk/v2_DepthDuration_HTML.html#25,25,1364,625,1364,768,8-21-2022,9-37-7,13,depth_duration_stimuli/000569_2014-06-09_22-51-47_260595134347_rgbf000141-resize_3/000569_2014-06-09_22-51-47_260595134347_rgbf000141-resize-original.jpg,125,4.512,50.0,6979,126,meters,jsons/VE125_randls_34.json,885128,1175099,42,Woman
13,117428,DepthScenes,duration_manipulation_targetAtFixation,jsons/VE125_randls_34.json,http://54.235.29.9/FacialAge/BNav_EC2/DepthDuration/v2_depth_duration_MTurk/v2_DepthDuration_HTML.html#25,25,1364,625,1364,768,8-21-2022,9-37-7,14,depth_duration_stimuli/000522_2014-06-08_13-35-06_260595134347_rgbf000244-resize_1/000522_2014-06-08_13-35-06_260595134347_rgbf000244-resize_1-target.png,125,2.3715,75.0,5858,125,meters,jsons/VE125_randls_34.json,885128,1175099,42,Woman
14,117428,DepthScenes,duration_manipulation_targetAtFixation,jsons/VE125_randls_34.json,http://54.235.29.9/FacialAge/BNav_EC2/DepthDuration/v2_depth_duration_MTurk/v2_DepthDuration_HTML.html#25,25,1364,625,1364,768,8-21-2022,9-37-7,15,depth_duration_stimuli/002949_2014-06-26_15-57-42_094959634447_rgbf000079-resize_1/002949_2014-06-26_15-57-42_094959634447_rgbf000079-resize_1-target.png,125,1.8915,75.0,3307,125,meters,jsons/VE125_randls_34.json,885128,1175099,42,Woman
15,117428,DepthScenes,duration_manipulation_targetAtFixation,jsons/VE125_randls_34.json,http://54.235.29.9/FacialAge/BNav_EC2/DepthDuration/v2_depth_duration_MTurk/v2_DepthDuration_HTML.html#25,25,1364,625,1364,768,8-21-2022,9-37-7,16,depth_duration_stimuli/001570_2014-06-20_17-21-09_260595134347_rgbf000135-resize_4/001570_2014-06-20_17-21-09_260595134347_rgbf000135-resize_4-target.png,125,4.467,50.0,2797,125,meters,jsons/VE125_randls_34.json,885128,1175099,42,Woman
16,117428,DepthScenes,duration_manipulation_targetAtFixation,jsons/VE125_randls_34.json,http://54.235.29.9/FacialAge/BNav_EC2/DepthDuration/v2_depth_duration_MTurk/v2_DepthDuration_HTML.html#25,25,1364,625,1364,768,8-21-2022,9-37-7,17,depth_duration_stimuli/001392_2014-06-19_16-07-59_260595134347_rgbf000046-resize_1/001392_2014-06-19_16-07-59_260595134347_rgbf000046-resize_1-target.png,125,4.135,50.0,2555,124,meters,jsons/VE125_randls_34.json,885128,1175099,42,Woman
17,117428,DepthScenes,duration_manipulation_targetAtFixation,jsons/VE125_randls_34.json,http://54.235.29.9/FacialAge/BNav_EC2/DepthDuration/v2_depth_duration_MTurk/v2_DepthDuration_HTML.html#25,25,1364,625,1364,768,8-21-2022,9-37-7,18,depth_duration_stimuli/001158_2014-06-17_15-32-16_260595134347_rgbf000138-resize_2/001158_2014-06-17_15-32-16_260595134347_rgbf000138-resize_2-target.png,125,4.5315,75.0,4559,126,meters,jsons/VE125_randls_34.json,885128,1175099,42,Woman
18,117428,DepthScenes,duration_manipulation_targetAtFixation,jsons/VE125_randls_34.json,http://54.235.29.9/FacialAge/BNav_EC2/DepthDuration/v2_depth_duration_MTurk/v2_DepthDuration_HTML.html#25,25,1364,625,1364,768,8-21-2022,9-37-7,19,depth_duration_stimuli/000556_2014-06-09_22-42-56_260595134347_rgbf000214-resize_1/000556_2014-06-09_22-42-56_260595134347_rgbf000214-resize_1-target.png,125,4.8415,80.0,3038,125,meters,jsons/VE125_randls_34.json,885128,1175099,42,Woman
19,117428,DepthScenes,duration_manipulation_targetAtFixation,jsons/VE125_randls_34.json,http://54.235.29.9/FacialAge/BNav_EC2/DepthDuration/v2_depth_duration_MTurk/v2_DepthDuration_HTML.html#25,25,1364,625,1364,768,8-21-2022,9-37-7,20,depth_duration_stimuli/002118_2014-06-25_20-32-08_260595134347_rgbf000078-resize_1/002118_2014-06-25_20-32-08_260595134347_rgbf000078-resize_1-target.png,125,2.6460000000000004,50.0,3762,126,meters,jsons/VE125_randls_34.json,885128,1175099,42,Woman
20,117428,DepthScenes,duration_manipulation_targetAtFixation,jsons/VE125_randls_34.json,http://54.235.29.9/FacialAge/BNav_EC2/DepthDuration/v2_depth_duration_MTurk/v2_DepthDuration_HTML.html#25,25,1364,625,1364,768,8-21-2022,9-37-7,21,depth_duration_stimuli/001516_2014-06-20_16-25-09_260595134347_rgbf000076-resize_2/001516_2014-06-20_16-25-09_260595134347_rgbf000076-resize_2-target.png,125,1.7445,90.0,3851,124,meters,jsons/VE125_randls_34.json,885128,1175099,42,Woman
21,117428,DepthScenes,duration_manipulation_targetAtFixation,jsons/VE125_randls_34.json,http://54.235.29.9/FacialAge/BNav_EC2/DepthDuration/v2_depth_duration_MTurk/v2_DepthDuration_HTML.html#25,25,1364,625,1364,768,8-21-2022,9-37-7,22,depth_duration_stimuli/000773_2014-06-08_22-24-54_260595134347_rgbf000093-resize_1/000773_2014-06-08_22-24-54_260595134347_rgbf000093-resize_1-target.png,125,4.973,80.0,5947,125,meters,jsons/VE125_randls_34.json,885128,1175099,42,Woman
22,117428,DepthScenes,duration_manipulation_targetAtFixation,jsons/VE125_randls_34.json,http://54.235.29.9/FacialAge/BNav_EC2/DepthDuration/v2_depth_duration_MTurk/v2_DepthDuration_HTML.html#25,25,1364,625,1364,768,8-21-2022,9-37-7,23,depth_duration_stimuli/002414_2014-06-28_20-24-58_260595134347_rgbf000067-resize_4/002414_2014-06-28_20-24-58_260595134347_rgbf000067-resize_4-target.png,125,4.363,75.0,4421,125,meters,jsons/VE125_randls_34.json,885128,1175099,42,Woman
23,117428,DepthScenes,duration_manipulation_targetAtFixation,jsons/VE125_randls_34.json,http://54.235.29.9/FacialAge/BNav_EC2/DepthDuration/v2_depth_duration_MTurk/v2_DepthDuration_HTML.html#25,25,1364,625,1364,768,8-21-2022,9-37-7,24,depth_duration_stimuli/002375_2014-06-28_20-13-44_260595134347_rgbf000032-resize_1/002375_2014-06-28_20-13-44_260595134347_rgbf000032-resize_1-target.png,125,4.0175,50.0,5641,126,meters,jsons/VE125_randls_34.json,885128,1175099,42,Woman
24,117428,DepthScenes,duration_manipulation_targetAtFixation,jsons/VE125_randls_34.json,http://54.235.29.9/FacialAge/BNav_EC2/DepthDuration/v2_depth_duration_MTurk/v2_DepthDuration_HTML.html#25,25,1364,625,1364,768,8-21-2022,9-37-7,25,depth_duration_stimuli/002657_2014-06-13_15-29-54_094959634447_rgbf000150-resize_1/002657_2014-06-13_15-29-54_094959634447_rgbf000150-resize_1-target.png,125,4.919,50.0,2518,124,meters,jsons/VE125_randls_34.json,885128,1175099,42,Woman
25,117428,DepthScenes,duration_manipulation_targetAtFixation,jsons/VE125_randls_34.json,http://54.235.29.9/FacialAge/BNav_EC2/DepthDuration/v2_depth_duration_MTurk/v2_DepthDuration_HTML.html#25,25,1364,625,1364,768,8-21-2022,9-37-7,26,depth_duration_stimuli/002057_2014-06-24_21-00-13_260595134347_rgbf000120-resize_1/002057_2014-06-24_21-00-13_260595134347_rgbf000120-resize_1-target.png,125,2.967,70.0,4030,125,meters,jsons/VE125_randls_34.json,885128,1175099,42,Woman
26,117428,DepthScenes,duration_manipulation_targetAtFixation,jsons/VE125_randls_34.json,http://54.235.29.9/FacialAge/BNav_EC2/DepthDuration/v2_depth_duration_MTurk/v2_DepthDuration_HTML.html#25,25,1364,625,1364,768,8-21-2022,9-37-7,27,depth_duration_stimuli/000709_2014-06-08_13-51-55_260595134347_rgbf000068-resize_3/000709_2014-06-08_13-51-55_260595134347_rgbf000068-resize_3-target.png,125,1.8030000000000002,50.0,3870,125,meters,jsons/VE125_randls_34.json,885128,1175099,42,Woman
27,117428,DepthScenes,duration_manipulation_targetAtFixation,jsons/VE125_randls_34.json,http://54.235.29.9/FacialAge/BNav_EC2/DepthDuration/v2_depth_duration_MTurk/v2_DepthDuration_HTML.html#25,25,1364,625,1364,768,8-21-2022,9-37-7,28,depth_duration_stimuli/001167_2014-06-17_15-38-07_260595134347_rgbf000108-resize_0/001167_2014-06-17_15-38-07_260595134347_rgbf000108-resize_0-target.png,125,1.8505,50.0,4192,125,meters,jsons/VE125_randls_34.json,885128,1175099,42,Woman
28,117428,DepthScenes,duration_manipulation_targetAtFixation,jsons/VE125_randls_34.json,http://54.235.29.9/FacialAge/BNav_EC2/DepthDuration/v2_depth_duration_MTurk/v2_DepthDuration_HTML.html#25,25,1364,625,1364,768,8-21-2022,9-37-7,29,depth_duration_stimuli/003587_2014-05-23_16-48-02_094959634447_rgbf002384-resize_2/003587_2014-05-23_16-48-02_094959634447_rgbf002384-resize_2-target.png,125,1.357,50.0,7976,125,meters,jsons/VE125_randls_34.json,885128,1175099,42,Woman
29,117428,DepthScenes,duration_manipulation_targetAtFixation,jsons/VE125_randls_34.json,http://54.235.29.9/FacialAge/BNav_EC2/DepthDuration/v2_depth_duration_MTurk/v2_DepthDuration_HTML.html#25,25,1364,625,1364,768,8-21-2022,9-37-7,30,depth_duration_stimuli/000375_2014-06-08_11-17-29_260595134347_rgbf000133-resize_2/000375_2014-06-08_11-17-29_260595134347_rgbf000133-resize-original.jpg,125,4.718,75.0,3549,124,meters,jsons/VE125_randls_34.json,885128,1175099,42,Woman
30,117428,DepthScenes,duration_manipulation_targetAtFixation,jsons/VE125_randls_34.json,http://54.235.29.9/FacialAge/BNav_EC2/DepthDuration/v2_depth_duration_MTurk/v2_DepthDuration_HTML.html#25,25,1364,625,1364,768,8-21-2022,9-37-7,31,depth_duration_stimuli/000414_2014-06-04_19-49-13_260595134347_rgbf000044-resize_0/000414_2014-06-04_19-49-13_260595134347_rgbf000044-resize_0-target.png,125,4.329,50.0,2828,124,meters,jsons/VE125_randls_34.json,885128,1175099,42,Woman
31,117428,DepthScenes,duration_manipulation_targetAtFixation,jsons/VE125_randls_34.json,http://54.235.29.9/FacialAge/BNav_EC2/DepthDuration/v2_depth_duration_MTurk/v2_DepthDuration_HTML.html#25,25,1364,625,1364,768,8-21-2022,9-37-7,32,depth_duration_stimuli/003129_2014-05-12_10-48-10_094959634447_rgbf000100-resize_0/003129_2014-05-12_10-48-10_094959634447_rgbf000100-resize_0-target.png,125,4.9305,75.0,2680,126,meters,jsons/VE125_randls_34.json,885128,1175099,42,Woman
32,117428,DepthScenes,duration_manipulation_targetAtFixation,jsons/VE125_randls_34.json,http://54.235.29.9/FacialAge/BNav_EC2/DepthDuration/v2_depth_duration_MTurk/v2_DepthDuration_HTML.html#25,25,1364,625,1364,768,8-21-2022,9-37-7,33,depth_duration_stimuli/001449_2014-06-19_17-01-27_260595134347_rgbf000116-resize_2/001449_2014-06-19_17-01-27_260595134347_rgbf000116-resize_2-target.png,125,3.452,75.0,5909,124,meters,jsons/VE125_randls_34.json,885128,1175099,42,Woman
33,117428,DepthScenes,duration_manipulation_targetAtFixation,jsons/VE125_randls_34.json,http://54.235.29.9/FacialAge/BNav_EC2/DepthDuration/v2_depth_duration_MTurk/v2_DepthDuration_HTML.html#25,25,1364,625,1364,768,8-21-2022,9-37-7,34,depth_duration_stimuli/001450_2014-06-19_17-02-03_260595134347_rgbf000203-resize_4/001450_2014-06-19_17-02-03_260595134347_rgbf000203-resize_4-target.png,125,4.0106666666667,80.0,3356,123,meters,jsons/VE125_randls_34.json,885128,1175099,42,Woman
34,117428,DepthScenes,duration_manipulation_targetAtFixation,jsons/VE125_randls_34.json,http://54.235.29.9/FacialAge/BNav_EC2/DepthDuration/v2_depth_duration_MTurk/v2_DepthDuration_HTML.html#25,25,1364,625,1364,768,8-21-2022,9-37-7,35,depth_duration_stimuli/001133_2014-06-17_14-49-16_260595134347_rgbf000100-resize_0/001133_2014-06-17_14-49-16_260595134347_rgbf000100-resize_0-target.png,125,4.2115,50.0,3421,125,meters,jsons/VE125_randls_34.json,885128,1175099,42,Woman
35,117428,DepthScenes,duration_manipulation_targetAtFixation,jsons/VE125_randls_34.json,http://54.235.29.9/FacialAge/BNav_EC2/DepthDuration/v2_depth_duration_MTurk/v2_DepthDuration_HTML.html#25,25,1364,625,1364,768,8-21-2022,9-37-7,36,depth_duration_stimuli/001132_2014-06-17_14-48-54_260595134347_rgbf000100-resize_2/001132_2014-06-17_14-48-54_260595134347_rgbf000100-resize_2-target.png,125,3.753,50.0,2492,97,meters,jsons/VE125_randls_34.json,885128,1175099,42,Woman
36,117428,DepthScenes,duration_manipulation_targetAtFixation,jsons/VE125_randls_34.json,http://54.235.29.9/FacialAge/BNav_EC2/DepthDuration/v2_depth_duration_MTurk/v2_DepthDuration_HTML.html#25,25,1364,625,1364,768,8-21-2022,9-37-7,37,depth_duration_stimuli/000470_2014-06-09_19-42-40_260595134347_rgbf000094-resize_1/000470_2014-06-09_19-42-40_260595134347_rgbf000094-resize_1-target.png,125,1.831,75.0,3469,124,meters,jsons/VE125_randls_34.json,885128,1175099,42,Woman
37,117428,DepthScenes,duration_manipulation_targetAtFixation,jsons/VE125_randls_34.json,http://54.235.29.9/FacialAge/BNav_EC2/DepthDuration/v2_depth_duration_MTurk/v2_DepthDuration_HTML.html#25,25,1364,625,1364,768,8-21-2022,9-37-7,38,depth_duration_stimuli/000109_2014-05-14_23-41-52_260595134347_rgbf000035-resize_9/000109_2014-05-14_23-41-52_260595134347_rgbf000035-resize_9-target.png,125,1.3545,50.0,2388,125,meters,jsons/VE125_randls_34.json,885128,1175099,42,Woman
38,117428,DepthScenes,duration_manipulation_targetAtFixation,jsons/VE125_randls_34.json,http://54.235.29.9/FacialAge/BNav_EC2/DepthDuration/v2_depth_duration_MTurk/v2_DepthDuration_HTML.html#25,25,1364,625,1364,768,8-21-2022,9-37-7,39,depth_duration_stimuli/000469_2014-06-09_19-42-10_260595134347_rgbf000081-resize_1/000469_2014-06-09_19-42-10_260595134347_rgbf000081-resize_1-target.png,125,1.652,75.0,3530,124,meters,jsons/VE125_randls_34.json,885128,1175099,42,Woman
39,117428,DepthScenes,duration_manipulation_targetAtFixation,jsons/VE125_randls_34.json,http://54.235.29.9/FacialAge/BNav_EC2/DepthDuration/v2_depth_duration_MTurk/v2_DepthDuration_HTML.html#25,25,1364,625,1364,768,8-21-2022,9-37-7,40,depth_duration_stimuli/000483_2014-06-09_20-41-45_260595134347_rgbf000116-resize_4/000483_2014-06-09_20-41-45_260595134347_rgbf000116-resize_4-target.png,125,1.337,75.0,2620,126,meters,jsons/VE125_randls_34.json,885128,1175099,42,Woman
40,117428,DepthScenes,duration_manipulation_targetAtFixation,jsons/VE125_randls_34.json,http://54.235.29.9/FacialAge/BNav_EC2/DepthDuration/v2_depth_duration_MTurk/v2_DepthDuration_HTML.html#25,25,1364,625,1364,768,8-21-2022,9-37-7,41,depth_duration_stimuli/002784_2014-06-22_19-26-30_094959634447_rgbf000083-resize_3/002784_2014-06-22_19-26-30_094959634447_rgbf000083-resize_3-target.png,125,1.8046666666667,100.0,5029,125,meters,jsons/VE125_randls_34.json,885128,1175099,42,Woman
41,117428,DepthScenes,duration_manipulation_targetAtFixation,jsons/VE125_randls_34.json,http://54.235.29.9/FacialAge/BNav_EC2/DepthDuration/v2_depth_duration_MTurk/v2_DepthDuration_HTML.html#25,25,1364,625,1364,768,8-21-2022,9-37-7,42,depth_duration_stimuli/001100_2014-06-15_17-46-26_260595134347_rgbf000225-resize_2/001100_2014-06-15_17-46-26_260595134347_rgbf000225-resize_2-target.png,125,2.24,75.0,3759,126,meters,jsons/VE125_randls_34.json,885128,1175099,42,Woman
42,117428,DepthScenes,duration_manipulation_targetAtFixation,jsons/VE125_randls_34.json,http://54.235.29.9/FacialAge/BNav_EC2/DepthDuration/v2_depth_duration_MTurk/v2_DepthDuration_HTML.html#25,25,1364,625,1364,768,8-21-2022,9-37-7,43,depth_duration_stimuli/002989_2014-06-15_12-25-03_094959634447_rgbf000150-resize_3/002989_2014-06-15_12-25-03_094959634447_rgbf000150-resize_3-target.png,125,4.1975,75.0,5335,115,meters,jsons/VE125_randls_34.json,885128,1175099,42,Woman
43,117428,DepthScenes,duration_manipulation_targetAtFixation,jsons/VE125_randls_34.json,http://54.235.29.9/FacialAge/BNav_EC2/DepthDuration/v2_depth_duration_MTurk/v2_DepthDuration_HTML.html#25,25,1364,625,1364,768,8-21-2022,9-37-7,44,depth_duration_stimuli/000866_2014-06-09_20-45-42_260595134347_rgbf000139-resize_1/000866_2014-06-09_20-45-42_260595134347_rgbf000139-resize_1-target.png,125,3.2155,75.0,2517,125,meters,jsons/VE125_randls_34.json,885128,1175099,42,Woman
44,117428,DepthScenes,duration_manipulation_targetAtFixation,jsons/VE125_randls_34.json,http://54.235.29.9/FacialAge/BNav_EC2/DepthDuration/v2_depth_duration_MTurk/v2_DepthDuration_HTML.html#25,25,1364,625,1364,768,8-21-2022,9-37-7,45,depth_duration_stimuli/000787_2014-06-08_22-33-53_260595134347_rgbf000175-resize_1/000787_2014-06-08_22-33-53_260595134347_rgbf000175-resize-original.jpg,125,4.784,75.0,3922,125,meters,jsons/VE125_randls_34.json,885128,1175099,42,Woman
45,117428,DepthScenes,duration_manipulation_targetAtFixation,jsons/VE125_randls_34.json,http://54.235.29.9/FacialAge/BNav_EC2/DepthDuration/v2_depth_duration_MTurk/v2_DepthDuration_HTML.html#25,25,1364,625,1364,768,8-21-2022,9-37-7,46,depth_duration_stimuli/003070_2014-06-15_14-58-27_094959634447_rgbf000150-resize_3/003070_2014-06-15_14-58-27_094959634447_rgbf000150-resize_3-target.png,125,2.9415,50.0,3129,125,meters,jsons/VE125_randls_34.json,885128,1175099,42,Woman
46,117428,DepthScenes,duration_manipulation_targetAtFixation,jsons/VE125_randls_34.json,http://54.235.29.9/FacialAge/BNav_EC2/DepthDuration/v2_depth_duration_MTurk/v2_DepthDuration_HTML.html#25,25,1364,625,1364,768,8-21-2022,9-37-7,47,depth_duration_stimuli/000943_2014-06-09_19-31-07_260595134347_rgbf000128-resize_1/000943_2014-06-09_19-31-07_260595134347_rgbf000128-resize_1-target.png,125,1.9765,50.0,2708,125,meters,jsons/VE125_randls_34.json,885128,1175099,42,Woman
47,117428,DepthScenes,duration_manipulation_targetAtFixation,jsons/VE125_randls_34.json,http://54.235.29.9/FacialAge/BNav_EC2/DepthDuration/v2_depth_duration_MTurk/v2_DepthDuration_HTML.html#25,25,1364,625,1364,768,8-21-2022,9-37-7,48,depth_duration_stimuli/003292_2014-05-14_21-53-49_094959634447_rgbf000100-resize_2/003292_2014-05-14_21-53-49_094959634447_rgbf000100-resize_2-target.png,125,3.4815,50.0,2850,125,meters,jsons/VE125_randls_34.json,885128,1175099,42,Woman
48,117428,DepthScenes,duration_manipulation_targetAtFixation,jsons/VE125_randls_34.json,http://54.235.29.9/FacialAge/BNav_EC2/DepthDuration/v2_depth_duration_MTurk/v2_DepthDuration_HTML.html#25,25,1364,625,1364,768,8-21-2022,9-37-7,49,depth_duration_stimuli/002639_2014-06-24_14-51-37_094959634447_rgbf000074-resize_4/002639_2014-06-24_14-51-37_094959634447_rgbf000074-resize_4-target.png,125,4.0375,50.0,2608,125,meters,jsons/VE125_randls_34.json,885128,1175099,42,Woman
49,117428,DepthScenes,duration_manipulation_targetAtFixation,jsons/VE125_randls_34.json,http://54.235.29.9/FacialAge/BNav_EC2/DepthDuration/v2_depth_duration_MTurk/v2_DepthDuration_HTML.html#25,25,1364,625,1364,768,8-21-2022,9-37-7,50,depth_duration_stimuli/002570_2014-06-24_13-59-54_094959634447_rgbf000059-resize_0/002570_2014-06-24_13-59-54_094959634447_rgbf000059-resize_0-target.png,125,4.037,75.0,2890,125,meters,jsons/VE125_randls_34.json,885128,1175099,42,Woman
50,117428,DepthScenes,duration_manipulation_targetAtFixation,jsons/VE125_randls_34.json,http://54.235.29.9/FacialAge/BNav_EC2/DepthDuration/v2_depth_duration_MTurk/v2_DepthDuration_HTML.html#25,25,1364,625,1364,768,8-21-2022,9-37-7,51,depth_duration_stimuli/002467_2014-06-28_20-38-07_260595134347_rgbf000026-resize_2/002467_2014-06-28_20-38-07_260595134347_rgbf000026-resize_2-target.png,125,4.742,50.0,2349,125,meters,jsons/VE125_randls_34.json,885128,1175099,42,Woman
51,117428,DepthScenes,duration_manipulation_targetAtFixation,jsons/VE125_randls_34.json,http://54.235.29.9/FacialAge/BNav_EC2/DepthDuration/v2_depth_duration_MTurk/v2_DepthDuration_HTML.html#25,25,1364,625,1364,768,8-21-2022,9-37-7,52,depth_duration_stimuli/000917_2014-06-09_22-45-29_260595134347_rgbf000149-resize_3/000917_2014-06-09_22-45-29_260595134347_rgbf000149-resize_3-target.png,125,4.1865,75.0,3326,125,meters,jsons/VE125_randls_34.json,885128,1175099,42,Woman
52,117428,DepthScenes,duration_manipulation_targetAtFixation,jsons/VE125_randls_34.json,http://54.235.29.9/FacialAge/BNav_EC2/DepthDuration/v2_depth_duration_MTurk/v2_DepthDuration_HTML.html#25,25,1364,625,1364,768,8-21-2022,9-37-7,53,depth_duration_stimuli/002323_2014-06-28_20-01-54_260595134347_rgbf000051-resize_4/002323_2014-06-28_20-01-54_260595134347_rgbf000051-resize_4-target.png,125,3.7310000000000003,50.0,2592,125,meters,jsons/VE125_randls_34.json,885128,1175099,42,Woman
53,117428,DepthScenes,duration_manipulation_targetAtFixation,jsons/VE125_randls_34.json,http://54.235.29.9/FacialAge/BNav_EC2/DepthDuration/v2_depth_duration_MTurk/v2_DepthDuration_HTML.html#25,25,1364,625,1364,768,8-21-2022,9-37-7,54,depth_duration_stimuli/003492_2014-05-21_15-50-55_094959634447_rgbf000828-resize_1/003492_2014-05-21_15-50-55_094959634447_rgbf000828-resize_1-target.png,125,4.06875,50.0,17668,125,meters,jsons/VE125_randls_34.json,885128,1175099,42,Woman
54,117428,DepthScenes,duration_manipulation_targetAtFixation,jsons/VE125_randls_34.json,http://54.235.29.9/FacialAge/BNav_EC2/DepthDuration/v2_depth_duration_MTurk/v2_DepthDuration_HTML.html#25,25,1364,625,1364,768,8-21-2022,9-37-7,55,depth_duration_stimuli/002568_2014-06-24_13-59-21_094959634447_rgbf000062-resize_4/002568_2014-06-24_13-59-21_094959634447_rgbf000062-resize_4-target.png,125,3.015,75.0,3920,126,meters,jsons/VE125_randls_34.json,885128,1175099,42,Woman
55,117428,DepthScenes,duration_manipulation_targetAtFixation,jsons/VE125_randls_34.json,http://54.235.29.9/FacialAge/BNav_EC2/DepthDuration/v2_depth_duration_MTurk/v2_DepthDuration_HTML.html#25,25,1364,625,1364,768,8-21-2022,9-37-7,56,depth_duration_stimuli/001011_2014-06-08_23-18-54_260595134347_rgbf000044-resize_4/001011_2014-06-08_23-18-54_260595134347_rgbf000044-resize_4-target.png,125,2.4730000000000003,50.0,8073,125,meters,jsons/VE125_randls_34.json,885128,1175099,42,Woman
56,117428,DepthScenes,duration_manipulation_targetAtFixation,jsons/VE125_randls_34.json,http://54.235.29.9/FacialAge/BNav_EC2/DepthDuration/v2_depth_duration_MTurk/v2_DepthDuration_HTML.html#25,25,1364,625,1364,768,8-21-2022,9-37-7,57,depth_duration_stimuli/002875_2014-06-01_15-19-00_094959634447_rgbf000151-resize_1/002875_2014-06-01_15-19-00_094959634447_rgbf000151-resize_1-target.png,125,1.9675,100.0,5204,125,meters,jsons/VE125_randls_34.json,885128,1175099,42,Woman
57,117428,DepthScenes,duration_manipulation_targetAtFixation,jsons/VE125_randls_34.json,http://54.235.29.9/FacialAge/BNav_EC2/DepthDuration/v2_depth_duration_MTurk/v2_DepthDuration_HTML.html#25,25,1364,625,1364,768,8-21-2022,9-37-7,58,depth_duration_stimuli/001016_2014-06-09_16-16-10_260595134347_rgbf000112-resize_5/001016_2014-06-09_16-16-10_260595134347_rgbf000112-resize_5-target.png,125,1.6565,50.0,10140,125,meters,jsons/VE125_randls_34.json,885128,1175099,42,Woman
58,117428,DepthScenes,duration_manipulation_targetAtFixation,jsons/VE125_randls_34.json,http://54.235.29.9/FacialAge/BNav_EC2/DepthDuration/v2_depth_duration_MTurk/v2_DepthDuration_HTML.html#25,25,1364,625,1364,768,8-21-2022,9-37-7,59,depth_duration_stimuli/002340_2014-06-28_20-05-46_260595134347_rgbf000113-resize_0/002340_2014-06-28_20-05-46_260595134347_rgbf000113-resize_0-target.png,125,2.4735,50.0,3698,128,meters,jsons/VE125_randls_34.json,885128,1175099,42,Woman
59,117428,DepthScenes,duration_manipulation_targetAtFixation,jsons/VE125_randls_34.json,http://54.235.29.9/FacialAge/BNav_EC2/DepthDuration/v2_depth_duration_MTurk/v2_DepthDuration_HTML.html#25,25,1364,625,1364,768,8-21-2022,9-37-7,60,depth_duration_stimuli/001808_2014-06-26_20-50-58_260595134347_rgbf000029-resize_1/001808_2014-06-26_20-50-58_260595134347_rgbf000029-resize_1-target.png,125,4.249,75.0,6058,125,meters,jsons/VE125_randls_34.json,885128,1175099,42,Woman
60,117428,DepthScenes,duration_manipulation_targetAtFixation,jsons/VE125_randls_34.json,http://54.235.29.9/FacialAge/BNav_EC2/DepthDuration/v2_depth_duration_MTurk/v2_DepthDuration_HTML.html#25,25,1364,625,1364,768,8-21-2022,9-37-7,61,depth_duration_stimuli/001815_2014-06-26_20-52-55_260595134347_rgbf000020-resize_0/001815_2014-06-26_20-52-55_260595134347_rgbf000020-resize_0-target.png,125,3.3865,75.0,4280,125,meters,jsons/VE125_randls_34.json,885128,1175099,42,Woman
61,117428,DepthScenes,duration_manipulation_targetAtFixation,jsons/VE125_randls_34.json,http://54.235.29.9/FacialAge/BNav_EC2/DepthDuration/v2_depth_duration_MTurk/v2_DepthDuration_HTML.html#25,25,1364,625,1364,768,8-21-2022,9-37-7,62,depth_duration_stimuli/001092_2014-06-15_17-34-58_260595134347_rgbf000171-resize_3/001092_2014-06-15_17-34-58_260595134347_rgbf000171-resize_3-target.png,125,2.6935,80.0,8304,126,meters,jsons/VE125_randls_34.json,885128,1175099,42,Woman
62,117428,DepthScenes,duration_manipulation_targetAtFixation,jsons/VE125_randls_34.json,http://54.235.29.9/FacialAge/BNav_EC2/DepthDuration/v2_depth_duration_MTurk/v2_DepthDuration_HTML.html#25,25,1364,625,1364,768,8-21-2022,9-37-7,63,depth_duration_stimuli/002545_2014-06-24_13-38-53_094959634447_rgbf000080-resize_4/002545_2014-06-24_13-38-53_094959634447_rgbf000080-resize_4-target.png,125,1.9205,50.0,4440,125,meters,jsons/VE125_randls_34.json,885128,1175099,42,Woman
63,117428,DepthScenes,duration_manipulation_targetAtFixation,jsons/VE125_randls_34.json,http://54.235.29.9/FacialAge/BNav_EC2/DepthDuration/v2_depth_duration_MTurk/v2_DepthDuration_HTML.html#25,25,1364,625,1364,768,8-21-2022,9-37-7,64,depth_duration_stimuli/001199_2014-06-17_16-03-48_260595134347_rgbf000077-resize_0/001199_2014-06-17_16-03-48_260595134347_rgbf000077-resize_0-target.png,125,3.4375,50.0,7390,126,meters,jsons/VE125_randls_34.json,885128,1175099,42,Woman
64,117428,DepthScenes,duration_manipulation_targetAtFixation,jsons/VE125_randls_34.json,http://54.235.29.9/FacialAge/BNav_EC2/DepthDuration/v2_depth_duration_MTurk/v2_DepthDuration_HTML.html#25,25,1364,625,1364,768,8-21-2022,9-37-7,65,depth_duration_stimuli/000502_2014-06-08_23-02-32_260595134347_rgbf000063-resize_4/000502_2014-06-08_23-02-32_260595134347_rgbf000063-resize_4-target.png,125,2.431,80.0,3269,125,meters,jsons/VE125_randls_34.json,885128,1175099,42,Woman
65,117428,DepthScenes,duration_manipulation_targetAtFixation,jsons/VE125_randls_34.json,http://54.235.29.9/FacialAge/BNav_EC2/DepthDuration/v2_depth_duration_MTurk/v2_DepthDuration_HTML.html#25,25,1364,625,1364,768,8-21-2022,9-37-7,66,depth_duration_stimuli/001222_2014-06-17_16-24-06_260595134347_rgbf000073-resize_0/001222_2014-06-17_16-24-06_260595134347_rgbf000073-resize-original.jpg,125,1.4385,50.0,3093,125,meters,jsons/VE125_randls_34.json,885128,1175099,42,Woman
66,117428,DepthScenes,duration_manipulation_targetAtFixation,jsons/VE125_randls_34.json,http://54.235.29.9/FacialAge/BNav_EC2/DepthDuration/v2_depth_duration_MTurk/v2_DepthDuration_HTML.html#25,25,1364,625,1364,768,8-21-2022,9-37-7,67,depth_duration_stimuli/002788_2014-06-22_19-36-03_094959634447_rgbf000088-resize_2/002788_2014-06-22_19-36-03_094959634447_rgbf000088-resize_2-target.png,125,1.6465,50.0,7982,125,meters,jsons/VE125_randls_34.json,885128,1175099,42,Woman
67,117428,DepthScenes,duration_manipulation_targetAtFixation,jsons/VE125_randls_34.json,http://54.235.29.9/FacialAge/BNav_EC2/DepthDuration/v2_depth_duration_MTurk/v2_DepthDuration_HTML.html#25,25,1364,625,1364,768,8-21-2022,9-37-7,68,depth_duration_stimuli/000749_2014-06-08_21-55-06_260595134347_rgbf000070-resize_2/000749_2014-06-08_21-55-06_260595134347_rgbf000070-resize_2-target.png,125,2.331,75.0,3278,124,meters,jsons/VE125_randls_34.json,885128,1175099,42,Woman
68,117428,DepthScenes,duration_manipulation_targetAtFixation,jsons/VE125_randls_34.json,http://54.235.29.9/FacialAge/BNav_EC2/DepthDuration/v2_depth_duration_MTurk/v2_DepthDuration_HTML.html#25,25,1364,625,1364,768,8-21-2022,9-37-7,69,depth_duration_stimuli/001055_2014-06-08_18-45-35_260595134347_rgbf000111-resize_4/001055_2014-06-08_18-45-35_260595134347_rgbf000111-resize_4-target.png,125,2.4290000000000003,80.0,3829,146,meters,jsons/VE125_randls_34.json,885128,1175099,42,Woman
69,117428,DepthScenes,duration_manipulation_targetAtFixation,jsons/VE125_randls_34.json,http://54.235.29.9/FacialAge/BNav_EC2/DepthDuration/v2_depth_duration_MTurk/v2_DepthDuration_HTML.html#25,25,1364,625,1364,768,8-21-2022,9-37-7,70,depth_duration_stimuli/000549_2014-06-08_22-10-24_260595134347_rgbf000247-resize_3/000549_2014-06-08_22-10-24_260595134347_rgbf000247-resize_3-target.png,125,1.841,50.0,3569,125,meters,jsons/VE125_randls_34.json,885128,1175099,42,Woman
70,117428,DepthScenes,duration_manipulation_targetAtFixation,jsons/VE125_randls_34.json,http://54.235.29.9/FacialAge/BNav_EC2/DepthDuration/v2_depth_duration_MTurk/v2_DepthDuration_HTML.html#25,25,1364,625,1364,768,8-21-2022,9-37-7,71,depth_duration_stimuli/000506_2014-06-08_23-21-00_260595134347_rgbf000070-resize_7/000506_2014-06-08_23-21-00_260595134347_rgbf000070-resize_7-target.png,125,4.0585,50.0,8090,126,meters,jsons/VE125_randls_34.json,885128,1175099,42,Woman
71,117428,DepthScenes,duration_manipulation_targetAtFixation,jsons/VE125_randls_34.json,http://54.235.29.9/FacialAge/BNav_EC2/DepthDuration/v2_depth_duration_MTurk/v2_DepthDuration_HTML.html#25,25,1364,625,1364,768,8-21-2022,9-37-7,72,depth_duration_stimuli/003079_2014-06-15_15-18-20_094959634447_rgbf000152-resize_8/003079_2014-06-15_15-18-20_094959634447_rgbf000152-resize_8-target.png,125,2.8775,50.0,29219,124,meters,jsons/VE125_randls_34.json,885128,1175099,42,Woman
72,117428,DepthScenes,duration_manipulation_targetAtFixation,jsons/VE125_randls_34.json,http://54.235.29.9/FacialAge/BNav_EC2/DepthDuration/v2_depth_duration_MTurk/v2_DepthDuration_HTML.html#25,25,1364,625,1364,768,8-21-2022,9-37-7,73,depth_duration_stimuli/000368_2014-06-09_15-53-01_260595134347_rgbf000155-resize_2/000368_2014-06-09_15-53-01_260595134347_rgbf000155-resize_2-target.png,125,2.4859999999999998,75.0,4867,125,meters,jsons/VE125_randls_34.json,885128,1175099,42,Woman
73,117428,DepthScenes,duration_manipulation_targetAtFixation,jsons/VE125_randls_34.json,http://54.235.29.9/FacialAge/BNav_EC2/DepthDuration/v2_depth_duration_MTurk/v2_DepthDuration_HTML.html#25,25,1364,625,1364,768,8-21-2022,9-37-7,74,depth_duration_stimuli/002678_2014-06-13_16-15-32_094959634447_rgbf000151-resize_6/002678_2014-06-13_16-15-32_094959634447_rgbf000151-resize_6-target.png,125,2.1830000000000003,50.0,2500,125,meters,jsons/VE125_randls_34.json,885128,1175099,42,Woman
74,117428,DepthScenes,duration_manipulation_targetAtFixation,jsons/VE125_randls_34.json,http://54.235.29.9/FacialAge/BNav_EC2/DepthDuration/v2_depth_duration_MTurk/v2_DepthDuration_HTML.html#25,25,1364,625,1364,768,8-21-2022,9-37-7,75,depth_duration_stimuli/002445_2014-06-28_20-32-16_260595134347_rgbf000029-resize_4/002445_2014-06-28_20-32-16_260595134347_rgbf000029-resize_4-target.png,125,2.5315,75.0,4479,126,meters,jsons/VE125_randls_34.json,885128,1175099,42,Woman
75,117428,DepthScenes,duration_manipulation_targetAtFixation,jsons/VE125_randls_34.json,http://54.235.29.9/FacialAge/BNav_EC2/DepthDuration/v2_depth_duration_MTurk/v2_DepthDuration_HTML.html#25,25,1364,625,1364,768,8-21-2022,9-37-7,76,depth_duration_stimuli/000780_2014-06-08_22-28-29_260595134347_rgbf000126-resize_1/000780_2014-06-08_22-28-29_260595134347_rgbf000126-resize_1-target.png,125,3.3825,50.0,2445,126,meters,jsons/VE125_randls_34.json,885128,1175099,42,Woman
76,117428,DepthScenes,duration_manipulation_targetAtFixation,jsons/VE125_randls_34.json,http://54.235.29.9/FacialAge/BNav_EC2/DepthDuration/v2_depth_duration_MTurk/v2_DepthDuration_HTML.html#25,25,1364,625,1364,768,8-21-2022,9-37-7,77,depth_duration_stimuli/002153_2014-06-25_21-27-18_260595134347_rgbf000038-resize_5/002153_2014-06-25_21-27-18_260595134347_rgbf000038-resize_5-target.png,125,2.505,50.0,3374,124,meters,jsons/VE125_randls_34.json,885128,1175099,42,Woman
77,117428,DepthScenes,duration_manipulation_targetAtFixation,jsons/VE125_randls_34.json,http://54.235.29.9/FacialAge/BNav_EC2/DepthDuration/v2_depth_duration_MTurk/v2_DepthDuration_HTML.html#25,25,1364,625,1364,768,8-21-2022,9-37-7,78,depth_duration_stimuli/002660_2014-06-13_15-44-18_094959634447_rgbf001878-resize_2/002660_2014-06-13_15-44-18_094959634447_rgbf001878-resize_2-target.png,125,3.576,75.0,2598,122,meters,jsons/VE125_randls_34.json,885128,1175099,42,Woman
78,117428,DepthScenes,duration_manipulation_targetAtFixation,jsons/VE125_randls_34.json,http://54.235.29.9/FacialAge/BNav_EC2/DepthDuration/v2_depth_duration_MTurk/v2_DepthDuration_HTML.html#25,25,1364,625,1364,768,8-21-2022,9-37-7,79,depth_duration_stimuli/000682_2014-06-08_23-14-58_260595134347_rgbf000041-resize_5/000682_2014-06-08_23-14-58_260595134347_rgbf000041-resize_5-target.png,125,2.7239999999999998,75.0,3480,124,meters,jsons/VE125_randls_34.json,885128,1175099,42,Woman
79,117428,DepthScenes,duration_manipulation_targetAtFixation,jsons/VE125_randls_34.json,http://54.235.29.9/FacialAge/BNav_EC2/DepthDuration/v2_depth_duration_MTurk/v2_DepthDuration_HTML.html#25,25,1364,625,1364,768,8-21-2022,9-37-7,80,depth_duration_stimuli/001650_2014-06-20_12-09-00_260595134347_rgbf000087-resize_3/001650_2014-06-20_12-09-00_260595134347_rgbf000087-resize_3-target.png,125,1.9505,50.0,2700,125,meters,jsons/VE125_randls_34.json,885128,1175099,42,Woman
80,117428,DepthScenes,duration_manipulation_targetAtFixation,jsons/VE125_randls_34.json,http://54.235.29.9/FacialAge/BNav_EC2/DepthDuration/v2_depth_duration_MTurk/v2_DepthDuration_HTML.html#25,25,1364,625,1364,768,8-21-2022,9-37-7,81,depth_duration_stimuli/003621_2014-05-23_18-06-08_094959634447_rgbf000101-resize_1/003621_2014-05-23_18-06-08_094959634447_rgbf000101-resize_1-target.png,125,3.9835,50.0,3004,129,meters,jsons/VE125_randls_34.json,885128,1175099,42,Woman
81,117428,DepthScenes,duration_manipulation_targetAtFixation,jsons/VE125_randls_34.json,http://54.235.29.9/FacialAge/BNav_EC2/DepthDuration/v2_depth_duration_MTurk/v2_DepthDuration_HTML.html#25,25,1364,625,1364,768,8-21-2022,9-37-7,82,depth_duration_stimuli/001584_2014-06-20_11-07-43_260595134347_rgbf000002-resize_1/001584_2014-06-20_11-07-43_260595134347_rgbf000002-resize_1-target.png,125,3.53,50.0,2391,125,meters,jsons/VE125_randls_34.json,885128,1175099,42,Woman
82,117428,DepthScenes,duration_manipulation_targetAtFixation,jsons/VE125_randls_34.json,http://54.235.29.9/FacialAge/BNav_EC2/DepthDuration/v2_depth_duration_MTurk/v2_DepthDuration_HTML.html#25,25,1364,625,1364,768,8-21-2022,9-37-7,83,depth_duration_stimuli/000009_2014-05-26_14-32-05_260595134347_rgbf000034-resize_3/000009_2014-05-26_14-32-05_260595134347_rgbf000034-resize_3-target.png,125,3.8715,50.0,2561,125,meters,jsons/VE125_randls_34.json,885128,1175099,42,Woman
83,117428,DepthScenes,duration_manipulation_targetAtFixation,jsons/VE125_randls_34.json,http://54.235.29.9/FacialAge/BNav_EC2/DepthDuration/v2_depth_duration_MTurk/v2_DepthDuration_HTML.html#25,25,1364,625,1364,768,8-21-2022,9-37-7,84,depth_duration_stimuli/001828_2014-06-26_21-40-03_260595134347_rgbf000024-resize_0/001828_2014-06-26_21-40-03_260595134347_rgbf000024-resize_0-target.png,125,4.8260000000000005,75.0,2189,125,meters,jsons/VE125_randls_34.json,885128,1175099,42,Woman
84,117428,DepthScenes,duration_manipulation_targetAtFixation,jsons/VE125_randls_34.json,http://54.235.29.9/FacialAge/BNav_EC2/DepthDuration/v2_depth_duration_MTurk/v2_DepthDuration_HTML.html#25,25,1364,625,1364,768,8-21-2022,9-37-7,85,depth_duration_stimuli/002279_2014-06-28_18-55-32_260595134347_rgbf000040-resize_5/002279_2014-06-28_18-55-32_260595134347_rgbf000040-resize_5-target.png,125,1.5043333333333,75.0,5290,126,meters,jsons/VE125_randls_34.json,885128,1175099,42,Woman
85,117428,DepthScenes,duration_manipulation_targetAtFixation,jsons/VE125_randls_34.json,http://54.235.29.9/FacialAge/BNav_EC2/DepthDuration/v2_depth_duration_MTurk/v2_DepthDuration_HTML.html#25,25,1364,625,1364,768,8-21-2022,9-37-7,86,depth_duration_stimuli/000635_2014-06-08_16-38-42_260595134347_rgbf000106-resize_1/000635_2014-06-08_16-38-42_260595134347_rgbf000106-resize_1-target.png,125,2.074,50.0,10416,125,meters,jsons/VE125_randls_34.json,885128,1175099,42,Woman
86,117428,DepthScenes,duration_manipulation_targetAtFixation,jsons/VE125_randls_34.json,http://54.235.29.9/FacialAge/BNav_EC2/DepthDuration/v2_depth_duration_MTurk/v2_DepthDuration_HTML.html#25,25,1364,625,1364,768,8-21-2022,9-37-7,87,depth_duration_stimuli/002905_2014-06-03_18-04-43_094959634447_rgbf000151-resize_2/002905_2014-06-03_18-04-43_094959634447_rgbf000151-resize_2-target.png,125,2.0295,75.0,3944,125,meters,jsons/VE125_randls_34.json,885128,1175099,42,Woman
87,117428,DepthScenes,duration_manipulation_targetAtFixation,jsons/VE125_randls_34.json,http://54.235.29.9/FacialAge/BNav_EC2/DepthDuration/v2_depth_duration_MTurk/v2_DepthDuration_HTML.html#25,25,1364,625,1364,768,8-21-2022,9-37-7,88,depth_duration_stimuli/003423_2014-05-21_10-23-26_094959634447_rgbf002665-resize_2/003423_2014-05-21_10-23-26_094959634447_rgbf002665-resize_2-target.png,125,3.2575,80.0,2779,125,meters,jsons/VE125_randls_34.json,885128,1175099,42,Woman
88,117428,DepthScenes,duration_manipulation_targetAtFixation,jsons/VE125_randls_34.json,http://54.235.29.9/FacialAge/BNav_EC2/DepthDuration/v2_depth_duration_MTurk/v2_DepthDuration_HTML.html#25,25,1364,625,1364,768,8-21-2022,9-37-7,89,depth_duration_stimuli/001175_2014-06-17_15-45-55_260595134347_rgbf000129-resize_4/001175_2014-06-17_15-45-55_260595134347_rgbf000129-resize_4-target.png,125,4.255,70.0,6440,125,meters,jsons/VE125_randls_34.json,885128,1175099,42,Woman
89,117428,DepthScenes,duration_manipulation_targetAtFixation,jsons/VE125_randls_34.json,http://54.235.29.9/FacialAge/BNav_EC2/DepthDuration/v2_depth_duration_MTurk/v2_DepthDuration_HTML.html#25,25,1364,625,1364,768,8-21-2022,9-37-7,90,depth_duration_stimuli/003490_2014-05-21_15-50-11_094959634447_rgbf000101-resize_3/003490_2014-05-21_15-50-11_094959634447_rgbf000101-resize_3-target.png,125,3.6445,50.0,3339,125,meters,jsons/VE125_randls_34.json,885128,1175099,42,Woman
90,117428,DepthScenes,duration_manipulation_targetAtFixation,jsons/VE125_randls_34.json,http://54.235.29.9/FacialAge/BNav_EC2/DepthDuration/v2_depth_duration_MTurk/v2_DepthDuration_HTML.html#25,25,1364,625,1364,768,8-21-2022,9-37-7,91,depth_duration_stimuli/002509_2014-06-24_13-19-22_094959634447_rgbf000077-resize_0/002509_2014-06-24_13-19-22_094959634447_rgbf000077-resize_0-target.png,125,1.3065,100.0,7258,124,meters,jsons/VE125_randls_34.json,885128,1175099,42,Woman
91,117428,DepthScenes,duration_manipulation_targetAtFixation,jsons/VE125_randls_34.json,http://54.235.29.9/FacialAge/BNav_EC2/DepthDuration/v2_depth_duration_MTurk/v2_DepthDuration_HTML.html#25,25,1364,625,1364,768,8-21-2022,9-37-7,92,depth_duration_stimuli/003338_2014-05-20_11-01-23_094959634447_rgbf000051-resize_6/003338_2014-05-20_11-01-23_094959634447_rgbf000051-resize_6-target.png,125,1.693,100.0,4881,126,meters,jsons/VE125_randls_34.json,885128,1175099,42,Woman
92,117428,DepthScenes,duration_manipulation_targetAtFixation,jsons/VE125_randls_34.json,http://54.235.29.9/FacialAge/BNav_EC2/DepthDuration/v2_depth_duration_MTurk/v2_DepthDuration_HTML.html#25,25,1364,625,1364,768,8-21-2022,9-37-7,93,depth_duration_stimuli/000906_2014-06-08_13-35-43_260595134347_rgbf000155-resize_1/000906_2014-06-08_13-35-43_260595134347_rgbf000155-resize_1-target.png,125,2.8489999999999998,75.0,11279,125,meters,jsons/VE125_randls_34.json,885128,1175099,42,Woman
93,117428,DepthScenes,duration_manipulation_targetAtFixation,jsons/VE125_randls_34.json,http://54.235.29.9/FacialAge/BNav_EC2/DepthDuration/v2_depth_duration_MTurk/v2_DepthDuration_HTML.html#25,25,1364,625,1364,768,8-21-2022,9-37-7,94,depth_duration_stimuli/002805_2014-06-22_19-54-03_094959634447_rgbf000079-resize_1/002805_2014-06-22_19-54-03_094959634447_rgbf000079-resize_1-target.png,125,3.1439999999999997,75.0,6268,125,meters,jsons/VE125_randls_34.json,885128,1175099,42,Woman
94,117428,DepthScenes,duration_manipulation_targetAtFixation,jsons/VE125_randls_34.json,http://54.235.29.9/FacialAge/BNav_EC2/DepthDuration/v2_depth_duration_MTurk/v2_DepthDuration_HTML.html#25,25,1364,625,1364,768,8-21-2022,9-37-7,95,depth_duration_stimuli/001056_2014-06-08_18-46-44_260595134347_rgbf000068-resize_0/001056_2014-06-08_18-46-44_260595134347_rgbf000068-resize_0-target.png,125,2.6625,50.0,18628,124,meters,jsons/VE125_randls_34.json,885128,1175099,42,Woman
95,117428,DepthScenes,duration_manipulation_targetAtFixation,jsons/VE125_randls_34.json,http://54.235.29.9/FacialAge/BNav_EC2/DepthDuration/v2_depth_duration_MTurk/v2_DepthDuration_HTML.html#25,25,1364,625,1364,768,8-21-2022,9-37-7,96,depth_duration_stimuli/002199_2014-06-28_18-33-56_260595134347_rgbf000074-resize_0/002199_2014-06-28_18-33-56_260595134347_rgbf000074-resize_0-target.png,125,1.996,50.0,6080,124,meters,jsons/VE125_randls_34.json,885128,1175099,42,Woman
96,117428,DepthScenes,duration_manipulation_targetAtFixation,jsons/VE125_randls_34.json,http://54.235.29.9/FacialAge/BNav_EC2/DepthDuration/v2_depth_duration_MTurk/v2_DepthDuration_HTML.html#25,25,1364,625,1364,768,8-21-2022,9-37-7,97,depth_duration_stimuli/001066_2014-06-08_22-03-20_260595134347_rgbf000066-resize_4/001066_2014-06-08_22-03-20_260595134347_rgbf000066-resize_4-target.png,125,4.2330000000000005,40.0,12288,124,meters,jsons/VE125_randls_34.json,885128,1175099,42,Woman
97,117428,DepthScenes,duration_manipulation_targetAtFixation,jsons/VE125_randls_34.json,http://54.235.29.9/FacialAge/BNav_EC2/DepthDuration/v2_depth_duration_MTurk/v2_DepthDuration_HTML.html#25,25,1364,625,1364,768,8-21-2022,9-37-7,98,depth_duration_stimuli/000742_2014-06-08_18-48-09_260595134347_rgbf000164-resize_4/000742_2014-06-08_18-48-09_260595134347_rgbf000164-resize_4-target.png,125,4.632,100.0,3339,125,meters,jsons/VE125_randls_34.json,885128,1175099,42,Woman
98,117428,DepthScenes,duration_manipulation_targetAtFixation,jsons/VE125_randls_34.json,http://54.235.29.9/FacialAge/BNav_EC2/DepthDuration/v2_depth_duration_MTurk/v2_DepthDuration_HTML.html#25,25,1364,625,1364,768,8-21-2022,9-37-7,99,depth_duration_stimuli/001540_2014-06-20_17-01-05_260595134347_rgbf000086-resize_2/001540_2014-06-20_17-01-05_260595134347_rgbf000086-resize-original.jpg,125,1.459,50.0,6804,124,meters,jsons/VE125_randls_34.json,885128,1175099,42,Woman
99,117428,DepthScenes,duration_manipulation_targetAtFixation,jsons/VE125_randls_34.json,http://54.235.29.9/FacialAge/BNav_EC2/DepthDuration/v2_depth_duration_MTurk/v2_DepthDuration_HTML.html#25,25,1364,625,1364,768,8-21-2022,9-37-7,100,depth_duration_stimuli/002039_2014-06-24_20-22-38_260595134347_rgbf000084-resize_1/002039_2014-06-24_20-22-38_260595134347_rgbf000084-resize_1-target.png,125,4.408,75.0,5626,126,meters,jsons/VE125_randls_34.json,885128,1175099,42,Woman
100,117428,DepthScenes,duration_manipulation_targetAtFixation,jsons/VE125_randls_34.json,http://54.235.29.9/FacialAge/BNav_EC2/DepthDuration/v2_depth_duration_MTurk/v2_DepthDuration_HTML.html#25,25,1364,625,1364,768,8-21-2022,9-37-7,101,depth_duration_stimuli/002103_2014-06-25_20-00-40_260595134347_rgbf000049-resize_0/002103_2014-06-25_20-00-40_260595134347_rgbf000049-resize_0-target.png,125,4.105,75.0,3014,125,meters,jsons/VE125_randls_34.json,885128,1175099,42,Woman
101,117428,DepthScenes,duration_manipulation_targetAtFixation,jsons/VE125_randls_34.json,http://54.235.29.9/FacialAge/BNav_EC2/DepthDuration/v2_depth_duration_MTurk/v2_DepthDuration_HTML.html#25,25,1364,625,1364,768,8-21-2022,9-37-7,102,depth_duration_stimuli/002748_2014-06-22_19-07-22_094959634447_rgbf000078-resize_1/002748_2014-06-22_19-07-22_094959634447_rgbf000078-resize_1-target.png,125,4.6705,50.0,6794,125,meters,jsons/VE125_randls_34.json,885128,1175099,42,Woman
102,117428,DepthScenes,duration_manipulation_targetAtFixation,jsons/VE125_randls_34.json,http://54.235.29.9/FacialAge/BNav_EC2/DepthDuration/v2_depth_duration_MTurk/v2_DepthDuration_HTML.html#25,25,1364,625,1364,768,8-21-2022,9-37-7,103,depth_duration_stimuli/002995_2014-06-15_12-31-26_094959634447_rgbf000150-resize_1/002995_2014-06-15_12-31-26_094959634447_rgbf000150-resize_1-target.png,125,3.8360000000000003,50.0,3326,125,meters,jsons/VE125_randls_34.json,885128,1175099,42,Woman
103,117428,DepthScenes,duration_manipulation_targetAtFixation,jsons/VE125_randls_34.json,http://54.235.29.9/FacialAge/BNav_EC2/DepthDuration/v2_depth_duration_MTurk/v2_DepthDuration_HTML.html#25,25,1364,625,1364,768,8-21-2022,9-37-7,104,depth_duration_stimuli/001810_2014-06-26_20-51-35_260595134347_rgbf000040-resize_3/001810_2014-06-26_20-51-35_260595134347_rgbf000040-resize_3-target.png,125,2.2525,75.0,4643,125,meters,jsons/VE125_randls_34.json,885128,1175099,42,Woman
104,117428,DepthScenes,duration_manipulation_targetAtFixation,jsons/VE125_randls_34.json,http://54.235.29.9/FacialAge/BNav_EC2/DepthDuration/v2_depth_duration_MTurk/v2_DepthDuration_HTML.html#25,25,1364,625,1364,768,8-21-2022,9-37-7,105,depth_duration_stimuli/003010_2014-06-15_12-54-35_094959634447_rgbf000112-resize_0/003010_2014-06-15_12-54-35_094959634447_rgbf000112-resize_0-target.png,125,3.1185,50.0,3949,124,meters,jsons/VE125_randls_34.json,885128,1175099,42,Woman
105,117428,DepthScenes,duration_manipulation_targetAtFixation,jsons/VE125_randls_34.json,http://54.235.29.9/FacialAge/BNav_EC2/DepthDuration/v2_depth_duration_MTurk/v2_DepthDuration_HTML.html#25,25,1364,625,1364,768,8-21-2022,9-37-7,106,depth_duration_stimuli/001110_2014-06-15_17-25-28_260595134347_rgbf000150-resize_1/001110_2014-06-15_17-25-28_260595134347_rgbf000150-resize_1-target.png,125,1.7115,75.0,3170,125,meters,jsons/VE125_randls_34.json,885128,1175099,42,Woman
106,117428,DepthScenes,duration_manipulation_targetAtFixation,jsons/VE125_randls_34.json,http://54.235.29.9/FacialAge/BNav_EC2/DepthDuration/v2_depth_duration_MTurk/v2_DepthDuration_HTML.html#25,25,1364,625,1364,768,8-21-2022,9-37-7,107,depth_duration_stimuli/000927_2014-06-09_16-32-30_260595134347_rgbf000123-resize_3/000927_2014-06-09_16-32-30_260595134347_rgbf000123-resize_3-target.png,125,2.6785,75.0,2180,125,meters,jsons/VE125_randls_34.json,885128,1175099,42,Woman
107,117428,DepthScenes,duration_manipulation_targetAtFixation,jsons/VE125_randls_34.json,http://54.235.29.9/FacialAge/BNav_EC2/DepthDuration/v2_depth_duration_MTurk/v2_DepthDuration_HTML.html#25,25,1364,625,1364,768,8-21-2022,9-37-7,108,depth_duration_stimuli/002549_2014-06-24_13-41-39_094959634447_rgbf000022-resize_3/002549_2014-06-24_13-41-39_094959634447_rgbf000022-resize_3-target.png,125,1.476,50.0,3256,124,meters,jsons/VE125_randls_34.json,885128,1175099,42,Woman
108,117428,DepthScenes,duration_manipulation_targetAtFixation,jsons/VE125_randls_34.json,http://54.235.29.9/FacialAge/BNav_EC2/DepthDuration/v2_depth_duration_MTurk/v2_DepthDuration_HTML.html#25,25,1364,625,1364,768,8-21-2022,9-37-7,109,depth_duration_stimuli/002750_2014-06-22_19-08-03_094959634447_rgbf000094-resize_4/002750_2014-06-22_19-08-03_094959634447_rgbf000094-resize_4-target.png,125,2.354,75.0,2898,125,meters,jsons/VE125_randls_34.json,885128,1175099,42,Woman
109,117428,DepthScenes,duration_manipulation_targetAtFixation,jsons/VE125_randls_34.json,http://54.235.29.9/FacialAge/BNav_EC2/DepthDuration/v2_depth_duration_MTurk/v2_DepthDuration_HTML.html#25,25,1364,625,1364,768,8-21-2022,9-37-7,110,depth_duration_stimuli/000736_2014-06-08_18-24-15_260595134347_rgbf000206-resize_3/000736_2014-06-08_18-24-15_260595134347_rgbf000206-resize_3-target.png,125,3.515,50.0,4310,125,meters,jsons/VE125_randls_34.json,885128,1175099,42,Woman
110,117428,DepthScenes,duration_manipulation_targetAtFixation,jsons/VE125_randls_34.json,http://54.235.29.9/FacialAge/BNav_EC2/DepthDuration/v2_depth_duration_MTurk/v2_DepthDuration_HTML.html#25,25,1364,625,1364,768,8-21-2022,9-37-7,111,depth_duration_stimuli/000137_2014-05-20_17-04-49_260595134347_rgbf000120-resize_1/000137_2014-05-20_17-04-49_260595134347_rgbf000120-resize_1-target.png,125,3.786,75.0,2259,125,meters,jsons/VE125_randls_34.json,885128,1175099,42,Woman
111,117428,DepthScenes,duration_manipulation_targetAtFixation,jsons/VE125_randls_34.json,http://54.235.29.9/FacialAge/BNav_EC2/DepthDuration/v2_depth_duration_MTurk/v2_DepthDuration_HTML.html#25,25,1364,625,1364,768,8-21-2022,9-37-7,112,depth_duration_stimuli/002964_2014-06-08_17-46-11_094959634447_rgbf000091-resize_4/002964_2014-06-08_17-46-11_094959634447_rgbf000091-resize_4-target.png,125,1.6909999999999998,50.0,6550,125,meters,jsons/VE125_randls_34.json,885128,1175099,42,Woman
112,117428,DepthScenes,duration_manipulation_targetAtFixation,jsons/VE125_randls_34.json,http://54.235.29.9/FacialAge/BNav_EC2/DepthDuration/v2_depth_duration_MTurk/v2_DepthDuration_HTML.html#25,25,1364,625,1364,768,8-21-2022,9-37-7,113,depth_duration_stimuli/002136_2014-06-25_21-18-03_260595134347_rgbf000109-resize_3/002136_2014-06-25_21-18-03_260595134347_rgbf000109-resize_3-target.png,125,1.9569999999999999,50.0,4919,125,meters,jsons/VE125_randls_34.json,885128,1175099,42,Woman
113,117428,DepthScenes,duration_manipulation_targetAtFixation,jsons/VE125_randls_34.json,http://54.235.29.9/FacialAge/BNav_EC2/DepthDuration/v2_depth_duration_MTurk/v2_DepthDuration_HTML.html#25,25,1364,625,1364,768,8-21-2022,9-37-7,114,depth_duration_stimuli/001164_2014-06-17_15-35-46_260595134347_rgbf000085-resize_3/001164_2014-06-17_15-35-46_260595134347_rgbf000085-resize_3-target.png,125,2.354,75.0,10859,124,meters,jsons/VE125_randls_34.json,885128,1175099,42,Woman
114,117428,DepthScenes,duration_manipulation_targetAtFixation,jsons/VE125_randls_34.json,http://54.235.29.9/FacialAge/BNav_EC2/DepthDuration/v2_depth_duration_MTurk/v2_DepthDuration_HTML.html#25,25,1364,625,1364,768,8-21-2022,9-37-7,115,depth_duration_stimuli/001136_2014-06-17_15-19-41_260595134347_rgbf000076-resize_3/001136_2014-06-17_15-19-41_260595134347_rgbf000076-resize_3-target.png,125,1.8655,50.0,7629,125,meters,jsons/VE125_randls_34.json,885128,1175099,42,Woman
115,117428,DepthScenes,duration_manipulation_targetAtFixation,jsons/VE125_randls_34.json,http://54.235.29.9/FacialAge/BNav_EC2/DepthDuration/v2_depth_duration_MTurk/v2_DepthDuration_HTML.html#25,25,1364,625,1364,768,8-21-2022,9-37-7,116,depth_duration_stimuli/001170_2014-06-17_15-43-44_260595134347_rgbf000096-resize_6/001170_2014-06-17_15-43-44_260595134347_rgbf000096-resize-original.jpg,125,1.1909999999999998,75.0,7240,125,meters,jsons/VE125_randls_34.json,885128,1175099,42,Woman
116,117428,DepthScenes,duration_manipulation_targetAtFixation,jsons/VE125_randls_34.json,http://54.235.29.9/FacialAge/BNav_EC2/DepthDuration/v2_depth_duration_MTurk/v2_DepthDuration_HTML.html#25,25,1364,625,1364,768,8-21-2022,9-37-7,117,depth_duration_stimuli/001150_2014-06-17_15-27-34_260595134347_rgbf000108-resize_2/001150_2014-06-17_15-27-34_260595134347_rgbf000108-resize_2-target.png,125,4.0325,75.0,7691,118,meters,jsons/VE125_randls_34.json,885128,1175099,42,Woman
117,117428,DepthScenes,duration_manipulation_targetAtFixation,jsons/VE125_randls_34.json,http://54.235.29.9/FacialAge/BNav_EC2/DepthDuration/v2_depth_duration_MTurk/v2_DepthDuration_HTML.html#25,25,1364,625,1364,768,8-21-2022,9-37-7,118,depth_duration_stimuli/000665_2014-06-09_20-42-35_260595134347_rgbf000110-resize_1/000665_2014-06-09_20-42-35_260595134347_rgbf000110-resize_1-target.png,125,3.057,50.0,3709,126,meters,jsons/VE125_randls_34.json,885128,1175099,42,Woman
118,117428,DepthScenes,duration_manipulation_targetAtFixation,jsons/VE125_randls_34.json,http://54.235.29.9/FacialAge/BNav_EC2/DepthDuration/v2_depth_duration_MTurk/v2_DepthDuration_HTML.html#25,25,1364,625,1364,768,8-21-2022,9-37-7,119,depth_duration_stimuli/000692_2014-06-08_13-09-42_260595134347_rgbf000199-resize_2/000692_2014-06-08_13-09-42_260595134347_rgbf000199-resize_2-target.png,125,3.661,50.0,9419,125,meters,jsons/VE125_randls_34.json,885128,1175099,42,Woman
119,117428,DepthScenes,duration_manipulation_targetAtFixation,jsons/VE125_randls_34.json,http://54.235.29.9/FacialAge/BNav_EC2/DepthDuration/v2_depth_duration_MTurk/v2_DepthDuration_HTML.html#25,25,1364,625,1364,768,8-21-2022,9-37-7,120,depth_duration_stimuli/001094_2014-06-15_17-36-00_260595134347_rgbf000205-resize_0/001094_2014-06-15_17-36-00_260595134347_rgbf000205-resize_0-target.png,125,4.2175,75.0,3048,125,meters,jsons/VE125_randls_34.json,885128,1175099,42,Woman
120,117428,DepthScenes,duration_manipulation_targetAtFixation,jsons/VE125_randls_34.json,http://54.235.29.9/FacialAge/BNav_EC2/DepthDuration/v2_depth_duration_MTurk/v2_DepthDuration_HTML.html#25,25,1364,625,1364,768,8-21-2022,9-37-7,121,depth_duration_stimuli/001029_2014-06-08_13-17-57_260595134347_rgbf000065-resize_1/001029_2014-06-08_13-17-57_260595134347_rgbf000065-resize_1-target.png,125,3.0835,75.0,6444,124,meters,jsons/VE125_randls_34.json,885128,1175099,42,Woman
121,117428,DepthScenes,duration_manipulation_targetAtFixation,jsons/VE125_randls_34.json,http://54.235.29.9/FacialAge/BNav_EC2/DepthDuration/v2_depth_duration_MTurk/v2_DepthDuration_HTML.html#25,25,1364,625,1364,768,8-21-2022,9-37-7,122,depth_duration_stimuli/000677_2014-06-08_23-10-32_260595134347_rgbf000158-resize_6/000677_2014-06-08_23-10-32_260595134347_rgbf000158-resize_6-target.png,125,3.556,75.0,2699,126,meters,jsons/VE125_randls_34.json,885128,1175099,42,Woman
122,117428,DepthScenes,duration_manipulation_targetAtFixation,jsons/VE125_randls_34.json,http://54.235.29.9/FacialAge/BNav_EC2/DepthDuration/v2_depth_duration_MTurk/v2_DepthDuration_HTML.html#25,25,1364,625,1364,768,8-21-2022,9-37-7,123,depth_duration_stimuli/000878_2014-06-08_22-52-45_260595134347_rgbf000045-resize_2/000878_2014-06-08_22-52-45_260595134347_rgbf000045-resize_2-target.png,125,2.092,50.0,4679,124,meters,jsons/VE125_randls_34.json,885128,1175099,42,Woman
123,117428,DepthScenes,duration_manipulation_targetAtFixation,jsons/VE125_randls_34.json,http://54.235.29.9/FacialAge/BNav_EC2/DepthDuration/v2_depth_duration_MTurk/v2_DepthDuration_HTML.html#25,25,1364,625,1364,768,8-21-2022,9-37-7,124,depth_duration_stimuli/002953_2014-06-08_17-32-18_094959634447_rgbf000059-resize_5/002953_2014-06-08_17-32-18_094959634447_rgbf000059-resize_5-target.png,125,1.551,50.0,2037,125,meters,jsons/VE125_randls_34.json,885128,1175099,42,Woman
124,117428,DepthScenes,duration_manipulation_targetAtFixation,jsons/VE125_randls_34.json,http://54.235.29.9/FacialAge/BNav_EC2/DepthDuration/v2_depth_duration_MTurk/v2_DepthDuration_HTML.html#25,25,1364,625,1364,768,8-21-2022,9-37-7,125,depth_duration_stimuli/000929_2014-06-09_16-33-19_260595134347_rgbf000139-resize_0/000929_2014-06-09_16-33-19_260595134347_rgbf000139-resize_0-target.png,125,2.8680000000000003,50.0,2809,125,meters,jsons/VE125_randls_34.json,885128,1175099,42,Woman
125,117428,DepthScenes,duration_manipulation_targetAtFixation,jsons/VE125_randls_34.json,http://54.235.29.9/FacialAge/BNav_EC2/DepthDuration/v2_depth_duration_MTurk/v2_DepthDuration_HTML.html#25,25,1364,625,1364,768,8-21-2022,9-37-7,126,depth_duration_stimuli/000457_2014-06-08_16-52-43_260595134347_rgbf000199-resize_1/000457_2014-06-08_16-52-43_260595134347_rgbf000199-resize_1-target.png,125,3.6489999999999996,75.0,2339,126,meters,jsons/VE125_randls_34.json,885128,1175099,42,Woman
126,117428,DepthScenes,duration_manipulation_targetAtFixation,jsons/VE125_randls_34.json,http://54.235.29.9/FacialAge/BNav_EC2/DepthDuration/v2_depth_duration_MTurk/v2_DepthDuration_HTML.html#25,25,1364,625,1364,768,8-21-2022,9-37-7,127,depth_duration_stimuli/001417_2014-06-19_16-25-36_260595134347_rgbf000115-resize_5/001417_2014-06-19_16-25-36_260595134347_rgbf000115-resize_5-target.png,125,4.6255,75.0,2589,125,meters,jsons/VE125_randls_34.json,885128,1175099,42,Woman
127,117428,DepthScenes,duration_manipulation_targetAtFixation,jsons/VE125_randls_34.json,http://54.235.29.9/FacialAge/BNav_EC2/DepthDuration/v2_depth_duration_MTurk/v2_DepthDuration_HTML.html#25,25,1364,625,1364,768,8-21-2022,9-37-7,128,depth_duration_stimuli/003081_2014-06-15_15-19-16_094959634447_rgbf000150-resize_1/003081_2014-06-15_15-19-16_094959634447_rgbf000150-resize_1-target.png,125,3.9125,75.0,2051,124,meters,jsons/VE125_randls_34.json,885128,1175099,42,Woman
128,117428,DepthScenes,duration_manipulation_targetAtFixation,jsons/VE125_randls_34.json,http://54.235.29.9/FacialAge/BNav_EC2/DepthDuration/v2_depth_duration_MTurk/v2_DepthDuration_HTML.html#25,25,1364,625,1364,768,8-21-2022,9-37-7,129,depth_duration_stimuli/002725_2014-06-22_11-47-51_094959634447_rgbf000070-resize_1/002725_2014-06-22_11-47-51_094959634447_rgbf000070-resize_1-target.png,125,2.195,50.0,3178,125,meters,jsons/VE125_randls_34.json,885128,1175099,42,Woman
129,117428,DepthScenes,duration_manipulation_targetAtFixation,jsons/VE125_randls_34.json,http://54.235.29.9/FacialAge/BNav_EC2/DepthDuration/v2_depth_duration_MTurk/v2_DepthDuration_HTML.html#25,25,1364,625,1364,768,8-21-2022,9-37-7,130,depth_duration_stimuli/002344_2014-06-28_20-06-29_260595134347_rgbf000030-resize_1/002344_2014-06-28_20-06-29_260595134347_rgbf000030-resize_1-target.png,125,1.5795,50.0,2689,125,meters,jsons/VE125_randls_34.json,885128,1175099,42,Woman
130,117428,DepthScenes,duration_manipulation_targetAtFixation,jsons/VE125_randls_34.json,http://54.235.29.9/FacialAge/BNav_EC2/DepthDuration/v2_depth_duration_MTurk/v2_DepthDuration_HTML.html#25,25,1364,625,1364,768,8-21-2022,9-37-7,131,depth_duration_stimuli/002630_2014-06-24_14-47-50_094959634447_rgbf000055-resize_1/002630_2014-06-24_14-47-50_094959634447_rgbf000055-resize_1-target.png,125,3.0095,75.0,3060,125,meters,jsons/VE125_randls_34.json,885128,1175099,42,Woman
131,117428,DepthScenes,duration_manipulation_targetAtFixation,jsons/VE125_randls_34.json,http://54.235.29.9/FacialAge/BNav_EC2/DepthDuration/v2_depth_duration_MTurk/v2_DepthDuration_HTML.html#25,25,1364,625,1364,768,8-21-2022,9-37-7,132,depth_duration_stimuli/002758_2014-06-22_19-11-20_094959634447_rgbf000128-resize_1/002758_2014-06-22_19-11-20_094959634447_rgbf000128-resize_1-target.png,125,2.555,75.0,1968,126,meters,jsons/VE125_randls_34.json,885128,1175099,42,Woman
132,117428,DepthScenes,duration_manipulation_targetAtFixation,jsons/VE125_randls_34.json,http://54.235.29.9/FacialAge/BNav_EC2/DepthDuration/v2_depth_duration_MTurk/v2_DepthDuration_HTML.html#25,25,1364,625,1364,768,8-21-2022,9-37-7,133,depth_duration_stimuli/002763_2014-06-22_19-13-10_094959634447_rgbf000075-resize_4/002763_2014-06-22_19-13-10_094959634447_rgbf000075-resize_4-target.png,125,1.68375,75.0,2670,124,meters,jsons/VE125_randls_34.json,885128,1175099,42,Woman
133,117428,DepthScenes,duration_manipulation_targetAtFixation,jsons/VE125_randls_34.json,http://54.235.29.9/FacialAge/BNav_EC2/DepthDuration/v2_depth_duration_MTurk/v2_DepthDuration_HTML.html#25,25,1364,625,1364,768,8-21-2022,9-37-7,134,depth_duration_stimuli/002209_2014-06-28_18-36-10_260595134347_rgbf000051-resize_1/002209_2014-06-28_18-36-10_260595134347_rgbf000051-resize_1-target.png,125,2.057,50.0,1991,125,meters,jsons/VE125_randls_34.json,885128,1175099,42,Woman
134,117428,DepthScenes,duration_manipulation_targetAtFixation,jsons/VE125_randls_34.json,http://54.235.29.9/FacialAge/BNav_EC2/DepthDuration/v2_depth_duration_MTurk/v2_DepthDuration_HTML.html#25,25,1364,625,1364,768,8-21-2022,9-37-7,135,depth_duration_stimuli/002072_2014-06-24_21-48-06_260595134347_rgbf000115-resize_0/002072_2014-06-24_21-48-06_260595134347_rgbf000115-resize-original.jpg,125,4.702,50.0,2510,125,meters,jsons/VE125_randls_34.json,885128,1175099,42,Woman
135,117428,DepthScenes,duration_manipulation_targetAtFixation,jsons/VE125_randls_34.json,http://54.235.29.9/FacialAge/BNav_EC2/DepthDuration/v2_depth_duration_MTurk/v2_DepthDuration_HTML.html#25,25,1364,625,1364,768,8-21-2022,9-37-7,136,depth_duration_stimuli/002988_2014-06-15_12-24-20_094959634447_rgbf000150-resize_1/002988_2014-06-15_12-24-20_094959634447_rgbf000150-resize_1-target.png,125,4.7669999999999995,50.0,3319,125,meters,jsons/VE125_randls_34.json,885128,1175099,42,Woman
136,117428,DepthScenes,duration_manipulation_targetAtFixation,jsons/VE125_randls_34.json,http://54.235.29.9/FacialAge/BNav_EC2/DepthDuration/v2_depth_duration_MTurk/v2_DepthDuration_HTML.html#25,25,1364,625,1364,768,8-21-2022,9-37-7,137,depth_duration_stimuli/001052_2014-06-08_18-24-54_260595134347_rgbf000130-resize_1/001052_2014-06-08_18-24-54_260595134347_rgbf000130-resize_1-target.png,125,4.1045,50.0,2021,125,meters,jsons/VE125_randls_34.json,885128,1175099,42,Woman
137,117428,DepthScenes,duration_manipulation_targetAtFixation,jsons/VE125_randls_34.json,http://54.235.29.9/FacialAge/BNav_EC2/DepthDuration/v2_depth_duration_MTurk/v2_DepthDuration_HTML.html#25,25,1364,625,1364,768,8-21-2022,9-37-7,138,depth_duration_stimuli/000758_2014-06-08_22-05-08_260595134347_rgbf000085-resize_0/000758_2014-06-08_22-05-08_260595134347_rgbf000085-resize_0-target.png,125,3.3810000000000002,50.0,4026,125,meters,jsons/VE125_randls_34.json,885128,1175099,42,Woman
138,117428,DepthScenes,duration_manipulation_targetAtFixation,jsons/VE125_randls_34.json,http://54.235.29.9/FacialAge/BNav_EC2/DepthDuration/v2_depth_duration_MTurk/v2_DepthDuration_HTML.html#25,25,1364,625,1364,768,8-21-2022,9-37-7,139,depth_duration_stimuli/000854_2014-06-09_19-43-13_260595134347_rgbf000066-resize_0/000854_2014-06-09_19-43-13_260595134347_rgbf000066-resize_0-target.png,125,3.068,50.0,25182,125,meters,jsons/VE125_randls_34.json,885128,1175099,42,Woman
139,117428,DepthScenes,duration_manipulation_targetAtFixation,jsons/VE125_randls_34.json,http://54.235.29.9/FacialAge/BNav_EC2/DepthDuration/v2_depth_duration_MTurk/v2_DepthDuration_HTML.html#25,25,1364,625,1364,768,8-21-2022,9-37-7,140,depth_duration_stimuli/000447_2014-06-08_16-15-46_260595134347_rgbf000130-resize_1/000447_2014-06-08_16-15-46_260595134347_rgbf000130-resize_1-target.png,125,4.479,50.0,4290,126,meters,jsons/VE125_randls_34.json,885128,1175099,42,Woman
140,117428,DepthScenes,duration_manipulation_targetAtFixation,jsons/VE125_randls_34.json,http://54.235.29.9/FacialAge/BNav_EC2/DepthDuration/v2_depth_duration_MTurk/v2_DepthDuration_HTML.html#25,25,1364,625,1364,768,8-21-2022,9-37-7,141,depth_duration_stimuli/001447_2014-06-19_17-00-32_260595134347_rgbf000082-resize_5/001447_2014-06-19_17-00-32_260595134347_rgbf000082-resize_5-target.png,125,4.13775,75.0,3143,126,meters,jsons/VE125_randls_34.json,885128,1175099,42,Woman
141,117428,DepthScenes,duration_manipulation_targetAtFixation,jsons/VE125_randls_34.json,http://54.235.29.9/FacialAge/BNav_EC2/DepthDuration/v2_depth_duration_MTurk/v2_DepthDuration_HTML.html#25,25,1364,625,1364,768,8-21-2022,9-37-7,142,depth_duration_stimuli/003534_2014-05-22_15-06-10_094959634447_rgbf000102-resize_4/003534_2014-05-22_15-06-10_094959634447_rgbf000102-resize_4-target.png,125,1.426,75.0,4488,124,meters,jsons/VE125_randls_34.json,885128,1175099,42,Woman
142,117428,DepthScenes,duration_manipulation_targetAtFixation,jsons/VE125_randls_34.json,http://54.235.29.9/FacialAge/BNav_EC2/DepthDuration/v2_depth_duration_MTurk/v2_DepthDuration_HTML.html#25,25,1364,625,1364,768,8-21-2022,9-37-7,143,depth_duration_stimuli/002637_2014-06-24_14-51-13_094959634447_rgbf000066-resize_4/002637_2014-06-24_14-51-13_094959634447_rgbf000066-resize_4-target.png,125,1.9955,75.0,3367,126,meters,jsons/VE125_randls_34.json,885128,1175099,42,Woman
143,117428,DepthScenes,duration_manipulation_targetAtFixation,jsons/VE125_randls_34.json,http://54.235.29.9/FacialAge/BNav_EC2/DepthDuration/v2_depth_duration_MTurk/v2_DepthDuration_HTML.html#25,25,1364,625,1364,768,8-21-2022,9-37-7,144,depth_duration_stimuli/000436_2014-06-09_22-25-11_260595134347_rgbf000137-resize_1/000436_2014-06-09_22-25-11_260595134347_rgbf000137-resize_1-target.png,125,4.0705,50.0,8699,125,meters,jsons/VE125_randls_34.json,885128,1175099,42,Woman
144,117428,DepthScenes,duration_manipulation_targetAtFixation,jsons/VE125_randls_34.json,http://54.235.29.9/FacialAge/BNav_EC2/DepthDuration/v2_depth_duration_MTurk/v2_DepthDuration_HTML.html#25,25,1364,625,1364,768,8-21-2022,9-37-7,145,depth_duration_stimuli/002444_2014-06-28_20-32-08_260595134347_rgbf000027-resize_0/002444_2014-06-28_20-32-08_260595134347_rgbf000027-resize_0-target.png,125,4.388999999999999,50.0,4299,125,meters,jsons/VE125_randls_34.json,885128,1175099,42,Woman
145,117428,DepthScenes,duration_manipulation_targetAtFixation,jsons/VE125_randls_34.json,http://54.235.29.9/FacialAge/BNav_EC2/DepthDuration/v2_depth_duration_MTurk/v2_DepthDuration_HTML.html#25,25,1364,625,1364,768,8-21-2022,9-37-7,146,depth_duration_stimuli/001498_2014-06-19_17-45-14_260595134347_rgbf000129-resize_4/001498_2014-06-19_17-45-14_260595134347_rgbf000129-resize-original.jpg,125,1.4075,75.0,5301,126,meters,jsons/VE125_randls_34.json,885128,1175099,42,Woman
146,117428,DepthScenes,duration_manipulation_targetAtFixation,jsons/VE125_randls_34.json,http://54.235.29.9/FacialAge/BNav_EC2/DepthDuration/v2_depth_duration_MTurk/v2_DepthDuration_HTML.html#25,25,1364,625,1364,768,8-21-2022,9-37-7,147,depth_duration_stimuli/000810_2014-06-08_17-20-01_260595134347_rgbf000105-resize_0/000810_2014-06-08_17-20-01_260595134347_rgbf000105-resize_0-target.png,125,1.4865,50.0,5559,125,meters,jsons/VE125_randls_34.json,885128,1175099,42,Woman
147,117428,DepthScenes,duration_manipulation_targetAtFixation,jsons/VE125_randls_34.json,http://54.235.29.9/FacialAge/BNav_EC2/DepthDuration/v2_depth_duration_MTurk/v2_DepthDuration_HTML.html#25,25,1364,625,1364,768,8-21-2022,9-37-7,148,depth_duration_stimuli/001214_2014-06-17_16-13-55_260595134347_rgbf000111-resize_0/001214_2014-06-17_16-13-55_260595134347_rgbf000111-resize_0-target.png,125,2.6505,75.0,3830,125,meters,jsons/VE125_randls_34.json,885128,1175099,42,Woman
148,117428,DepthScenes,duration_manipulation_targetAtFixation,jsons/VE125_randls_34.json,http://54.235.29.9/FacialAge/BNav_EC2/DepthDuration/v2_depth_duration_MTurk/v2_DepthDuration_HTML.html#25,25,1364,625,1364,768,8-21-2022,9-37-7,149,depth_duration_stimuli/002043_2014-06-24_20-29-38_260595134347_rgbf000039-resize_4/002043_2014-06-24_20-29-38_260595134347_rgbf000039-resize_4-target.png,125,2.8435,50.0,8118,125,meters,jsons/VE125_randls_34.json,885128,1175099,42,Woman
149,117428,DepthScenes,duration_manipulation_targetAtFixation,jsons/VE125_randls_34.json,http://54.235.29.9/FacialAge/BNav_EC2/DepthDuration/v2_depth_duration_MTurk/v2_DepthDuration_HTML.html#25,25,1364,625,1364,768,8-21-2022,9-37-7,150,depth_duration_stimuli/003048_2014-06-15_13-49-43_094959634447_rgbf000150-resize_1/003048_2014-06-15_13-49-43_094959634447_rgbf000150-resize_1-target.png,125,4.0035,50.0,3322,125,meters,jsons/VE125_randls_34.json,885128,1175099,42,Woman
150,117428,DepthScenes,duration_manipulation_targetAtFixation,jsons/VE125_randls_34.json,http://54.235.29.9/FacialAge/BNav_EC2/DepthDuration/v2_depth_duration_MTurk/v2_DepthDuration_HTML.html#25,25,1364,625,1364,768,8-21-2022,9-37-7,151,depth_duration_stimuli/002272_2014-06-28_18-53-56_260595134347_rgbf000067-resize_2/002272_2014-06-28_18-53-56_260595134347_rgbf000067-resize_2-target.png,125,1.138,50.0,2987,125,meters,jsons/VE125_randls_34.json,885128,1175099,42,Woman
151,117428,DepthScenes,duration_manipulation_targetAtFixation,jsons/VE125_randls_34.json,http://54.235.29.9/FacialAge/BNav_EC2/DepthDuration/v2_depth_duration_MTurk/v2_DepthDuration_HTML.html#25,25,1364,625,1364,768,8-21-2022,9-37-7,152,depth_duration_stimuli/001571_2014-06-20_17-21-32_260595134347_rgbf000089-resize_1/001571_2014-06-20_17-21-32_260595134347_rgbf000089-resize_1-target.png,125,1.86,75.0,2357,125,meters,jsons/VE125_randls_34.json,885128,1175099,42,Woman
152,117428,DepthScenes,duration_manipulation_targetAtFixation,jsons/VE125_randls_34.json,http://54.235.29.9/FacialAge/BNav_EC2/DepthDuration/v2_depth_duration_MTurk/v2_DepthDuration_HTML.html#25,25,1364,625,1364,768,8-21-2022,9-37-7,153,depth_duration_stimuli/000642_2014-06-08_16-59-25_260595134347_rgbf000098-resize_2/000642_2014-06-08_16-59-25_260595134347_rgbf000098-resize_2-target.png,125,2.8815,50.0,6068,125,meters,jsons/VE125_randls_34.json,885128,1175099,42,Woman
153,117428,DepthScenes,duration_manipulation_targetAtFixation,jsons/VE125_randls_34.json,http://54.235.29.9/FacialAge/BNav_EC2/DepthDuration/v2_depth_duration_MTurk/v2_DepthDuration_HTML.html#25,25,1364,625,1364,768,8-21-2022,9-37-7,154,depth_duration_stimuli/002425_2014-06-28_20-27-29_260595134347_rgbf000031-resize_8/002425_2014-06-28_20-27-29_260595134347_rgbf000031-resize_8-target.png,125,3.8960000000000004,50.0,2463,125,meters,jsons/VE125_randls_34.json,885128,1175099,42,Woman
154,117428,DepthScenes,duration_manipulation_targetAtFixation,jsons/VE125_randls_34.json,http://54.235.29.9/FacialAge/BNav_EC2/DepthDuration/v2_depth_duration_MTurk/v2_DepthDuration_HTML.html#25,25,1364,625,1364,768,8-21-2022,9-37-7,155,depth_duration_stimuli/001244_2014-06-17_16-47-45_260595134347_rgbf000030-resize_4/001244_2014-06-17_16-47-45_260595134347_rgbf000030-resize_4-target.png,125,2.0425,75.0,3289,125,meters,jsons/VE125_randls_34.json,885128,1175099,42,Woman
155,117428,DepthScenes,duration_manipulation_targetAtFixation,jsons/VE125_randls_34.json,http://54.235.29.9/FacialAge/BNav_EC2/DepthDuration/v2_depth_duration_MTurk/v2_DepthDuration_HTML.html#25,25,1364,625,1364,768,8-21-2022,9-37-7,156,depth_duration_stimuli/003495_2014-05-21_16-01-51_094959634447_rgbf000100-resize_3/003495_2014-05-21_16-01-51_094959634447_rgbf000100-resize_3-target.png,125,1.6255,50.0,2599,125,meters,jsons/VE125_randls_34.json,885128,1175099,42,Woman
156,117428,DepthScenes,duration_manipulation_targetAtFixation,jsons/VE125_randls_34.json,http://54.235.29.9/FacialAge/BNav_EC2/DepthDuration/v2_depth_duration_MTurk/v2_DepthDuration_HTML.html#25,25,1364,625,1364,768,8-21-2022,9-37-7,157,depth_duration_stimuli/001059_2014-06-08_21-53-27_260595134347_rgbf000061-resize_4/001059_2014-06-08_21-53-27_260595134347_rgbf000061-resize_4-target.png,125,2.4185,50.0,3129,125,meters,jsons/VE125_randls_34.json,885128,1175099,42,Woman
157,117428,DepthScenes,duration_manipulation_targetAtFixation,jsons/VE125_randls_34.json,http://54.235.29.9/FacialAge/BNav_EC2/DepthDuration/v2_depth_duration_MTurk/v2_DepthDuration_HTML.html#25,25,1364,625,1364,768,8-21-2022,9-37-7,158,depth_duration_stimuli/001032_2014-06-08_13-23-17_260595134347_rgbf000021-resize_3/001032_2014-06-08_13-23-17_260595134347_rgbf000021-resize_3-target.png,125,3.2725,75.0,2610,125,meters,jsons/VE125_randls_34.json,885128,1175099,42,Woman
158,117428,DepthScenes,duration_manipulation_targetAtFixation,jsons/VE125_randls_34.json,http://54.235.29.9/FacialAge/BNav_EC2/DepthDuration/v2_depth_duration_MTurk/v2_DepthDuration_HTML.html#25,25,1364,625,1364,768,8-21-2022,9-37-7,159,depth_duration_stimuli/002600_2014-06-24_14-27-04_094959634447_rgbf000074-resize_2/002600_2014-06-24_14-27-04_094959634447_rgbf000074-resize_2-target.png,125,2.7575,100.0,4638,125,meters,jsons/VE125_randls_34.json,885128,1175099,42,Woman
159,117428,DepthScenes,duration_manipulation_targetAtFixation,jsons/VE125_randls_34.json,http://54.235.29.9/FacialAge/BNav_EC2/DepthDuration/v2_depth_duration_MTurk/v2_DepthDuration_HTML.html#25,25,1364,625,1364,768,8-21-2022,9-37-7,160,depth_duration_stimuli/003228_2014-05-14_13-42-35_094959634447_rgbf000101-resize_1/003228_2014-05-14_13-42-35_094959634447_rgbf000101-resize_1-target.png,125,1.9680000000000002,75.0,2720,125,meters,jsons/VE125_randls_34.json,885128,1175099,42,Woman
160,117428,DepthScenes,duration_manipulation_targetAtFixation,jsons/VE125_randls_34.json,http://54.235.29.9/FacialAge/BNav_EC2/DepthDuration/v2_depth_duration_MTurk/v2_DepthDuration_HTML.html#25,25,1364,625,1364,768,8-21-2022,9-37-7,161,depth_duration_stimuli/001806_2014-06-26_20-50-20_260595134347_rgbf000091-resize_1/001806_2014-06-26_20-50-20_260595134347_rgbf000091-resize_1-target.png,125,2.7305,100.0,2910,125,meters,jsons/VE125_randls_34.json,885128,1175099,42,Woman
161,117428,DepthScenes,duration_manipulation_targetAtFixation,jsons/VE125_randls_34.json,http://54.235.29.9/FacialAge/BNav_EC2/DepthDuration/v2_depth_duration_MTurk/v2_DepthDuration_HTML.html#25,25,1364,625,1364,768,8-21-2022,9-37-7,162,depth_duration_stimuli/001617_2014-06-20_11-35-32_260595134347_rgbf000066-resize_1/001617_2014-06-20_11-35-32_260595134347_rgbf000066-resize_1-target.png,125,3.7910000000000004,75.0,2678,123,meters,jsons/VE125_randls_34.json,885128,1175099,42,Woman
162,117428,DepthScenes,duration_manipulation_targetAtFixation,jsons/VE125_randls_34.json,http://54.235.29.9/FacialAge/BNav_EC2/DepthDuration/v2_depth_duration_MTurk/v2_DepthDuration_HTML.html#25,25,1364,625,1364,768,8-21-2022,9-37-7,163,depth_duration_stimuli/001555_2014-06-20_17-12-10_260595134347_rgbf000065-resize_4/001555_2014-06-20_17-12-10_260595134347_rgbf000065-resize_4-target.png,125,1.633,75.0,2949,126,meters,jsons/VE125_randls_34.json,885128,1175099,42,Woman
163,117428,DepthScenes,duration_manipulation_targetAtFixation,jsons/VE125_randls_34.json,http://54.235.29.9/FacialAge/BNav_EC2/DepthDuration/v2_depth_duration_MTurk/v2_DepthDuration_HTML.html#25,25,1364,625,1364,768,8-21-2022,9-37-7,164,depth_duration_stimuli/000103_2014-05-14_22-01-17_260595134347_rgbf000152-resize_5/000103_2014-05-14_22-01-17_260595134347_rgbf000152-resize_5-target.png,125,1.993,100.0,3409,124,meters,jsons/VE125_randls_34.json,885128,1175099,42,Woman
