,subjID,experimentName,versionName,sequenceName,url,selected_row,windowWidth,windowHeight,screenWidth,screenHeight,startDate,startTime,trial,stimulus,duration,actual_depth,depth_estimate,trial_RT,log_sceneDuration,unitSelection,seq_filepath,experimentTime,totalTime,age,gender
0,118627,DepthScenes,duration_manipulation_targetAtFixation,jsons/VE125_randls_45_rotated.json,http://54.235.29.9/FacialAge/BNav_EC2/DepthDuration/v2_depth_duration_MTurk/v2_DepthDuration_HTML.html#294,294,1600,757,1600,900,9-18-2022,14-48-47,1,depth_duration_stimuli/000943_2014-06-09_19-31-07_260595134347_rgbf000128-resize_1/000943_2014-06-09_19-31-07_260595134347_rgbf000128-resize_1-target.png,125,1.9765,4,3380,124,feet,jsons/VE125_randls_45_rotated.json,869567,967392,42,Man
1,118627,DepthScenes,duration_manipulation_targetAtFixation,jsons/VE125_randls_45_rotated.json,http://54.235.29.9/FacialAge/BNav_EC2/DepthDuration/v2_depth_duration_MTurk/v2_DepthDuration_HTML.html#294,294,1600,757,1600,900,9-18-2022,14-48-47,2,depth_duration_stimuli/003070_2014-06-15_14-58-27_094959634447_rgbf000150-resize_3/003070_2014-06-15_14-58-27_094959634447_rgbf000150-resize_3-target.png,125,2.9415,5,3820,125,feet,jsons/VE125_randls_45_rotated.json,869567,967392,42,Man
2,118627,DepthScenes,duration_manipulation_targetAtFixation,jsons/VE125_randls_45_rotated.json,http://54.235.29.9/FacialAge/BNav_EC2/DepthDuration/v2_depth_duration_MTurk/v2_DepthDuration_HTML.html#294,294,1600,757,1600,900,9-18-2022,14-48-47,3,depth_duration_stimuli/001571_2014-06-20_17-21-32_260595134347_rgbf000089-resize_1/001571_2014-06-20_17-21-32_260595134347_rgbf000089-resize_1-target.png,125,1.86,4,3408,125,feet,jsons/VE125_randls_45_rotated.json,869567,967392,42,Man
3,118627,DepthScenes,duration_manipulation_targetAtFixation,jsons/VE125_randls_45_rotated.json,http://54.235.29.9/FacialAge/BNav_EC2/DepthDuration/v2_depth_duration_MTurk/v2_DepthDuration_HTML.html#294,294,1600,757,1600,900,9-18-2022,14-48-47,4,depth_duration_stimuli/002272_2014-06-28_18-53-56_260595134347_rgbf000067-resize_2/002272_2014-06-28_18-53-56_260595134347_rgbf000067-resize_2-target.png,125,1.138,25,2973,126,feet,jsons/VE125_randls_45_rotated.json,869567,967392,42,Man
4,118627,DepthScenes,duration_manipulation_targetAtFixation,jsons/VE125_randls_45_rotated.json,http://54.235.29.9/FacialAge/BNav_EC2/DepthDuration/v2_depth_duration_MTurk/v2_DepthDuration_HTML.html#294,294,1600,757,1600,900,9-18-2022,14-48-47,5,depth_duration_stimuli/002995_2014-06-15_12-31-26_094959634447_rgbf000150-resize_1/002995_2014-06-15_12-31-26_094959634447_rgbf000150-resize_1-target.png,125,3.8360000000000003,4,2941,125,feet,jsons/VE125_randls_45_rotated.json,869567,967392,42,Man
5,118627,DepthScenes,duration_manipulation_targetAtFixation,jsons/VE125_randls_45_rotated.json,http://54.235.29.9/FacialAge/BNav_EC2/DepthDuration/v2_depth_duration_MTurk/v2_DepthDuration_HTML.html#294,294,1600,757,1600,900,9-18-2022,14-48-47,6,depth_duration_stimuli/002748_2014-06-22_19-07-22_094959634447_rgbf000078-resize_1/002748_2014-06-22_19-07-22_094959634447_rgbf000078-resize_1-target.png,125,4.6705,5,3427,124,feet,jsons/VE125_randls_45_rotated.json,869567,967392,42,Man
6,118627,DepthScenes,duration_manipulation_targetAtFixation,jsons/VE125_randls_45_rotated.json,http://54.235.29.9/FacialAge/BNav_EC2/DepthDuration/v2_depth_duration_MTurk/v2_DepthDuration_HTML.html#294,294,1600,757,1600,900,9-18-2022,14-48-47,7,depth_duration_stimuli/000780_2014-06-08_22-28-29_260595134347_rgbf000126-resize_1/000780_2014-06-08_22-28-29_260595134347_rgbf000126-resize_1-target.png,125,3.3825,10,2979,125,feet,jsons/VE125_randls_45_rotated.json,869567,967392,42,Man
7,118627,DepthScenes,duration_manipulation_targetAtFixation,jsons/VE125_randls_45_rotated.json,http://54.235.29.9/FacialAge/BNav_EC2/DepthDuration/v2_depth_duration_MTurk/v2_DepthDuration_HTML.html#294,294,1600,757,1600,900,9-18-2022,14-48-47,8,depth_duration_stimuli/002445_2014-06-28_20-32-16_260595134347_rgbf000029-resize_4/002445_2014-06-28_20-32-16_260595134347_rgbf000029-resize_4-target.png,125,2.5315,5,2965,124,feet,jsons/VE125_randls_45_rotated.json,869567,967392,42,Man
8,118627,DepthScenes,duration_manipulation_targetAtFixation,jsons/VE125_randls_45_rotated.json,http://54.235.29.9/FacialAge/BNav_EC2/DepthDuration/v2_depth_duration_MTurk/v2_DepthDuration_HTML.html#294,294,1600,757,1600,900,9-18-2022,14-48-47,9,depth_duration_stimuli/001828_2014-06-26_21-40-03_260595134347_rgbf000024-resize_0/001828_2014-06-26_21-40-03_260595134347_rgbf000024-resize_0-target.png,125,4.8260000000000005,6,3679,124,feet,jsons/VE125_randls_45_rotated.json,869567,967392,42,Man
9,118627,DepthScenes,duration_manipulation_targetAtFixation,jsons/VE125_randls_45_rotated.json,http://54.235.29.9/FacialAge/BNav_EC2/DepthDuration/v2_depth_duration_MTurk/v2_DepthDuration_HTML.html#294,294,1600,757,1600,900,9-18-2022,14-48-47,10,depth_duration_stimuli/000009_2014-05-26_14-32-05_260595134347_rgbf000034-resize_3/000009_2014-05-26_14-32-05_260595134347_rgbf000034-resize_3-target.png,125,3.8715,8,2580,124,feet,jsons/VE125_randls_45_rotated.json,869567,967392,42,Man
10,118627,DepthScenes,duration_manipulation_targetAtFixation,jsons/VE125_randls_45_rotated.json,http://54.235.29.9/FacialAge/BNav_EC2/DepthDuration/v2_depth_duration_MTurk/v2_DepthDuration_HTML.html#294,294,1600,757,1600,900,9-18-2022,14-48-47,11,depth_duration_stimuli/001584_2014-06-20_11-07-43_260595134347_rgbf000002-resize_1/001584_2014-06-20_11-07-43_260595134347_rgbf000002-resize_1-target.png,125,3.53,6,3670,125,feet,jsons/VE125_randls_45_rotated.json,869567,967392,42,Man
11,118627,DepthScenes,duration_manipulation_targetAtFixation,jsons/VE125_randls_45_rotated.json,http://54.235.29.9/FacialAge/BNav_EC2/DepthDuration/v2_depth_duration_MTurk/v2_DepthDuration_HTML.html#294,294,1600,757,1600,900,9-18-2022,14-48-47,12,depth_duration_stimuli/003621_2014-05-23_18-06-08_094959634447_rgbf000101-resize_1/003621_2014-05-23_18-06-08_094959634447_rgbf000101-resize_1-target.png,125,3.9835,4,3295,129,feet,jsons/VE125_randls_45_rotated.json,869567,967392,42,Man
12,118627,DepthScenes,duration_manipulation_targetAtFixation,jsons/VE125_randls_45_rotated.json,http://54.235.29.9/FacialAge/BNav_EC2/DepthDuration/v2_depth_duration_MTurk/v2_DepthDuration_HTML.html#294,294,1600,757,1600,900,9-18-2022,14-48-47,13,depth_duration_stimuli/002678_2014-06-13_16-15-32_094959634447_rgbf000151-resize_6/002678_2014-06-13_16-15-32_094959634447_rgbf000151-resize_6-target.png,125,2.1830000000000003,8,4260,123,feet,jsons/VE125_randls_45_rotated.json,869567,967392,42,Man
13,118627,DepthScenes,duration_manipulation_targetAtFixation,jsons/VE125_randls_45_rotated.json,http://54.235.29.9/FacialAge/BNav_EC2/DepthDuration/v2_depth_duration_MTurk/v2_DepthDuration_HTML.html#294,294,1600,757,1600,900,9-18-2022,14-48-47,14,depth_duration_stimuli/000368_2014-06-09_15-53-01_260595134347_rgbf000155-resize_2/000368_2014-06-09_15-53-01_260595134347_rgbf000155-resize_2-target.png,125,2.4859999999999998,5,8882,127,feet,jsons/VE125_randls_45_rotated.json,869567,967392,42,Man
14,118627,DepthScenes,duration_manipulation_targetAtFixation,jsons/VE125_randls_45_rotated.json,http://54.235.29.9/FacialAge/BNav_EC2/DepthDuration/v2_depth_duration_MTurk/v2_DepthDuration_HTML.html#294,294,1600,757,1600,900,9-18-2022,14-48-47,15,depth_duration_stimuli/001136_2014-06-17_15-19-41_260595134347_rgbf000076-resize_3/001136_2014-06-17_15-19-41_260595134347_rgbf000076-resize_3-target.png,125,1.8655,10,4627,124,feet,jsons/VE125_randls_45_rotated.json,869567,967392,42,Man
15,118627,DepthScenes,duration_manipulation_targetAtFixation,jsons/VE125_randls_45_rotated.json,http://54.235.29.9/FacialAge/BNav_EC2/DepthDuration/v2_depth_duration_MTurk/v2_DepthDuration_HTML.html#294,294,1600,757,1600,900,9-18-2022,14-48-47,16,depth_duration_stimuli/001164_2014-06-17_15-35-46_260595134347_rgbf000085-resize_3/001164_2014-06-17_15-35-46_260595134347_rgbf000085-resize_3-target.png,125,2.354,10,3098,124,feet,jsons/VE125_randls_45_rotated.json,869567,967392,42,Man
16,118627,DepthScenes,duration_manipulation_targetAtFixation,jsons/VE125_randls_45_rotated.json,http://54.235.29.9/FacialAge/BNav_EC2/DepthDuration/v2_depth_duration_MTurk/v2_DepthDuration_HTML.html#294,294,1600,757,1600,900,9-18-2022,14-48-47,17,depth_duration_stimuli/003079_2014-06-15_15-18-20_094959634447_rgbf000152-resize_8/003079_2014-06-15_15-18-20_094959634447_rgbf000152-resize_8-target.png,125,2.8775,5,4940,127,feet,jsons/VE125_randls_45_rotated.json,869567,967392,42,Man
17,118627,DepthScenes,duration_manipulation_targetAtFixation,jsons/VE125_randls_45_rotated.json,http://54.235.29.9/FacialAge/BNav_EC2/DepthDuration/v2_depth_duration_MTurk/v2_DepthDuration_HTML.html#294,294,1600,757,1600,900,9-18-2022,14-48-47,18,depth_duration_stimuli/000506_2014-06-08_23-21-00_260595134347_rgbf000070-resize_7/000506_2014-06-08_23-21-00_260595134347_rgbf000070-resize_7-target.png,125,4.0585,4,2840,126,feet,jsons/VE125_randls_45_rotated.json,869567,967392,42,Man
18,118627,DepthScenes,duration_manipulation_targetAtFixation,jsons/VE125_randls_45_rotated.json,http://54.235.29.9/FacialAge/BNav_EC2/DepthDuration/v2_depth_duration_MTurk/v2_DepthDuration_HTML.html#294,294,1600,757,1600,900,9-18-2022,14-48-47,19,depth_duration_stimuli/001498_2014-06-19_17-45-14_260595134347_rgbf000129-resize_4/001498_2014-06-19_17-45-14_260595134347_rgbf000129-resize-original.jpg,125,1.4075,6,16310,125,feet,jsons/VE125_randls_45_rotated.json,869567,967392,42,Man
19,118627,DepthScenes,duration_manipulation_targetAtFixation,jsons/VE125_randls_45_rotated.json,http://54.235.29.9/FacialAge/BNav_EC2/DepthDuration/v2_depth_duration_MTurk/v2_DepthDuration_HTML.html#294,294,1600,757,1600,900,9-18-2022,14-48-47,20,depth_duration_stimuli/000742_2014-06-08_18-48-09_260595134347_rgbf000164-resize_4/000742_2014-06-08_18-48-09_260595134347_rgbf000164-resize_4-target.png,125,4.632,4,9607,124,feet,jsons/VE125_randls_45_rotated.json,869567,967392,42,Man
20,118627,DepthScenes,duration_manipulation_targetAtFixation,jsons/VE125_randls_45_rotated.json,http://54.235.29.9/FacialAge/BNav_EC2/DepthDuration/v2_depth_duration_MTurk/v2_DepthDuration_HTML.html#294,294,1600,757,1600,900,9-18-2022,14-48-47,21,depth_duration_stimuli/001066_2014-06-08_22-03-20_260595134347_rgbf000066-resize_4/001066_2014-06-08_22-03-20_260595134347_rgbf000066-resize_4-target.png,125,4.2330000000000005,4,5821,125,feet,jsons/VE125_randls_45_rotated.json,869567,967392,42,Man
21,118627,DepthScenes,duration_manipulation_targetAtFixation,jsons/VE125_randls_45_rotated.json,http://54.235.29.9/FacialAge/BNav_EC2/DepthDuration/v2_depth_duration_MTurk/v2_DepthDuration_HTML.html#294,294,1600,757,1600,900,9-18-2022,14-48-47,22,depth_duration_stimuli/000665_2014-06-09_20-42-35_260595134347_rgbf000110-resize_1/000665_2014-06-09_20-42-35_260595134347_rgbf000110-resize_1-target.png,125,3.057,8,4883,125,feet,jsons/VE125_randls_45_rotated.json,869567,967392,42,Man
22,118627,DepthScenes,duration_manipulation_targetAtFixation,jsons/VE125_randls_45_rotated.json,http://54.235.29.9/FacialAge/BNav_EC2/DepthDuration/v2_depth_duration_MTurk/v2_DepthDuration_HTML.html#294,294,1600,757,1600,900,9-18-2022,14-48-47,23,depth_duration_stimuli/001150_2014-06-17_15-27-34_260595134347_rgbf000108-resize_2/001150_2014-06-17_15-27-34_260595134347_rgbf000108-resize_2-target.png,125,4.0325,4,3787,124,feet,jsons/VE125_randls_45_rotated.json,869567,967392,42,Man
23,118627,DepthScenes,duration_manipulation_targetAtFixation,jsons/VE125_randls_45_rotated.json,http://54.235.29.9/FacialAge/BNav_EC2/DepthDuration/v2_depth_duration_MTurk/v2_DepthDuration_HTML.html#294,294,1600,757,1600,900,9-18-2022,14-48-47,24,depth_duration_stimuli/000866_2014-06-09_20-45-42_260595134347_rgbf000139-resize_1/000866_2014-06-09_20-45-42_260595134347_rgbf000139-resize_1-target.png,125,3.2155,5,8920,125,feet,jsons/VE125_randls_45_rotated.json,869567,967392,42,Man
24,118627,DepthScenes,duration_manipulation_targetAtFixation,jsons/VE125_randls_45_rotated.json,http://54.235.29.9/FacialAge/BNav_EC2/DepthDuration/v2_depth_duration_MTurk/v2_DepthDuration_HTML.html#294,294,1600,757,1600,900,9-18-2022,14-48-47,25,depth_duration_stimuli/002989_2014-06-15_12-25-03_094959634447_rgbf000150-resize_3/002989_2014-06-15_12-25-03_094959634447_rgbf000150-resize_3-target.png,125,4.1975,4,8392,126,feet,jsons/VE125_randls_45_rotated.json,869567,967392,42,Man
25,118627,DepthScenes,duration_manipulation_targetAtFixation,jsons/VE125_randls_45_rotated.json,http://54.235.29.9/FacialAge/BNav_EC2/DepthDuration/v2_depth_duration_MTurk/v2_DepthDuration_HTML.html#294,294,1600,757,1600,900,9-18-2022,14-48-47,26,depth_duration_stimuli/000677_2014-06-08_23-10-32_260595134347_rgbf000158-resize_6/000677_2014-06-08_23-10-32_260595134347_rgbf000158-resize_6-target.png,125,3.556,4,5011,125,feet,jsons/VE125_randls_45_rotated.json,869567,967392,42,Man
26,118627,DepthScenes,duration_manipulation_targetAtFixation,jsons/VE125_randls_45_rotated.json,http://54.235.29.9/FacialAge/BNav_EC2/DepthDuration/v2_depth_duration_MTurk/v2_DepthDuration_HTML.html#294,294,1600,757,1600,900,9-18-2022,14-48-47,27,depth_duration_stimuli/001029_2014-06-08_13-17-57_260595134347_rgbf000065-resize_1/001029_2014-06-08_13-17-57_260595134347_rgbf000065-resize_1-target.png,125,3.0835,5,3379,129,feet,jsons/VE125_randls_45_rotated.json,869567,967392,42,Man
27,118627,DepthScenes,duration_manipulation_targetAtFixation,jsons/VE125_randls_45_rotated.json,http://54.235.29.9/FacialAge/BNav_EC2/DepthDuration/v2_depth_duration_MTurk/v2_DepthDuration_HTML.html#294,294,1600,757,1600,900,9-18-2022,14-48-47,28,depth_duration_stimuli/003423_2014-05-21_10-23-26_094959634447_rgbf002665-resize_2/003423_2014-05-21_10-23-26_094959634447_rgbf002665-resize_2-target.png,125,3.2575,5,4186,126,feet,jsons/VE125_randls_45_rotated.json,869567,967392,42,Man
28,118627,DepthScenes,duration_manipulation_targetAtFixation,jsons/VE125_randls_45_rotated.json,http://54.235.29.9/FacialAge/BNav_EC2/DepthDuration/v2_depth_duration_MTurk/v2_DepthDuration_HTML.html#294,294,1600,757,1600,900,9-18-2022,14-48-47,29,depth_duration_stimuli/002905_2014-06-03_18-04-43_094959634447_rgbf000151-resize_2/002905_2014-06-03_18-04-43_094959634447_rgbf000151-resize_2-target.png,125,2.0295,8,2918,124,feet,jsons/VE125_randls_45_rotated.json,869567,967392,42,Man
29,118627,DepthScenes,duration_manipulation_targetAtFixation,jsons/VE125_randls_45_rotated.json,http://54.235.29.9/FacialAge/BNav_EC2/DepthDuration/v2_depth_duration_MTurk/v2_DepthDuration_HTML.html#294,294,1600,757,1600,900,9-18-2022,14-48-47,30,depth_duration_stimuli/002072_2014-06-24_21-48-06_260595134347_rgbf000115-resize_0/002072_2014-06-24_21-48-06_260595134347_rgbf000115-resize-original.jpg,125,4.702,8,4268,125,feet,jsons/VE125_randls_45_rotated.json,869567,967392,42,Man
30,118627,DepthScenes,duration_manipulation_targetAtFixation,jsons/VE125_randls_45_rotated.json,http://54.235.29.9/FacialAge/BNav_EC2/DepthDuration/v2_depth_duration_MTurk/v2_DepthDuration_HTML.html#294,294,1600,757,1600,900,9-18-2022,14-48-47,31,depth_duration_stimuli/002953_2014-06-08_17-32-18_094959634447_rgbf000059-resize_5/002953_2014-06-08_17-32-18_094959634447_rgbf000059-resize_5-target.png,125,1.551,5,3953,124,feet,jsons/VE125_randls_45_rotated.json,869567,967392,42,Man
31,118627,DepthScenes,duration_manipulation_targetAtFixation,jsons/VE125_randls_45_rotated.json,http://54.235.29.9/FacialAge/BNav_EC2/DepthDuration/v2_depth_duration_MTurk/v2_DepthDuration_HTML.html#294,294,1600,757,1600,900,9-18-2022,14-48-47,32,depth_duration_stimuli/000878_2014-06-08_22-52-45_260595134347_rgbf000045-resize_2/000878_2014-06-08_22-52-45_260595134347_rgbf000045-resize_2-target.png,125,2.092,0,3066,125,feet,jsons/VE125_randls_45_rotated.json,869567,967392,42,Man
32,118627,DepthScenes,duration_manipulation_targetAtFixation,jsons/VE125_randls_45_rotated.json,http://54.235.29.9/FacialAge/BNav_EC2/DepthDuration/v2_depth_duration_MTurk/v2_DepthDuration_HTML.html#294,294,1600,757,1600,900,9-18-2022,14-48-47,33,depth_duration_stimuli/001094_2014-06-15_17-36-00_260595134347_rgbf000205-resize_0/001094_2014-06-15_17-36-00_260595134347_rgbf000205-resize_0-target.png,125,4.2175,4,4237,125,feet,jsons/VE125_randls_45_rotated.json,869567,967392,42,Man
33,118627,DepthScenes,duration_manipulation_targetAtFixation,jsons/VE125_randls_45_rotated.json,http://54.235.29.9/FacialAge/BNav_EC2/DepthDuration/v2_depth_duration_MTurk/v2_DepthDuration_HTML.html#294,294,1600,757,1600,900,9-18-2022,14-48-47,34,depth_duration_stimuli/000692_2014-06-08_13-09-42_260595134347_rgbf000199-resize_2/000692_2014-06-08_13-09-42_260595134347_rgbf000199-resize_2-target.png,125,3.661,5,3428,126,feet,jsons/VE125_randls_45_rotated.json,869567,967392,42,Man
34,118627,DepthScenes,duration_manipulation_targetAtFixation,jsons/VE125_randls_45_rotated.json,http://54.235.29.9/FacialAge/BNav_EC2/DepthDuration/v2_depth_duration_MTurk/v2_DepthDuration_HTML.html#294,294,1600,757,1600,900,9-18-2022,14-48-47,35,depth_duration_stimuli/002545_2014-06-24_13-38-53_094959634447_rgbf000080-resize_4/002545_2014-06-24_13-38-53_094959634447_rgbf000080-resize_4-target.png,125,1.9205,8,3532,128,feet,jsons/VE125_randls_45_rotated.json,869567,967392,42,Man
35,118627,DepthScenes,duration_manipulation_targetAtFixation,jsons/VE125_randls_45_rotated.json,http://54.235.29.9/FacialAge/BNav_EC2/DepthDuration/v2_depth_duration_MTurk/v2_DepthDuration_HTML.html#294,294,1600,757,1600,900,9-18-2022,14-48-47,36,depth_duration_stimuli/001092_2014-06-15_17-34-58_260595134347_rgbf000171-resize_3/001092_2014-06-15_17-34-58_260595134347_rgbf000171-resize_3-target.png,125,2.6935,8,4140,124,feet,jsons/VE125_randls_45_rotated.json,869567,967392,42,Man
36,118627,DepthScenes,duration_manipulation_targetAtFixation,jsons/VE125_randls_45_rotated.json,http://54.235.29.9/FacialAge/BNav_EC2/DepthDuration/v2_depth_duration_MTurk/v2_DepthDuration_HTML.html#294,294,1600,757,1600,900,9-18-2022,14-48-47,37,depth_duration_stimuli/001447_2014-06-19_17-00-32_260595134347_rgbf000082-resize_5/001447_2014-06-19_17-00-32_260595134347_rgbf000082-resize_5-target.png,125,4.13775,4,19549,125,feet,jsons/VE125_randls_45_rotated.json,869567,967392,42,Man
37,118627,DepthScenes,duration_manipulation_targetAtFixation,jsons/VE125_randls_45_rotated.json,http://54.235.29.9/FacialAge/BNav_EC2/DepthDuration/v2_depth_duration_MTurk/v2_DepthDuration_HTML.html#294,294,1600,757,1600,900,9-18-2022,14-48-47,38,depth_duration_stimuli/000447_2014-06-08_16-15-46_260595134347_rgbf000130-resize_1/000447_2014-06-08_16-15-46_260595134347_rgbf000130-resize_1-target.png,125,4.479,6,6956,126,feet,jsons/VE125_randls_45_rotated.json,869567,967392,42,Man
38,118627,DepthScenes,duration_manipulation_targetAtFixation,jsons/VE125_randls_45_rotated.json,http://54.235.29.9/FacialAge/BNav_EC2/DepthDuration/v2_depth_duration_MTurk/v2_DepthDuration_HTML.html#294,294,1600,757,1600,900,9-18-2022,14-48-47,39,depth_duration_stimuli/002660_2014-06-13_15-44-18_094959634447_rgbf001878-resize_2/002660_2014-06-13_15-44-18_094959634447_rgbf001878-resize_2-target.png,125,3.576,7,6727,125,feet,jsons/VE125_randls_45_rotated.json,869567,967392,42,Man
39,118627,DepthScenes,duration_manipulation_targetAtFixation,jsons/VE125_randls_45_rotated.json,http://54.235.29.9/FacialAge/BNav_EC2/DepthDuration/v2_depth_duration_MTurk/v2_DepthDuration_HTML.html#294,294,1600,757,1600,900,9-18-2022,14-48-47,40,depth_duration_stimuli/002153_2014-06-25_21-27-18_260595134347_rgbf000038-resize_5/002153_2014-06-25_21-27-18_260595134347_rgbf000038-resize_5-target.png,125,2.505,6,4279,126,feet,jsons/VE125_randls_45_rotated.json,869567,967392,42,Man
40,118627,DepthScenes,duration_manipulation_targetAtFixation,jsons/VE125_randls_45_rotated.json,http://54.235.29.9/FacialAge/BNav_EC2/DepthDuration/v2_depth_duration_MTurk/v2_DepthDuration_HTML.html#294,294,1600,757,1600,900,9-18-2022,14-48-47,41,depth_duration_stimuli/000635_2014-06-08_16-38-42_260595134347_rgbf000106-resize_1/000635_2014-06-08_16-38-42_260595134347_rgbf000106-resize_1-target.png,125,2.074,6,5507,124,feet,jsons/VE125_randls_45_rotated.json,869567,967392,42,Man
41,118627,DepthScenes,duration_manipulation_targetAtFixation,jsons/VE125_randls_45_rotated.json,http://54.235.29.9/FacialAge/BNav_EC2/DepthDuration/v2_depth_duration_MTurk/v2_DepthDuration_HTML.html#294,294,1600,757,1600,900,9-18-2022,14-48-47,42,depth_duration_stimuli/002279_2014-06-28_18-55-32_260595134347_rgbf000040-resize_5/002279_2014-06-28_18-55-32_260595134347_rgbf000040-resize_5-target.png,125,1.5043333333333,4,9397,125,feet,jsons/VE125_randls_45_rotated.json,869567,967392,42,Man
42,118627,DepthScenes,duration_manipulation_targetAtFixation,jsons/VE125_randls_45_rotated.json,http://54.235.29.9/FacialAge/BNav_EC2/DepthDuration/v2_depth_duration_MTurk/v2_DepthDuration_HTML.html#294,294,1600,757,1600,900,9-18-2022,14-48-47,43,depth_duration_stimuli/003587_2014-05-23_16-48-02_094959634447_rgbf002384-resize_2/003587_2014-05-23_16-48-02_094959634447_rgbf002384-resize_2-target.png,125,1.357,6,4796,114,feet,jsons/VE125_randls_45_rotated.json,869567,967392,42,Man
43,118627,DepthScenes,duration_manipulation_targetAtFixation,jsons/VE125_randls_45_rotated.json,http://54.235.29.9/FacialAge/BNav_EC2/DepthDuration/v2_depth_duration_MTurk/v2_DepthDuration_HTML.html#294,294,1600,757,1600,900,9-18-2022,14-48-47,44,depth_duration_stimuli/001167_2014-06-17_15-38-07_260595134347_rgbf000108-resize_0/001167_2014-06-17_15-38-07_260595134347_rgbf000108-resize_0-target.png,125,1.8505,4,3615,125,feet,jsons/VE125_randls_45_rotated.json,869567,967392,42,Man
44,118627,DepthScenes,duration_manipulation_targetAtFixation,jsons/VE125_randls_45_rotated.json,http://54.235.29.9/FacialAge/BNav_EC2/DepthDuration/v2_depth_duration_MTurk/v2_DepthDuration_HTML.html#294,294,1600,757,1600,900,9-18-2022,14-48-47,45,depth_duration_stimuli/002199_2014-06-28_18-33-56_260595134347_rgbf000074-resize_0/002199_2014-06-28_18-33-56_260595134347_rgbf000074-resize_0-target.png,125,1.996,5,4242,123,feet,jsons/VE125_randls_45_rotated.json,869567,967392,42,Man
45,118627,DepthScenes,duration_manipulation_targetAtFixation,jsons/VE125_randls_45_rotated.json,http://54.235.29.9/FacialAge/BNav_EC2/DepthDuration/v2_depth_duration_MTurk/v2_DepthDuration_HTML.html#294,294,1600,757,1600,900,9-18-2022,14-48-47,46,depth_duration_stimuli/001056_2014-06-08_18-46-44_260595134347_rgbf000068-resize_0/001056_2014-06-08_18-46-44_260595134347_rgbf000068-resize_0-target.png,125,2.6625,6,8973,125,feet,jsons/VE125_randls_45_rotated.json,869567,967392,42,Man
46,118627,DepthScenes,duration_manipulation_targetAtFixation,jsons/VE125_randls_45_rotated.json,http://54.235.29.9/FacialAge/BNav_EC2/DepthDuration/v2_depth_duration_MTurk/v2_DepthDuration_HTML.html#294,294,1600,757,1600,900,9-18-2022,14-48-47,47,depth_duration_stimuli/002136_2014-06-25_21-18-03_260595134347_rgbf000109-resize_3/002136_2014-06-25_21-18-03_260595134347_rgbf000109-resize_3-target.png,125,1.9569999999999999,8,8242,141,feet,jsons/VE125_randls_45_rotated.json,869567,967392,42,Man
47,118627,DepthScenes,duration_manipulation_targetAtFixation,jsons/VE125_randls_45_rotated.json,http://54.235.29.9/FacialAge/BNav_EC2/DepthDuration/v2_depth_duration_MTurk/v2_DepthDuration_HTML.html#294,294,1600,757,1600,900,9-18-2022,14-48-47,48,depth_duration_stimuli/002964_2014-06-08_17-46-11_094959634447_rgbf000091-resize_4/002964_2014-06-08_17-46-11_094959634447_rgbf000091-resize_4-target.png,125,1.6909999999999998,6,8197,124,feet,jsons/VE125_randls_45_rotated.json,869567,967392,42,Man
48,118627,DepthScenes,duration_manipulation_targetAtFixation,jsons/VE125_randls_45_rotated.json,http://54.235.29.9/FacialAge/BNav_EC2/DepthDuration/v2_depth_duration_MTurk/v2_DepthDuration_HTML.html#294,294,1600,757,1600,900,9-18-2022,14-48-47,49,depth_duration_stimuli/001170_2014-06-17_15-43-44_260595134347_rgbf000096-resize_6/001170_2014-06-17_15-43-44_260595134347_rgbf000096-resize-original.jpg,125,1.1909999999999998,0,5452,127,feet,jsons/VE125_randls_45_rotated.json,869567,967392,42,Man
49,118627,DepthScenes,duration_manipulation_targetAtFixation,jsons/VE125_randls_45_rotated.json,http://54.235.29.9/FacialAge/BNav_EC2/DepthDuration/v2_depth_duration_MTurk/v2_DepthDuration_HTML.html#294,294,1600,757,1600,900,9-18-2022,14-48-47,50,depth_duration_stimuli/000483_2014-06-09_20-41-45_260595134347_rgbf000116-resize_4/000483_2014-06-09_20-41-45_260595134347_rgbf000116-resize_4-target.png,125,1.337,5,5298,125,feet,jsons/VE125_randls_45_rotated.json,869567,967392,42,Man
50,118627,DepthScenes,duration_manipulation_targetAtFixation,jsons/VE125_randls_45_rotated.json,http://54.235.29.9/FacialAge/BNav_EC2/DepthDuration/v2_depth_duration_MTurk/v2_DepthDuration_HTML.html#294,294,1600,757,1600,900,9-18-2022,14-48-47,51,depth_duration_stimuli/000469_2014-06-09_19-42-10_260595134347_rgbf000081-resize_1/000469_2014-06-09_19-42-10_260595134347_rgbf000081-resize_1-target.png,125,1.652,4,7766,125,feet,jsons/VE125_randls_45_rotated.json,869567,967392,42,Man
51,118627,DepthScenes,duration_manipulation_targetAtFixation,jsons/VE125_randls_45_rotated.json,http://54.235.29.9/FacialAge/BNav_EC2/DepthDuration/v2_depth_duration_MTurk/v2_DepthDuration_HTML.html#294,294,1600,757,1600,900,9-18-2022,14-48-47,52,depth_duration_stimuli/000549_2014-06-08_22-10-24_260595134347_rgbf000247-resize_3/000549_2014-06-08_22-10-24_260595134347_rgbf000247-resize_3-target.png,125,1.841,4,4515,124,feet,jsons/VE125_randls_45_rotated.json,869567,967392,42,Man
52,118627,DepthScenes,duration_manipulation_targetAtFixation,jsons/VE125_randls_45_rotated.json,http://54.235.29.9/FacialAge/BNav_EC2/DepthDuration/v2_depth_duration_MTurk/v2_DepthDuration_HTML.html#294,294,1600,757,1600,900,9-18-2022,14-48-47,53,depth_duration_stimuli/001055_2014-06-08_18-45-35_260595134347_rgbf000111-resize_4/001055_2014-06-08_18-45-35_260595134347_rgbf000111-resize_4-target.png,125,2.4290000000000003,5,4619,125,feet,jsons/VE125_randls_45_rotated.json,869567,967392,42,Man
53,118627,DepthScenes,duration_manipulation_targetAtFixation,jsons/VE125_randls_45_rotated.json,http://54.235.29.9/FacialAge/BNav_EC2/DepthDuration/v2_depth_duration_MTurk/v2_DepthDuration_HTML.html#294,294,1600,757,1600,900,9-18-2022,14-48-47,54,depth_duration_stimuli/002323_2014-06-28_20-01-54_260595134347_rgbf000051-resize_4/002323_2014-06-28_20-01-54_260595134347_rgbf000051-resize_4-target.png,125,3.7310000000000003,8,5581,124,feet,jsons/VE125_randls_45_rotated.json,869567,967392,42,Man
54,118627,DepthScenes,duration_manipulation_targetAtFixation,jsons/VE125_randls_45_rotated.json,http://54.235.29.9/FacialAge/BNav_EC2/DepthDuration/v2_depth_duration_MTurk/v2_DepthDuration_HTML.html#294,294,1600,757,1600,900,9-18-2022,14-48-47,55,depth_duration_stimuli/000917_2014-06-09_22-45-29_260595134347_rgbf000149-resize_3/000917_2014-06-09_22-45-29_260595134347_rgbf000149-resize_3-target.png,125,4.1865,6,5586,124,feet,jsons/VE125_randls_45_rotated.json,869567,967392,42,Man
55,118627,DepthScenes,duration_manipulation_targetAtFixation,jsons/VE125_randls_45_rotated.json,http://54.235.29.9/FacialAge/BNav_EC2/DepthDuration/v2_depth_duration_MTurk/v2_DepthDuration_HTML.html#294,294,1600,757,1600,900,9-18-2022,14-48-47,56,depth_duration_stimuli/002758_2014-06-22_19-11-20_094959634447_rgbf000128-resize_1/002758_2014-06-22_19-11-20_094959634447_rgbf000128-resize_1-target.png,125,2.555,4,5444,125,feet,jsons/VE125_randls_45_rotated.json,869567,967392,42,Man
56,118627,DepthScenes,duration_manipulation_targetAtFixation,jsons/VE125_randls_45_rotated.json,http://54.235.29.9/FacialAge/BNav_EC2/DepthDuration/v2_depth_duration_MTurk/v2_DepthDuration_HTML.html#294,294,1600,757,1600,900,9-18-2022,14-48-47,57,depth_duration_stimuli/002630_2014-06-24_14-47-50_094959634447_rgbf000055-resize_1/002630_2014-06-24_14-47-50_094959634447_rgbf000055-resize_1-target.png,125,3.0095,4,7203,125,feet,jsons/VE125_randls_45_rotated.json,869567,967392,42,Man
57,118627,DepthScenes,duration_manipulation_targetAtFixation,jsons/VE125_randls_45_rotated.json,http://54.235.29.9/FacialAge/BNav_EC2/DepthDuration/v2_depth_duration_MTurk/v2_DepthDuration_HTML.html#294,294,1600,757,1600,900,9-18-2022,14-48-47,58,depth_duration_stimuli/002340_2014-06-28_20-05-46_260595134347_rgbf000113-resize_0/002340_2014-06-28_20-05-46_260595134347_rgbf000113-resize_0-target.png,125,2.4735,12,6597,124,feet,jsons/VE125_randls_45_rotated.json,869567,967392,42,Man
58,118627,DepthScenes,duration_manipulation_targetAtFixation,jsons/VE125_randls_45_rotated.json,http://54.235.29.9/FacialAge/BNav_EC2/DepthDuration/v2_depth_duration_MTurk/v2_DepthDuration_HTML.html#294,294,1600,757,1600,900,9-18-2022,14-48-47,59,depth_duration_stimuli/001016_2014-06-09_16-16-10_260595134347_rgbf000112-resize_5/001016_2014-06-09_16-16-10_260595134347_rgbf000112-resize_5-target.png,125,1.6565,15,4979,124,feet,jsons/VE125_randls_45_rotated.json,869567,967392,42,Man
59,118627,DepthScenes,duration_manipulation_targetAtFixation,jsons/VE125_randls_45_rotated.json,http://54.235.29.9/FacialAge/BNav_EC2/DepthDuration/v2_depth_duration_MTurk/v2_DepthDuration_HTML.html#294,294,1600,757,1600,900,9-18-2022,14-48-47,60,depth_duration_stimuli/000502_2014-06-08_23-02-32_260595134347_rgbf000063-resize_4/000502_2014-06-08_23-02-32_260595134347_rgbf000063-resize_4-target.png,125,2.431,4,6867,124,feet,jsons/VE125_randls_45_rotated.json,869567,967392,42,Man
60,118627,DepthScenes,duration_manipulation_targetAtFixation,jsons/VE125_randls_45_rotated.json,http://54.235.29.9/FacialAge/BNav_EC2/DepthDuration/v2_depth_duration_MTurk/v2_DepthDuration_HTML.html#294,294,1600,757,1600,900,9-18-2022,14-48-47,61,depth_duration_stimuli/001199_2014-06-17_16-03-48_260595134347_rgbf000077-resize_0/001199_2014-06-17_16-03-48_260595134347_rgbf000077-resize_0-target.png,125,3.4375,5,6020,123,feet,jsons/VE125_randls_45_rotated.json,869567,967392,42,Man
61,118627,DepthScenes,duration_manipulation_targetAtFixation,jsons/VE125_randls_45_rotated.json,http://54.235.29.9/FacialAge/BNav_EC2/DepthDuration/v2_depth_duration_MTurk/v2_DepthDuration_HTML.html#294,294,1600,757,1600,900,9-18-2022,14-48-47,62,depth_duration_stimuli/003490_2014-05-21_15-50-11_094959634447_rgbf000101-resize_3/003490_2014-05-21_15-50-11_094959634447_rgbf000101-resize_3-target.png,125,3.6445,6,5907,126,feet,jsons/VE125_randls_45_rotated.json,869567,967392,42,Man
62,118627,DepthScenes,duration_manipulation_targetAtFixation,jsons/VE125_randls_45_rotated.json,http://54.235.29.9/FacialAge/BNav_EC2/DepthDuration/v2_depth_duration_MTurk/v2_DepthDuration_HTML.html#294,294,1600,757,1600,900,9-18-2022,14-48-47,63,depth_duration_stimuli/001175_2014-06-17_15-45-55_260595134347_rgbf000129-resize_4/001175_2014-06-17_15-45-55_260595134347_rgbf000129-resize_4-target.png,125,4.255,6,8485,124,feet,jsons/VE125_randls_45_rotated.json,869567,967392,42,Man
63,118627,DepthScenes,duration_manipulation_targetAtFixation,jsons/VE125_randls_45_rotated.json,http://54.235.29.9/FacialAge/BNav_EC2/DepthDuration/v2_depth_duration_MTurk/v2_DepthDuration_HTML.html#294,294,1600,757,1600,900,9-18-2022,14-48-47,64,depth_duration_stimuli/000191_2014-05-12_17-07-38_260595134347_rgbf000199-resize_0/000191_2014-05-12_17-07-38_260595134347_rgbf000199-resize_0-target.png,125,3.7995,10,6108,126,feet,jsons/VE125_randls_45_rotated.json,869567,967392,42,Man
64,118627,DepthScenes,duration_manipulation_targetAtFixation,jsons/VE125_randls_45_rotated.json,http://54.235.29.9/FacialAge/BNav_EC2/DepthDuration/v2_depth_duration_MTurk/v2_DepthDuration_HTML.html#294,294,1600,757,1600,900,9-18-2022,14-48-47,65,depth_duration_stimuli/000493_2014-06-09_21-01-18_260595134347_rgbf000196-resize_3/000493_2014-06-09_21-01-18_260595134347_rgbf000196-resize_3-target.png,125,3.44,5,3828,125,feet,jsons/VE125_randls_45_rotated.json,869567,967392,42,Man
65,118627,DepthScenes,duration_manipulation_targetAtFixation,jsons/VE125_randls_45_rotated.json,http://54.235.29.9/FacialAge/BNav_EC2/DepthDuration/v2_depth_duration_MTurk/v2_DepthDuration_HTML.html#294,294,1600,757,1600,900,9-18-2022,14-48-47,66,depth_duration_stimuli/001540_2014-06-20_17-01-05_260595134347_rgbf000086-resize_2/001540_2014-06-20_17-01-05_260595134347_rgbf000086-resize-original.jpg,125,1.459,0,4687,123,feet,jsons/VE125_randls_45_rotated.json,869567,967392,42,Man
66,118627,DepthScenes,duration_manipulation_targetAtFixation,jsons/VE125_randls_45_rotated.json,http://54.235.29.9/FacialAge/BNav_EC2/DepthDuration/v2_depth_duration_MTurk/v2_DepthDuration_HTML.html#294,294,1600,757,1600,900,9-18-2022,14-48-47,67,depth_duration_stimuli/001392_2014-06-19_16-07-59_260595134347_rgbf000046-resize_1/001392_2014-06-19_16-07-59_260595134347_rgbf000046-resize_1-target.png,125,4.135,4,5289,124,feet,jsons/VE125_randls_45_rotated.json,869567,967392,42,Man
67,118627,DepthScenes,duration_manipulation_targetAtFixation,jsons/VE125_randls_45_rotated.json,http://54.235.29.9/FacialAge/BNav_EC2/DepthDuration/v2_depth_duration_MTurk/v2_DepthDuration_HTML.html#294,294,1600,757,1600,900,9-18-2022,14-48-47,68,depth_duration_stimuli/001570_2014-06-20_17-21-09_260595134347_rgbf000135-resize_4/001570_2014-06-20_17-21-09_260595134347_rgbf000135-resize_4-target.png,125,4.467,8,6091,129,feet,jsons/VE125_randls_45_rotated.json,869567,967392,42,Man
68,118627,DepthScenes,duration_manipulation_targetAtFixation,jsons/VE125_randls_45_rotated.json,http://54.235.29.9/FacialAge/BNav_EC2/DepthDuration/v2_depth_duration_MTurk/v2_DepthDuration_HTML.html#294,294,1600,757,1600,900,9-18-2022,14-48-47,69,depth_duration_stimuli/000734_2014-06-08_17-39-11_260595134347_rgbf000128-resize_2/000734_2014-06-08_17-39-11_260595134347_rgbf000128-resize_2-target.png,125,4.098,6,9025,125,feet,jsons/VE125_randls_45_rotated.json,869567,967392,42,Man
69,118627,DepthScenes,duration_manipulation_targetAtFixation,jsons/VE125_randls_45_rotated.json,http://54.235.29.9/FacialAge/BNav_EC2/DepthDuration/v2_depth_duration_MTurk/v2_DepthDuration_HTML.html#294,294,1600,757,1600,900,9-18-2022,14-48-47,70,depth_duration_stimuli/000739_2014-06-08_18-45-58_260595134347_rgbf000068-resize_1/000739_2014-06-08_18-45-58_260595134347_rgbf000068-resize_1-target.png,125,3.534,4,6032,126,feet,jsons/VE125_randls_45_rotated.json,869567,967392,42,Man
70,118627,DepthScenes,duration_manipulation_targetAtFixation,jsons/VE125_randls_45_rotated.json,http://54.235.29.9/FacialAge/BNav_EC2/DepthDuration/v2_depth_duration_MTurk/v2_DepthDuration_HTML.html#294,294,1600,757,1600,900,9-18-2022,14-48-47,71,depth_duration_stimuli/003338_2014-05-20_11-01-23_094959634447_rgbf000051-resize_6/003338_2014-05-20_11-01-23_094959634447_rgbf000051-resize_6-target.png,125,1.693,4,5625,133,feet,jsons/VE125_randls_45_rotated.json,869567,967392,42,Man
71,118627,DepthScenes,duration_manipulation_targetAtFixation,jsons/VE125_randls_45_rotated.json,http://54.235.29.9/FacialAge/BNav_EC2/DepthDuration/v2_depth_duration_MTurk/v2_DepthDuration_HTML.html#294,294,1600,757,1600,900,9-18-2022,14-48-47,72,depth_duration_stimuli/002509_2014-06-24_13-19-22_094959634447_rgbf000077-resize_0/002509_2014-06-24_13-19-22_094959634447_rgbf000077-resize_0-target.png,125,1.3065,4,4609,124,feet,jsons/VE125_randls_45_rotated.json,869567,967392,42,Man
72,118627,DepthScenes,duration_manipulation_targetAtFixation,jsons/VE125_randls_45_rotated.json,http://54.235.29.9/FacialAge/BNav_EC2/DepthDuration/v2_depth_duration_MTurk/v2_DepthDuration_HTML.html#294,294,1600,757,1600,900,9-18-2022,14-48-47,73,depth_duration_stimuli/001100_2014-06-15_17-46-26_260595134347_rgbf000225-resize_2/001100_2014-06-15_17-46-26_260595134347_rgbf000225-resize_2-target.png,125,2.24,4,5703,110,feet,jsons/VE125_randls_45_rotated.json,869567,967392,42,Man
73,118627,DepthScenes,duration_manipulation_targetAtFixation,jsons/VE125_randls_45_rotated.json,http://54.235.29.9/FacialAge/BNav_EC2/DepthDuration/v2_depth_duration_MTurk/v2_DepthDuration_HTML.html#294,294,1600,757,1600,900,9-18-2022,14-48-47,74,depth_duration_stimuli/002784_2014-06-22_19-26-30_094959634447_rgbf000083-resize_3/002784_2014-06-22_19-26-30_094959634447_rgbf000083-resize_3-target.png,125,1.8046666666667,6,2985,140,feet,jsons/VE125_randls_45_rotated.json,869567,967392,42,Man
74,118627,DepthScenes,duration_manipulation_targetAtFixation,jsons/VE125_randls_45_rotated.json,http://54.235.29.9/FacialAge/BNav_EC2/DepthDuration/v2_depth_duration_MTurk/v2_DepthDuration_HTML.html#294,294,1600,757,1600,900,9-18-2022,14-48-47,75,depth_duration_stimuli/003010_2014-06-15_12-54-35_094959634447_rgbf000112-resize_0/003010_2014-06-15_12-54-35_094959634447_rgbf000112-resize_0-target.png,125,3.1185,10,3672,125,feet,jsons/VE125_randls_45_rotated.json,869567,967392,42,Man
75,118627,DepthScenes,duration_manipulation_targetAtFixation,jsons/VE125_randls_45_rotated.json,http://54.235.29.9/FacialAge/BNav_EC2/DepthDuration/v2_depth_duration_MTurk/v2_DepthDuration_HTML.html#294,294,1600,757,1600,900,9-18-2022,14-48-47,76,depth_duration_stimuli/001810_2014-06-26_20-51-35_260595134347_rgbf000040-resize_3/001810_2014-06-26_20-51-35_260595134347_rgbf000040-resize_3-target.png,125,2.2525,100,5031,125,feet,jsons/VE125_randls_45_rotated.json,869567,967392,42,Man
76,118627,DepthScenes,duration_manipulation_targetAtFixation,jsons/VE125_randls_45_rotated.json,http://54.235.29.9/FacialAge/BNav_EC2/DepthDuration/v2_depth_duration_MTurk/v2_DepthDuration_HTML.html#294,294,1600,757,1600,900,9-18-2022,14-48-47,77,depth_duration_stimuli/002657_2014-06-13_15-29-54_094959634447_rgbf000150-resize_1/002657_2014-06-13_15-29-54_094959634447_rgbf000150-resize_1-target.png,125,4.919,4,3764,123,feet,jsons/VE125_randls_45_rotated.json,869567,967392,42,Man
77,118627,DepthScenes,duration_manipulation_targetAtFixation,jsons/VE125_randls_45_rotated.json,http://54.235.29.9/FacialAge/BNav_EC2/DepthDuration/v2_depth_duration_MTurk/v2_DepthDuration_HTML.html#294,294,1600,757,1600,900,9-18-2022,14-48-47,78,depth_duration_stimuli/002375_2014-06-28_20-13-44_260595134347_rgbf000032-resize_1/002375_2014-06-28_20-13-44_260595134347_rgbf000032-resize_1-target.png,125,4.0175,5,5136,121,feet,jsons/VE125_randls_45_rotated.json,869567,967392,42,Man
78,118627,DepthScenes,duration_manipulation_targetAtFixation,jsons/VE125_randls_45_rotated.json,http://54.235.29.9/FacialAge/BNav_EC2/DepthDuration/v2_depth_duration_MTurk/v2_DepthDuration_HTML.html#294,294,1600,757,1600,900,9-18-2022,14-48-47,79,depth_duration_stimuli/003081_2014-06-15_15-19-16_094959634447_rgbf000150-resize_1/003081_2014-06-15_15-19-16_094959634447_rgbf000150-resize_1-target.png,125,3.9125,4,4094,125,feet,jsons/VE125_randls_45_rotated.json,869567,967392,42,Man
79,118627,DepthScenes,duration_manipulation_targetAtFixation,jsons/VE125_randls_45_rotated.json,http://54.235.29.9/FacialAge/BNav_EC2/DepthDuration/v2_depth_duration_MTurk/v2_DepthDuration_HTML.html#294,294,1600,757,1600,900,9-18-2022,14-48-47,80,depth_duration_stimuli/001417_2014-06-19_16-25-36_260595134347_rgbf000115-resize_5/001417_2014-06-19_16-25-36_260595134347_rgbf000115-resize_5-target.png,125,4.6255,2,3140,124,feet,jsons/VE125_randls_45_rotated.json,869567,967392,42,Man
80,118627,DepthScenes,duration_manipulation_targetAtFixation,jsons/VE125_randls_45_rotated.json,http://54.235.29.9/FacialAge/BNav_EC2/DepthDuration/v2_depth_duration_MTurk/v2_DepthDuration_HTML.html#294,294,1600,757,1600,900,9-18-2022,14-48-47,81,depth_duration_stimuli/000409_2014-06-04_19-23-33_260595134347_rgbf000067-resize_0/000409_2014-06-04_19-23-33_260595134347_rgbf000067-resize_0-target.png,125,3.7335,8,4719,110,feet,jsons/VE125_randls_45_rotated.json,869567,967392,42,Man
81,118627,DepthScenes,duration_manipulation_targetAtFixation,jsons/VE125_randls_45_rotated.json,http://54.235.29.9/FacialAge/BNav_EC2/DepthDuration/v2_depth_duration_MTurk/v2_DepthDuration_HTML.html#294,294,1600,757,1600,900,9-18-2022,14-48-47,82,depth_duration_stimuli/002663_2014-06-13_15-50-26_094959634447_rgbf000075-resize_1/002663_2014-06-13_15-50-26_094959634447_rgbf000075-resize_1-target.png,125,4.7495,4,4437,124,feet,jsons/VE125_randls_45_rotated.json,869567,967392,42,Man
82,118627,DepthScenes,duration_manipulation_targetAtFixation,jsons/VE125_randls_45_rotated.json,http://54.235.29.9/FacialAge/BNav_EC2/DepthDuration/v2_depth_duration_MTurk/v2_DepthDuration_HTML.html#294,294,1600,757,1600,900,9-18-2022,14-48-47,83,depth_duration_stimuli/000109_2014-05-14_23-41-52_260595134347_rgbf000035-resize_9/000109_2014-05-14_23-41-52_260595134347_rgbf000035-resize_9-target.png,125,1.3545,4,6142,125,feet,jsons/VE125_randls_45_rotated.json,869567,967392,42,Man
83,118627,DepthScenes,duration_manipulation_targetAtFixation,jsons/VE125_randls_45_rotated.json,http://54.235.29.9/FacialAge/BNav_EC2/DepthDuration/v2_depth_duration_MTurk/v2_DepthDuration_HTML.html#294,294,1600,757,1600,900,9-18-2022,14-48-47,84,depth_duration_stimuli/000470_2014-06-09_19-42-40_260595134347_rgbf000094-resize_1/000470_2014-06-09_19-42-40_260595134347_rgbf000094-resize_1-target.png,125,1.831,5,3938,112,feet,jsons/VE125_randls_45_rotated.json,869567,967392,42,Man
84,118627,DepthScenes,duration_manipulation_targetAtFixation,jsons/VE125_randls_45_rotated.json,http://54.235.29.9/FacialAge/BNav_EC2/DepthDuration/v2_depth_duration_MTurk/v2_DepthDuration_HTML.html#294,294,1600,757,1600,900,9-18-2022,14-48-47,85,depth_duration_stimuli/000854_2014-06-09_19-43-13_260595134347_rgbf000066-resize_0/000854_2014-06-09_19-43-13_260595134347_rgbf000066-resize_0-target.png,125,3.068,4,4765,127,feet,jsons/VE125_randls_45_rotated.json,869567,967392,42,Man
85,118627,DepthScenes,duration_manipulation_targetAtFixation,jsons/VE125_randls_45_rotated.json,http://54.235.29.9/FacialAge/BNav_EC2/DepthDuration/v2_depth_duration_MTurk/v2_DepthDuration_HTML.html#294,294,1600,757,1600,900,9-18-2022,14-48-47,86,depth_duration_stimuli/000758_2014-06-08_22-05-08_260595134347_rgbf000085-resize_0/000758_2014-06-08_22-05-08_260595134347_rgbf000085-resize_0-target.png,125,3.3810000000000002,6,3812,124,feet,jsons/VE125_randls_45_rotated.json,869567,967392,42,Man
86,118627,DepthScenes,duration_manipulation_targetAtFixation,jsons/VE125_randls_45_rotated.json,http://54.235.29.9/FacialAge/BNav_EC2/DepthDuration/v2_depth_duration_MTurk/v2_DepthDuration_HTML.html#294,294,1600,757,1600,900,9-18-2022,14-48-47,87,depth_duration_stimuli/002750_2014-06-22_19-08-03_094959634447_rgbf000094-resize_4/002750_2014-06-22_19-08-03_094959634447_rgbf000094-resize_4-target.png,125,2.354,4,4813,126,feet,jsons/VE125_randls_45_rotated.json,869567,967392,42,Man
87,118627,DepthScenes,duration_manipulation_targetAtFixation,jsons/VE125_randls_45_rotated.json,http://54.235.29.9/FacialAge/BNav_EC2/DepthDuration/v2_depth_duration_MTurk/v2_DepthDuration_HTML.html#294,294,1600,757,1600,900,9-18-2022,14-48-47,88,depth_duration_stimuli/002549_2014-06-24_13-41-39_094959634447_rgbf000022-resize_3/002549_2014-06-24_13-41-39_094959634447_rgbf000022-resize_3-target.png,125,1.476,5,3125,141,feet,jsons/VE125_randls_45_rotated.json,869567,967392,42,Man
88,118627,DepthScenes,duration_manipulation_targetAtFixation,jsons/VE125_randls_45_rotated.json,http://54.235.29.9/FacialAge/BNav_EC2/DepthDuration/v2_depth_duration_MTurk/v2_DepthDuration_HTML.html#294,294,1600,757,1600,900,9-18-2022,14-48-47,89,depth_duration_stimuli/002103_2014-06-25_20-00-40_260595134347_rgbf000049-resize_0/002103_2014-06-25_20-00-40_260595134347_rgbf000049-resize_0-target.png,125,4.105,10,8859,125,feet,jsons/VE125_randls_45_rotated.json,869567,967392,42,Man
89,118627,DepthScenes,duration_manipulation_targetAtFixation,jsons/VE125_randls_45_rotated.json,http://54.235.29.9/FacialAge/BNav_EC2/DepthDuration/v2_depth_duration_MTurk/v2_DepthDuration_HTML.html#294,294,1600,757,1600,900,9-18-2022,14-48-47,90,depth_duration_stimuli/002039_2014-06-24_20-22-38_260595134347_rgbf000084-resize_1/002039_2014-06-24_20-22-38_260595134347_rgbf000084-resize_1-target.png,125,4.408,5,4313,125,feet,jsons/VE125_randls_45_rotated.json,869567,967392,42,Man
90,118627,DepthScenes,duration_manipulation_targetAtFixation,jsons/VE125_randls_45_rotated.json,http://54.235.29.9/FacialAge/BNav_EC2/DepthDuration/v2_depth_duration_MTurk/v2_DepthDuration_HTML.html#294,294,1600,757,1600,900,9-18-2022,14-48-47,91,depth_duration_stimuli/002875_2014-06-01_15-19-00_094959634447_rgbf000151-resize_1/002875_2014-06-01_15-19-00_094959634447_rgbf000151-resize_1-target.png,125,1.9675,6,5468,109,feet,jsons/VE125_randls_45_rotated.json,869567,967392,42,Man
91,118627,DepthScenes,duration_manipulation_targetAtFixation,jsons/VE125_randls_45_rotated.json,http://54.235.29.9/FacialAge/BNav_EC2/DepthDuration/v2_depth_duration_MTurk/v2_DepthDuration_HTML.html#294,294,1600,757,1600,900,9-18-2022,14-48-47,92,depth_duration_stimuli/001011_2014-06-08_23-18-54_260595134347_rgbf000044-resize_4/001011_2014-06-08_23-18-54_260595134347_rgbf000044-resize_4-target.png,125,2.4730000000000003,6,3406,125,feet,jsons/VE125_randls_45_rotated.json,869567,967392,42,Man
92,118627,DepthScenes,duration_manipulation_targetAtFixation,jsons/VE125_randls_45_rotated.json,http://54.235.29.9/FacialAge/BNav_EC2/DepthDuration/v2_depth_duration_MTurk/v2_DepthDuration_HTML.html#294,294,1600,757,1600,900,9-18-2022,14-48-47,93,depth_duration_stimuli/001235_2014-06-17_16-37-36_260595134347_rgbf000084-resize_4/001235_2014-06-17_16-37-36_260595134347_rgbf000084-resize_4-target.png,125,3.6605,5,5219,109,feet,jsons/VE125_randls_45_rotated.json,869567,967392,42,Man
93,118627,DepthScenes,duration_manipulation_targetAtFixation,jsons/VE125_randls_45_rotated.json,http://54.235.29.9/FacialAge/BNav_EC2/DepthDuration/v2_depth_duration_MTurk/v2_DepthDuration_HTML.html#294,294,1600,757,1600,900,9-18-2022,14-48-47,94,depth_duration_stimuli/000788_2014-06-08_22-34-36_260595134347_rgbf000131-resize_1/000788_2014-06-08_22-34-36_260595134347_rgbf000131-resize_1-target.png,125,3.359,5,4748,123,feet,jsons/VE125_randls_45_rotated.json,869567,967392,42,Man
94,118627,DepthScenes,duration_manipulation_targetAtFixation,jsons/VE125_randls_45_rotated.json,http://54.235.29.9/FacialAge/BNav_EC2/DepthDuration/v2_depth_duration_MTurk/v2_DepthDuration_HTML.html#294,294,1600,757,1600,900,9-18-2022,14-48-47,95,depth_duration_stimuli/000457_2014-06-08_16-52-43_260595134347_rgbf000199-resize_1/000457_2014-06-08_16-52-43_260595134347_rgbf000199-resize_1-target.png,125,3.6489999999999996,10,4954,125,feet,jsons/VE125_randls_45_rotated.json,869567,967392,42,Man
95,118627,DepthScenes,duration_manipulation_targetAtFixation,jsons/VE125_randls_45_rotated.json,http://54.235.29.9/FacialAge/BNav_EC2/DepthDuration/v2_depth_duration_MTurk/v2_DepthDuration_HTML.html#294,294,1600,757,1600,900,9-18-2022,14-48-47,96,depth_duration_stimuli/000929_2014-06-09_16-33-19_260595134347_rgbf000139-resize_0/000929_2014-06-09_16-33-19_260595134347_rgbf000139-resize_0-target.png,125,2.8680000000000003,2,3353,116,feet,jsons/VE125_randls_45_rotated.json,869567,967392,42,Man
96,118627,DepthScenes,duration_manipulation_targetAtFixation,jsons/VE125_randls_45_rotated.json,http://54.235.29.9/FacialAge/BNav_EC2/DepthDuration/v2_depth_duration_MTurk/v2_DepthDuration_HTML.html#294,294,1600,757,1600,900,9-18-2022,14-48-47,97,depth_duration_stimuli/000691_2014-06-08_13-08-50_260595134347_rgbf000132-resize_3/000691_2014-06-08_13-08-50_260595134347_rgbf000132-resize_3-target.png,125,4.1530000000000005,8,5042,125,feet,jsons/VE125_randls_45_rotated.json,869567,967392,42,Man
97,118627,DepthScenes,duration_manipulation_targetAtFixation,jsons/VE125_randls_45_rotated.json,http://54.235.29.9/FacialAge/BNav_EC2/DepthDuration/v2_depth_duration_MTurk/v2_DepthDuration_HTML.html#294,294,1600,757,1600,900,9-18-2022,14-48-47,98,depth_duration_stimuli/002213_2014-06-28_18-37-58_260595134347_rgbf000055-resize_1/002213_2014-06-28_18-37-58_260595134347_rgbf000055-resize_1-target.png,125,3.62,6,5106,120,feet,jsons/VE125_randls_45_rotated.json,869567,967392,42,Man
98,118627,DepthScenes,duration_manipulation_targetAtFixation,jsons/VE125_randls_45_rotated.json,http://54.235.29.9/FacialAge/BNav_EC2/DepthDuration/v2_depth_duration_MTurk/v2_DepthDuration_HTML.html#294,294,1600,757,1600,900,9-18-2022,14-48-47,99,depth_duration_stimuli/001222_2014-06-17_16-24-06_260595134347_rgbf000073-resize_0/001222_2014-06-17_16-24-06_260595134347_rgbf000073-resize-original.jpg,125,1.4385,12,6321,126,feet,jsons/VE125_randls_45_rotated.json,869567,967392,42,Man
99,118627,DepthScenes,duration_manipulation_targetAtFixation,jsons/VE125_randls_45_rotated.json,http://54.235.29.9/FacialAge/BNav_EC2/DepthDuration/v2_depth_duration_MTurk/v2_DepthDuration_HTML.html#294,294,1600,757,1600,900,9-18-2022,14-48-47,100,depth_duration_stimuli/003048_2014-06-15_13-49-43_094959634447_rgbf000150-resize_1/003048_2014-06-15_13-49-43_094959634447_rgbf000150-resize_1-target.png,125,4.0035,14,2164,125,feet,jsons/VE125_randls_45_rotated.json,869567,967392,42,Man
100,118627,DepthScenes,duration_manipulation_targetAtFixation,jsons/VE125_randls_45_rotated.json,http://54.235.29.9/FacialAge/BNav_EC2/DepthDuration/v2_depth_duration_MTurk/v2_DepthDuration_HTML.html#294,294,1600,757,1600,900,9-18-2022,14-48-47,101,depth_duration_stimuli/002043_2014-06-24_20-29-38_260595134347_rgbf000039-resize_4/002043_2014-06-24_20-29-38_260595134347_rgbf000039-resize_4-target.png,125,2.8435,2,3025,124,feet,jsons/VE125_randls_45_rotated.json,869567,967392,42,Man
101,118627,DepthScenes,duration_manipulation_targetAtFixation,jsons/VE125_randls_45_rotated.json,http://54.235.29.9/FacialAge/BNav_EC2/DepthDuration/v2_depth_duration_MTurk/v2_DepthDuration_HTML.html#294,294,1600,757,1600,900,9-18-2022,14-48-47,102,depth_duration_stimuli/001132_2014-06-17_14-48-54_260595134347_rgbf000100-resize_2/001132_2014-06-17_14-48-54_260595134347_rgbf000100-resize_2-target.png,125,3.753,4,3494,125,feet,jsons/VE125_randls_45_rotated.json,869567,967392,42,Man
102,118627,DepthScenes,duration_manipulation_targetAtFixation,jsons/VE125_randls_45_rotated.json,http://54.235.29.9/FacialAge/BNav_EC2/DepthDuration/v2_depth_duration_MTurk/v2_DepthDuration_HTML.html#294,294,1600,757,1600,900,9-18-2022,14-48-47,103,depth_duration_stimuli/001133_2014-06-17_14-49-16_260595134347_rgbf000100-resize_0/001133_2014-06-17_14-49-16_260595134347_rgbf000100-resize_0-target.png,125,4.2115,5,2853,126,feet,jsons/VE125_randls_45_rotated.json,869567,967392,42,Man
103,118627,DepthScenes,duration_manipulation_targetAtFixation,jsons/VE125_randls_45_rotated.json,http://54.235.29.9/FacialAge/BNav_EC2/DepthDuration/v2_depth_duration_MTurk/v2_DepthDuration_HTML.html#294,294,1600,757,1600,900,9-18-2022,14-48-47,104,depth_duration_stimuli/001650_2014-06-20_12-09-00_260595134347_rgbf000087-resize_3/001650_2014-06-20_12-09-00_260595134347_rgbf000087-resize_3-target.png,125,1.9505,5,3556,125,feet,jsons/VE125_randls_45_rotated.json,869567,967392,42,Man
104,118627,DepthScenes,duration_manipulation_targetAtFixation,jsons/VE125_randls_45_rotated.json,http://54.235.29.9/FacialAge/BNav_EC2/DepthDuration/v2_depth_duration_MTurk/v2_DepthDuration_HTML.html#294,294,1600,757,1600,900,9-18-2022,14-48-47,105,depth_duration_stimuli/000682_2014-06-08_23-14-58_260595134347_rgbf000041-resize_5/000682_2014-06-08_23-14-58_260595134347_rgbf000041-resize_5-target.png,125,2.7239999999999998,5,3154,124,feet,jsons/VE125_randls_45_rotated.json,869567,967392,42,Man
105,118627,DepthScenes,duration_manipulation_targetAtFixation,jsons/VE125_randls_45_rotated.json,http://54.235.29.9/FacialAge/BNav_EC2/DepthDuration/v2_depth_duration_MTurk/v2_DepthDuration_HTML.html#294,294,1600,757,1600,900,9-18-2022,14-48-47,106,depth_duration_stimuli/001214_2014-06-17_16-13-55_260595134347_rgbf000111-resize_0/001214_2014-06-17_16-13-55_260595134347_rgbf000111-resize_0-target.png,125,2.6505,4,4125,126,feet,jsons/VE125_randls_45_rotated.json,869567,967392,42,Man
106,118627,DepthScenes,duration_manipulation_targetAtFixation,jsons/VE125_randls_45_rotated.json,http://54.235.29.9/FacialAge/BNav_EC2/DepthDuration/v2_depth_duration_MTurk/v2_DepthDuration_HTML.html#294,294,1600,757,1600,900,9-18-2022,14-48-47,107,depth_duration_stimuli/000810_2014-06-08_17-20-01_260595134347_rgbf000105-resize_0/000810_2014-06-08_17-20-01_260595134347_rgbf000105-resize_0-target.png,125,1.4865,15,4003,124,feet,jsons/VE125_randls_45_rotated.json,869567,967392,42,Man
107,118627,DepthScenes,duration_manipulation_targetAtFixation,jsons/VE125_randls_45_rotated.json,http://54.235.29.9/FacialAge/BNav_EC2/DepthDuration/v2_depth_duration_MTurk/v2_DepthDuration_HTML.html#294,294,1600,757,1600,900,9-18-2022,14-48-47,108,depth_duration_stimuli/002444_2014-06-28_20-32-08_260595134347_rgbf000027-resize_0/002444_2014-06-28_20-32-08_260595134347_rgbf000027-resize_0-target.png,125,4.388999999999999,15,3891,125,feet,jsons/VE125_randls_45_rotated.json,869567,967392,42,Man
108,118627,DepthScenes,duration_manipulation_targetAtFixation,jsons/VE125_randls_45_rotated.json,http://54.235.29.9/FacialAge/BNav_EC2/DepthDuration/v2_depth_duration_MTurk/v2_DepthDuration_HTML.html#294,294,1600,757,1600,900,9-18-2022,14-48-47,109,depth_duration_stimuli/000436_2014-06-09_22-25-11_260595134347_rgbf000137-resize_1/000436_2014-06-09_22-25-11_260595134347_rgbf000137-resize_1-target.png,125,4.0705,2,3660,131,feet,jsons/VE125_randls_45_rotated.json,869567,967392,42,Man
109,118627,DepthScenes,duration_manipulation_targetAtFixation,jsons/VE125_randls_45_rotated.json,http://54.235.29.9/FacialAge/BNav_EC2/DepthDuration/v2_depth_duration_MTurk/v2_DepthDuration_HTML.html#294,294,1600,757,1600,900,9-18-2022,14-48-47,110,depth_duration_stimuli/002209_2014-06-28_18-36-10_260595134347_rgbf000051-resize_1/002209_2014-06-28_18-36-10_260595134347_rgbf000051-resize_1-target.png,125,2.057,4,3482,124,feet,jsons/VE125_randls_45_rotated.json,869567,967392,42,Man
110,118627,DepthScenes,duration_manipulation_targetAtFixation,jsons/VE125_randls_45_rotated.json,http://54.235.29.9/FacialAge/BNav_EC2/DepthDuration/v2_depth_duration_MTurk/v2_DepthDuration_HTML.html#294,294,1600,757,1600,900,9-18-2022,14-48-47,111,depth_duration_stimuli/002763_2014-06-22_19-13-10_094959634447_rgbf000075-resize_4/002763_2014-06-22_19-13-10_094959634447_rgbf000075-resize_4-target.png,125,1.68375,5,3060,123,feet,jsons/VE125_randls_45_rotated.json,869567,967392,42,Man
111,118627,DepthScenes,duration_manipulation_targetAtFixation,jsons/VE125_randls_45_rotated.json,http://54.235.29.9/FacialAge/BNav_EC2/DepthDuration/v2_depth_duration_MTurk/v2_DepthDuration_HTML.html#294,294,1600,757,1600,900,9-18-2022,14-48-47,112,depth_duration_stimuli/000749_2014-06-08_21-55-06_260595134347_rgbf000070-resize_2/000749_2014-06-08_21-55-06_260595134347_rgbf000070-resize_2-target.png,125,2.331,4,3235,125,feet,jsons/VE125_randls_45_rotated.json,869567,967392,42,Man
112,118627,DepthScenes,duration_manipulation_targetAtFixation,jsons/VE125_randls_45_rotated.json,http://54.235.29.9/FacialAge/BNav_EC2/DepthDuration/v2_depth_duration_MTurk/v2_DepthDuration_HTML.html#294,294,1600,757,1600,900,9-18-2022,14-48-47,113,depth_duration_stimuli/002788_2014-06-22_19-36-03_094959634447_rgbf000088-resize_2/002788_2014-06-22_19-36-03_094959634447_rgbf000088-resize_2-target.png,125,1.6465,0,3333,126,feet,jsons/VE125_randls_45_rotated.json,869567,967392,42,Man
113,118627,DepthScenes,duration_manipulation_targetAtFixation,jsons/VE125_randls_45_rotated.json,http://54.235.29.9/FacialAge/BNav_EC2/DepthDuration/v2_depth_duration_MTurk/v2_DepthDuration_HTML.html#294,294,1600,757,1600,900,9-18-2022,14-48-47,114,depth_duration_stimuli/003495_2014-05-21_16-01-51_094959634447_rgbf000100-resize_3/003495_2014-05-21_16-01-51_094959634447_rgbf000100-resize_3-target.png,125,1.6255,2,3291,126,feet,jsons/VE125_randls_45_rotated.json,869567,967392,42,Man
114,118627,DepthScenes,duration_manipulation_targetAtFixation,jsons/VE125_randls_45_rotated.json,http://54.235.29.9/FacialAge/BNav_EC2/DepthDuration/v2_depth_duration_MTurk/v2_DepthDuration_HTML.html#294,294,1600,757,1600,900,9-18-2022,14-48-47,115,depth_duration_stimuli/001244_2014-06-17_16-47-45_260595134347_rgbf000030-resize_4/001244_2014-06-17_16-47-45_260595134347_rgbf000030-resize_4-target.png,125,2.0425,4,2828,126,feet,jsons/VE125_randls_45_rotated.json,869567,967392,42,Man
115,118627,DepthScenes,duration_manipulation_targetAtFixation,jsons/VE125_randls_45_rotated.json,http://54.235.29.9/FacialAge/BNav_EC2/DepthDuration/v2_depth_duration_MTurk/v2_DepthDuration_HTML.html#294,294,1600,757,1600,900,9-18-2022,14-48-47,116,depth_duration_stimuli/003083_2014-06-15_15-21-03_094959634447_rgbf000063-resize_1/003083_2014-06-15_15-21-03_094959634447_rgbf000063-resize_1-target.png,125,4.1405,8,3564,124,feet,jsons/VE125_randls_45_rotated.json,869567,967392,42,Man
116,118627,DepthScenes,duration_manipulation_targetAtFixation,jsons/VE125_randls_45_rotated.json,http://54.235.29.9/FacialAge/BNav_EC2/DepthDuration/v2_depth_duration_MTurk/v2_DepthDuration_HTML.html#294,294,1600,757,1600,900,9-18-2022,14-48-47,117,depth_duration_stimuli/000486_2014-06-09_20-47-20_260595134347_rgbf000143-resize_2/000486_2014-06-09_20-47-20_260595134347_rgbf000143-resize_2-target.png,125,4.8325,4,2612,126,feet,jsons/VE125_randls_45_rotated.json,869567,967392,42,Man
117,118627,DepthScenes,duration_manipulation_targetAtFixation,jsons/VE125_randls_45_rotated.json,http://54.235.29.9/FacialAge/BNav_EC2/DepthDuration/v2_depth_duration_MTurk/v2_DepthDuration_HTML.html#294,294,1600,757,1600,900,9-18-2022,14-48-47,118,depth_duration_stimuli/002344_2014-06-28_20-06-29_260595134347_rgbf000030-resize_1/002344_2014-06-28_20-06-29_260595134347_rgbf000030-resize_1-target.png,125,1.5795,2,7107,125,feet,jsons/VE125_randls_45_rotated.json,869567,967392,42,Man
118,118627,DepthScenes,duration_manipulation_targetAtFixation,jsons/VE125_randls_45_rotated.json,http://54.235.29.9/FacialAge/BNav_EC2/DepthDuration/v2_depth_duration_MTurk/v2_DepthDuration_HTML.html#294,294,1600,757,1600,900,9-18-2022,14-48-47,119,depth_duration_stimuli/002725_2014-06-22_11-47-51_094959634447_rgbf000070-resize_1/002725_2014-06-22_11-47-51_094959634447_rgbf000070-resize_1-target.png,125,2.195,5,2927,121,feet,jsons/VE125_randls_45_rotated.json,869567,967392,42,Man
119,118627,DepthScenes,duration_manipulation_targetAtFixation,jsons/VE125_randls_45_rotated.json,http://54.235.29.9/FacialAge/BNav_EC2/DepthDuration/v2_depth_duration_MTurk/v2_DepthDuration_HTML.html#294,294,1600,757,1600,900,9-18-2022,14-48-47,120,depth_duration_stimuli/000787_2014-06-08_22-33-53_260595134347_rgbf000175-resize_1/000787_2014-06-08_22-33-53_260595134347_rgbf000175-resize-original.jpg,125,4.784,5,3002,125,feet,jsons/VE125_randls_45_rotated.json,869567,967392,42,Man
120,118627,DepthScenes,duration_manipulation_targetAtFixation,jsons/VE125_randls_45_rotated.json,http://54.235.29.9/FacialAge/BNav_EC2/DepthDuration/v2_depth_duration_MTurk/v2_DepthDuration_HTML.html#294,294,1600,757,1600,900,9-18-2022,14-48-47,121,depth_duration_stimuli/001617_2014-06-20_11-35-32_260595134347_rgbf000066-resize_1/001617_2014-06-20_11-35-32_260595134347_rgbf000066-resize_1-target.png,125,3.7910000000000004,5,3045,147,feet,jsons/VE125_randls_45_rotated.json,869567,967392,42,Man
121,118627,DepthScenes,duration_manipulation_targetAtFixation,jsons/VE125_randls_45_rotated.json,http://54.235.29.9/FacialAge/BNav_EC2/DepthDuration/v2_depth_duration_MTurk/v2_DepthDuration_HTML.html#294,294,1600,757,1600,900,9-18-2022,14-48-47,122,depth_duration_stimuli/001806_2014-06-26_20-50-20_260595134347_rgbf000091-resize_1/001806_2014-06-26_20-50-20_260595134347_rgbf000091-resize_1-target.png,125,2.7305,5,3348,126,feet,jsons/VE125_randls_45_rotated.json,869567,967392,42,Man
122,118627,DepthScenes,duration_manipulation_targetAtFixation,jsons/VE125_randls_45_rotated.json,http://54.235.29.9/FacialAge/BNav_EC2/DepthDuration/v2_depth_duration_MTurk/v2_DepthDuration_HTML.html#294,294,1600,757,1600,900,9-18-2022,14-48-47,123,depth_duration_stimuli/001032_2014-06-08_13-23-17_260595134347_rgbf000021-resize_3/001032_2014-06-08_13-23-17_260595134347_rgbf000021-resize_3-target.png,125,3.2725,5,9916,130,feet,jsons/VE125_randls_45_rotated.json,869567,967392,42,Man
123,118627,DepthScenes,duration_manipulation_targetAtFixation,jsons/VE125_randls_45_rotated.json,http://54.235.29.9/FacialAge/BNav_EC2/DepthDuration/v2_depth_duration_MTurk/v2_DepthDuration_HTML.html#294,294,1600,757,1600,900,9-18-2022,14-48-47,124,depth_duration_stimuli/001059_2014-06-08_21-53-27_260595134347_rgbf000061-resize_4/001059_2014-06-08_21-53-27_260595134347_rgbf000061-resize_4-target.png,125,2.4185,2,9207,128,feet,jsons/VE125_randls_45_rotated.json,869567,967392,42,Man
124,118627,DepthScenes,duration_manipulation_targetAtFixation,jsons/VE125_randls_45_rotated.json,http://54.235.29.9/FacialAge/BNav_EC2/DepthDuration/v2_depth_duration_MTurk/v2_DepthDuration_HTML.html#294,294,1600,757,1600,900,9-18-2022,14-48-47,125,depth_duration_stimuli/002949_2014-06-26_15-57-42_094959634447_rgbf000079-resize_1/002949_2014-06-26_15-57-42_094959634447_rgbf000079-resize_1-target.png,125,1.8915,6,4364,123,feet,jsons/VE125_randls_45_rotated.json,869567,967392,42,Man
125,118627,DepthScenes,duration_manipulation_targetAtFixation,jsons/VE125_randls_45_rotated.json,http://54.235.29.9/FacialAge/BNav_EC2/DepthDuration/v2_depth_duration_MTurk/v2_DepthDuration_HTML.html#294,294,1600,757,1600,900,9-18-2022,14-48-47,126,depth_duration_stimuli/000522_2014-06-08_13-35-06_260595134347_rgbf000244-resize_1/000522_2014-06-08_13-35-06_260595134347_rgbf000244-resize_1-target.png,125,2.3715,5,3362,125,feet,jsons/VE125_randls_45_rotated.json,869567,967392,42,Man
126,118627,DepthScenes,duration_manipulation_targetAtFixation,jsons/VE125_randls_45_rotated.json,http://54.235.29.9/FacialAge/BNav_EC2/DepthDuration/v2_depth_duration_MTurk/v2_DepthDuration_HTML.html#294,294,1600,757,1600,900,9-18-2022,14-48-47,127,depth_duration_stimuli/000103_2014-05-14_22-01-17_260595134347_rgbf000152-resize_5/000103_2014-05-14_22-01-17_260595134347_rgbf000152-resize_5-target.png,125,1.993,4,9681,125,feet,jsons/VE125_randls_45_rotated.json,869567,967392,42,Man
127,118627,DepthScenes,duration_manipulation_targetAtFixation,jsons/VE125_randls_45_rotated.json,http://54.235.29.9/FacialAge/BNav_EC2/DepthDuration/v2_depth_duration_MTurk/v2_DepthDuration_HTML.html#294,294,1600,757,1600,900,9-18-2022,14-48-47,128,depth_duration_stimuli/001555_2014-06-20_17-12-10_260595134347_rgbf000065-resize_4/001555_2014-06-20_17-12-10_260595134347_rgbf000065-resize_4-target.png,125,1.633,4,2769,123,feet,jsons/VE125_randls_45_rotated.json,869567,967392,42,Man
128,118627,DepthScenes,duration_manipulation_targetAtFixation,jsons/VE125_randls_45_rotated.json,http://54.235.29.9/FacialAge/BNav_EC2/DepthDuration/v2_depth_duration_MTurk/v2_DepthDuration_HTML.html#294,294,1600,757,1600,900,9-18-2022,14-48-47,129,depth_duration_stimuli/000137_2014-05-20_17-04-49_260595134347_rgbf000120-resize_1/000137_2014-05-20_17-04-49_260595134347_rgbf000120-resize_1-target.png,125,3.786,4,4274,123,feet,jsons/VE125_randls_45_rotated.json,869567,967392,42,Man
129,118627,DepthScenes,duration_manipulation_targetAtFixation,jsons/VE125_randls_45_rotated.json,http://54.235.29.9/FacialAge/BNav_EC2/DepthDuration/v2_depth_duration_MTurk/v2_DepthDuration_HTML.html#294,294,1600,757,1600,900,9-18-2022,14-48-47,130,depth_duration_stimuli/000736_2014-06-08_18-24-15_260595134347_rgbf000206-resize_3/000736_2014-06-08_18-24-15_260595134347_rgbf000206-resize_3-target.png,125,3.515,4,4061,124,feet,jsons/VE125_randls_45_rotated.json,869567,967392,42,Man
130,118627,DepthScenes,duration_manipulation_targetAtFixation,jsons/VE125_randls_45_rotated.json,http://54.235.29.9/FacialAge/BNav_EC2/DepthDuration/v2_depth_duration_MTurk/v2_DepthDuration_HTML.html#294,294,1600,757,1600,900,9-18-2022,14-48-47,131,depth_duration_stimuli/003228_2014-05-14_13-42-35_094959634447_rgbf000101-resize_1/003228_2014-05-14_13-42-35_094959634447_rgbf000101-resize_1-target.png,125,1.9680000000000002,4,5320,125,feet,jsons/VE125_randls_45_rotated.json,869567,967392,42,Man
131,118627,DepthScenes,duration_manipulation_targetAtFixation,jsons/VE125_randls_45_rotated.json,http://54.235.29.9/FacialAge/BNav_EC2/DepthDuration/v2_depth_duration_MTurk/v2_DepthDuration_HTML.html#294,294,1600,757,1600,900,9-18-2022,14-48-47,132,depth_duration_stimuli/002600_2014-06-24_14-27-04_094959634447_rgbf000074-resize_2/002600_2014-06-24_14-27-04_094959634447_rgbf000074-resize_2-target.png,125,2.7575,4,3252,123,feet,jsons/VE125_randls_45_rotated.json,869567,967392,42,Man
132,118627,DepthScenes,duration_manipulation_targetAtFixation,jsons/VE125_randls_45_rotated.json,http://54.235.29.9/FacialAge/BNav_EC2/DepthDuration/v2_depth_duration_MTurk/v2_DepthDuration_HTML.html#294,294,1600,757,1600,900,9-18-2022,14-48-47,133,depth_duration_stimuli/002637_2014-06-24_14-51-13_094959634447_rgbf000066-resize_4/002637_2014-06-24_14-51-13_094959634447_rgbf000066-resize_4-target.png,125,1.9955,6,3604,125,feet,jsons/VE125_randls_45_rotated.json,869567,967392,42,Man
133,118627,DepthScenes,duration_manipulation_targetAtFixation,jsons/VE125_randls_45_rotated.json,http://54.235.29.9/FacialAge/BNav_EC2/DepthDuration/v2_depth_duration_MTurk/v2_DepthDuration_HTML.html#294,294,1600,757,1600,900,9-18-2022,14-48-47,134,depth_duration_stimuli/003534_2014-05-22_15-06-10_094959634447_rgbf000102-resize_4/003534_2014-05-22_15-06-10_094959634447_rgbf000102-resize_4-target.png,125,1.426,0,4796,125,feet,jsons/VE125_randls_45_rotated.json,869567,967392,42,Man
134,118627,DepthScenes,duration_manipulation_targetAtFixation,jsons/VE125_randls_45_rotated.json,http://54.235.29.9/FacialAge/BNav_EC2/DepthDuration/v2_depth_duration_MTurk/v2_DepthDuration_HTML.html#294,294,1600,757,1600,900,9-18-2022,14-48-47,135,depth_duration_stimuli/000375_2014-06-08_11-17-29_260595134347_rgbf000133-resize_2/000375_2014-06-08_11-17-29_260595134347_rgbf000133-resize-original.jpg,125,4.718,0,3339,124,feet,jsons/VE125_randls_45_rotated.json,869567,967392,42,Man
135,118627,DepthScenes,duration_manipulation_targetAtFixation,jsons/VE125_randls_45_rotated.json,http://54.235.29.9/FacialAge/BNav_EC2/DepthDuration/v2_depth_duration_MTurk/v2_DepthDuration_HTML.html#294,294,1600,757,1600,900,9-18-2022,14-48-47,136,depth_duration_stimuli/001516_2014-06-20_16-25-09_260595134347_rgbf000076-resize_2/001516_2014-06-20_16-25-09_260595134347_rgbf000076-resize_2-target.png,125,1.7445,4,4275,125,feet,jsons/VE125_randls_45_rotated.json,869567,967392,42,Man
136,118627,DepthScenes,duration_manipulation_targetAtFixation,jsons/VE125_randls_45_rotated.json,http://54.235.29.9/FacialAge/BNav_EC2/DepthDuration/v2_depth_duration_MTurk/v2_DepthDuration_HTML.html#294,294,1600,757,1600,900,9-18-2022,14-48-47,137,depth_duration_stimuli/002118_2014-06-25_20-32-08_260595134347_rgbf000078-resize_1/002118_2014-06-25_20-32-08_260595134347_rgbf000078-resize_1-target.png,125,2.6460000000000004,4,2686,124,feet,jsons/VE125_randls_45_rotated.json,869567,967392,42,Man
137,118627,DepthScenes,duration_manipulation_targetAtFixation,jsons/VE125_randls_45_rotated.json,http://54.235.29.9/FacialAge/BNav_EC2/DepthDuration/v2_depth_duration_MTurk/v2_DepthDuration_HTML.html#294,294,1600,757,1600,900,9-18-2022,14-48-47,138,depth_duration_stimuli/002568_2014-06-24_13-59-21_094959634447_rgbf000062-resize_4/002568_2014-06-24_13-59-21_094959634447_rgbf000062-resize_4-target.png,125,3.015,4,3313,125,feet,jsons/VE125_randls_45_rotated.json,869567,967392,42,Man
138,118627,DepthScenes,duration_manipulation_targetAtFixation,jsons/VE125_randls_45_rotated.json,http://54.235.29.9/FacialAge/BNav_EC2/DepthDuration/v2_depth_duration_MTurk/v2_DepthDuration_HTML.html#294,294,1600,757,1600,900,9-18-2022,14-48-47,139,depth_duration_stimuli/003492_2014-05-21_15-50-55_094959634447_rgbf000828-resize_1/003492_2014-05-21_15-50-55_094959634447_rgbf000828-resize_1-target.png,125,4.06875,4,2627,125,feet,jsons/VE125_randls_45_rotated.json,869567,967392,42,Man
139,118627,DepthScenes,duration_manipulation_targetAtFixation,jsons/VE125_randls_45_rotated.json,http://54.235.29.9/FacialAge/BNav_EC2/DepthDuration/v2_depth_duration_MTurk/v2_DepthDuration_HTML.html#294,294,1600,757,1600,900,9-18-2022,14-48-47,140,depth_duration_stimuli/001052_2014-06-08_18-24-54_260595134347_rgbf000130-resize_1/001052_2014-06-08_18-24-54_260595134347_rgbf000130-resize_1-target.png,125,4.1045,6,3078,124,feet,jsons/VE125_randls_45_rotated.json,869567,967392,42,Man
140,118627,DepthScenes,duration_manipulation_targetAtFixation,jsons/VE125_randls_45_rotated.json,http://54.235.29.9/FacialAge/BNav_EC2/DepthDuration/v2_depth_duration_MTurk/v2_DepthDuration_HTML.html#294,294,1600,757,1600,900,9-18-2022,14-48-47,141,depth_duration_stimuli/002988_2014-06-15_12-24-20_094959634447_rgbf000150-resize_1/002988_2014-06-15_12-24-20_094959634447_rgbf000150-resize_1-target.png,125,4.7669999999999995,8,2415,123,feet,jsons/VE125_randls_45_rotated.json,869567,967392,42,Man
141,118627,DepthScenes,duration_manipulation_targetAtFixation,jsons/VE125_randls_45_rotated.json,http://54.235.29.9/FacialAge/BNav_EC2/DepthDuration/v2_depth_duration_MTurk/v2_DepthDuration_HTML.html#294,294,1600,757,1600,900,9-18-2022,14-48-47,142,depth_duration_stimuli/003129_2014-05-12_10-48-10_094959634447_rgbf000100-resize_0/003129_2014-05-12_10-48-10_094959634447_rgbf000100-resize_0-target.png,125,4.9305,9,2561,126,feet,jsons/VE125_randls_45_rotated.json,869567,967392,42,Man
142,118627,DepthScenes,duration_manipulation_targetAtFixation,jsons/VE125_randls_45_rotated.json,http://54.235.29.9/FacialAge/BNav_EC2/DepthDuration/v2_depth_duration_MTurk/v2_DepthDuration_HTML.html#294,294,1600,757,1600,900,9-18-2022,14-48-47,143,depth_duration_stimuli/000414_2014-06-04_19-49-13_260595134347_rgbf000044-resize_0/000414_2014-06-04_19-49-13_260595134347_rgbf000044-resize_0-target.png,125,4.329,4,3064,126,feet,jsons/VE125_randls_45_rotated.json,869567,967392,42,Man
143,118627,DepthScenes,duration_manipulation_targetAtFixation,jsons/VE125_randls_45_rotated.json,http://54.235.29.9/FacialAge/BNav_EC2/DepthDuration/v2_depth_duration_MTurk/v2_DepthDuration_HTML.html#294,294,1600,757,1600,900,9-18-2022,14-48-47,144,depth_duration_stimuli/002414_2014-06-28_20-24-58_260595134347_rgbf000067-resize_4/002414_2014-06-28_20-24-58_260595134347_rgbf000067-resize_4-target.png,125,4.363,5,3822,125,feet,jsons/VE125_randls_45_rotated.json,869567,967392,42,Man
144,118627,DepthScenes,duration_manipulation_targetAtFixation,jsons/VE125_randls_45_rotated.json,http://54.235.29.9/FacialAge/BNav_EC2/DepthDuration/v2_depth_duration_MTurk/v2_DepthDuration_HTML.html#294,294,1600,757,1600,900,9-18-2022,14-48-47,145,depth_duration_stimuli/000773_2014-06-08_22-24-54_260595134347_rgbf000093-resize_1/000773_2014-06-08_22-24-54_260595134347_rgbf000093-resize_1-target.png,125,4.973,5,4609,126,feet,jsons/VE125_randls_45_rotated.json,869567,967392,42,Man
145,118627,DepthScenes,duration_manipulation_targetAtFixation,jsons/VE125_randls_45_rotated.json,http://54.235.29.9/FacialAge/BNav_EC2/DepthDuration/v2_depth_duration_MTurk/v2_DepthDuration_HTML.html#294,294,1600,757,1600,900,9-18-2022,14-48-47,146,depth_duration_stimuli/000709_2014-06-08_13-51-55_260595134347_rgbf000068-resize_3/000709_2014-06-08_13-51-55_260595134347_rgbf000068-resize_3-target.png,125,1.8030000000000002,6,3540,124,feet,jsons/VE125_randls_45_rotated.json,869567,967392,42,Man
146,118627,DepthScenes,duration_manipulation_targetAtFixation,jsons/VE125_randls_45_rotated.json,http://54.235.29.9/FacialAge/BNav_EC2/DepthDuration/v2_depth_duration_MTurk/v2_DepthDuration_HTML.html#294,294,1600,757,1600,900,9-18-2022,14-48-47,147,depth_duration_stimuli/002057_2014-06-24_21-00-13_260595134347_rgbf000120-resize_1/002057_2014-06-24_21-00-13_260595134347_rgbf000120-resize_1-target.png,125,2.967,6,3219,125,feet,jsons/VE125_randls_45_rotated.json,869567,967392,42,Man
147,118627,DepthScenes,duration_manipulation_targetAtFixation,jsons/VE125_randls_45_rotated.json,http://54.235.29.9/FacialAge/BNav_EC2/DepthDuration/v2_depth_duration_MTurk/v2_DepthDuration_HTML.html#294,294,1600,757,1600,900,9-18-2022,14-48-47,148,depth_duration_stimuli/002467_2014-06-28_20-38-07_260595134347_rgbf000026-resize_2/002467_2014-06-28_20-38-07_260595134347_rgbf000026-resize_2-target.png,125,4.742,4,6732,125,feet,jsons/VE125_randls_45_rotated.json,869567,967392,42,Man
148,118627,DepthScenes,duration_manipulation_targetAtFixation,jsons/VE125_randls_45_rotated.json,http://54.235.29.9/FacialAge/BNav_EC2/DepthDuration/v2_depth_duration_MTurk/v2_DepthDuration_HTML.html#294,294,1600,757,1600,900,9-18-2022,14-48-47,149,depth_duration_stimuli/002570_2014-06-24_13-59-54_094959634447_rgbf000059-resize_0/002570_2014-06-24_13-59-54_094959634447_rgbf000059-resize_0-target.png,125,4.037,4,2853,125,feet,jsons/VE125_randls_45_rotated.json,869567,967392,42,Man
149,118627,DepthScenes,duration_manipulation_targetAtFixation,jsons/VE125_randls_45_rotated.json,http://54.235.29.9/FacialAge/BNav_EC2/DepthDuration/v2_depth_duration_MTurk/v2_DepthDuration_HTML.html#294,294,1600,757,1600,900,9-18-2022,14-48-47,150,depth_duration_stimuli/002639_2014-06-24_14-51-37_094959634447_rgbf000074-resize_4/002639_2014-06-24_14-51-37_094959634447_rgbf000074-resize_4-target.png,125,4.0375,6,3203,125,feet,jsons/VE125_randls_45_rotated.json,869567,967392,42,Man
150,118627,DepthScenes,duration_manipulation_targetAtFixation,jsons/VE125_randls_45_rotated.json,http://54.235.29.9/FacialAge/BNav_EC2/DepthDuration/v2_depth_duration_MTurk/v2_DepthDuration_HTML.html#294,294,1600,757,1600,900,9-18-2022,14-48-47,151,depth_duration_stimuli/003292_2014-05-14_21-53-49_094959634447_rgbf000100-resize_2/003292_2014-05-14_21-53-49_094959634447_rgbf000100-resize_2-target.png,125,3.4815,6,2412,125,feet,jsons/VE125_randls_45_rotated.json,869567,967392,42,Man
151,118627,DepthScenes,duration_manipulation_targetAtFixation,jsons/VE125_randls_45_rotated.json,http://54.235.29.9/FacialAge/BNav_EC2/DepthDuration/v2_depth_duration_MTurk/v2_DepthDuration_HTML.html#294,294,1600,757,1600,900,9-18-2022,14-48-47,152,depth_duration_stimuli/000569_2014-06-09_22-51-47_260595134347_rgbf000141-resize_3/000569_2014-06-09_22-51-47_260595134347_rgbf000141-resize-original.jpg,125,4.512,0,2636,124,feet,jsons/VE125_randls_45_rotated.json,869567,967392,42,Man
152,118627,DepthScenes,duration_manipulation_targetAtFixation,jsons/VE125_randls_45_rotated.json,http://54.235.29.9/FacialAge/BNav_EC2/DepthDuration/v2_depth_duration_MTurk/v2_DepthDuration_HTML.html#294,294,1600,757,1600,900,9-18-2022,14-48-47,153,depth_duration_stimuli/002425_2014-06-28_20-27-29_260595134347_rgbf000031-resize_8/002425_2014-06-28_20-27-29_260595134347_rgbf000031-resize_8-target.png,125,3.8960000000000004,40,3354,126,feet,jsons/VE125_randls_45_rotated.json,869567,967392,42,Man
153,118627,DepthScenes,duration_manipulation_targetAtFixation,jsons/VE125_randls_45_rotated.json,http://54.235.29.9/FacialAge/BNav_EC2/DepthDuration/v2_depth_duration_MTurk/v2_DepthDuration_HTML.html#294,294,1600,757,1600,900,9-18-2022,14-48-47,154,depth_duration_stimuli/000642_2014-06-08_16-59-25_260595134347_rgbf000098-resize_2/000642_2014-06-08_16-59-25_260595134347_rgbf000098-resize_2-target.png,125,2.8815,4,2412,125,feet,jsons/VE125_randls_45_rotated.json,869567,967392,42,Man
154,118627,DepthScenes,duration_manipulation_targetAtFixation,jsons/VE125_randls_45_rotated.json,http://54.235.29.9/FacialAge/BNav_EC2/DepthDuration/v2_depth_duration_MTurk/v2_DepthDuration_HTML.html#294,294,1600,757,1600,900,9-18-2022,14-48-47,155,depth_duration_stimuli/001450_2014-06-19_17-02-03_260595134347_rgbf000203-resize_4/001450_2014-06-19_17-02-03_260595134347_rgbf000203-resize_4-target.png,125,4.0106666666667,6,2939,124,feet,jsons/VE125_randls_45_rotated.json,869567,967392,42,Man
155,118627,DepthScenes,duration_manipulation_targetAtFixation,jsons/VE125_randls_45_rotated.json,http://54.235.29.9/FacialAge/BNav_EC2/DepthDuration/v2_depth_duration_MTurk/v2_DepthDuration_HTML.html#294,294,1600,757,1600,900,9-18-2022,14-48-47,156,depth_duration_stimuli/001449_2014-06-19_17-01-27_260595134347_rgbf000116-resize_2/001449_2014-06-19_17-01-27_260595134347_rgbf000116-resize_2-target.png,125,3.452,5,2507,125,feet,jsons/VE125_randls_45_rotated.json,869567,967392,42,Man
156,118627,DepthScenes,duration_manipulation_targetAtFixation,jsons/VE125_randls_45_rotated.json,http://54.235.29.9/FacialAge/BNav_EC2/DepthDuration/v2_depth_duration_MTurk/v2_DepthDuration_HTML.html#294,294,1600,757,1600,900,9-18-2022,14-48-47,157,depth_duration_stimuli/001815_2014-06-26_20-52-55_260595134347_rgbf000020-resize_0/001815_2014-06-26_20-52-55_260595134347_rgbf000020-resize_0-target.png,125,3.3865,5,2753,120,feet,jsons/VE125_randls_45_rotated.json,869567,967392,42,Man
157,118627,DepthScenes,duration_manipulation_targetAtFixation,jsons/VE125_randls_45_rotated.json,http://54.235.29.9/FacialAge/BNav_EC2/DepthDuration/v2_depth_duration_MTurk/v2_DepthDuration_HTML.html#294,294,1600,757,1600,900,9-18-2022,14-48-47,158,depth_duration_stimuli/001808_2014-06-26_20-50-58_260595134347_rgbf000029-resize_1/001808_2014-06-26_20-50-58_260595134347_rgbf000029-resize_1-target.png,125,4.249,6,4246,107,feet,jsons/VE125_randls_45_rotated.json,869567,967392,42,Man
158,118627,DepthScenes,duration_manipulation_targetAtFixation,jsons/VE125_randls_45_rotated.json,http://54.235.29.9/FacialAge/BNav_EC2/DepthDuration/v2_depth_duration_MTurk/v2_DepthDuration_HTML.html#294,294,1600,757,1600,900,9-18-2022,14-48-47,159,depth_duration_stimuli/002805_2014-06-22_19-54-03_094959634447_rgbf000079-resize_1/002805_2014-06-22_19-54-03_094959634447_rgbf000079-resize_1-target.png,125,3.1439999999999997,5,5377,125,feet,jsons/VE125_randls_45_rotated.json,869567,967392,42,Man
159,118627,DepthScenes,duration_manipulation_targetAtFixation,jsons/VE125_randls_45_rotated.json,http://54.235.29.9/FacialAge/BNav_EC2/DepthDuration/v2_depth_duration_MTurk/v2_DepthDuration_HTML.html#294,294,1600,757,1600,900,9-18-2022,14-48-47,160,depth_duration_stimuli/000906_2014-06-08_13-35-43_260595134347_rgbf000155-resize_1/000906_2014-06-08_13-35-43_260595134347_rgbf000155-resize_1-target.png,125,2.8489999999999998,4,5204,127,feet,jsons/VE125_randls_45_rotated.json,869567,967392,42,Man
160,118627,DepthScenes,duration_manipulation_targetAtFixation,jsons/VE125_randls_45_rotated.json,http://54.235.29.9/FacialAge/BNav_EC2/DepthDuration/v2_depth_duration_MTurk/v2_DepthDuration_HTML.html#294,294,1600,757,1600,900,9-18-2022,14-48-47,161,depth_duration_stimuli/000927_2014-06-09_16-32-30_260595134347_rgbf000123-resize_3/000927_2014-06-09_16-32-30_260595134347_rgbf000123-resize_3-target.png,125,2.6785,4,4888,121,feet,jsons/VE125_randls_45_rotated.json,869567,967392,42,Man
161,118627,DepthScenes,duration_manipulation_targetAtFixation,jsons/VE125_randls_45_rotated.json,http://54.235.29.9/FacialAge/BNav_EC2/DepthDuration/v2_depth_duration_MTurk/v2_DepthDuration_HTML.html#294,294,1600,757,1600,900,9-18-2022,14-48-47,162,depth_duration_stimuli/001110_2014-06-15_17-25-28_260595134347_rgbf000150-resize_1/001110_2014-06-15_17-25-28_260595134347_rgbf000150-resize_1-target.png,125,1.7115,4,8217,124,feet,jsons/VE125_randls_45_rotated.json,869567,967392,42,Man
162,118627,DepthScenes,duration_manipulation_targetAtFixation,jsons/VE125_randls_45_rotated.json,http://54.235.29.9/FacialAge/BNav_EC2/DepthDuration/v2_depth_duration_MTurk/v2_DepthDuration_HTML.html#294,294,1600,757,1600,900,9-18-2022,14-48-47,163,depth_duration_stimuli/000556_2014-06-09_22-42-56_260595134347_rgbf000214-resize_1/000556_2014-06-09_22-42-56_260595134347_rgbf000214-resize_1-target.png,125,4.8415,4,6412,123,feet,jsons/VE125_randls_45_rotated.json,869567,967392,42,Man
163,118627,DepthScenes,duration_manipulation_targetAtFixation,jsons/VE125_randls_45_rotated.json,http://54.235.29.9/FacialAge/BNav_EC2/DepthDuration/v2_depth_duration_MTurk/v2_DepthDuration_HTML.html#294,294,1600,757,1600,900,9-18-2022,14-48-47,164,depth_duration_stimuli/001158_2014-06-17_15-32-16_260595134347_rgbf000138-resize_2/001158_2014-06-17_15-32-16_260595134347_rgbf000138-resize_2-target.png,125,4.5315,4,9364,124,feet,jsons/VE125_randls_45_rotated.json,869567,967392,42,Man
