,subjID,experimentName,versionName,sequenceName,url,selected_row,windowWidth,windowHeight,screenWidth,screenHeight,startDate,startTime,trial,stimulus,duration,actual_depth,depth_estimate,trial_RT,log_sceneDuration,unitSelection,seq_filepath,experimentTime,totalTime,age,gender
0,119263,DepthScenes,duration_manipulation_targetAtFixation,jsons/v1_VE1000_randls_18_rotated.json,http://54.235.29.9/FacialAge/BNav_EC2/DepthDuration/v2_depth_duration_MTurk/v2_DepthDuration_HTML.html#24,24,2560,1329,2560,1440,8-29-2022,8-4-26,1,depth_duration_stimuli/000109_2014-05-14_23-41-52_260595134347_rgbf000035-resize_9/000109_2014-05-14_23-41-52_260595134347_rgbf000035-resize_9-target.png,1000,1.3545,4,3389,999,feet,jsons/v1_VE1000_randls_18_rotated.json,555995,659369,29,Man
1,119263,DepthScenes,duration_manipulation_targetAtFixation,jsons/v1_VE1000_randls_18_rotated.json,http://54.235.29.9/FacialAge/BNav_EC2/DepthDuration/v2_depth_duration_MTurk/v2_DepthDuration_HTML.html#24,24,2560,1329,2560,1440,8-29-2022,8-4-26,2,depth_duration_stimuli/000470_2014-06-09_19-42-40_260595134347_rgbf000094-resize_1/000470_2014-06-09_19-42-40_260595134347_rgbf000094-resize_1-target.png,1000,1.831,4,3387,1008,feet,jsons/v1_VE1000_randls_18_rotated.json,555995,659369,29,Man
2,119263,DepthScenes,duration_manipulation_targetAtFixation,jsons/v1_VE1000_randls_18_rotated.json,http://54.235.29.9/FacialAge/BNav_EC2/DepthDuration/v2_depth_duration_MTurk/v2_DepthDuration_HTML.html#24,24,2560,1329,2560,1440,8-29-2022,8-4-26,3,depth_duration_stimuli/002639_2014-06-24_14-51-37_094959634447_rgbf000074-resize_4/002639_2014-06-24_14-51-37_094959634447_rgbf000074-resize_4-target.png,1000,4.0375,9,3270,993,feet,jsons/v1_VE1000_randls_18_rotated.json,555995,659369,29,Man
3,119263,DepthScenes,duration_manipulation_targetAtFixation,jsons/v1_VE1000_randls_18_rotated.json,http://54.235.29.9/FacialAge/BNav_EC2/DepthDuration/v2_depth_duration_MTurk/v2_DepthDuration_HTML.html#24,24,2560,1329,2560,1440,8-29-2022,8-4-26,4,depth_duration_stimuli/003292_2014-05-14_21-53-49_094959634447_rgbf000100-resize_2/003292_2014-05-14_21-53-49_094959634447_rgbf000100-resize_2-target.png,1000,3.4815,7,2863,373,feet,jsons/v1_VE1000_randls_18_rotated.json,555995,659369,29,Man
4,119263,DepthScenes,duration_manipulation_targetAtFixation,jsons/v1_VE1000_randls_18_rotated.json,http://54.235.29.9/FacialAge/BNav_EC2/DepthDuration/v2_depth_duration_MTurk/v2_DepthDuration_HTML.html#24,24,2560,1329,2560,1440,8-29-2022,8-4-26,5,depth_duration_stimuli/002209_2014-06-28_18-36-10_260595134347_rgbf000051-resize_1/002209_2014-06-28_18-36-10_260595134347_rgbf000051-resize_1-target.png,1000,2.057,6,4584,293,feet,jsons/v1_VE1000_randls_18_rotated.json,555995,659369,29,Man
5,119263,DepthScenes,duration_manipulation_targetAtFixation,jsons/v1_VE1000_randls_18_rotated.json,http://54.235.29.9/FacialAge/BNav_EC2/DepthDuration/v2_depth_duration_MTurk/v2_DepthDuration_HTML.html#24,24,2560,1329,2560,1440,8-29-2022,8-4-26,6,depth_duration_stimuli/002763_2014-06-22_19-13-10_094959634447_rgbf000075-resize_4/002763_2014-06-22_19-13-10_094959634447_rgbf000075-resize_4-target.png,1000,1.68375,6,3629,1009,feet,jsons/v1_VE1000_randls_18_rotated.json,555995,659369,29,Man
6,119263,DepthScenes,duration_manipulation_targetAtFixation,jsons/v1_VE1000_randls_18_rotated.json,http://54.235.29.9/FacialAge/BNav_EC2/DepthDuration/v2_depth_duration_MTurk/v2_DepthDuration_HTML.html#24,24,2560,1329,2560,1440,8-29-2022,8-4-26,7,depth_duration_stimuli/000665_2014-06-09_20-42-35_260595134347_rgbf000110-resize_1/000665_2014-06-09_20-42-35_260595134347_rgbf000110-resize_1-target.png,1000,3.057,7,3300,993,feet,jsons/v1_VE1000_randls_18_rotated.json,555995,659369,29,Man
7,119263,DepthScenes,duration_manipulation_targetAtFixation,jsons/v1_VE1000_randls_18_rotated.json,http://54.235.29.9/FacialAge/BNav_EC2/DepthDuration/v2_depth_duration_MTurk/v2_DepthDuration_HTML.html#24,24,2560,1329,2560,1440,8-29-2022,8-4-26,8,depth_duration_stimuli/001150_2014-06-17_15-27-34_260595134347_rgbf000108-resize_2/001150_2014-06-17_15-27-34_260595134347_rgbf000108-resize_2-target.png,1000,4.0325,9,3335,1008,feet,jsons/v1_VE1000_randls_18_rotated.json,555995,659369,29,Man
8,119263,DepthScenes,duration_manipulation_targetAtFixation,jsons/v1_VE1000_randls_18_rotated.json,http://54.235.29.9/FacialAge/BNav_EC2/DepthDuration/v2_depth_duration_MTurk/v2_DepthDuration_HTML.html#24,24,2560,1329,2560,1440,8-29-2022,8-4-26,9,depth_duration_stimuli/002875_2014-06-01_15-19-00_094959634447_rgbf000151-resize_1/002875_2014-06-01_15-19-00_094959634447_rgbf000151-resize_1-target.png,1000,1.9675,6,3371,993,feet,jsons/v1_VE1000_randls_18_rotated.json,555995,659369,29,Man
9,119263,DepthScenes,duration_manipulation_targetAtFixation,jsons/v1_VE1000_randls_18_rotated.json,http://54.235.29.9/FacialAge/BNav_EC2/DepthDuration/v2_depth_duration_MTurk/v2_DepthDuration_HTML.html#24,24,2560,1329,2560,1440,8-29-2022,8-4-26,10,depth_duration_stimuli/001011_2014-06-08_23-18-54_260595134347_rgbf000044-resize_4/001011_2014-06-08_23-18-54_260595134347_rgbf000044-resize_4-target.png,1000,2.4730000000000003,8,3325,1008,feet,jsons/v1_VE1000_randls_18_rotated.json,555995,659369,29,Man
10,119263,DepthScenes,duration_manipulation_targetAtFixation,jsons/v1_VE1000_randls_18_rotated.json,http://54.235.29.9/FacialAge/BNav_EC2/DepthDuration/v2_depth_duration_MTurk/v2_DepthDuration_HTML.html#24,24,2560,1329,2560,1440,8-29-2022,8-4-26,11,depth_duration_stimuli/002103_2014-06-25_20-00-40_260595134347_rgbf000049-resize_0/002103_2014-06-25_20-00-40_260595134347_rgbf000049-resize_0-target.png,1000,4.105,10,3860,1008,feet,jsons/v1_VE1000_randls_18_rotated.json,555995,659369,29,Man
11,119263,DepthScenes,duration_manipulation_targetAtFixation,jsons/v1_VE1000_randls_18_rotated.json,http://54.235.29.9/FacialAge/BNav_EC2/DepthDuration/v2_depth_duration_MTurk/v2_DepthDuration_HTML.html#24,24,2560,1329,2560,1440,8-29-2022,8-4-26,12,depth_duration_stimuli/002039_2014-06-24_20-22-38_260595134347_rgbf000084-resize_1/002039_2014-06-24_20-22-38_260595134347_rgbf000084-resize_1-target.png,1000,4.408,12,3278,986,feet,jsons/v1_VE1000_randls_18_rotated.json,555995,659369,29,Man
12,119263,DepthScenes,duration_manipulation_targetAtFixation,jsons/v1_VE1000_randls_18_rotated.json,http://54.235.29.9/FacialAge/BNav_EC2/DepthDuration/v2_depth_duration_MTurk/v2_DepthDuration_HTML.html#24,24,2560,1329,2560,1440,8-29-2022,8-4-26,13,depth_duration_stimuli/001136_2014-06-17_15-19-41_260595134347_rgbf000076-resize_3/001136_2014-06-17_15-19-41_260595134347_rgbf000076-resize_3-target.png,1000,1.8655,7,3665,1008,feet,jsons/v1_VE1000_randls_18_rotated.json,555995,659369,29,Man
13,119263,DepthScenes,duration_manipulation_targetAtFixation,jsons/v1_VE1000_randls_18_rotated.json,http://54.235.29.9/FacialAge/BNav_EC2/DepthDuration/v2_depth_duration_MTurk/v2_DepthDuration_HTML.html#24,24,2560,1329,2560,1440,8-29-2022,8-4-26,14,depth_duration_stimuli/001164_2014-06-17_15-35-46_260595134347_rgbf000085-resize_3/001164_2014-06-17_15-35-46_260595134347_rgbf000085-resize_3-target.png,1000,2.354,7,4152,1008,feet,jsons/v1_VE1000_randls_18_rotated.json,555995,659369,29,Man
14,119263,DepthScenes,duration_manipulation_targetAtFixation,jsons/v1_VE1000_randls_18_rotated.json,http://54.235.29.9/FacialAge/BNav_EC2/DepthDuration/v2_depth_duration_MTurk/v2_DepthDuration_HTML.html#24,24,2560,1329,2560,1440,8-29-2022,8-4-26,15,depth_duration_stimuli/003587_2014-05-23_16-48-02_094959634447_rgbf002384-resize_2/003587_2014-05-23_16-48-02_094959634447_rgbf002384-resize_2-target.png,1000,1.357,4,2793,1008,feet,jsons/v1_VE1000_randls_18_rotated.json,555995,659369,29,Man
15,119263,DepthScenes,duration_manipulation_targetAtFixation,jsons/v1_VE1000_randls_18_rotated.json,http://54.235.29.9/FacialAge/BNav_EC2/DepthDuration/v2_depth_duration_MTurk/v2_DepthDuration_HTML.html#24,24,2560,1329,2560,1440,8-29-2022,8-4-26,16,depth_duration_stimuli/001167_2014-06-17_15-38-07_260595134347_rgbf000108-resize_0/001167_2014-06-17_15-38-07_260595134347_rgbf000108-resize_0-target.png,1000,1.8505,4,2780,693,feet,jsons/v1_VE1000_randls_18_rotated.json,555995,659369,29,Man
16,119263,DepthScenes,duration_manipulation_targetAtFixation,jsons/v1_VE1000_randls_18_rotated.json,http://54.235.29.9/FacialAge/BNav_EC2/DepthDuration/v2_depth_duration_MTurk/v2_DepthDuration_HTML.html#24,24,2560,1329,2560,1440,8-29-2022,8-4-26,17,depth_duration_stimuli/003495_2014-05-21_16-01-51_094959634447_rgbf000100-resize_3/003495_2014-05-21_16-01-51_094959634447_rgbf000100-resize_3-target.png,1000,1.6255,3,3951,1753,feet,jsons/v1_VE1000_randls_18_rotated.json,555995,659369,29,Man
17,119263,DepthScenes,duration_manipulation_targetAtFixation,jsons/v1_VE1000_randls_18_rotated.json,http://54.235.29.9/FacialAge/BNav_EC2/DepthDuration/v2_depth_duration_MTurk/v2_DepthDuration_HTML.html#24,24,2560,1329,2560,1440,8-29-2022,8-4-26,18,depth_duration_stimuli/001244_2014-06-17_16-47-45_260595134347_rgbf000030-resize_4/001244_2014-06-17_16-47-45_260595134347_rgbf000030-resize_4-target.png,1000,2.0425,5,8813,999,feet,jsons/v1_VE1000_randls_18_rotated.json,555995,659369,29,Man
18,119263,DepthScenes,duration_manipulation_targetAtFixation,jsons/v1_VE1000_randls_18_rotated.json,http://54.235.29.9/FacialAge/BNav_EC2/DepthDuration/v2_depth_duration_MTurk/v2_DepthDuration_HTML.html#24,24,2560,1329,2560,1440,8-29-2022,8-4-26,19,depth_duration_stimuli/001498_2014-06-19_17-45-14_260595134347_rgbf000129-resize_4/001498_2014-06-19_17-45-14_260595134347_rgbf000129-resize-original.jpg,1000,1.4075,0,4682,993,feet,jsons/v1_VE1000_randls_18_rotated.json,555995,659369,29,Man
19,119263,DepthScenes,duration_manipulation_targetAtFixation,jsons/v1_VE1000_randls_18_rotated.json,http://54.235.29.9/FacialAge/BNav_EC2/DepthDuration/v2_depth_duration_MTurk/v2_DepthDuration_HTML.html#24,24,2560,1329,2560,1440,8-29-2022,8-4-26,20,depth_duration_stimuli/002136_2014-06-25_21-18-03_260595134347_rgbf000109-resize_3/002136_2014-06-25_21-18-03_260595134347_rgbf000109-resize_3-target.png,1000,1.9569999999999999,6,3235,986,feet,jsons/v1_VE1000_randls_18_rotated.json,555995,659369,29,Man
20,119263,DepthScenes,duration_manipulation_targetAtFixation,jsons/v1_VE1000_randls_18_rotated.json,http://54.235.29.9/FacialAge/BNav_EC2/DepthDuration/v2_depth_duration_MTurk/v2_DepthDuration_HTML.html#24,24,2560,1329,2560,1440,8-29-2022,8-4-26,21,depth_duration_stimuli/002964_2014-06-08_17-46-11_094959634447_rgbf000091-resize_4/002964_2014-06-08_17-46-11_094959634447_rgbf000091-resize_4-target.png,1000,1.6909999999999998,5,2634,1000,feet,jsons/v1_VE1000_randls_18_rotated.json,555995,659369,29,Man
21,119263,DepthScenes,duration_manipulation_targetAtFixation,jsons/v1_VE1000_randls_18_rotated.json,http://54.235.29.9/FacialAge/BNav_EC2/DepthDuration/v2_depth_duration_MTurk/v2_DepthDuration_HTML.html#24,24,2560,1329,2560,1440,8-29-2022,8-4-26,22,depth_duration_stimuli/001214_2014-06-17_16-13-55_260595134347_rgbf000111-resize_0/001214_2014-06-17_16-13-55_260595134347_rgbf000111-resize_0-target.png,1000,2.6505,7,2430,1008,feet,jsons/v1_VE1000_randls_18_rotated.json,555995,659369,29,Man
22,119263,DepthScenes,duration_manipulation_targetAtFixation,jsons/v1_VE1000_randls_18_rotated.json,http://54.235.29.9/FacialAge/BNav_EC2/DepthDuration/v2_depth_duration_MTurk/v2_DepthDuration_HTML.html#24,24,2560,1329,2560,1440,8-29-2022,8-4-26,23,depth_duration_stimuli/000810_2014-06-08_17-20-01_260595134347_rgbf000105-resize_0/000810_2014-06-08_17-20-01_260595134347_rgbf000105-resize_0-target.png,1000,1.4865,7,2792,1009,feet,jsons/v1_VE1000_randls_18_rotated.json,555995,659369,29,Man
23,119263,DepthScenes,duration_manipulation_targetAtFixation,jsons/v1_VE1000_randls_18_rotated.json,http://54.235.29.9/FacialAge/BNav_EC2/DepthDuration/v2_depth_duration_MTurk/v2_DepthDuration_HTML.html#24,24,2560,1329,2560,1440,8-29-2022,8-4-26,24,depth_duration_stimuli/000137_2014-05-20_17-04-49_260595134347_rgbf000120-resize_1/000137_2014-05-20_17-04-49_260595134347_rgbf000120-resize_1-target.png,1000,3.786,13,3304,992,feet,jsons/v1_VE1000_randls_18_rotated.json,555995,659369,29,Man
24,119263,DepthScenes,duration_manipulation_targetAtFixation,jsons/v1_VE1000_randls_18_rotated.json,http://54.235.29.9/FacialAge/BNav_EC2/DepthDuration/v2_depth_duration_MTurk/v2_DepthDuration_HTML.html#24,24,2560,1329,2560,1440,8-29-2022,8-4-26,25,depth_duration_stimuli/000736_2014-06-08_18-24-15_260595134347_rgbf000206-resize_3/000736_2014-06-08_18-24-15_260595134347_rgbf000206-resize_3-target.png,1000,3.515,8,2394,993,feet,jsons/v1_VE1000_randls_18_rotated.json,555995,659369,29,Man
25,119263,DepthScenes,duration_manipulation_targetAtFixation,jsons/v1_VE1000_randls_18_rotated.json,http://54.235.29.9/FacialAge/BNav_EC2/DepthDuration/v2_depth_duration_MTurk/v2_DepthDuration_HTML.html#24,24,2560,1329,2560,1440,8-29-2022,8-4-26,26,depth_duration_stimuli/001650_2014-06-20_12-09-00_260595134347_rgbf000087-resize_3/001650_2014-06-20_12-09-00_260595134347_rgbf000087-resize_3-target.png,1000,1.9505,3,2498,1008,feet,jsons/v1_VE1000_randls_18_rotated.json,555995,659369,29,Man
26,119263,DepthScenes,duration_manipulation_targetAtFixation,jsons/v1_VE1000_randls_18_rotated.json,http://54.235.29.9/FacialAge/BNav_EC2/DepthDuration/v2_depth_duration_MTurk/v2_DepthDuration_HTML.html#24,24,2560,1329,2560,1440,8-29-2022,8-4-26,27,depth_duration_stimuli/000682_2014-06-08_23-14-58_260595134347_rgbf000041-resize_5/000682_2014-06-08_23-14-58_260595134347_rgbf000041-resize_5-target.png,1000,2.7239999999999998,7,2351,993,feet,jsons/v1_VE1000_randls_18_rotated.json,555995,659369,29,Man
27,119263,DepthScenes,duration_manipulation_targetAtFixation,jsons/v1_VE1000_randls_18_rotated.json,http://54.235.29.9/FacialAge/BNav_EC2/DepthDuration/v2_depth_duration_MTurk/v2_DepthDuration_HTML.html#24,24,2560,1329,2560,1440,8-29-2022,8-4-26,28,depth_duration_stimuli/003048_2014-06-15_13-49-43_094959634447_rgbf000150-resize_1/003048_2014-06-15_13-49-43_094959634447_rgbf000150-resize_1-target.png,1000,4.0035,12,2646,1008,feet,jsons/v1_VE1000_randls_18_rotated.json,555995,659369,29,Man
28,119263,DepthScenes,duration_manipulation_targetAtFixation,jsons/v1_VE1000_randls_18_rotated.json,http://54.235.29.9/FacialAge/BNav_EC2/DepthDuration/v2_depth_duration_MTurk/v2_DepthDuration_HTML.html#24,24,2560,1329,2560,1440,8-29-2022,8-4-26,29,depth_duration_stimuli/002043_2014-06-24_20-29-38_260595134347_rgbf000039-resize_4/002043_2014-06-24_20-29-38_260595134347_rgbf000039-resize_4-target.png,1000,2.8435,9,2385,1008,feet,jsons/v1_VE1000_randls_18_rotated.json,555995,659369,29,Man
29,119263,DepthScenes,duration_manipulation_targetAtFixation,jsons/v1_VE1000_randls_18_rotated.json,http://54.235.29.9/FacialAge/BNav_EC2/DepthDuration/v2_depth_duration_MTurk/v2_DepthDuration_HTML.html#24,24,2560,1329,2560,1440,8-29-2022,8-4-26,30,depth_duration_stimuli/002072_2014-06-24_21-48-06_260595134347_rgbf000115-resize_0/002072_2014-06-24_21-48-06_260595134347_rgbf000115-resize-original.jpg,1000,4.702,0,2327,1008,feet,jsons/v1_VE1000_randls_18_rotated.json,555995,659369,29,Man
30,119263,DepthScenes,duration_manipulation_targetAtFixation,jsons/v1_VE1000_randls_18_rotated.json,http://54.235.29.9/FacialAge/BNav_EC2/DepthDuration/v2_depth_duration_MTurk/v2_DepthDuration_HTML.html#24,24,2560,1329,2560,1440,8-29-2022,8-4-26,31,depth_duration_stimuli/002323_2014-06-28_20-01-54_260595134347_rgbf000051-resize_4/002323_2014-06-28_20-01-54_260595134347_rgbf000051-resize_4-target.png,1000,3.7310000000000003,11,2950,1004,feet,jsons/v1_VE1000_randls_18_rotated.json,555995,659369,29,Man
31,119263,DepthScenes,duration_manipulation_targetAtFixation,jsons/v1_VE1000_randls_18_rotated.json,http://54.235.29.9/FacialAge/BNav_EC2/DepthDuration/v2_depth_duration_MTurk/v2_DepthDuration_HTML.html#24,24,2560,1329,2560,1440,8-29-2022,8-4-26,32,depth_duration_stimuli/000917_2014-06-09_22-45-29_260595134347_rgbf000149-resize_3/000917_2014-06-09_22-45-29_260595134347_rgbf000149-resize_3-target.png,1000,4.1865,10,3202,1008,feet,jsons/v1_VE1000_randls_18_rotated.json,555995,659369,29,Man
32,119263,DepthScenes,duration_manipulation_targetAtFixation,jsons/v1_VE1000_randls_18_rotated.json,http://54.235.29.9/FacialAge/BNav_EC2/DepthDuration/v2_depth_duration_MTurk/v2_DepthDuration_HTML.html#24,24,2560,1329,2560,1440,8-29-2022,8-4-26,33,depth_duration_stimuli/000780_2014-06-08_22-28-29_260595134347_rgbf000126-resize_1/000780_2014-06-08_22-28-29_260595134347_rgbf000126-resize_1-target.png,1000,3.3825,10,3159,994,feet,jsons/v1_VE1000_randls_18_rotated.json,555995,659369,29,Man
33,119263,DepthScenes,duration_manipulation_targetAtFixation,jsons/v1_VE1000_randls_18_rotated.json,http://54.235.29.9/FacialAge/BNav_EC2/DepthDuration/v2_depth_duration_MTurk/v2_DepthDuration_HTML.html#24,24,2560,1329,2560,1440,8-29-2022,8-4-26,34,depth_duration_stimuli/002445_2014-06-28_20-32-16_260595134347_rgbf000029-resize_4/002445_2014-06-28_20-32-16_260595134347_rgbf000029-resize_4-target.png,1000,2.5315,7,2357,1008,feet,jsons/v1_VE1000_randls_18_rotated.json,555995,659369,29,Man
34,119263,DepthScenes,duration_manipulation_targetAtFixation,jsons/v1_VE1000_randls_18_rotated.json,http://54.235.29.9/FacialAge/BNav_EC2/DepthDuration/v2_depth_duration_MTurk/v2_DepthDuration_HTML.html#24,24,2560,1329,2560,1440,8-29-2022,8-4-26,35,depth_duration_stimuli/001617_2014-06-20_11-35-32_260595134347_rgbf000066-resize_1/001617_2014-06-20_11-35-32_260595134347_rgbf000066-resize_1-target.png,1000,3.7910000000000004,9,2752,993,feet,jsons/v1_VE1000_randls_18_rotated.json,555995,659369,29,Man
35,119263,DepthScenes,duration_manipulation_targetAtFixation,jsons/v1_VE1000_randls_18_rotated.json,http://54.235.29.9/FacialAge/BNav_EC2/DepthDuration/v2_depth_duration_MTurk/v2_DepthDuration_HTML.html#24,24,2560,1329,2560,1440,8-29-2022,8-4-26,36,depth_duration_stimuli/001806_2014-06-26_20-50-20_260595134347_rgbf000091-resize_1/001806_2014-06-26_20-50-20_260595134347_rgbf000091-resize_1-target.png,1000,2.7305,6,3143,1013,feet,jsons/v1_VE1000_randls_18_rotated.json,555995,659369,29,Man
36,119263,DepthScenes,duration_manipulation_targetAtFixation,jsons/v1_VE1000_randls_18_rotated.json,http://54.235.29.9/FacialAge/BNav_EC2/DepthDuration/v2_depth_duration_MTurk/v2_DepthDuration_HTML.html#24,24,2560,1329,2560,1440,8-29-2022,8-4-26,37,depth_duration_stimuli/001828_2014-06-26_21-40-03_260595134347_rgbf000024-resize_0/001828_2014-06-26_21-40-03_260595134347_rgbf000024-resize_0-target.png,1000,4.8260000000000005,12,2707,993,feet,jsons/v1_VE1000_randls_18_rotated.json,555995,659369,29,Man
37,119263,DepthScenes,duration_manipulation_targetAtFixation,jsons/v1_VE1000_randls_18_rotated.json,http://54.235.29.9/FacialAge/BNav_EC2/DepthDuration/v2_depth_duration_MTurk/v2_DepthDuration_HTML.html#24,24,2560,1329,2560,1440,8-29-2022,8-4-26,38,depth_duration_stimuli/000009_2014-05-26_14-32-05_260595134347_rgbf000034-resize_3/000009_2014-05-26_14-32-05_260595134347_rgbf000034-resize_3-target.png,1000,3.8715,13,3067,1008,feet,jsons/v1_VE1000_randls_18_rotated.json,555995,659369,29,Man
38,119263,DepthScenes,duration_manipulation_targetAtFixation,jsons/v1_VE1000_randls_18_rotated.json,http://54.235.29.9/FacialAge/BNav_EC2/DepthDuration/v2_depth_duration_MTurk/v2_DepthDuration_HTML.html#24,24,2560,1329,2560,1440,8-29-2022,8-4-26,39,depth_duration_stimuli/002637_2014-06-24_14-51-13_094959634447_rgbf000066-resize_4/002637_2014-06-24_14-51-13_094959634447_rgbf000066-resize_4-target.png,1000,1.9955,8,8144,1000,feet,jsons/v1_VE1000_randls_18_rotated.json,555995,659369,29,Man
39,119263,DepthScenes,duration_manipulation_targetAtFixation,jsons/v1_VE1000_randls_18_rotated.json,http://54.235.29.9/FacialAge/BNav_EC2/DepthDuration/v2_depth_duration_MTurk/v2_DepthDuration_HTML.html#24,24,2560,1329,2560,1440,8-29-2022,8-4-26,40,depth_duration_stimuli/003534_2014-05-22_15-06-10_094959634447_rgbf000102-resize_4/003534_2014-05-22_15-06-10_094959634447_rgbf000102-resize_4-target.png,1000,1.426,5,3613,993,feet,jsons/v1_VE1000_randls_18_rotated.json,555995,659369,29,Man
40,119263,DepthScenes,duration_manipulation_targetAtFixation,jsons/v1_VE1000_randls_18_rotated.json,http://54.235.29.9/FacialAge/BNav_EC2/DepthDuration/v2_depth_duration_MTurk/v2_DepthDuration_HTML.html#24,24,2560,1329,2560,1440,8-29-2022,8-4-26,41,depth_duration_stimuli/000943_2014-06-09_19-31-07_260595134347_rgbf000128-resize_1/000943_2014-06-09_19-31-07_260595134347_rgbf000128-resize_1-target.png,1000,1.9765,5,2492,992,feet,jsons/v1_VE1000_randls_18_rotated.json,555995,659369,29,Man
41,119263,DepthScenes,duration_manipulation_targetAtFixation,jsons/v1_VE1000_randls_18_rotated.json,http://54.235.29.9/FacialAge/BNav_EC2/DepthDuration/v2_depth_duration_MTurk/v2_DepthDuration_HTML.html#24,24,2560,1329,2560,1440,8-29-2022,8-4-26,42,depth_duration_stimuli/003070_2014-06-15_14-58-27_094959634447_rgbf000150-resize_3/003070_2014-06-15_14-58-27_094959634447_rgbf000150-resize_3-target.png,1000,2.9415,8,2561,1008,feet,jsons/v1_VE1000_randls_18_rotated.json,555995,659369,29,Man
42,119263,DepthScenes,duration_manipulation_targetAtFixation,jsons/v1_VE1000_randls_18_rotated.json,http://54.235.29.9/FacialAge/BNav_EC2/DepthDuration/v2_depth_duration_MTurk/v2_DepthDuration_HTML.html#24,24,2560,1329,2560,1440,8-29-2022,8-4-26,43,depth_duration_stimuli/001100_2014-06-15_17-46-26_260595134347_rgbf000225-resize_2/001100_2014-06-15_17-46-26_260595134347_rgbf000225-resize_2-target.png,1000,2.24,4,4290,993,feet,jsons/v1_VE1000_randls_18_rotated.json,555995,659369,29,Man
43,119263,DepthScenes,duration_manipulation_targetAtFixation,jsons/v1_VE1000_randls_18_rotated.json,http://54.235.29.9/FacialAge/BNav_EC2/DepthDuration/v2_depth_duration_MTurk/v2_DepthDuration_HTML.html#24,24,2560,1329,2560,1440,8-29-2022,8-4-26,44,depth_duration_stimuli/002784_2014-06-22_19-26-30_094959634447_rgbf000083-resize_3/002784_2014-06-22_19-26-30_094959634447_rgbf000083-resize_3-target.png,1000,1.8046666666667,5,2488,1008,feet,jsons/v1_VE1000_randls_18_rotated.json,555995,659369,29,Man
44,119263,DepthScenes,duration_manipulation_targetAtFixation,jsons/v1_VE1000_randls_18_rotated.json,http://54.235.29.9/FacialAge/BNav_EC2/DepthDuration/v2_depth_duration_MTurk/v2_DepthDuration_HTML.html#24,24,2560,1329,2560,1440,8-29-2022,8-4-26,45,depth_duration_stimuli/000556_2014-06-09_22-42-56_260595134347_rgbf000214-resize_1/000556_2014-06-09_22-42-56_260595134347_rgbf000214-resize_1-target.png,1000,4.8415,9,2723,1008,feet,jsons/v1_VE1000_randls_18_rotated.json,555995,659369,29,Man
45,119263,DepthScenes,duration_manipulation_targetAtFixation,jsons/v1_VE1000_randls_18_rotated.json,http://54.235.29.9/FacialAge/BNav_EC2/DepthDuration/v2_depth_duration_MTurk/v2_DepthDuration_HTML.html#24,24,2560,1329,2560,1440,8-29-2022,8-4-26,46,depth_duration_stimuli/001158_2014-06-17_15-32-16_260595134347_rgbf000138-resize_2/001158_2014-06-17_15-32-16_260595134347_rgbf000138-resize_2-target.png,1000,4.5315,12,2467,1006,feet,jsons/v1_VE1000_randls_18_rotated.json,555995,659369,29,Man
46,119263,DepthScenes,duration_manipulation_targetAtFixation,jsons/v1_VE1000_randls_18_rotated.json,http://54.235.29.9/FacialAge/BNav_EC2/DepthDuration/v2_depth_duration_MTurk/v2_DepthDuration_HTML.html#24,24,2560,1329,2560,1440,8-29-2022,8-4-26,47,depth_duration_stimuli/002568_2014-06-24_13-59-21_094959634447_rgbf000062-resize_4/002568_2014-06-24_13-59-21_094959634447_rgbf000062-resize_4-target.png,1000,3.015,8,2670,992,feet,jsons/v1_VE1000_randls_18_rotated.json,555995,659369,29,Man
47,119263,DepthScenes,duration_manipulation_targetAtFixation,jsons/v1_VE1000_randls_18_rotated.json,http://54.235.29.9/FacialAge/BNav_EC2/DepthDuration/v2_depth_duration_MTurk/v2_DepthDuration_HTML.html#24,24,2560,1329,2560,1440,8-29-2022,8-4-26,48,depth_duration_stimuli/003492_2014-05-21_15-50-55_094959634447_rgbf000828-resize_1/003492_2014-05-21_15-50-55_094959634447_rgbf000828-resize_1-target.png,1000,4.06875,12,2667,992,feet,jsons/v1_VE1000_randls_18_rotated.json,555995,659369,29,Man
48,119263,DepthScenes,duration_manipulation_targetAtFixation,jsons/v1_VE1000_randls_18_rotated.json,http://54.235.29.9/FacialAge/BNav_EC2/DepthDuration/v2_depth_duration_MTurk/v2_DepthDuration_HTML.html#24,24,2560,1329,2560,1440,8-29-2022,8-4-26,49,depth_duration_stimuli/001170_2014-06-17_15-43-44_260595134347_rgbf000096-resize_6/001170_2014-06-17_15-43-44_260595134347_rgbf000096-resize-original.jpg,1000,1.1909999999999998,0,2900,1001,feet,jsons/v1_VE1000_randls_18_rotated.json,555995,659369,29,Man
49,119263,DepthScenes,duration_manipulation_targetAtFixation,jsons/v1_VE1000_randls_18_rotated.json,http://54.235.29.9/FacialAge/BNav_EC2/DepthDuration/v2_depth_duration_MTurk/v2_DepthDuration_HTML.html#24,24,2560,1329,2560,1440,8-29-2022,8-4-26,50,depth_duration_stimuli/000502_2014-06-08_23-02-32_260595134347_rgbf000063-resize_4/000502_2014-06-08_23-02-32_260595134347_rgbf000063-resize_4-target.png,1000,2.431,7,3171,1013,feet,jsons/v1_VE1000_randls_18_rotated.json,555995,659369,29,Man
50,119263,DepthScenes,duration_manipulation_targetAtFixation,jsons/v1_VE1000_randls_18_rotated.json,http://54.235.29.9/FacialAge/BNav_EC2/DepthDuration/v2_depth_duration_MTurk/v2_DepthDuration_HTML.html#24,24,2560,1329,2560,1440,8-29-2022,8-4-26,51,depth_duration_stimuli/001199_2014-06-17_16-03-48_260595134347_rgbf000077-resize_0/001199_2014-06-17_16-03-48_260595134347_rgbf000077-resize_0-target.png,1000,3.4375,15,3171,993,feet,jsons/v1_VE1000_randls_18_rotated.json,555995,659369,29,Man
51,119263,DepthScenes,duration_manipulation_targetAtFixation,jsons/v1_VE1000_randls_18_rotated.json,http://54.235.29.9/FacialAge/BNav_EC2/DepthDuration/v2_depth_duration_MTurk/v2_DepthDuration_HTML.html#24,24,2560,1329,2560,1440,8-29-2022,8-4-26,52,depth_duration_stimuli/000691_2014-06-08_13-08-50_260595134347_rgbf000132-resize_3/000691_2014-06-08_13-08-50_260595134347_rgbf000132-resize_3-target.png,1000,4.1530000000000005,11,2980,1008,feet,jsons/v1_VE1000_randls_18_rotated.json,555995,659369,29,Man
52,119263,DepthScenes,duration_manipulation_targetAtFixation,jsons/v1_VE1000_randls_18_rotated.json,http://54.235.29.9/FacialAge/BNav_EC2/DepthDuration/v2_depth_duration_MTurk/v2_DepthDuration_HTML.html#24,24,2560,1329,2560,1440,8-29-2022,8-4-26,53,depth_duration_stimuli/002213_2014-06-28_18-37-58_260595134347_rgbf000055-resize_1/002213_2014-06-28_18-37-58_260595134347_rgbf000055-resize_1-target.png,1000,3.62,12,2544,992,feet,jsons/v1_VE1000_randls_18_rotated.json,555995,659369,29,Man
53,119263,DepthScenes,duration_manipulation_targetAtFixation,jsons/v1_VE1000_randls_18_rotated.json,http://54.235.29.9/FacialAge/BNav_EC2/DepthDuration/v2_depth_duration_MTurk/v2_DepthDuration_HTML.html#24,24,2560,1329,2560,1440,8-29-2022,8-4-26,54,depth_duration_stimuli/001584_2014-06-20_11-07-43_260595134347_rgbf000002-resize_1/001584_2014-06-20_11-07-43_260595134347_rgbf000002-resize_1-target.png,1000,3.53,9,2408,993,feet,jsons/v1_VE1000_randls_18_rotated.json,555995,659369,29,Man
54,119263,DepthScenes,duration_manipulation_targetAtFixation,jsons/v1_VE1000_randls_18_rotated.json,http://54.235.29.9/FacialAge/BNav_EC2/DepthDuration/v2_depth_duration_MTurk/v2_DepthDuration_HTML.html#24,24,2560,1329,2560,1440,8-29-2022,8-4-26,55,depth_duration_stimuli/003621_2014-05-23_18-06-08_094959634447_rgbf000101-resize_1/003621_2014-05-23_18-06-08_094959634447_rgbf000101-resize_1-target.png,1000,3.9835,12,2555,993,feet,jsons/v1_VE1000_randls_18_rotated.json,555995,659369,29,Man
55,119263,DepthScenes,duration_manipulation_targetAtFixation,jsons/v1_VE1000_randls_18_rotated.json,http://54.235.29.9/FacialAge/BNav_EC2/DepthDuration/v2_depth_duration_MTurk/v2_DepthDuration_HTML.html#24,24,2560,1329,2560,1440,8-29-2022,8-4-26,56,depth_duration_stimuli/002344_2014-06-28_20-06-29_260595134347_rgbf000030-resize_1/002344_2014-06-28_20-06-29_260595134347_rgbf000030-resize_1-target.png,1000,1.5795,4,2332,1008,feet,jsons/v1_VE1000_randls_18_rotated.json,555995,659369,29,Man
56,119263,DepthScenes,duration_manipulation_targetAtFixation,jsons/v1_VE1000_randls_18_rotated.json,http://54.235.29.9/FacialAge/BNav_EC2/DepthDuration/v2_depth_duration_MTurk/v2_DepthDuration_HTML.html#24,24,2560,1329,2560,1440,8-29-2022,8-4-26,57,depth_duration_stimuli/002725_2014-06-22_11-47-51_094959634447_rgbf000070-resize_1/002725_2014-06-22_11-47-51_094959634447_rgbf000070-resize_1-target.png,1000,2.195,6,2423,1008,feet,jsons/v1_VE1000_randls_18_rotated.json,555995,659369,29,Man
57,119263,DepthScenes,duration_manipulation_targetAtFixation,jsons/v1_VE1000_randls_18_rotated.json,http://54.235.29.9/FacialAge/BNav_EC2/DepthDuration/v2_depth_duration_MTurk/v2_DepthDuration_HTML.html#24,24,2560,1329,2560,1440,8-29-2022,8-4-26,58,depth_duration_stimuli/003423_2014-05-21_10-23-26_094959634447_rgbf002665-resize_2/003423_2014-05-21_10-23-26_094959634447_rgbf002665-resize_2-target.png,1000,3.2575,12,2868,993,feet,jsons/v1_VE1000_randls_18_rotated.json,555995,659369,29,Man
58,119263,DepthScenes,duration_manipulation_targetAtFixation,jsons/v1_VE1000_randls_18_rotated.json,http://54.235.29.9/FacialAge/BNav_EC2/DepthDuration/v2_depth_duration_MTurk/v2_DepthDuration_HTML.html#24,24,2560,1329,2560,1440,8-29-2022,8-4-26,59,depth_duration_stimuli/002905_2014-06-03_18-04-43_094959634447_rgbf000151-resize_2/002905_2014-06-03_18-04-43_094959634447_rgbf000151-resize_2-target.png,1000,2.0295,6,2541,993,feet,jsons/v1_VE1000_randls_18_rotated.json,555995,659369,29,Man
59,119263,DepthScenes,duration_manipulation_targetAtFixation,jsons/v1_VE1000_randls_18_rotated.json,http://54.235.29.9/FacialAge/BNav_EC2/DepthDuration/v2_depth_duration_MTurk/v2_DepthDuration_HTML.html#24,24,2560,1329,2560,1440,8-29-2022,8-4-26,60,depth_duration_stimuli/001392_2014-06-19_16-07-59_260595134347_rgbf000046-resize_1/001392_2014-06-19_16-07-59_260595134347_rgbf000046-resize_1-target.png,1000,4.135,10,3497,1000,feet,jsons/v1_VE1000_randls_18_rotated.json,555995,659369,29,Man
60,119263,DepthScenes,duration_manipulation_targetAtFixation,jsons/v1_VE1000_randls_18_rotated.json,http://54.235.29.9/FacialAge/BNav_EC2/DepthDuration/v2_depth_duration_MTurk/v2_DepthDuration_HTML.html#24,24,2560,1329,2560,1440,8-29-2022,8-4-26,61,depth_duration_stimuli/001570_2014-06-20_17-21-09_260595134347_rgbf000135-resize_4/001570_2014-06-20_17-21-09_260595134347_rgbf000135-resize_4-target.png,1000,4.467,12,2430,1008,feet,jsons/v1_VE1000_randls_18_rotated.json,555995,659369,29,Man
61,119263,DepthScenes,duration_manipulation_targetAtFixation,jsons/v1_VE1000_randls_18_rotated.json,http://54.235.29.9/FacialAge/BNav_EC2/DepthDuration/v2_depth_duration_MTurk/v2_DepthDuration_HTML.html#24,24,2560,1329,2560,1440,8-29-2022,8-4-26,62,depth_duration_stimuli/002805_2014-06-22_19-54-03_094959634447_rgbf000079-resize_1/002805_2014-06-22_19-54-03_094959634447_rgbf000079-resize_1-target.png,1000,3.1439999999999997,12,2595,1008,feet,jsons/v1_VE1000_randls_18_rotated.json,555995,659369,29,Man
62,119263,DepthScenes,duration_manipulation_targetAtFixation,jsons/v1_VE1000_randls_18_rotated.json,http://54.235.29.9/FacialAge/BNav_EC2/DepthDuration/v2_depth_duration_MTurk/v2_DepthDuration_HTML.html#24,24,2560,1329,2560,1440,8-29-2022,8-4-26,63,depth_duration_stimuli/000906_2014-06-08_13-35-43_260595134347_rgbf000155-resize_1/000906_2014-06-08_13-35-43_260595134347_rgbf000155-resize_1-target.png,1000,2.8489999999999998,13,2572,1008,feet,jsons/v1_VE1000_randls_18_rotated.json,555995,659369,29,Man
63,119263,DepthScenes,duration_manipulation_targetAtFixation,jsons/v1_VE1000_randls_18_rotated.json,http://54.235.29.9/FacialAge/BNav_EC2/DepthDuration/v2_depth_duration_MTurk/v2_DepthDuration_HTML.html#24,24,2560,1329,2560,1440,8-29-2022,8-4-26,64,depth_duration_stimuli/000749_2014-06-08_21-55-06_260595134347_rgbf000070-resize_2/000749_2014-06-08_21-55-06_260595134347_rgbf000070-resize_2-target.png,1000,2.331,9,2443,993,feet,jsons/v1_VE1000_randls_18_rotated.json,555995,659369,29,Man
64,119263,DepthScenes,duration_manipulation_targetAtFixation,jsons/v1_VE1000_randls_18_rotated.json,http://54.235.29.9/FacialAge/BNav_EC2/DepthDuration/v2_depth_duration_MTurk/v2_DepthDuration_HTML.html#24,24,2560,1329,2560,1440,8-29-2022,8-4-26,65,depth_duration_stimuli/002788_2014-06-22_19-36-03_094959634447_rgbf000088-resize_2/002788_2014-06-22_19-36-03_094959634447_rgbf000088-resize_2-target.png,1000,1.6465,9,2848,1013,feet,jsons/v1_VE1000_randls_18_rotated.json,555995,659369,29,Man
65,119263,DepthScenes,duration_manipulation_targetAtFixation,jsons/v1_VE1000_randls_18_rotated.json,http://54.235.29.9/FacialAge/BNav_EC2/DepthDuration/v2_depth_duration_MTurk/v2_DepthDuration_HTML.html#24,24,2560,1329,2560,1440,8-29-2022,8-4-26,66,depth_duration_stimuli/001540_2014-06-20_17-01-05_260595134347_rgbf000086-resize_2/001540_2014-06-20_17-01-05_260595134347_rgbf000086-resize-original.jpg,1000,1.459,0,2861,1007,feet,jsons/v1_VE1000_randls_18_rotated.json,555995,659369,29,Man
66,119263,DepthScenes,duration_manipulation_targetAtFixation,jsons/v1_VE1000_randls_18_rotated.json,http://54.235.29.9/FacialAge/BNav_EC2/DepthDuration/v2_depth_duration_MTurk/v2_DepthDuration_HTML.html#24,24,2560,1329,2560,1440,8-29-2022,8-4-26,67,depth_duration_stimuli/002758_2014-06-22_19-11-20_094959634447_rgbf000128-resize_1/002758_2014-06-22_19-11-20_094959634447_rgbf000128-resize_1-target.png,1000,2.555,7,2524,1008,feet,jsons/v1_VE1000_randls_18_rotated.json,555995,659369,29,Man
67,119263,DepthScenes,duration_manipulation_targetAtFixation,jsons/v1_VE1000_randls_18_rotated.json,http://54.235.29.9/FacialAge/BNav_EC2/DepthDuration/v2_depth_duration_MTurk/v2_DepthDuration_HTML.html#24,24,2560,1329,2560,1440,8-29-2022,8-4-26,68,depth_duration_stimuli/002630_2014-06-24_14-47-50_094959634447_rgbf000055-resize_1/002630_2014-06-24_14-47-50_094959634447_rgbf000055-resize_1-target.png,1000,3.0095,12,2979,1008,feet,jsons/v1_VE1000_randls_18_rotated.json,555995,659369,29,Man
68,119263,DepthScenes,duration_manipulation_targetAtFixation,jsons/v1_VE1000_randls_18_rotated.json,http://54.235.29.9/FacialAge/BNav_EC2/DepthDuration/v2_depth_duration_MTurk/v2_DepthDuration_HTML.html#24,24,2560,1329,2560,1440,8-29-2022,8-4-26,69,depth_duration_stimuli/001571_2014-06-20_17-21-32_260595134347_rgbf000089-resize_1/001571_2014-06-20_17-21-32_260595134347_rgbf000089-resize_1-target.png,1000,1.86,5,2392,1004,feet,jsons/v1_VE1000_randls_18_rotated.json,555995,659369,29,Man
69,119263,DepthScenes,duration_manipulation_targetAtFixation,jsons/v1_VE1000_randls_18_rotated.json,http://54.235.29.9/FacialAge/BNav_EC2/DepthDuration/v2_depth_duration_MTurk/v2_DepthDuration_HTML.html#24,24,2560,1329,2560,1440,8-29-2022,8-4-26,70,depth_duration_stimuli/002272_2014-06-28_18-53-56_260595134347_rgbf000067-resize_2/002272_2014-06-28_18-53-56_260595134347_rgbf000067-resize_2-target.png,1000,1.138,4,2499,1008,feet,jsons/v1_VE1000_randls_18_rotated.json,555995,659369,29,Man
70,119263,DepthScenes,duration_manipulation_targetAtFixation,jsons/v1_VE1000_randls_18_rotated.json,http://54.235.29.9/FacialAge/BNav_EC2/DepthDuration/v2_depth_duration_MTurk/v2_DepthDuration_HTML.html#24,24,2560,1329,2560,1440,8-29-2022,8-4-26,71,depth_duration_stimuli/000409_2014-06-04_19-23-33_260595134347_rgbf000067-resize_0/000409_2014-06-04_19-23-33_260595134347_rgbf000067-resize_0-target.png,1000,3.7335,9,2893,993,feet,jsons/v1_VE1000_randls_18_rotated.json,555995,659369,29,Man
71,119263,DepthScenes,duration_manipulation_targetAtFixation,jsons/v1_VE1000_randls_18_rotated.json,http://54.235.29.9/FacialAge/BNav_EC2/DepthDuration/v2_depth_duration_MTurk/v2_DepthDuration_HTML.html#24,24,2560,1329,2560,1440,8-29-2022,8-4-26,72,depth_duration_stimuli/002663_2014-06-13_15-50-26_094959634447_rgbf000075-resize_1/002663_2014-06-13_15-50-26_094959634447_rgbf000075-resize_1-target.png,1000,4.7495,12,2635,1008,feet,jsons/v1_VE1000_randls_18_rotated.json,555995,659369,29,Man
72,119263,DepthScenes,duration_manipulation_targetAtFixation,jsons/v1_VE1000_randls_18_rotated.json,http://54.235.29.9/FacialAge/BNav_EC2/DepthDuration/v2_depth_duration_MTurk/v2_DepthDuration_HTML.html#24,24,2560,1329,2560,1440,8-29-2022,8-4-26,73,depth_duration_stimuli/002750_2014-06-22_19-08-03_094959634447_rgbf000094-resize_4/002750_2014-06-22_19-08-03_094959634447_rgbf000094-resize_4-target.png,1000,2.354,9,4167,993,feet,jsons/v1_VE1000_randls_18_rotated.json,555995,659369,29,Man
73,119263,DepthScenes,duration_manipulation_targetAtFixation,jsons/v1_VE1000_randls_18_rotated.json,http://54.235.29.9/FacialAge/BNav_EC2/DepthDuration/v2_depth_duration_MTurk/v2_DepthDuration_HTML.html#24,24,2560,1329,2560,1440,8-29-2022,8-4-26,74,depth_duration_stimuli/002549_2014-06-24_13-41-39_094959634447_rgbf000022-resize_3/002549_2014-06-24_13-41-39_094959634447_rgbf000022-resize_3-target.png,1000,1.476,5,2424,1008,feet,jsons/v1_VE1000_randls_18_rotated.json,555995,659369,29,Man
74,119263,DepthScenes,duration_manipulation_targetAtFixation,jsons/v1_VE1000_randls_18_rotated.json,http://54.235.29.9/FacialAge/BNav_EC2/DepthDuration/v2_depth_duration_MTurk/v2_DepthDuration_HTML.html#24,24,2560,1329,2560,1440,8-29-2022,8-4-26,75,depth_duration_stimuli/001516_2014-06-20_16-25-09_260595134347_rgbf000076-resize_2/001516_2014-06-20_16-25-09_260595134347_rgbf000076-resize_2-target.png,1000,1.7445,6,2302,1009,feet,jsons/v1_VE1000_randls_18_rotated.json,555995,659369,29,Man
75,119263,DepthScenes,duration_manipulation_targetAtFixation,jsons/v1_VE1000_randls_18_rotated.json,http://54.235.29.9/FacialAge/BNav_EC2/DepthDuration/v2_depth_duration_MTurk/v2_DepthDuration_HTML.html#24,24,2560,1329,2560,1440,8-29-2022,8-4-26,76,depth_duration_stimuli/002118_2014-06-25_20-32-08_260595134347_rgbf000078-resize_1/002118_2014-06-25_20-32-08_260595134347_rgbf000078-resize_1-target.png,1000,2.6460000000000004,7,2362,1009,feet,jsons/v1_VE1000_randls_18_rotated.json,555995,659369,29,Man
76,119263,DepthScenes,duration_manipulation_targetAtFixation,jsons/v1_VE1000_randls_18_rotated.json,http://54.235.29.9/FacialAge/BNav_EC2/DepthDuration/v2_depth_duration_MTurk/v2_DepthDuration_HTML.html#24,24,2560,1329,2560,1440,8-29-2022,8-4-26,77,depth_duration_stimuli/002953_2014-06-08_17-32-18_094959634447_rgbf000059-resize_5/002953_2014-06-08_17-32-18_094959634447_rgbf000059-resize_5-target.png,1000,1.551,4,2314,993,feet,jsons/v1_VE1000_randls_18_rotated.json,555995,659369,29,Man
77,119263,DepthScenes,duration_manipulation_targetAtFixation,jsons/v1_VE1000_randls_18_rotated.json,http://54.235.29.9/FacialAge/BNav_EC2/DepthDuration/v2_depth_duration_MTurk/v2_DepthDuration_HTML.html#24,24,2560,1329,2560,1440,8-29-2022,8-4-26,78,depth_duration_stimuli/000878_2014-06-08_22-52-45_260595134347_rgbf000045-resize_2/000878_2014-06-08_22-52-45_260595134347_rgbf000045-resize_2-target.png,1000,2.092,8,2336,992,feet,jsons/v1_VE1000_randls_18_rotated.json,555995,659369,29,Man
78,119263,DepthScenes,duration_manipulation_targetAtFixation,jsons/v1_VE1000_randls_18_rotated.json,http://54.235.29.9/FacialAge/BNav_EC2/DepthDuration/v2_depth_duration_MTurk/v2_DepthDuration_HTML.html#24,24,2560,1329,2560,1440,8-29-2022,8-4-26,79,depth_duration_stimuli/001450_2014-06-19_17-02-03_260595134347_rgbf000203-resize_4/001450_2014-06-19_17-02-03_260595134347_rgbf000203-resize_4-target.png,1000,4.0106666666667,11,2408,1008,feet,jsons/v1_VE1000_randls_18_rotated.json,555995,659369,29,Man
79,119263,DepthScenes,duration_manipulation_targetAtFixation,jsons/v1_VE1000_randls_18_rotated.json,http://54.235.29.9/FacialAge/BNav_EC2/DepthDuration/v2_depth_duration_MTurk/v2_DepthDuration_HTML.html#24,24,2560,1329,2560,1440,8-29-2022,8-4-26,80,depth_duration_stimuli/001449_2014-06-19_17-01-27_260595134347_rgbf000116-resize_2/001449_2014-06-19_17-01-27_260595134347_rgbf000116-resize_2-target.png,1000,3.452,10,4168,993,feet,jsons/v1_VE1000_randls_18_rotated.json,555995,659369,29,Man
80,119263,DepthScenes,duration_manipulation_targetAtFixation,jsons/v1_VE1000_randls_18_rotated.json,http://54.235.29.9/FacialAge/BNav_EC2/DepthDuration/v2_depth_duration_MTurk/v2_DepthDuration_HTML.html#24,24,2560,1329,2560,1440,8-29-2022,8-4-26,81,depth_duration_stimuli/000709_2014-06-08_13-51-55_260595134347_rgbf000068-resize_3/000709_2014-06-08_13-51-55_260595134347_rgbf000068-resize_3-target.png,1000,1.8030000000000002,6,2415,1008,feet,jsons/v1_VE1000_randls_18_rotated.json,555995,659369,29,Man
81,119263,DepthScenes,duration_manipulation_targetAtFixation,jsons/v1_VE1000_randls_18_rotated.json,http://54.235.29.9/FacialAge/BNav_EC2/DepthDuration/v2_depth_duration_MTurk/v2_DepthDuration_HTML.html#24,24,2560,1329,2560,1440,8-29-2022,8-4-26,82,depth_duration_stimuli/002057_2014-06-24_21-00-13_260595134347_rgbf000120-resize_1/002057_2014-06-24_21-00-13_260595134347_rgbf000120-resize_1-target.png,1000,2.967,10,3302,1008,feet,jsons/v1_VE1000_randls_18_rotated.json,555995,659369,29,Man
82,119263,DepthScenes,duration_manipulation_targetAtFixation,jsons/v1_VE1000_randls_18_rotated.json,http://54.235.29.9/FacialAge/BNav_EC2/DepthDuration/v2_depth_duration_MTurk/v2_DepthDuration_HTML.html#24,24,2560,1329,2560,1440,8-29-2022,8-4-26,83,depth_duration_stimuli/002425_2014-06-28_20-27-29_260595134347_rgbf000031-resize_8/002425_2014-06-28_20-27-29_260595134347_rgbf000031-resize_8-target.png,1000,3.8960000000000004,11,2532,992,feet,jsons/v1_VE1000_randls_18_rotated.json,555995,659369,29,Man
83,119263,DepthScenes,duration_manipulation_targetAtFixation,jsons/v1_VE1000_randls_18_rotated.json,http://54.235.29.9/FacialAge/BNav_EC2/DepthDuration/v2_depth_duration_MTurk/v2_DepthDuration_HTML.html#24,24,2560,1329,2560,1440,8-29-2022,8-4-26,84,depth_duration_stimuli/000642_2014-06-08_16-59-25_260595134347_rgbf000098-resize_2/000642_2014-06-08_16-59-25_260595134347_rgbf000098-resize_2-target.png,1000,2.8815,7,2627,993,feet,jsons/v1_VE1000_randls_18_rotated.json,555995,659369,29,Man
84,119263,DepthScenes,duration_manipulation_targetAtFixation,jsons/v1_VE1000_randls_18_rotated.json,http://54.235.29.9/FacialAge/BNav_EC2/DepthDuration/v2_depth_duration_MTurk/v2_DepthDuration_HTML.html#24,24,2560,1329,2560,1440,8-29-2022,8-4-26,85,depth_duration_stimuli/003010_2014-06-15_12-54-35_094959634447_rgbf000112-resize_0/003010_2014-06-15_12-54-35_094959634447_rgbf000112-resize_0-target.png,1000,3.1185,10,4301,1008,feet,jsons/v1_VE1000_randls_18_rotated.json,555995,659369,29,Man
85,119263,DepthScenes,duration_manipulation_targetAtFixation,jsons/v1_VE1000_randls_18_rotated.json,http://54.235.29.9/FacialAge/BNav_EC2/DepthDuration/v2_depth_duration_MTurk/v2_DepthDuration_HTML.html#24,24,2560,1329,2560,1440,8-29-2022,8-4-26,86,depth_duration_stimuli/001810_2014-06-26_20-51-35_260595134347_rgbf000040-resize_3/001810_2014-06-26_20-51-35_260595134347_rgbf000040-resize_3-target.png,1000,2.2525,6,2261,1008,feet,jsons/v1_VE1000_randls_18_rotated.json,555995,659369,29,Man
86,119263,DepthScenes,duration_manipulation_targetAtFixation,jsons/v1_VE1000_randls_18_rotated.json,http://54.235.29.9/FacialAge/BNav_EC2/DepthDuration/v2_depth_duration_MTurk/v2_DepthDuration_HTML.html#24,24,2560,1329,2560,1440,8-29-2022,8-4-26,87,depth_duration_stimuli/000866_2014-06-09_20-45-42_260595134347_rgbf000139-resize_1/000866_2014-06-09_20-45-42_260595134347_rgbf000139-resize_1-target.png,1000,3.2155,8,2669,1009,feet,jsons/v1_VE1000_randls_18_rotated.json,555995,659369,29,Man
87,119263,DepthScenes,duration_manipulation_targetAtFixation,jsons/v1_VE1000_randls_18_rotated.json,http://54.235.29.9/FacialAge/BNav_EC2/DepthDuration/v2_depth_duration_MTurk/v2_DepthDuration_HTML.html#24,24,2560,1329,2560,1440,8-29-2022,8-4-26,88,depth_duration_stimuli/002989_2014-06-15_12-25-03_094959634447_rgbf000150-resize_3/002989_2014-06-15_12-25-03_094959634447_rgbf000150-resize_3-target.png,1000,4.1975,12,2540,992,feet,jsons/v1_VE1000_randls_18_rotated.json,555995,659369,29,Man
88,119263,DepthScenes,duration_manipulation_targetAtFixation,jsons/v1_VE1000_randls_18_rotated.json,http://54.235.29.9/FacialAge/BNav_EC2/DepthDuration/v2_depth_duration_MTurk/v2_DepthDuration_HTML.html#24,24,2560,1329,2560,1440,8-29-2022,8-4-26,89,depth_duration_stimuli/003228_2014-05-14_13-42-35_094959634447_rgbf000101-resize_1/003228_2014-05-14_13-42-35_094959634447_rgbf000101-resize_1-target.png,1000,1.9680000000000002,5,2558,1009,feet,jsons/v1_VE1000_randls_18_rotated.json,555995,659369,29,Man
89,119263,DepthScenes,duration_manipulation_targetAtFixation,jsons/v1_VE1000_randls_18_rotated.json,http://54.235.29.9/FacialAge/BNav_EC2/DepthDuration/v2_depth_duration_MTurk/v2_DepthDuration_HTML.html#24,24,2560,1329,2560,1440,8-29-2022,8-4-26,90,depth_duration_stimuli/002600_2014-06-24_14-27-04_094959634447_rgbf000074-resize_2/002600_2014-06-24_14-27-04_094959634447_rgbf000074-resize_2-target.png,1000,2.7575,7,2426,993,feet,jsons/v1_VE1000_randls_18_rotated.json,555995,659369,29,Man
90,119263,DepthScenes,duration_manipulation_targetAtFixation,jsons/v1_VE1000_randls_18_rotated.json,http://54.235.29.9/FacialAge/BNav_EC2/DepthDuration/v2_depth_duration_MTurk/v2_DepthDuration_HTML.html#24,24,2560,1329,2560,1440,8-29-2022,8-4-26,91,depth_duration_stimuli/000483_2014-06-09_20-41-45_260595134347_rgbf000116-resize_4/000483_2014-06-09_20-41-45_260595134347_rgbf000116-resize_4-target.png,1000,1.337,3,2374,1008,feet,jsons/v1_VE1000_randls_18_rotated.json,555995,659369,29,Man
91,119263,DepthScenes,duration_manipulation_targetAtFixation,jsons/v1_VE1000_randls_18_rotated.json,http://54.235.29.9/FacialAge/BNav_EC2/DepthDuration/v2_depth_duration_MTurk/v2_DepthDuration_HTML.html#24,24,2560,1329,2560,1440,8-29-2022,8-4-26,92,depth_duration_stimuli/000469_2014-06-09_19-42-10_260595134347_rgbf000081-resize_1/000469_2014-06-09_19-42-10_260595134347_rgbf000081-resize_1-target.png,1000,1.652,4,2280,992,feet,jsons/v1_VE1000_randls_18_rotated.json,555995,659369,29,Man
92,119263,DepthScenes,duration_manipulation_targetAtFixation,jsons/v1_VE1000_randls_18_rotated.json,http://54.235.29.9/FacialAge/BNav_EC2/DepthDuration/v2_depth_duration_MTurk/v2_DepthDuration_HTML.html#24,24,2560,1329,2560,1440,8-29-2022,8-4-26,93,depth_duration_stimuli/001815_2014-06-26_20-52-55_260595134347_rgbf000020-resize_0/001815_2014-06-26_20-52-55_260595134347_rgbf000020-resize_0-target.png,1000,3.3865,9,2557,993,feet,jsons/v1_VE1000_randls_18_rotated.json,555995,659369,29,Man
93,119263,DepthScenes,duration_manipulation_targetAtFixation,jsons/v1_VE1000_randls_18_rotated.json,http://54.235.29.9/FacialAge/BNav_EC2/DepthDuration/v2_depth_duration_MTurk/v2_DepthDuration_HTML.html#24,24,2560,1329,2560,1440,8-29-2022,8-4-26,94,depth_duration_stimuli/001808_2014-06-26_20-50-58_260595134347_rgbf000029-resize_1/001808_2014-06-26_20-50-58_260595134347_rgbf000029-resize_1-target.png,1000,4.249,10,3006,992,feet,jsons/v1_VE1000_randls_18_rotated.json,555995,659369,29,Man
94,119263,DepthScenes,duration_manipulation_targetAtFixation,jsons/v1_VE1000_randls_18_rotated.json,http://54.235.29.9/FacialAge/BNav_EC2/DepthDuration/v2_depth_duration_MTurk/v2_DepthDuration_HTML.html#24,24,2560,1329,2560,1440,8-29-2022,8-4-26,95,depth_duration_stimuli/001447_2014-06-19_17-00-32_260595134347_rgbf000082-resize_5/001447_2014-06-19_17-00-32_260595134347_rgbf000082-resize_5-target.png,1000,4.13775,8,3359,993,feet,jsons/v1_VE1000_randls_18_rotated.json,555995,659369,29,Man
95,119263,DepthScenes,duration_manipulation_targetAtFixation,jsons/v1_VE1000_randls_18_rotated.json,http://54.235.29.9/FacialAge/BNav_EC2/DepthDuration/v2_depth_duration_MTurk/v2_DepthDuration_HTML.html#24,24,2560,1329,2560,1440,8-29-2022,8-4-26,96,depth_duration_stimuli/000447_2014-06-08_16-15-46_260595134347_rgbf000130-resize_1/000447_2014-06-08_16-15-46_260595134347_rgbf000130-resize_1-target.png,1000,4.479,13,2419,1008,feet,jsons/v1_VE1000_randls_18_rotated.json,555995,659369,29,Man
96,119263,DepthScenes,duration_manipulation_targetAtFixation,jsons/v1_VE1000_randls_18_rotated.json,http://54.235.29.9/FacialAge/BNav_EC2/DepthDuration/v2_depth_duration_MTurk/v2_DepthDuration_HTML.html#24,24,2560,1329,2560,1440,8-29-2022,8-4-26,97,depth_duration_stimuli/000103_2014-05-14_22-01-17_260595134347_rgbf000152-resize_5/000103_2014-05-14_22-01-17_260595134347_rgbf000152-resize_5-target.png,1000,1.993,8,2515,993,feet,jsons/v1_VE1000_randls_18_rotated.json,555995,659369,29,Man
97,119263,DepthScenes,duration_manipulation_targetAtFixation,jsons/v1_VE1000_randls_18_rotated.json,http://54.235.29.9/FacialAge/BNav_EC2/DepthDuration/v2_depth_duration_MTurk/v2_DepthDuration_HTML.html#24,24,2560,1329,2560,1440,8-29-2022,8-4-26,98,depth_duration_stimuli/001555_2014-06-20_17-12-10_260595134347_rgbf000065-resize_4/001555_2014-06-20_17-12-10_260595134347_rgbf000065-resize_4-target.png,1000,1.633,4,2877,991,feet,jsons/v1_VE1000_randls_18_rotated.json,555995,659369,29,Man
98,119263,DepthScenes,duration_manipulation_targetAtFixation,jsons/v1_VE1000_randls_18_rotated.json,http://54.235.29.9/FacialAge/BNav_EC2/DepthDuration/v2_depth_duration_MTurk/v2_DepthDuration_HTML.html#24,24,2560,1329,2560,1440,8-29-2022,8-4-26,99,depth_duration_stimuli/001222_2014-06-17_16-24-06_260595134347_rgbf000073-resize_0/001222_2014-06-17_16-24-06_260595134347_rgbf000073-resize-original.jpg,1000,1.4385,0,2443,996,feet,jsons/v1_VE1000_randls_18_rotated.json,555995,659369,29,Man
99,119263,DepthScenes,duration_manipulation_targetAtFixation,jsons/v1_VE1000_randls_18_rotated.json,http://54.235.29.9/FacialAge/BNav_EC2/DepthDuration/v2_depth_duration_MTurk/v2_DepthDuration_HTML.html#24,24,2560,1329,2560,1440,8-29-2022,8-4-26,100,depth_duration_stimuli/002545_2014-06-24_13-38-53_094959634447_rgbf000080-resize_4/002545_2014-06-24_13-38-53_094959634447_rgbf000080-resize_4-target.png,1000,1.9205,6,2705,1012,feet,jsons/v1_VE1000_randls_18_rotated.json,555995,659369,29,Man
100,119263,DepthScenes,duration_manipulation_targetAtFixation,jsons/v1_VE1000_randls_18_rotated.json,http://54.235.29.9/FacialAge/BNav_EC2/DepthDuration/v2_depth_duration_MTurk/v2_DepthDuration_HTML.html#24,24,2560,1329,2560,1440,8-29-2022,8-4-26,101,depth_duration_stimuli/001092_2014-06-15_17-34-58_260595134347_rgbf000171-resize_3/001092_2014-06-15_17-34-58_260595134347_rgbf000171-resize_3-target.png,1000,2.6935,7,2230,993,feet,jsons/v1_VE1000_randls_18_rotated.json,555995,659369,29,Man
101,119263,DepthScenes,duration_manipulation_targetAtFixation,jsons/v1_VE1000_randls_18_rotated.json,http://54.235.29.9/FacialAge/BNav_EC2/DepthDuration/v2_depth_duration_MTurk/v2_DepthDuration_HTML.html#24,24,2560,1329,2560,1440,8-29-2022,8-4-26,102,depth_duration_stimuli/002995_2014-06-15_12-31-26_094959634447_rgbf000150-resize_1/002995_2014-06-15_12-31-26_094959634447_rgbf000150-resize_1-target.png,1000,3.8360000000000003,10,2883,992,feet,jsons/v1_VE1000_randls_18_rotated.json,555995,659369,29,Man
102,119263,DepthScenes,duration_manipulation_targetAtFixation,jsons/v1_VE1000_randls_18_rotated.json,http://54.235.29.9/FacialAge/BNav_EC2/DepthDuration/v2_depth_duration_MTurk/v2_DepthDuration_HTML.html#24,24,2560,1329,2560,1440,8-29-2022,8-4-26,103,depth_duration_stimuli/002748_2014-06-22_19-07-22_094959634447_rgbf000078-resize_1/002748_2014-06-22_19-07-22_094959634447_rgbf000078-resize_1-target.png,1000,4.6705,11,2928,987,feet,jsons/v1_VE1000_randls_18_rotated.json,555995,659369,29,Man
103,119263,DepthScenes,duration_manipulation_targetAtFixation,jsons/v1_VE1000_randls_18_rotated.json,http://54.235.29.9/FacialAge/BNav_EC2/DepthDuration/v2_depth_duration_MTurk/v2_DepthDuration_HTML.html#24,24,2560,1329,2560,1440,8-29-2022,8-4-26,104,depth_duration_stimuli/002660_2014-06-13_15-44-18_094959634447_rgbf001878-resize_2/002660_2014-06-13_15-44-18_094959634447_rgbf001878-resize_2-target.png,1000,3.576,10,3432,993,feet,jsons/v1_VE1000_randls_18_rotated.json,555995,659369,29,Man
104,119263,DepthScenes,duration_manipulation_targetAtFixation,jsons/v1_VE1000_randls_18_rotated.json,http://54.235.29.9/FacialAge/BNav_EC2/DepthDuration/v2_depth_duration_MTurk/v2_DepthDuration_HTML.html#24,24,2560,1329,2560,1440,8-29-2022,8-4-26,105,depth_duration_stimuli/002153_2014-06-25_21-27-18_260595134347_rgbf000038-resize_5/002153_2014-06-25_21-27-18_260595134347_rgbf000038-resize_5-target.png,1000,2.505,8,2956,992,feet,jsons/v1_VE1000_randls_18_rotated.json,555995,659369,29,Man
105,119263,DepthScenes,duration_manipulation_targetAtFixation,jsons/v1_VE1000_randls_18_rotated.json,http://54.235.29.9/FacialAge/BNav_EC2/DepthDuration/v2_depth_duration_MTurk/v2_DepthDuration_HTML.html#24,24,2560,1329,2560,1440,8-29-2022,8-4-26,106,depth_duration_stimuli/000191_2014-05-12_17-07-38_260595134347_rgbf000199-resize_0/000191_2014-05-12_17-07-38_260595134347_rgbf000199-resize_0-target.png,1000,3.7995,10,3083,997,feet,jsons/v1_VE1000_randls_18_rotated.json,555995,659369,29,Man
106,119263,DepthScenes,duration_manipulation_targetAtFixation,jsons/v1_VE1000_randls_18_rotated.json,http://54.235.29.9/FacialAge/BNav_EC2/DepthDuration/v2_depth_duration_MTurk/v2_DepthDuration_HTML.html#24,24,2560,1329,2560,1440,8-29-2022,8-4-26,107,depth_duration_stimuli/000493_2014-06-09_21-01-18_260595134347_rgbf000196-resize_3/000493_2014-06-09_21-01-18_260595134347_rgbf000196-resize_3-target.png,1000,3.44,8,3713,993,feet,jsons/v1_VE1000_randls_18_rotated.json,555995,659369,29,Man
107,119263,DepthScenes,duration_manipulation_targetAtFixation,jsons/v1_VE1000_randls_18_rotated.json,http://54.235.29.9/FacialAge/BNav_EC2/DepthDuration/v2_depth_duration_MTurk/v2_DepthDuration_HTML.html#24,24,2560,1329,2560,1440,8-29-2022,8-4-26,108,depth_duration_stimuli/002414_2014-06-28_20-24-58_260595134347_rgbf000067-resize_4/002414_2014-06-28_20-24-58_260595134347_rgbf000067-resize_4-target.png,1000,4.363,10,3720,1008,feet,jsons/v1_VE1000_randls_18_rotated.json,555995,659369,29,Man
108,119263,DepthScenes,duration_manipulation_targetAtFixation,jsons/v1_VE1000_randls_18_rotated.json,http://54.235.29.9/FacialAge/BNav_EC2/DepthDuration/v2_depth_duration_MTurk/v2_DepthDuration_HTML.html#24,24,2560,1329,2560,1440,8-29-2022,8-4-26,109,depth_duration_stimuli/000773_2014-06-08_22-24-54_260595134347_rgbf000093-resize_1/000773_2014-06-08_22-24-54_260595134347_rgbf000093-resize_1-target.png,1000,4.973,12,2948,984,feet,jsons/v1_VE1000_randls_18_rotated.json,555995,659369,29,Man
109,119263,DepthScenes,duration_manipulation_targetAtFixation,jsons/v1_VE1000_randls_18_rotated.json,http://54.235.29.9/FacialAge/BNav_EC2/DepthDuration/v2_depth_duration_MTurk/v2_DepthDuration_HTML.html#24,24,2560,1329,2560,1440,8-29-2022,8-4-26,110,depth_duration_stimuli/003083_2014-06-15_15-21-03_094959634447_rgbf000063-resize_1/003083_2014-06-15_15-21-03_094959634447_rgbf000063-resize_1-target.png,1000,4.1405,13,2988,993,feet,jsons/v1_VE1000_randls_18_rotated.json,555995,659369,29,Man
110,119263,DepthScenes,duration_manipulation_targetAtFixation,jsons/v1_VE1000_randls_18_rotated.json,http://54.235.29.9/FacialAge/BNav_EC2/DepthDuration/v2_depth_duration_MTurk/v2_DepthDuration_HTML.html#24,24,2560,1329,2560,1440,8-29-2022,8-4-26,111,depth_duration_stimuli/000486_2014-06-09_20-47-20_260595134347_rgbf000143-resize_2/000486_2014-06-09_20-47-20_260595134347_rgbf000143-resize_2-target.png,1000,4.8325,13,2737,1008,feet,jsons/v1_VE1000_randls_18_rotated.json,555995,659369,29,Man
111,119263,DepthScenes,duration_manipulation_targetAtFixation,jsons/v1_VE1000_randls_18_rotated.json,http://54.235.29.9/FacialAge/BNav_EC2/DepthDuration/v2_depth_duration_MTurk/v2_DepthDuration_HTML.html#24,24,2560,1329,2560,1440,8-29-2022,8-4-26,112,depth_duration_stimuli/000854_2014-06-09_19-43-13_260595134347_rgbf000066-resize_0/000854_2014-06-09_19-43-13_260595134347_rgbf000066-resize_0-target.png,1000,3.068,7,2264,1008,feet,jsons/v1_VE1000_randls_18_rotated.json,555995,659369,29,Man
112,119263,DepthScenes,duration_manipulation_targetAtFixation,jsons/v1_VE1000_randls_18_rotated.json,http://54.235.29.9/FacialAge/BNav_EC2/DepthDuration/v2_depth_duration_MTurk/v2_DepthDuration_HTML.html#24,24,2560,1329,2560,1440,8-29-2022,8-4-26,113,depth_duration_stimuli/000758_2014-06-08_22-05-08_260595134347_rgbf000085-resize_0/000758_2014-06-08_22-05-08_260595134347_rgbf000085-resize_0-target.png,1000,3.3810000000000002,9,2305,988,feet,jsons/v1_VE1000_randls_18_rotated.json,555995,659369,29,Man
113,119263,DepthScenes,duration_manipulation_targetAtFixation,jsons/v1_VE1000_randls_18_rotated.json,http://54.235.29.9/FacialAge/BNav_EC2/DepthDuration/v2_depth_duration_MTurk/v2_DepthDuration_HTML.html#24,24,2560,1329,2560,1440,8-29-2022,8-4-26,114,depth_duration_stimuli/003129_2014-05-12_10-48-10_094959634447_rgbf000100-resize_0/003129_2014-05-12_10-48-10_094959634447_rgbf000100-resize_0-target.png,1000,4.9305,11,2341,1008,feet,jsons/v1_VE1000_randls_18_rotated.json,555995,659369,29,Man
114,119263,DepthScenes,duration_manipulation_targetAtFixation,jsons/v1_VE1000_randls_18_rotated.json,http://54.235.29.9/FacialAge/BNav_EC2/DepthDuration/v2_depth_duration_MTurk/v2_DepthDuration_HTML.html#24,24,2560,1329,2560,1440,8-29-2022,8-4-26,115,depth_duration_stimuli/000414_2014-06-04_19-49-13_260595134347_rgbf000044-resize_0/000414_2014-06-04_19-49-13_260595134347_rgbf000044-resize_0-target.png,1000,4.329,12,2673,993,feet,jsons/v1_VE1000_randls_18_rotated.json,555995,659369,29,Man
115,119263,DepthScenes,duration_manipulation_targetAtFixation,jsons/v1_VE1000_randls_18_rotated.json,http://54.235.29.9/FacialAge/BNav_EC2/DepthDuration/v2_depth_duration_MTurk/v2_DepthDuration_HTML.html#24,24,2560,1329,2560,1440,8-29-2022,8-4-26,116,depth_duration_stimuli/002949_2014-06-26_15-57-42_094959634447_rgbf000079-resize_1/002949_2014-06-26_15-57-42_094959634447_rgbf000079-resize_1-target.png,1000,1.8915,5,2312,1008,feet,jsons/v1_VE1000_randls_18_rotated.json,555995,659369,29,Man
116,119263,DepthScenes,duration_manipulation_targetAtFixation,jsons/v1_VE1000_randls_18_rotated.json,http://54.235.29.9/FacialAge/BNav_EC2/DepthDuration/v2_depth_duration_MTurk/v2_DepthDuration_HTML.html#24,24,2560,1329,2560,1440,8-29-2022,8-4-26,117,depth_duration_stimuli/000522_2014-06-08_13-35-06_260595134347_rgbf000244-resize_1/000522_2014-06-08_13-35-06_260595134347_rgbf000244-resize_1-target.png,1000,2.3715,4,3060,993,feet,jsons/v1_VE1000_randls_18_rotated.json,555995,659369,29,Man
117,119263,DepthScenes,duration_manipulation_targetAtFixation,jsons/v1_VE1000_randls_18_rotated.json,http://54.235.29.9/FacialAge/BNav_EC2/DepthDuration/v2_depth_duration_MTurk/v2_DepthDuration_HTML.html#24,24,2560,1329,2560,1440,8-29-2022,8-4-26,118,depth_duration_stimuli/000457_2014-06-08_16-52-43_260595134347_rgbf000199-resize_1/000457_2014-06-08_16-52-43_260595134347_rgbf000199-resize_1-target.png,1000,3.6489999999999996,9,2313,1008,feet,jsons/v1_VE1000_randls_18_rotated.json,555995,659369,29,Man
118,119263,DepthScenes,duration_manipulation_targetAtFixation,jsons/v1_VE1000_randls_18_rotated.json,http://54.235.29.9/FacialAge/BNav_EC2/DepthDuration/v2_depth_duration_MTurk/v2_DepthDuration_HTML.html#24,24,2560,1329,2560,1440,8-29-2022,8-4-26,119,depth_duration_stimuli/000929_2014-06-09_16-33-19_260595134347_rgbf000139-resize_0/000929_2014-06-09_16-33-19_260595134347_rgbf000139-resize_0-target.png,1000,2.8680000000000003,8,2243,993,feet,jsons/v1_VE1000_randls_18_rotated.json,555995,659369,29,Man
119,119263,DepthScenes,duration_manipulation_targetAtFixation,jsons/v1_VE1000_randls_18_rotated.json,http://54.235.29.9/FacialAge/BNav_EC2/DepthDuration/v2_depth_duration_MTurk/v2_DepthDuration_HTML.html#24,24,2560,1329,2560,1440,8-29-2022,8-4-26,120,depth_duration_stimuli/000787_2014-06-08_22-33-53_260595134347_rgbf000175-resize_1/000787_2014-06-08_22-33-53_260595134347_rgbf000175-resize-original.jpg,1000,4.784,0,2335,1008,feet,jsons/v1_VE1000_randls_18_rotated.json,555995,659369,29,Man
120,119263,DepthScenes,duration_manipulation_targetAtFixation,jsons/v1_VE1000_randls_18_rotated.json,http://54.235.29.9/FacialAge/BNav_EC2/DepthDuration/v2_depth_duration_MTurk/v2_DepthDuration_HTML.html#24,24,2560,1329,2560,1440,8-29-2022,8-4-26,121,depth_duration_stimuli/002340_2014-06-28_20-05-46_260595134347_rgbf000113-resize_0/002340_2014-06-28_20-05-46_260595134347_rgbf000113-resize_0-target.png,1000,2.4735,10,3281,1008,feet,jsons/v1_VE1000_randls_18_rotated.json,555995,659369,29,Man
121,119263,DepthScenes,duration_manipulation_targetAtFixation,jsons/v1_VE1000_randls_18_rotated.json,http://54.235.29.9/FacialAge/BNav_EC2/DepthDuration/v2_depth_duration_MTurk/v2_DepthDuration_HTML.html#24,24,2560,1329,2560,1440,8-29-2022,8-4-26,122,depth_duration_stimuli/001016_2014-06-09_16-16-10_260595134347_rgbf000112-resize_5/001016_2014-06-09_16-16-10_260595134347_rgbf000112-resize_5-target.png,1000,1.6565,7,2464,1008,feet,jsons/v1_VE1000_randls_18_rotated.json,555995,659369,29,Man
122,119263,DepthScenes,duration_manipulation_targetAtFixation,jsons/v1_VE1000_randls_18_rotated.json,http://54.235.29.9/FacialAge/BNav_EC2/DepthDuration/v2_depth_duration_MTurk/v2_DepthDuration_HTML.html#24,24,2560,1329,2560,1440,8-29-2022,8-4-26,123,depth_duration_stimuli/002678_2014-06-13_16-15-32_094959634447_rgbf000151-resize_6/002678_2014-06-13_16-15-32_094959634447_rgbf000151-resize_6-target.png,1000,2.1830000000000003,8,2322,986,feet,jsons/v1_VE1000_randls_18_rotated.json,555995,659369,29,Man
123,119263,DepthScenes,duration_manipulation_targetAtFixation,jsons/v1_VE1000_randls_18_rotated.json,http://54.235.29.9/FacialAge/BNav_EC2/DepthDuration/v2_depth_duration_MTurk/v2_DepthDuration_HTML.html#24,24,2560,1329,2560,1440,8-29-2022,8-4-26,124,depth_duration_stimuli/000368_2014-06-09_15-53-01_260595134347_rgbf000155-resize_2/000368_2014-06-09_15-53-01_260595134347_rgbf000155-resize_2-target.png,1000,2.4859999999999998,7,2733,1008,feet,jsons/v1_VE1000_randls_18_rotated.json,555995,659369,29,Man
124,119263,DepthScenes,duration_manipulation_targetAtFixation,jsons/v1_VE1000_randls_18_rotated.json,http://54.235.29.9/FacialAge/BNav_EC2/DepthDuration/v2_depth_duration_MTurk/v2_DepthDuration_HTML.html#24,24,2560,1329,2560,1440,8-29-2022,8-4-26,125,depth_duration_stimuli/002199_2014-06-28_18-33-56_260595134347_rgbf000074-resize_0/002199_2014-06-28_18-33-56_260595134347_rgbf000074-resize_0-target.png,1000,1.996,4,2402,993,feet,jsons/v1_VE1000_randls_18_rotated.json,555995,659369,29,Man
125,119263,DepthScenes,duration_manipulation_targetAtFixation,jsons/v1_VE1000_randls_18_rotated.json,http://54.235.29.9/FacialAge/BNav_EC2/DepthDuration/v2_depth_duration_MTurk/v2_DepthDuration_HTML.html#24,24,2560,1329,2560,1440,8-29-2022,8-4-26,126,depth_duration_stimuli/001056_2014-06-08_18-46-44_260595134347_rgbf000068-resize_0/001056_2014-06-08_18-46-44_260595134347_rgbf000068-resize_0-target.png,1000,2.6625,7,2268,992,feet,jsons/v1_VE1000_randls_18_rotated.json,555995,659369,29,Man
126,119263,DepthScenes,duration_manipulation_targetAtFixation,jsons/v1_VE1000_randls_18_rotated.json,http://54.235.29.9/FacialAge/BNav_EC2/DepthDuration/v2_depth_duration_MTurk/v2_DepthDuration_HTML.html#24,24,2560,1329,2560,1440,8-29-2022,8-4-26,127,depth_duration_stimuli/003079_2014-06-15_15-18-20_094959634447_rgbf000152-resize_8/003079_2014-06-15_15-18-20_094959634447_rgbf000152-resize_8-target.png,1000,2.8775,9,2320,993,feet,jsons/v1_VE1000_randls_18_rotated.json,555995,659369,29,Man
127,119263,DepthScenes,duration_manipulation_targetAtFixation,jsons/v1_VE1000_randls_18_rotated.json,http://54.235.29.9/FacialAge/BNav_EC2/DepthDuration/v2_depth_duration_MTurk/v2_DepthDuration_HTML.html#24,24,2560,1329,2560,1440,8-29-2022,8-4-26,128,depth_duration_stimuli/000506_2014-06-08_23-21-00_260595134347_rgbf000070-resize_7/000506_2014-06-08_23-21-00_260595134347_rgbf000070-resize_7-target.png,1000,4.0585,10,2722,1008,feet,jsons/v1_VE1000_randls_18_rotated.json,555995,659369,29,Man
128,119263,DepthScenes,duration_manipulation_targetAtFixation,jsons/v1_VE1000_randls_18_rotated.json,http://54.235.29.9/FacialAge/BNav_EC2/DepthDuration/v2_depth_duration_MTurk/v2_DepthDuration_HTML.html#24,24,2560,1329,2560,1440,8-29-2022,8-4-26,129,depth_duration_stimuli/001032_2014-06-08_13-23-17_260595134347_rgbf000021-resize_3/001032_2014-06-08_13-23-17_260595134347_rgbf000021-resize_3-target.png,1000,3.2725,9,2388,1008,feet,jsons/v1_VE1000_randls_18_rotated.json,555995,659369,29,Man
129,119263,DepthScenes,duration_manipulation_targetAtFixation,jsons/v1_VE1000_randls_18_rotated.json,http://54.235.29.9/FacialAge/BNav_EC2/DepthDuration/v2_depth_duration_MTurk/v2_DepthDuration_HTML.html#24,24,2560,1329,2560,1440,8-29-2022,8-4-26,130,depth_duration_stimuli/001059_2014-06-08_21-53-27_260595134347_rgbf000061-resize_4/001059_2014-06-08_21-53-27_260595134347_rgbf000061-resize_4-target.png,1000,2.4185,7,2241,993,feet,jsons/v1_VE1000_randls_18_rotated.json,555995,659369,29,Man
130,119263,DepthScenes,duration_manipulation_targetAtFixation,jsons/v1_VE1000_randls_18_rotated.json,http://54.235.29.9/FacialAge/BNav_EC2/DepthDuration/v2_depth_duration_MTurk/v2_DepthDuration_HTML.html#24,24,2560,1329,2560,1440,8-29-2022,8-4-26,131,depth_duration_stimuli/000742_2014-06-08_18-48-09_260595134347_rgbf000164-resize_4/000742_2014-06-08_18-48-09_260595134347_rgbf000164-resize_4-target.png,1000,4.632,12,2374,1008,feet,jsons/v1_VE1000_randls_18_rotated.json,555995,659369,29,Man
131,119263,DepthScenes,duration_manipulation_targetAtFixation,jsons/v1_VE1000_randls_18_rotated.json,http://54.235.29.9/FacialAge/BNav_EC2/DepthDuration/v2_depth_duration_MTurk/v2_DepthDuration_HTML.html#24,24,2560,1329,2560,1440,8-29-2022,8-4-26,132,depth_duration_stimuli/001066_2014-06-08_22-03-20_260595134347_rgbf000066-resize_4/001066_2014-06-08_22-03-20_260595134347_rgbf000066-resize_4-target.png,1000,4.2330000000000005,14,2688,993,feet,jsons/v1_VE1000_randls_18_rotated.json,555995,659369,29,Man
132,119263,DepthScenes,duration_manipulation_targetAtFixation,jsons/v1_VE1000_randls_18_rotated.json,http://54.235.29.9/FacialAge/BNav_EC2/DepthDuration/v2_depth_duration_MTurk/v2_DepthDuration_HTML.html#24,24,2560,1329,2560,1440,8-29-2022,8-4-26,133,depth_duration_stimuli/000677_2014-06-08_23-10-32_260595134347_rgbf000158-resize_6/000677_2014-06-08_23-10-32_260595134347_rgbf000158-resize_6-target.png,1000,3.556,11,3290,993,feet,jsons/v1_VE1000_randls_18_rotated.json,555995,659369,29,Man
133,119263,DepthScenes,duration_manipulation_targetAtFixation,jsons/v1_VE1000_randls_18_rotated.json,http://54.235.29.9/FacialAge/BNav_EC2/DepthDuration/v2_depth_duration_MTurk/v2_DepthDuration_HTML.html#24,24,2560,1329,2560,1440,8-29-2022,8-4-26,134,depth_duration_stimuli/001029_2014-06-08_13-17-57_260595134347_rgbf000065-resize_1/001029_2014-06-08_13-17-57_260595134347_rgbf000065-resize_1-target.png,1000,3.0835,8,2969,993,feet,jsons/v1_VE1000_randls_18_rotated.json,555995,659369,29,Man
134,119263,DepthScenes,duration_manipulation_targetAtFixation,jsons/v1_VE1000_randls_18_rotated.json,http://54.235.29.9/FacialAge/BNav_EC2/DepthDuration/v2_depth_duration_MTurk/v2_DepthDuration_HTML.html#24,24,2560,1329,2560,1440,8-29-2022,8-4-26,135,depth_duration_stimuli/000375_2014-06-08_11-17-29_260595134347_rgbf000133-resize_2/000375_2014-06-08_11-17-29_260595134347_rgbf000133-resize-original.jpg,1000,4.718,0,2332,1008,feet,jsons/v1_VE1000_randls_18_rotated.json,555995,659369,29,Man
135,119263,DepthScenes,duration_manipulation_targetAtFixation,jsons/v1_VE1000_randls_18_rotated.json,http://54.235.29.9/FacialAge/BNav_EC2/DepthDuration/v2_depth_duration_MTurk/v2_DepthDuration_HTML.html#24,24,2560,1329,2560,1440,8-29-2022,8-4-26,136,depth_duration_stimuli/001132_2014-06-17_14-48-54_260595134347_rgbf000100-resize_2/001132_2014-06-17_14-48-54_260595134347_rgbf000100-resize_2-target.png,1000,3.753,12,2381,1000,feet,jsons/v1_VE1000_randls_18_rotated.json,555995,659369,29,Man
136,119263,DepthScenes,duration_manipulation_targetAtFixation,jsons/v1_VE1000_randls_18_rotated.json,http://54.235.29.9/FacialAge/BNav_EC2/DepthDuration/v2_depth_duration_MTurk/v2_DepthDuration_HTML.html#24,24,2560,1329,2560,1440,8-29-2022,8-4-26,137,depth_duration_stimuli/001133_2014-06-17_14-49-16_260595134347_rgbf000100-resize_0/001133_2014-06-17_14-49-16_260595134347_rgbf000100-resize_0-target.png,1000,4.2115,11,2481,991,feet,jsons/v1_VE1000_randls_18_rotated.json,555995,659369,29,Man
137,119263,DepthScenes,duration_manipulation_targetAtFixation,jsons/v1_VE1000_randls_18_rotated.json,http://54.235.29.9/FacialAge/BNav_EC2/DepthDuration/v2_depth_duration_MTurk/v2_DepthDuration_HTML.html#24,24,2560,1329,2560,1440,8-29-2022,8-4-26,138,depth_duration_stimuli/000635_2014-06-08_16-38-42_260595134347_rgbf000106-resize_1/000635_2014-06-08_16-38-42_260595134347_rgbf000106-resize_1-target.png,1000,2.074,9,3086,993,feet,jsons/v1_VE1000_randls_18_rotated.json,555995,659369,29,Man
138,119263,DepthScenes,duration_manipulation_targetAtFixation,jsons/v1_VE1000_randls_18_rotated.json,http://54.235.29.9/FacialAge/BNav_EC2/DepthDuration/v2_depth_duration_MTurk/v2_DepthDuration_HTML.html#24,24,2560,1329,2560,1440,8-29-2022,8-4-26,139,depth_duration_stimuli/002279_2014-06-28_18-55-32_260595134347_rgbf000040-resize_5/002279_2014-06-28_18-55-32_260595134347_rgbf000040-resize_5-target.png,1000,1.5043333333333,5,2357,993,feet,jsons/v1_VE1000_randls_18_rotated.json,555995,659369,29,Man
139,119263,DepthScenes,duration_manipulation_targetAtFixation,jsons/v1_VE1000_randls_18_rotated.json,http://54.235.29.9/FacialAge/BNav_EC2/DepthDuration/v2_depth_duration_MTurk/v2_DepthDuration_HTML.html#24,24,2560,1329,2560,1440,8-29-2022,8-4-26,140,depth_duration_stimuli/000734_2014-06-08_17-39-11_260595134347_rgbf000128-resize_2/000734_2014-06-08_17-39-11_260595134347_rgbf000128-resize_2-target.png,1000,4.098,8,2344,993,feet,jsons/v1_VE1000_randls_18_rotated.json,555995,659369,29,Man
140,119263,DepthScenes,duration_manipulation_targetAtFixation,jsons/v1_VE1000_randls_18_rotated.json,http://54.235.29.9/FacialAge/BNav_EC2/DepthDuration/v2_depth_duration_MTurk/v2_DepthDuration_HTML.html#24,24,2560,1329,2560,1440,8-29-2022,8-4-26,141,depth_duration_stimuli/000739_2014-06-08_18-45-58_260595134347_rgbf000068-resize_1/000739_2014-06-08_18-45-58_260595134347_rgbf000068-resize_1-target.png,1000,3.534,10,3054,993,feet,jsons/v1_VE1000_randls_18_rotated.json,555995,659369,29,Man
141,119263,DepthScenes,duration_manipulation_targetAtFixation,jsons/v1_VE1000_randls_18_rotated.json,http://54.235.29.9/FacialAge/BNav_EC2/DepthDuration/v2_depth_duration_MTurk/v2_DepthDuration_HTML.html#24,24,2560,1329,2560,1440,8-29-2022,8-4-26,142,depth_duration_stimuli/001052_2014-06-08_18-24-54_260595134347_rgbf000130-resize_1/001052_2014-06-08_18-24-54_260595134347_rgbf000130-resize_1-target.png,1000,4.1045,12,2804,1000,feet,jsons/v1_VE1000_randls_18_rotated.json,555995,659369,29,Man
142,119263,DepthScenes,duration_manipulation_targetAtFixation,jsons/v1_VE1000_randls_18_rotated.json,http://54.235.29.9/FacialAge/BNav_EC2/DepthDuration/v2_depth_duration_MTurk/v2_DepthDuration_HTML.html#24,24,2560,1329,2560,1440,8-29-2022,8-4-26,143,depth_duration_stimuli/002988_2014-06-15_12-24-20_094959634447_rgbf000150-resize_1/002988_2014-06-15_12-24-20_094959634447_rgbf000150-resize_1-target.png,1000,4.7669999999999995,13,2661,992,feet,jsons/v1_VE1000_randls_18_rotated.json,555995,659369,29,Man
143,119263,DepthScenes,duration_manipulation_targetAtFixation,jsons/v1_VE1000_randls_18_rotated.json,http://54.235.29.9/FacialAge/BNav_EC2/DepthDuration/v2_depth_duration_MTurk/v2_DepthDuration_HTML.html#24,24,2560,1329,2560,1440,8-29-2022,8-4-26,144,depth_duration_stimuli/002467_2014-06-28_20-38-07_260595134347_rgbf000026-resize_2/002467_2014-06-28_20-38-07_260595134347_rgbf000026-resize_2-target.png,1000,4.742,14,4302,1009,feet,jsons/v1_VE1000_randls_18_rotated.json,555995,659369,29,Man
144,119263,DepthScenes,duration_manipulation_targetAtFixation,jsons/v1_VE1000_randls_18_rotated.json,http://54.235.29.9/FacialAge/BNav_EC2/DepthDuration/v2_depth_duration_MTurk/v2_DepthDuration_HTML.html#24,24,2560,1329,2560,1440,8-29-2022,8-4-26,145,depth_duration_stimuli/002570_2014-06-24_13-59-54_094959634447_rgbf000059-resize_0/002570_2014-06-24_13-59-54_094959634447_rgbf000059-resize_0-target.png,1000,4.037,11,2705,993,feet,jsons/v1_VE1000_randls_18_rotated.json,555995,659369,29,Man
145,119263,DepthScenes,duration_manipulation_targetAtFixation,jsons/v1_VE1000_randls_18_rotated.json,http://54.235.29.9/FacialAge/BNav_EC2/DepthDuration/v2_depth_duration_MTurk/v2_DepthDuration_HTML.html#24,24,2560,1329,2560,1440,8-29-2022,8-4-26,146,depth_duration_stimuli/002444_2014-06-28_20-32-08_260595134347_rgbf000027-resize_0/002444_2014-06-28_20-32-08_260595134347_rgbf000027-resize_0-target.png,1000,4.388999999999999,12,2327,1008,feet,jsons/v1_VE1000_randls_18_rotated.json,555995,659369,29,Man
146,119263,DepthScenes,duration_manipulation_targetAtFixation,jsons/v1_VE1000_randls_18_rotated.json,http://54.235.29.9/FacialAge/BNav_EC2/DepthDuration/v2_depth_duration_MTurk/v2_DepthDuration_HTML.html#24,24,2560,1329,2560,1440,8-29-2022,8-4-26,147,depth_duration_stimuli/000436_2014-06-09_22-25-11_260595134347_rgbf000137-resize_1/000436_2014-06-09_22-25-11_260595134347_rgbf000137-resize_1-target.png,1000,4.0705,13,2372,993,feet,jsons/v1_VE1000_randls_18_rotated.json,555995,659369,29,Man
147,119263,DepthScenes,duration_manipulation_targetAtFixation,jsons/v1_VE1000_randls_18_rotated.json,http://54.235.29.9/FacialAge/BNav_EC2/DepthDuration/v2_depth_duration_MTurk/v2_DepthDuration_HTML.html#24,24,2560,1329,2560,1440,8-29-2022,8-4-26,148,depth_duration_stimuli/001235_2014-06-17_16-37-36_260595134347_rgbf000084-resize_4/001235_2014-06-17_16-37-36_260595134347_rgbf000084-resize_4-target.png,1000,3.6605,12,2383,993,feet,jsons/v1_VE1000_randls_18_rotated.json,555995,659369,29,Man
148,119263,DepthScenes,duration_manipulation_targetAtFixation,jsons/v1_VE1000_randls_18_rotated.json,http://54.235.29.9/FacialAge/BNav_EC2/DepthDuration/v2_depth_duration_MTurk/v2_DepthDuration_HTML.html#24,24,2560,1329,2560,1440,8-29-2022,8-4-26,149,depth_duration_stimuli/000788_2014-06-08_22-34-36_260595134347_rgbf000131-resize_1/000788_2014-06-08_22-34-36_260595134347_rgbf000131-resize_1-target.png,1000,3.359,10,2874,1008,feet,jsons/v1_VE1000_randls_18_rotated.json,555995,659369,29,Man
149,119263,DepthScenes,duration_manipulation_targetAtFixation,jsons/v1_VE1000_randls_18_rotated.json,http://54.235.29.9/FacialAge/BNav_EC2/DepthDuration/v2_depth_duration_MTurk/v2_DepthDuration_HTML.html#24,24,2560,1329,2560,1440,8-29-2022,8-4-26,150,depth_duration_stimuli/003490_2014-05-21_15-50-11_094959634447_rgbf000101-resize_3/003490_2014-05-21_15-50-11_094959634447_rgbf000101-resize_3-target.png,1000,3.6445,12,2567,993,feet,jsons/v1_VE1000_randls_18_rotated.json,555995,659369,29,Man
150,119263,DepthScenes,duration_manipulation_targetAtFixation,jsons/v1_VE1000_randls_18_rotated.json,http://54.235.29.9/FacialAge/BNav_EC2/DepthDuration/v2_depth_duration_MTurk/v2_DepthDuration_HTML.html#24,24,2560,1329,2560,1440,8-29-2022,8-4-26,151,depth_duration_stimuli/001175_2014-06-17_15-45-55_260595134347_rgbf000129-resize_4/001175_2014-06-17_15-45-55_260595134347_rgbf000129-resize_4-target.png,1000,4.255,14,3180,997,feet,jsons/v1_VE1000_randls_18_rotated.json,555995,659369,29,Man
151,119263,DepthScenes,duration_manipulation_targetAtFixation,jsons/v1_VE1000_randls_18_rotated.json,http://54.235.29.9/FacialAge/BNav_EC2/DepthDuration/v2_depth_duration_MTurk/v2_DepthDuration_HTML.html#24,24,2560,1329,2560,1440,8-29-2022,8-4-26,152,depth_duration_stimuli/000569_2014-06-09_22-51-47_260595134347_rgbf000141-resize_3/000569_2014-06-09_22-51-47_260595134347_rgbf000141-resize-original.jpg,1000,4.512,0,2300,989,feet,jsons/v1_VE1000_randls_18_rotated.json,555995,659369,29,Man
152,119263,DepthScenes,duration_manipulation_targetAtFixation,jsons/v1_VE1000_randls_18_rotated.json,http://54.235.29.9/FacialAge/BNav_EC2/DepthDuration/v2_depth_duration_MTurk/v2_DepthDuration_HTML.html#24,24,2560,1329,2560,1440,8-29-2022,8-4-26,153,depth_duration_stimuli/000549_2014-06-08_22-10-24_260595134347_rgbf000247-resize_3/000549_2014-06-08_22-10-24_260595134347_rgbf000247-resize_3-target.png,1000,1.841,5,2739,993,feet,jsons/v1_VE1000_randls_18_rotated.json,555995,659369,29,Man
153,119263,DepthScenes,duration_manipulation_targetAtFixation,jsons/v1_VE1000_randls_18_rotated.json,http://54.235.29.9/FacialAge/BNav_EC2/DepthDuration/v2_depth_duration_MTurk/v2_DepthDuration_HTML.html#24,24,2560,1329,2560,1440,8-29-2022,8-4-26,154,depth_duration_stimuli/001055_2014-06-08_18-45-35_260595134347_rgbf000111-resize_4/001055_2014-06-08_18-45-35_260595134347_rgbf000111-resize_4-target.png,1000,2.4290000000000003,8,2509,1008,feet,jsons/v1_VE1000_randls_18_rotated.json,555995,659369,29,Man
154,119263,DepthScenes,duration_manipulation_targetAtFixation,jsons/v1_VE1000_randls_18_rotated.json,http://54.235.29.9/FacialAge/BNav_EC2/DepthDuration/v2_depth_duration_MTurk/v2_DepthDuration_HTML.html#24,24,2560,1329,2560,1440,8-29-2022,8-4-26,155,depth_duration_stimuli/003081_2014-06-15_15-19-16_094959634447_rgbf000150-resize_1/003081_2014-06-15_15-19-16_094959634447_rgbf000150-resize_1-target.png,1000,3.9125,8,2528,985,feet,jsons/v1_VE1000_randls_18_rotated.json,555995,659369,29,Man
155,119263,DepthScenes,duration_manipulation_targetAtFixation,jsons/v1_VE1000_randls_18_rotated.json,http://54.235.29.9/FacialAge/BNav_EC2/DepthDuration/v2_depth_duration_MTurk/v2_DepthDuration_HTML.html#24,24,2560,1329,2560,1440,8-29-2022,8-4-26,156,depth_duration_stimuli/001417_2014-06-19_16-25-36_260595134347_rgbf000115-resize_5/001417_2014-06-19_16-25-36_260595134347_rgbf000115-resize_5-target.png,1000,4.6255,9,2285,993,feet,jsons/v1_VE1000_randls_18_rotated.json,555995,659369,29,Man
156,119263,DepthScenes,duration_manipulation_targetAtFixation,jsons/v1_VE1000_randls_18_rotated.json,http://54.235.29.9/FacialAge/BNav_EC2/DepthDuration/v2_depth_duration_MTurk/v2_DepthDuration_HTML.html#24,24,2560,1329,2560,1440,8-29-2022,8-4-26,157,depth_duration_stimuli/001094_2014-06-15_17-36-00_260595134347_rgbf000205-resize_0/001094_2014-06-15_17-36-00_260595134347_rgbf000205-resize_0-target.png,1000,4.2175,10,2980,1009,feet,jsons/v1_VE1000_randls_18_rotated.json,555995,659369,29,Man
157,119263,DepthScenes,duration_manipulation_targetAtFixation,jsons/v1_VE1000_randls_18_rotated.json,http://54.235.29.9/FacialAge/BNav_EC2/DepthDuration/v2_depth_duration_MTurk/v2_DepthDuration_HTML.html#24,24,2560,1329,2560,1440,8-29-2022,8-4-26,158,depth_duration_stimuli/000692_2014-06-08_13-09-42_260595134347_rgbf000199-resize_2/000692_2014-06-08_13-09-42_260595134347_rgbf000199-resize_2-target.png,1000,3.661,11,2276,993,feet,jsons/v1_VE1000_randls_18_rotated.json,555995,659369,29,Man
158,119263,DepthScenes,duration_manipulation_targetAtFixation,jsons/v1_VE1000_randls_18_rotated.json,http://54.235.29.9/FacialAge/BNav_EC2/DepthDuration/v2_depth_duration_MTurk/v2_DepthDuration_HTML.html#24,24,2560,1329,2560,1440,8-29-2022,8-4-26,159,depth_duration_stimuli/000927_2014-06-09_16-32-30_260595134347_rgbf000123-resize_3/000927_2014-06-09_16-32-30_260595134347_rgbf000123-resize_3-target.png,1000,2.6785,9,2303,1008,feet,jsons/v1_VE1000_randls_18_rotated.json,555995,659369,29,Man
159,119263,DepthScenes,duration_manipulation_targetAtFixation,jsons/v1_VE1000_randls_18_rotated.json,http://54.235.29.9/FacialAge/BNav_EC2/DepthDuration/v2_depth_duration_MTurk/v2_DepthDuration_HTML.html#24,24,2560,1329,2560,1440,8-29-2022,8-4-26,160,depth_duration_stimuli/001110_2014-06-15_17-25-28_260595134347_rgbf000150-resize_1/001110_2014-06-15_17-25-28_260595134347_rgbf000150-resize_1-target.png,1000,1.7115,8,2507,1008,feet,jsons/v1_VE1000_randls_18_rotated.json,555995,659369,29,Man
160,119263,DepthScenes,duration_manipulation_targetAtFixation,jsons/v1_VE1000_randls_18_rotated.json,http://54.235.29.9/FacialAge/BNav_EC2/DepthDuration/v2_depth_duration_MTurk/v2_DepthDuration_HTML.html#24,24,2560,1329,2560,1440,8-29-2022,8-4-26,161,depth_duration_stimuli/002657_2014-06-13_15-29-54_094959634447_rgbf000150-resize_1/002657_2014-06-13_15-29-54_094959634447_rgbf000150-resize_1-target.png,1000,4.919,10,2843,1008,feet,jsons/v1_VE1000_randls_18_rotated.json,555995,659369,29,Man
161,119263,DepthScenes,duration_manipulation_targetAtFixation,jsons/v1_VE1000_randls_18_rotated.json,http://54.235.29.9/FacialAge/BNav_EC2/DepthDuration/v2_depth_duration_MTurk/v2_DepthDuration_HTML.html#24,24,2560,1329,2560,1440,8-29-2022,8-4-26,162,depth_duration_stimuli/002375_2014-06-28_20-13-44_260595134347_rgbf000032-resize_1/002375_2014-06-28_20-13-44_260595134347_rgbf000032-resize_1-target.png,1000,4.0175,8,2407,1008,feet,jsons/v1_VE1000_randls_18_rotated.json,555995,659369,29,Man
162,119263,DepthScenes,duration_manipulation_targetAtFixation,jsons/v1_VE1000_randls_18_rotated.json,http://54.235.29.9/FacialAge/BNav_EC2/DepthDuration/v2_depth_duration_MTurk/v2_DepthDuration_HTML.html#24,24,2560,1329,2560,1440,8-29-2022,8-4-26,163,depth_duration_stimuli/003338_2014-05-20_11-01-23_094959634447_rgbf000051-resize_6/003338_2014-05-20_11-01-23_094959634447_rgbf000051-resize_6-target.png,1000,1.693,5,2400,992,feet,jsons/v1_VE1000_randls_18_rotated.json,555995,659369,29,Man
163,119263,DepthScenes,duration_manipulation_targetAtFixation,jsons/v1_VE1000_randls_18_rotated.json,http://54.235.29.9/FacialAge/BNav_EC2/DepthDuration/v2_depth_duration_MTurk/v2_DepthDuration_HTML.html#24,24,2560,1329,2560,1440,8-29-2022,8-4-26,164,depth_duration_stimuli/002509_2014-06-24_13-19-22_094959634447_rgbf000077-resize_0/002509_2014-06-24_13-19-22_094959634447_rgbf000077-resize_0-target.png,1000,1.3065,3,2344,1008,feet,jsons/v1_VE1000_randls_18_rotated.json,555995,659369,29,Man
