,subjID,experimentName,versionName,sequenceName,url,selected_row,windowWidth,windowHeight,screenWidth,screenHeight,startDate,startTime,trial,stimulus,duration,actual_depth,depth_estimate,trial_RT,log_sceneDuration,unitSelection,seq_filepath,experimentTime,totalTime,age,gender
0,119902,DepthScenes,duration_manipulation_targetAtFixation,jsons/v1_VE1000_randls_6_rotated.json,http://54.235.29.9/FacialAge/BNav_EC2/DepthDuration/v2_depth_duration_MTurk/v2_DepthDuration_HTML.html#118,118,1280,1024,1280,1024,8-22-2022,4-59-4,1,depth_duration_stimuli/001132_2014-06-17_14-48-54_260595134347_rgbf000100-resize_2/001132_2014-06-17_14-48-54_260595134347_rgbf000100-resize_2-target.png,1000,3.753,35,5241,999,meters,jsons/v1_VE1000_randls_6_rotated.json,802683,1300364,29,Man
1,119902,DepthScenes,duration_manipulation_targetAtFixation,jsons/v1_VE1000_randls_6_rotated.json,http://54.235.29.9/FacialAge/BNav_EC2/DepthDuration/v2_depth_duration_MTurk/v2_DepthDuration_HTML.html#118,118,1280,1024,1280,1024,8-22-2022,4-59-4,2,depth_duration_stimuli/001133_2014-06-17_14-49-16_260595134347_rgbf000100-resize_0/001133_2014-06-17_14-49-16_260595134347_rgbf000100-resize_0-target.png,1000,4.2115,38,5500,1000,meters,jsons/v1_VE1000_randls_6_rotated.json,802683,1300364,29,Man
2,119902,DepthScenes,duration_manipulation_targetAtFixation,jsons/v1_VE1000_randls_6_rotated.json,http://54.235.29.9/FacialAge/BNav_EC2/DepthDuration/v2_depth_duration_MTurk/v2_DepthDuration_HTML.html#118,118,1280,1024,1280,1024,8-22-2022,4-59-4,3,depth_duration_stimuli/002949_2014-06-26_15-57-42_094959634447_rgbf000079-resize_1/002949_2014-06-26_15-57-42_094959634447_rgbf000079-resize_1-target.png,1000,1.8915,25,5370,1000,meters,jsons/v1_VE1000_randls_6_rotated.json,802683,1300364,29,Man
3,119902,DepthScenes,duration_manipulation_targetAtFixation,jsons/v1_VE1000_randls_6_rotated.json,http://54.235.29.9/FacialAge/BNav_EC2/DepthDuration/v2_depth_duration_MTurk/v2_DepthDuration_HTML.html#118,118,1280,1024,1280,1024,8-22-2022,4-59-4,4,depth_duration_stimuli/000522_2014-06-08_13-35-06_260595134347_rgbf000244-resize_1/000522_2014-06-08_13-35-06_260595134347_rgbf000244-resize_1-target.png,1000,2.3715,20,3824,999,meters,jsons/v1_VE1000_randls_6_rotated.json,802683,1300364,29,Man
4,119902,DepthScenes,duration_manipulation_targetAtFixation,jsons/v1_VE1000_randls_6_rotated.json,http://54.235.29.9/FacialAge/BNav_EC2/DepthDuration/v2_depth_duration_MTurk/v2_DepthDuration_HTML.html#118,118,1280,1024,1280,1024,8-22-2022,4-59-4,5,depth_duration_stimuli/003083_2014-06-15_15-21-03_094959634447_rgbf000063-resize_1/003083_2014-06-15_15-21-03_094959634447_rgbf000063-resize_1-target.png,1000,4.1405,35,5115,999,meters,jsons/v1_VE1000_randls_6_rotated.json,802683,1300364,29,Man
5,119902,DepthScenes,duration_manipulation_targetAtFixation,jsons/v1_VE1000_randls_6_rotated.json,http://54.235.29.9/FacialAge/BNav_EC2/DepthDuration/v2_depth_duration_MTurk/v2_DepthDuration_HTML.html#118,118,1280,1024,1280,1024,8-22-2022,4-59-4,6,depth_duration_stimuli/000486_2014-06-09_20-47-20_260595134347_rgbf000143-resize_2/000486_2014-06-09_20-47-20_260595134347_rgbf000143-resize_2-target.png,1000,4.8325,30,4164,1000,meters,jsons/v1_VE1000_randls_6_rotated.json,802683,1300364,29,Man
6,119902,DepthScenes,duration_manipulation_targetAtFixation,jsons/v1_VE1000_randls_6_rotated.json,http://54.235.29.9/FacialAge/BNav_EC2/DepthDuration/v2_depth_duration_MTurk/v2_DepthDuration_HTML.html#118,118,1280,1024,1280,1024,8-22-2022,4-59-4,7,depth_duration_stimuli/003587_2014-05-23_16-48-02_094959634447_rgbf002384-resize_2/003587_2014-05-23_16-48-02_094959634447_rgbf002384-resize_2-target.png,1000,1.357,20,5146,998,meters,jsons/v1_VE1000_randls_6_rotated.json,802683,1300364,29,Man
7,119902,DepthScenes,duration_manipulation_targetAtFixation,jsons/v1_VE1000_randls_6_rotated.json,http://54.235.29.9/FacialAge/BNav_EC2/DepthDuration/v2_depth_duration_MTurk/v2_DepthDuration_HTML.html#118,118,1280,1024,1280,1024,8-22-2022,4-59-4,8,depth_duration_stimuli/001167_2014-06-17_15-38-07_260595134347_rgbf000108-resize_0/001167_2014-06-17_15-38-07_260595134347_rgbf000108-resize_0-target.png,1000,1.8505,22,3681,1000,meters,jsons/v1_VE1000_randls_6_rotated.json,802683,1300364,29,Man
8,119902,DepthScenes,duration_manipulation_targetAtFixation,jsons/v1_VE1000_randls_6_rotated.json,http://54.235.29.9/FacialAge/BNav_EC2/DepthDuration/v2_depth_duration_MTurk/v2_DepthDuration_HTML.html#118,118,1280,1024,1280,1024,8-22-2022,4-59-4,9,depth_duration_stimuli/001516_2014-06-20_16-25-09_260595134347_rgbf000076-resize_2/001516_2014-06-20_16-25-09_260595134347_rgbf000076-resize_2-target.png,1000,1.7445,29,5195,999,meters,jsons/v1_VE1000_randls_6_rotated.json,802683,1300364,29,Man
9,119902,DepthScenes,duration_manipulation_targetAtFixation,jsons/v1_VE1000_randls_6_rotated.json,http://54.235.29.9/FacialAge/BNav_EC2/DepthDuration/v2_depth_duration_MTurk/v2_DepthDuration_HTML.html#118,118,1280,1024,1280,1024,8-22-2022,4-59-4,10,depth_duration_stimuli/002118_2014-06-25_20-32-08_260595134347_rgbf000078-resize_1/002118_2014-06-25_20-32-08_260595134347_rgbf000078-resize_1-target.png,1000,2.6460000000000004,30,3675,1000,meters,jsons/v1_VE1000_randls_6_rotated.json,802683,1300364,29,Man
10,119902,DepthScenes,duration_manipulation_targetAtFixation,jsons/v1_VE1000_randls_6_rotated.json,http://54.235.29.9/FacialAge/BNav_EC2/DepthDuration/v2_depth_duration_MTurk/v2_DepthDuration_HTML.html#118,118,1280,1024,1280,1024,8-22-2022,4-59-4,11,depth_duration_stimuli/002340_2014-06-28_20-05-46_260595134347_rgbf000113-resize_0/002340_2014-06-28_20-05-46_260595134347_rgbf000113-resize_0-target.png,1000,2.4735,35,4609,997,meters,jsons/v1_VE1000_randls_6_rotated.json,802683,1300364,29,Man
11,119902,DepthScenes,duration_manipulation_targetAtFixation,jsons/v1_VE1000_randls_6_rotated.json,http://54.235.29.9/FacialAge/BNav_EC2/DepthDuration/v2_depth_duration_MTurk/v2_DepthDuration_HTML.html#118,118,1280,1024,1280,1024,8-22-2022,4-59-4,12,depth_duration_stimuli/001016_2014-06-09_16-16-10_260595134347_rgbf000112-resize_5/001016_2014-06-09_16-16-10_260595134347_rgbf000112-resize_5-target.png,1000,1.6565,30,4715,1000,meters,jsons/v1_VE1000_randls_6_rotated.json,802683,1300364,29,Man
12,119902,DepthScenes,duration_manipulation_targetAtFixation,jsons/v1_VE1000_randls_6_rotated.json,http://54.235.29.9/FacialAge/BNav_EC2/DepthDuration/v2_depth_duration_MTurk/v2_DepthDuration_HTML.html#118,118,1280,1024,1280,1024,8-22-2022,4-59-4,13,depth_duration_stimuli/003228_2014-05-14_13-42-35_094959634447_rgbf000101-resize_1/003228_2014-05-14_13-42-35_094959634447_rgbf000101-resize_1-target.png,1000,1.9680000000000002,25,4194,999,meters,jsons/v1_VE1000_randls_6_rotated.json,802683,1300364,29,Man
13,119902,DepthScenes,duration_manipulation_targetAtFixation,jsons/v1_VE1000_randls_6_rotated.json,http://54.235.29.9/FacialAge/BNav_EC2/DepthDuration/v2_depth_duration_MTurk/v2_DepthDuration_HTML.html#118,118,1280,1024,1280,1024,8-22-2022,4-59-4,14,depth_duration_stimuli/002600_2014-06-24_14-27-04_094959634447_rgbf000074-resize_2/002600_2014-06-24_14-27-04_094959634447_rgbf000074-resize_2-target.png,1000,2.7575,28,4054,1001,meters,jsons/v1_VE1000_randls_6_rotated.json,802683,1300364,29,Man
14,119902,DepthScenes,duration_manipulation_targetAtFixation,jsons/v1_VE1000_randls_6_rotated.json,http://54.235.29.9/FacialAge/BNav_EC2/DepthDuration/v2_depth_duration_MTurk/v2_DepthDuration_HTML.html#118,118,1280,1024,1280,1024,8-22-2022,4-59-4,15,depth_duration_stimuli/000854_2014-06-09_19-43-13_260595134347_rgbf000066-resize_0/000854_2014-06-09_19-43-13_260595134347_rgbf000066-resize_0-target.png,1000,3.068,32,5584,1001,meters,jsons/v1_VE1000_randls_6_rotated.json,802683,1300364,29,Man
15,119902,DepthScenes,duration_manipulation_targetAtFixation,jsons/v1_VE1000_randls_6_rotated.json,http://54.235.29.9/FacialAge/BNav_EC2/DepthDuration/v2_depth_duration_MTurk/v2_DepthDuration_HTML.html#118,118,1280,1024,1280,1024,8-22-2022,4-59-4,16,depth_duration_stimuli/000758_2014-06-08_22-05-08_260595134347_rgbf000085-resize_0/000758_2014-06-08_22-05-08_260595134347_rgbf000085-resize_0-target.png,1000,3.3810000000000002,20,4179,1000,meters,jsons/v1_VE1000_randls_6_rotated.json,802683,1300364,29,Man
16,119902,DepthScenes,duration_manipulation_targetAtFixation,jsons/v1_VE1000_randls_6_rotated.json,http://54.235.29.9/FacialAge/BNav_EC2/DepthDuration/v2_depth_duration_MTurk/v2_DepthDuration_HTML.html#118,118,1280,1024,1280,1024,8-22-2022,4-59-4,17,depth_duration_stimuli/001650_2014-06-20_12-09-00_260595134347_rgbf000087-resize_3/001650_2014-06-20_12-09-00_260595134347_rgbf000087-resize_3-target.png,1000,1.9505,17,4941,999,meters,jsons/v1_VE1000_randls_6_rotated.json,802683,1300364,29,Man
17,119902,DepthScenes,duration_manipulation_targetAtFixation,jsons/v1_VE1000_randls_6_rotated.json,http://54.235.29.9/FacialAge/BNav_EC2/DepthDuration/v2_depth_duration_MTurk/v2_DepthDuration_HTML.html#118,118,1280,1024,1280,1024,8-22-2022,4-59-4,18,depth_duration_stimuli/000682_2014-06-08_23-14-58_260595134347_rgbf000041-resize_5/000682_2014-06-08_23-14-58_260595134347_rgbf000041-resize_5-target.png,1000,2.7239999999999998,25,5786,1000,meters,jsons/v1_VE1000_randls_6_rotated.json,802683,1300364,29,Man
18,119902,DepthScenes,duration_manipulation_targetAtFixation,jsons/v1_VE1000_randls_6_rotated.json,http://54.235.29.9/FacialAge/BNav_EC2/DepthDuration/v2_depth_duration_MTurk/v2_DepthDuration_HTML.html#118,118,1280,1024,1280,1024,8-22-2022,4-59-4,19,depth_duration_stimuli/001498_2014-06-19_17-45-14_260595134347_rgbf000129-resize_4/001498_2014-06-19_17-45-14_260595134347_rgbf000129-resize-original.jpg,1000,1.4075,0,4351,1000,meters,jsons/v1_VE1000_randls_6_rotated.json,802683,1300364,29,Man
19,119902,DepthScenes,duration_manipulation_targetAtFixation,jsons/v1_VE1000_randls_6_rotated.json,http://54.235.29.9/FacialAge/BNav_EC2/DepthDuration/v2_depth_duration_MTurk/v2_DepthDuration_HTML.html#118,118,1280,1024,1280,1024,8-22-2022,4-59-4,20,depth_duration_stimuli/001815_2014-06-26_20-52-55_260595134347_rgbf000020-resize_0/001815_2014-06-26_20-52-55_260595134347_rgbf000020-resize_0-target.png,1000,3.3865,30,4804,1001,meters,jsons/v1_VE1000_randls_6_rotated.json,802683,1300364,29,Man
20,119902,DepthScenes,duration_manipulation_targetAtFixation,jsons/v1_VE1000_randls_6_rotated.json,http://54.235.29.9/FacialAge/BNav_EC2/DepthDuration/v2_depth_duration_MTurk/v2_DepthDuration_HTML.html#118,118,1280,1024,1280,1024,8-22-2022,4-59-4,21,depth_duration_stimuli/001808_2014-06-26_20-50-58_260595134347_rgbf000029-resize_1/001808_2014-06-26_20-50-58_260595134347_rgbf000029-resize_1-target.png,1000,4.249,35,3740,1002,meters,jsons/v1_VE1000_randls_6_rotated.json,802683,1300364,29,Man
21,119902,DepthScenes,duration_manipulation_targetAtFixation,jsons/v1_VE1000_randls_6_rotated.json,http://54.235.29.9/FacialAge/BNav_EC2/DepthDuration/v2_depth_duration_MTurk/v2_DepthDuration_HTML.html#118,118,1280,1024,1280,1024,8-22-2022,4-59-4,22,depth_duration_stimuli/000556_2014-06-09_22-42-56_260595134347_rgbf000214-resize_1/000556_2014-06-09_22-42-56_260595134347_rgbf000214-resize_1-target.png,1000,4.8415,25,4325,1001,meters,jsons/v1_VE1000_randls_6_rotated.json,802683,1300364,29,Man
22,119902,DepthScenes,duration_manipulation_targetAtFixation,jsons/v1_VE1000_randls_6_rotated.json,http://54.235.29.9/FacialAge/BNav_EC2/DepthDuration/v2_depth_duration_MTurk/v2_DepthDuration_HTML.html#118,118,1280,1024,1280,1024,8-22-2022,4-59-4,23,depth_duration_stimuli/001158_2014-06-17_15-32-16_260595134347_rgbf000138-resize_2/001158_2014-06-17_15-32-16_260595134347_rgbf000138-resize_2-target.png,1000,4.5315,35,3546,998,meters,jsons/v1_VE1000_randls_6_rotated.json,802683,1300364,29,Man
23,119902,DepthScenes,duration_manipulation_targetAtFixation,jsons/v1_VE1000_randls_6_rotated.json,http://54.235.29.9/FacialAge/BNav_EC2/DepthDuration/v2_depth_duration_MTurk/v2_DepthDuration_HTML.html#118,118,1280,1024,1280,1024,8-22-2022,4-59-4,24,depth_duration_stimuli/002444_2014-06-28_20-32-08_260595134347_rgbf000027-resize_0/002444_2014-06-28_20-32-08_260595134347_rgbf000027-resize_0-target.png,1000,4.388999999999999,30,3771,1000,meters,jsons/v1_VE1000_randls_6_rotated.json,802683,1300364,29,Man
24,119902,DepthScenes,duration_manipulation_targetAtFixation,jsons/v1_VE1000_randls_6_rotated.json,http://54.235.29.9/FacialAge/BNav_EC2/DepthDuration/v2_depth_duration_MTurk/v2_DepthDuration_HTML.html#118,118,1280,1024,1280,1024,8-22-2022,4-59-4,25,depth_duration_stimuli/000436_2014-06-09_22-25-11_260595134347_rgbf000137-resize_1/000436_2014-06-09_22-25-11_260595134347_rgbf000137-resize_1-target.png,1000,4.0705,38,3644,1000,meters,jsons/v1_VE1000_randls_6_rotated.json,802683,1300364,29,Man
25,119902,DepthScenes,duration_manipulation_targetAtFixation,jsons/v1_VE1000_randls_6_rotated.json,http://54.235.29.9/FacialAge/BNav_EC2/DepthDuration/v2_depth_duration_MTurk/v2_DepthDuration_HTML.html#118,118,1280,1024,1280,1024,8-22-2022,4-59-4,26,depth_duration_stimuli/002199_2014-06-28_18-33-56_260595134347_rgbf000074-resize_0/002199_2014-06-28_18-33-56_260595134347_rgbf000074-resize_0-target.png,1000,1.996,20,3868,1000,meters,jsons/v1_VE1000_randls_6_rotated.json,802683,1300364,29,Man
26,119902,DepthScenes,duration_manipulation_targetAtFixation,jsons/v1_VE1000_randls_6_rotated.json,http://54.235.29.9/FacialAge/BNav_EC2/DepthDuration/v2_depth_duration_MTurk/v2_DepthDuration_HTML.html#118,118,1280,1024,1280,1024,8-22-2022,4-59-4,27,depth_duration_stimuli/001056_2014-06-08_18-46-44_260595134347_rgbf000068-resize_0/001056_2014-06-08_18-46-44_260595134347_rgbf000068-resize_0-target.png,1000,2.6625,39,3919,999,meters,jsons/v1_VE1000_randls_6_rotated.json,802683,1300364,29,Man
27,119902,DepthScenes,duration_manipulation_targetAtFixation,jsons/v1_VE1000_randls_6_rotated.json,http://54.235.29.9/FacialAge/BNav_EC2/DepthDuration/v2_depth_duration_MTurk/v2_DepthDuration_HTML.html#118,118,1280,1024,1280,1024,8-22-2022,4-59-4,28,depth_duration_stimuli/000742_2014-06-08_18-48-09_260595134347_rgbf000164-resize_4/000742_2014-06-08_18-48-09_260595134347_rgbf000164-resize_4-target.png,1000,4.632,35,5691,1000,meters,jsons/v1_VE1000_randls_6_rotated.json,802683,1300364,29,Man
28,119902,DepthScenes,duration_manipulation_targetAtFixation,jsons/v1_VE1000_randls_6_rotated.json,http://54.235.29.9/FacialAge/BNav_EC2/DepthDuration/v2_depth_duration_MTurk/v2_DepthDuration_HTML.html#118,118,1280,1024,1280,1024,8-22-2022,4-59-4,29,depth_duration_stimuli/001066_2014-06-08_22-03-20_260595134347_rgbf000066-resize_4/001066_2014-06-08_22-03-20_260595134347_rgbf000066-resize_4-target.png,1000,4.2330000000000005,30,4122,999,meters,jsons/v1_VE1000_randls_6_rotated.json,802683,1300364,29,Man
29,119902,DepthScenes,duration_manipulation_targetAtFixation,jsons/v1_VE1000_randls_6_rotated.json,http://54.235.29.9/FacialAge/BNav_EC2/DepthDuration/v2_depth_duration_MTurk/v2_DepthDuration_HTML.html#118,118,1280,1024,1280,1024,8-22-2022,4-59-4,30,depth_duration_stimuli/002072_2014-06-24_21-48-06_260595134347_rgbf000115-resize_0/002072_2014-06-24_21-48-06_260595134347_rgbf000115-resize-original.jpg,1000,4.702,0,3640,989,meters,jsons/v1_VE1000_randls_6_rotated.json,802683,1300364,29,Man
30,119902,DepthScenes,duration_manipulation_targetAtFixation,jsons/v1_VE1000_randls_6_rotated.json,http://54.235.29.9/FacialAge/BNav_EC2/DepthDuration/v2_depth_duration_MTurk/v2_DepthDuration_HTML.html#118,118,1280,1024,1280,1024,8-22-2022,4-59-4,31,depth_duration_stimuli/001032_2014-06-08_13-23-17_260595134347_rgbf000021-resize_3/001032_2014-06-08_13-23-17_260595134347_rgbf000021-resize_3-target.png,1000,3.2725,28,4195,1000,meters,jsons/v1_VE1000_randls_6_rotated.json,802683,1300364,29,Man
31,119902,DepthScenes,duration_manipulation_targetAtFixation,jsons/v1_VE1000_randls_6_rotated.json,http://54.235.29.9/FacialAge/BNav_EC2/DepthDuration/v2_depth_duration_MTurk/v2_DepthDuration_HTML.html#118,118,1280,1024,1280,1024,8-22-2022,4-59-4,32,depth_duration_stimuli/001059_2014-06-08_21-53-27_260595134347_rgbf000061-resize_4/001059_2014-06-08_21-53-27_260595134347_rgbf000061-resize_4-target.png,1000,2.4185,30,4881,1000,meters,jsons/v1_VE1000_randls_6_rotated.json,802683,1300364,29,Man
32,119902,DepthScenes,duration_manipulation_targetAtFixation,jsons/v1_VE1000_randls_6_rotated.json,http://54.235.29.9/FacialAge/BNav_EC2/DepthDuration/v2_depth_duration_MTurk/v2_DepthDuration_HTML.html#118,118,1280,1024,1280,1024,8-22-2022,4-59-4,33,depth_duration_stimuli/000191_2014-05-12_17-07-38_260595134347_rgbf000199-resize_0/000191_2014-05-12_17-07-38_260595134347_rgbf000199-resize_0-target.png,1000,3.7995,32,4222,1001,meters,jsons/v1_VE1000_randls_6_rotated.json,802683,1300364,29,Man
33,119902,DepthScenes,duration_manipulation_targetAtFixation,jsons/v1_VE1000_randls_6_rotated.json,http://54.235.29.9/FacialAge/BNav_EC2/DepthDuration/v2_depth_duration_MTurk/v2_DepthDuration_HTML.html#118,118,1280,1024,1280,1024,8-22-2022,4-59-4,34,depth_duration_stimuli/000493_2014-06-09_21-01-18_260595134347_rgbf000196-resize_3/000493_2014-06-09_21-01-18_260595134347_rgbf000196-resize_3-target.png,1000,3.44,28,4217,1000,meters,jsons/v1_VE1000_randls_6_rotated.json,802683,1300364,29,Man
34,119902,DepthScenes,duration_manipulation_targetAtFixation,jsons/v1_VE1000_randls_6_rotated.json,http://54.235.29.9/FacialAge/BNav_EC2/DepthDuration/v2_depth_duration_MTurk/v2_DepthDuration_HTML.html#118,118,1280,1024,1280,1024,8-22-2022,4-59-4,35,depth_duration_stimuli/001447_2014-06-19_17-00-32_260595134347_rgbf000082-resize_5/001447_2014-06-19_17-00-32_260595134347_rgbf000082-resize_5-target.png,1000,4.13775,30,4187,999,meters,jsons/v1_VE1000_randls_6_rotated.json,802683,1300364,29,Man
35,119902,DepthScenes,duration_manipulation_targetAtFixation,jsons/v1_VE1000_randls_6_rotated.json,http://54.235.29.9/FacialAge/BNav_EC2/DepthDuration/v2_depth_duration_MTurk/v2_DepthDuration_HTML.html#118,118,1280,1024,1280,1024,8-22-2022,4-59-4,36,depth_duration_stimuli/000447_2014-06-08_16-15-46_260595134347_rgbf000130-resize_1/000447_2014-06-08_16-15-46_260595134347_rgbf000130-resize_1-target.png,1000,4.479,29,3874,1000,meters,jsons/v1_VE1000_randls_6_rotated.json,802683,1300364,29,Man
36,119902,DepthScenes,duration_manipulation_targetAtFixation,jsons/v1_VE1000_randls_6_rotated.json,http://54.235.29.9/FacialAge/BNav_EC2/DepthDuration/v2_depth_duration_MTurk/v2_DepthDuration_HTML.html#118,118,1280,1024,1280,1024,8-22-2022,4-59-4,37,depth_duration_stimuli/002953_2014-06-08_17-32-18_094959634447_rgbf000059-resize_5/002953_2014-06-08_17-32-18_094959634447_rgbf000059-resize_5-target.png,1000,1.551,20,3749,1001,meters,jsons/v1_VE1000_randls_6_rotated.json,802683,1300364,29,Man
37,119902,DepthScenes,duration_manipulation_targetAtFixation,jsons/v1_VE1000_randls_6_rotated.json,http://54.235.29.9/FacialAge/BNav_EC2/DepthDuration/v2_depth_duration_MTurk/v2_DepthDuration_HTML.html#118,118,1280,1024,1280,1024,8-22-2022,4-59-4,38,depth_duration_stimuli/000878_2014-06-08_22-52-45_260595134347_rgbf000045-resize_2/000878_2014-06-08_22-52-45_260595134347_rgbf000045-resize_2-target.png,1000,2.092,25,5059,1000,meters,jsons/v1_VE1000_randls_6_rotated.json,802683,1300364,29,Man
38,119902,DepthScenes,duration_manipulation_targetAtFixation,jsons/v1_VE1000_randls_6_rotated.json,http://54.235.29.9/FacialAge/BNav_EC2/DepthDuration/v2_depth_duration_MTurk/v2_DepthDuration_HTML.html#118,118,1280,1024,1280,1024,8-22-2022,4-59-4,39,depth_duration_stimuli/000866_2014-06-09_20-45-42_260595134347_rgbf000139-resize_1/000866_2014-06-09_20-45-42_260595134347_rgbf000139-resize_1-target.png,1000,3.2155,28,4841,1001,meters,jsons/v1_VE1000_randls_6_rotated.json,802683,1300364,29,Man
39,119902,DepthScenes,duration_manipulation_targetAtFixation,jsons/v1_VE1000_randls_6_rotated.json,http://54.235.29.9/FacialAge/BNav_EC2/DepthDuration/v2_depth_duration_MTurk/v2_DepthDuration_HTML.html#118,118,1280,1024,1280,1024,8-22-2022,4-59-4,40,depth_duration_stimuli/002989_2014-06-15_12-25-03_094959634447_rgbf000150-resize_3/002989_2014-06-15_12-25-03_094959634447_rgbf000150-resize_3-target.png,1000,4.1975,32,3577,998,meters,jsons/v1_VE1000_randls_6_rotated.json,802683,1300364,29,Man
40,119902,DepthScenes,duration_manipulation_targetAtFixation,jsons/v1_VE1000_randls_6_rotated.json,http://54.235.29.9/FacialAge/BNav_EC2/DepthDuration/v2_depth_duration_MTurk/v2_DepthDuration_HTML.html#118,118,1280,1024,1280,1024,8-22-2022,4-59-4,41,depth_duration_stimuli/002545_2014-06-24_13-38-53_094959634447_rgbf000080-resize_4/002545_2014-06-24_13-38-53_094959634447_rgbf000080-resize_4-target.png,1000,1.9205,25,4031,1000,meters,jsons/v1_VE1000_randls_6_rotated.json,802683,1300364,29,Man
41,119902,DepthScenes,duration_manipulation_targetAtFixation,jsons/v1_VE1000_randls_6_rotated.json,http://54.235.29.9/FacialAge/BNav_EC2/DepthDuration/v2_depth_duration_MTurk/v2_DepthDuration_HTML.html#118,118,1280,1024,1280,1024,8-22-2022,4-59-4,42,depth_duration_stimuli/001092_2014-06-15_17-34-58_260595134347_rgbf000171-resize_3/001092_2014-06-15_17-34-58_260595134347_rgbf000171-resize_3-target.png,1000,2.6935,28,3624,1000,meters,jsons/v1_VE1000_randls_6_rotated.json,802683,1300364,29,Man
42,119902,DepthScenes,duration_manipulation_targetAtFixation,jsons/v1_VE1000_randls_6_rotated.json,http://54.235.29.9/FacialAge/BNav_EC2/DepthDuration/v2_depth_duration_MTurk/v2_DepthDuration_HTML.html#118,118,1280,1024,1280,1024,8-22-2022,4-59-4,43,depth_duration_stimuli/000749_2014-06-08_21-55-06_260595134347_rgbf000070-resize_2/000749_2014-06-08_21-55-06_260595134347_rgbf000070-resize_2-target.png,1000,2.331,30,16387,1000,meters,jsons/v1_VE1000_randls_6_rotated.json,802683,1300364,29,Man
43,119902,DepthScenes,duration_manipulation_targetAtFixation,jsons/v1_VE1000_randls_6_rotated.json,http://54.235.29.9/FacialAge/BNav_EC2/DepthDuration/v2_depth_duration_MTurk/v2_DepthDuration_HTML.html#118,118,1280,1024,1280,1024,8-22-2022,4-59-4,44,depth_duration_stimuli/002788_2014-06-22_19-36-03_094959634447_rgbf000088-resize_2/002788_2014-06-22_19-36-03_094959634447_rgbf000088-resize_2-target.png,1000,1.6465,28,3772,1001,meters,jsons/v1_VE1000_randls_6_rotated.json,802683,1300364,29,Man
44,119902,DepthScenes,duration_manipulation_targetAtFixation,jsons/v1_VE1000_randls_6_rotated.json,http://54.235.29.9/FacialAge/BNav_EC2/DepthDuration/v2_depth_duration_MTurk/v2_DepthDuration_HTML.html#118,118,1280,1024,1280,1024,8-22-2022,4-59-4,45,depth_duration_stimuli/000502_2014-06-08_23-02-32_260595134347_rgbf000063-resize_4/000502_2014-06-08_23-02-32_260595134347_rgbf000063-resize_4-target.png,1000,2.431,27,4163,1000,meters,jsons/v1_VE1000_randls_6_rotated.json,802683,1300364,29,Man
45,119902,DepthScenes,duration_manipulation_targetAtFixation,jsons/v1_VE1000_randls_6_rotated.json,http://54.235.29.9/FacialAge/BNav_EC2/DepthDuration/v2_depth_duration_MTurk/v2_DepthDuration_HTML.html#118,118,1280,1024,1280,1024,8-22-2022,4-59-4,46,depth_duration_stimuli/001199_2014-06-17_16-03-48_260595134347_rgbf000077-resize_0/001199_2014-06-17_16-03-48_260595134347_rgbf000077-resize_0-target.png,1000,3.4375,30,3555,1000,meters,jsons/v1_VE1000_randls_6_rotated.json,802683,1300364,29,Man
46,119902,DepthScenes,duration_manipulation_targetAtFixation,jsons/v1_VE1000_randls_6_rotated.json,http://54.235.29.9/FacialAge/BNav_EC2/DepthDuration/v2_depth_duration_MTurk/v2_DepthDuration_HTML.html#118,118,1280,1024,1280,1024,8-22-2022,4-59-4,47,depth_duration_stimuli/001094_2014-06-15_17-36-00_260595134347_rgbf000205-resize_0/001094_2014-06-15_17-36-00_260595134347_rgbf000205-resize_0-target.png,1000,4.2175,34,4114,998,meters,jsons/v1_VE1000_randls_6_rotated.json,802683,1300364,29,Man
47,119902,DepthScenes,duration_manipulation_targetAtFixation,jsons/v1_VE1000_randls_6_rotated.json,http://54.235.29.9/FacialAge/BNav_EC2/DepthDuration/v2_depth_duration_MTurk/v2_DepthDuration_HTML.html#118,118,1280,1024,1280,1024,8-22-2022,4-59-4,48,depth_duration_stimuli/000692_2014-06-08_13-09-42_260595134347_rgbf000199-resize_2/000692_2014-06-08_13-09-42_260595134347_rgbf000199-resize_2-target.png,1000,3.661,35,3946,1001,meters,jsons/v1_VE1000_randls_6_rotated.json,802683,1300364,29,Man
48,119902,DepthScenes,duration_manipulation_targetAtFixation,jsons/v1_VE1000_randls_6_rotated.json,http://54.235.29.9/FacialAge/BNav_EC2/DepthDuration/v2_depth_duration_MTurk/v2_DepthDuration_HTML.html#118,118,1280,1024,1280,1024,8-22-2022,4-59-4,49,depth_duration_stimuli/001170_2014-06-17_15-43-44_260595134347_rgbf000096-resize_6/001170_2014-06-17_15-43-44_260595134347_rgbf000096-resize-original.jpg,1000,1.1909999999999998,0,3521,1001,meters,jsons/v1_VE1000_randls_6_rotated.json,802683,1300364,29,Man
49,119902,DepthScenes,duration_manipulation_targetAtFixation,jsons/v1_VE1000_randls_6_rotated.json,http://54.235.29.9/FacialAge/BNav_EC2/DepthDuration/v2_depth_duration_MTurk/v2_DepthDuration_HTML.html#118,118,1280,1024,1280,1024,8-22-2022,4-59-4,50,depth_duration_stimuli/000635_2014-06-08_16-38-42_260595134347_rgbf000106-resize_1/000635_2014-06-08_16-38-42_260595134347_rgbf000106-resize_1-target.png,1000,2.074,25,4302,1000,meters,jsons/v1_VE1000_randls_6_rotated.json,802683,1300364,29,Man
50,119902,DepthScenes,duration_manipulation_targetAtFixation,jsons/v1_VE1000_randls_6_rotated.json,http://54.235.29.9/FacialAge/BNav_EC2/DepthDuration/v2_depth_duration_MTurk/v2_DepthDuration_HTML.html#118,118,1280,1024,1280,1024,8-22-2022,4-59-4,51,depth_duration_stimuli/002279_2014-06-28_18-55-32_260595134347_rgbf000040-resize_5/002279_2014-06-28_18-55-32_260595134347_rgbf000040-resize_5-target.png,1000,1.5043333333333,20,4435,1000,meters,jsons/v1_VE1000_randls_6_rotated.json,802683,1300364,29,Man
51,119902,DepthScenes,duration_manipulation_targetAtFixation,jsons/v1_VE1000_randls_6_rotated.json,http://54.235.29.9/FacialAge/BNav_EC2/DepthDuration/v2_depth_duration_MTurk/v2_DepthDuration_HTML.html#118,118,1280,1024,1280,1024,8-22-2022,4-59-4,52,depth_duration_stimuli/000457_2014-06-08_16-52-43_260595134347_rgbf000199-resize_1/000457_2014-06-08_16-52-43_260595134347_rgbf000199-resize_1-target.png,1000,3.6489999999999996,26,4593,1000,meters,jsons/v1_VE1000_randls_6_rotated.json,802683,1300364,29,Man
52,119902,DepthScenes,duration_manipulation_targetAtFixation,jsons/v1_VE1000_randls_6_rotated.json,http://54.235.29.9/FacialAge/BNav_EC2/DepthDuration/v2_depth_duration_MTurk/v2_DepthDuration_HTML.html#118,118,1280,1024,1280,1024,8-22-2022,4-59-4,53,depth_duration_stimuli/000929_2014-06-09_16-33-19_260595134347_rgbf000139-resize_0/000929_2014-06-09_16-33-19_260595134347_rgbf000139-resize_0-target.png,1000,2.8680000000000003,28,3610,999,meters,jsons/v1_VE1000_randls_6_rotated.json,802683,1300364,29,Man
53,119902,DepthScenes,duration_manipulation_targetAtFixation,jsons/v1_VE1000_randls_6_rotated.json,http://54.235.29.9/FacialAge/BNav_EC2/DepthDuration/v2_depth_duration_MTurk/v2_DepthDuration_HTML.html#118,118,1280,1024,1280,1024,8-22-2022,4-59-4,54,depth_duration_stimuli/002344_2014-06-28_20-06-29_260595134347_rgbf000030-resize_1/002344_2014-06-28_20-06-29_260595134347_rgbf000030-resize_1-target.png,1000,1.5795,20,3858,1000,meters,jsons/v1_VE1000_randls_6_rotated.json,802683,1300364,29,Man
54,119902,DepthScenes,duration_manipulation_targetAtFixation,jsons/v1_VE1000_randls_6_rotated.json,http://54.235.29.9/FacialAge/BNav_EC2/DepthDuration/v2_depth_duration_MTurk/v2_DepthDuration_HTML.html#118,118,1280,1024,1280,1024,8-22-2022,4-59-4,55,depth_duration_stimuli/002725_2014-06-22_11-47-51_094959634447_rgbf000070-resize_1/002725_2014-06-22_11-47-51_094959634447_rgbf000070-resize_1-target.png,1000,2.195,30,3657,996,meters,jsons/v1_VE1000_randls_6_rotated.json,802683,1300364,29,Man
55,119902,DepthScenes,duration_manipulation_targetAtFixation,jsons/v1_VE1000_randls_6_rotated.json,http://54.235.29.9/FacialAge/BNav_EC2/DepthDuration/v2_depth_duration_MTurk/v2_DepthDuration_HTML.html#118,118,1280,1024,1280,1024,8-22-2022,4-59-4,56,depth_duration_stimuli/002639_2014-06-24_14-51-37_094959634447_rgbf000074-resize_4/002639_2014-06-24_14-51-37_094959634447_rgbf000074-resize_4-target.png,1000,4.0375,34,4242,999,meters,jsons/v1_VE1000_randls_6_rotated.json,802683,1300364,29,Man
56,119902,DepthScenes,duration_manipulation_targetAtFixation,jsons/v1_VE1000_randls_6_rotated.json,http://54.235.29.9/FacialAge/BNav_EC2/DepthDuration/v2_depth_duration_MTurk/v2_DepthDuration_HTML.html#118,118,1280,1024,1280,1024,8-22-2022,4-59-4,57,depth_duration_stimuli/003292_2014-05-14_21-53-49_094959634447_rgbf000100-resize_2/003292_2014-05-14_21-53-49_094959634447_rgbf000100-resize_2-target.png,1000,3.4815,30,3292,999,meters,jsons/v1_VE1000_randls_6_rotated.json,802683,1300364,29,Man
57,119902,DepthScenes,duration_manipulation_targetAtFixation,jsons/v1_VE1000_randls_6_rotated.json,http://54.235.29.9/FacialAge/BNav_EC2/DepthDuration/v2_depth_duration_MTurk/v2_DepthDuration_HTML.html#118,118,1280,1024,1280,1024,8-22-2022,4-59-4,58,depth_duration_stimuli/001136_2014-06-17_15-19-41_260595134347_rgbf000076-resize_3/001136_2014-06-17_15-19-41_260595134347_rgbf000076-resize_3-target.png,1000,1.8655,30,4421,999,meters,jsons/v1_VE1000_randls_6_rotated.json,802683,1300364,29,Man
58,119902,DepthScenes,duration_manipulation_targetAtFixation,jsons/v1_VE1000_randls_6_rotated.json,http://54.235.29.9/FacialAge/BNav_EC2/DepthDuration/v2_depth_duration_MTurk/v2_DepthDuration_HTML.html#118,118,1280,1024,1280,1024,8-22-2022,4-59-4,59,depth_duration_stimuli/001164_2014-06-17_15-35-46_260595134347_rgbf000085-resize_3/001164_2014-06-17_15-35-46_260595134347_rgbf000085-resize_3-target.png,1000,2.354,32,3406,999,meters,jsons/v1_VE1000_randls_6_rotated.json,802683,1300364,29,Man
59,119902,DepthScenes,duration_manipulation_targetAtFixation,jsons/v1_VE1000_randls_6_rotated.json,http://54.235.29.9/FacialAge/BNav_EC2/DepthDuration/v2_depth_duration_MTurk/v2_DepthDuration_HTML.html#118,118,1280,1024,1280,1024,8-22-2022,4-59-4,60,depth_duration_stimuli/000483_2014-06-09_20-41-45_260595134347_rgbf000116-resize_4/000483_2014-06-09_20-41-45_260595134347_rgbf000116-resize_4-target.png,1000,1.337,20,3602,999,meters,jsons/v1_VE1000_randls_6_rotated.json,802683,1300364,29,Man
60,119902,DepthScenes,duration_manipulation_targetAtFixation,jsons/v1_VE1000_randls_6_rotated.json,http://54.235.29.9/FacialAge/BNav_EC2/DepthDuration/v2_depth_duration_MTurk/v2_DepthDuration_HTML.html#118,118,1280,1024,1280,1024,8-22-2022,4-59-4,61,depth_duration_stimuli/000469_2014-06-09_19-42-10_260595134347_rgbf000081-resize_1/000469_2014-06-09_19-42-10_260595134347_rgbf000081-resize_1-target.png,1000,1.652,24,3516,1004,meters,jsons/v1_VE1000_randls_6_rotated.json,802683,1300364,29,Man
61,119902,DepthScenes,duration_manipulation_targetAtFixation,jsons/v1_VE1000_randls_6_rotated.json,http://54.235.29.9/FacialAge/BNav_EC2/DepthDuration/v2_depth_duration_MTurk/v2_DepthDuration_HTML.html#118,118,1280,1024,1280,1024,8-22-2022,4-59-4,62,depth_duration_stimuli/000109_2014-05-14_23-41-52_260595134347_rgbf000035-resize_9/000109_2014-05-14_23-41-52_260595134347_rgbf000035-resize_9-target.png,1000,1.3545,20,4185,999,meters,jsons/v1_VE1000_randls_6_rotated.json,802683,1300364,29,Man
62,119902,DepthScenes,duration_manipulation_targetAtFixation,jsons/v1_VE1000_randls_6_rotated.json,http://54.235.29.9/FacialAge/BNav_EC2/DepthDuration/v2_depth_duration_MTurk/v2_DepthDuration_HTML.html#118,118,1280,1024,1280,1024,8-22-2022,4-59-4,63,depth_duration_stimuli/000470_2014-06-09_19-42-40_260595134347_rgbf000094-resize_1/000470_2014-06-09_19-42-40_260595134347_rgbf000094-resize_1-target.png,1000,1.831,25,3765,1001,meters,jsons/v1_VE1000_randls_6_rotated.json,802683,1300364,29,Man
63,119902,DepthScenes,duration_manipulation_targetAtFixation,jsons/v1_VE1000_randls_6_rotated.json,http://54.235.29.9/FacialAge/BNav_EC2/DepthDuration/v2_depth_duration_MTurk/v2_DepthDuration_HTML.html#118,118,1280,1024,1280,1024,8-22-2022,4-59-4,64,depth_duration_stimuli/000549_2014-06-08_22-10-24_260595134347_rgbf000247-resize_3/000549_2014-06-08_22-10-24_260595134347_rgbf000247-resize_3-target.png,1000,1.841,20,4187,1000,meters,jsons/v1_VE1000_randls_6_rotated.json,802683,1300364,29,Man
64,119902,DepthScenes,duration_manipulation_targetAtFixation,jsons/v1_VE1000_randls_6_rotated.json,http://54.235.29.9/FacialAge/BNav_EC2/DepthDuration/v2_depth_duration_MTurk/v2_DepthDuration_HTML.html#118,118,1280,1024,1280,1024,8-22-2022,4-59-4,65,depth_duration_stimuli/001055_2014-06-08_18-45-35_260595134347_rgbf000111-resize_4/001055_2014-06-08_18-45-35_260595134347_rgbf000111-resize_4-target.png,1000,2.4290000000000003,26,9832,999,meters,jsons/v1_VE1000_randls_6_rotated.json,802683,1300364,29,Man
65,119902,DepthScenes,duration_manipulation_targetAtFixation,jsons/v1_VE1000_randls_6_rotated.json,http://54.235.29.9/FacialAge/BNav_EC2/DepthDuration/v2_depth_duration_MTurk/v2_DepthDuration_HTML.html#118,118,1280,1024,1280,1024,8-22-2022,4-59-4,66,depth_duration_stimuli/001540_2014-06-20_17-01-05_260595134347_rgbf000086-resize_2/001540_2014-06-20_17-01-05_260595134347_rgbf000086-resize-original.jpg,1000,1.459,0,3652,1000,meters,jsons/v1_VE1000_randls_6_rotated.json,802683,1300364,29,Man
66,119902,DepthScenes,duration_manipulation_targetAtFixation,jsons/v1_VE1000_randls_6_rotated.json,http://54.235.29.9/FacialAge/BNav_EC2/DepthDuration/v2_depth_duration_MTurk/v2_DepthDuration_HTML.html#118,118,1280,1024,1280,1024,8-22-2022,4-59-4,67,depth_duration_stimuli/002660_2014-06-13_15-44-18_094959634447_rgbf001878-resize_2/002660_2014-06-13_15-44-18_094959634447_rgbf001878-resize_2-target.png,1000,3.576,35,9316,999,meters,jsons/v1_VE1000_randls_6_rotated.json,802683,1300364,29,Man
67,119902,DepthScenes,duration_manipulation_targetAtFixation,jsons/v1_VE1000_randls_6_rotated.json,http://54.235.29.9/FacialAge/BNav_EC2/DepthDuration/v2_depth_duration_MTurk/v2_DepthDuration_HTML.html#118,118,1280,1024,1280,1024,8-22-2022,4-59-4,68,depth_duration_stimuli/002153_2014-06-25_21-27-18_260595134347_rgbf000038-resize_5/002153_2014-06-25_21-27-18_260595134347_rgbf000038-resize_5-target.png,1000,2.505,32,5122,999,meters,jsons/v1_VE1000_randls_6_rotated.json,802683,1300364,29,Man
68,119902,DepthScenes,duration_manipulation_targetAtFixation,jsons/v1_VE1000_randls_6_rotated.json,http://54.235.29.9/FacialAge/BNav_EC2/DepthDuration/v2_depth_duration_MTurk/v2_DepthDuration_HTML.html#118,118,1280,1024,1280,1024,8-22-2022,4-59-4,69,depth_duration_stimuli/001617_2014-06-20_11-35-32_260595134347_rgbf000066-resize_1/001617_2014-06-20_11-35-32_260595134347_rgbf000066-resize_1-target.png,1000,3.7910000000000004,28,6699,1001,meters,jsons/v1_VE1000_randls_6_rotated.json,802683,1300364,29,Man
69,119902,DepthScenes,duration_manipulation_targetAtFixation,jsons/v1_VE1000_randls_6_rotated.json,http://54.235.29.9/FacialAge/BNav_EC2/DepthDuration/v2_depth_duration_MTurk/v2_DepthDuration_HTML.html#118,118,1280,1024,1280,1024,8-22-2022,4-59-4,70,depth_duration_stimuli/001806_2014-06-26_20-50-20_260595134347_rgbf000091-resize_1/001806_2014-06-26_20-50-20_260595134347_rgbf000091-resize_1-target.png,1000,2.7305,25,5538,999,meters,jsons/v1_VE1000_randls_6_rotated.json,802683,1300364,29,Man
70,119902,DepthScenes,duration_manipulation_targetAtFixation,jsons/v1_VE1000_randls_6_rotated.json,http://54.235.29.9/FacialAge/BNav_EC2/DepthDuration/v2_depth_duration_MTurk/v2_DepthDuration_HTML.html#118,118,1280,1024,1280,1024,8-22-2022,4-59-4,71,depth_duration_stimuli/002467_2014-06-28_20-38-07_260595134347_rgbf000026-resize_2/002467_2014-06-28_20-38-07_260595134347_rgbf000026-resize_2-target.png,1000,4.742,30,5965,999,meters,jsons/v1_VE1000_randls_6_rotated.json,802683,1300364,29,Man
71,119902,DepthScenes,duration_manipulation_targetAtFixation,jsons/v1_VE1000_randls_6_rotated.json,http://54.235.29.9/FacialAge/BNav_EC2/DepthDuration/v2_depth_duration_MTurk/v2_DepthDuration_HTML.html#118,118,1280,1024,1280,1024,8-22-2022,4-59-4,72,depth_duration_stimuli/002570_2014-06-24_13-59-54_094959634447_rgbf000059-resize_0/002570_2014-06-24_13-59-54_094959634447_rgbf000059-resize_0-target.png,1000,4.037,32,6697,999,meters,jsons/v1_VE1000_randls_6_rotated.json,802683,1300364,29,Man
72,119902,DepthScenes,duration_manipulation_targetAtFixation,jsons/v1_VE1000_randls_6_rotated.json,http://54.235.29.9/FacialAge/BNav_EC2/DepthDuration/v2_depth_duration_MTurk/v2_DepthDuration_HTML.html#118,118,1280,1024,1280,1024,8-22-2022,4-59-4,73,depth_duration_stimuli/002805_2014-06-22_19-54-03_094959634447_rgbf000079-resize_1/002805_2014-06-22_19-54-03_094959634447_rgbf000079-resize_1-target.png,1000,3.1439999999999997,39,7664,999,meters,jsons/v1_VE1000_randls_6_rotated.json,802683,1300364,29,Man
73,119902,DepthScenes,duration_manipulation_targetAtFixation,jsons/v1_VE1000_randls_6_rotated.json,http://54.235.29.9/FacialAge/BNav_EC2/DepthDuration/v2_depth_duration_MTurk/v2_DepthDuration_HTML.html#118,118,1280,1024,1280,1024,8-22-2022,4-59-4,74,depth_duration_stimuli/000906_2014-06-08_13-35-43_260595134347_rgbf000155-resize_1/000906_2014-06-08_13-35-43_260595134347_rgbf000155-resize_1-target.png,1000,2.8489999999999998,30,8012,998,meters,jsons/v1_VE1000_randls_6_rotated.json,802683,1300364,29,Man
74,119902,DepthScenes,duration_manipulation_targetAtFixation,jsons/v1_VE1000_randls_6_rotated.json,http://54.235.29.9/FacialAge/BNav_EC2/DepthDuration/v2_depth_duration_MTurk/v2_DepthDuration_HTML.html#118,118,1280,1024,1280,1024,8-22-2022,4-59-4,75,depth_duration_stimuli/002414_2014-06-28_20-24-58_260595134347_rgbf000067-resize_4/002414_2014-06-28_20-24-58_260595134347_rgbf000067-resize_4-target.png,1000,4.363,29,5290,1000,meters,jsons/v1_VE1000_randls_6_rotated.json,802683,1300364,29,Man
75,119902,DepthScenes,duration_manipulation_targetAtFixation,jsons/v1_VE1000_randls_6_rotated.json,http://54.235.29.9/FacialAge/BNav_EC2/DepthDuration/v2_depth_duration_MTurk/v2_DepthDuration_HTML.html#118,118,1280,1024,1280,1024,8-22-2022,4-59-4,76,depth_duration_stimuli/000773_2014-06-08_22-24-54_260595134347_rgbf000093-resize_1/000773_2014-06-08_22-24-54_260595134347_rgbf000093-resize_1-target.png,1000,4.973,31,5374,1001,meters,jsons/v1_VE1000_randls_6_rotated.json,802683,1300364,29,Man
76,119902,DepthScenes,duration_manipulation_targetAtFixation,jsons/v1_VE1000_randls_6_rotated.json,http://54.235.29.9/FacialAge/BNav_EC2/DepthDuration/v2_depth_duration_MTurk/v2_DepthDuration_HTML.html#118,118,1280,1024,1280,1024,8-22-2022,4-59-4,77,depth_duration_stimuli/000709_2014-06-08_13-51-55_260595134347_rgbf000068-resize_3/000709_2014-06-08_13-51-55_260595134347_rgbf000068-resize_3-target.png,1000,1.8030000000000002,30,4575,999,meters,jsons/v1_VE1000_randls_6_rotated.json,802683,1300364,29,Man
77,119902,DepthScenes,duration_manipulation_targetAtFixation,jsons/v1_VE1000_randls_6_rotated.json,http://54.235.29.9/FacialAge/BNav_EC2/DepthDuration/v2_depth_duration_MTurk/v2_DepthDuration_HTML.html#118,118,1280,1024,1280,1024,8-22-2022,4-59-4,78,depth_duration_stimuli/002057_2014-06-24_21-00-13_260595134347_rgbf000120-resize_1/002057_2014-06-24_21-00-13_260595134347_rgbf000120-resize_1-target.png,1000,2.967,38,3690,999,meters,jsons/v1_VE1000_randls_6_rotated.json,802683,1300364,29,Man
78,119902,DepthScenes,duration_manipulation_targetAtFixation,jsons/v1_VE1000_randls_6_rotated.json,http://54.235.29.9/FacialAge/BNav_EC2/DepthDuration/v2_depth_duration_MTurk/v2_DepthDuration_HTML.html#118,118,1280,1024,1280,1024,8-22-2022,4-59-4,79,depth_duration_stimuli/002750_2014-06-22_19-08-03_094959634447_rgbf000094-resize_4/002750_2014-06-22_19-08-03_094959634447_rgbf000094-resize_4-target.png,1000,2.354,35,4665,999,meters,jsons/v1_VE1000_randls_6_rotated.json,802683,1300364,29,Man
79,119902,DepthScenes,duration_manipulation_targetAtFixation,jsons/v1_VE1000_randls_6_rotated.json,http://54.235.29.9/FacialAge/BNav_EC2/DepthDuration/v2_depth_duration_MTurk/v2_DepthDuration_HTML.html#118,118,1280,1024,1280,1024,8-22-2022,4-59-4,80,depth_duration_stimuli/002549_2014-06-24_13-41-39_094959634447_rgbf000022-resize_3/002549_2014-06-24_13-41-39_094959634447_rgbf000022-resize_3-target.png,1000,1.476,24,3779,997,meters,jsons/v1_VE1000_randls_6_rotated.json,802683,1300364,29,Man
80,119902,DepthScenes,duration_manipulation_targetAtFixation,jsons/v1_VE1000_randls_6_rotated.json,http://54.235.29.9/FacialAge/BNav_EC2/DepthDuration/v2_depth_duration_MTurk/v2_DepthDuration_HTML.html#118,118,1280,1024,1280,1024,8-22-2022,4-59-4,81,depth_duration_stimuli/003338_2014-05-20_11-01-23_094959634447_rgbf000051-resize_6/003338_2014-05-20_11-01-23_094959634447_rgbf000051-resize_6-target.png,1000,1.693,20,4258,1001,meters,jsons/v1_VE1000_randls_6_rotated.json,802683,1300364,29,Man
81,119902,DepthScenes,duration_manipulation_targetAtFixation,jsons/v1_VE1000_randls_6_rotated.json,http://54.235.29.9/FacialAge/BNav_EC2/DepthDuration/v2_depth_duration_MTurk/v2_DepthDuration_HTML.html#118,118,1280,1024,1280,1024,8-22-2022,4-59-4,82,depth_duration_stimuli/002509_2014-06-24_13-19-22_094959634447_rgbf000077-resize_0/002509_2014-06-24_13-19-22_094959634447_rgbf000077-resize_0-target.png,1000,1.3065,17,3651,999,meters,jsons/v1_VE1000_randls_6_rotated.json,802683,1300364,29,Man
82,119902,DepthScenes,duration_manipulation_targetAtFixation,jsons/v1_VE1000_randls_6_rotated.json,http://54.235.29.9/FacialAge/BNav_EC2/DepthDuration/v2_depth_duration_MTurk/v2_DepthDuration_HTML.html#118,118,1280,1024,1280,1024,8-22-2022,4-59-4,83,depth_duration_stimuli/002657_2014-06-13_15-29-54_094959634447_rgbf000150-resize_1/002657_2014-06-13_15-29-54_094959634447_rgbf000150-resize_1-target.png,1000,4.919,37,4380,1000,meters,jsons/v1_VE1000_randls_6_rotated.json,802683,1300364,29,Man
83,119902,DepthScenes,duration_manipulation_targetAtFixation,jsons/v1_VE1000_randls_6_rotated.json,http://54.235.29.9/FacialAge/BNav_EC2/DepthDuration/v2_depth_duration_MTurk/v2_DepthDuration_HTML.html#118,118,1280,1024,1280,1024,8-22-2022,4-59-4,84,depth_duration_stimuli/002375_2014-06-28_20-13-44_260595134347_rgbf000032-resize_1/002375_2014-06-28_20-13-44_260595134347_rgbf000032-resize_1-target.png,1000,4.0175,35,3705,1001,meters,jsons/v1_VE1000_randls_6_rotated.json,802683,1300364,29,Man
84,119902,DepthScenes,duration_manipulation_targetAtFixation,jsons/v1_VE1000_randls_6_rotated.json,http://54.235.29.9/FacialAge/BNav_EC2/DepthDuration/v2_depth_duration_MTurk/v2_DepthDuration_HTML.html#118,118,1280,1024,1280,1024,8-22-2022,4-59-4,85,depth_duration_stimuli/001584_2014-06-20_11-07-43_260595134347_rgbf000002-resize_1/001584_2014-06-20_11-07-43_260595134347_rgbf000002-resize_1-target.png,1000,3.53,36,4746,1000,meters,jsons/v1_VE1000_randls_6_rotated.json,802683,1300364,29,Man
85,119902,DepthScenes,duration_manipulation_targetAtFixation,jsons/v1_VE1000_randls_6_rotated.json,http://54.235.29.9/FacialAge/BNav_EC2/DepthDuration/v2_depth_duration_MTurk/v2_DepthDuration_HTML.html#118,118,1280,1024,1280,1024,8-22-2022,4-59-4,86,depth_duration_stimuli/003621_2014-05-23_18-06-08_094959634447_rgbf000101-resize_1/003621_2014-05-23_18-06-08_094959634447_rgbf000101-resize_1-target.png,1000,3.9835,25,4781,1000,meters,jsons/v1_VE1000_randls_6_rotated.json,802683,1300364,29,Man
86,119902,DepthScenes,duration_manipulation_targetAtFixation,jsons/v1_VE1000_randls_6_rotated.json,http://54.235.29.9/FacialAge/BNav_EC2/DepthDuration/v2_depth_duration_MTurk/v2_DepthDuration_HTML.html#118,118,1280,1024,1280,1024,8-22-2022,4-59-4,87,depth_duration_stimuli/003081_2014-06-15_15-19-16_094959634447_rgbf000150-resize_1/003081_2014-06-15_15-19-16_094959634447_rgbf000150-resize_1-target.png,1000,3.9125,30,4679,1000,meters,jsons/v1_VE1000_randls_6_rotated.json,802683,1300364,29,Man
87,119902,DepthScenes,duration_manipulation_targetAtFixation,jsons/v1_VE1000_randls_6_rotated.json,http://54.235.29.9/FacialAge/BNav_EC2/DepthDuration/v2_depth_duration_MTurk/v2_DepthDuration_HTML.html#118,118,1280,1024,1280,1024,8-22-2022,4-59-4,88,depth_duration_stimuli/001417_2014-06-19_16-25-36_260595134347_rgbf000115-resize_5/001417_2014-06-19_16-25-36_260595134347_rgbf000115-resize_5-target.png,1000,4.6255,30,6348,1000,meters,jsons/v1_VE1000_randls_6_rotated.json,802683,1300364,29,Man
88,119902,DepthScenes,duration_manipulation_targetAtFixation,jsons/v1_VE1000_randls_6_rotated.json,http://54.235.29.9/FacialAge/BNav_EC2/DepthDuration/v2_depth_duration_MTurk/v2_DepthDuration_HTML.html#118,118,1280,1024,1280,1024,8-22-2022,4-59-4,89,depth_duration_stimuli/003079_2014-06-15_15-18-20_094959634447_rgbf000152-resize_8/003079_2014-06-15_15-18-20_094959634447_rgbf000152-resize_8-target.png,1000,2.8775,37,4409,1000,meters,jsons/v1_VE1000_randls_6_rotated.json,802683,1300364,29,Man
89,119902,DepthScenes,duration_manipulation_targetAtFixation,jsons/v1_VE1000_randls_6_rotated.json,http://54.235.29.9/FacialAge/BNav_EC2/DepthDuration/v2_depth_duration_MTurk/v2_DepthDuration_HTML.html#118,118,1280,1024,1280,1024,8-22-2022,4-59-4,90,depth_duration_stimuli/000506_2014-06-08_23-21-00_260595134347_rgbf000070-resize_7/000506_2014-06-08_23-21-00_260595134347_rgbf000070-resize_7-target.png,1000,4.0585,35,3484,1000,meters,jsons/v1_VE1000_randls_6_rotated.json,802683,1300364,29,Man
90,119902,DepthScenes,duration_manipulation_targetAtFixation,jsons/v1_VE1000_randls_6_rotated.json,http://54.235.29.9/FacialAge/BNav_EC2/DepthDuration/v2_depth_duration_MTurk/v2_DepthDuration_HTML.html#118,118,1280,1024,1280,1024,8-22-2022,4-59-4,91,depth_duration_stimuli/000677_2014-06-08_23-10-32_260595134347_rgbf000158-resize_6/000677_2014-06-08_23-10-32_260595134347_rgbf000158-resize_6-target.png,1000,3.556,33,7547,999,meters,jsons/v1_VE1000_randls_6_rotated.json,802683,1300364,29,Man
91,119902,DepthScenes,duration_manipulation_targetAtFixation,jsons/v1_VE1000_randls_6_rotated.json,http://54.235.29.9/FacialAge/BNav_EC2/DepthDuration/v2_depth_duration_MTurk/v2_DepthDuration_HTML.html#118,118,1280,1024,1280,1024,8-22-2022,4-59-4,92,depth_duration_stimuli/001029_2014-06-08_13-17-57_260595134347_rgbf000065-resize_1/001029_2014-06-08_13-17-57_260595134347_rgbf000065-resize_1-target.png,1000,3.0835,36,3970,1000,meters,jsons/v1_VE1000_randls_6_rotated.json,802683,1300364,29,Man
92,119902,DepthScenes,duration_manipulation_targetAtFixation,jsons/v1_VE1000_randls_6_rotated.json,http://54.235.29.9/FacialAge/BNav_EC2/DepthDuration/v2_depth_duration_MTurk/v2_DepthDuration_HTML.html#118,118,1280,1024,1280,1024,8-22-2022,4-59-4,93,depth_duration_stimuli/001214_2014-06-17_16-13-55_260595134347_rgbf000111-resize_0/001214_2014-06-17_16-13-55_260595134347_rgbf000111-resize_0-target.png,1000,2.6505,29,4437,999,meters,jsons/v1_VE1000_randls_6_rotated.json,802683,1300364,29,Man
93,119902,DepthScenes,duration_manipulation_targetAtFixation,jsons/v1_VE1000_randls_6_rotated.json,http://54.235.29.9/FacialAge/BNav_EC2/DepthDuration/v2_depth_duration_MTurk/v2_DepthDuration_HTML.html#118,118,1280,1024,1280,1024,8-22-2022,4-59-4,94,depth_duration_stimuli/000810_2014-06-08_17-20-01_260595134347_rgbf000105-resize_0/000810_2014-06-08_17-20-01_260595134347_rgbf000105-resize_0-target.png,1000,1.4865,30,3665,1008,meters,jsons/v1_VE1000_randls_6_rotated.json,802683,1300364,29,Man
94,119902,DepthScenes,duration_manipulation_targetAtFixation,jsons/v1_VE1000_randls_6_rotated.json,http://54.235.29.9/FacialAge/BNav_EC2/DepthDuration/v2_depth_duration_MTurk/v2_DepthDuration_HTML.html#118,118,1280,1024,1280,1024,8-22-2022,4-59-4,95,depth_duration_stimuli/003048_2014-06-15_13-49-43_094959634447_rgbf000150-resize_1/003048_2014-06-15_13-49-43_094959634447_rgbf000150-resize_1-target.png,1000,4.0035,39,4277,1000,meters,jsons/v1_VE1000_randls_6_rotated.json,802683,1300364,29,Man
95,119902,DepthScenes,duration_manipulation_targetAtFixation,jsons/v1_VE1000_randls_6_rotated.json,http://54.235.29.9/FacialAge/BNav_EC2/DepthDuration/v2_depth_duration_MTurk/v2_DepthDuration_HTML.html#118,118,1280,1024,1280,1024,8-22-2022,4-59-4,96,depth_duration_stimuli/002043_2014-06-24_20-29-38_260595134347_rgbf000039-resize_4/002043_2014-06-24_20-29-38_260595134347_rgbf000039-resize_4-target.png,1000,2.8435,35,3757,996,meters,jsons/v1_VE1000_randls_6_rotated.json,802683,1300364,29,Man
96,119902,DepthScenes,duration_manipulation_targetAtFixation,jsons/v1_VE1000_randls_6_rotated.json,http://54.235.29.9/FacialAge/BNav_EC2/DepthDuration/v2_depth_duration_MTurk/v2_DepthDuration_HTML.html#118,118,1280,1024,1280,1024,8-22-2022,4-59-4,97,depth_duration_stimuli/002678_2014-06-13_16-15-32_094959634447_rgbf000151-resize_6/002678_2014-06-13_16-15-32_094959634447_rgbf000151-resize_6-target.png,1000,2.1830000000000003,36,3807,999,meters,jsons/v1_VE1000_randls_6_rotated.json,802683,1300364,29,Man
97,119902,DepthScenes,duration_manipulation_targetAtFixation,jsons/v1_VE1000_randls_6_rotated.json,http://54.235.29.9/FacialAge/BNav_EC2/DepthDuration/v2_depth_duration_MTurk/v2_DepthDuration_HTML.html#118,118,1280,1024,1280,1024,8-22-2022,4-59-4,98,depth_duration_stimuli/000368_2014-06-09_15-53-01_260595134347_rgbf000155-resize_2/000368_2014-06-09_15-53-01_260595134347_rgbf000155-resize_2-target.png,1000,2.4859999999999998,25,3503,1000,meters,jsons/v1_VE1000_randls_6_rotated.json,802683,1300364,29,Man
98,119902,DepthScenes,duration_manipulation_targetAtFixation,jsons/v1_VE1000_randls_6_rotated.json,http://54.235.29.9/FacialAge/BNav_EC2/DepthDuration/v2_depth_duration_MTurk/v2_DepthDuration_HTML.html#118,118,1280,1024,1280,1024,8-22-2022,4-59-4,99,depth_duration_stimuli/001222_2014-06-17_16-24-06_260595134347_rgbf000073-resize_0/001222_2014-06-17_16-24-06_260595134347_rgbf000073-resize-original.jpg,1000,1.4385,0,3503,1000,meters,jsons/v1_VE1000_randls_6_rotated.json,802683,1300364,29,Man
99,119902,DepthScenes,duration_manipulation_targetAtFixation,jsons/v1_VE1000_randls_6_rotated.json,http://54.235.29.9/FacialAge/BNav_EC2/DepthDuration/v2_depth_duration_MTurk/v2_DepthDuration_HTML.html#118,118,1280,1024,1280,1024,8-22-2022,4-59-4,100,depth_duration_stimuli/003129_2014-05-12_10-48-10_094959634447_rgbf000100-resize_0/003129_2014-05-12_10-48-10_094959634447_rgbf000100-resize_0-target.png,1000,4.9305,38,3879,1000,meters,jsons/v1_VE1000_randls_6_rotated.json,802683,1300364,29,Man
100,119902,DepthScenes,duration_manipulation_targetAtFixation,jsons/v1_VE1000_randls_6_rotated.json,http://54.235.29.9/FacialAge/BNav_EC2/DepthDuration/v2_depth_duration_MTurk/v2_DepthDuration_HTML.html#118,118,1280,1024,1280,1024,8-22-2022,4-59-4,101,depth_duration_stimuli/000414_2014-06-04_19-49-13_260595134347_rgbf000044-resize_0/000414_2014-06-04_19-49-13_260595134347_rgbf000044-resize_0-target.png,1000,4.329,36,3913,1000,meters,jsons/v1_VE1000_randls_6_rotated.json,802683,1300364,29,Man
101,119902,DepthScenes,duration_manipulation_targetAtFixation,jsons/v1_VE1000_randls_6_rotated.json,http://54.235.29.9/FacialAge/BNav_EC2/DepthDuration/v2_depth_duration_MTurk/v2_DepthDuration_HTML.html#118,118,1280,1024,1280,1024,8-22-2022,4-59-4,102,depth_duration_stimuli/000665_2014-06-09_20-42-35_260595134347_rgbf000110-resize_1/000665_2014-06-09_20-42-35_260595134347_rgbf000110-resize_1-target.png,1000,3.057,34,3598,1000,meters,jsons/v1_VE1000_randls_6_rotated.json,802683,1300364,29,Man
102,119902,DepthScenes,duration_manipulation_targetAtFixation,jsons/v1_VE1000_randls_6_rotated.json,http://54.235.29.9/FacialAge/BNav_EC2/DepthDuration/v2_depth_duration_MTurk/v2_DepthDuration_HTML.html#118,118,1280,1024,1280,1024,8-22-2022,4-59-4,103,depth_duration_stimuli/001150_2014-06-17_15-27-34_260595134347_rgbf000108-resize_2/001150_2014-06-17_15-27-34_260595134347_rgbf000108-resize_2-target.png,1000,4.0325,32,3253,999,meters,jsons/v1_VE1000_randls_6_rotated.json,802683,1300364,29,Man
103,119902,DepthScenes,duration_manipulation_targetAtFixation,jsons/v1_VE1000_randls_6_rotated.json,http://54.235.29.9/FacialAge/BNav_EC2/DepthDuration/v2_depth_duration_MTurk/v2_DepthDuration_HTML.html#118,118,1280,1024,1280,1024,8-22-2022,4-59-4,104,depth_duration_stimuli/000943_2014-06-09_19-31-07_260595134347_rgbf000128-resize_1/000943_2014-06-09_19-31-07_260595134347_rgbf000128-resize_1-target.png,1000,1.9765,30,3616,1000,meters,jsons/v1_VE1000_randls_6_rotated.json,802683,1300364,29,Man
104,119902,DepthScenes,duration_manipulation_targetAtFixation,jsons/v1_VE1000_randls_6_rotated.json,http://54.235.29.9/FacialAge/BNav_EC2/DepthDuration/v2_depth_duration_MTurk/v2_DepthDuration_HTML.html#118,118,1280,1024,1280,1024,8-22-2022,4-59-4,105,depth_duration_stimuli/003070_2014-06-15_14-58-27_094959634447_rgbf000150-resize_3/003070_2014-06-15_14-58-27_094959634447_rgbf000150-resize_3-target.png,1000,2.9415,34,3236,1000,meters,jsons/v1_VE1000_randls_6_rotated.json,802683,1300364,29,Man
105,119902,DepthScenes,duration_manipulation_targetAtFixation,jsons/v1_VE1000_randls_6_rotated.json,http://54.235.29.9/FacialAge/BNav_EC2/DepthDuration/v2_depth_duration_MTurk/v2_DepthDuration_HTML.html#118,118,1280,1024,1280,1024,8-22-2022,4-59-4,106,depth_duration_stimuli/002103_2014-06-25_20-00-40_260595134347_rgbf000049-resize_0/002103_2014-06-25_20-00-40_260595134347_rgbf000049-resize_0-target.png,1000,4.105,35,3764,1000,meters,jsons/v1_VE1000_randls_6_rotated.json,802683,1300364,29,Man
106,119902,DepthScenes,duration_manipulation_targetAtFixation,jsons/v1_VE1000_randls_6_rotated.json,http://54.235.29.9/FacialAge/BNav_EC2/DepthDuration/v2_depth_duration_MTurk/v2_DepthDuration_HTML.html#118,118,1280,1024,1280,1024,8-22-2022,4-59-4,107,depth_duration_stimuli/002039_2014-06-24_20-22-38_260595134347_rgbf000084-resize_1/002039_2014-06-24_20-22-38_260595134347_rgbf000084-resize_1-target.png,1000,4.408,38,4482,1000,meters,jsons/v1_VE1000_randls_6_rotated.json,802683,1300364,29,Man
107,119902,DepthScenes,duration_manipulation_targetAtFixation,jsons/v1_VE1000_randls_6_rotated.json,http://54.235.29.9/FacialAge/BNav_EC2/DepthDuration/v2_depth_duration_MTurk/v2_DepthDuration_HTML.html#118,118,1280,1024,1280,1024,8-22-2022,4-59-4,108,depth_duration_stimuli/003495_2014-05-21_16-01-51_094959634447_rgbf000100-resize_3/003495_2014-05-21_16-01-51_094959634447_rgbf000100-resize_3-target.png,1000,1.6255,25,3818,1000,meters,jsons/v1_VE1000_randls_6_rotated.json,802683,1300364,29,Man
108,119902,DepthScenes,duration_manipulation_targetAtFixation,jsons/v1_VE1000_randls_6_rotated.json,http://54.235.29.9/FacialAge/BNav_EC2/DepthDuration/v2_depth_duration_MTurk/v2_DepthDuration_HTML.html#118,118,1280,1024,1280,1024,8-22-2022,4-59-4,109,depth_duration_stimuli/001244_2014-06-17_16-47-45_260595134347_rgbf000030-resize_4/001244_2014-06-17_16-47-45_260595134347_rgbf000030-resize_4-target.png,1000,2.0425,30,3946,1000,meters,jsons/v1_VE1000_randls_6_rotated.json,802683,1300364,29,Man
109,119902,DepthScenes,duration_manipulation_targetAtFixation,jsons/v1_VE1000_randls_6_rotated.json,http://54.235.29.9/FacialAge/BNav_EC2/DepthDuration/v2_depth_duration_MTurk/v2_DepthDuration_HTML.html#118,118,1280,1024,1280,1024,8-22-2022,4-59-4,110,depth_duration_stimuli/000137_2014-05-20_17-04-49_260595134347_rgbf000120-resize_1/000137_2014-05-20_17-04-49_260595134347_rgbf000120-resize_1-target.png,1000,3.786,38,4798,1001,meters,jsons/v1_VE1000_randls_6_rotated.json,802683,1300364,29,Man
110,119902,DepthScenes,duration_manipulation_targetAtFixation,jsons/v1_VE1000_randls_6_rotated.json,http://54.235.29.9/FacialAge/BNav_EC2/DepthDuration/v2_depth_duration_MTurk/v2_DepthDuration_HTML.html#118,118,1280,1024,1280,1024,8-22-2022,4-59-4,111,depth_duration_stimuli/000736_2014-06-08_18-24-15_260595134347_rgbf000206-resize_3/000736_2014-06-08_18-24-15_260595134347_rgbf000206-resize_3-target.png,1000,3.515,28,3452,1000,meters,jsons/v1_VE1000_randls_6_rotated.json,802683,1300364,29,Man
111,119902,DepthScenes,duration_manipulation_targetAtFixation,jsons/v1_VE1000_randls_6_rotated.json,http://54.235.29.9/FacialAge/BNav_EC2/DepthDuration/v2_depth_duration_MTurk/v2_DepthDuration_HTML.html#118,118,1280,1024,1280,1024,8-22-2022,4-59-4,112,depth_duration_stimuli/000734_2014-06-08_17-39-11_260595134347_rgbf000128-resize_2/000734_2014-06-08_17-39-11_260595134347_rgbf000128-resize_2-target.png,1000,4.098,35,3870,986,meters,jsons/v1_VE1000_randls_6_rotated.json,802683,1300364,29,Man
112,119902,DepthScenes,duration_manipulation_targetAtFixation,jsons/v1_VE1000_randls_6_rotated.json,http://54.235.29.9/FacialAge/BNav_EC2/DepthDuration/v2_depth_duration_MTurk/v2_DepthDuration_HTML.html#118,118,1280,1024,1280,1024,8-22-2022,4-59-4,113,depth_duration_stimuli/000739_2014-06-08_18-45-58_260595134347_rgbf000068-resize_1/000739_2014-06-08_18-45-58_260595134347_rgbf000068-resize_1-target.png,1000,3.534,37,3570,999,meters,jsons/v1_VE1000_randls_6_rotated.json,802683,1300364,29,Man
113,119902,DepthScenes,duration_manipulation_targetAtFixation,jsons/v1_VE1000_randls_6_rotated.json,http://54.235.29.9/FacialAge/BNav_EC2/DepthDuration/v2_depth_duration_MTurk/v2_DepthDuration_HTML.html#118,118,1280,1024,1280,1024,8-22-2022,4-59-4,114,depth_duration_stimuli/001235_2014-06-17_16-37-36_260595134347_rgbf000084-resize_4/001235_2014-06-17_16-37-36_260595134347_rgbf000084-resize_4-target.png,1000,3.6605,38,3742,1001,meters,jsons/v1_VE1000_randls_6_rotated.json,802683,1300364,29,Man
114,119902,DepthScenes,duration_manipulation_targetAtFixation,jsons/v1_VE1000_randls_6_rotated.json,http://54.235.29.9/FacialAge/BNav_EC2/DepthDuration/v2_depth_duration_MTurk/v2_DepthDuration_HTML.html#118,118,1280,1024,1280,1024,8-22-2022,4-59-4,115,depth_duration_stimuli/000788_2014-06-08_22-34-36_260595134347_rgbf000131-resize_1/000788_2014-06-08_22-34-36_260595134347_rgbf000131-resize_1-target.png,1000,3.359,39,4710,1001,meters,jsons/v1_VE1000_randls_6_rotated.json,802683,1300364,29,Man
115,119902,DepthScenes,duration_manipulation_targetAtFixation,jsons/v1_VE1000_randls_6_rotated.json,http://54.235.29.9/FacialAge/BNav_EC2/DepthDuration/v2_depth_duration_MTurk/v2_DepthDuration_HTML.html#118,118,1280,1024,1280,1024,8-22-2022,4-59-4,116,depth_duration_stimuli/001392_2014-06-19_16-07-59_260595134347_rgbf000046-resize_1/001392_2014-06-19_16-07-59_260595134347_rgbf000046-resize_1-target.png,1000,4.135,38,3882,992,meters,jsons/v1_VE1000_randls_6_rotated.json,802683,1300364,29,Man
116,119902,DepthScenes,duration_manipulation_targetAtFixation,jsons/v1_VE1000_randls_6_rotated.json,http://54.235.29.9/FacialAge/BNav_EC2/DepthDuration/v2_depth_duration_MTurk/v2_DepthDuration_HTML.html#118,118,1280,1024,1280,1024,8-22-2022,4-59-4,117,depth_duration_stimuli/001570_2014-06-20_17-21-09_260595134347_rgbf000135-resize_4/001570_2014-06-20_17-21-09_260595134347_rgbf000135-resize_4-target.png,1000,4.467,37,3369,1006,meters,jsons/v1_VE1000_randls_6_rotated.json,802683,1300364,29,Man
117,119902,DepthScenes,duration_manipulation_targetAtFixation,jsons/v1_VE1000_randls_6_rotated.json,http://54.235.29.9/FacialAge/BNav_EC2/DepthDuration/v2_depth_duration_MTurk/v2_DepthDuration_HTML.html#118,118,1280,1024,1280,1024,8-22-2022,4-59-4,118,depth_duration_stimuli/002323_2014-06-28_20-01-54_260595134347_rgbf000051-resize_4/002323_2014-06-28_20-01-54_260595134347_rgbf000051-resize_4-target.png,1000,3.7310000000000003,37,3713,1000,meters,jsons/v1_VE1000_randls_6_rotated.json,802683,1300364,29,Man
118,119902,DepthScenes,duration_manipulation_targetAtFixation,jsons/v1_VE1000_randls_6_rotated.json,http://54.235.29.9/FacialAge/BNav_EC2/DepthDuration/v2_depth_duration_MTurk/v2_DepthDuration_HTML.html#118,118,1280,1024,1280,1024,8-22-2022,4-59-4,119,depth_duration_stimuli/000917_2014-06-09_22-45-29_260595134347_rgbf000149-resize_3/000917_2014-06-09_22-45-29_260595134347_rgbf000149-resize_3-target.png,1000,4.1865,34,3518,1000,meters,jsons/v1_VE1000_randls_6_rotated.json,802683,1300364,29,Man
119,119902,DepthScenes,duration_manipulation_targetAtFixation,jsons/v1_VE1000_randls_6_rotated.json,http://54.235.29.9/FacialAge/BNav_EC2/DepthDuration/v2_depth_duration_MTurk/v2_DepthDuration_HTML.html#118,118,1280,1024,1280,1024,8-22-2022,4-59-4,120,depth_duration_stimuli/000787_2014-06-08_22-33-53_260595134347_rgbf000175-resize_1/000787_2014-06-08_22-33-53_260595134347_rgbf000175-resize-original.jpg,1000,4.784,0,3488,1000,meters,jsons/v1_VE1000_randls_6_rotated.json,802683,1300364,29,Man
120,119902,DepthScenes,duration_manipulation_targetAtFixation,jsons/v1_VE1000_randls_6_rotated.json,http://54.235.29.9/FacialAge/BNav_EC2/DepthDuration/v2_depth_duration_MTurk/v2_DepthDuration_HTML.html#118,118,1280,1024,1280,1024,8-22-2022,4-59-4,121,depth_duration_stimuli/001828_2014-06-26_21-40-03_260595134347_rgbf000024-resize_0/001828_2014-06-26_21-40-03_260595134347_rgbf000024-resize_0-target.png,1000,4.8260000000000005,35,4375,1000,meters,jsons/v1_VE1000_randls_6_rotated.json,802683,1300364,29,Man
121,119902,DepthScenes,duration_manipulation_targetAtFixation,jsons/v1_VE1000_randls_6_rotated.json,http://54.235.29.9/FacialAge/BNav_EC2/DepthDuration/v2_depth_duration_MTurk/v2_DepthDuration_HTML.html#118,118,1280,1024,1280,1024,8-22-2022,4-59-4,122,depth_duration_stimuli/000009_2014-05-26_14-32-05_260595134347_rgbf000034-resize_3/000009_2014-05-26_14-32-05_260595134347_rgbf000034-resize_3-target.png,1000,3.8715,30,3226,1013,meters,jsons/v1_VE1000_randls_6_rotated.json,802683,1300364,29,Man
122,119902,DepthScenes,duration_manipulation_targetAtFixation,jsons/v1_VE1000_randls_6_rotated.json,http://54.235.29.9/FacialAge/BNav_EC2/DepthDuration/v2_depth_duration_MTurk/v2_DepthDuration_HTML.html#118,118,1280,1024,1280,1024,8-22-2022,4-59-4,123,depth_duration_stimuli/002209_2014-06-28_18-36-10_260595134347_rgbf000051-resize_1/002209_2014-06-28_18-36-10_260595134347_rgbf000051-resize_1-target.png,1000,2.057,25,5999,1001,meters,jsons/v1_VE1000_randls_6_rotated.json,802683,1300364,29,Man
123,119902,DepthScenes,duration_manipulation_targetAtFixation,jsons/v1_VE1000_randls_6_rotated.json,http://54.235.29.9/FacialAge/BNav_EC2/DepthDuration/v2_depth_duration_MTurk/v2_DepthDuration_HTML.html#118,118,1280,1024,1280,1024,8-22-2022,4-59-4,124,depth_duration_stimuli/002763_2014-06-22_19-13-10_094959634447_rgbf000075-resize_4/002763_2014-06-22_19-13-10_094959634447_rgbf000075-resize_4-target.png,1000,1.68375,28,3539,1000,meters,jsons/v1_VE1000_randls_6_rotated.json,802683,1300364,29,Man
124,119902,DepthScenes,duration_manipulation_targetAtFixation,jsons/v1_VE1000_randls_6_rotated.json,http://54.235.29.9/FacialAge/BNav_EC2/DepthDuration/v2_depth_duration_MTurk/v2_DepthDuration_HTML.html#118,118,1280,1024,1280,1024,8-22-2022,4-59-4,125,depth_duration_stimuli/000780_2014-06-08_22-28-29_260595134347_rgbf000126-resize_1/000780_2014-06-08_22-28-29_260595134347_rgbf000126-resize_1-target.png,1000,3.3825,28,5138,1000,meters,jsons/v1_VE1000_randls_6_rotated.json,802683,1300364,29,Man
125,119902,DepthScenes,duration_manipulation_targetAtFixation,jsons/v1_VE1000_randls_6_rotated.json,http://54.235.29.9/FacialAge/BNav_EC2/DepthDuration/v2_depth_duration_MTurk/v2_DepthDuration_HTML.html#118,118,1280,1024,1280,1024,8-22-2022,4-59-4,126,depth_duration_stimuli/002445_2014-06-28_20-32-16_260595134347_rgbf000029-resize_4/002445_2014-06-28_20-32-16_260595134347_rgbf000029-resize_4-target.png,1000,2.5315,25,3260,1001,meters,jsons/v1_VE1000_randls_6_rotated.json,802683,1300364,29,Man
126,119902,DepthScenes,duration_manipulation_targetAtFixation,jsons/v1_VE1000_randls_6_rotated.json,http://54.235.29.9/FacialAge/BNav_EC2/DepthDuration/v2_depth_duration_MTurk/v2_DepthDuration_HTML.html#118,118,1280,1024,1280,1024,8-22-2022,4-59-4,127,depth_duration_stimuli/003010_2014-06-15_12-54-35_094959634447_rgbf000112-resize_0/003010_2014-06-15_12-54-35_094959634447_rgbf000112-resize_0-target.png,1000,3.1185,36,5046,1000,meters,jsons/v1_VE1000_randls_6_rotated.json,802683,1300364,29,Man
127,119902,DepthScenes,duration_manipulation_targetAtFixation,jsons/v1_VE1000_randls_6_rotated.json,http://54.235.29.9/FacialAge/BNav_EC2/DepthDuration/v2_depth_duration_MTurk/v2_DepthDuration_HTML.html#118,118,1280,1024,1280,1024,8-22-2022,4-59-4,128,depth_duration_stimuli/001810_2014-06-26_20-51-35_260595134347_rgbf000040-resize_3/001810_2014-06-26_20-51-35_260595134347_rgbf000040-resize_3-target.png,1000,2.2525,27,3287,1000,meters,jsons/v1_VE1000_randls_6_rotated.json,802683,1300364,29,Man
128,119902,DepthScenes,duration_manipulation_targetAtFixation,jsons/v1_VE1000_randls_6_rotated.json,http://54.235.29.9/FacialAge/BNav_EC2/DepthDuration/v2_depth_duration_MTurk/v2_DepthDuration_HTML.html#118,118,1280,1024,1280,1024,8-22-2022,4-59-4,129,depth_duration_stimuli/000927_2014-06-09_16-32-30_260595134347_rgbf000123-resize_3/000927_2014-06-09_16-32-30_260595134347_rgbf000123-resize_3-target.png,1000,2.6785,29,4748,999,meters,jsons/v1_VE1000_randls_6_rotated.json,802683,1300364,29,Man
129,119902,DepthScenes,duration_manipulation_targetAtFixation,jsons/v1_VE1000_randls_6_rotated.json,http://54.235.29.9/FacialAge/BNav_EC2/DepthDuration/v2_depth_duration_MTurk/v2_DepthDuration_HTML.html#118,118,1280,1024,1280,1024,8-22-2022,4-59-4,130,depth_duration_stimuli/001110_2014-06-15_17-25-28_260595134347_rgbf000150-resize_1/001110_2014-06-15_17-25-28_260595134347_rgbf000150-resize_1-target.png,1000,1.7115,26,3634,1001,meters,jsons/v1_VE1000_randls_6_rotated.json,802683,1300364,29,Man
130,119902,DepthScenes,duration_manipulation_targetAtFixation,jsons/v1_VE1000_randls_6_rotated.json,http://54.235.29.9/FacialAge/BNav_EC2/DepthDuration/v2_depth_duration_MTurk/v2_DepthDuration_HTML.html#118,118,1280,1024,1280,1024,8-22-2022,4-59-4,131,depth_duration_stimuli/002637_2014-06-24_14-51-13_094959634447_rgbf000066-resize_4/002637_2014-06-24_14-51-13_094959634447_rgbf000066-resize_4-target.png,1000,1.9955,30,4245,1000,meters,jsons/v1_VE1000_randls_6_rotated.json,802683,1300364,29,Man
131,119902,DepthScenes,duration_manipulation_targetAtFixation,jsons/v1_VE1000_randls_6_rotated.json,http://54.235.29.9/FacialAge/BNav_EC2/DepthDuration/v2_depth_duration_MTurk/v2_DepthDuration_HTML.html#118,118,1280,1024,1280,1024,8-22-2022,4-59-4,132,depth_duration_stimuli/003534_2014-05-22_15-06-10_094959634447_rgbf000102-resize_4/003534_2014-05-22_15-06-10_094959634447_rgbf000102-resize_4-target.png,1000,1.426,17,3418,998,meters,jsons/v1_VE1000_randls_6_rotated.json,802683,1300364,29,Man
132,119902,DepthScenes,duration_manipulation_targetAtFixation,jsons/v1_VE1000_randls_6_rotated.json,http://54.235.29.9/FacialAge/BNav_EC2/DepthDuration/v2_depth_duration_MTurk/v2_DepthDuration_HTML.html#118,118,1280,1024,1280,1024,8-22-2022,4-59-4,133,depth_duration_stimuli/003490_2014-05-21_15-50-11_094959634447_rgbf000101-resize_3/003490_2014-05-21_15-50-11_094959634447_rgbf000101-resize_3-target.png,1000,3.6445,30,4273,1000,meters,jsons/v1_VE1000_randls_6_rotated.json,802683,1300364,29,Man
133,119902,DepthScenes,duration_manipulation_targetAtFixation,jsons/v1_VE1000_randls_6_rotated.json,http://54.235.29.9/FacialAge/BNav_EC2/DepthDuration/v2_depth_duration_MTurk/v2_DepthDuration_HTML.html#118,118,1280,1024,1280,1024,8-22-2022,4-59-4,134,depth_duration_stimuli/001175_2014-06-17_15-45-55_260595134347_rgbf000129-resize_4/001175_2014-06-17_15-45-55_260595134347_rgbf000129-resize_4-target.png,1000,4.255,34,3241,1000,meters,jsons/v1_VE1000_randls_6_rotated.json,802683,1300364,29,Man
134,119902,DepthScenes,duration_manipulation_targetAtFixation,jsons/v1_VE1000_randls_6_rotated.json,http://54.235.29.9/FacialAge/BNav_EC2/DepthDuration/v2_depth_duration_MTurk/v2_DepthDuration_HTML.html#118,118,1280,1024,1280,1024,8-22-2022,4-59-4,135,depth_duration_stimuli/000375_2014-06-08_11-17-29_260595134347_rgbf000133-resize_2/000375_2014-06-08_11-17-29_260595134347_rgbf000133-resize-original.jpg,1000,4.718,0,3258,999,meters,jsons/v1_VE1000_randls_6_rotated.json,802683,1300364,29,Man
135,119902,DepthScenes,duration_manipulation_targetAtFixation,jsons/v1_VE1000_randls_6_rotated.json,http://54.235.29.9/FacialAge/BNav_EC2/DepthDuration/v2_depth_duration_MTurk/v2_DepthDuration_HTML.html#118,118,1280,1024,1280,1024,8-22-2022,4-59-4,136,depth_duration_stimuli/000103_2014-05-14_22-01-17_260595134347_rgbf000152-resize_5/000103_2014-05-14_22-01-17_260595134347_rgbf000152-resize_5-target.png,1000,1.993,28,4245,1000,meters,jsons/v1_VE1000_randls_6_rotated.json,802683,1300364,29,Man
136,119902,DepthScenes,duration_manipulation_targetAtFixation,jsons/v1_VE1000_randls_6_rotated.json,http://54.235.29.9/FacialAge/BNav_EC2/DepthDuration/v2_depth_duration_MTurk/v2_DepthDuration_HTML.html#118,118,1280,1024,1280,1024,8-22-2022,4-59-4,137,depth_duration_stimuli/001555_2014-06-20_17-12-10_260595134347_rgbf000065-resize_4/001555_2014-06-20_17-12-10_260595134347_rgbf000065-resize_4-target.png,1000,1.633,18,5200,999,meters,jsons/v1_VE1000_randls_6_rotated.json,802683,1300364,29,Man
137,119902,DepthScenes,duration_manipulation_targetAtFixation,jsons/v1_VE1000_randls_6_rotated.json,http://54.235.29.9/FacialAge/BNav_EC2/DepthDuration/v2_depth_duration_MTurk/v2_DepthDuration_HTML.html#118,118,1280,1024,1280,1024,8-22-2022,4-59-4,138,depth_duration_stimuli/002136_2014-06-25_21-18-03_260595134347_rgbf000109-resize_3/002136_2014-06-25_21-18-03_260595134347_rgbf000109-resize_3-target.png,1000,1.9569999999999999,25,4759,999,meters,jsons/v1_VE1000_randls_6_rotated.json,802683,1300364,29,Man
138,119902,DepthScenes,duration_manipulation_targetAtFixation,jsons/v1_VE1000_randls_6_rotated.json,http://54.235.29.9/FacialAge/BNav_EC2/DepthDuration/v2_depth_duration_MTurk/v2_DepthDuration_HTML.html#118,118,1280,1024,1280,1024,8-22-2022,4-59-4,139,depth_duration_stimuli/002964_2014-06-08_17-46-11_094959634447_rgbf000091-resize_4/002964_2014-06-08_17-46-11_094959634447_rgbf000091-resize_4-target.png,1000,1.6909999999999998,20,3322,1005,meters,jsons/v1_VE1000_randls_6_rotated.json,802683,1300364,29,Man
139,119902,DepthScenes,duration_manipulation_targetAtFixation,jsons/v1_VE1000_randls_6_rotated.json,http://54.235.29.9/FacialAge/BNav_EC2/DepthDuration/v2_depth_duration_MTurk/v2_DepthDuration_HTML.html#118,118,1280,1024,1280,1024,8-22-2022,4-59-4,140,depth_duration_stimuli/002875_2014-06-01_15-19-00_094959634447_rgbf000151-resize_1/002875_2014-06-01_15-19-00_094959634447_rgbf000151-resize_1-target.png,1000,1.9675,32,5643,989,meters,jsons/v1_VE1000_randls_6_rotated.json,802683,1300364,29,Man
140,119902,DepthScenes,duration_manipulation_targetAtFixation,jsons/v1_VE1000_randls_6_rotated.json,http://54.235.29.9/FacialAge/BNav_EC2/DepthDuration/v2_depth_duration_MTurk/v2_DepthDuration_HTML.html#118,118,1280,1024,1280,1024,8-22-2022,4-59-4,141,depth_duration_stimuli/001011_2014-06-08_23-18-54_260595134347_rgbf000044-resize_4/001011_2014-06-08_23-18-54_260595134347_rgbf000044-resize_4-target.png,1000,2.4730000000000003,29,7333,1012,meters,jsons/v1_VE1000_randls_6_rotated.json,802683,1300364,29,Man
141,119902,DepthScenes,duration_manipulation_targetAtFixation,jsons/v1_VE1000_randls_6_rotated.json,http://54.235.29.9/FacialAge/BNav_EC2/DepthDuration/v2_depth_duration_MTurk/v2_DepthDuration_HTML.html#118,118,1280,1024,1280,1024,8-22-2022,4-59-4,142,depth_duration_stimuli/002568_2014-06-24_13-59-21_094959634447_rgbf000062-resize_4/002568_2014-06-24_13-59-21_094959634447_rgbf000062-resize_4-target.png,1000,3.015,30,4707,993,meters,jsons/v1_VE1000_randls_6_rotated.json,802683,1300364,29,Man
142,119902,DepthScenes,duration_manipulation_targetAtFixation,jsons/v1_VE1000_randls_6_rotated.json,http://54.235.29.9/FacialAge/BNav_EC2/DepthDuration/v2_depth_duration_MTurk/v2_DepthDuration_HTML.html#118,118,1280,1024,1280,1024,8-22-2022,4-59-4,143,depth_duration_stimuli/003492_2014-05-21_15-50-55_094959634447_rgbf000828-resize_1/003492_2014-05-21_15-50-55_094959634447_rgbf000828-resize_1-target.png,1000,4.06875,38,4199,999,meters,jsons/v1_VE1000_randls_6_rotated.json,802683,1300364,29,Man
143,119902,DepthScenes,duration_manipulation_targetAtFixation,jsons/v1_VE1000_randls_6_rotated.json,http://54.235.29.9/FacialAge/BNav_EC2/DepthDuration/v2_depth_duration_MTurk/v2_DepthDuration_HTML.html#118,118,1280,1024,1280,1024,8-22-2022,4-59-4,144,depth_duration_stimuli/000691_2014-06-08_13-08-50_260595134347_rgbf000132-resize_3/000691_2014-06-08_13-08-50_260595134347_rgbf000132-resize_3-target.png,1000,4.1530000000000005,37,4612,1001,meters,jsons/v1_VE1000_randls_6_rotated.json,802683,1300364,29,Man
144,119902,DepthScenes,duration_manipulation_targetAtFixation,jsons/v1_VE1000_randls_6_rotated.json,http://54.235.29.9/FacialAge/BNav_EC2/DepthDuration/v2_depth_duration_MTurk/v2_DepthDuration_HTML.html#118,118,1280,1024,1280,1024,8-22-2022,4-59-4,145,depth_duration_stimuli/002213_2014-06-28_18-37-58_260595134347_rgbf000055-resize_1/002213_2014-06-28_18-37-58_260595134347_rgbf000055-resize_1-target.png,1000,3.62,35,3476,1000,meters,jsons/v1_VE1000_randls_6_rotated.json,802683,1300364,29,Man
145,119902,DepthScenes,duration_manipulation_targetAtFixation,jsons/v1_VE1000_randls_6_rotated.json,http://54.235.29.9/FacialAge/BNav_EC2/DepthDuration/v2_depth_duration_MTurk/v2_DepthDuration_HTML.html#118,118,1280,1024,1280,1024,8-22-2022,4-59-4,146,depth_duration_stimuli/002995_2014-06-15_12-31-26_094959634447_rgbf000150-resize_1/002995_2014-06-15_12-31-26_094959634447_rgbf000150-resize_1-target.png,1000,3.8360000000000003,36,3962,1000,meters,jsons/v1_VE1000_randls_6_rotated.json,802683,1300364,29,Man
146,119902,DepthScenes,duration_manipulation_targetAtFixation,jsons/v1_VE1000_randls_6_rotated.json,http://54.235.29.9/FacialAge/BNav_EC2/DepthDuration/v2_depth_duration_MTurk/v2_DepthDuration_HTML.html#118,118,1280,1024,1280,1024,8-22-2022,4-59-4,147,depth_duration_stimuli/002748_2014-06-22_19-07-22_094959634447_rgbf000078-resize_1/002748_2014-06-22_19-07-22_094959634447_rgbf000078-resize_1-target.png,1000,4.6705,38,3313,1001,meters,jsons/v1_VE1000_randls_6_rotated.json,802683,1300364,29,Man
147,119902,DepthScenes,duration_manipulation_targetAtFixation,jsons/v1_VE1000_randls_6_rotated.json,http://54.235.29.9/FacialAge/BNav_EC2/DepthDuration/v2_depth_duration_MTurk/v2_DepthDuration_HTML.html#118,118,1280,1024,1280,1024,8-22-2022,4-59-4,148,depth_duration_stimuli/001052_2014-06-08_18-24-54_260595134347_rgbf000130-resize_1/001052_2014-06-08_18-24-54_260595134347_rgbf000130-resize_1-target.png,1000,4.1045,37,4097,999,meters,jsons/v1_VE1000_randls_6_rotated.json,802683,1300364,29,Man
148,119902,DepthScenes,duration_manipulation_targetAtFixation,jsons/v1_VE1000_randls_6_rotated.json,http://54.235.29.9/FacialAge/BNav_EC2/DepthDuration/v2_depth_duration_MTurk/v2_DepthDuration_HTML.html#118,118,1280,1024,1280,1024,8-22-2022,4-59-4,149,depth_duration_stimuli/002988_2014-06-15_12-24-20_094959634447_rgbf000150-resize_1/002988_2014-06-15_12-24-20_094959634447_rgbf000150-resize_1-target.png,1000,4.7669999999999995,39,3445,1001,meters,jsons/v1_VE1000_randls_6_rotated.json,802683,1300364,29,Man
149,119902,DepthScenes,duration_manipulation_targetAtFixation,jsons/v1_VE1000_randls_6_rotated.json,http://54.235.29.9/FacialAge/BNav_EC2/DepthDuration/v2_depth_duration_MTurk/v2_DepthDuration_HTML.html#118,118,1280,1024,1280,1024,8-22-2022,4-59-4,150,depth_duration_stimuli/001100_2014-06-15_17-46-26_260595134347_rgbf000225-resize_2/001100_2014-06-15_17-46-26_260595134347_rgbf000225-resize_2-target.png,1000,2.24,25,3786,1001,meters,jsons/v1_VE1000_randls_6_rotated.json,802683,1300364,29,Man
150,119902,DepthScenes,duration_manipulation_targetAtFixation,jsons/v1_VE1000_randls_6_rotated.json,http://54.235.29.9/FacialAge/BNav_EC2/DepthDuration/v2_depth_duration_MTurk/v2_DepthDuration_HTML.html#118,118,1280,1024,1280,1024,8-22-2022,4-59-4,151,depth_duration_stimuli/002784_2014-06-22_19-26-30_094959634447_rgbf000083-resize_3/002784_2014-06-22_19-26-30_094959634447_rgbf000083-resize_3-target.png,1000,1.8046666666667,24,3351,999,meters,jsons/v1_VE1000_randls_6_rotated.json,802683,1300364,29,Man
151,119902,DepthScenes,duration_manipulation_targetAtFixation,jsons/v1_VE1000_randls_6_rotated.json,http://54.235.29.9/FacialAge/BNav_EC2/DepthDuration/v2_depth_duration_MTurk/v2_DepthDuration_HTML.html#118,118,1280,1024,1280,1024,8-22-2022,4-59-4,152,depth_duration_stimuli/000569_2014-06-09_22-51-47_260595134347_rgbf000141-resize_3/000569_2014-06-09_22-51-47_260595134347_rgbf000141-resize-original.jpg,1000,4.512,0,3324,1006,meters,jsons/v1_VE1000_randls_6_rotated.json,802683,1300364,29,Man
152,119902,DepthScenes,duration_manipulation_targetAtFixation,jsons/v1_VE1000_randls_6_rotated.json,http://54.235.29.9/FacialAge/BNav_EC2/DepthDuration/v2_depth_duration_MTurk/v2_DepthDuration_HTML.html#118,118,1280,1024,1280,1024,8-22-2022,4-59-4,153,depth_duration_stimuli/002758_2014-06-22_19-11-20_094959634447_rgbf000128-resize_1/002758_2014-06-22_19-11-20_094959634447_rgbf000128-resize_1-target.png,1000,2.555,27,4395,1000,meters,jsons/v1_VE1000_randls_6_rotated.json,802683,1300364,29,Man
153,119902,DepthScenes,duration_manipulation_targetAtFixation,jsons/v1_VE1000_randls_6_rotated.json,http://54.235.29.9/FacialAge/BNav_EC2/DepthDuration/v2_depth_duration_MTurk/v2_DepthDuration_HTML.html#118,118,1280,1024,1280,1024,8-22-2022,4-59-4,154,depth_duration_stimuli/002630_2014-06-24_14-47-50_094959634447_rgbf000055-resize_1/002630_2014-06-24_14-47-50_094959634447_rgbf000055-resize_1-target.png,1000,3.0095,30,3286,1000,meters,jsons/v1_VE1000_randls_6_rotated.json,802683,1300364,29,Man
154,119902,DepthScenes,duration_manipulation_targetAtFixation,jsons/v1_VE1000_randls_6_rotated.json,http://54.235.29.9/FacialAge/BNav_EC2/DepthDuration/v2_depth_duration_MTurk/v2_DepthDuration_HTML.html#118,118,1280,1024,1280,1024,8-22-2022,4-59-4,155,depth_duration_stimuli/001571_2014-06-20_17-21-32_260595134347_rgbf000089-resize_1/001571_2014-06-20_17-21-32_260595134347_rgbf000089-resize_1-target.png,1000,1.86,35,4290,1000,meters,jsons/v1_VE1000_randls_6_rotated.json,802683,1300364,29,Man
155,119902,DepthScenes,duration_manipulation_targetAtFixation,jsons/v1_VE1000_randls_6_rotated.json,http://54.235.29.9/FacialAge/BNav_EC2/DepthDuration/v2_depth_duration_MTurk/v2_DepthDuration_HTML.html#118,118,1280,1024,1280,1024,8-22-2022,4-59-4,156,depth_duration_stimuli/002272_2014-06-28_18-53-56_260595134347_rgbf000067-resize_2/002272_2014-06-28_18-53-56_260595134347_rgbf000067-resize_2-target.png,1000,1.138,22,3260,1000,meters,jsons/v1_VE1000_randls_6_rotated.json,802683,1300364,29,Man
156,119902,DepthScenes,duration_manipulation_targetAtFixation,jsons/v1_VE1000_randls_6_rotated.json,http://54.235.29.9/FacialAge/BNav_EC2/DepthDuration/v2_depth_duration_MTurk/v2_DepthDuration_HTML.html#118,118,1280,1024,1280,1024,8-22-2022,4-59-4,157,depth_duration_stimuli/001450_2014-06-19_17-02-03_260595134347_rgbf000203-resize_4/001450_2014-06-19_17-02-03_260595134347_rgbf000203-resize_4-target.png,1000,4.0106666666667,35,4165,1000,meters,jsons/v1_VE1000_randls_6_rotated.json,802683,1300364,29,Man
157,119902,DepthScenes,duration_manipulation_targetAtFixation,jsons/v1_VE1000_randls_6_rotated.json,http://54.235.29.9/FacialAge/BNav_EC2/DepthDuration/v2_depth_duration_MTurk/v2_DepthDuration_HTML.html#118,118,1280,1024,1280,1024,8-22-2022,4-59-4,158,depth_duration_stimuli/001449_2014-06-19_17-01-27_260595134347_rgbf000116-resize_2/001449_2014-06-19_17-01-27_260595134347_rgbf000116-resize_2-target.png,1000,3.452,38,3911,994,meters,jsons/v1_VE1000_randls_6_rotated.json,802683,1300364,29,Man
158,119902,DepthScenes,duration_manipulation_targetAtFixation,jsons/v1_VE1000_randls_6_rotated.json,http://54.235.29.9/FacialAge/BNav_EC2/DepthDuration/v2_depth_duration_MTurk/v2_DepthDuration_HTML.html#118,118,1280,1024,1280,1024,8-22-2022,4-59-4,159,depth_duration_stimuli/002425_2014-06-28_20-27-29_260595134347_rgbf000031-resize_8/002425_2014-06-28_20-27-29_260595134347_rgbf000031-resize_8-target.png,1000,3.8960000000000004,38,3825,1000,meters,jsons/v1_VE1000_randls_6_rotated.json,802683,1300364,29,Man
159,119902,DepthScenes,duration_manipulation_targetAtFixation,jsons/v1_VE1000_randls_6_rotated.json,http://54.235.29.9/FacialAge/BNav_EC2/DepthDuration/v2_depth_duration_MTurk/v2_DepthDuration_HTML.html#118,118,1280,1024,1280,1024,8-22-2022,4-59-4,160,depth_duration_stimuli/000642_2014-06-08_16-59-25_260595134347_rgbf000098-resize_2/000642_2014-06-08_16-59-25_260595134347_rgbf000098-resize_2-target.png,1000,2.8815,29,3672,999,meters,jsons/v1_VE1000_randls_6_rotated.json,802683,1300364,29,Man
160,119902,DepthScenes,duration_manipulation_targetAtFixation,jsons/v1_VE1000_randls_6_rotated.json,http://54.235.29.9/FacialAge/BNav_EC2/DepthDuration/v2_depth_duration_MTurk/v2_DepthDuration_HTML.html#118,118,1280,1024,1280,1024,8-22-2022,4-59-4,161,depth_duration_stimuli/003423_2014-05-21_10-23-26_094959634447_rgbf002665-resize_2/003423_2014-05-21_10-23-26_094959634447_rgbf002665-resize_2-target.png,1000,3.2575,34,3806,1000,meters,jsons/v1_VE1000_randls_6_rotated.json,802683,1300364,29,Man
161,119902,DepthScenes,duration_manipulation_targetAtFixation,jsons/v1_VE1000_randls_6_rotated.json,http://54.235.29.9/FacialAge/BNav_EC2/DepthDuration/v2_depth_duration_MTurk/v2_DepthDuration_HTML.html#118,118,1280,1024,1280,1024,8-22-2022,4-59-4,162,depth_duration_stimuli/002905_2014-06-03_18-04-43_094959634447_rgbf000151-resize_2/002905_2014-06-03_18-04-43_094959634447_rgbf000151-resize_2-target.png,1000,2.0295,27,3419,993,meters,jsons/v1_VE1000_randls_6_rotated.json,802683,1300364,29,Man
162,119902,DepthScenes,duration_manipulation_targetAtFixation,jsons/v1_VE1000_randls_6_rotated.json,http://54.235.29.9/FacialAge/BNav_EC2/DepthDuration/v2_depth_duration_MTurk/v2_DepthDuration_HTML.html#118,118,1280,1024,1280,1024,8-22-2022,4-59-4,163,depth_duration_stimuli/000409_2014-06-04_19-23-33_260595134347_rgbf000067-resize_0/000409_2014-06-04_19-23-33_260595134347_rgbf000067-resize_0-target.png,1000,3.7335,30,3467,999,meters,jsons/v1_VE1000_randls_6_rotated.json,802683,1300364,29,Man
163,119902,DepthScenes,duration_manipulation_targetAtFixation,jsons/v1_VE1000_randls_6_rotated.json,http://54.235.29.9/FacialAge/BNav_EC2/DepthDuration/v2_depth_duration_MTurk/v2_DepthDuration_HTML.html#118,118,1280,1024,1280,1024,8-22-2022,4-59-4,164,depth_duration_stimuli/002663_2014-06-13_15-50-26_094959634447_rgbf000075-resize_1/002663_2014-06-13_15-50-26_094959634447_rgbf000075-resize_1-target.png,1000,4.7495,36,3268,1000,meters,jsons/v1_VE1000_randls_6_rotated.json,802683,1300364,29,Man
