,subjID,experimentName,versionName,sequenceName,url,selected_row,windowWidth,windowHeight,screenWidth,screenHeight,startDate,startTime,trial,stimulus,duration,actual_depth,depth_estimate,trial_RT,log_sceneDuration,unitSelection,seq_filepath,experimentTime,totalTime,age,gender
0,123650,DepthScenes,duration_manipulation_targetAtFixation,jsons/v1_VE1000_randls_23_rotated.json,http://54.235.29.9/FacialAge/BNav_EC2/DepthDuration/v2_depth_duration_MTurk/v2_DepthDuration_HTML.html#216,216,1365,657,1366,768,9-3-2022,22-18-2,1,depth_duration_stimuli/002637_2014-06-24_14-51-13_094959634447_rgbf000066-resize_4/002637_2014-06-24_14-51-13_094959634447_rgbf000066-resize_4-target.png,1000,1.9955,0,4085,1003,meters,jsons/v1_VE1000_randls_23_rotated.json,491033,610701,34,Man
1,123650,DepthScenes,duration_manipulation_targetAtFixation,jsons/v1_VE1000_randls_23_rotated.json,http://54.235.29.9/FacialAge/BNav_EC2/DepthDuration/v2_depth_duration_MTurk/v2_DepthDuration_HTML.html#216,216,1365,657,1366,768,9-3-2022,22-18-2,2,depth_duration_stimuli/003534_2014-05-22_15-06-10_094959634447_rgbf000102-resize_4/003534_2014-05-22_15-06-10_094959634447_rgbf000102-resize_4-target.png,1000,1.426,0,6746,1417,meters,jsons/v1_VE1000_randls_23_rotated.json,491033,610701,34,Man
2,123650,DepthScenes,duration_manipulation_targetAtFixation,jsons/v1_VE1000_randls_23_rotated.json,http://54.235.29.9/FacialAge/BNav_EC2/DepthDuration/v2_depth_duration_MTurk/v2_DepthDuration_HTML.html#216,216,1365,657,1366,768,9-3-2022,22-18-2,3,depth_duration_stimuli/000502_2014-06-08_23-02-32_260595134347_rgbf000063-resize_4/000502_2014-06-08_23-02-32_260595134347_rgbf000063-resize_4-target.png,1000,2.431,0,2675,1003,meters,jsons/v1_VE1000_randls_23_rotated.json,491033,610701,34,Man
3,123650,DepthScenes,duration_manipulation_targetAtFixation,jsons/v1_VE1000_randls_23_rotated.json,http://54.235.29.9/FacialAge/BNav_EC2/DepthDuration/v2_depth_duration_MTurk/v2_DepthDuration_HTML.html#216,216,1365,657,1366,768,9-3-2022,22-18-2,4,depth_duration_stimuli/001199_2014-06-17_16-03-48_260595134347_rgbf000077-resize_0/001199_2014-06-17_16-03-48_260595134347_rgbf000077-resize_0-target.png,1000,3.4375,0,2373,999,meters,jsons/v1_VE1000_randls_23_rotated.json,491033,610701,34,Man
4,123650,DepthScenes,duration_manipulation_targetAtFixation,jsons/v1_VE1000_randls_23_rotated.json,http://54.235.29.9/FacialAge/BNav_EC2/DepthDuration/v2_depth_duration_MTurk/v2_DepthDuration_HTML.html#216,216,1365,657,1366,768,9-3-2022,22-18-2,5,depth_duration_stimuli/001584_2014-06-20_11-07-43_260595134347_rgbf000002-resize_1/001584_2014-06-20_11-07-43_260595134347_rgbf000002-resize_1-target.png,1000,3.53,0,2447,992,meters,jsons/v1_VE1000_randls_23_rotated.json,491033,610701,34,Man
5,123650,DepthScenes,duration_manipulation_targetAtFixation,jsons/v1_VE1000_randls_23_rotated.json,http://54.235.29.9/FacialAge/BNav_EC2/DepthDuration/v2_depth_duration_MTurk/v2_DepthDuration_HTML.html#216,216,1365,657,1366,768,9-3-2022,22-18-2,6,depth_duration_stimuli/003621_2014-05-23_18-06-08_094959634447_rgbf000101-resize_1/003621_2014-05-23_18-06-08_094959634447_rgbf000101-resize_1-target.png,1000,3.9835,0,2343,1006,meters,jsons/v1_VE1000_randls_23_rotated.json,491033,610701,34,Man
6,123650,DepthScenes,duration_manipulation_targetAtFixation,jsons/v1_VE1000_randls_23_rotated.json,http://54.235.29.9/FacialAge/BNav_EC2/DepthDuration/v2_depth_duration_MTurk/v2_DepthDuration_HTML.html#216,216,1365,657,1366,768,9-3-2022,22-18-2,7,depth_duration_stimuli/001392_2014-06-19_16-07-59_260595134347_rgbf000046-resize_1/001392_2014-06-19_16-07-59_260595134347_rgbf000046-resize_1-target.png,1000,4.135,0,2647,998,meters,jsons/v1_VE1000_randls_23_rotated.json,491033,610701,34,Man
7,123650,DepthScenes,duration_manipulation_targetAtFixation,jsons/v1_VE1000_randls_23_rotated.json,http://54.235.29.9/FacialAge/BNav_EC2/DepthDuration/v2_depth_duration_MTurk/v2_DepthDuration_HTML.html#216,216,1365,657,1366,768,9-3-2022,22-18-2,8,depth_duration_stimuli/001570_2014-06-20_17-21-09_260595134347_rgbf000135-resize_4/001570_2014-06-20_17-21-09_260595134347_rgbf000135-resize_4-target.png,1000,4.467,0,2273,983,meters,jsons/v1_VE1000_randls_23_rotated.json,491033,610701,34,Man
8,123650,DepthScenes,duration_manipulation_targetAtFixation,jsons/v1_VE1000_randls_23_rotated.json,http://54.235.29.9/FacialAge/BNav_EC2/DepthDuration/v2_depth_duration_MTurk/v2_DepthDuration_HTML.html#216,216,1365,657,1366,768,9-3-2022,22-18-2,9,depth_duration_stimuli/001815_2014-06-26_20-52-55_260595134347_rgbf000020-resize_0/001815_2014-06-26_20-52-55_260595134347_rgbf000020-resize_0-target.png,1000,3.3865,0,2298,998,meters,jsons/v1_VE1000_randls_23_rotated.json,491033,610701,34,Man
9,123650,DepthScenes,duration_manipulation_targetAtFixation,jsons/v1_VE1000_randls_23_rotated.json,http://54.235.29.9/FacialAge/BNav_EC2/DepthDuration/v2_depth_duration_MTurk/v2_DepthDuration_HTML.html#216,216,1365,657,1366,768,9-3-2022,22-18-2,10,depth_duration_stimuli/001808_2014-06-26_20-50-58_260595134347_rgbf000029-resize_1/001808_2014-06-26_20-50-58_260595134347_rgbf000029-resize_1-target.png,1000,4.249,0,2872,998,meters,jsons/v1_VE1000_randls_23_rotated.json,491033,610701,34,Man
10,123650,DepthScenes,duration_manipulation_targetAtFixation,jsons/v1_VE1000_randls_23_rotated.json,http://54.235.29.9/FacialAge/BNav_EC2/DepthDuration/v2_depth_duration_MTurk/v2_DepthDuration_HTML.html#216,216,1365,657,1366,768,9-3-2022,22-18-2,11,depth_duration_stimuli/002995_2014-06-15_12-31-26_094959634447_rgbf000150-resize_1/002995_2014-06-15_12-31-26_094959634447_rgbf000150-resize_1-target.png,1000,3.8360000000000003,0,2358,995,meters,jsons/v1_VE1000_randls_23_rotated.json,491033,610701,34,Man
11,123650,DepthScenes,duration_manipulation_targetAtFixation,jsons/v1_VE1000_randls_23_rotated.json,http://54.235.29.9/FacialAge/BNav_EC2/DepthDuration/v2_depth_duration_MTurk/v2_DepthDuration_HTML.html#216,216,1365,657,1366,768,9-3-2022,22-18-2,12,depth_duration_stimuli/002748_2014-06-22_19-07-22_094959634447_rgbf000078-resize_1/002748_2014-06-22_19-07-22_094959634447_rgbf000078-resize_1-target.png,1000,4.6705,0,2460,999,meters,jsons/v1_VE1000_randls_23_rotated.json,491033,610701,34,Man
12,123650,DepthScenes,duration_manipulation_targetAtFixation,jsons/v1_VE1000_randls_23_rotated.json,http://54.235.29.9/FacialAge/BNav_EC2/DepthDuration/v2_depth_duration_MTurk/v2_DepthDuration_HTML.html#216,216,1365,657,1366,768,9-3-2022,22-18-2,13,depth_duration_stimuli/000549_2014-06-08_22-10-24_260595134347_rgbf000247-resize_3/000549_2014-06-08_22-10-24_260595134347_rgbf000247-resize_3-target.png,1000,1.841,0,2328,993,meters,jsons/v1_VE1000_randls_23_rotated.json,491033,610701,34,Man
13,123650,DepthScenes,duration_manipulation_targetAtFixation,jsons/v1_VE1000_randls_23_rotated.json,http://54.235.29.9/FacialAge/BNav_EC2/DepthDuration/v2_depth_duration_MTurk/v2_DepthDuration_HTML.html#216,216,1365,657,1366,768,9-3-2022,22-18-2,14,depth_duration_stimuli/001055_2014-06-08_18-45-35_260595134347_rgbf000111-resize_4/001055_2014-06-08_18-45-35_260595134347_rgbf000111-resize_4-target.png,1000,2.4290000000000003,0,2204,1002,meters,jsons/v1_VE1000_randls_23_rotated.json,491033,610701,34,Man
14,123650,DepthScenes,duration_manipulation_targetAtFixation,jsons/v1_VE1000_randls_23_rotated.json,http://54.235.29.9/FacialAge/BNav_EC2/DepthDuration/v2_depth_duration_MTurk/v2_DepthDuration_HTML.html#216,216,1365,657,1366,768,9-3-2022,22-18-2,15,depth_duration_stimuli/001571_2014-06-20_17-21-32_260595134347_rgbf000089-resize_1/001571_2014-06-20_17-21-32_260595134347_rgbf000089-resize_1-target.png,1000,1.86,0,3626,1000,meters,jsons/v1_VE1000_randls_23_rotated.json,491033,610701,34,Man
15,123650,DepthScenes,duration_manipulation_targetAtFixation,jsons/v1_VE1000_randls_23_rotated.json,http://54.235.29.9/FacialAge/BNav_EC2/DepthDuration/v2_depth_duration_MTurk/v2_DepthDuration_HTML.html#216,216,1365,657,1366,768,9-3-2022,22-18-2,16,depth_duration_stimuli/002272_2014-06-28_18-53-56_260595134347_rgbf000067-resize_2/002272_2014-06-28_18-53-56_260595134347_rgbf000067-resize_2-target.png,1000,1.138,0,2326,999,meters,jsons/v1_VE1000_randls_23_rotated.json,491033,610701,34,Man
16,123650,DepthScenes,duration_manipulation_targetAtFixation,jsons/v1_VE1000_randls_23_rotated.json,http://54.235.29.9/FacialAge/BNav_EC2/DepthDuration/v2_depth_duration_MTurk/v2_DepthDuration_HTML.html#216,216,1365,657,1366,768,9-3-2022,22-18-2,17,depth_duration_stimuli/001516_2014-06-20_16-25-09_260595134347_rgbf000076-resize_2/001516_2014-06-20_16-25-09_260595134347_rgbf000076-resize_2-target.png,1000,1.7445,0,2420,992,meters,jsons/v1_VE1000_randls_23_rotated.json,491033,610701,34,Man
17,123650,DepthScenes,duration_manipulation_targetAtFixation,jsons/v1_VE1000_randls_23_rotated.json,http://54.235.29.9/FacialAge/BNav_EC2/DepthDuration/v2_depth_duration_MTurk/v2_DepthDuration_HTML.html#216,216,1365,657,1366,768,9-3-2022,22-18-2,18,depth_duration_stimuli/002118_2014-06-25_20-32-08_260595134347_rgbf000078-resize_1/002118_2014-06-25_20-32-08_260595134347_rgbf000078-resize_1-target.png,1000,2.6460000000000004,0,2397,995,meters,jsons/v1_VE1000_randls_23_rotated.json,491033,610701,34,Man
18,123650,DepthScenes,duration_manipulation_targetAtFixation,jsons/v1_VE1000_randls_23_rotated.json,http://54.235.29.9/FacialAge/BNav_EC2/DepthDuration/v2_depth_duration_MTurk/v2_DepthDuration_HTML.html#216,216,1365,657,1366,768,9-3-2022,22-18-2,19,depth_duration_stimuli/001498_2014-06-19_17-45-14_260595134347_rgbf000129-resize_4/001498_2014-06-19_17-45-14_260595134347_rgbf000129-resize-original.jpg,1000,1.4075,0,2404,1011,meters,jsons/v1_VE1000_randls_23_rotated.json,491033,610701,34,Man
19,123650,DepthScenes,duration_manipulation_targetAtFixation,jsons/v1_VE1000_randls_23_rotated.json,http://54.235.29.9/FacialAge/BNav_EC2/DepthDuration/v2_depth_duration_MTurk/v2_DepthDuration_HTML.html#216,216,1365,657,1366,768,9-3-2022,22-18-2,20,depth_duration_stimuli/000866_2014-06-09_20-45-42_260595134347_rgbf000139-resize_1/000866_2014-06-09_20-45-42_260595134347_rgbf000139-resize_1-target.png,1000,3.2155,0,2494,999,meters,jsons/v1_VE1000_randls_23_rotated.json,491033,610701,34,Man
20,123650,DepthScenes,duration_manipulation_targetAtFixation,jsons/v1_VE1000_randls_23_rotated.json,http://54.235.29.9/FacialAge/BNav_EC2/DepthDuration/v2_depth_duration_MTurk/v2_DepthDuration_HTML.html#216,216,1365,657,1366,768,9-3-2022,22-18-2,21,depth_duration_stimuli/002989_2014-06-15_12-25-03_094959634447_rgbf000150-resize_3/002989_2014-06-15_12-25-03_094959634447_rgbf000150-resize_3-target.png,1000,4.1975,0,2909,1005,meters,jsons/v1_VE1000_randls_23_rotated.json,491033,610701,34,Man
21,123650,DepthScenes,duration_manipulation_targetAtFixation,jsons/v1_VE1000_randls_23_rotated.json,http://54.235.29.9/FacialAge/BNav_EC2/DepthDuration/v2_depth_duration_MTurk/v2_DepthDuration_HTML.html#216,216,1365,657,1366,768,9-3-2022,22-18-2,22,depth_duration_stimuli/000691_2014-06-08_13-08-50_260595134347_rgbf000132-resize_3/000691_2014-06-08_13-08-50_260595134347_rgbf000132-resize_3-target.png,1000,4.1530000000000005,0,2641,986,meters,jsons/v1_VE1000_randls_23_rotated.json,491033,610701,34,Man
22,123650,DepthScenes,duration_manipulation_targetAtFixation,jsons/v1_VE1000_randls_23_rotated.json,http://54.235.29.9/FacialAge/BNav_EC2/DepthDuration/v2_depth_duration_MTurk/v2_DepthDuration_HTML.html#216,216,1365,657,1366,768,9-3-2022,22-18-2,23,depth_duration_stimuli/002213_2014-06-28_18-37-58_260595134347_rgbf000055-resize_1/002213_2014-06-28_18-37-58_260595134347_rgbf000055-resize_1-target.png,1000,3.62,0,2553,984,meters,jsons/v1_VE1000_randls_23_rotated.json,491033,610701,34,Man
23,123650,DepthScenes,duration_manipulation_targetAtFixation,jsons/v1_VE1000_randls_23_rotated.json,http://54.235.29.9/FacialAge/BNav_EC2/DepthDuration/v2_depth_duration_MTurk/v2_DepthDuration_HTML.html#216,216,1365,657,1366,768,9-3-2022,22-18-2,24,depth_duration_stimuli/001136_2014-06-17_15-19-41_260595134347_rgbf000076-resize_3/001136_2014-06-17_15-19-41_260595134347_rgbf000076-resize_3-target.png,1000,1.8655,0,2741,996,meters,jsons/v1_VE1000_randls_23_rotated.json,491033,610701,34,Man
24,123650,DepthScenes,duration_manipulation_targetAtFixation,jsons/v1_VE1000_randls_23_rotated.json,http://54.235.29.9/FacialAge/BNav_EC2/DepthDuration/v2_depth_duration_MTurk/v2_DepthDuration_HTML.html#216,216,1365,657,1366,768,9-3-2022,22-18-2,25,depth_duration_stimuli/001164_2014-06-17_15-35-46_260595134347_rgbf000085-resize_3/001164_2014-06-17_15-35-46_260595134347_rgbf000085-resize_3-target.png,1000,2.354,0,2543,1011,meters,jsons/v1_VE1000_randls_23_rotated.json,491033,610701,34,Man
25,123650,DepthScenes,duration_manipulation_targetAtFixation,jsons/v1_VE1000_randls_23_rotated.json,http://54.235.29.9/FacialAge/BNav_EC2/DepthDuration/v2_depth_duration_MTurk/v2_DepthDuration_HTML.html#216,216,1365,657,1366,768,9-3-2022,22-18-2,26,depth_duration_stimuli/000103_2014-05-14_22-01-17_260595134347_rgbf000152-resize_5/000103_2014-05-14_22-01-17_260595134347_rgbf000152-resize_5-target.png,1000,1.993,0,2336,994,meters,jsons/v1_VE1000_randls_23_rotated.json,491033,610701,34,Man
26,123650,DepthScenes,duration_manipulation_targetAtFixation,jsons/v1_VE1000_randls_23_rotated.json,http://54.235.29.9/FacialAge/BNav_EC2/DepthDuration/v2_depth_duration_MTurk/v2_DepthDuration_HTML.html#216,216,1365,657,1366,768,9-3-2022,22-18-2,27,depth_duration_stimuli/001555_2014-06-20_17-12-10_260595134347_rgbf000065-resize_4/001555_2014-06-20_17-12-10_260595134347_rgbf000065-resize_4-target.png,1000,1.633,0,2335,997,meters,jsons/v1_VE1000_randls_23_rotated.json,491033,610701,34,Man
27,123650,DepthScenes,duration_manipulation_targetAtFixation,jsons/v1_VE1000_randls_23_rotated.json,http://54.235.29.9/FacialAge/BNav_EC2/DepthDuration/v2_depth_duration_MTurk/v2_DepthDuration_HTML.html#216,216,1365,657,1366,768,9-3-2022,22-18-2,28,depth_duration_stimuli/002467_2014-06-28_20-38-07_260595134347_rgbf000026-resize_2/002467_2014-06-28_20-38-07_260595134347_rgbf000026-resize_2-target.png,1000,4.742,0,2305,1006,meters,jsons/v1_VE1000_randls_23_rotated.json,491033,610701,34,Man
28,123650,DepthScenes,duration_manipulation_targetAtFixation,jsons/v1_VE1000_randls_23_rotated.json,http://54.235.29.9/FacialAge/BNav_EC2/DepthDuration/v2_depth_duration_MTurk/v2_DepthDuration_HTML.html#216,216,1365,657,1366,768,9-3-2022,22-18-2,29,depth_duration_stimuli/002570_2014-06-24_13-59-54_094959634447_rgbf000059-resize_0/002570_2014-06-24_13-59-54_094959634447_rgbf000059-resize_0-target.png,1000,4.037,0,2192,1002,meters,jsons/v1_VE1000_randls_23_rotated.json,491033,610701,34,Man
29,123650,DepthScenes,duration_manipulation_targetAtFixation,jsons/v1_VE1000_randls_23_rotated.json,http://54.235.29.9/FacialAge/BNav_EC2/DepthDuration/v2_depth_duration_MTurk/v2_DepthDuration_HTML.html#216,216,1365,657,1366,768,9-3-2022,22-18-2,30,depth_duration_stimuli/002072_2014-06-24_21-48-06_260595134347_rgbf000115-resize_0/002072_2014-06-24_21-48-06_260595134347_rgbf000115-resize-original.jpg,1000,4.702,0,2174,1000,meters,jsons/v1_VE1000_randls_23_rotated.json,491033,610701,34,Man
30,123650,DepthScenes,duration_manipulation_targetAtFixation,jsons/v1_VE1000_randls_23_rotated.json,http://54.235.29.9/FacialAge/BNav_EC2/DepthDuration/v2_depth_duration_MTurk/v2_DepthDuration_HTML.html#216,216,1365,657,1366,768,9-3-2022,22-18-2,31,depth_duration_stimuli/000749_2014-06-08_21-55-06_260595134347_rgbf000070-resize_2/000749_2014-06-08_21-55-06_260595134347_rgbf000070-resize_2-target.png,1000,2.331,0,3244,1005,meters,jsons/v1_VE1000_randls_23_rotated.json,491033,610701,34,Man
31,123650,DepthScenes,duration_manipulation_targetAtFixation,jsons/v1_VE1000_randls_23_rotated.json,http://54.235.29.9/FacialAge/BNav_EC2/DepthDuration/v2_depth_duration_MTurk/v2_DepthDuration_HTML.html#216,216,1365,657,1366,768,9-3-2022,22-18-2,32,depth_duration_stimuli/002788_2014-06-22_19-36-03_094959634447_rgbf000088-resize_2/002788_2014-06-22_19-36-03_094959634447_rgbf000088-resize_2-target.png,1000,1.6465,0,2272,1006,meters,jsons/v1_VE1000_randls_23_rotated.json,491033,610701,34,Man
32,123650,DepthScenes,duration_manipulation_targetAtFixation,jsons/v1_VE1000_randls_23_rotated.json,http://54.235.29.9/FacialAge/BNav_EC2/DepthDuration/v2_depth_duration_MTurk/v2_DepthDuration_HTML.html#216,216,1365,657,1366,768,9-3-2022,22-18-2,33,depth_duration_stimuli/002568_2014-06-24_13-59-21_094959634447_rgbf000062-resize_4/002568_2014-06-24_13-59-21_094959634447_rgbf000062-resize_4-target.png,1000,3.015,0,3263,997,meters,jsons/v1_VE1000_randls_23_rotated.json,491033,610701,34,Man
33,123650,DepthScenes,duration_manipulation_targetAtFixation,jsons/v1_VE1000_randls_23_rotated.json,http://54.235.29.9/FacialAge/BNav_EC2/DepthDuration/v2_depth_duration_MTurk/v2_DepthDuration_HTML.html#216,216,1365,657,1366,768,9-3-2022,22-18-2,34,depth_duration_stimuli/003492_2014-05-21_15-50-55_094959634447_rgbf000828-resize_1/003492_2014-05-21_15-50-55_094959634447_rgbf000828-resize_1-target.png,1000,4.06875,0,7852,1871,meters,jsons/v1_VE1000_randls_23_rotated.json,491033,610701,34,Man
34,123650,DepthScenes,duration_manipulation_targetAtFixation,jsons/v1_VE1000_randls_23_rotated.json,http://54.235.29.9/FacialAge/BNav_EC2/DepthDuration/v2_depth_duration_MTurk/v2_DepthDuration_HTML.html#216,216,1365,657,1366,768,9-3-2022,22-18-2,35,depth_duration_stimuli/000854_2014-06-09_19-43-13_260595134347_rgbf000066-resize_0/000854_2014-06-09_19-43-13_260595134347_rgbf000066-resize_0-target.png,1000,3.068,0,2354,996,meters,jsons/v1_VE1000_randls_23_rotated.json,491033,610701,34,Man
35,123650,DepthScenes,duration_manipulation_targetAtFixation,jsons/v1_VE1000_randls_23_rotated.json,http://54.235.29.9/FacialAge/BNav_EC2/DepthDuration/v2_depth_duration_MTurk/v2_DepthDuration_HTML.html#216,216,1365,657,1366,768,9-3-2022,22-18-2,36,depth_duration_stimuli/000758_2014-06-08_22-05-08_260595134347_rgbf000085-resize_0/000758_2014-06-08_22-05-08_260595134347_rgbf000085-resize_0-target.png,1000,3.3810000000000002,0,2358,1002,meters,jsons/v1_VE1000_randls_23_rotated.json,491033,610701,34,Man
36,123650,DepthScenes,duration_manipulation_targetAtFixation,jsons/v1_VE1000_randls_23_rotated.json,http://54.235.29.9/FacialAge/BNav_EC2/DepthDuration/v2_depth_duration_MTurk/v2_DepthDuration_HTML.html#216,216,1365,657,1366,768,9-3-2022,22-18-2,37,depth_duration_stimuli/002678_2014-06-13_16-15-32_094959634447_rgbf000151-resize_6/002678_2014-06-13_16-15-32_094959634447_rgbf000151-resize_6-target.png,1000,2.1830000000000003,0,2624,994,meters,jsons/v1_VE1000_randls_23_rotated.json,491033,610701,34,Man
37,123650,DepthScenes,duration_manipulation_targetAtFixation,jsons/v1_VE1000_randls_23_rotated.json,http://54.235.29.9/FacialAge/BNav_EC2/DepthDuration/v2_depth_duration_MTurk/v2_DepthDuration_HTML.html#216,216,1365,657,1366,768,9-3-2022,22-18-2,38,depth_duration_stimuli/000368_2014-06-09_15-53-01_260595134347_rgbf000155-resize_2/000368_2014-06-09_15-53-01_260595134347_rgbf000155-resize_2-target.png,1000,2.4859999999999998,0,2447,995,meters,jsons/v1_VE1000_randls_23_rotated.json,491033,610701,34,Man
38,123650,DepthScenes,duration_manipulation_targetAtFixation,jsons/v1_VE1000_randls_23_rotated.json,http://54.235.29.9/FacialAge/BNav_EC2/DepthDuration/v2_depth_duration_MTurk/v2_DepthDuration_HTML.html#216,216,1365,657,1366,768,9-3-2022,22-18-2,39,depth_duration_stimuli/000742_2014-06-08_18-48-09_260595134347_rgbf000164-resize_4/000742_2014-06-08_18-48-09_260595134347_rgbf000164-resize_4-target.png,1000,4.632,0,2363,993,meters,jsons/v1_VE1000_randls_23_rotated.json,491033,610701,34,Man
39,123650,DepthScenes,duration_manipulation_targetAtFixation,jsons/v1_VE1000_randls_23_rotated.json,http://54.235.29.9/FacialAge/BNav_EC2/DepthDuration/v2_depth_duration_MTurk/v2_DepthDuration_HTML.html#216,216,1365,657,1366,768,9-3-2022,22-18-2,40,depth_duration_stimuli/001066_2014-06-08_22-03-20_260595134347_rgbf000066-resize_4/001066_2014-06-08_22-03-20_260595134347_rgbf000066-resize_4-target.png,1000,4.2330000000000005,0,2396,995,meters,jsons/v1_VE1000_randls_23_rotated.json,491033,610701,34,Man
40,123650,DepthScenes,duration_manipulation_targetAtFixation,jsons/v1_VE1000_randls_23_rotated.json,http://54.235.29.9/FacialAge/BNav_EC2/DepthDuration/v2_depth_duration_MTurk/v2_DepthDuration_HTML.html#216,216,1365,657,1366,768,9-3-2022,22-18-2,41,depth_duration_stimuli/001032_2014-06-08_13-23-17_260595134347_rgbf000021-resize_3/001032_2014-06-08_13-23-17_260595134347_rgbf000021-resize_3-target.png,1000,3.2725,0,2388,1008,meters,jsons/v1_VE1000_randls_23_rotated.json,491033,610701,34,Man
41,123650,DepthScenes,duration_manipulation_targetAtFixation,jsons/v1_VE1000_randls_23_rotated.json,http://54.235.29.9/FacialAge/BNav_EC2/DepthDuration/v2_depth_duration_MTurk/v2_DepthDuration_HTML.html#216,216,1365,657,1366,768,9-3-2022,22-18-2,42,depth_duration_stimuli/001059_2014-06-08_21-53-27_260595134347_rgbf000061-resize_4/001059_2014-06-08_21-53-27_260595134347_rgbf000061-resize_4-target.png,1000,2.4185,0,2188,995,meters,jsons/v1_VE1000_randls_23_rotated.json,491033,610701,34,Man
42,123650,DepthScenes,duration_manipulation_targetAtFixation,jsons/v1_VE1000_randls_23_rotated.json,http://54.235.29.9/FacialAge/BNav_EC2/DepthDuration/v2_depth_duration_MTurk/v2_DepthDuration_HTML.html#216,216,1365,657,1366,768,9-3-2022,22-18-2,43,depth_duration_stimuli/000635_2014-06-08_16-38-42_260595134347_rgbf000106-resize_1/000635_2014-06-08_16-38-42_260595134347_rgbf000106-resize_1-target.png,1000,2.074,0,4009,984,meters,jsons/v1_VE1000_randls_23_rotated.json,491033,610701,34,Man
43,123650,DepthScenes,duration_manipulation_targetAtFixation,jsons/v1_VE1000_randls_23_rotated.json,http://54.235.29.9/FacialAge/BNav_EC2/DepthDuration/v2_depth_duration_MTurk/v2_DepthDuration_HTML.html#216,216,1365,657,1366,768,9-3-2022,22-18-2,44,depth_duration_stimuli/002279_2014-06-28_18-55-32_260595134347_rgbf000040-resize_5/002279_2014-06-28_18-55-32_260595134347_rgbf000040-resize_5-target.png,1000,1.5043333333333,0,2316,999,meters,jsons/v1_VE1000_randls_23_rotated.json,491033,610701,34,Man
44,123650,DepthScenes,duration_manipulation_targetAtFixation,jsons/v1_VE1000_randls_23_rotated.json,http://54.235.29.9/FacialAge/BNav_EC2/DepthDuration/v2_depth_duration_MTurk/v2_DepthDuration_HTML.html#216,216,1365,657,1366,768,9-3-2022,22-18-2,45,depth_duration_stimuli/002340_2014-06-28_20-05-46_260595134347_rgbf000113-resize_0/002340_2014-06-28_20-05-46_260595134347_rgbf000113-resize_0-target.png,1000,2.4735,0,2177,993,meters,jsons/v1_VE1000_randls_23_rotated.json,491033,610701,34,Man
45,123650,DepthScenes,duration_manipulation_targetAtFixation,jsons/v1_VE1000_randls_23_rotated.json,http://54.235.29.9/FacialAge/BNav_EC2/DepthDuration/v2_depth_duration_MTurk/v2_DepthDuration_HTML.html#216,216,1365,657,1366,768,9-3-2022,22-18-2,46,depth_duration_stimuli/001016_2014-06-09_16-16-10_260595134347_rgbf000112-resize_5/001016_2014-06-09_16-16-10_260595134347_rgbf000112-resize_5-target.png,1000,1.6565,0,2181,1000,meters,jsons/v1_VE1000_randls_23_rotated.json,491033,610701,34,Man
46,123650,DepthScenes,duration_manipulation_targetAtFixation,jsons/v1_VE1000_randls_23_rotated.json,http://54.235.29.9/FacialAge/BNav_EC2/DepthDuration/v2_depth_duration_MTurk/v2_DepthDuration_HTML.html#216,216,1365,657,1366,768,9-3-2022,22-18-2,47,depth_duration_stimuli/001132_2014-06-17_14-48-54_260595134347_rgbf000100-resize_2/001132_2014-06-17_14-48-54_260595134347_rgbf000100-resize_2-target.png,1000,3.753,0,2335,1003,meters,jsons/v1_VE1000_randls_23_rotated.json,491033,610701,34,Man
47,123650,DepthScenes,duration_manipulation_targetAtFixation,jsons/v1_VE1000_randls_23_rotated.json,http://54.235.29.9/FacialAge/BNav_EC2/DepthDuration/v2_depth_duration_MTurk/v2_DepthDuration_HTML.html#216,216,1365,657,1366,768,9-3-2022,22-18-2,48,depth_duration_stimuli/001133_2014-06-17_14-49-16_260595134347_rgbf000100-resize_0/001133_2014-06-17_14-49-16_260595134347_rgbf000100-resize_0-target.png,1000,4.2115,0,2127,1000,meters,jsons/v1_VE1000_randls_23_rotated.json,491033,610701,34,Man
48,123650,DepthScenes,duration_manipulation_targetAtFixation,jsons/v1_VE1000_randls_23_rotated.json,http://54.235.29.9/FacialAge/BNav_EC2/DepthDuration/v2_depth_duration_MTurk/v2_DepthDuration_HTML.html#216,216,1365,657,1366,768,9-3-2022,22-18-2,49,depth_duration_stimuli/001170_2014-06-17_15-43-44_260595134347_rgbf000096-resize_6/001170_2014-06-17_15-43-44_260595134347_rgbf000096-resize-original.jpg,1000,1.1909999999999998,0,2454,1013,meters,jsons/v1_VE1000_randls_23_rotated.json,491033,610701,34,Man
49,123650,DepthScenes,duration_manipulation_targetAtFixation,jsons/v1_VE1000_randls_23_rotated.json,http://54.235.29.9/FacialAge/BNav_EC2/DepthDuration/v2_depth_duration_MTurk/v2_DepthDuration_HTML.html#216,216,1365,657,1366,768,9-3-2022,22-18-2,50,depth_duration_stimuli/001094_2014-06-15_17-36-00_260595134347_rgbf000205-resize_0/001094_2014-06-15_17-36-00_260595134347_rgbf000205-resize_0-target.png,1000,4.2175,0,2155,1001,meters,jsons/v1_VE1000_randls_23_rotated.json,491033,610701,34,Man
50,123650,DepthScenes,duration_manipulation_targetAtFixation,jsons/v1_VE1000_randls_23_rotated.json,http://54.235.29.9/FacialAge/BNav_EC2/DepthDuration/v2_depth_duration_MTurk/v2_DepthDuration_HTML.html#216,216,1365,657,1366,768,9-3-2022,22-18-2,51,depth_duration_stimuli/000692_2014-06-08_13-09-42_260595134347_rgbf000199-resize_2/000692_2014-06-08_13-09-42_260595134347_rgbf000199-resize_2-target.png,1000,3.661,0,2458,996,meters,jsons/v1_VE1000_randls_23_rotated.json,491033,610701,34,Man
51,123650,DepthScenes,duration_manipulation_targetAtFixation,jsons/v1_VE1000_randls_23_rotated.json,http://54.235.29.9/FacialAge/BNav_EC2/DepthDuration/v2_depth_duration_MTurk/v2_DepthDuration_HTML.html#216,216,1365,657,1366,768,9-3-2022,22-18-2,52,depth_duration_stimuli/001214_2014-06-17_16-13-55_260595134347_rgbf000111-resize_0/001214_2014-06-17_16-13-55_260595134347_rgbf000111-resize_0-target.png,1000,2.6505,0,2258,991,meters,jsons/v1_VE1000_randls_23_rotated.json,491033,610701,34,Man
52,123650,DepthScenes,duration_manipulation_targetAtFixation,jsons/v1_VE1000_randls_23_rotated.json,http://54.235.29.9/FacialAge/BNav_EC2/DepthDuration/v2_depth_duration_MTurk/v2_DepthDuration_HTML.html#216,216,1365,657,1366,768,9-3-2022,22-18-2,53,depth_duration_stimuli/000810_2014-06-08_17-20-01_260595134347_rgbf000105-resize_0/000810_2014-06-08_17-20-01_260595134347_rgbf000105-resize_0-target.png,1000,1.4865,0,2262,997,meters,jsons/v1_VE1000_randls_23_rotated.json,491033,610701,34,Man
53,123650,DepthScenes,duration_manipulation_targetAtFixation,jsons/v1_VE1000_randls_23_rotated.json,http://54.235.29.9/FacialAge/BNav_EC2/DepthDuration/v2_depth_duration_MTurk/v2_DepthDuration_HTML.html#216,216,1365,657,1366,768,9-3-2022,22-18-2,54,depth_duration_stimuli/001100_2014-06-15_17-46-26_260595134347_rgbf000225-resize_2/001100_2014-06-15_17-46-26_260595134347_rgbf000225-resize_2-target.png,1000,2.24,0,2302,998,meters,jsons/v1_VE1000_randls_23_rotated.json,491033,610701,34,Man
54,123650,DepthScenes,duration_manipulation_targetAtFixation,jsons/v1_VE1000_randls_23_rotated.json,http://54.235.29.9/FacialAge/BNav_EC2/DepthDuration/v2_depth_duration_MTurk/v2_DepthDuration_HTML.html#216,216,1365,657,1366,768,9-3-2022,22-18-2,55,depth_duration_stimuli/002784_2014-06-22_19-26-30_094959634447_rgbf000083-resize_3/002784_2014-06-22_19-26-30_094959634447_rgbf000083-resize_3-target.png,1000,1.8046666666667,0,2235,1001,meters,jsons/v1_VE1000_randls_23_rotated.json,491033,610701,34,Man
55,123650,DepthScenes,duration_manipulation_targetAtFixation,jsons/v1_VE1000_randls_23_rotated.json,http://54.235.29.9/FacialAge/BNav_EC2/DepthDuration/v2_depth_duration_MTurk/v2_DepthDuration_HTML.html#216,216,1365,657,1366,768,9-3-2022,22-18-2,56,depth_duration_stimuli/003010_2014-06-15_12-54-35_094959634447_rgbf000112-resize_0/003010_2014-06-15_12-54-35_094959634447_rgbf000112-resize_0-target.png,1000,3.1185,0,2300,1010,meters,jsons/v1_VE1000_randls_23_rotated.json,491033,610701,34,Man
56,123650,DepthScenes,duration_manipulation_targetAtFixation,jsons/v1_VE1000_randls_23_rotated.json,http://54.235.29.9/FacialAge/BNav_EC2/DepthDuration/v2_depth_duration_MTurk/v2_DepthDuration_HTML.html#216,216,1365,657,1366,768,9-3-2022,22-18-2,57,depth_duration_stimuli/001810_2014-06-26_20-51-35_260595134347_rgbf000040-resize_3/001810_2014-06-26_20-51-35_260595134347_rgbf000040-resize_3-target.png,1000,2.2525,0,2436,1012,meters,jsons/v1_VE1000_randls_23_rotated.json,491033,610701,34,Man
57,123650,DepthScenes,duration_manipulation_targetAtFixation,jsons/v1_VE1000_randls_23_rotated.json,http://54.235.29.9/FacialAge/BNav_EC2/DepthDuration/v2_depth_duration_MTurk/v2_DepthDuration_HTML.html#216,216,1365,657,1366,768,9-3-2022,22-18-2,58,depth_duration_stimuli/000457_2014-06-08_16-52-43_260595134347_rgbf000199-resize_1/000457_2014-06-08_16-52-43_260595134347_rgbf000199-resize_1-target.png,1000,3.6489999999999996,0,2233,994,meters,jsons/v1_VE1000_randls_23_rotated.json,491033,610701,34,Man
58,123650,DepthScenes,duration_manipulation_targetAtFixation,jsons/v1_VE1000_randls_23_rotated.json,http://54.235.29.9/FacialAge/BNav_EC2/DepthDuration/v2_depth_duration_MTurk/v2_DepthDuration_HTML.html#216,216,1365,657,1366,768,9-3-2022,22-18-2,59,depth_duration_stimuli/000929_2014-06-09_16-33-19_260595134347_rgbf000139-resize_0/000929_2014-06-09_16-33-19_260595134347_rgbf000139-resize_0-target.png,1000,2.8680000000000003,0,2166,1013,meters,jsons/v1_VE1000_randls_23_rotated.json,491033,610701,34,Man
59,123650,DepthScenes,duration_manipulation_targetAtFixation,jsons/v1_VE1000_randls_23_rotated.json,http://54.235.29.9/FacialAge/BNav_EC2/DepthDuration/v2_depth_duration_MTurk/v2_DepthDuration_HTML.html#216,216,1365,657,1366,768,9-3-2022,22-18-2,60,depth_duration_stimuli/001447_2014-06-19_17-00-32_260595134347_rgbf000082-resize_5/001447_2014-06-19_17-00-32_260595134347_rgbf000082-resize_5-target.png,1000,4.13775,0,2399,1012,meters,jsons/v1_VE1000_randls_23_rotated.json,491033,610701,34,Man
60,123650,DepthScenes,duration_manipulation_targetAtFixation,jsons/v1_VE1000_randls_23_rotated.json,http://54.235.29.9/FacialAge/BNav_EC2/DepthDuration/v2_depth_duration_MTurk/v2_DepthDuration_HTML.html#216,216,1365,657,1366,768,9-3-2022,22-18-2,61,depth_duration_stimuli/000447_2014-06-08_16-15-46_260595134347_rgbf000130-resize_1/000447_2014-06-08_16-15-46_260595134347_rgbf000130-resize_1-target.png,1000,4.479,0,2341,1001,meters,jsons/v1_VE1000_randls_23_rotated.json,491033,610701,34,Man
61,123650,DepthScenes,duration_manipulation_targetAtFixation,jsons/v1_VE1000_randls_23_rotated.json,http://54.235.29.9/FacialAge/BNav_EC2/DepthDuration/v2_depth_duration_MTurk/v2_DepthDuration_HTML.html#216,216,1365,657,1366,768,9-3-2022,22-18-2,62,depth_duration_stimuli/000483_2014-06-09_20-41-45_260595134347_rgbf000116-resize_4/000483_2014-06-09_20-41-45_260595134347_rgbf000116-resize_4-target.png,1000,1.337,0,2269,1002,meters,jsons/v1_VE1000_randls_23_rotated.json,491033,610701,34,Man
62,123650,DepthScenes,duration_manipulation_targetAtFixation,jsons/v1_VE1000_randls_23_rotated.json,http://54.235.29.9/FacialAge/BNav_EC2/DepthDuration/v2_depth_duration_MTurk/v2_DepthDuration_HTML.html#216,216,1365,657,1366,768,9-3-2022,22-18-2,63,depth_duration_stimuli/000469_2014-06-09_19-42-10_260595134347_rgbf000081-resize_1/000469_2014-06-09_19-42-10_260595134347_rgbf000081-resize_1-target.png,1000,1.652,0,2202,992,meters,jsons/v1_VE1000_randls_23_rotated.json,491033,610701,34,Man
63,123650,DepthScenes,duration_manipulation_targetAtFixation,jsons/v1_VE1000_randls_23_rotated.json,http://54.235.29.9/FacialAge/BNav_EC2/DepthDuration/v2_depth_duration_MTurk/v2_DepthDuration_HTML.html#216,216,1365,657,1366,768,9-3-2022,22-18-2,64,depth_duration_stimuli/003490_2014-05-21_15-50-11_094959634447_rgbf000101-resize_3/003490_2014-05-21_15-50-11_094959634447_rgbf000101-resize_3-target.png,1000,3.6445,0,3265,989,meters,jsons/v1_VE1000_randls_23_rotated.json,491033,610701,34,Man
64,123650,DepthScenes,duration_manipulation_targetAtFixation,jsons/v1_VE1000_randls_23_rotated.json,http://54.235.29.9/FacialAge/BNav_EC2/DepthDuration/v2_depth_duration_MTurk/v2_DepthDuration_HTML.html#216,216,1365,657,1366,768,9-3-2022,22-18-2,65,depth_duration_stimuli/001175_2014-06-17_15-45-55_260595134347_rgbf000129-resize_4/001175_2014-06-17_15-45-55_260595134347_rgbf000129-resize_4-target.png,1000,4.255,0,2787,1004,meters,jsons/v1_VE1000_randls_23_rotated.json,491033,610701,34,Man
65,123650,DepthScenes,duration_manipulation_targetAtFixation,jsons/v1_VE1000_randls_23_rotated.json,http://54.235.29.9/FacialAge/BNav_EC2/DepthDuration/v2_depth_duration_MTurk/v2_DepthDuration_HTML.html#216,216,1365,657,1366,768,9-3-2022,22-18-2,66,depth_duration_stimuli/001540_2014-06-20_17-01-05_260595134347_rgbf000086-resize_2/001540_2014-06-20_17-01-05_260595134347_rgbf000086-resize-original.jpg,1000,1.459,0,2335,987,meters,jsons/v1_VE1000_randls_23_rotated.json,491033,610701,34,Man
66,123650,DepthScenes,duration_manipulation_targetAtFixation,jsons/v1_VE1000_randls_23_rotated.json,http://54.235.29.9/FacialAge/BNav_EC2/DepthDuration/v2_depth_duration_MTurk/v2_DepthDuration_HTML.html#216,216,1365,657,1366,768,9-3-2022,22-18-2,67,depth_duration_stimuli/000191_2014-05-12_17-07-38_260595134347_rgbf000199-resize_0/000191_2014-05-12_17-07-38_260595134347_rgbf000199-resize_0-target.png,1000,3.7995,0,2274,991,meters,jsons/v1_VE1000_randls_23_rotated.json,491033,610701,34,Man
67,123650,DepthScenes,duration_manipulation_targetAtFixation,jsons/v1_VE1000_randls_23_rotated.json,http://54.235.29.9/FacialAge/BNav_EC2/DepthDuration/v2_depth_duration_MTurk/v2_DepthDuration_HTML.html#216,216,1365,657,1366,768,9-3-2022,22-18-2,68,depth_duration_stimuli/000493_2014-06-09_21-01-18_260595134347_rgbf000196-resize_3/000493_2014-06-09_21-01-18_260595134347_rgbf000196-resize_3-target.png,1000,3.44,0,2363,999,meters,jsons/v1_VE1000_randls_23_rotated.json,491033,610701,34,Man
68,123650,DepthScenes,duration_manipulation_targetAtFixation,jsons/v1_VE1000_randls_23_rotated.json,http://54.235.29.9/FacialAge/BNav_EC2/DepthDuration/v2_depth_duration_MTurk/v2_DepthDuration_HTML.html#216,216,1365,657,1366,768,9-3-2022,22-18-2,69,depth_duration_stimuli/002657_2014-06-13_15-29-54_094959634447_rgbf000150-resize_1/002657_2014-06-13_15-29-54_094959634447_rgbf000150-resize_1-target.png,1000,4.919,0,2254,989,meters,jsons/v1_VE1000_randls_23_rotated.json,491033,610701,34,Man
69,123650,DepthScenes,duration_manipulation_targetAtFixation,jsons/v1_VE1000_randls_23_rotated.json,http://54.235.29.9/FacialAge/BNav_EC2/DepthDuration/v2_depth_duration_MTurk/v2_DepthDuration_HTML.html#216,216,1365,657,1366,768,9-3-2022,22-18-2,70,depth_duration_stimuli/002375_2014-06-28_20-13-44_260595134347_rgbf000032-resize_1/002375_2014-06-28_20-13-44_260595134347_rgbf000032-resize_1-target.png,1000,4.0175,0,2286,1005,meters,jsons/v1_VE1000_randls_23_rotated.json,491033,610701,34,Man
70,123650,DepthScenes,duration_manipulation_targetAtFixation,jsons/v1_VE1000_randls_23_rotated.json,http://54.235.29.9/FacialAge/BNav_EC2/DepthDuration/v2_depth_duration_MTurk/v2_DepthDuration_HTML.html#216,216,1365,657,1366,768,9-3-2022,22-18-2,71,depth_duration_stimuli/000556_2014-06-09_22-42-56_260595134347_rgbf000214-resize_1/000556_2014-06-09_22-42-56_260595134347_rgbf000214-resize_1-target.png,1000,4.8415,0,2211,1004,meters,jsons/v1_VE1000_randls_23_rotated.json,491033,610701,34,Man
71,123650,DepthScenes,duration_manipulation_targetAtFixation,jsons/v1_VE1000_randls_23_rotated.json,http://54.235.29.9/FacialAge/BNav_EC2/DepthDuration/v2_depth_duration_MTurk/v2_DepthDuration_HTML.html#216,216,1365,657,1366,768,9-3-2022,22-18-2,72,depth_duration_stimuli/001158_2014-06-17_15-32-16_260595134347_rgbf000138-resize_2/001158_2014-06-17_15-32-16_260595134347_rgbf000138-resize_2-target.png,1000,4.5315,0,3433,994,meters,jsons/v1_VE1000_randls_23_rotated.json,491033,610701,34,Man
72,123650,DepthScenes,duration_manipulation_targetAtFixation,jsons/v1_VE1000_randls_23_rotated.json,http://54.235.29.9/FacialAge/BNav_EC2/DepthDuration/v2_depth_duration_MTurk/v2_DepthDuration_HTML.html#216,216,1365,657,1366,768,9-3-2022,22-18-2,73,depth_duration_stimuli/000780_2014-06-08_22-28-29_260595134347_rgbf000126-resize_1/000780_2014-06-08_22-28-29_260595134347_rgbf000126-resize_1-target.png,1000,3.3825,0,2230,1001,meters,jsons/v1_VE1000_randls_23_rotated.json,491033,610701,34,Man
73,123650,DepthScenes,duration_manipulation_targetAtFixation,jsons/v1_VE1000_randls_23_rotated.json,http://54.235.29.9/FacialAge/BNav_EC2/DepthDuration/v2_depth_duration_MTurk/v2_DepthDuration_HTML.html#216,216,1365,657,1366,768,9-3-2022,22-18-2,74,depth_duration_stimuli/002445_2014-06-28_20-32-16_260595134347_rgbf000029-resize_4/002445_2014-06-28_20-32-16_260595134347_rgbf000029-resize_4-target.png,1000,2.5315,0,2382,988,meters,jsons/v1_VE1000_randls_23_rotated.json,491033,610701,34,Man
74,123650,DepthScenes,duration_manipulation_targetAtFixation,jsons/v1_VE1000_randls_23_rotated.json,http://54.235.29.9/FacialAge/BNav_EC2/DepthDuration/v2_depth_duration_MTurk/v2_DepthDuration_HTML.html#216,216,1365,657,1366,768,9-3-2022,22-18-2,75,depth_duration_stimuli/002344_2014-06-28_20-06-29_260595134347_rgbf000030-resize_1/002344_2014-06-28_20-06-29_260595134347_rgbf000030-resize_1-target.png,1000,1.5795,0,2276,1005,meters,jsons/v1_VE1000_randls_23_rotated.json,491033,610701,34,Man
75,123650,DepthScenes,duration_manipulation_targetAtFixation,jsons/v1_VE1000_randls_23_rotated.json,http://54.235.29.9/FacialAge/BNav_EC2/DepthDuration/v2_depth_duration_MTurk/v2_DepthDuration_HTML.html#216,216,1365,657,1366,768,9-3-2022,22-18-2,76,depth_duration_stimuli/002725_2014-06-22_11-47-51_094959634447_rgbf000070-resize_1/002725_2014-06-22_11-47-51_094959634447_rgbf000070-resize_1-target.png,1000,2.195,0,2181,993,meters,jsons/v1_VE1000_randls_23_rotated.json,491033,610701,34,Man
76,123650,DepthScenes,duration_manipulation_targetAtFixation,jsons/v1_VE1000_randls_23_rotated.json,http://54.235.29.9/FacialAge/BNav_EC2/DepthDuration/v2_depth_duration_MTurk/v2_DepthDuration_HTML.html#216,216,1365,657,1366,768,9-3-2022,22-18-2,77,depth_duration_stimuli/003338_2014-05-20_11-01-23_094959634447_rgbf000051-resize_6/003338_2014-05-20_11-01-23_094959634447_rgbf000051-resize_6-target.png,1000,1.693,0,2169,999,meters,jsons/v1_VE1000_randls_23_rotated.json,491033,610701,34,Man
77,123650,DepthScenes,duration_manipulation_targetAtFixation,jsons/v1_VE1000_randls_23_rotated.json,http://54.235.29.9/FacialAge/BNav_EC2/DepthDuration/v2_depth_duration_MTurk/v2_DepthDuration_HTML.html#216,216,1365,657,1366,768,9-3-2022,22-18-2,78,depth_duration_stimuli/002509_2014-06-24_13-19-22_094959634447_rgbf000077-resize_0/002509_2014-06-24_13-19-22_094959634447_rgbf000077-resize_0-target.png,1000,1.3065,0,2151,1004,meters,jsons/v1_VE1000_randls_23_rotated.json,491033,610701,34,Man
78,123650,DepthScenes,duration_manipulation_targetAtFixation,jsons/v1_VE1000_randls_23_rotated.json,http://54.235.29.9/FacialAge/BNav_EC2/DepthDuration/v2_depth_duration_MTurk/v2_DepthDuration_HTML.html#216,216,1365,657,1366,768,9-3-2022,22-18-2,79,depth_duration_stimuli/002103_2014-06-25_20-00-40_260595134347_rgbf000049-resize_0/002103_2014-06-25_20-00-40_260595134347_rgbf000049-resize_0-target.png,1000,4.105,0,2180,1002,meters,jsons/v1_VE1000_randls_23_rotated.json,491033,610701,34,Man
79,123650,DepthScenes,duration_manipulation_targetAtFixation,jsons/v1_VE1000_randls_23_rotated.json,http://54.235.29.9/FacialAge/BNav_EC2/DepthDuration/v2_depth_duration_MTurk/v2_DepthDuration_HTML.html#216,216,1365,657,1366,768,9-3-2022,22-18-2,80,depth_duration_stimuli/002039_2014-06-24_20-22-38_260595134347_rgbf000084-resize_1/002039_2014-06-24_20-22-38_260595134347_rgbf000084-resize_1-target.png,1000,4.408,0,2197,1000,meters,jsons/v1_VE1000_randls_23_rotated.json,491033,610701,34,Man
80,123650,DepthScenes,duration_manipulation_targetAtFixation,jsons/v1_VE1000_randls_23_rotated.json,http://54.235.29.9/FacialAge/BNav_EC2/DepthDuration/v2_depth_duration_MTurk/v2_DepthDuration_HTML.html#216,216,1365,657,1366,768,9-3-2022,22-18-2,81,depth_duration_stimuli/002414_2014-06-28_20-24-58_260595134347_rgbf000067-resize_4/002414_2014-06-28_20-24-58_260595134347_rgbf000067-resize_4-target.png,1000,4.363,0,2234,998,meters,jsons/v1_VE1000_randls_23_rotated.json,491033,610701,34,Man
81,123650,DepthScenes,duration_manipulation_targetAtFixation,jsons/v1_VE1000_randls_23_rotated.json,http://54.235.29.9/FacialAge/BNav_EC2/DepthDuration/v2_depth_duration_MTurk/v2_DepthDuration_HTML.html#216,216,1365,657,1366,768,9-3-2022,22-18-2,82,depth_duration_stimuli/000773_2014-06-08_22-24-54_260595134347_rgbf000093-resize_1/000773_2014-06-08_22-24-54_260595134347_rgbf000093-resize_1-target.png,1000,4.973,0,2046,997,meters,jsons/v1_VE1000_randls_23_rotated.json,491033,610701,34,Man
82,123650,DepthScenes,duration_manipulation_targetAtFixation,jsons/v1_VE1000_randls_23_rotated.json,http://54.235.29.9/FacialAge/BNav_EC2/DepthDuration/v2_depth_duration_MTurk/v2_DepthDuration_HTML.html#216,216,1365,657,1366,768,9-3-2022,22-18-2,83,depth_duration_stimuli/002953_2014-06-08_17-32-18_094959634447_rgbf000059-resize_5/002953_2014-06-08_17-32-18_094959634447_rgbf000059-resize_5-target.png,1000,1.551,0,2102,993,meters,jsons/v1_VE1000_randls_23_rotated.json,491033,610701,34,Man
83,123650,DepthScenes,duration_manipulation_targetAtFixation,jsons/v1_VE1000_randls_23_rotated.json,http://54.235.29.9/FacialAge/BNav_EC2/DepthDuration/v2_depth_duration_MTurk/v2_DepthDuration_HTML.html#216,216,1365,657,1366,768,9-3-2022,22-18-2,84,depth_duration_stimuli/000878_2014-06-08_22-52-45_260595134347_rgbf000045-resize_2/000878_2014-06-08_22-52-45_260595134347_rgbf000045-resize_2-target.png,1000,2.092,0,2110,995,meters,jsons/v1_VE1000_randls_23_rotated.json,491033,610701,34,Man
84,123650,DepthScenes,duration_manipulation_targetAtFixation,jsons/v1_VE1000_randls_23_rotated.json,http://54.235.29.9/FacialAge/BNav_EC2/DepthDuration/v2_depth_duration_MTurk/v2_DepthDuration_HTML.html#216,216,1365,657,1366,768,9-3-2022,22-18-2,85,depth_duration_stimuli/001617_2014-06-20_11-35-32_260595134347_rgbf000066-resize_1/001617_2014-06-20_11-35-32_260595134347_rgbf000066-resize_1-target.png,1000,3.7910000000000004,0,4797,1008,meters,jsons/v1_VE1000_randls_23_rotated.json,491033,610701,34,Man
85,123650,DepthScenes,duration_manipulation_targetAtFixation,jsons/v1_VE1000_randls_23_rotated.json,http://54.235.29.9/FacialAge/BNav_EC2/DepthDuration/v2_depth_duration_MTurk/v2_DepthDuration_HTML.html#216,216,1365,657,1366,768,9-3-2022,22-18-2,86,depth_duration_stimuli/001806_2014-06-26_20-50-20_260595134347_rgbf000091-resize_1/001806_2014-06-26_20-50-20_260595134347_rgbf000091-resize_1-target.png,1000,2.7305,0,2373,998,meters,jsons/v1_VE1000_randls_23_rotated.json,491033,610701,34,Man
86,123650,DepthScenes,duration_manipulation_targetAtFixation,jsons/v1_VE1000_randls_23_rotated.json,http://54.235.29.9/FacialAge/BNav_EC2/DepthDuration/v2_depth_duration_MTurk/v2_DepthDuration_HTML.html#216,216,1365,657,1366,768,9-3-2022,22-18-2,87,depth_duration_stimuli/003495_2014-05-21_16-01-51_094959634447_rgbf000100-resize_3/003495_2014-05-21_16-01-51_094959634447_rgbf000100-resize_3-target.png,1000,1.6255,0,2371,998,meters,jsons/v1_VE1000_randls_23_rotated.json,491033,610701,34,Man
87,123650,DepthScenes,duration_manipulation_targetAtFixation,jsons/v1_VE1000_randls_23_rotated.json,http://54.235.29.9/FacialAge/BNav_EC2/DepthDuration/v2_depth_duration_MTurk/v2_DepthDuration_HTML.html#216,216,1365,657,1366,768,9-3-2022,22-18-2,88,depth_duration_stimuli/001244_2014-06-17_16-47-45_260595134347_rgbf000030-resize_4/001244_2014-06-17_16-47-45_260595134347_rgbf000030-resize_4-target.png,1000,2.0425,0,2060,990,meters,jsons/v1_VE1000_randls_23_rotated.json,491033,610701,34,Man
88,123650,DepthScenes,duration_manipulation_targetAtFixation,jsons/v1_VE1000_randls_23_rotated.json,http://54.235.29.9/FacialAge/BNav_EC2/DepthDuration/v2_depth_duration_MTurk/v2_DepthDuration_HTML.html#216,216,1365,657,1366,768,9-3-2022,22-18-2,89,depth_duration_stimuli/002805_2014-06-22_19-54-03_094959634447_rgbf000079-resize_1/002805_2014-06-22_19-54-03_094959634447_rgbf000079-resize_1-target.png,1000,3.1439999999999997,0,2143,999,meters,jsons/v1_VE1000_randls_23_rotated.json,491033,610701,34,Man
89,123650,DepthScenes,duration_manipulation_targetAtFixation,jsons/v1_VE1000_randls_23_rotated.json,http://54.235.29.9/FacialAge/BNav_EC2/DepthDuration/v2_depth_duration_MTurk/v2_DepthDuration_HTML.html#216,216,1365,657,1366,768,9-3-2022,22-18-2,90,depth_duration_stimuli/000906_2014-06-08_13-35-43_260595134347_rgbf000155-resize_1/000906_2014-06-08_13-35-43_260595134347_rgbf000155-resize_1-target.png,1000,2.8489999999999998,0,2133,1026,meters,jsons/v1_VE1000_randls_23_rotated.json,491033,610701,34,Man
90,123650,DepthScenes,duration_manipulation_targetAtFixation,jsons/v1_VE1000_randls_23_rotated.json,http://54.235.29.9/FacialAge/BNav_EC2/DepthDuration/v2_depth_duration_MTurk/v2_DepthDuration_HTML.html#216,216,1365,657,1366,768,9-3-2022,22-18-2,91,depth_duration_stimuli/000734_2014-06-08_17-39-11_260595134347_rgbf000128-resize_2/000734_2014-06-08_17-39-11_260595134347_rgbf000128-resize_2-target.png,1000,4.098,0,2228,1019,meters,jsons/v1_VE1000_randls_23_rotated.json,491033,610701,34,Man
91,123650,DepthScenes,duration_manipulation_targetAtFixation,jsons/v1_VE1000_randls_23_rotated.json,http://54.235.29.9/FacialAge/BNav_EC2/DepthDuration/v2_depth_duration_MTurk/v2_DepthDuration_HTML.html#216,216,1365,657,1366,768,9-3-2022,22-18-2,92,depth_duration_stimuli/000739_2014-06-08_18-45-58_260595134347_rgbf000068-resize_1/000739_2014-06-08_18-45-58_260595134347_rgbf000068-resize_1-target.png,1000,3.534,0,2223,996,meters,jsons/v1_VE1000_randls_23_rotated.json,491033,610701,34,Man
92,123650,DepthScenes,duration_manipulation_targetAtFixation,jsons/v1_VE1000_randls_23_rotated.json,http://54.235.29.9/FacialAge/BNav_EC2/DepthDuration/v2_depth_duration_MTurk/v2_DepthDuration_HTML.html#216,216,1365,657,1366,768,9-3-2022,22-18-2,93,depth_duration_stimuli/002136_2014-06-25_21-18-03_260595134347_rgbf000109-resize_3/002136_2014-06-25_21-18-03_260595134347_rgbf000109-resize_3-target.png,1000,1.9569999999999999,0,2440,995,meters,jsons/v1_VE1000_randls_23_rotated.json,491033,610701,34,Man
93,123650,DepthScenes,duration_manipulation_targetAtFixation,jsons/v1_VE1000_randls_23_rotated.json,http://54.235.29.9/FacialAge/BNav_EC2/DepthDuration/v2_depth_duration_MTurk/v2_DepthDuration_HTML.html#216,216,1365,657,1366,768,9-3-2022,22-18-2,94,depth_duration_stimuli/002964_2014-06-08_17-46-11_094959634447_rgbf000091-resize_4/002964_2014-06-08_17-46-11_094959634447_rgbf000091-resize_4-target.png,1000,1.6909999999999998,0,2145,1002,meters,jsons/v1_VE1000_randls_23_rotated.json,491033,610701,34,Man
94,123650,DepthScenes,duration_manipulation_targetAtFixation,jsons/v1_VE1000_randls_23_rotated.json,http://54.235.29.9/FacialAge/BNav_EC2/DepthDuration/v2_depth_duration_MTurk/v2_DepthDuration_HTML.html#216,216,1365,657,1366,768,9-3-2022,22-18-2,95,depth_duration_stimuli/000109_2014-05-14_23-41-52_260595134347_rgbf000035-resize_9/000109_2014-05-14_23-41-52_260595134347_rgbf000035-resize_9-target.png,1000,1.3545,0,2194,1005,meters,jsons/v1_VE1000_randls_23_rotated.json,491033,610701,34,Man
95,123650,DepthScenes,duration_manipulation_targetAtFixation,jsons/v1_VE1000_randls_23_rotated.json,http://54.235.29.9/FacialAge/BNav_EC2/DepthDuration/v2_depth_duration_MTurk/v2_DepthDuration_HTML.html#216,216,1365,657,1366,768,9-3-2022,22-18-2,96,depth_duration_stimuli/000470_2014-06-09_19-42-40_260595134347_rgbf000094-resize_1/000470_2014-06-09_19-42-40_260595134347_rgbf000094-resize_1-target.png,1000,1.831,0,2113,1000,meters,jsons/v1_VE1000_randls_23_rotated.json,491033,610701,34,Man
96,123650,DepthScenes,duration_manipulation_targetAtFixation,jsons/v1_VE1000_randls_23_rotated.json,http://54.235.29.9/FacialAge/BNav_EC2/DepthDuration/v2_depth_duration_MTurk/v2_DepthDuration_HTML.html#216,216,1365,657,1366,768,9-3-2022,22-18-2,97,depth_duration_stimuli/002639_2014-06-24_14-51-37_094959634447_rgbf000074-resize_4/002639_2014-06-24_14-51-37_094959634447_rgbf000074-resize_4-target.png,1000,4.0375,0,2050,985,meters,jsons/v1_VE1000_randls_23_rotated.json,491033,610701,34,Man
97,123650,DepthScenes,duration_manipulation_targetAtFixation,jsons/v1_VE1000_randls_23_rotated.json,http://54.235.29.9/FacialAge/BNav_EC2/DepthDuration/v2_depth_duration_MTurk/v2_DepthDuration_HTML.html#216,216,1365,657,1366,768,9-3-2022,22-18-2,98,depth_duration_stimuli/003292_2014-05-14_21-53-49_094959634447_rgbf000100-resize_2/003292_2014-05-14_21-53-49_094959634447_rgbf000100-resize_2-target.png,1000,3.4815,0,2149,998,meters,jsons/v1_VE1000_randls_23_rotated.json,491033,610701,34,Man
98,123650,DepthScenes,duration_manipulation_targetAtFixation,jsons/v1_VE1000_randls_23_rotated.json,http://54.235.29.9/FacialAge/BNav_EC2/DepthDuration/v2_depth_duration_MTurk/v2_DepthDuration_HTML.html#216,216,1365,657,1366,768,9-3-2022,22-18-2,99,depth_duration_stimuli/001222_2014-06-17_16-24-06_260595134347_rgbf000073-resize_0/001222_2014-06-17_16-24-06_260595134347_rgbf000073-resize-original.jpg,1000,1.4385,0,2078,994,meters,jsons/v1_VE1000_randls_23_rotated.json,491033,610701,34,Man
99,123650,DepthScenes,duration_manipulation_targetAtFixation,jsons/v1_VE1000_randls_23_rotated.json,http://54.235.29.9/FacialAge/BNav_EC2/DepthDuration/v2_depth_duration_MTurk/v2_DepthDuration_HTML.html#216,216,1365,657,1366,768,9-3-2022,22-18-2,100,depth_duration_stimuli/003079_2014-06-15_15-18-20_094959634447_rgbf000152-resize_8/003079_2014-06-15_15-18-20_094959634447_rgbf000152-resize_8-target.png,1000,2.8775,0,2177,997,meters,jsons/v1_VE1000_randls_23_rotated.json,491033,610701,34,Man
100,123650,DepthScenes,duration_manipulation_targetAtFixation,jsons/v1_VE1000_randls_23_rotated.json,http://54.235.29.9/FacialAge/BNav_EC2/DepthDuration/v2_depth_duration_MTurk/v2_DepthDuration_HTML.html#216,216,1365,657,1366,768,9-3-2022,22-18-2,101,depth_duration_stimuli/000506_2014-06-08_23-21-00_260595134347_rgbf000070-resize_7/000506_2014-06-08_23-21-00_260595134347_rgbf000070-resize_7-target.png,1000,4.0585,0,2393,985,meters,jsons/v1_VE1000_randls_23_rotated.json,491033,610701,34,Man
101,123650,DepthScenes,duration_manipulation_targetAtFixation,jsons/v1_VE1000_randls_23_rotated.json,http://54.235.29.9/FacialAge/BNav_EC2/DepthDuration/v2_depth_duration_MTurk/v2_DepthDuration_HTML.html#216,216,1365,657,1366,768,9-3-2022,22-18-2,102,depth_duration_stimuli/003587_2014-05-23_16-48-02_094959634447_rgbf002384-resize_2/003587_2014-05-23_16-48-02_094959634447_rgbf002384-resize_2-target.png,1000,1.357,0,2134,992,meters,jsons/v1_VE1000_randls_23_rotated.json,491033,610701,34,Man
102,123650,DepthScenes,duration_manipulation_targetAtFixation,jsons/v1_VE1000_randls_23_rotated.json,http://54.235.29.9/FacialAge/BNav_EC2/DepthDuration/v2_depth_duration_MTurk/v2_DepthDuration_HTML.html#216,216,1365,657,1366,768,9-3-2022,22-18-2,103,depth_duration_stimuli/001167_2014-06-17_15-38-07_260595134347_rgbf000108-resize_0/001167_2014-06-17_15-38-07_260595134347_rgbf000108-resize_0-target.png,1000,1.8505,0,3639,997,meters,jsons/v1_VE1000_randls_23_rotated.json,491033,610701,34,Man
103,123650,DepthScenes,duration_manipulation_targetAtFixation,jsons/v1_VE1000_randls_23_rotated.json,http://54.235.29.9/FacialAge/BNav_EC2/DepthDuration/v2_depth_duration_MTurk/v2_DepthDuration_HTML.html#216,216,1365,657,1366,768,9-3-2022,22-18-2,104,depth_duration_stimuli/002758_2014-06-22_19-11-20_094959634447_rgbf000128-resize_1/002758_2014-06-22_19-11-20_094959634447_rgbf000128-resize_1-target.png,1000,2.555,0,2186,1002,meters,jsons/v1_VE1000_randls_23_rotated.json,491033,610701,34,Man
104,123650,DepthScenes,duration_manipulation_targetAtFixation,jsons/v1_VE1000_randls_23_rotated.json,http://54.235.29.9/FacialAge/BNav_EC2/DepthDuration/v2_depth_duration_MTurk/v2_DepthDuration_HTML.html#216,216,1365,657,1366,768,9-3-2022,22-18-2,105,depth_duration_stimuli/002630_2014-06-24_14-47-50_094959634447_rgbf000055-resize_1/002630_2014-06-24_14-47-50_094959634447_rgbf000055-resize_1-target.png,1000,3.0095,0,2161,997,meters,jsons/v1_VE1000_randls_23_rotated.json,491033,610701,34,Man
105,123650,DepthScenes,duration_manipulation_targetAtFixation,jsons/v1_VE1000_randls_23_rotated.json,http://54.235.29.9/FacialAge/BNav_EC2/DepthDuration/v2_depth_duration_MTurk/v2_DepthDuration_HTML.html#216,216,1365,657,1366,768,9-3-2022,22-18-2,106,depth_duration_stimuli/001828_2014-06-26_21-40-03_260595134347_rgbf000024-resize_0/001828_2014-06-26_21-40-03_260595134347_rgbf000024-resize_0-target.png,1000,4.8260000000000005,0,3711,998,meters,jsons/v1_VE1000_randls_23_rotated.json,491033,610701,34,Man
106,123650,DepthScenes,duration_manipulation_targetAtFixation,jsons/v1_VE1000_randls_23_rotated.json,http://54.235.29.9/FacialAge/BNav_EC2/DepthDuration/v2_depth_duration_MTurk/v2_DepthDuration_HTML.html#216,216,1365,657,1366,768,9-3-2022,22-18-2,107,depth_duration_stimuli/000009_2014-05-26_14-32-05_260595134347_rgbf000034-resize_3/000009_2014-05-26_14-32-05_260595134347_rgbf000034-resize_3-target.png,1000,3.8715,0,2154,987,meters,jsons/v1_VE1000_randls_23_rotated.json,491033,610701,34,Man
107,123650,DepthScenes,duration_manipulation_targetAtFixation,jsons/v1_VE1000_randls_23_rotated.json,http://54.235.29.9/FacialAge/BNav_EC2/DepthDuration/v2_depth_duration_MTurk/v2_DepthDuration_HTML.html#216,216,1365,657,1366,768,9-3-2022,22-18-2,108,depth_duration_stimuli/000137_2014-05-20_17-04-49_260595134347_rgbf000120-resize_1/000137_2014-05-20_17-04-49_260595134347_rgbf000120-resize_1-target.png,1000,3.786,0,2356,990,meters,jsons/v1_VE1000_randls_23_rotated.json,491033,610701,34,Man
108,123650,DepthScenes,duration_manipulation_targetAtFixation,jsons/v1_VE1000_randls_23_rotated.json,http://54.235.29.9/FacialAge/BNav_EC2/DepthDuration/v2_depth_duration_MTurk/v2_DepthDuration_HTML.html#216,216,1365,657,1366,768,9-3-2022,22-18-2,109,depth_duration_stimuli/000736_2014-06-08_18-24-15_260595134347_rgbf000206-resize_3/000736_2014-06-08_18-24-15_260595134347_rgbf000206-resize_3-target.png,1000,3.515,0,2162,993,meters,jsons/v1_VE1000_randls_23_rotated.json,491033,610701,34,Man
109,123650,DepthScenes,duration_manipulation_targetAtFixation,jsons/v1_VE1000_randls_23_rotated.json,http://54.235.29.9/FacialAge/BNav_EC2/DepthDuration/v2_depth_duration_MTurk/v2_DepthDuration_HTML.html#216,216,1365,657,1366,768,9-3-2022,22-18-2,110,depth_duration_stimuli/001235_2014-06-17_16-37-36_260595134347_rgbf000084-resize_4/001235_2014-06-17_16-37-36_260595134347_rgbf000084-resize_4-target.png,1000,3.6605,0,3292,1003,meters,jsons/v1_VE1000_randls_23_rotated.json,491033,610701,34,Man
110,123650,DepthScenes,duration_manipulation_targetAtFixation,jsons/v1_VE1000_randls_23_rotated.json,http://54.235.29.9/FacialAge/BNav_EC2/DepthDuration/v2_depth_duration_MTurk/v2_DepthDuration_HTML.html#216,216,1365,657,1366,768,9-3-2022,22-18-2,111,depth_duration_stimuli/000788_2014-06-08_22-34-36_260595134347_rgbf000131-resize_1/000788_2014-06-08_22-34-36_260595134347_rgbf000131-resize_1-target.png,1000,3.359,0,2320,999,meters,jsons/v1_VE1000_randls_23_rotated.json,491033,610701,34,Man
111,123650,DepthScenes,duration_manipulation_targetAtFixation,jsons/v1_VE1000_randls_23_rotated.json,http://54.235.29.9/FacialAge/BNav_EC2/DepthDuration/v2_depth_duration_MTurk/v2_DepthDuration_HTML.html#216,216,1365,657,1366,768,9-3-2022,22-18-2,112,depth_duration_stimuli/000709_2014-06-08_13-51-55_260595134347_rgbf000068-resize_3/000709_2014-06-08_13-51-55_260595134347_rgbf000068-resize_3-target.png,1000,1.8030000000000002,0,2367,1004,meters,jsons/v1_VE1000_randls_23_rotated.json,491033,610701,34,Man
112,123650,DepthScenes,duration_manipulation_targetAtFixation,jsons/v1_VE1000_randls_23_rotated.json,http://54.235.29.9/FacialAge/BNav_EC2/DepthDuration/v2_depth_duration_MTurk/v2_DepthDuration_HTML.html#216,216,1365,657,1366,768,9-3-2022,22-18-2,113,depth_duration_stimuli/002057_2014-06-24_21-00-13_260595134347_rgbf000120-resize_1/002057_2014-06-24_21-00-13_260595134347_rgbf000120-resize_1-target.png,1000,2.967,0,2349,985,meters,jsons/v1_VE1000_randls_23_rotated.json,491033,610701,34,Man
113,123650,DepthScenes,duration_manipulation_targetAtFixation,jsons/v1_VE1000_randls_23_rotated.json,http://54.235.29.9/FacialAge/BNav_EC2/DepthDuration/v2_depth_duration_MTurk/v2_DepthDuration_HTML.html#216,216,1365,657,1366,768,9-3-2022,22-18-2,114,depth_duration_stimuli/003081_2014-06-15_15-19-16_094959634447_rgbf000150-resize_1/003081_2014-06-15_15-19-16_094959634447_rgbf000150-resize_1-target.png,1000,3.9125,0,2273,997,meters,jsons/v1_VE1000_randls_23_rotated.json,491033,610701,34,Man
114,123650,DepthScenes,duration_manipulation_targetAtFixation,jsons/v1_VE1000_randls_23_rotated.json,http://54.235.29.9/FacialAge/BNav_EC2/DepthDuration/v2_depth_duration_MTurk/v2_DepthDuration_HTML.html#216,216,1365,657,1366,768,9-3-2022,22-18-2,115,depth_duration_stimuli/001417_2014-06-19_16-25-36_260595134347_rgbf000115-resize_5/001417_2014-06-19_16-25-36_260595134347_rgbf000115-resize_5-target.png,1000,4.6255,0,2370,991,meters,jsons/v1_VE1000_randls_23_rotated.json,491033,610701,34,Man
115,123650,DepthScenes,duration_manipulation_targetAtFixation,jsons/v1_VE1000_randls_23_rotated.json,http://54.235.29.9/FacialAge/BNav_EC2/DepthDuration/v2_depth_duration_MTurk/v2_DepthDuration_HTML.html#216,216,1365,657,1366,768,9-3-2022,22-18-2,116,depth_duration_stimuli/000409_2014-06-04_19-23-33_260595134347_rgbf000067-resize_0/000409_2014-06-04_19-23-33_260595134347_rgbf000067-resize_0-target.png,1000,3.7335,0,3672,997,meters,jsons/v1_VE1000_randls_23_rotated.json,491033,610701,34,Man
116,123650,DepthScenes,duration_manipulation_targetAtFixation,jsons/v1_VE1000_randls_23_rotated.json,http://54.235.29.9/FacialAge/BNav_EC2/DepthDuration/v2_depth_duration_MTurk/v2_DepthDuration_HTML.html#216,216,1365,657,1366,768,9-3-2022,22-18-2,117,depth_duration_stimuli/002663_2014-06-13_15-50-26_094959634447_rgbf000075-resize_1/002663_2014-06-13_15-50-26_094959634447_rgbf000075-resize_1-target.png,1000,4.7495,0,2383,998,meters,jsons/v1_VE1000_randls_23_rotated.json,491033,610701,34,Man
117,123650,DepthScenes,duration_manipulation_targetAtFixation,jsons/v1_VE1000_randls_23_rotated.json,http://54.235.29.9/FacialAge/BNav_EC2/DepthDuration/v2_depth_duration_MTurk/v2_DepthDuration_HTML.html#216,216,1365,657,1366,768,9-3-2022,22-18-2,118,depth_duration_stimuli/000927_2014-06-09_16-32-30_260595134347_rgbf000123-resize_3/000927_2014-06-09_16-32-30_260595134347_rgbf000123-resize_3-target.png,1000,2.6785,0,2553,997,meters,jsons/v1_VE1000_randls_23_rotated.json,491033,610701,34,Man
118,123650,DepthScenes,duration_manipulation_targetAtFixation,jsons/v1_VE1000_randls_23_rotated.json,http://54.235.29.9/FacialAge/BNav_EC2/DepthDuration/v2_depth_duration_MTurk/v2_DepthDuration_HTML.html#216,216,1365,657,1366,768,9-3-2022,22-18-2,119,depth_duration_stimuli/001110_2014-06-15_17-25-28_260595134347_rgbf000150-resize_1/001110_2014-06-15_17-25-28_260595134347_rgbf000150-resize_1-target.png,1000,1.7115,0,2186,998,meters,jsons/v1_VE1000_randls_23_rotated.json,491033,610701,34,Man
119,123650,DepthScenes,duration_manipulation_targetAtFixation,jsons/v1_VE1000_randls_23_rotated.json,http://54.235.29.9/FacialAge/BNav_EC2/DepthDuration/v2_depth_duration_MTurk/v2_DepthDuration_HTML.html#216,216,1365,657,1366,768,9-3-2022,22-18-2,120,depth_duration_stimuli/000787_2014-06-08_22-33-53_260595134347_rgbf000175-resize_1/000787_2014-06-08_22-33-53_260595134347_rgbf000175-resize-original.jpg,1000,4.784,0,2173,1003,meters,jsons/v1_VE1000_randls_23_rotated.json,491033,610701,34,Man
120,123650,DepthScenes,duration_manipulation_targetAtFixation,jsons/v1_VE1000_randls_23_rotated.json,http://54.235.29.9/FacialAge/BNav_EC2/DepthDuration/v2_depth_duration_MTurk/v2_DepthDuration_HTML.html#216,216,1365,657,1366,768,9-3-2022,22-18-2,121,depth_duration_stimuli/000677_2014-06-08_23-10-32_260595134347_rgbf000158-resize_6/000677_2014-06-08_23-10-32_260595134347_rgbf000158-resize_6-target.png,1000,3.556,0,2107,1001,meters,jsons/v1_VE1000_randls_23_rotated.json,491033,610701,34,Man
121,123650,DepthScenes,duration_manipulation_targetAtFixation,jsons/v1_VE1000_randls_23_rotated.json,http://54.235.29.9/FacialAge/BNav_EC2/DepthDuration/v2_depth_duration_MTurk/v2_DepthDuration_HTML.html#216,216,1365,657,1366,768,9-3-2022,22-18-2,122,depth_duration_stimuli/001029_2014-06-08_13-17-57_260595134347_rgbf000065-resize_1/001029_2014-06-08_13-17-57_260595134347_rgbf000065-resize_1-target.png,1000,3.0835,0,2230,996,meters,jsons/v1_VE1000_randls_23_rotated.json,491033,610701,34,Man
122,123650,DepthScenes,duration_manipulation_targetAtFixation,jsons/v1_VE1000_randls_23_rotated.json,http://54.235.29.9/FacialAge/BNav_EC2/DepthDuration/v2_depth_duration_MTurk/v2_DepthDuration_HTML.html#216,216,1365,657,1366,768,9-3-2022,22-18-2,123,depth_duration_stimuli/003228_2014-05-14_13-42-35_094959634447_rgbf000101-resize_1/003228_2014-05-14_13-42-35_094959634447_rgbf000101-resize_1-target.png,1000,1.9680000000000002,0,2109,1001,meters,jsons/v1_VE1000_randls_23_rotated.json,491033,610701,34,Man
123,123650,DepthScenes,duration_manipulation_targetAtFixation,jsons/v1_VE1000_randls_23_rotated.json,http://54.235.29.9/FacialAge/BNav_EC2/DepthDuration/v2_depth_duration_MTurk/v2_DepthDuration_HTML.html#216,216,1365,657,1366,768,9-3-2022,22-18-2,124,depth_duration_stimuli/002600_2014-06-24_14-27-04_094959634447_rgbf000074-resize_2/002600_2014-06-24_14-27-04_094959634447_rgbf000074-resize_2-target.png,1000,2.7575,0,2067,1005,meters,jsons/v1_VE1000_randls_23_rotated.json,491033,610701,34,Man
124,123650,DepthScenes,duration_manipulation_targetAtFixation,jsons/v1_VE1000_randls_23_rotated.json,http://54.235.29.9/FacialAge/BNav_EC2/DepthDuration/v2_depth_duration_MTurk/v2_DepthDuration_HTML.html#216,216,1365,657,1366,768,9-3-2022,22-18-2,125,depth_duration_stimuli/002750_2014-06-22_19-08-03_094959634447_rgbf000094-resize_4/002750_2014-06-22_19-08-03_094959634447_rgbf000094-resize_4-target.png,1000,2.354,0,2118,988,meters,jsons/v1_VE1000_randls_23_rotated.json,491033,610701,34,Man
125,123650,DepthScenes,duration_manipulation_targetAtFixation,jsons/v1_VE1000_randls_23_rotated.json,http://54.235.29.9/FacialAge/BNav_EC2/DepthDuration/v2_depth_duration_MTurk/v2_DepthDuration_HTML.html#216,216,1365,657,1366,768,9-3-2022,22-18-2,126,depth_duration_stimuli/002549_2014-06-24_13-41-39_094959634447_rgbf000022-resize_3/002549_2014-06-24_13-41-39_094959634447_rgbf000022-resize_3-target.png,1000,1.476,0,2081,1007,meters,jsons/v1_VE1000_randls_23_rotated.json,491033,610701,34,Man
126,123650,DepthScenes,duration_manipulation_targetAtFixation,jsons/v1_VE1000_randls_23_rotated.json,http://54.235.29.9/FacialAge/BNav_EC2/DepthDuration/v2_depth_duration_MTurk/v2_DepthDuration_HTML.html#216,216,1365,657,1366,768,9-3-2022,22-18-2,127,depth_duration_stimuli/002323_2014-06-28_20-01-54_260595134347_rgbf000051-resize_4/002323_2014-06-28_20-01-54_260595134347_rgbf000051-resize_4-target.png,1000,3.7310000000000003,0,2093,992,meters,jsons/v1_VE1000_randls_23_rotated.json,491033,610701,34,Man
127,123650,DepthScenes,duration_manipulation_targetAtFixation,jsons/v1_VE1000_randls_23_rotated.json,http://54.235.29.9/FacialAge/BNav_EC2/DepthDuration/v2_depth_duration_MTurk/v2_DepthDuration_HTML.html#216,216,1365,657,1366,768,9-3-2022,22-18-2,128,depth_duration_stimuli/000917_2014-06-09_22-45-29_260595134347_rgbf000149-resize_3/000917_2014-06-09_22-45-29_260595134347_rgbf000149-resize_3-target.png,1000,4.1865,0,3195,997,meters,jsons/v1_VE1000_randls_23_rotated.json,491033,610701,34,Man
128,123650,DepthScenes,duration_manipulation_targetAtFixation,jsons/v1_VE1000_randls_23_rotated.json,http://54.235.29.9/FacialAge/BNav_EC2/DepthDuration/v2_depth_duration_MTurk/v2_DepthDuration_HTML.html#216,216,1365,657,1366,768,9-3-2022,22-18-2,129,depth_duration_stimuli/002949_2014-06-26_15-57-42_094959634447_rgbf000079-resize_1/002949_2014-06-26_15-57-42_094959634447_rgbf000079-resize_1-target.png,1000,1.8915,0,2199,997,meters,jsons/v1_VE1000_randls_23_rotated.json,491033,610701,34,Man
129,123650,DepthScenes,duration_manipulation_targetAtFixation,jsons/v1_VE1000_randls_23_rotated.json,http://54.235.29.9/FacialAge/BNav_EC2/DepthDuration/v2_depth_duration_MTurk/v2_DepthDuration_HTML.html#216,216,1365,657,1366,768,9-3-2022,22-18-2,130,depth_duration_stimuli/000522_2014-06-08_13-35-06_260595134347_rgbf000244-resize_1/000522_2014-06-08_13-35-06_260595134347_rgbf000244-resize_1-target.png,1000,2.3715,0,2351,1007,meters,jsons/v1_VE1000_randls_23_rotated.json,491033,610701,34,Man
130,123650,DepthScenes,duration_manipulation_targetAtFixation,jsons/v1_VE1000_randls_23_rotated.json,http://54.235.29.9/FacialAge/BNav_EC2/DepthDuration/v2_depth_duration_MTurk/v2_DepthDuration_HTML.html#216,216,1365,657,1366,768,9-3-2022,22-18-2,131,depth_duration_stimuli/002209_2014-06-28_18-36-10_260595134347_rgbf000051-resize_1/002209_2014-06-28_18-36-10_260595134347_rgbf000051-resize_1-target.png,1000,2.057,0,2282,1000,meters,jsons/v1_VE1000_randls_23_rotated.json,491033,610701,34,Man
131,123650,DepthScenes,duration_manipulation_targetAtFixation,jsons/v1_VE1000_randls_23_rotated.json,http://54.235.29.9/FacialAge/BNav_EC2/DepthDuration/v2_depth_duration_MTurk/v2_DepthDuration_HTML.html#216,216,1365,657,1366,768,9-3-2022,22-18-2,132,depth_duration_stimuli/002763_2014-06-22_19-13-10_094959634447_rgbf000075-resize_4/002763_2014-06-22_19-13-10_094959634447_rgbf000075-resize_4-target.png,1000,1.68375,0,2228,999,meters,jsons/v1_VE1000_randls_23_rotated.json,491033,610701,34,Man
132,123650,DepthScenes,duration_manipulation_targetAtFixation,jsons/v1_VE1000_randls_23_rotated.json,http://54.235.29.9/FacialAge/BNav_EC2/DepthDuration/v2_depth_duration_MTurk/v2_DepthDuration_HTML.html#216,216,1365,657,1366,768,9-3-2022,22-18-2,133,depth_duration_stimuli/003048_2014-06-15_13-49-43_094959634447_rgbf000150-resize_1/003048_2014-06-15_13-49-43_094959634447_rgbf000150-resize_1-target.png,1000,4.0035,0,2358,996,meters,jsons/v1_VE1000_randls_23_rotated.json,491033,610701,34,Man
133,123650,DepthScenes,duration_manipulation_targetAtFixation,jsons/v1_VE1000_randls_23_rotated.json,http://54.235.29.9/FacialAge/BNav_EC2/DepthDuration/v2_depth_duration_MTurk/v2_DepthDuration_HTML.html#216,216,1365,657,1366,768,9-3-2022,22-18-2,134,depth_duration_stimuli/002043_2014-06-24_20-29-38_260595134347_rgbf000039-resize_4/002043_2014-06-24_20-29-38_260595134347_rgbf000039-resize_4-target.png,1000,2.8435,0,2244,991,meters,jsons/v1_VE1000_randls_23_rotated.json,491033,610701,34,Man
134,123650,DepthScenes,duration_manipulation_targetAtFixation,jsons/v1_VE1000_randls_23_rotated.json,http://54.235.29.9/FacialAge/BNav_EC2/DepthDuration/v2_depth_duration_MTurk/v2_DepthDuration_HTML.html#216,216,1365,657,1366,768,9-3-2022,22-18-2,135,depth_duration_stimuli/000375_2014-06-08_11-17-29_260595134347_rgbf000133-resize_2/000375_2014-06-08_11-17-29_260595134347_rgbf000133-resize-original.jpg,1000,4.718,0,2241,997,meters,jsons/v1_VE1000_randls_23_rotated.json,491033,610701,34,Man
135,123650,DepthScenes,duration_manipulation_targetAtFixation,jsons/v1_VE1000_randls_23_rotated.json,http://54.235.29.9/FacialAge/BNav_EC2/DepthDuration/v2_depth_duration_MTurk/v2_DepthDuration_HTML.html#216,216,1365,657,1366,768,9-3-2022,22-18-2,136,depth_duration_stimuli/001052_2014-06-08_18-24-54_260595134347_rgbf000130-resize_1/001052_2014-06-08_18-24-54_260595134347_rgbf000130-resize_1-target.png,1000,4.1045,0,2332,997,meters,jsons/v1_VE1000_randls_23_rotated.json,491033,610701,34,Man
136,123650,DepthScenes,duration_manipulation_targetAtFixation,jsons/v1_VE1000_randls_23_rotated.json,http://54.235.29.9/FacialAge/BNav_EC2/DepthDuration/v2_depth_duration_MTurk/v2_DepthDuration_HTML.html#216,216,1365,657,1366,768,9-3-2022,22-18-2,137,depth_duration_stimuli/002988_2014-06-15_12-24-20_094959634447_rgbf000150-resize_1/002988_2014-06-15_12-24-20_094959634447_rgbf000150-resize_1-target.png,1000,4.7669999999999995,0,2162,999,meters,jsons/v1_VE1000_randls_23_rotated.json,491033,610701,34,Man
137,123650,DepthScenes,duration_manipulation_targetAtFixation,jsons/v1_VE1000_randls_23_rotated.json,http://54.235.29.9/FacialAge/BNav_EC2/DepthDuration/v2_depth_duration_MTurk/v2_DepthDuration_HTML.html#216,216,1365,657,1366,768,9-3-2022,22-18-2,138,depth_duration_stimuli/002875_2014-06-01_15-19-00_094959634447_rgbf000151-resize_1/002875_2014-06-01_15-19-00_094959634447_rgbf000151-resize_1-target.png,1000,1.9675,0,2203,995,meters,jsons/v1_VE1000_randls_23_rotated.json,491033,610701,34,Man
138,123650,DepthScenes,duration_manipulation_targetAtFixation,jsons/v1_VE1000_randls_23_rotated.json,http://54.235.29.9/FacialAge/BNav_EC2/DepthDuration/v2_depth_duration_MTurk/v2_DepthDuration_HTML.html#216,216,1365,657,1366,768,9-3-2022,22-18-2,139,depth_duration_stimuli/001011_2014-06-08_23-18-54_260595134347_rgbf000044-resize_4/001011_2014-06-08_23-18-54_260595134347_rgbf000044-resize_4-target.png,1000,2.4730000000000003,0,2176,998,meters,jsons/v1_VE1000_randls_23_rotated.json,491033,610701,34,Man
139,123650,DepthScenes,duration_manipulation_targetAtFixation,jsons/v1_VE1000_randls_23_rotated.json,http://54.235.29.9/FacialAge/BNav_EC2/DepthDuration/v2_depth_duration_MTurk/v2_DepthDuration_HTML.html#216,216,1365,657,1366,768,9-3-2022,22-18-2,140,depth_duration_stimuli/002660_2014-06-13_15-44-18_094959634447_rgbf001878-resize_2/002660_2014-06-13_15-44-18_094959634447_rgbf001878-resize_2-target.png,1000,3.576,0,2152,990,meters,jsons/v1_VE1000_randls_23_rotated.json,491033,610701,34,Man
140,123650,DepthScenes,duration_manipulation_targetAtFixation,jsons/v1_VE1000_randls_23_rotated.json,http://54.235.29.9/FacialAge/BNav_EC2/DepthDuration/v2_depth_duration_MTurk/v2_DepthDuration_HTML.html#216,216,1365,657,1366,768,9-3-2022,22-18-2,141,depth_duration_stimuli/002153_2014-06-25_21-27-18_260595134347_rgbf000038-resize_5/002153_2014-06-25_21-27-18_260595134347_rgbf000038-resize_5-target.png,1000,2.505,0,2191,999,meters,jsons/v1_VE1000_randls_23_rotated.json,491033,610701,34,Man
141,123650,DepthScenes,duration_manipulation_targetAtFixation,jsons/v1_VE1000_randls_23_rotated.json,http://54.235.29.9/FacialAge/BNav_EC2/DepthDuration/v2_depth_duration_MTurk/v2_DepthDuration_HTML.html#216,216,1365,657,1366,768,9-3-2022,22-18-2,142,depth_duration_stimuli/003083_2014-06-15_15-21-03_094959634447_rgbf000063-resize_1/003083_2014-06-15_15-21-03_094959634447_rgbf000063-resize_1-target.png,1000,4.1405,0,2143,997,meters,jsons/v1_VE1000_randls_23_rotated.json,491033,610701,34,Man
142,123650,DepthScenes,duration_manipulation_targetAtFixation,jsons/v1_VE1000_randls_23_rotated.json,http://54.235.29.9/FacialAge/BNav_EC2/DepthDuration/v2_depth_duration_MTurk/v2_DepthDuration_HTML.html#216,216,1365,657,1366,768,9-3-2022,22-18-2,143,depth_duration_stimuli/000486_2014-06-09_20-47-20_260595134347_rgbf000143-resize_2/000486_2014-06-09_20-47-20_260595134347_rgbf000143-resize_2-target.png,1000,4.8325,0,2175,996,meters,jsons/v1_VE1000_randls_23_rotated.json,491033,610701,34,Man
143,123650,DepthScenes,duration_manipulation_targetAtFixation,jsons/v1_VE1000_randls_23_rotated.json,http://54.235.29.9/FacialAge/BNav_EC2/DepthDuration/v2_depth_duration_MTurk/v2_DepthDuration_HTML.html#216,216,1365,657,1366,768,9-3-2022,22-18-2,144,depth_duration_stimuli/003423_2014-05-21_10-23-26_094959634447_rgbf002665-resize_2/003423_2014-05-21_10-23-26_094959634447_rgbf002665-resize_2-target.png,1000,3.2575,0,2064,992,meters,jsons/v1_VE1000_randls_23_rotated.json,491033,610701,34,Man
144,123650,DepthScenes,duration_manipulation_targetAtFixation,jsons/v1_VE1000_randls_23_rotated.json,http://54.235.29.9/FacialAge/BNav_EC2/DepthDuration/v2_depth_duration_MTurk/v2_DepthDuration_HTML.html#216,216,1365,657,1366,768,9-3-2022,22-18-2,145,depth_duration_stimuli/002905_2014-06-03_18-04-43_094959634447_rgbf000151-resize_2/002905_2014-06-03_18-04-43_094959634447_rgbf000151-resize_2-target.png,1000,2.0295,0,2158,998,meters,jsons/v1_VE1000_randls_23_rotated.json,491033,610701,34,Man
145,123650,DepthScenes,duration_manipulation_targetAtFixation,jsons/v1_VE1000_randls_23_rotated.json,http://54.235.29.9/FacialAge/BNav_EC2/DepthDuration/v2_depth_duration_MTurk/v2_DepthDuration_HTML.html#216,216,1365,657,1366,768,9-3-2022,22-18-2,146,depth_duration_stimuli/000943_2014-06-09_19-31-07_260595134347_rgbf000128-resize_1/000943_2014-06-09_19-31-07_260595134347_rgbf000128-resize_1-target.png,1000,1.9765,0,2139,996,meters,jsons/v1_VE1000_randls_23_rotated.json,491033,610701,34,Man
146,123650,DepthScenes,duration_manipulation_targetAtFixation,jsons/v1_VE1000_randls_23_rotated.json,http://54.235.29.9/FacialAge/BNav_EC2/DepthDuration/v2_depth_duration_MTurk/v2_DepthDuration_HTML.html#216,216,1365,657,1366,768,9-3-2022,22-18-2,147,depth_duration_stimuli/003070_2014-06-15_14-58-27_094959634447_rgbf000150-resize_3/003070_2014-06-15_14-58-27_094959634447_rgbf000150-resize_3-target.png,1000,2.9415,0,2326,1001,meters,jsons/v1_VE1000_randls_23_rotated.json,491033,610701,34,Man
147,123650,DepthScenes,duration_manipulation_targetAtFixation,jsons/v1_VE1000_randls_23_rotated.json,http://54.235.29.9/FacialAge/BNav_EC2/DepthDuration/v2_depth_duration_MTurk/v2_DepthDuration_HTML.html#216,216,1365,657,1366,768,9-3-2022,22-18-2,148,depth_duration_stimuli/003129_2014-05-12_10-48-10_094959634447_rgbf000100-resize_0/003129_2014-05-12_10-48-10_094959634447_rgbf000100-resize_0-target.png,1000,4.9305,0,2115,998,meters,jsons/v1_VE1000_randls_23_rotated.json,491033,610701,34,Man
148,123650,DepthScenes,duration_manipulation_targetAtFixation,jsons/v1_VE1000_randls_23_rotated.json,http://54.235.29.9/FacialAge/BNav_EC2/DepthDuration/v2_depth_duration_MTurk/v2_DepthDuration_HTML.html#216,216,1365,657,1366,768,9-3-2022,22-18-2,149,depth_duration_stimuli/000414_2014-06-04_19-49-13_260595134347_rgbf000044-resize_0/000414_2014-06-04_19-49-13_260595134347_rgbf000044-resize_0-target.png,1000,4.329,0,2900,992,meters,jsons/v1_VE1000_randls_23_rotated.json,491033,610701,34,Man
149,123650,DepthScenes,duration_manipulation_targetAtFixation,jsons/v1_VE1000_randls_23_rotated.json,http://54.235.29.9/FacialAge/BNav_EC2/DepthDuration/v2_depth_duration_MTurk/v2_DepthDuration_HTML.html#216,216,1365,657,1366,768,9-3-2022,22-18-2,150,depth_duration_stimuli/002545_2014-06-24_13-38-53_094959634447_rgbf000080-resize_4/002545_2014-06-24_13-38-53_094959634447_rgbf000080-resize_4-target.png,1000,1.9205,0,2328,996,meters,jsons/v1_VE1000_randls_23_rotated.json,491033,610701,34,Man
150,123650,DepthScenes,duration_manipulation_targetAtFixation,jsons/v1_VE1000_randls_23_rotated.json,http://54.235.29.9/FacialAge/BNav_EC2/DepthDuration/v2_depth_duration_MTurk/v2_DepthDuration_HTML.html#216,216,1365,657,1366,768,9-3-2022,22-18-2,151,depth_duration_stimuli/001092_2014-06-15_17-34-58_260595134347_rgbf000171-resize_3/001092_2014-06-15_17-34-58_260595134347_rgbf000171-resize_3-target.png,1000,2.6935,0,2275,997,meters,jsons/v1_VE1000_randls_23_rotated.json,491033,610701,34,Man
151,123650,DepthScenes,duration_manipulation_targetAtFixation,jsons/v1_VE1000_randls_23_rotated.json,http://54.235.29.9/FacialAge/BNav_EC2/DepthDuration/v2_depth_duration_MTurk/v2_DepthDuration_HTML.html#216,216,1365,657,1366,768,9-3-2022,22-18-2,152,depth_duration_stimuli/000569_2014-06-09_22-51-47_260595134347_rgbf000141-resize_3/000569_2014-06-09_22-51-47_260595134347_rgbf000141-resize-original.jpg,1000,4.512,0,3646,999,meters,jsons/v1_VE1000_randls_23_rotated.json,491033,610701,34,Man
152,123650,DepthScenes,duration_manipulation_targetAtFixation,jsons/v1_VE1000_randls_23_rotated.json,http://54.235.29.9/FacialAge/BNav_EC2/DepthDuration/v2_depth_duration_MTurk/v2_DepthDuration_HTML.html#216,216,1365,657,1366,768,9-3-2022,22-18-2,153,depth_duration_stimuli/002199_2014-06-28_18-33-56_260595134347_rgbf000074-resize_0/002199_2014-06-28_18-33-56_260595134347_rgbf000074-resize_0-target.png,1000,1.996,0,2234,997,meters,jsons/v1_VE1000_randls_23_rotated.json,491033,610701,34,Man
153,123650,DepthScenes,duration_manipulation_targetAtFixation,jsons/v1_VE1000_randls_23_rotated.json,http://54.235.29.9/FacialAge/BNav_EC2/DepthDuration/v2_depth_duration_MTurk/v2_DepthDuration_HTML.html#216,216,1365,657,1366,768,9-3-2022,22-18-2,154,depth_duration_stimuli/001056_2014-06-08_18-46-44_260595134347_rgbf000068-resize_0/001056_2014-06-08_18-46-44_260595134347_rgbf000068-resize_0-target.png,1000,2.6625,0,3454,1010,meters,jsons/v1_VE1000_randls_23_rotated.json,491033,610701,34,Man
154,123650,DepthScenes,duration_manipulation_targetAtFixation,jsons/v1_VE1000_randls_23_rotated.json,http://54.235.29.9/FacialAge/BNav_EC2/DepthDuration/v2_depth_duration_MTurk/v2_DepthDuration_HTML.html#216,216,1365,657,1366,768,9-3-2022,22-18-2,155,depth_duration_stimuli/002425_2014-06-28_20-27-29_260595134347_rgbf000031-resize_8/002425_2014-06-28_20-27-29_260595134347_rgbf000031-resize_8-target.png,1000,3.8960000000000004,0,2374,989,meters,jsons/v1_VE1000_randls_23_rotated.json,491033,610701,34,Man
155,123650,DepthScenes,duration_manipulation_targetAtFixation,jsons/v1_VE1000_randls_23_rotated.json,http://54.235.29.9/FacialAge/BNav_EC2/DepthDuration/v2_depth_duration_MTurk/v2_DepthDuration_HTML.html#216,216,1365,657,1366,768,9-3-2022,22-18-2,156,depth_duration_stimuli/000642_2014-06-08_16-59-25_260595134347_rgbf000098-resize_2/000642_2014-06-08_16-59-25_260595134347_rgbf000098-resize_2-target.png,1000,2.8815,0,2534,988,meters,jsons/v1_VE1000_randls_23_rotated.json,491033,610701,34,Man
156,123650,DepthScenes,duration_manipulation_targetAtFixation,jsons/v1_VE1000_randls_23_rotated.json,http://54.235.29.9/FacialAge/BNav_EC2/DepthDuration/v2_depth_duration_MTurk/v2_DepthDuration_HTML.html#216,216,1365,657,1366,768,9-3-2022,22-18-2,157,depth_duration_stimuli/000665_2014-06-09_20-42-35_260595134347_rgbf000110-resize_1/000665_2014-06-09_20-42-35_260595134347_rgbf000110-resize_1-target.png,1000,3.057,0,2197,990,meters,jsons/v1_VE1000_randls_23_rotated.json,491033,610701,34,Man
157,123650,DepthScenes,duration_manipulation_targetAtFixation,jsons/v1_VE1000_randls_23_rotated.json,http://54.235.29.9/FacialAge/BNav_EC2/DepthDuration/v2_depth_duration_MTurk/v2_DepthDuration_HTML.html#216,216,1365,657,1366,768,9-3-2022,22-18-2,158,depth_duration_stimuli/001150_2014-06-17_15-27-34_260595134347_rgbf000108-resize_2/001150_2014-06-17_15-27-34_260595134347_rgbf000108-resize_2-target.png,1000,4.0325,0,2339,978,meters,jsons/v1_VE1000_randls_23_rotated.json,491033,610701,34,Man
158,123650,DepthScenes,duration_manipulation_targetAtFixation,jsons/v1_VE1000_randls_23_rotated.json,http://54.235.29.9/FacialAge/BNav_EC2/DepthDuration/v2_depth_duration_MTurk/v2_DepthDuration_HTML.html#216,216,1365,657,1366,768,9-3-2022,22-18-2,159,depth_duration_stimuli/001450_2014-06-19_17-02-03_260595134347_rgbf000203-resize_4/001450_2014-06-19_17-02-03_260595134347_rgbf000203-resize_4-target.png,1000,4.0106666666667,0,2740,995,meters,jsons/v1_VE1000_randls_23_rotated.json,491033,610701,34,Man
159,123650,DepthScenes,duration_manipulation_targetAtFixation,jsons/v1_VE1000_randls_23_rotated.json,http://54.235.29.9/FacialAge/BNav_EC2/DepthDuration/v2_depth_duration_MTurk/v2_DepthDuration_HTML.html#216,216,1365,657,1366,768,9-3-2022,22-18-2,160,depth_duration_stimuli/001449_2014-06-19_17-01-27_260595134347_rgbf000116-resize_2/001449_2014-06-19_17-01-27_260595134347_rgbf000116-resize_2-target.png,1000,3.452,0,2294,987,meters,jsons/v1_VE1000_randls_23_rotated.json,491033,610701,34,Man
160,123650,DepthScenes,duration_manipulation_targetAtFixation,jsons/v1_VE1000_randls_23_rotated.json,http://54.235.29.9/FacialAge/BNav_EC2/DepthDuration/v2_depth_duration_MTurk/v2_DepthDuration_HTML.html#216,216,1365,657,1366,768,9-3-2022,22-18-2,161,depth_duration_stimuli/002444_2014-06-28_20-32-08_260595134347_rgbf000027-resize_0/002444_2014-06-28_20-32-08_260595134347_rgbf000027-resize_0-target.png,1000,4.388999999999999,0,2868,1000,meters,jsons/v1_VE1000_randls_23_rotated.json,491033,610701,34,Man
161,123650,DepthScenes,duration_manipulation_targetAtFixation,jsons/v1_VE1000_randls_23_rotated.json,http://54.235.29.9/FacialAge/BNav_EC2/DepthDuration/v2_depth_duration_MTurk/v2_DepthDuration_HTML.html#216,216,1365,657,1366,768,9-3-2022,22-18-2,162,depth_duration_stimuli/000436_2014-06-09_22-25-11_260595134347_rgbf000137-resize_1/000436_2014-06-09_22-25-11_260595134347_rgbf000137-resize_1-target.png,1000,4.0705,0,2512,993,meters,jsons/v1_VE1000_randls_23_rotated.json,491033,610701,34,Man
162,123650,DepthScenes,duration_manipulation_targetAtFixation,jsons/v1_VE1000_randls_23_rotated.json,http://54.235.29.9/FacialAge/BNav_EC2/DepthDuration/v2_depth_duration_MTurk/v2_DepthDuration_HTML.html#216,216,1365,657,1366,768,9-3-2022,22-18-2,163,depth_duration_stimuli/001650_2014-06-20_12-09-00_260595134347_rgbf000087-resize_3/001650_2014-06-20_12-09-00_260595134347_rgbf000087-resize_3-target.png,1000,1.9505,0,2402,996,meters,jsons/v1_VE1000_randls_23_rotated.json,491033,610701,34,Man
163,123650,DepthScenes,duration_manipulation_targetAtFixation,jsons/v1_VE1000_randls_23_rotated.json,http://54.235.29.9/FacialAge/BNav_EC2/DepthDuration/v2_depth_duration_MTurk/v2_DepthDuration_HTML.html#216,216,1365,657,1366,768,9-3-2022,22-18-2,164,depth_duration_stimuli/000682_2014-06-08_23-14-58_260595134347_rgbf000041-resize_5/000682_2014-06-08_23-14-58_260595134347_rgbf000041-resize_5-target.png,1000,2.7239999999999998,0,2306,999,meters,jsons/v1_VE1000_randls_23_rotated.json,491033,610701,34,Man
