,subjID,experimentName,versionName,sequenceName,url,selected_row,windowWidth,windowHeight,screenWidth,screenHeight,startDate,startTime,trial,stimulus,duration,actual_depth,depth_estimate,trial_RT,log_sceneDuration,unitSelection,seq_filepath,experimentTime,totalTime,age,gender
0,123935,DepthScenes,duration_manipulation_targetAtFixation,jsons/v1_VE250_randls_4_rotated.json,http://54.235.29.9/FacialAge/BNav_EC2/DepthDuration/v2_depth_duration_MTurk/v2_DepthDuration_HTML.html#50,50,780,357,1366,768,8-20-2022,8-49-17,1,depth_duration_stimuli/001450_2014-06-19_17-02-03_260595134347_rgbf000203-resize_4/001450_2014-06-19_17-02-03_260595134347_rgbf000203-resize_4-target.png,250,4.0106666666667,300,3624,249,meters,jsons/v1_VE250_randls_4_rotated.json,760140,1056173,25,Man
1,123935,DepthScenes,duration_manipulation_targetAtFixation,jsons/v1_VE250_randls_4_rotated.json,http://54.235.29.9/FacialAge/BNav_EC2/DepthDuration/v2_depth_duration_MTurk/v2_DepthDuration_HTML.html#50,50,780,357,1366,768,8-20-2022,8-49-17,2,depth_duration_stimuli/001449_2014-06-19_17-01-27_260595134347_rgbf000116-resize_2/001449_2014-06-19_17-01-27_260595134347_rgbf000116-resize_2-target.png,250,3.452,350,3497,251,meters,jsons/v1_VE250_randls_4_rotated.json,760140,1056173,25,Man
2,123935,DepthScenes,duration_manipulation_targetAtFixation,jsons/v1_VE250_randls_4_rotated.json,http://54.235.29.9/FacialAge/BNav_EC2/DepthDuration/v2_depth_duration_MTurk/v2_DepthDuration_HTML.html#50,50,780,357,1366,768,8-20-2022,8-49-17,3,depth_duration_stimuli/002750_2014-06-22_19-08-03_094959634447_rgbf000094-resize_4/002750_2014-06-22_19-08-03_094959634447_rgbf000094-resize_4-target.png,250,2.354,250,3125,251,meters,jsons/v1_VE250_randls_4_rotated.json,760140,1056173,25,Man
3,123935,DepthScenes,duration_manipulation_targetAtFixation,jsons/v1_VE250_randls_4_rotated.json,http://54.235.29.9/FacialAge/BNav_EC2/DepthDuration/v2_depth_duration_MTurk/v2_DepthDuration_HTML.html#50,50,780,357,1366,768,8-20-2022,8-49-17,4,depth_duration_stimuli/002549_2014-06-24_13-41-39_094959634447_rgbf000022-resize_3/002549_2014-06-24_13-41-39_094959634447_rgbf000022-resize_3-target.png,250,1.476,315,3126,250,meters,jsons/v1_VE250_randls_4_rotated.json,760140,1056173,25,Man
4,123935,DepthScenes,duration_manipulation_targetAtFixation,jsons/v1_VE250_randls_4_rotated.json,http://54.235.29.9/FacialAge/BNav_EC2/DepthDuration/v2_depth_duration_MTurk/v2_DepthDuration_HTML.html#50,50,780,357,1366,768,8-20-2022,8-49-17,5,depth_duration_stimuli/000191_2014-05-12_17-07-38_260595134347_rgbf000199-resize_0/000191_2014-05-12_17-07-38_260595134347_rgbf000199-resize_0-target.png,250,3.7995,350,3701,250,meters,jsons/v1_VE250_randls_4_rotated.json,760140,1056173,25,Man
5,123935,DepthScenes,duration_manipulation_targetAtFixation,jsons/v1_VE250_randls_4_rotated.json,http://54.235.29.9/FacialAge/BNav_EC2/DepthDuration/v2_depth_duration_MTurk/v2_DepthDuration_HTML.html#50,50,780,357,1366,768,8-20-2022,8-49-17,6,depth_duration_stimuli/000493_2014-06-09_21-01-18_260595134347_rgbf000196-resize_3/000493_2014-06-09_21-01-18_260595134347_rgbf000196-resize_3-target.png,250,3.44,320,3405,248,meters,jsons/v1_VE250_randls_4_rotated.json,760140,1056173,25,Man
6,123935,DepthScenes,duration_manipulation_targetAtFixation,jsons/v1_VE250_randls_4_rotated.json,http://54.235.29.9/FacialAge/BNav_EC2/DepthDuration/v2_depth_duration_MTurk/v2_DepthDuration_HTML.html#50,50,780,357,1366,768,8-20-2022,8-49-17,7,depth_duration_stimuli/003048_2014-06-15_13-49-43_094959634447_rgbf000150-resize_1/003048_2014-06-15_13-49-43_094959634447_rgbf000150-resize_1-target.png,250,4.0035,345,5200,250,meters,jsons/v1_VE250_randls_4_rotated.json,760140,1056173,25,Man
7,123935,DepthScenes,duration_manipulation_targetAtFixation,jsons/v1_VE250_randls_4_rotated.json,http://54.235.29.9/FacialAge/BNav_EC2/DepthDuration/v2_depth_duration_MTurk/v2_DepthDuration_HTML.html#50,50,780,357,1366,768,8-20-2022,8-49-17,8,depth_duration_stimuli/002043_2014-06-24_20-29-38_260595134347_rgbf000039-resize_4/002043_2014-06-24_20-29-38_260595134347_rgbf000039-resize_4-target.png,250,2.8435,425,4692,250,meters,jsons/v1_VE250_randls_4_rotated.json,760140,1056173,25,Man
8,123935,DepthScenes,duration_manipulation_targetAtFixation,jsons/v1_VE250_randls_4_rotated.json,http://54.235.29.9/FacialAge/BNav_EC2/DepthDuration/v2_depth_duration_MTurk/v2_DepthDuration_HTML.html#50,50,780,357,1366,768,8-20-2022,8-49-17,9,depth_duration_stimuli/002639_2014-06-24_14-51-37_094959634447_rgbf000074-resize_4/002639_2014-06-24_14-51-37_094959634447_rgbf000074-resize_4-target.png,250,4.0375,500,3562,250,meters,jsons/v1_VE250_randls_4_rotated.json,760140,1056173,25,Man
9,123935,DepthScenes,duration_manipulation_targetAtFixation,jsons/v1_VE250_randls_4_rotated.json,http://54.235.29.9/FacialAge/BNav_EC2/DepthDuration/v2_depth_duration_MTurk/v2_DepthDuration_HTML.html#50,50,780,357,1366,768,8-20-2022,8-49-17,10,depth_duration_stimuli/003292_2014-05-14_21-53-49_094959634447_rgbf000100-resize_2/003292_2014-05-14_21-53-49_094959634447_rgbf000100-resize_2-target.png,250,3.4815,300,4442,249,meters,jsons/v1_VE250_randls_4_rotated.json,760140,1056173,25,Man
10,123935,DepthScenes,duration_manipulation_targetAtFixation,jsons/v1_VE250_randls_4_rotated.json,http://54.235.29.9/FacialAge/BNav_EC2/DepthDuration/v2_depth_duration_MTurk/v2_DepthDuration_HTML.html#50,50,780,357,1366,768,8-20-2022,8-49-17,11,depth_duration_stimuli/000927_2014-06-09_16-32-30_260595134347_rgbf000123-resize_3/000927_2014-06-09_16-32-30_260595134347_rgbf000123-resize_3-target.png,250,2.6785,150,5396,248,meters,jsons/v1_VE250_randls_4_rotated.json,760140,1056173,25,Man
11,123935,DepthScenes,duration_manipulation_targetAtFixation,jsons/v1_VE250_randls_4_rotated.json,http://54.235.29.9/FacialAge/BNav_EC2/DepthDuration/v2_depth_duration_MTurk/v2_DepthDuration_HTML.html#50,50,780,357,1366,768,8-20-2022,8-49-17,12,depth_duration_stimuli/001110_2014-06-15_17-25-28_260595134347_rgbf000150-resize_1/001110_2014-06-15_17-25-28_260595134347_rgbf000150-resize_1-target.png,250,1.7115,350,4167,239,meters,jsons/v1_VE250_randls_4_rotated.json,760140,1056173,25,Man
12,123935,DepthScenes,duration_manipulation_targetAtFixation,jsons/v1_VE250_randls_4_rotated.json,http://54.235.29.9/FacialAge/BNav_EC2/DepthDuration/v2_depth_duration_MTurk/v2_DepthDuration_HTML.html#50,50,780,357,1366,768,8-20-2022,8-49-17,13,depth_duration_stimuli/000742_2014-06-08_18-48-09_260595134347_rgbf000164-resize_4/000742_2014-06-08_18-48-09_260595134347_rgbf000164-resize_4-target.png,250,4.632,375,4817,248,meters,jsons/v1_VE250_randls_4_rotated.json,760140,1056173,25,Man
13,123935,DepthScenes,duration_manipulation_targetAtFixation,jsons/v1_VE250_randls_4_rotated.json,http://54.235.29.9/FacialAge/BNav_EC2/DepthDuration/v2_depth_duration_MTurk/v2_DepthDuration_HTML.html#50,50,780,357,1366,768,8-20-2022,8-49-17,14,depth_duration_stimuli/001066_2014-06-08_22-03-20_260595134347_rgbf000066-resize_4/001066_2014-06-08_22-03-20_260595134347_rgbf000066-resize_4-target.png,250,4.2330000000000005,325,4044,251,meters,jsons/v1_VE250_randls_4_rotated.json,760140,1056173,25,Man
14,123935,DepthScenes,duration_manipulation_targetAtFixation,jsons/v1_VE250_randls_4_rotated.json,http://54.235.29.9/FacialAge/BNav_EC2/DepthDuration/v2_depth_duration_MTurk/v2_DepthDuration_HTML.html#50,50,780,357,1366,768,8-20-2022,8-49-17,15,depth_duration_stimuli/000103_2014-05-14_22-01-17_260595134347_rgbf000152-resize_5/000103_2014-05-14_22-01-17_260595134347_rgbf000152-resize_5-target.png,250,1.993,345,4772,251,meters,jsons/v1_VE250_randls_4_rotated.json,760140,1056173,25,Man
15,123935,DepthScenes,duration_manipulation_targetAtFixation,jsons/v1_VE250_randls_4_rotated.json,http://54.235.29.9/FacialAge/BNav_EC2/DepthDuration/v2_depth_duration_MTurk/v2_DepthDuration_HTML.html#50,50,780,357,1366,768,8-20-2022,8-49-17,16,depth_duration_stimuli/001555_2014-06-20_17-12-10_260595134347_rgbf000065-resize_4/001555_2014-06-20_17-12-10_260595134347_rgbf000065-resize_4-target.png,250,1.633,300,4308,251,meters,jsons/v1_VE250_randls_4_rotated.json,760140,1056173,25,Man
16,123935,DepthScenes,duration_manipulation_targetAtFixation,jsons/v1_VE250_randls_4_rotated.json,http://54.235.29.9/FacialAge/BNav_EC2/DepthDuration/v2_depth_duration_MTurk/v2_DepthDuration_HTML.html#50,50,780,357,1366,768,8-20-2022,8-49-17,17,depth_duration_stimuli/002678_2014-06-13_16-15-32_094959634447_rgbf000151-resize_6/002678_2014-06-13_16-15-32_094959634447_rgbf000151-resize_6-target.png,250,2.1830000000000003,150,3886,244,meters,jsons/v1_VE250_randls_4_rotated.json,760140,1056173,25,Man
17,123935,DepthScenes,duration_manipulation_targetAtFixation,jsons/v1_VE250_randls_4_rotated.json,http://54.235.29.9/FacialAge/BNav_EC2/DepthDuration/v2_depth_duration_MTurk/v2_DepthDuration_HTML.html#50,50,780,357,1366,768,8-20-2022,8-49-17,18,depth_duration_stimuli/000368_2014-06-09_15-53-01_260595134347_rgbf000155-resize_2/000368_2014-06-09_15-53-01_260595134347_rgbf000155-resize_2-target.png,250,2.4859999999999998,150,4163,240,meters,jsons/v1_VE250_randls_4_rotated.json,760140,1056173,25,Man
18,123935,DepthScenes,duration_manipulation_targetAtFixation,jsons/v1_VE250_randls_4_rotated.json,http://54.235.29.9/FacialAge/BNav_EC2/DepthDuration/v2_depth_duration_MTurk/v2_DepthDuration_HTML.html#50,50,780,357,1366,768,8-20-2022,8-49-17,19,depth_duration_stimuli/001498_2014-06-19_17-45-14_260595134347_rgbf000129-resize_4/001498_2014-06-19_17-45-14_260595134347_rgbf000129-resize-original.jpg,250,1.4075,345,5871,249,meters,jsons/v1_VE250_randls_4_rotated.json,760140,1056173,25,Man
19,123935,DepthScenes,duration_manipulation_targetAtFixation,jsons/v1_VE250_randls_4_rotated.json,http://54.235.29.9/FacialAge/BNav_EC2/DepthDuration/v2_depth_duration_MTurk/v2_DepthDuration_HTML.html#50,50,780,357,1366,768,8-20-2022,8-49-17,20,depth_duration_stimuli/001032_2014-06-08_13-23-17_260595134347_rgbf000021-resize_3/001032_2014-06-08_13-23-17_260595134347_rgbf000021-resize_3-target.png,250,3.2725,375,3414,247,meters,jsons/v1_VE250_randls_4_rotated.json,760140,1056173,25,Man
20,123935,DepthScenes,duration_manipulation_targetAtFixation,jsons/v1_VE250_randls_4_rotated.json,http://54.235.29.9/FacialAge/BNav_EC2/DepthDuration/v2_depth_duration_MTurk/v2_DepthDuration_HTML.html#50,50,780,357,1366,768,8-20-2022,8-49-17,21,depth_duration_stimuli/001059_2014-06-08_21-53-27_260595134347_rgbf000061-resize_4/001059_2014-06-08_21-53-27_260595134347_rgbf000061-resize_4-target.png,250,2.4185,250,3131,251,meters,jsons/v1_VE250_randls_4_rotated.json,760140,1056173,25,Man
21,123935,DepthScenes,duration_manipulation_targetAtFixation,jsons/v1_VE250_randls_4_rotated.json,http://54.235.29.9/FacialAge/BNav_EC2/DepthDuration/v2_depth_duration_MTurk/v2_DepthDuration_HTML.html#50,50,780,357,1366,768,8-20-2022,8-49-17,22,depth_duration_stimuli/003010_2014-06-15_12-54-35_094959634447_rgbf000112-resize_0/003010_2014-06-15_12-54-35_094959634447_rgbf000112-resize_0-target.png,250,3.1185,150,3608,248,meters,jsons/v1_VE250_randls_4_rotated.json,760140,1056173,25,Man
22,123935,DepthScenes,duration_manipulation_targetAtFixation,jsons/v1_VE250_randls_4_rotated.json,http://54.235.29.9/FacialAge/BNav_EC2/DepthDuration/v2_depth_duration_MTurk/v2_DepthDuration_HTML.html#50,50,780,357,1366,768,8-20-2022,8-49-17,23,depth_duration_stimuli/001810_2014-06-26_20-51-35_260595134347_rgbf000040-resize_3/001810_2014-06-26_20-51-35_260595134347_rgbf000040-resize_3-target.png,250,2.2525,345,3938,239,meters,jsons/v1_VE250_randls_4_rotated.json,760140,1056173,25,Man
23,123935,DepthScenes,duration_manipulation_targetAtFixation,jsons/v1_VE250_randls_4_rotated.json,http://54.235.29.9/FacialAge/BNav_EC2/DepthDuration/v2_depth_duration_MTurk/v2_DepthDuration_HTML.html#50,50,780,357,1366,768,8-20-2022,8-49-17,24,depth_duration_stimuli/001100_2014-06-15_17-46-26_260595134347_rgbf000225-resize_2/001100_2014-06-15_17-46-26_260595134347_rgbf000225-resize_2-target.png,250,2.24,365,3204,248,meters,jsons/v1_VE250_randls_4_rotated.json,760140,1056173,25,Man
24,123935,DepthScenes,duration_manipulation_targetAtFixation,jsons/v1_VE250_randls_4_rotated.json,http://54.235.29.9/FacialAge/BNav_EC2/DepthDuration/v2_depth_duration_MTurk/v2_DepthDuration_HTML.html#50,50,780,357,1366,768,8-20-2022,8-49-17,25,depth_duration_stimuli/002784_2014-06-22_19-26-30_094959634447_rgbf000083-resize_3/002784_2014-06-22_19-26-30_094959634447_rgbf000083-resize_3-target.png,250,1.8046666666667,200,4720,250,meters,jsons/v1_VE250_randls_4_rotated.json,760140,1056173,25,Man
25,123935,DepthScenes,duration_manipulation_targetAtFixation,jsons/v1_VE250_randls_4_rotated.json,http://54.235.29.9/FacialAge/BNav_EC2/DepthDuration/v2_depth_duration_MTurk/v2_DepthDuration_HTML.html#50,50,780,357,1366,768,8-20-2022,8-49-17,26,depth_duration_stimuli/002660_2014-06-13_15-44-18_094959634447_rgbf001878-resize_2/002660_2014-06-13_15-44-18_094959634447_rgbf001878-resize_2-target.png,250,3.576,150,3600,249,meters,jsons/v1_VE250_randls_4_rotated.json,760140,1056173,25,Man
26,123935,DepthScenes,duration_manipulation_targetAtFixation,jsons/v1_VE250_randls_4_rotated.json,http://54.235.29.9/FacialAge/BNav_EC2/DepthDuration/v2_depth_duration_MTurk/v2_DepthDuration_HTML.html#50,50,780,357,1366,768,8-20-2022,8-49-17,27,depth_duration_stimuli/002153_2014-06-25_21-27-18_260595134347_rgbf000038-resize_5/002153_2014-06-25_21-27-18_260595134347_rgbf000038-resize_5-target.png,250,2.505,175,4556,232,meters,jsons/v1_VE250_randls_4_rotated.json,760140,1056173,25,Man
27,123935,DepthScenes,duration_manipulation_targetAtFixation,jsons/v1_VE250_randls_4_rotated.json,http://54.235.29.9/FacialAge/BNav_EC2/DepthDuration/v2_depth_duration_MTurk/v2_DepthDuration_HTML.html#50,50,780,357,1366,768,8-20-2022,8-49-17,28,depth_duration_stimuli/002568_2014-06-24_13-59-21_094959634447_rgbf000062-resize_4/002568_2014-06-24_13-59-21_094959634447_rgbf000062-resize_4-target.png,250,3.015,352,5135,253,meters,jsons/v1_VE250_randls_4_rotated.json,760140,1056173,25,Man
28,123935,DepthScenes,duration_manipulation_targetAtFixation,jsons/v1_VE250_randls_4_rotated.json,http://54.235.29.9/FacialAge/BNav_EC2/DepthDuration/v2_depth_duration_MTurk/v2_DepthDuration_HTML.html#50,50,780,357,1366,768,8-20-2022,8-49-17,29,depth_duration_stimuli/003492_2014-05-21_15-50-55_094959634447_rgbf000828-resize_1/003492_2014-05-21_15-50-55_094959634447_rgbf000828-resize_1-target.png,250,4.06875,250,4564,241,meters,jsons/v1_VE250_randls_4_rotated.json,760140,1056173,25,Man
29,123935,DepthScenes,duration_manipulation_targetAtFixation,jsons/v1_VE250_randls_4_rotated.json,http://54.235.29.9/FacialAge/BNav_EC2/DepthDuration/v2_depth_duration_MTurk/v2_DepthDuration_HTML.html#50,50,780,357,1366,768,8-20-2022,8-49-17,30,depth_duration_stimuli/002072_2014-06-24_21-48-06_260595134347_rgbf000115-resize_0/002072_2014-06-24_21-48-06_260595134347_rgbf000115-resize-original.jpg,250,4.702,500,3802,252,meters,jsons/v1_VE250_randls_4_rotated.json,760140,1056173,25,Man
30,123935,DepthScenes,duration_manipulation_targetAtFixation,jsons/v1_VE250_randls_4_rotated.json,http://54.235.29.9/FacialAge/BNav_EC2/DepthDuration/v2_depth_duration_MTurk/v2_DepthDuration_HTML.html#50,50,780,357,1366,768,8-20-2022,8-49-17,31,depth_duration_stimuli/002949_2014-06-26_15-57-42_094959634447_rgbf000079-resize_1/002949_2014-06-26_15-57-42_094959634447_rgbf000079-resize_1-target.png,250,1.8915,385,4339,249,meters,jsons/v1_VE250_randls_4_rotated.json,760140,1056173,25,Man
31,123935,DepthScenes,duration_manipulation_targetAtFixation,jsons/v1_VE250_randls_4_rotated.json,http://54.235.29.9/FacialAge/BNav_EC2/DepthDuration/v2_depth_duration_MTurk/v2_DepthDuration_HTML.html#50,50,780,357,1366,768,8-20-2022,8-49-17,32,depth_duration_stimuli/000522_2014-06-08_13-35-06_260595134347_rgbf000244-resize_1/000522_2014-06-08_13-35-06_260595134347_rgbf000244-resize_1-target.png,250,2.3715,325,3351,251,meters,jsons/v1_VE250_randls_4_rotated.json,760140,1056173,25,Man
32,123935,DepthScenes,duration_manipulation_targetAtFixation,jsons/v1_VE250_randls_4_rotated.json,http://54.235.29.9/FacialAge/BNav_EC2/DepthDuration/v2_depth_duration_MTurk/v2_DepthDuration_HTML.html#50,50,780,357,1366,768,8-20-2022,8-49-17,33,depth_duration_stimuli/002103_2014-06-25_20-00-40_260595134347_rgbf000049-resize_0/002103_2014-06-25_20-00-40_260595134347_rgbf000049-resize_0-target.png,250,4.105,365,3504,247,meters,jsons/v1_VE250_randls_4_rotated.json,760140,1056173,25,Man
33,123935,DepthScenes,duration_manipulation_targetAtFixation,jsons/v1_VE250_randls_4_rotated.json,http://54.235.29.9/FacialAge/BNav_EC2/DepthDuration/v2_depth_duration_MTurk/v2_DepthDuration_HTML.html#50,50,780,357,1366,768,8-20-2022,8-49-17,34,depth_duration_stimuli/002039_2014-06-24_20-22-38_260595134347_rgbf000084-resize_1/002039_2014-06-24_20-22-38_260595134347_rgbf000084-resize_1-target.png,250,4.408,250,4474,250,meters,jsons/v1_VE250_randls_4_rotated.json,760140,1056173,25,Man
34,123935,DepthScenes,duration_manipulation_targetAtFixation,jsons/v1_VE250_randls_4_rotated.json,http://54.235.29.9/FacialAge/BNav_EC2/DepthDuration/v2_depth_duration_MTurk/v2_DepthDuration_HTML.html#50,50,780,357,1366,768,8-20-2022,8-49-17,35,depth_duration_stimuli/002467_2014-06-28_20-38-07_260595134347_rgbf000026-resize_2/002467_2014-06-28_20-38-07_260595134347_rgbf000026-resize_2-target.png,250,4.742,335,3832,250,meters,jsons/v1_VE250_randls_4_rotated.json,760140,1056173,25,Man
35,123935,DepthScenes,duration_manipulation_targetAtFixation,jsons/v1_VE250_randls_4_rotated.json,http://54.235.29.9/FacialAge/BNav_EC2/DepthDuration/v2_depth_duration_MTurk/v2_DepthDuration_HTML.html#50,50,780,357,1366,768,8-20-2022,8-49-17,36,depth_duration_stimuli/002570_2014-06-24_13-59-54_094959634447_rgbf000059-resize_0/002570_2014-06-24_13-59-54_094959634447_rgbf000059-resize_0-target.png,250,4.037,250,4722,250,meters,jsons/v1_VE250_randls_4_rotated.json,760140,1056173,25,Man
36,123935,DepthScenes,duration_manipulation_targetAtFixation,jsons/v1_VE250_randls_4_rotated.json,http://54.235.29.9/FacialAge/BNav_EC2/DepthDuration/v2_depth_duration_MTurk/v2_DepthDuration_HTML.html#50,50,780,357,1366,768,8-20-2022,8-49-17,37,depth_duration_stimuli/000109_2014-05-14_23-41-52_260595134347_rgbf000035-resize_9/000109_2014-05-14_23-41-52_260595134347_rgbf000035-resize_9-target.png,250,1.3545,250,4336,242,meters,jsons/v1_VE250_randls_4_rotated.json,760140,1056173,25,Man
37,123935,DepthScenes,duration_manipulation_targetAtFixation,jsons/v1_VE250_randls_4_rotated.json,http://54.235.29.9/FacialAge/BNav_EC2/DepthDuration/v2_depth_duration_MTurk/v2_DepthDuration_HTML.html#50,50,780,357,1366,768,8-20-2022,8-49-17,38,depth_duration_stimuli/000470_2014-06-09_19-42-40_260595134347_rgbf000094-resize_1/000470_2014-06-09_19-42-40_260595134347_rgbf000094-resize_1-target.png,250,1.831,250,5270,250,meters,jsons/v1_VE250_randls_4_rotated.json,760140,1056173,25,Man
38,123935,DepthScenes,duration_manipulation_targetAtFixation,jsons/v1_VE250_randls_4_rotated.json,http://54.235.29.9/FacialAge/BNav_EC2/DepthDuration/v2_depth_duration_MTurk/v2_DepthDuration_HTML.html#50,50,780,357,1366,768,8-20-2022,8-49-17,39,depth_duration_stimuli/000749_2014-06-08_21-55-06_260595134347_rgbf000070-resize_2/000749_2014-06-08_21-55-06_260595134347_rgbf000070-resize_2-target.png,250,2.331,375,3659,239,meters,jsons/v1_VE250_randls_4_rotated.json,760140,1056173,25,Man
39,123935,DepthScenes,duration_manipulation_targetAtFixation,jsons/v1_VE250_randls_4_rotated.json,http://54.235.29.9/FacialAge/BNav_EC2/DepthDuration/v2_depth_duration_MTurk/v2_DepthDuration_HTML.html#50,50,780,357,1366,768,8-20-2022,8-49-17,40,depth_duration_stimuli/002788_2014-06-22_19-36-03_094959634447_rgbf000088-resize_2/002788_2014-06-22_19-36-03_094959634447_rgbf000088-resize_2-target.png,250,1.6465,150,4109,239,meters,jsons/v1_VE250_randls_4_rotated.json,760140,1056173,25,Man
40,123935,DepthScenes,duration_manipulation_targetAtFixation,jsons/v1_VE250_randls_4_rotated.json,http://54.235.29.9/FacialAge/BNav_EC2/DepthDuration/v2_depth_duration_MTurk/v2_DepthDuration_HTML.html#50,50,780,357,1366,768,8-20-2022,8-49-17,41,depth_duration_stimuli/002414_2014-06-28_20-24-58_260595134347_rgbf000067-resize_4/002414_2014-06-28_20-24-58_260595134347_rgbf000067-resize_4-target.png,250,4.363,250,12115,247,meters,jsons/v1_VE250_randls_4_rotated.json,760140,1056173,25,Man
41,123935,DepthScenes,duration_manipulation_targetAtFixation,jsons/v1_VE250_randls_4_rotated.json,http://54.235.29.9/FacialAge/BNav_EC2/DepthDuration/v2_depth_duration_MTurk/v2_DepthDuration_HTML.html#50,50,780,357,1366,768,8-20-2022,8-49-17,42,depth_duration_stimuli/000773_2014-06-08_22-24-54_260595134347_rgbf000093-resize_1/000773_2014-06-08_22-24-54_260595134347_rgbf000093-resize_1-target.png,250,4.973,250,6491,250,meters,jsons/v1_VE250_randls_4_rotated.json,760140,1056173,25,Man
42,123935,DepthScenes,duration_manipulation_targetAtFixation,jsons/v1_VE250_randls_4_rotated.json,http://54.235.29.9/FacialAge/BNav_EC2/DepthDuration/v2_depth_duration_MTurk/v2_DepthDuration_HTML.html#50,50,780,357,1366,768,8-20-2022,8-49-17,43,depth_duration_stimuli/000457_2014-06-08_16-52-43_260595134347_rgbf000199-resize_1/000457_2014-06-08_16-52-43_260595134347_rgbf000199-resize_1-target.png,250,3.6489999999999996,150,11387,250,meters,jsons/v1_VE250_randls_4_rotated.json,760140,1056173,25,Man
43,123935,DepthScenes,duration_manipulation_targetAtFixation,jsons/v1_VE250_randls_4_rotated.json,http://54.235.29.9/FacialAge/BNav_EC2/DepthDuration/v2_depth_duration_MTurk/v2_DepthDuration_HTML.html#50,50,780,357,1366,768,8-20-2022,8-49-17,44,depth_duration_stimuli/000929_2014-06-09_16-33-19_260595134347_rgbf000139-resize_0/000929_2014-06-09_16-33-19_260595134347_rgbf000139-resize_0-target.png,250,2.8680000000000003,250,3450,250,meters,jsons/v1_VE250_randls_4_rotated.json,760140,1056173,25,Man
44,123935,DepthScenes,duration_manipulation_targetAtFixation,jsons/v1_VE250_randls_4_rotated.json,http://54.235.29.9/FacialAge/BNav_EC2/DepthDuration/v2_depth_duration_MTurk/v2_DepthDuration_HTML.html#50,50,780,357,1366,768,8-20-2022,8-49-17,45,depth_duration_stimuli/001214_2014-06-17_16-13-55_260595134347_rgbf000111-resize_0/001214_2014-06-17_16-13-55_260595134347_rgbf000111-resize_0-target.png,250,2.6505,150,8375,249,meters,jsons/v1_VE250_randls_4_rotated.json,760140,1056173,25,Man
45,123935,DepthScenes,duration_manipulation_targetAtFixation,jsons/v1_VE250_randls_4_rotated.json,http://54.235.29.9/FacialAge/BNav_EC2/DepthDuration/v2_depth_duration_MTurk/v2_DepthDuration_HTML.html#50,50,780,357,1366,768,8-20-2022,8-49-17,46,depth_duration_stimuli/000810_2014-06-08_17-20-01_260595134347_rgbf000105-resize_0/000810_2014-06-08_17-20-01_260595134347_rgbf000105-resize_0-target.png,250,1.4865,750,3698,249,meters,jsons/v1_VE250_randls_4_rotated.json,760140,1056173,25,Man
46,123935,DepthScenes,duration_manipulation_targetAtFixation,jsons/v1_VE250_randls_4_rotated.json,http://54.235.29.9/FacialAge/BNav_EC2/DepthDuration/v2_depth_duration_MTurk/v2_DepthDuration_HTML.html#50,50,780,357,1366,768,8-20-2022,8-49-17,47,depth_duration_stimuli/001052_2014-06-08_18-24-54_260595134347_rgbf000130-resize_1/001052_2014-06-08_18-24-54_260595134347_rgbf000130-resize_1-target.png,250,4.1045,350,4783,249,meters,jsons/v1_VE250_randls_4_rotated.json,760140,1056173,25,Man
47,123935,DepthScenes,duration_manipulation_targetAtFixation,jsons/v1_VE250_randls_4_rotated.json,http://54.235.29.9/FacialAge/BNav_EC2/DepthDuration/v2_depth_duration_MTurk/v2_DepthDuration_HTML.html#50,50,780,357,1366,768,8-20-2022,8-49-17,48,depth_duration_stimuli/002988_2014-06-15_12-24-20_094959634447_rgbf000150-resize_1/002988_2014-06-15_12-24-20_094959634447_rgbf000150-resize_1-target.png,250,4.7669999999999995,375,3483,250,meters,jsons/v1_VE250_randls_4_rotated.json,760140,1056173,25,Man
48,123935,DepthScenes,duration_manipulation_targetAtFixation,jsons/v1_VE250_randls_4_rotated.json,http://54.235.29.9/FacialAge/BNav_EC2/DepthDuration/v2_depth_duration_MTurk/v2_DepthDuration_HTML.html#50,50,780,357,1366,768,8-20-2022,8-49-17,49,depth_duration_stimuli/001170_2014-06-17_15-43-44_260595134347_rgbf000096-resize_6/001170_2014-06-17_15-43-44_260595134347_rgbf000096-resize-original.jpg,250,1.1909999999999998,365,3969,237,meters,jsons/v1_VE250_randls_4_rotated.json,760140,1056173,25,Man
49,123935,DepthScenes,duration_manipulation_targetAtFixation,jsons/v1_VE250_randls_4_rotated.json,http://54.235.29.9/FacialAge/BNav_EC2/DepthDuration/v2_depth_duration_MTurk/v2_DepthDuration_HTML.html#50,50,780,357,1366,768,8-20-2022,8-49-17,50,depth_duration_stimuli/002323_2014-06-28_20-01-54_260595134347_rgbf000051-resize_4/002323_2014-06-28_20-01-54_260595134347_rgbf000051-resize_4-target.png,250,3.7310000000000003,325,3251,248,meters,jsons/v1_VE250_randls_4_rotated.json,760140,1056173,25,Man
50,123935,DepthScenes,duration_manipulation_targetAtFixation,jsons/v1_VE250_randls_4_rotated.json,http://54.235.29.9/FacialAge/BNav_EC2/DepthDuration/v2_depth_duration_MTurk/v2_DepthDuration_HTML.html#50,50,780,357,1366,768,8-20-2022,8-49-17,51,depth_duration_stimuli/000917_2014-06-09_22-45-29_260595134347_rgbf000149-resize_3/000917_2014-06-09_22-45-29_260595134347_rgbf000149-resize_3-target.png,250,4.1865,365,4294,250,meters,jsons/v1_VE250_randls_4_rotated.json,760140,1056173,25,Man
51,123935,DepthScenes,duration_manipulation_targetAtFixation,jsons/v1_VE250_randls_4_rotated.json,http://54.235.29.9/FacialAge/BNav_EC2/DepthDuration/v2_depth_duration_MTurk/v2_DepthDuration_HTML.html#50,50,780,357,1366,768,8-20-2022,8-49-17,52,depth_duration_stimuli/003587_2014-05-23_16-48-02_094959634447_rgbf002384-resize_2/003587_2014-05-23_16-48-02_094959634447_rgbf002384-resize_2-target.png,250,1.357,375,6922,251,meters,jsons/v1_VE250_randls_4_rotated.json,760140,1056173,25,Man
52,123935,DepthScenes,duration_manipulation_targetAtFixation,jsons/v1_VE250_randls_4_rotated.json,http://54.235.29.9/FacialAge/BNav_EC2/DepthDuration/v2_depth_duration_MTurk/v2_DepthDuration_HTML.html#50,50,780,357,1366,768,8-20-2022,8-49-17,53,depth_duration_stimuli/001167_2014-06-17_15-38-07_260595134347_rgbf000108-resize_0/001167_2014-06-17_15-38-07_260595134347_rgbf000108-resize_0-target.png,250,1.8505,220,3484,250,meters,jsons/v1_VE250_randls_4_rotated.json,760140,1056173,25,Man
53,123935,DepthScenes,duration_manipulation_targetAtFixation,jsons/v1_VE250_randls_4_rotated.json,http://54.235.29.9/FacialAge/BNav_EC2/DepthDuration/v2_depth_duration_MTurk/v2_DepthDuration_HTML.html#50,50,780,357,1366,768,8-20-2022,8-49-17,54,depth_duration_stimuli/003490_2014-05-21_15-50-11_094959634447_rgbf000101-resize_3/003490_2014-05-21_15-50-11_094959634447_rgbf000101-resize_3-target.png,250,3.6445,225,5274,250,meters,jsons/v1_VE250_randls_4_rotated.json,760140,1056173,25,Man
54,123935,DepthScenes,duration_manipulation_targetAtFixation,jsons/v1_VE250_randls_4_rotated.json,http://54.235.29.9/FacialAge/BNav_EC2/DepthDuration/v2_depth_duration_MTurk/v2_DepthDuration_HTML.html#50,50,780,357,1366,768,8-20-2022,8-49-17,55,depth_duration_stimuli/001175_2014-06-17_15-45-55_260595134347_rgbf000129-resize_4/001175_2014-06-17_15-45-55_260595134347_rgbf000129-resize_4-target.png,250,4.255,115,4060,244,meters,jsons/v1_VE250_randls_4_rotated.json,760140,1056173,25,Man
55,123935,DepthScenes,duration_manipulation_targetAtFixation,jsons/v1_VE250_randls_4_rotated.json,http://54.235.29.9/FacialAge/BNav_EC2/DepthDuration/v2_depth_duration_MTurk/v2_DepthDuration_HTML.html#50,50,780,357,1366,768,8-20-2022,8-49-17,56,depth_duration_stimuli/001617_2014-06-20_11-35-32_260595134347_rgbf000066-resize_1/001617_2014-06-20_11-35-32_260595134347_rgbf000066-resize_1-target.png,250,3.7910000000000004,225,4488,247,meters,jsons/v1_VE250_randls_4_rotated.json,760140,1056173,25,Man
56,123935,DepthScenes,duration_manipulation_targetAtFixation,jsons/v1_VE250_randls_4_rotated.json,http://54.235.29.9/FacialAge/BNav_EC2/DepthDuration/v2_depth_duration_MTurk/v2_DepthDuration_HTML.html#50,50,780,357,1366,768,8-20-2022,8-49-17,57,depth_duration_stimuli/001806_2014-06-26_20-50-20_260595134347_rgbf000091-resize_1/001806_2014-06-26_20-50-20_260595134347_rgbf000091-resize_1-target.png,250,2.7305,325,4612,251,meters,jsons/v1_VE250_randls_4_rotated.json,760140,1056173,25,Man
57,123935,DepthScenes,duration_manipulation_targetAtFixation,jsons/v1_VE250_randls_4_rotated.json,http://54.235.29.9/FacialAge/BNav_EC2/DepthDuration/v2_depth_duration_MTurk/v2_DepthDuration_HTML.html#50,50,780,357,1366,768,8-20-2022,8-49-17,58,depth_duration_stimuli/002545_2014-06-24_13-38-53_094959634447_rgbf000080-resize_4/002545_2014-06-24_13-38-53_094959634447_rgbf000080-resize_4-target.png,250,1.9205,165,4791,237,meters,jsons/v1_VE250_randls_4_rotated.json,760140,1056173,25,Man
58,123935,DepthScenes,duration_manipulation_targetAtFixation,jsons/v1_VE250_randls_4_rotated.json,http://54.235.29.9/FacialAge/BNav_EC2/DepthDuration/v2_depth_duration_MTurk/v2_DepthDuration_HTML.html#50,50,780,357,1366,768,8-20-2022,8-49-17,59,depth_duration_stimuli/001092_2014-06-15_17-34-58_260595134347_rgbf000171-resize_3/001092_2014-06-15_17-34-58_260595134347_rgbf000171-resize_3-target.png,250,2.6935,250,4138,251,meters,jsons/v1_VE250_randls_4_rotated.json,760140,1056173,25,Man
59,123935,DepthScenes,duration_manipulation_targetAtFixation,jsons/v1_VE250_randls_4_rotated.json,http://54.235.29.9/FacialAge/BNav_EC2/DepthDuration/v2_depth_duration_MTurk/v2_DepthDuration_HTML.html#50,50,780,357,1366,768,8-20-2022,8-49-17,60,depth_duration_stimuli/001815_2014-06-26_20-52-55_260595134347_rgbf000020-resize_0/001815_2014-06-26_20-52-55_260595134347_rgbf000020-resize_0-target.png,250,3.3865,650,6412,251,meters,jsons/v1_VE250_randls_4_rotated.json,760140,1056173,25,Man
60,123935,DepthScenes,duration_manipulation_targetAtFixation,jsons/v1_VE250_randls_4_rotated.json,http://54.235.29.9/FacialAge/BNav_EC2/DepthDuration/v2_depth_duration_MTurk/v2_DepthDuration_HTML.html#50,50,780,357,1366,768,8-20-2022,8-49-17,61,depth_duration_stimuli/001808_2014-06-26_20-50-58_260595134347_rgbf000029-resize_1/001808_2014-06-26_20-50-58_260595134347_rgbf000029-resize_1-target.png,250,4.249,125,6434,264,meters,jsons/v1_VE250_randls_4_rotated.json,760140,1056173,25,Man
61,123935,DepthScenes,duration_manipulation_targetAtFixation,jsons/v1_VE250_randls_4_rotated.json,http://54.235.29.9/FacialAge/BNav_EC2/DepthDuration/v2_depth_duration_MTurk/v2_DepthDuration_HTML.html#50,50,780,357,1366,768,8-20-2022,8-49-17,62,depth_duration_stimuli/000549_2014-06-08_22-10-24_260595134347_rgbf000247-resize_3/000549_2014-06-08_22-10-24_260595134347_rgbf000247-resize_3-target.png,250,1.841,150,5225,249,meters,jsons/v1_VE250_randls_4_rotated.json,760140,1056173,25,Man
62,123935,DepthScenes,duration_manipulation_targetAtFixation,jsons/v1_VE250_randls_4_rotated.json,http://54.235.29.9/FacialAge/BNav_EC2/DepthDuration/v2_depth_duration_MTurk/v2_DepthDuration_HTML.html#50,50,780,357,1366,768,8-20-2022,8-49-17,63,depth_duration_stimuli/001055_2014-06-08_18-45-35_260595134347_rgbf000111-resize_4/001055_2014-06-08_18-45-35_260595134347_rgbf000111-resize_4-target.png,250,2.4290000000000003,365,7059,250,meters,jsons/v1_VE250_randls_4_rotated.json,760140,1056173,25,Man
63,123935,DepthScenes,duration_manipulation_targetAtFixation,jsons/v1_VE250_randls_4_rotated.json,http://54.235.29.9/FacialAge/BNav_EC2/DepthDuration/v2_depth_duration_MTurk/v2_DepthDuration_HTML.html#50,50,780,357,1366,768,8-20-2022,8-49-17,64,depth_duration_stimuli/000677_2014-06-08_23-10-32_260595134347_rgbf000158-resize_6/000677_2014-06-08_23-10-32_260595134347_rgbf000158-resize_6-target.png,250,3.556,250,3951,249,meters,jsons/v1_VE250_randls_4_rotated.json,760140,1056173,25,Man
64,123935,DepthScenes,duration_manipulation_targetAtFixation,jsons/v1_VE250_randls_4_rotated.json,http://54.235.29.9/FacialAge/BNav_EC2/DepthDuration/v2_depth_duration_MTurk/v2_DepthDuration_HTML.html#50,50,780,357,1366,768,8-20-2022,8-49-17,65,depth_duration_stimuli/001029_2014-06-08_13-17-57_260595134347_rgbf000065-resize_1/001029_2014-06-08_13-17-57_260595134347_rgbf000065-resize_1-target.png,250,3.0835,250,4002,272,meters,jsons/v1_VE250_randls_4_rotated.json,760140,1056173,25,Man
65,123935,DepthScenes,duration_manipulation_targetAtFixation,jsons/v1_VE250_randls_4_rotated.json,http://54.235.29.9/FacialAge/BNav_EC2/DepthDuration/v2_depth_duration_MTurk/v2_DepthDuration_HTML.html#50,50,780,357,1366,768,8-20-2022,8-49-17,66,depth_duration_stimuli/001540_2014-06-20_17-01-05_260595134347_rgbf000086-resize_2/001540_2014-06-20_17-01-05_260595134347_rgbf000086-resize-original.jpg,250,1.459,550,5798,233,meters,jsons/v1_VE250_randls_4_rotated.json,760140,1056173,25,Man
66,123935,DepthScenes,duration_manipulation_targetAtFixation,jsons/v1_VE250_randls_4_rotated.json,http://54.235.29.9/FacialAge/BNav_EC2/DepthDuration/v2_depth_duration_MTurk/v2_DepthDuration_HTML.html#50,50,780,357,1366,768,8-20-2022,8-49-17,67,depth_duration_stimuli/000409_2014-06-04_19-23-33_260595134347_rgbf000067-resize_0/000409_2014-06-04_19-23-33_260595134347_rgbf000067-resize_0-target.png,250,3.7335,250,4762,249,meters,jsons/v1_VE250_randls_4_rotated.json,760140,1056173,25,Man
67,123935,DepthScenes,duration_manipulation_targetAtFixation,jsons/v1_VE250_randls_4_rotated.json,http://54.235.29.9/FacialAge/BNav_EC2/DepthDuration/v2_depth_duration_MTurk/v2_DepthDuration_HTML.html#50,50,780,357,1366,768,8-20-2022,8-49-17,68,depth_duration_stimuli/002663_2014-06-13_15-50-26_094959634447_rgbf000075-resize_1/002663_2014-06-13_15-50-26_094959634447_rgbf000075-resize_1-target.png,250,4.7495,150,3908,253,meters,jsons/v1_VE250_randls_4_rotated.json,760140,1056173,25,Man
68,123935,DepthScenes,duration_manipulation_targetAtFixation,jsons/v1_VE250_randls_4_rotated.json,http://54.235.29.9/FacialAge/BNav_EC2/DepthDuration/v2_depth_duration_MTurk/v2_DepthDuration_HTML.html#50,50,780,357,1366,768,8-20-2022,8-49-17,69,depth_duration_stimuli/003081_2014-06-15_15-19-16_094959634447_rgbf000150-resize_1/003081_2014-06-15_15-19-16_094959634447_rgbf000150-resize_1-target.png,250,3.9125,325,5699,264,meters,jsons/v1_VE250_randls_4_rotated.json,760140,1056173,25,Man
69,123935,DepthScenes,duration_manipulation_targetAtFixation,jsons/v1_VE250_randls_4_rotated.json,http://54.235.29.9/FacialAge/BNav_EC2/DepthDuration/v2_depth_duration_MTurk/v2_DepthDuration_HTML.html#50,50,780,357,1366,768,8-20-2022,8-49-17,70,depth_duration_stimuli/001417_2014-06-19_16-25-36_260595134347_rgbf000115-resize_5/001417_2014-06-19_16-25-36_260595134347_rgbf000115-resize_5-target.png,250,4.6255,125,3365,252,meters,jsons/v1_VE250_randls_4_rotated.json,760140,1056173,25,Man
70,123935,DepthScenes,duration_manipulation_targetAtFixation,jsons/v1_VE250_randls_4_rotated.json,http://54.235.29.9/FacialAge/BNav_EC2/DepthDuration/v2_depth_duration_MTurk/v2_DepthDuration_HTML.html#50,50,780,357,1366,768,8-20-2022,8-49-17,71,depth_duration_stimuli/002425_2014-06-28_20-27-29_260595134347_rgbf000031-resize_8/002425_2014-06-28_20-27-29_260595134347_rgbf000031-resize_8-target.png,250,3.8960000000000004,360,3337,249,meters,jsons/v1_VE250_randls_4_rotated.json,760140,1056173,25,Man
71,123935,DepthScenes,duration_manipulation_targetAtFixation,jsons/v1_VE250_randls_4_rotated.json,http://54.235.29.9/FacialAge/BNav_EC2/DepthDuration/v2_depth_duration_MTurk/v2_DepthDuration_HTML.html#50,50,780,357,1366,768,8-20-2022,8-49-17,72,depth_duration_stimuli/000642_2014-06-08_16-59-25_260595134347_rgbf000098-resize_2/000642_2014-06-08_16-59-25_260595134347_rgbf000098-resize_2-target.png,250,2.8815,160,3547,265,meters,jsons/v1_VE250_randls_4_rotated.json,760140,1056173,25,Man
72,123935,DepthScenes,duration_manipulation_targetAtFixation,jsons/v1_VE250_randls_4_rotated.json,http://54.235.29.9/FacialAge/BNav_EC2/DepthDuration/v2_depth_duration_MTurk/v2_DepthDuration_HTML.html#50,50,780,357,1366,768,8-20-2022,8-49-17,73,depth_duration_stimuli/000502_2014-06-08_23-02-32_260595134347_rgbf000063-resize_4/000502_2014-06-08_23-02-32_260595134347_rgbf000063-resize_4-target.png,250,2.431,225,3963,251,meters,jsons/v1_VE250_randls_4_rotated.json,760140,1056173,25,Man
73,123935,DepthScenes,duration_manipulation_targetAtFixation,jsons/v1_VE250_randls_4_rotated.json,http://54.235.29.9/FacialAge/BNav_EC2/DepthDuration/v2_depth_duration_MTurk/v2_DepthDuration_HTML.html#50,50,780,357,1366,768,8-20-2022,8-49-17,74,depth_duration_stimuli/001199_2014-06-17_16-03-48_260595134347_rgbf000077-resize_0/001199_2014-06-17_16-03-48_260595134347_rgbf000077-resize_0-target.png,250,3.4375,198,5560,250,meters,jsons/v1_VE250_randls_4_rotated.json,760140,1056173,25,Man
74,123935,DepthScenes,duration_manipulation_targetAtFixation,jsons/v1_VE250_randls_4_rotated.json,http://54.235.29.9/FacialAge/BNav_EC2/DepthDuration/v2_depth_duration_MTurk/v2_DepthDuration_HTML.html#50,50,780,357,1366,768,8-20-2022,8-49-17,75,depth_duration_stimuli/000780_2014-06-08_22-28-29_260595134347_rgbf000126-resize_1/000780_2014-06-08_22-28-29_260595134347_rgbf000126-resize_1-target.png,250,3.3825,225,4202,245,meters,jsons/v1_VE250_randls_4_rotated.json,760140,1056173,25,Man
75,123935,DepthScenes,duration_manipulation_targetAtFixation,jsons/v1_VE250_randls_4_rotated.json,http://54.235.29.9/FacialAge/BNav_EC2/DepthDuration/v2_depth_duration_MTurk/v2_DepthDuration_HTML.html#50,50,780,357,1366,768,8-20-2022,8-49-17,76,depth_duration_stimuli/002445_2014-06-28_20-32-16_260595134347_rgbf000029-resize_4/002445_2014-06-28_20-32-16_260595134347_rgbf000029-resize_4-target.png,250,2.5315,650,4843,249,meters,jsons/v1_VE250_randls_4_rotated.json,760140,1056173,25,Man
76,123935,DepthScenes,duration_manipulation_targetAtFixation,jsons/v1_VE250_randls_4_rotated.json,http://54.235.29.9/FacialAge/BNav_EC2/DepthDuration/v2_depth_duration_MTurk/v2_DepthDuration_HTML.html#50,50,780,357,1366,768,8-20-2022,8-49-17,77,depth_duration_stimuli/002805_2014-06-22_19-54-03_094959634447_rgbf000079-resize_1/002805_2014-06-22_19-54-03_094959634447_rgbf000079-resize_1-target.png,250,3.1439999999999997,228,4241,251,meters,jsons/v1_VE250_randls_4_rotated.json,760140,1056173,25,Man
77,123935,DepthScenes,duration_manipulation_targetAtFixation,jsons/v1_VE250_randls_4_rotated.json,http://54.235.29.9/FacialAge/BNav_EC2/DepthDuration/v2_depth_duration_MTurk/v2_DepthDuration_HTML.html#50,50,780,357,1366,768,8-20-2022,8-49-17,78,depth_duration_stimuli/000906_2014-06-08_13-35-43_260595134347_rgbf000155-resize_1/000906_2014-06-08_13-35-43_260595134347_rgbf000155-resize_1-target.png,250,2.8489999999999998,125,3110,251,meters,jsons/v1_VE250_randls_4_rotated.json,760140,1056173,25,Man
78,123935,DepthScenes,duration_manipulation_targetAtFixation,jsons/v1_VE250_randls_4_rotated.json,http://54.235.29.9/FacialAge/BNav_EC2/DepthDuration/v2_depth_duration_MTurk/v2_DepthDuration_HTML.html#50,50,780,357,1366,768,8-20-2022,8-49-17,79,depth_duration_stimuli/002199_2014-06-28_18-33-56_260595134347_rgbf000074-resize_0/002199_2014-06-28_18-33-56_260595134347_rgbf000074-resize_0-target.png,250,1.996,236,3196,242,meters,jsons/v1_VE250_randls_4_rotated.json,760140,1056173,25,Man
79,123935,DepthScenes,duration_manipulation_targetAtFixation,jsons/v1_VE250_randls_4_rotated.json,http://54.235.29.9/FacialAge/BNav_EC2/DepthDuration/v2_depth_duration_MTurk/v2_DepthDuration_HTML.html#50,50,780,357,1366,768,8-20-2022,8-49-17,80,depth_duration_stimuli/001056_2014-06-08_18-46-44_260595134347_rgbf000068-resize_0/001056_2014-06-08_18-46-44_260595134347_rgbf000068-resize_0-target.png,250,2.6625,242,3185,254,meters,jsons/v1_VE250_randls_4_rotated.json,760140,1056173,25,Man
80,123935,DepthScenes,duration_manipulation_targetAtFixation,jsons/v1_VE250_randls_4_rotated.json,http://54.235.29.9/FacialAge/BNav_EC2/DepthDuration/v2_depth_duration_MTurk/v2_DepthDuration_HTML.html#50,50,780,357,1366,768,8-20-2022,8-49-17,81,depth_duration_stimuli/000483_2014-06-09_20-41-45_260595134347_rgbf000116-resize_4/000483_2014-06-09_20-41-45_260595134347_rgbf000116-resize_4-target.png,250,1.337,124,2947,250,meters,jsons/v1_VE250_randls_4_rotated.json,760140,1056173,25,Man
81,123935,DepthScenes,duration_manipulation_targetAtFixation,jsons/v1_VE250_randls_4_rotated.json,http://54.235.29.9/FacialAge/BNav_EC2/DepthDuration/v2_depth_duration_MTurk/v2_DepthDuration_HTML.html#50,50,780,357,1366,768,8-20-2022,8-49-17,82,depth_duration_stimuli/000469_2014-06-09_19-42-10_260595134347_rgbf000081-resize_1/000469_2014-06-09_19-42-10_260595134347_rgbf000081-resize_1-target.png,250,1.652,542,3866,248,meters,jsons/v1_VE250_randls_4_rotated.json,760140,1056173,25,Man
82,123935,DepthScenes,duration_manipulation_targetAtFixation,jsons/v1_VE250_randls_4_rotated.json,http://54.235.29.9/FacialAge/BNav_EC2/DepthDuration/v2_depth_duration_MTurk/v2_DepthDuration_HTML.html#50,50,780,357,1366,768,8-20-2022,8-49-17,83,depth_duration_stimuli/003495_2014-05-21_16-01-51_094959634447_rgbf000100-resize_3/003495_2014-05-21_16-01-51_094959634447_rgbf000100-resize_3-target.png,250,1.6255,45,3123,248,meters,jsons/v1_VE250_randls_4_rotated.json,760140,1056173,25,Man
83,123935,DepthScenes,duration_manipulation_targetAtFixation,jsons/v1_VE250_randls_4_rotated.json,http://54.235.29.9/FacialAge/BNav_EC2/DepthDuration/v2_depth_duration_MTurk/v2_DepthDuration_HTML.html#50,50,780,357,1366,768,8-20-2022,8-49-17,84,depth_duration_stimuli/001244_2014-06-17_16-47-45_260595134347_rgbf000030-resize_4/001244_2014-06-17_16-47-45_260595134347_rgbf000030-resize_4-target.png,250,2.0425,242,2690,248,meters,jsons/v1_VE250_randls_4_rotated.json,760140,1056173,25,Man
84,123935,DepthScenes,duration_manipulation_targetAtFixation,jsons/v1_VE250_randls_4_rotated.json,http://54.235.29.9/FacialAge/BNav_EC2/DepthDuration/v2_depth_duration_MTurk/v2_DepthDuration_HTML.html#50,50,780,357,1366,768,8-20-2022,8-49-17,85,depth_duration_stimuli/000691_2014-06-08_13-08-50_260595134347_rgbf000132-resize_3/000691_2014-06-08_13-08-50_260595134347_rgbf000132-resize_3-target.png,250,4.1530000000000005,127,3367,260,meters,jsons/v1_VE250_randls_4_rotated.json,760140,1056173,25,Man
85,123935,DepthScenes,duration_manipulation_targetAtFixation,jsons/v1_VE250_randls_4_rotated.json,http://54.235.29.9/FacialAge/BNav_EC2/DepthDuration/v2_depth_duration_MTurk/v2_DepthDuration_HTML.html#50,50,780,357,1366,768,8-20-2022,8-49-17,86,depth_duration_stimuli/002213_2014-06-28_18-37-58_260595134347_rgbf000055-resize_1/002213_2014-06-28_18-37-58_260595134347_rgbf000055-resize_1-target.png,250,3.62,257,3274,247,meters,jsons/v1_VE250_randls_4_rotated.json,760140,1056173,25,Man
86,123935,DepthScenes,duration_manipulation_targetAtFixation,jsons/v1_VE250_randls_4_rotated.json,http://54.235.29.9/FacialAge/BNav_EC2/DepthDuration/v2_depth_duration_MTurk/v2_DepthDuration_HTML.html#50,50,780,357,1366,768,8-20-2022,8-49-17,87,depth_duration_stimuli/001447_2014-06-19_17-00-32_260595134347_rgbf000082-resize_5/001447_2014-06-19_17-00-32_260595134347_rgbf000082-resize_5-target.png,250,4.13775,256,3347,248,meters,jsons/v1_VE250_randls_4_rotated.json,760140,1056173,25,Man
87,123935,DepthScenes,duration_manipulation_targetAtFixation,jsons/v1_VE250_randls_4_rotated.json,http://54.235.29.9/FacialAge/BNav_EC2/DepthDuration/v2_depth_duration_MTurk/v2_DepthDuration_HTML.html#50,50,780,357,1366,768,8-20-2022,8-49-17,88,depth_duration_stimuli/000447_2014-06-08_16-15-46_260595134347_rgbf000130-resize_1/000447_2014-06-08_16-15-46_260595134347_rgbf000130-resize_1-target.png,250,4.479,258,3890,249,meters,jsons/v1_VE250_randls_4_rotated.json,760140,1056173,25,Man
88,123935,DepthScenes,duration_manipulation_targetAtFixation,jsons/v1_VE250_randls_4_rotated.json,http://54.235.29.9/FacialAge/BNav_EC2/DepthDuration/v2_depth_duration_MTurk/v2_DepthDuration_HTML.html#50,50,780,357,1366,768,8-20-2022,8-49-17,89,depth_duration_stimuli/002209_2014-06-28_18-36-10_260595134347_rgbf000051-resize_1/002209_2014-06-28_18-36-10_260595134347_rgbf000051-resize_1-target.png,250,2.057,256,4291,251,meters,jsons/v1_VE250_randls_4_rotated.json,760140,1056173,25,Man
89,123935,DepthScenes,duration_manipulation_targetAtFixation,jsons/v1_VE250_randls_4_rotated.json,http://54.235.29.9/FacialAge/BNav_EC2/DepthDuration/v2_depth_duration_MTurk/v2_DepthDuration_HTML.html#50,50,780,357,1366,768,8-20-2022,8-49-17,90,depth_duration_stimuli/002763_2014-06-22_19-13-10_094959634447_rgbf000075-resize_4/002763_2014-06-22_19-13-10_094959634447_rgbf000075-resize_4-target.png,250,1.68375,532,3205,246,meters,jsons/v1_VE250_randls_4_rotated.json,760140,1056173,25,Man
90,123935,DepthScenes,duration_manipulation_targetAtFixation,jsons/v1_VE250_randls_4_rotated.json,http://54.235.29.9/FacialAge/BNav_EC2/DepthDuration/v2_depth_duration_MTurk/v2_DepthDuration_HTML.html#50,50,780,357,1366,768,8-20-2022,8-49-17,91,depth_duration_stimuli/002637_2014-06-24_14-51-13_094959634447_rgbf000066-resize_4/002637_2014-06-24_14-51-13_094959634447_rgbf000066-resize_4-target.png,250,1.9955,152,3382,237,meters,jsons/v1_VE250_randls_4_rotated.json,760140,1056173,25,Man
91,123935,DepthScenes,duration_manipulation_targetAtFixation,jsons/v1_VE250_randls_4_rotated.json,http://54.235.29.9/FacialAge/BNav_EC2/DepthDuration/v2_depth_duration_MTurk/v2_DepthDuration_HTML.html#50,50,780,357,1366,768,8-20-2022,8-49-17,92,depth_duration_stimuli/003534_2014-05-22_15-06-10_094959634447_rgbf000102-resize_4/003534_2014-05-22_15-06-10_094959634447_rgbf000102-resize_4-target.png,250,1.426,253,3372,241,meters,jsons/v1_VE250_randls_4_rotated.json,760140,1056173,25,Man
92,123935,DepthScenes,duration_manipulation_targetAtFixation,jsons/v1_VE250_randls_4_rotated.json,http://54.235.29.9/FacialAge/BNav_EC2/DepthDuration/v2_depth_duration_MTurk/v2_DepthDuration_HTML.html#50,50,780,357,1366,768,8-20-2022,8-49-17,93,depth_duration_stimuli/001828_2014-06-26_21-40-03_260595134347_rgbf000024-resize_0/001828_2014-06-26_21-40-03_260595134347_rgbf000024-resize_0-target.png,250,4.8260000000000005,256,3713,248,meters,jsons/v1_VE250_randls_4_rotated.json,760140,1056173,25,Man
93,123935,DepthScenes,duration_manipulation_targetAtFixation,jsons/v1_VE250_randls_4_rotated.json,http://54.235.29.9/FacialAge/BNav_EC2/DepthDuration/v2_depth_duration_MTurk/v2_DepthDuration_HTML.html#50,50,780,357,1366,768,8-20-2022,8-49-17,94,depth_duration_stimuli/000009_2014-05-26_14-32-05_260595134347_rgbf000034-resize_3/000009_2014-05-26_14-32-05_260595134347_rgbf000034-resize_3-target.png,250,3.8715,386,4363,258,meters,jsons/v1_VE250_randls_4_rotated.json,760140,1056173,25,Man
94,123935,DepthScenes,duration_manipulation_targetAtFixation,jsons/v1_VE250_randls_4_rotated.json,http://54.235.29.9/FacialAge/BNav_EC2/DepthDuration/v2_depth_duration_MTurk/v2_DepthDuration_HTML.html#50,50,780,357,1366,768,8-20-2022,8-49-17,95,depth_duration_stimuli/000635_2014-06-08_16-38-42_260595134347_rgbf000106-resize_1/000635_2014-06-08_16-38-42_260595134347_rgbf000106-resize_1-target.png,250,2.074,238,4200,249,meters,jsons/v1_VE250_randls_4_rotated.json,760140,1056173,25,Man
95,123935,DepthScenes,duration_manipulation_targetAtFixation,jsons/v1_VE250_randls_4_rotated.json,http://54.235.29.9/FacialAge/BNav_EC2/DepthDuration/v2_depth_duration_MTurk/v2_DepthDuration_HTML.html#50,50,780,357,1366,768,8-20-2022,8-49-17,96,depth_duration_stimuli/002279_2014-06-28_18-55-32_260595134347_rgbf000040-resize_5/002279_2014-06-28_18-55-32_260595134347_rgbf000040-resize_5-target.png,250,1.5043333333333,235,3433,251,meters,jsons/v1_VE250_randls_4_rotated.json,760140,1056173,25,Man
96,123935,DepthScenes,duration_manipulation_targetAtFixation,jsons/v1_VE250_randls_4_rotated.json,http://54.235.29.9/FacialAge/BNav_EC2/DepthDuration/v2_depth_duration_MTurk/v2_DepthDuration_HTML.html#50,50,780,357,1366,768,8-20-2022,8-49-17,97,depth_duration_stimuli/000943_2014-06-09_19-31-07_260595134347_rgbf000128-resize_1/000943_2014-06-09_19-31-07_260595134347_rgbf000128-resize_1-target.png,250,1.9765,562,3502,251,meters,jsons/v1_VE250_randls_4_rotated.json,760140,1056173,25,Man
97,123935,DepthScenes,duration_manipulation_targetAtFixation,jsons/v1_VE250_randls_4_rotated.json,http://54.235.29.9/FacialAge/BNav_EC2/DepthDuration/v2_depth_duration_MTurk/v2_DepthDuration_HTML.html#50,50,780,357,1366,768,8-20-2022,8-49-17,98,depth_duration_stimuli/003070_2014-06-15_14-58-27_094959634447_rgbf000150-resize_3/003070_2014-06-15_14-58-27_094959634447_rgbf000150-resize_3-target.png,250,2.9415,125,3549,250,meters,jsons/v1_VE250_randls_4_rotated.json,760140,1056173,25,Man
98,123935,DepthScenes,duration_manipulation_targetAtFixation,jsons/v1_VE250_randls_4_rotated.json,http://54.235.29.9/FacialAge/BNav_EC2/DepthDuration/v2_depth_duration_MTurk/v2_DepthDuration_HTML.html#50,50,780,357,1366,768,8-20-2022,8-49-17,99,depth_duration_stimuli/001222_2014-06-17_16-24-06_260595134347_rgbf000073-resize_0/001222_2014-06-17_16-24-06_260595134347_rgbf000073-resize-original.jpg,250,1.4385,325,4333,261,meters,jsons/v1_VE250_randls_4_rotated.json,760140,1056173,25,Man
99,123935,DepthScenes,duration_manipulation_targetAtFixation,jsons/v1_VE250_randls_4_rotated.json,http://54.235.29.9/FacialAge/BNav_EC2/DepthDuration/v2_depth_duration_MTurk/v2_DepthDuration_HTML.html#50,50,780,357,1366,768,8-20-2022,8-49-17,100,depth_duration_stimuli/002444_2014-06-28_20-32-08_260595134347_rgbf000027-resize_0/002444_2014-06-28_20-32-08_260595134347_rgbf000027-resize_0-target.png,250,4.388999999999999,256,3427,249,meters,jsons/v1_VE250_randls_4_rotated.json,760140,1056173,25,Man
100,123935,DepthScenes,duration_manipulation_targetAtFixation,jsons/v1_VE250_randls_4_rotated.json,http://54.235.29.9/FacialAge/BNav_EC2/DepthDuration/v2_depth_duration_MTurk/v2_DepthDuration_HTML.html#50,50,780,357,1366,768,8-20-2022,8-49-17,101,depth_duration_stimuli/000436_2014-06-09_22-25-11_260595134347_rgbf000137-resize_1/000436_2014-06-09_22-25-11_260595134347_rgbf000137-resize_1-target.png,250,4.0705,251,3313,250,meters,jsons/v1_VE250_randls_4_rotated.json,760140,1056173,25,Man
101,123935,DepthScenes,duration_manipulation_targetAtFixation,jsons/v1_VE250_randls_4_rotated.json,http://54.235.29.9/FacialAge/BNav_EC2/DepthDuration/v2_depth_duration_MTurk/v2_DepthDuration_HTML.html#50,50,780,357,1366,768,8-20-2022,8-49-17,102,depth_duration_stimuli/003423_2014-05-21_10-23-26_094959634447_rgbf002665-resize_2/003423_2014-05-21_10-23-26_094959634447_rgbf002665-resize_2-target.png,250,3.2575,235,3294,250,meters,jsons/v1_VE250_randls_4_rotated.json,760140,1056173,25,Man
102,123935,DepthScenes,duration_manipulation_targetAtFixation,jsons/v1_VE250_randls_4_rotated.json,http://54.235.29.9/FacialAge/BNav_EC2/DepthDuration/v2_depth_duration_MTurk/v2_DepthDuration_HTML.html#50,50,780,357,1366,768,8-20-2022,8-49-17,103,depth_duration_stimuli/002905_2014-06-03_18-04-43_094959634447_rgbf000151-resize_2/002905_2014-06-03_18-04-43_094959634447_rgbf000151-resize_2-target.png,250,2.0295,562,3406,249,meters,jsons/v1_VE250_randls_4_rotated.json,760140,1056173,25,Man
103,123935,DepthScenes,duration_manipulation_targetAtFixation,jsons/v1_VE250_randls_4_rotated.json,http://54.235.29.9/FacialAge/BNav_EC2/DepthDuration/v2_depth_duration_MTurk/v2_DepthDuration_HTML.html#50,50,780,357,1366,768,8-20-2022,8-49-17,104,depth_duration_stimuli/002995_2014-06-15_12-31-26_094959634447_rgbf000150-resize_1/002995_2014-06-15_12-31-26_094959634447_rgbf000150-resize_1-target.png,250,3.8360000000000003,236,3115,241,meters,jsons/v1_VE250_randls_4_rotated.json,760140,1056173,25,Man
104,123935,DepthScenes,duration_manipulation_targetAtFixation,jsons/v1_VE250_randls_4_rotated.json,http://54.235.29.9/FacialAge/BNav_EC2/DepthDuration/v2_depth_duration_MTurk/v2_DepthDuration_HTML.html#50,50,780,357,1366,768,8-20-2022,8-49-17,105,depth_duration_stimuli/002748_2014-06-22_19-07-22_094959634447_rgbf000078-resize_1/002748_2014-06-22_19-07-22_094959634447_rgbf000078-resize_1-target.png,250,4.6705,360,3241,242,meters,jsons/v1_VE250_randls_4_rotated.json,760140,1056173,25,Man
105,123935,DepthScenes,duration_manipulation_targetAtFixation,jsons/v1_VE250_randls_4_rotated.json,http://54.235.29.9/FacialAge/BNav_EC2/DepthDuration/v2_depth_duration_MTurk/v2_DepthDuration_HTML.html#50,50,780,357,1366,768,8-20-2022,8-49-17,106,depth_duration_stimuli/002953_2014-06-08_17-32-18_094959634447_rgbf000059-resize_5/002953_2014-06-08_17-32-18_094959634447_rgbf000059-resize_5-target.png,250,1.551,270,3237,292,meters,jsons/v1_VE250_randls_4_rotated.json,760140,1056173,25,Man
106,123935,DepthScenes,duration_manipulation_targetAtFixation,jsons/v1_VE250_randls_4_rotated.json,http://54.235.29.9/FacialAge/BNav_EC2/DepthDuration/v2_depth_duration_MTurk/v2_DepthDuration_HTML.html#50,50,780,357,1366,768,8-20-2022,8-49-17,107,depth_duration_stimuli/000878_2014-06-08_22-52-45_260595134347_rgbf000045-resize_2/000878_2014-06-08_22-52-45_260595134347_rgbf000045-resize_2-target.png,250,2.092,265,3294,245,meters,jsons/v1_VE250_randls_4_rotated.json,760140,1056173,25,Man
107,123935,DepthScenes,duration_manipulation_targetAtFixation,jsons/v1_VE250_randls_4_rotated.json,http://54.235.29.9/FacialAge/BNav_EC2/DepthDuration/v2_depth_duration_MTurk/v2_DepthDuration_HTML.html#50,50,780,357,1366,768,8-20-2022,8-49-17,108,depth_duration_stimuli/002344_2014-06-28_20-06-29_260595134347_rgbf000030-resize_1/002344_2014-06-28_20-06-29_260595134347_rgbf000030-resize_1-target.png,250,1.5795,265,3161,250,meters,jsons/v1_VE250_randls_4_rotated.json,760140,1056173,25,Man
108,123935,DepthScenes,duration_manipulation_targetAtFixation,jsons/v1_VE250_randls_4_rotated.json,http://54.235.29.9/FacialAge/BNav_EC2/DepthDuration/v2_depth_duration_MTurk/v2_DepthDuration_HTML.html#50,50,780,357,1366,768,8-20-2022,8-49-17,109,depth_duration_stimuli/002725_2014-06-22_11-47-51_094959634447_rgbf000070-resize_1/002725_2014-06-22_11-47-51_094959634447_rgbf000070-resize_1-target.png,250,2.195,216,3872,237,meters,jsons/v1_VE250_randls_4_rotated.json,760140,1056173,25,Man
109,123935,DepthScenes,duration_manipulation_targetAtFixation,jsons/v1_VE250_randls_4_rotated.json,http://54.235.29.9/FacialAge/BNav_EC2/DepthDuration/v2_depth_duration_MTurk/v2_DepthDuration_HTML.html#50,50,780,357,1366,768,8-20-2022,8-49-17,110,depth_duration_stimuli/001650_2014-06-20_12-09-00_260595134347_rgbf000087-resize_3/001650_2014-06-20_12-09-00_260595134347_rgbf000087-resize_3-target.png,250,1.9505,235,4583,251,meters,jsons/v1_VE250_randls_4_rotated.json,760140,1056173,25,Man
110,123935,DepthScenes,duration_manipulation_targetAtFixation,jsons/v1_VE250_randls_4_rotated.json,http://54.235.29.9/FacialAge/BNav_EC2/DepthDuration/v2_depth_duration_MTurk/v2_DepthDuration_HTML.html#50,50,780,357,1366,768,8-20-2022,8-49-17,111,depth_duration_stimuli/000682_2014-06-08_23-14-58_260595134347_rgbf000041-resize_5/000682_2014-06-08_23-14-58_260595134347_rgbf000041-resize_5-target.png,250,2.7239999999999998,253,4019,248,meters,jsons/v1_VE250_randls_4_rotated.json,760140,1056173,25,Man
111,123935,DepthScenes,duration_manipulation_targetAtFixation,jsons/v1_VE250_randls_4_rotated.json,http://54.235.29.9/FacialAge/BNav_EC2/DepthDuration/v2_depth_duration_MTurk/v2_DepthDuration_HTML.html#50,50,780,357,1366,768,8-20-2022,8-49-17,112,depth_duration_stimuli/001571_2014-06-20_17-21-32_260595134347_rgbf000089-resize_1/001571_2014-06-20_17-21-32_260595134347_rgbf000089-resize_1-target.png,250,1.86,253,3183,248,meters,jsons/v1_VE250_randls_4_rotated.json,760140,1056173,25,Man
112,123935,DepthScenes,duration_manipulation_targetAtFixation,jsons/v1_VE250_randls_4_rotated.json,http://54.235.29.9/FacialAge/BNav_EC2/DepthDuration/v2_depth_duration_MTurk/v2_DepthDuration_HTML.html#50,50,780,357,1366,768,8-20-2022,8-49-17,113,depth_duration_stimuli/002272_2014-06-28_18-53-56_260595134347_rgbf000067-resize_2/002272_2014-06-28_18-53-56_260595134347_rgbf000067-resize_2-target.png,250,1.138,256,3172,250,meters,jsons/v1_VE250_randls_4_rotated.json,760140,1056173,25,Man
113,123935,DepthScenes,duration_manipulation_targetAtFixation,jsons/v1_VE250_randls_4_rotated.json,http://54.235.29.9/FacialAge/BNav_EC2/DepthDuration/v2_depth_duration_MTurk/v2_DepthDuration_HTML.html#50,50,780,357,1366,768,8-20-2022,8-49-17,114,depth_duration_stimuli/002657_2014-06-13_15-29-54_094959634447_rgbf000150-resize_1/002657_2014-06-13_15-29-54_094959634447_rgbf000150-resize_1-target.png,250,4.919,564,3500,249,meters,jsons/v1_VE250_randls_4_rotated.json,760140,1056173,25,Man
114,123935,DepthScenes,duration_manipulation_targetAtFixation,jsons/v1_VE250_randls_4_rotated.json,http://54.235.29.9/FacialAge/BNav_EC2/DepthDuration/v2_depth_duration_MTurk/v2_DepthDuration_HTML.html#50,50,780,357,1366,768,8-20-2022,8-49-17,115,depth_duration_stimuli/002375_2014-06-28_20-13-44_260595134347_rgbf000032-resize_1/002375_2014-06-28_20-13-44_260595134347_rgbf000032-resize_1-target.png,250,4.0175,236,3263,246,meters,jsons/v1_VE250_randls_4_rotated.json,760140,1056173,25,Man
115,123935,DepthScenes,duration_manipulation_targetAtFixation,jsons/v1_VE250_randls_4_rotated.json,http://54.235.29.9/FacialAge/BNav_EC2/DepthDuration/v2_depth_duration_MTurk/v2_DepthDuration_HTML.html#50,50,780,357,1366,768,8-20-2022,8-49-17,116,depth_duration_stimuli/003079_2014-06-15_15-18-20_094959634447_rgbf000152-resize_8/003079_2014-06-15_15-18-20_094959634447_rgbf000152-resize_8-target.png,250,2.8775,532,3244,251,meters,jsons/v1_VE250_randls_4_rotated.json,760140,1056173,25,Man
116,123935,DepthScenes,duration_manipulation_targetAtFixation,jsons/v1_VE250_randls_4_rotated.json,http://54.235.29.9/FacialAge/BNav_EC2/DepthDuration/v2_depth_duration_MTurk/v2_DepthDuration_HTML.html#50,50,780,357,1366,768,8-20-2022,8-49-17,117,depth_duration_stimuli/000506_2014-06-08_23-21-00_260595134347_rgbf000070-resize_7/000506_2014-06-08_23-21-00_260595134347_rgbf000070-resize_7-target.png,250,4.0585,256,3867,250,meters,jsons/v1_VE250_randls_4_rotated.json,760140,1056173,25,Man
117,123935,DepthScenes,duration_manipulation_targetAtFixation,jsons/v1_VE250_randls_4_rotated.json,http://54.235.29.9/FacialAge/BNav_EC2/DepthDuration/v2_depth_duration_MTurk/v2_DepthDuration_HTML.html#50,50,780,357,1366,768,8-20-2022,8-49-17,118,depth_duration_stimuli/001094_2014-06-15_17-36-00_260595134347_rgbf000205-resize_0/001094_2014-06-15_17-36-00_260595134347_rgbf000205-resize_0-target.png,250,4.2175,234,3365,241,meters,jsons/v1_VE250_randls_4_rotated.json,760140,1056173,25,Man
118,123935,DepthScenes,duration_manipulation_targetAtFixation,jsons/v1_VE250_randls_4_rotated.json,http://54.235.29.9/FacialAge/BNav_EC2/DepthDuration/v2_depth_duration_MTurk/v2_DepthDuration_HTML.html#50,50,780,357,1366,768,8-20-2022,8-49-17,119,depth_duration_stimuli/000692_2014-06-08_13-09-42_260595134347_rgbf000199-resize_2/000692_2014-06-08_13-09-42_260595134347_rgbf000199-resize_2-target.png,250,3.661,561,3049,247,meters,jsons/v1_VE250_randls_4_rotated.json,760140,1056173,25,Man
119,123935,DepthScenes,duration_manipulation_targetAtFixation,jsons/v1_VE250_randls_4_rotated.json,http://54.235.29.9/FacialAge/BNav_EC2/DepthDuration/v2_depth_duration_MTurk/v2_DepthDuration_HTML.html#50,50,780,357,1366,768,8-20-2022,8-49-17,120,depth_duration_stimuli/000787_2014-06-08_22-33-53_260595134347_rgbf000175-resize_1/000787_2014-06-08_22-33-53_260595134347_rgbf000175-resize-original.jpg,250,4.784,236,3278,250,meters,jsons/v1_VE250_randls_4_rotated.json,760140,1056173,25,Man
120,123935,DepthScenes,duration_manipulation_targetAtFixation,jsons/v1_VE250_randls_4_rotated.json,http://54.235.29.9/FacialAge/BNav_EC2/DepthDuration/v2_depth_duration_MTurk/v2_DepthDuration_HTML.html#50,50,780,357,1366,768,8-20-2022,8-49-17,121,depth_duration_stimuli/001584_2014-06-20_11-07-43_260595134347_rgbf000002-resize_1/001584_2014-06-20_11-07-43_260595134347_rgbf000002-resize_1-target.png,250,3.53,1234,3123,248,meters,jsons/v1_VE250_randls_4_rotated.json,760140,1056173,25,Man
121,123935,DepthScenes,duration_manipulation_targetAtFixation,jsons/v1_VE250_randls_4_rotated.json,http://54.235.29.9/FacialAge/BNav_EC2/DepthDuration/v2_depth_duration_MTurk/v2_DepthDuration_HTML.html#50,50,780,357,1366,768,8-20-2022,8-49-17,122,depth_duration_stimuli/003621_2014-05-23_18-06-08_094959634447_rgbf000101-resize_1/003621_2014-05-23_18-06-08_094959634447_rgbf000101-resize_1-target.png,250,3.9835,350,3913,250,meters,jsons/v1_VE250_randls_4_rotated.json,760140,1056173,25,Man
122,123935,DepthScenes,duration_manipulation_targetAtFixation,jsons/v1_VE250_randls_4_rotated.json,http://54.235.29.9/FacialAge/BNav_EC2/DepthDuration/v2_depth_duration_MTurk/v2_DepthDuration_HTML.html#50,50,780,357,1366,768,8-20-2022,8-49-17,123,depth_duration_stimuli/002340_2014-06-28_20-05-46_260595134347_rgbf000113-resize_0/002340_2014-06-28_20-05-46_260595134347_rgbf000113-resize_0-target.png,250,2.4735,250,3354,249,meters,jsons/v1_VE250_randls_4_rotated.json,760140,1056173,25,Man
123,123935,DepthScenes,duration_manipulation_targetAtFixation,jsons/v1_VE250_randls_4_rotated.json,http://54.235.29.9/FacialAge/BNav_EC2/DepthDuration/v2_depth_duration_MTurk/v2_DepthDuration_HTML.html#50,50,780,357,1366,768,8-20-2022,8-49-17,124,depth_duration_stimuli/001016_2014-06-09_16-16-10_260595134347_rgbf000112-resize_5/001016_2014-06-09_16-16-10_260595134347_rgbf000112-resize_5-target.png,250,1.6565,365,3474,248,meters,jsons/v1_VE250_randls_4_rotated.json,760140,1056173,25,Man
124,123935,DepthScenes,duration_manipulation_targetAtFixation,jsons/v1_VE250_randls_4_rotated.json,http://54.235.29.9/FacialAge/BNav_EC2/DepthDuration/v2_depth_duration_MTurk/v2_DepthDuration_HTML.html#50,50,780,357,1366,768,8-20-2022,8-49-17,125,depth_duration_stimuli/000854_2014-06-09_19-43-13_260595134347_rgbf000066-resize_0/000854_2014-06-09_19-43-13_260595134347_rgbf000066-resize_0-target.png,250,3.068,254,3628,249,meters,jsons/v1_VE250_randls_4_rotated.json,760140,1056173,25,Man
125,123935,DepthScenes,duration_manipulation_targetAtFixation,jsons/v1_VE250_randls_4_rotated.json,http://54.235.29.9/FacialAge/BNav_EC2/DepthDuration/v2_depth_duration_MTurk/v2_DepthDuration_HTML.html#50,50,780,357,1366,768,8-20-2022,8-49-17,126,depth_duration_stimuli/000758_2014-06-08_22-05-08_260595134347_rgbf000085-resize_0/000758_2014-06-08_22-05-08_260595134347_rgbf000085-resize_0-target.png,250,3.3810000000000002,652,3683,249,meters,jsons/v1_VE250_randls_4_rotated.json,760140,1056173,25,Man
126,123935,DepthScenes,duration_manipulation_targetAtFixation,jsons/v1_VE250_randls_4_rotated.json,http://54.235.29.9/FacialAge/BNav_EC2/DepthDuration/v2_depth_duration_MTurk/v2_DepthDuration_HTML.html#50,50,780,357,1366,768,8-20-2022,8-49-17,127,depth_duration_stimuli/001235_2014-06-17_16-37-36_260595134347_rgbf000084-resize_4/001235_2014-06-17_16-37-36_260595134347_rgbf000084-resize_4-target.png,250,3.6605,251,3755,249,meters,jsons/v1_VE250_randls_4_rotated.json,760140,1056173,25,Man
127,123935,DepthScenes,duration_manipulation_targetAtFixation,jsons/v1_VE250_randls_4_rotated.json,http://54.235.29.9/FacialAge/BNav_EC2/DepthDuration/v2_depth_duration_MTurk/v2_DepthDuration_HTML.html#50,50,780,357,1366,768,8-20-2022,8-49-17,128,depth_duration_stimuli/000788_2014-06-08_22-34-36_260595134347_rgbf000131-resize_1/000788_2014-06-08_22-34-36_260595134347_rgbf000131-resize_1-target.png,250,3.359,253,3619,250,meters,jsons/v1_VE250_randls_4_rotated.json,760140,1056173,25,Man
128,123935,DepthScenes,duration_manipulation_targetAtFixation,jsons/v1_VE250_randls_4_rotated.json,http://54.235.29.9/FacialAge/BNav_EC2/DepthDuration/v2_depth_duration_MTurk/v2_DepthDuration_HTML.html#50,50,780,357,1366,768,8-20-2022,8-49-17,129,depth_duration_stimuli/002758_2014-06-22_19-11-20_094959634447_rgbf000128-resize_1/002758_2014-06-22_19-11-20_094959634447_rgbf000128-resize_1-target.png,250,2.555,251,3556,249,meters,jsons/v1_VE250_randls_4_rotated.json,760140,1056173,25,Man
129,123935,DepthScenes,duration_manipulation_targetAtFixation,jsons/v1_VE250_randls_4_rotated.json,http://54.235.29.9/FacialAge/BNav_EC2/DepthDuration/v2_depth_duration_MTurk/v2_DepthDuration_HTML.html#50,50,780,357,1366,768,8-20-2022,8-49-17,130,depth_duration_stimuli/002630_2014-06-24_14-47-50_094959634447_rgbf000055-resize_1/002630_2014-06-24_14-47-50_094959634447_rgbf000055-resize_1-target.png,250,3.0095,365,3328,247,meters,jsons/v1_VE250_randls_4_rotated.json,760140,1056173,25,Man
130,123935,DepthScenes,duration_manipulation_targetAtFixation,jsons/v1_VE250_randls_4_rotated.json,http://54.235.29.9/FacialAge/BNav_EC2/DepthDuration/v2_depth_duration_MTurk/v2_DepthDuration_HTML.html#50,50,780,357,1366,768,8-20-2022,8-49-17,131,depth_duration_stimuli/003338_2014-05-20_11-01-23_094959634447_rgbf000051-resize_6/003338_2014-05-20_11-01-23_094959634447_rgbf000051-resize_6-target.png,250,1.693,210,4115,249,meters,jsons/v1_VE250_randls_4_rotated.json,760140,1056173,25,Man
131,123935,DepthScenes,duration_manipulation_targetAtFixation,jsons/v1_VE250_randls_4_rotated.json,http://54.235.29.9/FacialAge/BNav_EC2/DepthDuration/v2_depth_duration_MTurk/v2_DepthDuration_HTML.html#50,50,780,357,1366,768,8-20-2022,8-49-17,132,depth_duration_stimuli/002509_2014-06-24_13-19-22_094959634447_rgbf000077-resize_0/002509_2014-06-24_13-19-22_094959634447_rgbf000077-resize_0-target.png,250,1.3065,365,3969,238,meters,jsons/v1_VE250_randls_4_rotated.json,760140,1056173,25,Man
132,123935,DepthScenes,duration_manipulation_targetAtFixation,jsons/v1_VE250_randls_4_rotated.json,http://54.235.29.9/FacialAge/BNav_EC2/DepthDuration/v2_depth_duration_MTurk/v2_DepthDuration_HTML.html#50,50,780,357,1366,768,8-20-2022,8-49-17,133,depth_duration_stimuli/000709_2014-06-08_13-51-55_260595134347_rgbf000068-resize_3/000709_2014-06-08_13-51-55_260595134347_rgbf000068-resize_3-target.png,250,1.8030000000000002,250,4308,248,meters,jsons/v1_VE250_randls_4_rotated.json,760140,1056173,25,Man
133,123935,DepthScenes,duration_manipulation_targetAtFixation,jsons/v1_VE250_randls_4_rotated.json,http://54.235.29.9/FacialAge/BNav_EC2/DepthDuration/v2_depth_duration_MTurk/v2_DepthDuration_HTML.html#50,50,780,357,1366,768,8-20-2022,8-49-17,134,depth_duration_stimuli/002057_2014-06-24_21-00-13_260595134347_rgbf000120-resize_1/002057_2014-06-24_21-00-13_260595134347_rgbf000120-resize_1-target.png,250,2.967,266,4043,251,meters,jsons/v1_VE250_randls_4_rotated.json,760140,1056173,25,Man
134,123935,DepthScenes,duration_manipulation_targetAtFixation,jsons/v1_VE250_randls_4_rotated.json,http://54.235.29.9/FacialAge/BNav_EC2/DepthDuration/v2_depth_duration_MTurk/v2_DepthDuration_HTML.html#50,50,780,357,1366,768,8-20-2022,8-49-17,135,depth_duration_stimuli/000375_2014-06-08_11-17-29_260595134347_rgbf000133-resize_2/000375_2014-06-08_11-17-29_260595134347_rgbf000133-resize-original.jpg,250,4.718,569,3378,250,meters,jsons/v1_VE250_randls_4_rotated.json,760140,1056173,25,Man
135,123935,DepthScenes,duration_manipulation_targetAtFixation,jsons/v1_VE250_randls_4_rotated.json,http://54.235.29.9/FacialAge/BNav_EC2/DepthDuration/v2_depth_duration_MTurk/v2_DepthDuration_HTML.html#50,50,780,357,1366,768,8-20-2022,8-49-17,136,depth_duration_stimuli/000665_2014-06-09_20-42-35_260595134347_rgbf000110-resize_1/000665_2014-06-09_20-42-35_260595134347_rgbf000110-resize_1-target.png,250,3.057,251,4214,258,meters,jsons/v1_VE250_randls_4_rotated.json,760140,1056173,25,Man
136,123935,DepthScenes,duration_manipulation_targetAtFixation,jsons/v1_VE250_randls_4_rotated.json,http://54.235.29.9/FacialAge/BNav_EC2/DepthDuration/v2_depth_duration_MTurk/v2_DepthDuration_HTML.html#50,50,780,357,1366,768,8-20-2022,8-49-17,137,depth_duration_stimuli/001150_2014-06-17_15-27-34_260595134347_rgbf000108-resize_2/001150_2014-06-17_15-27-34_260595134347_rgbf000108-resize_2-target.png,250,4.0325,251,4486,247,meters,jsons/v1_VE250_randls_4_rotated.json,760140,1056173,25,Man
137,123935,DepthScenes,duration_manipulation_targetAtFixation,jsons/v1_VE250_randls_4_rotated.json,http://54.235.29.9/FacialAge/BNav_EC2/DepthDuration/v2_depth_duration_MTurk/v2_DepthDuration_HTML.html#50,50,780,357,1366,768,8-20-2022,8-49-17,138,depth_duration_stimuli/003083_2014-06-15_15-21-03_094959634447_rgbf000063-resize_1/003083_2014-06-15_15-21-03_094959634447_rgbf000063-resize_1-target.png,250,4.1405,250,4311,248,meters,jsons/v1_VE250_randls_4_rotated.json,760140,1056173,25,Man
138,123935,DepthScenes,duration_manipulation_targetAtFixation,jsons/v1_VE250_randls_4_rotated.json,http://54.235.29.9/FacialAge/BNav_EC2/DepthDuration/v2_depth_duration_MTurk/v2_DepthDuration_HTML.html#50,50,780,357,1366,768,8-20-2022,8-49-17,139,depth_duration_stimuli/000486_2014-06-09_20-47-20_260595134347_rgbf000143-resize_2/000486_2014-06-09_20-47-20_260595134347_rgbf000143-resize_2-target.png,250,4.8325,150,3221,250,meters,jsons/v1_VE250_randls_4_rotated.json,760140,1056173,25,Man
139,123935,DepthScenes,duration_manipulation_targetAtFixation,jsons/v1_VE250_randls_4_rotated.json,http://54.235.29.9/FacialAge/BNav_EC2/DepthDuration/v2_depth_duration_MTurk/v2_DepthDuration_HTML.html#50,50,780,357,1366,768,8-20-2022,8-49-17,140,depth_duration_stimuli/000556_2014-06-09_22-42-56_260595134347_rgbf000214-resize_1/000556_2014-06-09_22-42-56_260595134347_rgbf000214-resize_1-target.png,250,4.8415,265,4018,244,meters,jsons/v1_VE250_randls_4_rotated.json,760140,1056173,25,Man
140,123935,DepthScenes,duration_manipulation_targetAtFixation,jsons/v1_VE250_randls_4_rotated.json,http://54.235.29.9/FacialAge/BNav_EC2/DepthDuration/v2_depth_duration_MTurk/v2_DepthDuration_HTML.html#50,50,780,357,1366,768,8-20-2022,8-49-17,141,depth_duration_stimuli/001158_2014-06-17_15-32-16_260595134347_rgbf000138-resize_2/001158_2014-06-17_15-32-16_260595134347_rgbf000138-resize_2-target.png,250,4.5315,250,4399,237,meters,jsons/v1_VE250_randls_4_rotated.json,760140,1056173,25,Man
141,123935,DepthScenes,duration_manipulation_targetAtFixation,jsons/v1_VE250_randls_4_rotated.json,http://54.235.29.9/FacialAge/BNav_EC2/DepthDuration/v2_depth_duration_MTurk/v2_DepthDuration_HTML.html#50,50,780,357,1366,768,8-20-2022,8-49-17,142,depth_duration_stimuli/001516_2014-06-20_16-25-09_260595134347_rgbf000076-resize_2/001516_2014-06-20_16-25-09_260595134347_rgbf000076-resize_2-target.png,250,1.7445,250,3517,251,meters,jsons/v1_VE250_randls_4_rotated.json,760140,1056173,25,Man
142,123935,DepthScenes,duration_manipulation_targetAtFixation,jsons/v1_VE250_randls_4_rotated.json,http://54.235.29.9/FacialAge/BNav_EC2/DepthDuration/v2_depth_duration_MTurk/v2_DepthDuration_HTML.html#50,50,780,357,1366,768,8-20-2022,8-49-17,143,depth_duration_stimuli/002118_2014-06-25_20-32-08_260595134347_rgbf000078-resize_1/002118_2014-06-25_20-32-08_260595134347_rgbf000078-resize_1-target.png,250,2.6460000000000004,658,3550,248,meters,jsons/v1_VE250_randls_4_rotated.json,760140,1056173,25,Man
143,123935,DepthScenes,duration_manipulation_targetAtFixation,jsons/v1_VE250_randls_4_rotated.json,http://54.235.29.9/FacialAge/BNav_EC2/DepthDuration/v2_depth_duration_MTurk/v2_DepthDuration_HTML.html#50,50,780,357,1366,768,8-20-2022,8-49-17,144,depth_duration_stimuli/002136_2014-06-25_21-18-03_260595134347_rgbf000109-resize_3/002136_2014-06-25_21-18-03_260595134347_rgbf000109-resize_3-target.png,250,1.9569999999999999,258,3422,235,meters,jsons/v1_VE250_randls_4_rotated.json,760140,1056173,25,Man
144,123935,DepthScenes,duration_manipulation_targetAtFixation,jsons/v1_VE250_randls_4_rotated.json,http://54.235.29.9/FacialAge/BNav_EC2/DepthDuration/v2_depth_duration_MTurk/v2_DepthDuration_HTML.html#50,50,780,357,1366,768,8-20-2022,8-49-17,145,depth_duration_stimuli/002964_2014-06-08_17-46-11_094959634447_rgbf000091-resize_4/002964_2014-06-08_17-46-11_094959634447_rgbf000091-resize_4-target.png,250,1.6909999999999998,321,4823,232,meters,jsons/v1_VE250_randls_4_rotated.json,760140,1056173,25,Man
145,123935,DepthScenes,duration_manipulation_targetAtFixation,jsons/v1_VE250_randls_4_rotated.json,http://54.235.29.9/FacialAge/BNav_EC2/DepthDuration/v2_depth_duration_MTurk/v2_DepthDuration_HTML.html#50,50,780,357,1366,768,8-20-2022,8-49-17,146,depth_duration_stimuli/001392_2014-06-19_16-07-59_260595134347_rgbf000046-resize_1/001392_2014-06-19_16-07-59_260595134347_rgbf000046-resize_1-target.png,250,4.135,265,4831,243,meters,jsons/v1_VE250_randls_4_rotated.json,760140,1056173,25,Man
146,123935,DepthScenes,duration_manipulation_targetAtFixation,jsons/v1_VE250_randls_4_rotated.json,http://54.235.29.9/FacialAge/BNav_EC2/DepthDuration/v2_depth_duration_MTurk/v2_DepthDuration_HTML.html#50,50,780,357,1366,768,8-20-2022,8-49-17,147,depth_duration_stimuli/001570_2014-06-20_17-21-09_260595134347_rgbf000135-resize_4/001570_2014-06-20_17-21-09_260595134347_rgbf000135-resize_4-target.png,250,4.467,236,3703,247,meters,jsons/v1_VE250_randls_4_rotated.json,760140,1056173,25,Man
147,123935,DepthScenes,duration_manipulation_targetAtFixation,jsons/v1_VE250_randls_4_rotated.json,http://54.235.29.9/FacialAge/BNav_EC2/DepthDuration/v2_depth_duration_MTurk/v2_DepthDuration_HTML.html#50,50,780,357,1366,768,8-20-2022,8-49-17,148,depth_duration_stimuli/001132_2014-06-17_14-48-54_260595134347_rgbf000100-resize_2/001132_2014-06-17_14-48-54_260595134347_rgbf000100-resize_2-target.png,250,3.753,265,5139,250,meters,jsons/v1_VE250_randls_4_rotated.json,760140,1056173,25,Man
148,123935,DepthScenes,duration_manipulation_targetAtFixation,jsons/v1_VE250_randls_4_rotated.json,http://54.235.29.9/FacialAge/BNav_EC2/DepthDuration/v2_depth_duration_MTurk/v2_DepthDuration_HTML.html#50,50,780,357,1366,768,8-20-2022,8-49-17,149,depth_duration_stimuli/001133_2014-06-17_14-49-16_260595134347_rgbf000100-resize_0/001133_2014-06-17_14-49-16_260595134347_rgbf000100-resize_0-target.png,250,4.2115,125,3495,250,meters,jsons/v1_VE250_randls_4_rotated.json,760140,1056173,25,Man
149,123935,DepthScenes,duration_manipulation_targetAtFixation,jsons/v1_VE250_randls_4_rotated.json,http://54.235.29.9/FacialAge/BNav_EC2/DepthDuration/v2_depth_duration_MTurk/v2_DepthDuration_HTML.html#50,50,780,357,1366,768,8-20-2022,8-49-17,150,depth_duration_stimuli/003129_2014-05-12_10-48-10_094959634447_rgbf000100-resize_0/003129_2014-05-12_10-48-10_094959634447_rgbf000100-resize_0-target.png,250,4.9305,685,3373,246,meters,jsons/v1_VE250_randls_4_rotated.json,760140,1056173,25,Man
150,123935,DepthScenes,duration_manipulation_targetAtFixation,jsons/v1_VE250_randls_4_rotated.json,http://54.235.29.9/FacialAge/BNav_EC2/DepthDuration/v2_depth_duration_MTurk/v2_DepthDuration_HTML.html#50,50,780,357,1366,768,8-20-2022,8-49-17,151,depth_duration_stimuli/000414_2014-06-04_19-49-13_260595134347_rgbf000044-resize_0/000414_2014-06-04_19-49-13_260595134347_rgbf000044-resize_0-target.png,250,4.329,125,3348,246,meters,jsons/v1_VE250_randls_4_rotated.json,760140,1056173,25,Man
151,123935,DepthScenes,duration_manipulation_targetAtFixation,jsons/v1_VE250_randls_4_rotated.json,http://54.235.29.9/FacialAge/BNav_EC2/DepthDuration/v2_depth_duration_MTurk/v2_DepthDuration_HTML.html#50,50,780,357,1366,768,8-20-2022,8-49-17,152,depth_duration_stimuli/000569_2014-06-09_22-51-47_260595134347_rgbf000141-resize_3/000569_2014-06-09_22-51-47_260595134347_rgbf000141-resize-original.jpg,250,4.512,795,3318,250,meters,jsons/v1_VE250_randls_4_rotated.json,760140,1056173,25,Man
152,123935,DepthScenes,duration_manipulation_targetAtFixation,jsons/v1_VE250_randls_4_rotated.json,http://54.235.29.9/FacialAge/BNav_EC2/DepthDuration/v2_depth_duration_MTurk/v2_DepthDuration_HTML.html#50,50,780,357,1366,768,8-20-2022,8-49-17,153,depth_duration_stimuli/001136_2014-06-17_15-19-41_260595134347_rgbf000076-resize_3/001136_2014-06-17_15-19-41_260595134347_rgbf000076-resize_3-target.png,250,1.8655,265,3486,244,meters,jsons/v1_VE250_randls_4_rotated.json,760140,1056173,25,Man
153,123935,DepthScenes,duration_manipulation_targetAtFixation,jsons/v1_VE250_randls_4_rotated.json,http://54.235.29.9/FacialAge/BNav_EC2/DepthDuration/v2_depth_duration_MTurk/v2_DepthDuration_HTML.html#50,50,780,357,1366,768,8-20-2022,8-49-17,154,depth_duration_stimuli/001164_2014-06-17_15-35-46_260595134347_rgbf000085-resize_3/001164_2014-06-17_15-35-46_260595134347_rgbf000085-resize_3-target.png,250,2.354,125,3280,234,meters,jsons/v1_VE250_randls_4_rotated.json,760140,1056173,25,Man
154,123935,DepthScenes,duration_manipulation_targetAtFixation,jsons/v1_VE250_randls_4_rotated.json,http://54.235.29.9/FacialAge/BNav_EC2/DepthDuration/v2_depth_duration_MTurk/v2_DepthDuration_HTML.html#50,50,780,357,1366,768,8-20-2022,8-49-17,155,depth_duration_stimuli/000734_2014-06-08_17-39-11_260595134347_rgbf000128-resize_2/000734_2014-06-08_17-39-11_260595134347_rgbf000128-resize_2-target.png,250,4.098,265,5115,249,meters,jsons/v1_VE250_randls_4_rotated.json,760140,1056173,25,Man
155,123935,DepthScenes,duration_manipulation_targetAtFixation,jsons/v1_VE250_randls_4_rotated.json,http://54.235.29.9/FacialAge/BNav_EC2/DepthDuration/v2_depth_duration_MTurk/v2_DepthDuration_HTML.html#50,50,780,357,1366,768,8-20-2022,8-49-17,156,depth_duration_stimuli/000739_2014-06-08_18-45-58_260595134347_rgbf000068-resize_1/000739_2014-06-08_18-45-58_260595134347_rgbf000068-resize_1-target.png,250,3.534,426,4808,238,meters,jsons/v1_VE250_randls_4_rotated.json,760140,1056173,25,Man
156,123935,DepthScenes,duration_manipulation_targetAtFixation,jsons/v1_VE250_randls_4_rotated.json,http://54.235.29.9/FacialAge/BNav_EC2/DepthDuration/v2_depth_duration_MTurk/v2_DepthDuration_HTML.html#50,50,780,357,1366,768,8-20-2022,8-49-17,157,depth_duration_stimuli/003228_2014-05-14_13-42-35_094959634447_rgbf000101-resize_1/003228_2014-05-14_13-42-35_094959634447_rgbf000101-resize_1-target.png,250,1.9680000000000002,265,3780,248,meters,jsons/v1_VE250_randls_4_rotated.json,760140,1056173,25,Man
157,123935,DepthScenes,duration_manipulation_targetAtFixation,jsons/v1_VE250_randls_4_rotated.json,http://54.235.29.9/FacialAge/BNav_EC2/DepthDuration/v2_depth_duration_MTurk/v2_DepthDuration_HTML.html#50,50,780,357,1366,768,8-20-2022,8-49-17,158,depth_duration_stimuli/002600_2014-06-24_14-27-04_094959634447_rgbf000074-resize_2/002600_2014-06-24_14-27-04_094959634447_rgbf000074-resize_2-target.png,250,2.7575,265,3568,250,meters,jsons/v1_VE250_randls_4_rotated.json,760140,1056173,25,Man
158,123935,DepthScenes,duration_manipulation_targetAtFixation,jsons/v1_VE250_randls_4_rotated.json,http://54.235.29.9/FacialAge/BNav_EC2/DepthDuration/v2_depth_duration_MTurk/v2_DepthDuration_HTML.html#50,50,780,357,1366,768,8-20-2022,8-49-17,159,depth_duration_stimuli/000137_2014-05-20_17-04-49_260595134347_rgbf000120-resize_1/000137_2014-05-20_17-04-49_260595134347_rgbf000120-resize_1-target.png,250,3.786,320,3826,248,meters,jsons/v1_VE250_randls_4_rotated.json,760140,1056173,25,Man
159,123935,DepthScenes,duration_manipulation_targetAtFixation,jsons/v1_VE250_randls_4_rotated.json,http://54.235.29.9/FacialAge/BNav_EC2/DepthDuration/v2_depth_duration_MTurk/v2_DepthDuration_HTML.html#50,50,780,357,1366,768,8-20-2022,8-49-17,160,depth_duration_stimuli/000736_2014-06-08_18-24-15_260595134347_rgbf000206-resize_3/000736_2014-06-08_18-24-15_260595134347_rgbf000206-resize_3-target.png,250,3.515,140,3963,248,meters,jsons/v1_VE250_randls_4_rotated.json,760140,1056173,25,Man
160,123935,DepthScenes,duration_manipulation_targetAtFixation,jsons/v1_VE250_randls_4_rotated.json,http://54.235.29.9/FacialAge/BNav_EC2/DepthDuration/v2_depth_duration_MTurk/v2_DepthDuration_HTML.html#50,50,780,357,1366,768,8-20-2022,8-49-17,161,depth_duration_stimuli/002875_2014-06-01_15-19-00_094959634447_rgbf000151-resize_1/002875_2014-06-01_15-19-00_094959634447_rgbf000151-resize_1-target.png,250,1.9675,250,3772,241,meters,jsons/v1_VE250_randls_4_rotated.json,760140,1056173,25,Man
161,123935,DepthScenes,duration_manipulation_targetAtFixation,jsons/v1_VE250_randls_4_rotated.json,http://54.235.29.9/FacialAge/BNav_EC2/DepthDuration/v2_depth_duration_MTurk/v2_DepthDuration_HTML.html#50,50,780,357,1366,768,8-20-2022,8-49-17,162,depth_duration_stimuli/001011_2014-06-08_23-18-54_260595134347_rgbf000044-resize_4/001011_2014-06-08_23-18-54_260595134347_rgbf000044-resize_4-target.png,250,2.4730000000000003,250,8662,249,meters,jsons/v1_VE250_randls_4_rotated.json,760140,1056173,25,Man
162,123935,DepthScenes,duration_manipulation_targetAtFixation,jsons/v1_VE250_randls_4_rotated.json,http://54.235.29.9/FacialAge/BNav_EC2/DepthDuration/v2_depth_duration_MTurk/v2_DepthDuration_HTML.html#50,50,780,357,1366,768,8-20-2022,8-49-17,163,depth_duration_stimuli/000866_2014-06-09_20-45-42_260595134347_rgbf000139-resize_1/000866_2014-06-09_20-45-42_260595134347_rgbf000139-resize_1-target.png,250,3.2155,658,3551,242,meters,jsons/v1_VE250_randls_4_rotated.json,760140,1056173,25,Man
163,123935,DepthScenes,duration_manipulation_targetAtFixation,jsons/v1_VE250_randls_4_rotated.json,http://54.235.29.9/FacialAge/BNav_EC2/DepthDuration/v2_depth_duration_MTurk/v2_DepthDuration_HTML.html#50,50,780,357,1366,768,8-20-2022,8-49-17,164,depth_duration_stimuli/002989_2014-06-15_12-25-03_094959634447_rgbf000150-resize_3/002989_2014-06-15_12-25-03_094959634447_rgbf000150-resize_3-target.png,250,4.1975,250,3504,249,meters,jsons/v1_VE250_randls_4_rotated.json,760140,1056173,25,Man
