,subjID,experimentName,versionName,sequenceName,url,selected_row,windowWidth,windowHeight,screenWidth,screenHeight,startDate,startTime,trial,stimulus,duration,actual_depth,depth_estimate,trial_RT,log_sceneDuration,unitSelection,seq_filepath,experimentTime,totalTime,age,gender
0,126667,DepthScenes,duration_manipulation_targetAtFixation,jsons/VE125_randls_55.json,http://54.235.29.9/FacialAge/BNav_EC2/DepthDuration/v2_depth_duration_MTurk/v2_DepthDuration_HTML.html#102,102,1348,606,1366,768,8-29-2022,11-17-46,1,depth_duration_stimuli/001167_2014-06-17_15-38-07_260595134347_rgbf000108-resize_0/001167_2014-06-17_15-38-07_260595134347_rgbf000108-resize_0-target.png,125,1.8505,0,2970,124,meters,jsons/VE125_randls_55.json,1214838,1441261,30,Man
1,126667,DepthScenes,duration_manipulation_targetAtFixation,jsons/VE125_randls_55.json,http://54.235.29.9/FacialAge/BNav_EC2/DepthDuration/v2_depth_duration_MTurk/v2_DepthDuration_HTML.html#102,102,1348,606,1366,768,8-29-2022,11-17-46,2,depth_duration_stimuli/003587_2014-05-23_16-48-02_094959634447_rgbf002384-resize_2/003587_2014-05-23_16-48-02_094959634447_rgbf002384-resize_2-target.png,125,1.357,1,5109,123,meters,jsons/VE125_randls_55.json,1214838,1441261,30,Man
2,126667,DepthScenes,duration_manipulation_targetAtFixation,jsons/VE125_randls_55.json,http://54.235.29.9/FacialAge/BNav_EC2/DepthDuration/v2_depth_duration_MTurk/v2_DepthDuration_HTML.html#102,102,1348,606,1366,768,8-29-2022,11-17-46,3,depth_duration_stimuli/000447_2014-06-08_16-15-46_260595134347_rgbf000130-resize_1/000447_2014-06-08_16-15-46_260595134347_rgbf000130-resize_1-target.png,125,4.479,5,2849,125,meters,jsons/VE125_randls_55.json,1214838,1441261,30,Man
3,126667,DepthScenes,duration_manipulation_targetAtFixation,jsons/VE125_randls_55.json,http://54.235.29.9/FacialAge/BNav_EC2/DepthDuration/v2_depth_duration_MTurk/v2_DepthDuration_HTML.html#102,102,1348,606,1366,768,8-29-2022,11-17-46,4,depth_duration_stimuli/001447_2014-06-19_17-00-32_260595134347_rgbf000082-resize_5/001447_2014-06-19_17-00-32_260595134347_rgbf000082-resize_5-target.png,125,4.13775,1,3403,125,meters,jsons/VE125_randls_55.json,1214838,1441261,30,Man
4,126667,DepthScenes,duration_manipulation_targetAtFixation,jsons/VE125_randls_55.json,http://54.235.29.9/FacialAge/BNav_EC2/DepthDuration/v2_depth_duration_MTurk/v2_DepthDuration_HTML.html#102,102,1348,606,1366,768,8-29-2022,11-17-46,5,depth_duration_stimuli/002375_2014-06-28_20-13-44_260595134347_rgbf000032-resize_1/002375_2014-06-28_20-13-44_260595134347_rgbf000032-resize_1-target.png,125,4.0175,0,2944,122,meters,jsons/VE125_randls_55.json,1214838,1441261,30,Man
5,126667,DepthScenes,duration_manipulation_targetAtFixation,jsons/VE125_randls_55.json,http://54.235.29.9/FacialAge/BNav_EC2/DepthDuration/v2_depth_duration_MTurk/v2_DepthDuration_HTML.html#102,102,1348,606,1366,768,8-29-2022,11-17-46,6,depth_duration_stimuli/002657_2014-06-13_15-29-54_094959634447_rgbf000150-resize_1/002657_2014-06-13_15-29-54_094959634447_rgbf000150-resize_1-target.png,125,4.919,5,2170,124,meters,jsons/VE125_randls_55.json,1214838,1441261,30,Man
6,126667,DepthScenes,duration_manipulation_targetAtFixation,jsons/VE125_randls_55.json,http://54.235.29.9/FacialAge/BNav_EC2/DepthDuration/v2_depth_duration_MTurk/v2_DepthDuration_HTML.html#102,102,1348,606,1366,768,8-29-2022,11-17-46,7,depth_duration_stimuli/002630_2014-06-24_14-47-50_094959634447_rgbf000055-resize_1/002630_2014-06-24_14-47-50_094959634447_rgbf000055-resize_1-target.png,125,3.0095,0,2834,124,meters,jsons/VE125_randls_55.json,1214838,1441261,30,Man
7,126667,DepthScenes,duration_manipulation_targetAtFixation,jsons/VE125_randls_55.json,http://54.235.29.9/FacialAge/BNav_EC2/DepthDuration/v2_depth_duration_MTurk/v2_DepthDuration_HTML.html#102,102,1348,606,1366,768,8-29-2022,11-17-46,8,depth_duration_stimuli/002758_2014-06-22_19-11-20_094959634447_rgbf000128-resize_1/002758_2014-06-22_19-11-20_094959634447_rgbf000128-resize_1-target.png,125,2.555,6,2135,125,meters,jsons/VE125_randls_55.json,1214838,1441261,30,Man
8,126667,DepthScenes,duration_manipulation_targetAtFixation,jsons/VE125_randls_55.json,http://54.235.29.9/FacialAge/BNav_EC2/DepthDuration/v2_depth_duration_MTurk/v2_DepthDuration_HTML.html#102,102,1348,606,1366,768,8-29-2022,11-17-46,9,depth_duration_stimuli/000810_2014-06-08_17-20-01_260595134347_rgbf000105-resize_0/000810_2014-06-08_17-20-01_260595134347_rgbf000105-resize_0-target.png,125,1.4865,0,1911,124,meters,jsons/VE125_randls_55.json,1214838,1441261,30,Man
9,126667,DepthScenes,duration_manipulation_targetAtFixation,jsons/VE125_randls_55.json,http://54.235.29.9/FacialAge/BNav_EC2/DepthDuration/v2_depth_duration_MTurk/v2_DepthDuration_HTML.html#102,102,1348,606,1366,768,8-29-2022,11-17-46,10,depth_duration_stimuli/001214_2014-06-17_16-13-55_260595134347_rgbf000111-resize_0/001214_2014-06-17_16-13-55_260595134347_rgbf000111-resize_0-target.png,125,2.6505,0,1875,125,meters,jsons/VE125_randls_55.json,1214838,1441261,30,Man
10,126667,DepthScenes,duration_manipulation_targetAtFixation,jsons/VE125_randls_55.json,http://54.235.29.9/FacialAge/BNav_EC2/DepthDuration/v2_depth_duration_MTurk/v2_DepthDuration_HTML.html#102,102,1348,606,1366,768,8-29-2022,11-17-46,11,depth_duration_stimuli/003534_2014-05-22_15-06-10_094959634447_rgbf000102-resize_4/003534_2014-05-22_15-06-10_094959634447_rgbf000102-resize_4-target.png,125,1.426,0,2061,122,meters,jsons/VE125_randls_55.json,1214838,1441261,30,Man
11,126667,DepthScenes,duration_manipulation_targetAtFixation,jsons/VE125_randls_55.json,http://54.235.29.9/FacialAge/BNav_EC2/DepthDuration/v2_depth_duration_MTurk/v2_DepthDuration_HTML.html#102,102,1348,606,1366,768,8-29-2022,11-17-46,12,depth_duration_stimuli/002637_2014-06-24_14-51-13_094959634447_rgbf000066-resize_4/002637_2014-06-24_14-51-13_094959634447_rgbf000066-resize_4-target.png,125,1.9955,4,7791,124,meters,jsons/VE125_randls_55.json,1214838,1441261,30,Man
12,126667,DepthScenes,duration_manipulation_targetAtFixation,jsons/VE125_randls_55.json,http://54.235.29.9/FacialAge/BNav_EC2/DepthDuration/v2_depth_duration_MTurk/v2_DepthDuration_HTML.html#102,102,1348,606,1366,768,8-29-2022,11-17-46,13,depth_duration_stimuli/000569_2014-06-09_22-51-47_260595134347_rgbf000141-resize_3/000569_2014-06-09_22-51-47_260595134347_rgbf000141-resize-original.jpg,125,4.512,5,2074,123,meters,jsons/VE125_randls_55.json,1214838,1441261,30,Man
13,126667,DepthScenes,duration_manipulation_targetAtFixation,jsons/VE125_randls_55.json,http://54.235.29.9/FacialAge/BNav_EC2/DepthDuration/v2_depth_duration_MTurk/v2_DepthDuration_HTML.html#102,102,1348,606,1366,768,8-29-2022,11-17-46,14,depth_duration_stimuli/000436_2014-06-09_22-25-11_260595134347_rgbf000137-resize_1/000436_2014-06-09_22-25-11_260595134347_rgbf000137-resize_1-target.png,125,4.0705,1,40909,122,meters,jsons/VE125_randls_55.json,1214838,1441261,30,Man
14,126667,DepthScenes,duration_manipulation_targetAtFixation,jsons/VE125_randls_55.json,http://54.235.29.9/FacialAge/BNav_EC2/DepthDuration/v2_depth_duration_MTurk/v2_DepthDuration_HTML.html#102,102,1348,606,1366,768,8-29-2022,11-17-46,15,depth_duration_stimuli/002444_2014-06-28_20-32-08_260595134347_rgbf000027-resize_0/002444_2014-06-28_20-32-08_260595134347_rgbf000027-resize_0-target.png,125,4.388999999999999,4,2433,127,meters,jsons/VE125_randls_55.json,1214838,1441261,30,Man
15,126667,DepthScenes,duration_manipulation_targetAtFixation,jsons/VE125_randls_55.json,http://54.235.29.9/FacialAge/BNav_EC2/DepthDuration/v2_depth_duration_MTurk/v2_DepthDuration_HTML.html#102,102,1348,606,1366,768,8-29-2022,11-17-46,16,depth_duration_stimuli/002600_2014-06-24_14-27-04_094959634447_rgbf000074-resize_2/002600_2014-06-24_14-27-04_094959634447_rgbf000074-resize_2-target.png,125,2.7575,5,2171,123,meters,jsons/VE125_randls_55.json,1214838,1441261,30,Man
16,126667,DepthScenes,duration_manipulation_targetAtFixation,jsons/VE125_randls_55.json,http://54.235.29.9/FacialAge/BNav_EC2/DepthDuration/v2_depth_duration_MTurk/v2_DepthDuration_HTML.html#102,102,1348,606,1366,768,8-29-2022,11-17-46,17,depth_duration_stimuli/003228_2014-05-14_13-42-35_094959634447_rgbf000101-resize_1/003228_2014-05-14_13-42-35_094959634447_rgbf000101-resize_1-target.png,125,1.9680000000000002,4,3594,127,meters,jsons/VE125_randls_55.json,1214838,1441261,30,Man
17,126667,DepthScenes,duration_manipulation_targetAtFixation,jsons/VE125_randls_55.json,http://54.235.29.9/FacialAge/BNav_EC2/DepthDuration/v2_depth_duration_MTurk/v2_DepthDuration_HTML.html#102,102,1348,606,1366,768,8-29-2022,11-17-46,18,depth_duration_stimuli/000758_2014-06-08_22-05-08_260595134347_rgbf000085-resize_0/000758_2014-06-08_22-05-08_260595134347_rgbf000085-resize_0-target.png,125,3.3810000000000002,5,2259,123,meters,jsons/VE125_randls_55.json,1214838,1441261,30,Man
18,126667,DepthScenes,duration_manipulation_targetAtFixation,jsons/VE125_randls_55.json,http://54.235.29.9/FacialAge/BNav_EC2/DepthDuration/v2_depth_duration_MTurk/v2_DepthDuration_HTML.html#102,102,1348,606,1366,768,8-29-2022,11-17-46,19,depth_duration_stimuli/000854_2014-06-09_19-43-13_260595134347_rgbf000066-resize_0/000854_2014-06-09_19-43-13_260595134347_rgbf000066-resize_0-target.png,125,3.068,5,2114,124,meters,jsons/VE125_randls_55.json,1214838,1441261,30,Man
19,126667,DepthScenes,duration_manipulation_targetAtFixation,jsons/VE125_randls_55.json,http://54.235.29.9/FacialAge/BNav_EC2/DepthDuration/v2_depth_duration_MTurk/v2_DepthDuration_HTML.html#102,102,1348,606,1366,768,8-29-2022,11-17-46,20,depth_duration_stimuli/001199_2014-06-17_16-03-48_260595134347_rgbf000077-resize_0/001199_2014-06-17_16-03-48_260595134347_rgbf000077-resize_0-target.png,125,3.4375,5,6923,122,meters,jsons/VE125_randls_55.json,1214838,1441261,30,Man
20,126667,DepthScenes,duration_manipulation_targetAtFixation,jsons/VE125_randls_55.json,http://54.235.29.9/FacialAge/BNav_EC2/DepthDuration/v2_depth_duration_MTurk/v2_DepthDuration_HTML.html#102,102,1348,606,1366,768,8-29-2022,11-17-46,21,depth_duration_stimuli/000502_2014-06-08_23-02-32_260595134347_rgbf000063-resize_4/000502_2014-06-08_23-02-32_260595134347_rgbf000063-resize_4-target.png,125,2.431,5,6554,123,meters,jsons/VE125_randls_55.json,1214838,1441261,30,Man
21,126667,DepthScenes,duration_manipulation_targetAtFixation,jsons/VE125_randls_55.json,http://54.235.29.9/FacialAge/BNav_EC2/DepthDuration/v2_depth_duration_MTurk/v2_DepthDuration_HTML.html#102,102,1348,606,1366,768,8-29-2022,11-17-46,22,depth_duration_stimuli/000692_2014-06-08_13-09-42_260595134347_rgbf000199-resize_2/000692_2014-06-08_13-09-42_260595134347_rgbf000199-resize_2-target.png,125,3.661,4,3161,506,meters,jsons/VE125_randls_55.json,1214838,1441261,30,Man
22,126667,DepthScenes,duration_manipulation_targetAtFixation,jsons/VE125_randls_55.json,http://54.235.29.9/FacialAge/BNav_EC2/DepthDuration/v2_depth_duration_MTurk/v2_DepthDuration_HTML.html#102,102,1348,606,1366,768,8-29-2022,11-17-46,23,depth_duration_stimuli/001094_2014-06-15_17-36-00_260595134347_rgbf000205-resize_0/001094_2014-06-15_17-36-00_260595134347_rgbf000205-resize_0-target.png,125,4.2175,4,11770,132,meters,jsons/VE125_randls_55.json,1214838,1441261,30,Man
23,126667,DepthScenes,duration_manipulation_targetAtFixation,jsons/VE125_randls_55.json,http://54.235.29.9/FacialAge/BNav_EC2/DepthDuration/v2_depth_duration_MTurk/v2_DepthDuration_HTML.html#102,102,1348,606,1366,768,8-29-2022,11-17-46,24,depth_duration_stimuli/000917_2014-06-09_22-45-29_260595134347_rgbf000149-resize_3/000917_2014-06-09_22-45-29_260595134347_rgbf000149-resize_3-target.png,125,4.1865,5,2105,116,meters,jsons/VE125_randls_55.json,1214838,1441261,30,Man
24,126667,DepthScenes,duration_manipulation_targetAtFixation,jsons/VE125_randls_55.json,http://54.235.29.9/FacialAge/BNav_EC2/DepthDuration/v2_depth_duration_MTurk/v2_DepthDuration_HTML.html#102,102,1348,606,1366,768,8-29-2022,11-17-46,25,depth_duration_stimuli/002323_2014-06-28_20-01-54_260595134347_rgbf000051-resize_4/002323_2014-06-28_20-01-54_260595134347_rgbf000051-resize_4-target.png,125,3.7310000000000003,5,43635,122,meters,jsons/VE125_randls_55.json,1214838,1441261,30,Man
25,126667,DepthScenes,duration_manipulation_targetAtFixation,jsons/VE125_randls_55.json,http://54.235.29.9/FacialAge/BNav_EC2/DepthDuration/v2_depth_duration_MTurk/v2_DepthDuration_HTML.html#102,102,1348,606,1366,768,8-29-2022,11-17-46,26,depth_duration_stimuli/002509_2014-06-24_13-19-22_094959634447_rgbf000077-resize_0/002509_2014-06-24_13-19-22_094959634447_rgbf000077-resize_0-target.png,125,1.3065,4,4846,74,meters,jsons/VE125_randls_55.json,1214838,1441261,30,Man
26,126667,DepthScenes,duration_manipulation_targetAtFixation,jsons/VE125_randls_55.json,http://54.235.29.9/FacialAge/BNav_EC2/DepthDuration/v2_depth_duration_MTurk/v2_DepthDuration_HTML.html#102,102,1348,606,1366,768,8-29-2022,11-17-46,27,depth_duration_stimuli/003338_2014-05-20_11-01-23_094959634447_rgbf000051-resize_6/003338_2014-05-20_11-01-23_094959634447_rgbf000051-resize_6-target.png,125,1.693,5,1913,0,meters,jsons/VE125_randls_55.json,1214838,1441261,30,Man
27,126667,DepthScenes,duration_manipulation_targetAtFixation,jsons/VE125_randls_55.json,http://54.235.29.9/FacialAge/BNav_EC2/DepthDuration/v2_depth_duration_MTurk/v2_DepthDuration_HTML.html#102,102,1348,606,1366,768,8-29-2022,11-17-46,28,depth_duration_stimuli/002057_2014-06-24_21-00-13_260595134347_rgbf000120-resize_1/002057_2014-06-24_21-00-13_260595134347_rgbf000120-resize_1-target.png,125,2.967,5,3563,506,meters,jsons/VE125_randls_55.json,1214838,1441261,30,Man
28,126667,DepthScenes,duration_manipulation_targetAtFixation,jsons/VE125_randls_55.json,http://54.235.29.9/FacialAge/BNav_EC2/DepthDuration/v2_depth_duration_MTurk/v2_DepthDuration_HTML.html#102,102,1348,606,1366,768,8-29-2022,11-17-46,29,depth_duration_stimuli/000709_2014-06-08_13-51-55_260595134347_rgbf000068-resize_3/000709_2014-06-08_13-51-55_260595134347_rgbf000068-resize_3-target.png,125,1.8030000000000002,6,3355,102,meters,jsons/VE125_randls_55.json,1214838,1441261,30,Man
29,126667,DepthScenes,duration_manipulation_targetAtFixation,jsons/VE125_randls_55.json,http://54.235.29.9/FacialAge/BNav_EC2/DepthDuration/v2_depth_duration_MTurk/v2_DepthDuration_HTML.html#102,102,1348,606,1366,768,8-29-2022,11-17-46,30,depth_duration_stimuli/000375_2014-06-08_11-17-29_260595134347_rgbf000133-resize_2/000375_2014-06-08_11-17-29_260595134347_rgbf000133-resize-original.jpg,125,4.718,1,3439,125,meters,jsons/VE125_randls_55.json,1214838,1441261,30,Man
30,126667,DepthScenes,duration_manipulation_targetAtFixation,jsons/VE125_randls_55.json,http://54.235.29.9/FacialAge/BNav_EC2/DepthDuration/v2_depth_duration_MTurk/v2_DepthDuration_HTML.html#102,102,1348,606,1366,768,8-29-2022,11-17-46,31,depth_duration_stimuli/000682_2014-06-08_23-14-58_260595134347_rgbf000041-resize_5/000682_2014-06-08_23-14-58_260595134347_rgbf000041-resize_5-target.png,125,2.7239999999999998,5,4318,142,meters,jsons/VE125_randls_55.json,1214838,1441261,30,Man
31,126667,DepthScenes,duration_manipulation_targetAtFixation,jsons/VE125_randls_55.json,http://54.235.29.9/FacialAge/BNav_EC2/DepthDuration/v2_depth_duration_MTurk/v2_DepthDuration_HTML.html#102,102,1348,606,1366,768,8-29-2022,11-17-46,32,depth_duration_stimuli/001650_2014-06-20_12-09-00_260595134347_rgbf000087-resize_3/001650_2014-06-20_12-09-00_260595134347_rgbf000087-resize_3-target.png,125,1.9505,5,41284,124,meters,jsons/VE125_randls_55.json,1214838,1441261,30,Man
32,126667,DepthScenes,duration_manipulation_targetAtFixation,jsons/VE125_randls_55.json,http://54.235.29.9/FacialAge/BNav_EC2/DepthDuration/v2_depth_duration_MTurk/v2_DepthDuration_HTML.html#102,102,1348,606,1366,768,8-29-2022,11-17-46,33,depth_duration_stimuli/001164_2014-06-17_15-35-46_260595134347_rgbf000085-resize_3/001164_2014-06-17_15-35-46_260595134347_rgbf000085-resize_3-target.png,125,2.354,4,15427,120,meters,jsons/VE125_randls_55.json,1214838,1441261,30,Man
33,126667,DepthScenes,duration_manipulation_targetAtFixation,jsons/VE125_randls_55.json,http://54.235.29.9/FacialAge/BNav_EC2/DepthDuration/v2_depth_duration_MTurk/v2_DepthDuration_HTML.html#102,102,1348,606,1366,768,8-29-2022,11-17-46,34,depth_duration_stimuli/001136_2014-06-17_15-19-41_260595134347_rgbf000076-resize_3/001136_2014-06-17_15-19-41_260595134347_rgbf000076-resize_3-target.png,125,1.8655,5,2093,125,meters,jsons/VE125_randls_55.json,1214838,1441261,30,Man
34,126667,DepthScenes,duration_manipulation_targetAtFixation,jsons/VE125_randls_55.json,http://54.235.29.9/FacialAge/BNav_EC2/DepthDuration/v2_depth_duration_MTurk/v2_DepthDuration_HTML.html#102,102,1348,606,1366,768,8-29-2022,11-17-46,35,depth_duration_stimuli/001808_2014-06-26_20-50-58_260595134347_rgbf000029-resize_1/001808_2014-06-26_20-50-58_260595134347_rgbf000029-resize_1-target.png,125,4.249,8,2128,83,meters,jsons/VE125_randls_55.json,1214838,1441261,30,Man
35,126667,DepthScenes,duration_manipulation_targetAtFixation,jsons/VE125_randls_55.json,http://54.235.29.9/FacialAge/BNav_EC2/DepthDuration/v2_depth_duration_MTurk/v2_DepthDuration_HTML.html#102,102,1348,606,1366,768,8-29-2022,11-17-46,36,depth_duration_stimuli/001815_2014-06-26_20-52-55_260595134347_rgbf000020-resize_0/001815_2014-06-26_20-52-55_260595134347_rgbf000020-resize_0-target.png,125,3.3865,4,2253,125,meters,jsons/VE125_randls_55.json,1214838,1441261,30,Man
36,126667,DepthScenes,duration_manipulation_targetAtFixation,jsons/VE125_randls_55.json,http://54.235.29.9/FacialAge/BNav_EC2/DepthDuration/v2_depth_duration_MTurk/v2_DepthDuration_HTML.html#102,102,1348,606,1366,768,8-29-2022,11-17-46,37,depth_duration_stimuli/001570_2014-06-20_17-21-09_260595134347_rgbf000135-resize_4/001570_2014-06-20_17-21-09_260595134347_rgbf000135-resize_4-target.png,125,4.467,5,1882,113,meters,jsons/VE125_randls_55.json,1214838,1441261,30,Man
37,126667,DepthScenes,duration_manipulation_targetAtFixation,jsons/VE125_randls_55.json,http://54.235.29.9/FacialAge/BNav_EC2/DepthDuration/v2_depth_duration_MTurk/v2_DepthDuration_HTML.html#102,102,1348,606,1366,768,8-29-2022,11-17-46,38,depth_duration_stimuli/001392_2014-06-19_16-07-59_260595134347_rgbf000046-resize_1/001392_2014-06-19_16-07-59_260595134347_rgbf000046-resize_1-target.png,125,4.135,2,2218,132,meters,jsons/VE125_randls_55.json,1214838,1441261,30,Man
38,126667,DepthScenes,duration_manipulation_targetAtFixation,jsons/VE125_randls_55.json,http://54.235.29.9/FacialAge/BNav_EC2/DepthDuration/v2_depth_duration_MTurk/v2_DepthDuration_HTML.html#102,102,1348,606,1366,768,8-29-2022,11-17-46,39,depth_duration_stimuli/001016_2014-06-09_16-16-10_260595134347_rgbf000112-resize_5/001016_2014-06-09_16-16-10_260595134347_rgbf000112-resize_5-target.png,125,1.6565,8,2074,131,meters,jsons/VE125_randls_55.json,1214838,1441261,30,Man
39,126667,DepthScenes,duration_manipulation_targetAtFixation,jsons/VE125_randls_55.json,http://54.235.29.9/FacialAge/BNav_EC2/DepthDuration/v2_depth_duration_MTurk/v2_DepthDuration_HTML.html#102,102,1348,606,1366,768,8-29-2022,11-17-46,40,depth_duration_stimuli/002340_2014-06-28_20-05-46_260595134347_rgbf000113-resize_0/002340_2014-06-28_20-05-46_260595134347_rgbf000113-resize_0-target.png,125,2.4735,4,1777,125,meters,jsons/VE125_randls_55.json,1214838,1441261,30,Man
40,126667,DepthScenes,duration_manipulation_targetAtFixation,jsons/VE125_randls_55.json,http://54.235.29.9/FacialAge/BNav_EC2/DepthDuration/v2_depth_duration_MTurk/v2_DepthDuration_HTML.html#102,102,1348,606,1366,768,8-29-2022,11-17-46,41,depth_duration_stimuli/002043_2014-06-24_20-29-38_260595134347_rgbf000039-resize_4/002043_2014-06-24_20-29-38_260595134347_rgbf000039-resize_4-target.png,125,2.8435,5,1908,124,meters,jsons/VE125_randls_55.json,1214838,1441261,30,Man
41,126667,DepthScenes,duration_manipulation_targetAtFixation,jsons/VE125_randls_55.json,http://54.235.29.9/FacialAge/BNav_EC2/DepthDuration/v2_depth_duration_MTurk/v2_DepthDuration_HTML.html#102,102,1348,606,1366,768,8-29-2022,11-17-46,42,depth_duration_stimuli/003048_2014-06-15_13-49-43_094959634447_rgbf000150-resize_1/003048_2014-06-15_13-49-43_094959634447_rgbf000150-resize_1-target.png,125,4.0035,6,3118,124,meters,jsons/VE125_randls_55.json,1214838,1441261,30,Man
42,126667,DepthScenes,duration_manipulation_targetAtFixation,jsons/VE125_randls_55.json,http://54.235.29.9/FacialAge/BNav_EC2/DepthDuration/v2_depth_duration_MTurk/v2_DepthDuration_HTML.html#102,102,1348,606,1366,768,8-29-2022,11-17-46,43,depth_duration_stimuli/000414_2014-06-04_19-49-13_260595134347_rgbf000044-resize_0/000414_2014-06-04_19-49-13_260595134347_rgbf000044-resize_0-target.png,125,4.329,8,1956,125,meters,jsons/VE125_randls_55.json,1214838,1441261,30,Man
43,126667,DepthScenes,duration_manipulation_targetAtFixation,jsons/VE125_randls_55.json,http://54.235.29.9/FacialAge/BNav_EC2/DepthDuration/v2_depth_duration_MTurk/v2_DepthDuration_HTML.html#102,102,1348,606,1366,768,8-29-2022,11-17-46,44,depth_duration_stimuli/003129_2014-05-12_10-48-10_094959634447_rgbf000100-resize_0/003129_2014-05-12_10-48-10_094959634447_rgbf000100-resize_0-target.png,125,4.9305,7,2043,116,meters,jsons/VE125_randls_55.json,1214838,1441261,30,Man
44,126667,DepthScenes,duration_manipulation_targetAtFixation,jsons/VE125_randls_55.json,http://54.235.29.9/FacialAge/BNav_EC2/DepthDuration/v2_depth_duration_MTurk/v2_DepthDuration_HTML.html#102,102,1348,606,1366,768,8-29-2022,11-17-46,45,depth_duration_stimuli/000787_2014-06-08_22-33-53_260595134347_rgbf000175-resize_1/000787_2014-06-08_22-33-53_260595134347_rgbf000175-resize-original.jpg,125,4.784,9,2588,120,meters,jsons/VE125_randls_55.json,1214838,1441261,30,Man
45,126667,DepthScenes,duration_manipulation_targetAtFixation,jsons/VE125_randls_55.json,http://54.235.29.9/FacialAge/BNav_EC2/DepthDuration/v2_depth_duration_MTurk/v2_DepthDuration_HTML.html#102,102,1348,606,1366,768,8-29-2022,11-17-46,46,depth_duration_stimuli/002663_2014-06-13_15-50-26_094959634447_rgbf000075-resize_1/002663_2014-06-13_15-50-26_094959634447_rgbf000075-resize_1-target.png,125,4.7495,5,32311,123,meters,jsons/VE125_randls_55.json,1214838,1441261,30,Man
46,126667,DepthScenes,duration_manipulation_targetAtFixation,jsons/VE125_randls_55.json,http://54.235.29.9/FacialAge/BNav_EC2/DepthDuration/v2_depth_duration_MTurk/v2_DepthDuration_HTML.html#102,102,1348,606,1366,768,8-29-2022,11-17-46,47,depth_duration_stimuli/000409_2014-06-04_19-23-33_260595134347_rgbf000067-resize_0/000409_2014-06-04_19-23-33_260595134347_rgbf000067-resize_0-target.png,125,3.7335,5,27688,127,meters,jsons/VE125_randls_55.json,1214838,1441261,30,Man
47,126667,DepthScenes,duration_manipulation_targetAtFixation,jsons/VE125_randls_55.json,http://54.235.29.9/FacialAge/BNav_EC2/DepthDuration/v2_depth_duration_MTurk/v2_DepthDuration_HTML.html#102,102,1348,606,1366,768,8-29-2022,11-17-46,48,depth_duration_stimuli/001133_2014-06-17_14-49-16_260595134347_rgbf000100-resize_0/001133_2014-06-17_14-49-16_260595134347_rgbf000100-resize_0-target.png,125,4.2115,5,6298,123,meters,jsons/VE125_randls_55.json,1214838,1441261,30,Man
48,126667,DepthScenes,duration_manipulation_targetAtFixation,jsons/VE125_randls_55.json,http://54.235.29.9/FacialAge/BNav_EC2/DepthDuration/v2_depth_duration_MTurk/v2_DepthDuration_HTML.html#102,102,1348,606,1366,768,8-29-2022,11-17-46,49,depth_duration_stimuli/001132_2014-06-17_14-48-54_260595134347_rgbf000100-resize_2/001132_2014-06-17_14-48-54_260595134347_rgbf000100-resize_2-target.png,125,3.753,6,2316,118,meters,jsons/VE125_randls_55.json,1214838,1441261,30,Man
49,126667,DepthScenes,duration_manipulation_targetAtFixation,jsons/VE125_randls_55.json,http://54.235.29.9/FacialAge/BNav_EC2/DepthDuration/v2_depth_duration_MTurk/v2_DepthDuration_HTML.html#102,102,1348,606,1366,768,8-29-2022,11-17-46,50,depth_duration_stimuli/001066_2014-06-08_22-03-20_260595134347_rgbf000066-resize_4/001066_2014-06-08_22-03-20_260595134347_rgbf000066-resize_4-target.png,125,4.2330000000000005,4,2074,10,meters,jsons/VE125_randls_55.json,1214838,1441261,30,Man
50,126667,DepthScenes,duration_manipulation_targetAtFixation,jsons/VE125_randls_55.json,http://54.235.29.9/FacialAge/BNav_EC2/DepthDuration/v2_depth_duration_MTurk/v2_DepthDuration_HTML.html#102,102,1348,606,1366,768,8-29-2022,11-17-46,51,depth_duration_stimuli/000742_2014-06-08_18-48-09_260595134347_rgbf000164-resize_4/000742_2014-06-08_18-48-09_260595134347_rgbf000164-resize_4-target.png,125,4.632,8,2121,122,meters,jsons/VE125_randls_55.json,1214838,1441261,30,Man
51,126667,DepthScenes,duration_manipulation_targetAtFixation,jsons/VE125_randls_55.json,http://54.235.29.9/FacialAge/BNav_EC2/DepthDuration/v2_depth_duration_MTurk/v2_DepthDuration_HTML.html#102,102,1348,606,1366,768,8-29-2022,11-17-46,52,depth_duration_stimuli/001417_2014-06-19_16-25-36_260595134347_rgbf000115-resize_5/001417_2014-06-19_16-25-36_260595134347_rgbf000115-resize_5-target.png,125,4.6255,2,2115,18,meters,jsons/VE125_randls_55.json,1214838,1441261,30,Man
52,126667,DepthScenes,duration_manipulation_targetAtFixation,jsons/VE125_randls_55.json,http://54.235.29.9/FacialAge/BNav_EC2/DepthDuration/v2_depth_duration_MTurk/v2_DepthDuration_HTML.html#102,102,1348,606,1366,768,8-29-2022,11-17-46,53,depth_duration_stimuli/003081_2014-06-15_15-19-16_094959634447_rgbf000150-resize_1/003081_2014-06-15_15-19-16_094959634447_rgbf000150-resize_1-target.png,125,3.9125,5,2802,119,meters,jsons/VE125_randls_55.json,1214838,1441261,30,Man
53,126667,DepthScenes,duration_manipulation_targetAtFixation,jsons/VE125_randls_55.json,http://54.235.29.9/FacialAge/BNav_EC2/DepthDuration/v2_depth_duration_MTurk/v2_DepthDuration_HTML.html#102,102,1348,606,1366,768,8-29-2022,11-17-46,54,depth_duration_stimuli/001055_2014-06-08_18-45-35_260595134347_rgbf000111-resize_4/001055_2014-06-08_18-45-35_260595134347_rgbf000111-resize_4-target.png,125,2.4290000000000003,4,2264,125,meters,jsons/VE125_randls_55.json,1214838,1441261,30,Man
54,126667,DepthScenes,duration_manipulation_targetAtFixation,jsons/VE125_randls_55.json,http://54.235.29.9/FacialAge/BNav_EC2/DepthDuration/v2_depth_duration_MTurk/v2_DepthDuration_HTML.html#102,102,1348,606,1366,768,8-29-2022,11-17-46,55,depth_duration_stimuli/000549_2014-06-08_22-10-24_260595134347_rgbf000247-resize_3/000549_2014-06-08_22-10-24_260595134347_rgbf000247-resize_3-target.png,125,1.841,8,1959,93,meters,jsons/VE125_randls_55.json,1214838,1441261,30,Man
55,126667,DepthScenes,duration_manipulation_targetAtFixation,jsons/VE125_randls_55.json,http://54.235.29.9/FacialAge/BNav_EC2/DepthDuration/v2_depth_duration_MTurk/v2_DepthDuration_HTML.html#102,102,1348,606,1366,768,8-29-2022,11-17-46,56,depth_duration_stimuli/002748_2014-06-22_19-07-22_094959634447_rgbf000078-resize_1/002748_2014-06-22_19-07-22_094959634447_rgbf000078-resize_1-target.png,125,4.6705,2,2114,138,meters,jsons/VE125_randls_55.json,1214838,1441261,30,Man
56,126667,DepthScenes,duration_manipulation_targetAtFixation,jsons/VE125_randls_55.json,http://54.235.29.9/FacialAge/BNav_EC2/DepthDuration/v2_depth_duration_MTurk/v2_DepthDuration_HTML.html#102,102,1348,606,1366,768,8-29-2022,11-17-46,57,depth_duration_stimuli/002995_2014-06-15_12-31-26_094959634447_rgbf000150-resize_1/002995_2014-06-15_12-31-26_094959634447_rgbf000150-resize_1-target.png,125,3.8360000000000003,6,2163,124,meters,jsons/VE125_randls_55.json,1214838,1441261,30,Man
57,126667,DepthScenes,duration_manipulation_targetAtFixation,jsons/VE125_randls_55.json,http://54.235.29.9/FacialAge/BNav_EC2/DepthDuration/v2_depth_duration_MTurk/v2_DepthDuration_HTML.html#102,102,1348,606,1366,768,8-29-2022,11-17-46,58,depth_duration_stimuli/003492_2014-05-21_15-50-55_094959634447_rgbf000828-resize_1/003492_2014-05-21_15-50-55_094959634447_rgbf000828-resize_1-target.png,125,4.06875,8,1925,114,meters,jsons/VE125_randls_55.json,1214838,1441261,30,Man
58,126667,DepthScenes,duration_manipulation_targetAtFixation,jsons/VE125_randls_55.json,http://54.235.29.9/FacialAge/BNav_EC2/DepthDuration/v2_depth_duration_MTurk/v2_DepthDuration_HTML.html#102,102,1348,606,1366,768,8-29-2022,11-17-46,59,depth_duration_stimuli/002568_2014-06-24_13-59-21_094959634447_rgbf000062-resize_4/002568_2014-06-24_13-59-21_094959634447_rgbf000062-resize_4-target.png,125,3.015,4,2493,129,meters,jsons/VE125_randls_55.json,1214838,1441261,30,Man
59,126667,DepthScenes,duration_manipulation_targetAtFixation,jsons/VE125_randls_55.json,http://54.235.29.9/FacialAge/BNav_EC2/DepthDuration/v2_depth_duration_MTurk/v2_DepthDuration_HTML.html#102,102,1348,606,1366,768,8-29-2022,11-17-46,60,depth_duration_stimuli/000486_2014-06-09_20-47-20_260595134347_rgbf000143-resize_2/000486_2014-06-09_20-47-20_260595134347_rgbf000143-resize_2-target.png,125,4.8325,5,2497,205,meters,jsons/VE125_randls_55.json,1214838,1441261,30,Man
60,126667,DepthScenes,duration_manipulation_targetAtFixation,jsons/VE125_randls_55.json,http://54.235.29.9/FacialAge/BNav_EC2/DepthDuration/v2_depth_duration_MTurk/v2_DepthDuration_HTML.html#102,102,1348,606,1366,768,8-29-2022,11-17-46,61,depth_duration_stimuli/003083_2014-06-15_15-21-03_094959634447_rgbf000063-resize_1/003083_2014-06-15_15-21-03_094959634447_rgbf000063-resize_1-target.png,125,4.1405,8,4221,390,meters,jsons/VE125_randls_55.json,1214838,1441261,30,Man
61,126667,DepthScenes,duration_manipulation_targetAtFixation,jsons/VE125_randls_55.json,http://54.235.29.9/FacialAge/BNav_EC2/DepthDuration/v2_depth_duration_MTurk/v2_DepthDuration_HTML.html#102,102,1348,606,1366,768,8-29-2022,11-17-46,62,depth_duration_stimuli/001555_2014-06-20_17-12-10_260595134347_rgbf000065-resize_4/001555_2014-06-20_17-12-10_260595134347_rgbf000065-resize_4-target.png,125,1.633,4,141818,0,meters,jsons/VE125_randls_55.json,1214838,1441261,30,Man
62,126667,DepthScenes,duration_manipulation_targetAtFixation,jsons/VE125_randls_55.json,http://54.235.29.9/FacialAge/BNav_EC2/DepthDuration/v2_depth_duration_MTurk/v2_DepthDuration_HTML.html#102,102,1348,606,1366,768,8-29-2022,11-17-46,63,depth_duration_stimuli/000103_2014-05-14_22-01-17_260595134347_rgbf000152-resize_5/000103_2014-05-14_22-01-17_260595134347_rgbf000152-resize_5-target.png,125,1.993,4,32218,77,meters,jsons/VE125_randls_55.json,1214838,1441261,30,Man
63,126667,DepthScenes,duration_manipulation_targetAtFixation,jsons/VE125_randls_55.json,http://54.235.29.9/FacialAge/BNav_EC2/DepthDuration/v2_depth_duration_MTurk/v2_DepthDuration_HTML.html#102,102,1348,606,1366,768,8-29-2022,11-17-46,64,depth_duration_stimuli/001175_2014-06-17_15-45-55_260595134347_rgbf000129-resize_4/001175_2014-06-17_15-45-55_260595134347_rgbf000129-resize_4-target.png,125,4.255,4,130474,126,meters,jsons/VE125_randls_55.json,1214838,1441261,30,Man
64,126667,DepthScenes,duration_manipulation_targetAtFixation,jsons/VE125_randls_55.json,http://54.235.29.9/FacialAge/BNav_EC2/DepthDuration/v2_depth_duration_MTurk/v2_DepthDuration_HTML.html#102,102,1348,606,1366,768,8-29-2022,11-17-46,65,depth_duration_stimuli/003490_2014-05-21_15-50-11_094959634447_rgbf000101-resize_3/003490_2014-05-21_15-50-11_094959634447_rgbf000101-resize_3-target.png,125,3.6445,5,30415,43,meters,jsons/VE125_randls_55.json,1214838,1441261,30,Man
65,126667,DepthScenes,duration_manipulation_targetAtFixation,jsons/VE125_randls_55.json,http://54.235.29.9/FacialAge/BNav_EC2/DepthDuration/v2_depth_duration_MTurk/v2_DepthDuration_HTML.html#102,102,1348,606,1366,768,8-29-2022,11-17-46,66,depth_duration_stimuli/001222_2014-06-17_16-24-06_260595134347_rgbf000073-resize_0/001222_2014-06-17_16-24-06_260595134347_rgbf000073-resize-original.jpg,125,1.4385,5,23190,114,meters,jsons/VE125_randls_55.json,1214838,1441261,30,Man
66,126667,DepthScenes,duration_manipulation_targetAtFixation,jsons/VE125_randls_55.json,http://54.235.29.9/FacialAge/BNav_EC2/DepthDuration/v2_depth_duration_MTurk/v2_DepthDuration_HTML.html#102,102,1348,606,1366,768,8-29-2022,11-17-46,67,depth_duration_stimuli/002445_2014-06-28_20-32-16_260595134347_rgbf000029-resize_4/002445_2014-06-28_20-32-16_260595134347_rgbf000029-resize_4-target.png,125,2.5315,4,8306,73,meters,jsons/VE125_randls_55.json,1214838,1441261,30,Man
67,126667,DepthScenes,duration_manipulation_targetAtFixation,jsons/VE125_randls_55.json,http://54.235.29.9/FacialAge/BNav_EC2/DepthDuration/v2_depth_duration_MTurk/v2_DepthDuration_HTML.html#102,102,1348,606,1366,768,8-29-2022,11-17-46,68,depth_duration_stimuli/000780_2014-06-08_22-28-29_260595134347_rgbf000126-resize_1/000780_2014-06-08_22-28-29_260595134347_rgbf000126-resize_1-target.png,125,3.3825,0,3023,111,meters,jsons/VE125_randls_55.json,1214838,1441261,30,Man
68,126667,DepthScenes,duration_manipulation_targetAtFixation,jsons/VE125_randls_55.json,http://54.235.29.9/FacialAge/BNav_EC2/DepthDuration/v2_depth_duration_MTurk/v2_DepthDuration_HTML.html#102,102,1348,606,1366,768,8-29-2022,11-17-46,69,depth_duration_stimuli/001244_2014-06-17_16-47-45_260595134347_rgbf000030-resize_4/001244_2014-06-17_16-47-45_260595134347_rgbf000030-resize_4-target.png,125,2.0425,4,2517,124,meters,jsons/VE125_randls_55.json,1214838,1441261,30,Man
69,126667,DepthScenes,duration_manipulation_targetAtFixation,jsons/VE125_randls_55.json,http://54.235.29.9/FacialAge/BNav_EC2/DepthDuration/v2_depth_duration_MTurk/v2_DepthDuration_HTML.html#102,102,1348,606,1366,768,8-29-2022,11-17-46,70,depth_duration_stimuli/003495_2014-05-21_16-01-51_094959634447_rgbf000100-resize_3/003495_2014-05-21_16-01-51_094959634447_rgbf000100-resize_3-target.png,125,1.6255,5,1841,76,meters,jsons/VE125_randls_55.json,1214838,1441261,30,Man
70,126667,DepthScenes,duration_manipulation_targetAtFixation,jsons/VE125_randls_55.json,http://54.235.29.9/FacialAge/BNav_EC2/DepthDuration/v2_depth_duration_MTurk/v2_DepthDuration_HTML.html#102,102,1348,606,1366,768,8-29-2022,11-17-46,71,depth_duration_stimuli/002272_2014-06-28_18-53-56_260595134347_rgbf000067-resize_2/002272_2014-06-28_18-53-56_260595134347_rgbf000067-resize_2-target.png,125,1.138,4,1975,122,meters,jsons/VE125_randls_55.json,1214838,1441261,30,Man
71,126667,DepthScenes,duration_manipulation_targetAtFixation,jsons/VE125_randls_55.json,http://54.235.29.9/FacialAge/BNav_EC2/DepthDuration/v2_depth_duration_MTurk/v2_DepthDuration_HTML.html#102,102,1348,606,1366,768,8-29-2022,11-17-46,72,depth_duration_stimuli/001571_2014-06-20_17-21-32_260595134347_rgbf000089-resize_1/001571_2014-06-20_17-21-32_260595134347_rgbf000089-resize_1-target.png,125,1.86,5,1936,126,meters,jsons/VE125_randls_55.json,1214838,1441261,30,Man
72,126667,DepthScenes,duration_manipulation_targetAtFixation,jsons/VE125_randls_55.json,http://54.235.29.9/FacialAge/BNav_EC2/DepthDuration/v2_depth_duration_MTurk/v2_DepthDuration_HTML.html#102,102,1348,606,1366,768,8-29-2022,11-17-46,73,depth_duration_stimuli/000493_2014-06-09_21-01-18_260595134347_rgbf000196-resize_3/000493_2014-06-09_21-01-18_260595134347_rgbf000196-resize_3-target.png,125,3.44,7,1954,129,meters,jsons/VE125_randls_55.json,1214838,1441261,30,Man
73,126667,DepthScenes,duration_manipulation_targetAtFixation,jsons/VE125_randls_55.json,http://54.235.29.9/FacialAge/BNav_EC2/DepthDuration/v2_depth_duration_MTurk/v2_DepthDuration_HTML.html#102,102,1348,606,1366,768,8-29-2022,11-17-46,74,depth_duration_stimuli/000191_2014-05-12_17-07-38_260595134347_rgbf000199-resize_0/000191_2014-05-12_17-07-38_260595134347_rgbf000199-resize_0-target.png,125,3.7995,5,8180,124,meters,jsons/VE125_randls_55.json,1214838,1441261,30,Man
74,126667,DepthScenes,duration_manipulation_targetAtFixation,jsons/VE125_randls_55.json,http://54.235.29.9/FacialAge/BNav_EC2/DepthDuration/v2_depth_duration_MTurk/v2_DepthDuration_HTML.html#102,102,1348,606,1366,768,8-29-2022,11-17-46,75,depth_duration_stimuli/002788_2014-06-22_19-36-03_094959634447_rgbf000088-resize_2/002788_2014-06-22_19-36-03_094959634447_rgbf000088-resize_2-target.png,125,1.6465,5,2105,171,meters,jsons/VE125_randls_55.json,1214838,1441261,30,Man
75,126667,DepthScenes,duration_manipulation_targetAtFixation,jsons/VE125_randls_55.json,http://54.235.29.9/FacialAge/BNav_EC2/DepthDuration/v2_depth_duration_MTurk/v2_DepthDuration_HTML.html#102,102,1348,606,1366,768,8-29-2022,11-17-46,76,depth_duration_stimuli/000749_2014-06-08_21-55-06_260595134347_rgbf000070-resize_2/000749_2014-06-08_21-55-06_260595134347_rgbf000070-resize_2-target.png,125,2.331,4,1902,130,meters,jsons/VE125_randls_55.json,1214838,1441261,30,Man
76,126667,DepthScenes,duration_manipulation_targetAtFixation,jsons/VE125_randls_55.json,http://54.235.29.9/FacialAge/BNav_EC2/DepthDuration/v2_depth_duration_MTurk/v2_DepthDuration_HTML.html#102,102,1348,606,1366,768,8-29-2022,11-17-46,77,depth_duration_stimuli/000009_2014-05-26_14-32-05_260595134347_rgbf000034-resize_3/000009_2014-05-26_14-32-05_260595134347_rgbf000034-resize_3-target.png,125,3.8715,5,2146,118,meters,jsons/VE125_randls_55.json,1214838,1441261,30,Man
77,126667,DepthScenes,duration_manipulation_targetAtFixation,jsons/VE125_randls_55.json,http://54.235.29.9/FacialAge/BNav_EC2/DepthDuration/v2_depth_duration_MTurk/v2_DepthDuration_HTML.html#102,102,1348,606,1366,768,8-29-2022,11-17-46,78,depth_duration_stimuli/001828_2014-06-26_21-40-03_260595134347_rgbf000024-resize_0/001828_2014-06-26_21-40-03_260595134347_rgbf000024-resize_0-target.png,125,4.8260000000000005,4,28993,125,meters,jsons/VE125_randls_55.json,1214838,1441261,30,Man
78,126667,DepthScenes,duration_manipulation_targetAtFixation,jsons/VE125_randls_55.json,http://54.235.29.9/FacialAge/BNav_EC2/DepthDuration/v2_depth_duration_MTurk/v2_DepthDuration_HTML.html#102,102,1348,606,1366,768,8-29-2022,11-17-46,79,depth_duration_stimuli/003292_2014-05-14_21-53-49_094959634447_rgbf000100-resize_2/003292_2014-05-14_21-53-49_094959634447_rgbf000100-resize_2-target.png,125,3.4815,5,5203,219,meters,jsons/VE125_randls_55.json,1214838,1441261,30,Man
79,126667,DepthScenes,duration_manipulation_targetAtFixation,jsons/VE125_randls_55.json,http://54.235.29.9/FacialAge/BNav_EC2/DepthDuration/v2_depth_duration_MTurk/v2_DepthDuration_HTML.html#102,102,1348,606,1366,768,8-29-2022,11-17-46,80,depth_duration_stimuli/002639_2014-06-24_14-51-37_094959634447_rgbf000074-resize_4/002639_2014-06-24_14-51-37_094959634447_rgbf000074-resize_4-target.png,125,4.0375,4,4597,460,meters,jsons/VE125_randls_55.json,1214838,1441261,30,Man
80,126667,DepthScenes,duration_manipulation_targetAtFixation,jsons/VE125_randls_55.json,http://54.235.29.9/FacialAge/BNav_EC2/DepthDuration/v2_depth_duration_MTurk/v2_DepthDuration_HTML.html#102,102,1348,606,1366,768,8-29-2022,11-17-46,81,depth_duration_stimuli/002964_2014-06-08_17-46-11_094959634447_rgbf000091-resize_4/002964_2014-06-08_17-46-11_094959634447_rgbf000091-resize_4-target.png,125,1.6909999999999998,8,7913,2,meters,jsons/VE125_randls_55.json,1214838,1441261,30,Man
81,126667,DepthScenes,duration_manipulation_targetAtFixation,jsons/VE125_randls_55.json,http://54.235.29.9/FacialAge/BNav_EC2/DepthDuration/v2_depth_duration_MTurk/v2_DepthDuration_HTML.html#102,102,1348,606,1366,768,8-29-2022,11-17-46,82,depth_duration_stimuli/002136_2014-06-25_21-18-03_260595134347_rgbf000109-resize_3/002136_2014-06-25_21-18-03_260595134347_rgbf000109-resize_3-target.png,125,1.9569999999999999,4,17343,98,meters,jsons/VE125_randls_55.json,1214838,1441261,30,Man
82,126667,DepthScenes,duration_manipulation_targetAtFixation,jsons/VE125_randls_55.json,http://54.235.29.9/FacialAge/BNav_EC2/DepthDuration/v2_depth_duration_MTurk/v2_DepthDuration_HTML.html#102,102,1348,606,1366,768,8-29-2022,11-17-46,83,depth_duration_stimuli/002549_2014-06-24_13-41-39_094959634447_rgbf000022-resize_3/002549_2014-06-24_13-41-39_094959634447_rgbf000022-resize_3-target.png,125,1.476,5,2370,125,meters,jsons/VE125_randls_55.json,1214838,1441261,30,Man
83,126667,DepthScenes,duration_manipulation_targetAtFixation,jsons/VE125_randls_55.json,http://54.235.29.9/FacialAge/BNav_EC2/DepthDuration/v2_depth_duration_MTurk/v2_DepthDuration_HTML.html#102,102,1348,606,1366,768,8-29-2022,11-17-46,84,depth_duration_stimuli/002750_2014-06-22_19-08-03_094959634447_rgbf000094-resize_4/002750_2014-06-22_19-08-03_094959634447_rgbf000094-resize_4-target.png,125,2.354,1,2357,116,meters,jsons/VE125_randls_55.json,1214838,1441261,30,Man
84,126667,DepthScenes,duration_manipulation_targetAtFixation,jsons/VE125_randls_55.json,http://54.235.29.9/FacialAge/BNav_EC2/DepthDuration/v2_depth_duration_MTurk/v2_DepthDuration_HTML.html#102,102,1348,606,1366,768,8-29-2022,11-17-46,85,depth_duration_stimuli/000736_2014-06-08_18-24-15_260595134347_rgbf000206-resize_3/000736_2014-06-08_18-24-15_260595134347_rgbf000206-resize_3-target.png,125,3.515,4,8809,353,meters,jsons/VE125_randls_55.json,1214838,1441261,30,Man
85,126667,DepthScenes,duration_manipulation_targetAtFixation,jsons/VE125_randls_55.json,http://54.235.29.9/FacialAge/BNav_EC2/DepthDuration/v2_depth_duration_MTurk/v2_DepthDuration_HTML.html#102,102,1348,606,1366,768,8-29-2022,11-17-46,86,depth_duration_stimuli/000137_2014-05-20_17-04-49_260595134347_rgbf000120-resize_1/000137_2014-05-20_17-04-49_260595134347_rgbf000120-resize_1-target.png,125,3.786,5,1962,122,meters,jsons/VE125_randls_55.json,1214838,1441261,30,Man
86,126667,DepthScenes,duration_manipulation_targetAtFixation,jsons/VE125_randls_55.json,http://54.235.29.9/FacialAge/BNav_EC2/DepthDuration/v2_depth_duration_MTurk/v2_DepthDuration_HTML.html#102,102,1348,606,1366,768,8-29-2022,11-17-46,87,depth_duration_stimuli/001110_2014-06-15_17-25-28_260595134347_rgbf000150-resize_1/001110_2014-06-15_17-25-28_260595134347_rgbf000150-resize_1-target.png,125,1.7115,7,2144,122,meters,jsons/VE125_randls_55.json,1214838,1441261,30,Man
87,126667,DepthScenes,duration_manipulation_targetAtFixation,jsons/VE125_randls_55.json,http://54.235.29.9/FacialAge/BNav_EC2/DepthDuration/v2_depth_duration_MTurk/v2_DepthDuration_HTML.html#102,102,1348,606,1366,768,8-29-2022,11-17-46,88,depth_duration_stimuli/000927_2014-06-09_16-32-30_260595134347_rgbf000123-resize_3/000927_2014-06-09_16-32-30_260595134347_rgbf000123-resize_3-target.png,125,2.6785,2,2347,119,meters,jsons/VE125_randls_55.json,1214838,1441261,30,Man
88,126667,DepthScenes,duration_manipulation_targetAtFixation,jsons/VE125_randls_55.json,http://54.235.29.9/FacialAge/BNav_EC2/DepthDuration/v2_depth_duration_MTurk/v2_DepthDuration_HTML.html#102,102,1348,606,1366,768,8-29-2022,11-17-46,89,depth_duration_stimuli/000739_2014-06-08_18-45-58_260595134347_rgbf000068-resize_1/000739_2014-06-08_18-45-58_260595134347_rgbf000068-resize_1-target.png,125,3.534,4,1762,121,meters,jsons/VE125_randls_55.json,1214838,1441261,30,Man
89,126667,DepthScenes,duration_manipulation_targetAtFixation,jsons/VE125_randls_55.json,http://54.235.29.9/FacialAge/BNav_EC2/DepthDuration/v2_depth_duration_MTurk/v2_DepthDuration_HTML.html#102,102,1348,606,1366,768,8-29-2022,11-17-46,90,depth_duration_stimuli/000734_2014-06-08_17-39-11_260595134347_rgbf000128-resize_2/000734_2014-06-08_17-39-11_260595134347_rgbf000128-resize_2-target.png,125,4.098,8,2050,123,meters,jsons/VE125_randls_55.json,1214838,1441261,30,Man
90,126667,DepthScenes,duration_manipulation_targetAtFixation,jsons/VE125_randls_55.json,http://54.235.29.9/FacialAge/BNav_EC2/DepthDuration/v2_depth_duration_MTurk/v2_DepthDuration_HTML.html#102,102,1348,606,1366,768,8-29-2022,11-17-46,91,depth_duration_stimuli/001092_2014-06-15_17-34-58_260595134347_rgbf000171-resize_3/001092_2014-06-15_17-34-58_260595134347_rgbf000171-resize_3-target.png,125,2.6935,5,4346,124,meters,jsons/VE125_randls_55.json,1214838,1441261,30,Man
91,126667,DepthScenes,duration_manipulation_targetAtFixation,jsons/VE125_randls_55.json,http://54.235.29.9/FacialAge/BNav_EC2/DepthDuration/v2_depth_duration_MTurk/v2_DepthDuration_HTML.html#102,102,1348,606,1366,768,8-29-2022,11-17-46,92,depth_duration_stimuli/002545_2014-06-24_13-38-53_094959634447_rgbf000080-resize_4/002545_2014-06-24_13-38-53_094959634447_rgbf000080-resize_4-target.png,125,1.9205,4,1891,124,meters,jsons/VE125_randls_55.json,1214838,1441261,30,Man
92,126667,DepthScenes,duration_manipulation_targetAtFixation,jsons/VE125_randls_55.json,http://54.235.29.9/FacialAge/BNav_EC2/DepthDuration/v2_depth_duration_MTurk/v2_DepthDuration_HTML.html#102,102,1348,606,1366,768,8-29-2022,11-17-46,93,depth_duration_stimuli/001449_2014-06-19_17-01-27_260595134347_rgbf000116-resize_2/001449_2014-06-19_17-01-27_260595134347_rgbf000116-resize_2-target.png,125,3.452,2,1890,124,meters,jsons/VE125_randls_55.json,1214838,1441261,30,Man
93,126667,DepthScenes,duration_manipulation_targetAtFixation,jsons/VE125_randls_55.json,http://54.235.29.9/FacialAge/BNav_EC2/DepthDuration/v2_depth_duration_MTurk/v2_DepthDuration_HTML.html#102,102,1348,606,1366,768,8-29-2022,11-17-46,94,depth_duration_stimuli/001450_2014-06-19_17-02-03_260595134347_rgbf000203-resize_4/001450_2014-06-19_17-02-03_260595134347_rgbf000203-resize_4-target.png,125,4.0106666666667,8,2036,125,meters,jsons/VE125_randls_55.json,1214838,1441261,30,Man
94,126667,DepthScenes,duration_manipulation_targetAtFixation,jsons/VE125_randls_55.json,http://54.235.29.9/FacialAge/BNav_EC2/DepthDuration/v2_depth_duration_MTurk/v2_DepthDuration_HTML.html#102,102,1348,606,1366,768,8-29-2022,11-17-46,95,depth_duration_stimuli/001150_2014-06-17_15-27-34_260595134347_rgbf000108-resize_2/001150_2014-06-17_15-27-34_260595134347_rgbf000108-resize_2-target.png,125,4.0325,4,1663,118,meters,jsons/VE125_randls_55.json,1214838,1441261,30,Man
95,126667,DepthScenes,duration_manipulation_targetAtFixation,jsons/VE125_randls_55.json,http://54.235.29.9/FacialAge/BNav_EC2/DepthDuration/v2_depth_duration_MTurk/v2_DepthDuration_HTML.html#102,102,1348,606,1366,768,8-29-2022,11-17-46,96,depth_duration_stimuli/000665_2014-06-09_20-42-35_260595134347_rgbf000110-resize_1/000665_2014-06-09_20-42-35_260595134347_rgbf000110-resize_1-target.png,125,3.057,8,1896,124,meters,jsons/VE125_randls_55.json,1214838,1441261,30,Man
96,126667,DepthScenes,duration_manipulation_targetAtFixation,jsons/VE125_randls_55.json,http://54.235.29.9/FacialAge/BNav_EC2/DepthDuration/v2_depth_duration_MTurk/v2_DepthDuration_HTML.html#102,102,1348,606,1366,768,8-29-2022,11-17-46,97,depth_duration_stimuli/000906_2014-06-08_13-35-43_260595134347_rgbf000155-resize_1/000906_2014-06-08_13-35-43_260595134347_rgbf000155-resize_1-target.png,125,2.8489999999999998,4,1641,115,meters,jsons/VE125_randls_55.json,1214838,1441261,30,Man
97,126667,DepthScenes,duration_manipulation_targetAtFixation,jsons/VE125_randls_55.json,http://54.235.29.9/FacialAge/BNav_EC2/DepthDuration/v2_depth_duration_MTurk/v2_DepthDuration_HTML.html#102,102,1348,606,1366,768,8-29-2022,11-17-46,98,depth_duration_stimuli/002805_2014-06-22_19-54-03_094959634447_rgbf000079-resize_1/002805_2014-06-22_19-54-03_094959634447_rgbf000079-resize_1-target.png,125,3.1439999999999997,5,1858,123,meters,jsons/VE125_randls_55.json,1214838,1441261,30,Man
98,126667,DepthScenes,duration_manipulation_targetAtFixation,jsons/VE125_randls_55.json,http://54.235.29.9/FacialAge/BNav_EC2/DepthDuration/v2_depth_duration_MTurk/v2_DepthDuration_HTML.html#102,102,1348,606,1366,768,8-29-2022,11-17-46,99,depth_duration_stimuli/001540_2014-06-20_17-01-05_260595134347_rgbf000086-resize_2/001540_2014-06-20_17-01-05_260595134347_rgbf000086-resize-original.jpg,125,1.459,6,1909,130,meters,jsons/VE125_randls_55.json,1214838,1441261,30,Man
99,126667,DepthScenes,duration_manipulation_targetAtFixation,jsons/VE125_randls_55.json,http://54.235.29.9/FacialAge/BNav_EC2/DepthDuration/v2_depth_duration_MTurk/v2_DepthDuration_HTML.html#102,102,1348,606,1366,768,8-29-2022,11-17-46,100,depth_duration_stimuli/000469_2014-06-09_19-42-10_260595134347_rgbf000081-resize_1/000469_2014-06-09_19-42-10_260595134347_rgbf000081-resize_1-target.png,125,1.652,2,1998,131,meters,jsons/VE125_randls_55.json,1214838,1441261,30,Man
100,126667,DepthScenes,duration_manipulation_targetAtFixation,jsons/VE125_randls_55.json,http://54.235.29.9/FacialAge/BNav_EC2/DepthDuration/v2_depth_duration_MTurk/v2_DepthDuration_HTML.html#102,102,1348,606,1366,768,8-29-2022,11-17-46,101,depth_duration_stimuli/000483_2014-06-09_20-41-45_260595134347_rgbf000116-resize_4/000483_2014-06-09_20-41-45_260595134347_rgbf000116-resize_4-target.png,125,1.337,1,1987,130,meters,jsons/VE125_randls_55.json,1214838,1441261,30,Man
101,126667,DepthScenes,duration_manipulation_targetAtFixation,jsons/VE125_randls_55.json,http://54.235.29.9/FacialAge/BNav_EC2/DepthDuration/v2_depth_duration_MTurk/v2_DepthDuration_HTML.html#102,102,1348,606,1366,768,8-29-2022,11-17-46,102,depth_duration_stimuli/002118_2014-06-25_20-32-08_260595134347_rgbf000078-resize_1/002118_2014-06-25_20-32-08_260595134347_rgbf000078-resize_1-target.png,125,2.6460000000000004,3,2496,125,meters,jsons/VE125_randls_55.json,1214838,1441261,30,Man
102,126667,DepthScenes,duration_manipulation_targetAtFixation,jsons/VE125_randls_55.json,http://54.235.29.9/FacialAge/BNav_EC2/DepthDuration/v2_depth_duration_MTurk/v2_DepthDuration_HTML.html#102,102,1348,606,1366,768,8-29-2022,11-17-46,103,depth_duration_stimuli/001516_2014-06-20_16-25-09_260595134347_rgbf000076-resize_2/001516_2014-06-20_16-25-09_260595134347_rgbf000076-resize_2-target.png,125,1.7445,5,1798,129,meters,jsons/VE125_randls_55.json,1214838,1441261,30,Man
103,126667,DepthScenes,duration_manipulation_targetAtFixation,jsons/VE125_randls_55.json,http://54.235.29.9/FacialAge/BNav_EC2/DepthDuration/v2_depth_duration_MTurk/v2_DepthDuration_HTML.html#102,102,1348,606,1366,768,8-29-2022,11-17-46,104,depth_duration_stimuli/000773_2014-06-08_22-24-54_260595134347_rgbf000093-resize_1/000773_2014-06-08_22-24-54_260595134347_rgbf000093-resize_1-target.png,125,4.973,4,2139,125,meters,jsons/VE125_randls_55.json,1214838,1441261,30,Man
104,126667,DepthScenes,duration_manipulation_targetAtFixation,jsons/VE125_randls_55.json,http://54.235.29.9/FacialAge/BNav_EC2/DepthDuration/v2_depth_duration_MTurk/v2_DepthDuration_HTML.html#102,102,1348,606,1366,768,8-29-2022,11-17-46,105,depth_duration_stimuli/002414_2014-06-28_20-24-58_260595134347_rgbf000067-resize_4/002414_2014-06-28_20-24-58_260595134347_rgbf000067-resize_4-target.png,125,4.363,5,1764,126,meters,jsons/VE125_randls_55.json,1214838,1441261,30,Man
105,126667,DepthScenes,duration_manipulation_targetAtFixation,jsons/VE125_randls_55.json,http://54.235.29.9/FacialAge/BNav_EC2/DepthDuration/v2_depth_duration_MTurk/v2_DepthDuration_HTML.html#102,102,1348,606,1366,768,8-29-2022,11-17-46,106,depth_duration_stimuli/002725_2014-06-22_11-47-51_094959634447_rgbf000070-resize_1/002725_2014-06-22_11-47-51_094959634447_rgbf000070-resize_1-target.png,125,2.195,4,1740,125,meters,jsons/VE125_randls_55.json,1214838,1441261,30,Man
106,126667,DepthScenes,duration_manipulation_targetAtFixation,jsons/VE125_randls_55.json,http://54.235.29.9/FacialAge/BNav_EC2/DepthDuration/v2_depth_duration_MTurk/v2_DepthDuration_HTML.html#102,102,1348,606,1366,768,8-29-2022,11-17-46,107,depth_duration_stimuli/002344_2014-06-28_20-06-29_260595134347_rgbf000030-resize_1/002344_2014-06-28_20-06-29_260595134347_rgbf000030-resize_1-target.png,125,1.5795,5,1929,132,meters,jsons/VE125_randls_55.json,1214838,1441261,30,Man
107,126667,DepthScenes,duration_manipulation_targetAtFixation,jsons/VE125_randls_55.json,http://54.235.29.9/FacialAge/BNav_EC2/DepthDuration/v2_depth_duration_MTurk/v2_DepthDuration_HTML.html#102,102,1348,606,1366,768,8-29-2022,11-17-46,108,depth_duration_stimuli/000470_2014-06-09_19-42-40_260595134347_rgbf000094-resize_1/000470_2014-06-09_19-42-40_260595134347_rgbf000094-resize_1-target.png,125,1.831,4,2258,123,meters,jsons/VE125_randls_55.json,1214838,1441261,30,Man
108,126667,DepthScenes,duration_manipulation_targetAtFixation,jsons/VE125_randls_55.json,http://54.235.29.9/FacialAge/BNav_EC2/DepthDuration/v2_depth_duration_MTurk/v2_DepthDuration_HTML.html#102,102,1348,606,1366,768,8-29-2022,11-17-46,109,depth_duration_stimuli/000109_2014-05-14_23-41-52_260595134347_rgbf000035-resize_9/000109_2014-05-14_23-41-52_260595134347_rgbf000035-resize_9-target.png,125,1.3545,7,1515,124,meters,jsons/VE125_randls_55.json,1214838,1441261,30,Man
109,126667,DepthScenes,duration_manipulation_targetAtFixation,jsons/VE125_randls_55.json,http://54.235.29.9/FacialAge/BNav_EC2/DepthDuration/v2_depth_duration_MTurk/v2_DepthDuration_HTML.html#102,102,1348,606,1366,768,8-29-2022,11-17-46,110,depth_duration_stimuli/002570_2014-06-24_13-59-54_094959634447_rgbf000059-resize_0/002570_2014-06-24_13-59-54_094959634447_rgbf000059-resize_0-target.png,125,4.037,8,2438,150,meters,jsons/VE125_randls_55.json,1214838,1441261,30,Man
110,126667,DepthScenes,duration_manipulation_targetAtFixation,jsons/VE125_randls_55.json,http://54.235.29.9/FacialAge/BNav_EC2/DepthDuration/v2_depth_duration_MTurk/v2_DepthDuration_HTML.html#102,102,1348,606,1366,768,8-29-2022,11-17-46,111,depth_duration_stimuli/002467_2014-06-28_20-38-07_260595134347_rgbf000026-resize_2/002467_2014-06-28_20-38-07_260595134347_rgbf000026-resize_2-target.png,125,4.742,2,2496,123,meters,jsons/VE125_randls_55.json,1214838,1441261,30,Man
111,126667,DepthScenes,duration_manipulation_targetAtFixation,jsons/VE125_randls_55.json,http://54.235.29.9/FacialAge/BNav_EC2/DepthDuration/v2_depth_duration_MTurk/v2_DepthDuration_HTML.html#102,102,1348,606,1366,768,8-29-2022,11-17-46,112,depth_duration_stimuli/002784_2014-06-22_19-26-30_094959634447_rgbf000083-resize_3/002784_2014-06-22_19-26-30_094959634447_rgbf000083-resize_3-target.png,125,1.8046666666667,3,2090,125,meters,jsons/VE125_randls_55.json,1214838,1441261,30,Man
112,126667,DepthScenes,duration_manipulation_targetAtFixation,jsons/VE125_randls_55.json,http://54.235.29.9/FacialAge/BNav_EC2/DepthDuration/v2_depth_duration_MTurk/v2_DepthDuration_HTML.html#102,102,1348,606,1366,768,8-29-2022,11-17-46,113,depth_duration_stimuli/001100_2014-06-15_17-46-26_260595134347_rgbf000225-resize_2/001100_2014-06-15_17-46-26_260595134347_rgbf000225-resize_2-target.png,125,2.24,5,2363,125,meters,jsons/VE125_randls_55.json,1214838,1441261,30,Man
113,126667,DepthScenes,duration_manipulation_targetAtFixation,jsons/VE125_randls_55.json,http://54.235.29.9/FacialAge/BNav_EC2/DepthDuration/v2_depth_duration_MTurk/v2_DepthDuration_HTML.html#102,102,1348,606,1366,768,8-29-2022,11-17-46,114,depth_duration_stimuli/000368_2014-06-09_15-53-01_260595134347_rgbf000155-resize_2/000368_2014-06-09_15-53-01_260595134347_rgbf000155-resize_2-target.png,125,2.4859999999999998,4,1588,124,meters,jsons/VE125_randls_55.json,1214838,1441261,30,Man
114,126667,DepthScenes,duration_manipulation_targetAtFixation,jsons/VE125_randls_55.json,http://54.235.29.9/FacialAge/BNav_EC2/DepthDuration/v2_depth_duration_MTurk/v2_DepthDuration_HTML.html#102,102,1348,606,1366,768,8-29-2022,11-17-46,115,depth_duration_stimuli/002678_2014-06-13_16-15-32_094959634447_rgbf000151-resize_6/002678_2014-06-13_16-15-32_094959634447_rgbf000151-resize_6-target.png,125,2.1830000000000003,6,2555,124,meters,jsons/VE125_randls_55.json,1214838,1441261,30,Man
115,126667,DepthScenes,duration_manipulation_targetAtFixation,jsons/VE125_randls_55.json,http://54.235.29.9/FacialAge/BNav_EC2/DepthDuration/v2_depth_duration_MTurk/v2_DepthDuration_HTML.html#102,102,1348,606,1366,768,8-29-2022,11-17-46,116,depth_duration_stimuli/001170_2014-06-17_15-43-44_260595134347_rgbf000096-resize_6/001170_2014-06-17_15-43-44_260595134347_rgbf000096-resize-original.jpg,125,1.1909999999999998,8,2095,124,meters,jsons/VE125_randls_55.json,1214838,1441261,30,Man
116,126667,DepthScenes,duration_manipulation_targetAtFixation,jsons/VE125_randls_55.json,http://54.235.29.9/FacialAge/BNav_EC2/DepthDuration/v2_depth_duration_MTurk/v2_DepthDuration_HTML.html#102,102,1348,606,1366,768,8-29-2022,11-17-46,117,depth_duration_stimuli/002039_2014-06-24_20-22-38_260595134347_rgbf000084-resize_1/002039_2014-06-24_20-22-38_260595134347_rgbf000084-resize_1-target.png,125,4.408,4,47837,123,meters,jsons/VE125_randls_55.json,1214838,1441261,30,Man
117,126667,DepthScenes,duration_manipulation_targetAtFixation,jsons/VE125_randls_55.json,http://54.235.29.9/FacialAge/BNav_EC2/DepthDuration/v2_depth_duration_MTurk/v2_DepthDuration_HTML.html#102,102,1348,606,1366,768,8-29-2022,11-17-46,118,depth_duration_stimuli/002103_2014-06-25_20-00-40_260595134347_rgbf000049-resize_0/002103_2014-06-25_20-00-40_260595134347_rgbf000049-resize_0-target.png,125,4.105,0,2076,130,meters,jsons/VE125_randls_55.json,1214838,1441261,30,Man
118,126667,DepthScenes,duration_manipulation_targetAtFixation,jsons/VE125_randls_55.json,http://54.235.29.9/FacialAge/BNav_EC2/DepthDuration/v2_depth_duration_MTurk/v2_DepthDuration_HTML.html#102,102,1348,606,1366,768,8-29-2022,11-17-46,119,depth_duration_stimuli/000788_2014-06-08_22-34-36_260595134347_rgbf000131-resize_1/000788_2014-06-08_22-34-36_260595134347_rgbf000131-resize_1-target.png,125,3.359,4,1923,146,meters,jsons/VE125_randls_55.json,1214838,1441261,30,Man
119,126667,DepthScenes,duration_manipulation_targetAtFixation,jsons/VE125_randls_55.json,http://54.235.29.9/FacialAge/BNav_EC2/DepthDuration/v2_depth_duration_MTurk/v2_DepthDuration_HTML.html#102,102,1348,606,1366,768,8-29-2022,11-17-46,120,depth_duration_stimuli/001235_2014-06-17_16-37-36_260595134347_rgbf000084-resize_4/001235_2014-06-17_16-37-36_260595134347_rgbf000084-resize_4-target.png,125,3.6605,5,1905,120,meters,jsons/VE125_randls_55.json,1214838,1441261,30,Man
120,126667,DepthScenes,duration_manipulation_targetAtFixation,jsons/VE125_randls_55.json,http://54.235.29.9/FacialAge/BNav_EC2/DepthDuration/v2_depth_duration_MTurk/v2_DepthDuration_HTML.html#102,102,1348,606,1366,768,8-29-2022,11-17-46,121,depth_duration_stimuli/000506_2014-06-08_23-21-00_260595134347_rgbf000070-resize_7/000506_2014-06-08_23-21-00_260595134347_rgbf000070-resize_7-target.png,125,4.0585,7,2041,124,meters,jsons/VE125_randls_55.json,1214838,1441261,30,Man
121,126667,DepthScenes,duration_manipulation_targetAtFixation,jsons/VE125_randls_55.json,http://54.235.29.9/FacialAge/BNav_EC2/DepthDuration/v2_depth_duration_MTurk/v2_DepthDuration_HTML.html#102,102,1348,606,1366,768,8-29-2022,11-17-46,122,depth_duration_stimuli/003079_2014-06-15_15-18-20_094959634447_rgbf000152-resize_8/003079_2014-06-15_15-18-20_094959634447_rgbf000152-resize_8-target.png,125,2.8775,5,1780,200,meters,jsons/VE125_randls_55.json,1214838,1441261,30,Man
122,126667,DepthScenes,duration_manipulation_targetAtFixation,jsons/VE125_randls_55.json,http://54.235.29.9/FacialAge/BNav_EC2/DepthDuration/v2_depth_duration_MTurk/v2_DepthDuration_HTML.html#102,102,1348,606,1366,768,8-29-2022,11-17-46,123,depth_duration_stimuli/002153_2014-06-25_21-27-18_260595134347_rgbf000038-resize_5/002153_2014-06-25_21-27-18_260595134347_rgbf000038-resize_5-target.png,125,2.505,4,1796,125,meters,jsons/VE125_randls_55.json,1214838,1441261,30,Man
123,126667,DepthScenes,duration_manipulation_targetAtFixation,jsons/VE125_randls_55.json,http://54.235.29.9/FacialAge/BNav_EC2/DepthDuration/v2_depth_duration_MTurk/v2_DepthDuration_HTML.html#102,102,1348,606,1366,768,8-29-2022,11-17-46,124,depth_duration_stimuli/002660_2014-06-13_15-44-18_094959634447_rgbf001878-resize_2/002660_2014-06-13_15-44-18_094959634447_rgbf001878-resize_2-target.png,125,3.576,4,21393,123,meters,jsons/VE125_randls_55.json,1214838,1441261,30,Man
124,126667,DepthScenes,duration_manipulation_targetAtFixation,jsons/VE125_randls_55.json,http://54.235.29.9/FacialAge/BNav_EC2/DepthDuration/v2_depth_duration_MTurk/v2_DepthDuration_HTML.html#102,102,1348,606,1366,768,8-29-2022,11-17-46,125,depth_duration_stimuli/000642_2014-06-08_16-59-25_260595134347_rgbf000098-resize_2/000642_2014-06-08_16-59-25_260595134347_rgbf000098-resize_2-target.png,125,2.8815,7,2602,125,meters,jsons/VE125_randls_55.json,1214838,1441261,30,Man
125,126667,DepthScenes,duration_manipulation_targetAtFixation,jsons/VE125_randls_55.json,http://54.235.29.9/FacialAge/BNav_EC2/DepthDuration/v2_depth_duration_MTurk/v2_DepthDuration_HTML.html#102,102,1348,606,1366,768,8-29-2022,11-17-46,126,depth_duration_stimuli/002425_2014-06-28_20-27-29_260595134347_rgbf000031-resize_8/002425_2014-06-28_20-27-29_260595134347_rgbf000031-resize_8-target.png,125,3.8960000000000004,8,2005,124,meters,jsons/VE125_randls_55.json,1214838,1441261,30,Man
126,126667,DepthScenes,duration_manipulation_targetAtFixation,jsons/VE125_randls_55.json,http://54.235.29.9/FacialAge/BNav_EC2/DepthDuration/v2_depth_duration_MTurk/v2_DepthDuration_HTML.html#102,102,1348,606,1366,768,8-29-2022,11-17-46,127,depth_duration_stimuli/001806_2014-06-26_20-50-20_260595134347_rgbf000091-resize_1/001806_2014-06-26_20-50-20_260595134347_rgbf000091-resize_1-target.png,125,2.7305,5,3608,0,meters,jsons/VE125_randls_55.json,1214838,1441261,30,Man
127,126667,DepthScenes,duration_manipulation_targetAtFixation,jsons/VE125_randls_55.json,http://54.235.29.9/FacialAge/BNav_EC2/DepthDuration/v2_depth_duration_MTurk/v2_DepthDuration_HTML.html#102,102,1348,606,1366,768,8-29-2022,11-17-46,128,depth_duration_stimuli/001617_2014-06-20_11-35-32_260595134347_rgbf000066-resize_1/001617_2014-06-20_11-35-32_260595134347_rgbf000066-resize_1-target.png,125,3.7910000000000004,7,3061,215,meters,jsons/VE125_randls_55.json,1214838,1441261,30,Man
128,126667,DepthScenes,duration_manipulation_targetAtFixation,jsons/VE125_randls_55.json,http://54.235.29.9/FacialAge/BNav_EC2/DepthDuration/v2_depth_duration_MTurk/v2_DepthDuration_HTML.html#102,102,1348,606,1366,768,8-29-2022,11-17-46,129,depth_duration_stimuli/001810_2014-06-26_20-51-35_260595134347_rgbf000040-resize_3/001810_2014-06-26_20-51-35_260595134347_rgbf000040-resize_3-target.png,125,2.2525,8,2456,106,meters,jsons/VE125_randls_55.json,1214838,1441261,30,Man
129,126667,DepthScenes,duration_manipulation_targetAtFixation,jsons/VE125_randls_55.json,http://54.235.29.9/FacialAge/BNav_EC2/DepthDuration/v2_depth_duration_MTurk/v2_DepthDuration_HTML.html#102,102,1348,606,1366,768,8-29-2022,11-17-46,130,depth_duration_stimuli/003010_2014-06-15_12-54-35_094959634447_rgbf000112-resize_0/003010_2014-06-15_12-54-35_094959634447_rgbf000112-resize_0-target.png,125,3.1185,2,2941,83,meters,jsons/VE125_randls_55.json,1214838,1441261,30,Man
130,126667,DepthScenes,duration_manipulation_targetAtFixation,jsons/VE125_randls_55.json,http://54.235.29.9/FacialAge/BNav_EC2/DepthDuration/v2_depth_duration_MTurk/v2_DepthDuration_HTML.html#102,102,1348,606,1366,768,8-29-2022,11-17-46,131,depth_duration_stimuli/000878_2014-06-08_22-52-45_260595134347_rgbf000045-resize_2/000878_2014-06-08_22-52-45_260595134347_rgbf000045-resize_2-target.png,125,2.092,1,2480,407,meters,jsons/VE125_randls_55.json,1214838,1441261,30,Man
131,126667,DepthScenes,duration_manipulation_targetAtFixation,jsons/VE125_randls_55.json,http://54.235.29.9/FacialAge/BNav_EC2/DepthDuration/v2_depth_duration_MTurk/v2_DepthDuration_HTML.html#102,102,1348,606,1366,768,8-29-2022,11-17-46,132,depth_duration_stimuli/002953_2014-06-08_17-32-18_094959634447_rgbf000059-resize_5/002953_2014-06-08_17-32-18_094959634447_rgbf000059-resize_5-target.png,125,1.551,3,2274,93,meters,jsons/VE125_randls_55.json,1214838,1441261,30,Man
132,126667,DepthScenes,duration_manipulation_targetAtFixation,jsons/VE125_randls_55.json,http://54.235.29.9/FacialAge/BNav_EC2/DepthDuration/v2_depth_duration_MTurk/v2_DepthDuration_HTML.html#102,102,1348,606,1366,768,8-29-2022,11-17-46,133,depth_duration_stimuli/001011_2014-06-08_23-18-54_260595134347_rgbf000044-resize_4/001011_2014-06-08_23-18-54_260595134347_rgbf000044-resize_4-target.png,125,2.4730000000000003,5,2472,192,meters,jsons/VE125_randls_55.json,1214838,1441261,30,Man
133,126667,DepthScenes,duration_manipulation_targetAtFixation,jsons/VE125_randls_55.json,http://54.235.29.9/FacialAge/BNav_EC2/DepthDuration/v2_depth_duration_MTurk/v2_DepthDuration_HTML.html#102,102,1348,606,1366,768,8-29-2022,11-17-46,134,depth_duration_stimuli/002875_2014-06-01_15-19-00_094959634447_rgbf000151-resize_1/002875_2014-06-01_15-19-00_094959634447_rgbf000151-resize_1-target.png,125,1.9675,4,2640,623,meters,jsons/VE125_randls_55.json,1214838,1441261,30,Man
134,126667,DepthScenes,duration_manipulation_targetAtFixation,jsons/VE125_randls_55.json,http://54.235.29.9/FacialAge/BNav_EC2/DepthDuration/v2_depth_duration_MTurk/v2_DepthDuration_HTML.html#102,102,1348,606,1366,768,8-29-2022,11-17-46,135,depth_duration_stimuli/002072_2014-06-24_21-48-06_260595134347_rgbf000115-resize_0/002072_2014-06-24_21-48-06_260595134347_rgbf000115-resize-original.jpg,125,4.702,6,2364,1,meters,jsons/VE125_randls_55.json,1214838,1441261,30,Man
135,126667,DepthScenes,duration_manipulation_targetAtFixation,jsons/VE125_randls_55.json,http://54.235.29.9/FacialAge/BNav_EC2/DepthDuration/v2_depth_duration_MTurk/v2_DepthDuration_HTML.html#102,102,1348,606,1366,768,8-29-2022,11-17-46,136,depth_duration_stimuli/002213_2014-06-28_18-37-58_260595134347_rgbf000055-resize_1/002213_2014-06-28_18-37-58_260595134347_rgbf000055-resize_1-target.png,125,3.62,8,2803,118,meters,jsons/VE125_randls_55.json,1214838,1441261,30,Man
136,126667,DepthScenes,duration_manipulation_targetAtFixation,jsons/VE125_randls_55.json,http://54.235.29.9/FacialAge/BNav_EC2/DepthDuration/v2_depth_duration_MTurk/v2_DepthDuration_HTML.html#102,102,1348,606,1366,768,8-29-2022,11-17-46,137,depth_duration_stimuli/000691_2014-06-08_13-08-50_260595134347_rgbf000132-resize_3/000691_2014-06-08_13-08-50_260595134347_rgbf000132-resize_3-target.png,125,4.1530000000000005,4,2917,99,meters,jsons/VE125_randls_55.json,1214838,1441261,30,Man
137,126667,DepthScenes,duration_manipulation_targetAtFixation,jsons/VE125_randls_55.json,http://54.235.29.9/FacialAge/BNav_EC2/DepthDuration/v2_depth_duration_MTurk/v2_DepthDuration_HTML.html#102,102,1348,606,1366,768,8-29-2022,11-17-46,138,depth_duration_stimuli/000929_2014-06-09_16-33-19_260595134347_rgbf000139-resize_0/000929_2014-06-09_16-33-19_260595134347_rgbf000139-resize_0-target.png,125,2.8680000000000003,5,3140,267,meters,jsons/VE125_randls_55.json,1214838,1441261,30,Man
138,126667,DepthScenes,duration_manipulation_targetAtFixation,jsons/VE125_randls_55.json,http://54.235.29.9/FacialAge/BNav_EC2/DepthDuration/v2_depth_duration_MTurk/v2_DepthDuration_HTML.html#102,102,1348,606,1366,768,8-29-2022,11-17-46,139,depth_duration_stimuli/000457_2014-06-08_16-52-43_260595134347_rgbf000199-resize_1/000457_2014-06-08_16-52-43_260595134347_rgbf000199-resize_1-target.png,125,3.6489999999999996,2,2938,173,meters,jsons/VE125_randls_55.json,1214838,1441261,30,Man
139,126667,DepthScenes,duration_manipulation_targetAtFixation,jsons/VE125_randls_55.json,http://54.235.29.9/FacialAge/BNav_EC2/DepthDuration/v2_depth_duration_MTurk/v2_DepthDuration_HTML.html#102,102,1348,606,1366,768,8-29-2022,11-17-46,140,depth_duration_stimuli/001158_2014-06-17_15-32-16_260595134347_rgbf000138-resize_2/001158_2014-06-17_15-32-16_260595134347_rgbf000138-resize_2-target.png,125,4.5315,6,2461,119,meters,jsons/VE125_randls_55.json,1214838,1441261,30,Man
140,126667,DepthScenes,duration_manipulation_targetAtFixation,jsons/VE125_randls_55.json,http://54.235.29.9/FacialAge/BNav_EC2/DepthDuration/v2_depth_duration_MTurk/v2_DepthDuration_HTML.html#102,102,1348,606,1366,768,8-29-2022,11-17-46,141,depth_duration_stimuli/000556_2014-06-09_22-42-56_260595134347_rgbf000214-resize_1/000556_2014-06-09_22-42-56_260595134347_rgbf000214-resize_1-target.png,125,4.8415,5,1943,48,meters,jsons/VE125_randls_55.json,1214838,1441261,30,Man
141,126667,DepthScenes,duration_manipulation_targetAtFixation,jsons/VE125_randls_55.json,http://54.235.29.9/FacialAge/BNav_EC2/DepthDuration/v2_depth_duration_MTurk/v2_DepthDuration_HTML.html#102,102,1348,606,1366,768,8-29-2022,11-17-46,142,depth_duration_stimuli/003621_2014-05-23_18-06-08_094959634447_rgbf000101-resize_1/003621_2014-05-23_18-06-08_094959634447_rgbf000101-resize_1-target.png,125,3.9835,4,1903,109,meters,jsons/VE125_randls_55.json,1214838,1441261,30,Man
142,126667,DepthScenes,duration_manipulation_targetAtFixation,jsons/VE125_randls_55.json,http://54.235.29.9/FacialAge/BNav_EC2/DepthDuration/v2_depth_duration_MTurk/v2_DepthDuration_HTML.html#102,102,1348,606,1366,768,8-29-2022,11-17-46,143,depth_duration_stimuli/001584_2014-06-20_11-07-43_260595134347_rgbf000002-resize_1/001584_2014-06-20_11-07-43_260595134347_rgbf000002-resize_1-target.png,125,3.53,5,3204,119,meters,jsons/VE125_randls_55.json,1214838,1441261,30,Man
143,126667,DepthScenes,duration_manipulation_targetAtFixation,jsons/VE125_randls_55.json,http://54.235.29.9/FacialAge/BNav_EC2/DepthDuration/v2_depth_duration_MTurk/v2_DepthDuration_HTML.html#102,102,1348,606,1366,768,8-29-2022,11-17-46,144,depth_duration_stimuli/002988_2014-06-15_12-24-20_094959634447_rgbf000150-resize_1/002988_2014-06-15_12-24-20_094959634447_rgbf000150-resize_1-target.png,125,4.7669999999999995,4,2620,125,meters,jsons/VE125_randls_55.json,1214838,1441261,30,Man
144,126667,DepthScenes,duration_manipulation_targetAtFixation,jsons/VE125_randls_55.json,http://54.235.29.9/FacialAge/BNav_EC2/DepthDuration/v2_depth_duration_MTurk/v2_DepthDuration_HTML.html#102,102,1348,606,1366,768,8-29-2022,11-17-46,145,depth_duration_stimuli/001052_2014-06-08_18-24-54_260595134347_rgbf000130-resize_1/001052_2014-06-08_18-24-54_260595134347_rgbf000130-resize_1-target.png,125,4.1045,2,1873,119,meters,jsons/VE125_randls_55.json,1214838,1441261,30,Man
145,126667,DepthScenes,duration_manipulation_targetAtFixation,jsons/VE125_randls_55.json,http://54.235.29.9/FacialAge/BNav_EC2/DepthDuration/v2_depth_duration_MTurk/v2_DepthDuration_HTML.html#102,102,1348,606,1366,768,8-29-2022,11-17-46,146,depth_duration_stimuli/001498_2014-06-19_17-45-14_260595134347_rgbf000129-resize_4/001498_2014-06-19_17-45-14_260595134347_rgbf000129-resize-original.jpg,125,1.4075,5,2473,123,meters,jsons/VE125_randls_55.json,1214838,1441261,30,Man
146,126667,DepthScenes,duration_manipulation_targetAtFixation,jsons/VE125_randls_55.json,http://54.235.29.9/FacialAge/BNav_EC2/DepthDuration/v2_depth_duration_MTurk/v2_DepthDuration_HTML.html#102,102,1348,606,1366,768,8-29-2022,11-17-46,147,depth_duration_stimuli/003070_2014-06-15_14-58-27_094959634447_rgbf000150-resize_3/003070_2014-06-15_14-58-27_094959634447_rgbf000150-resize_3-target.png,125,2.9415,4,45573,124,meters,jsons/VE125_randls_55.json,1214838,1441261,30,Man
147,126667,DepthScenes,duration_manipulation_targetAtFixation,jsons/VE125_randls_55.json,http://54.235.29.9/FacialAge/BNav_EC2/DepthDuration/v2_depth_duration_MTurk/v2_DepthDuration_HTML.html#102,102,1348,606,1366,768,8-29-2022,11-17-46,148,depth_duration_stimuli/000943_2014-06-09_19-31-07_260595134347_rgbf000128-resize_1/000943_2014-06-09_19-31-07_260595134347_rgbf000128-resize_1-target.png,125,1.9765,8,2116,55,meters,jsons/VE125_randls_55.json,1214838,1441261,30,Man
148,126667,DepthScenes,duration_manipulation_targetAtFixation,jsons/VE125_randls_55.json,http://54.235.29.9/FacialAge/BNav_EC2/DepthDuration/v2_depth_duration_MTurk/v2_DepthDuration_HTML.html#102,102,1348,606,1366,768,8-29-2022,11-17-46,149,depth_duration_stimuli/001056_2014-06-08_18-46-44_260595134347_rgbf000068-resize_0/001056_2014-06-08_18-46-44_260595134347_rgbf000068-resize_0-target.png,125,2.6625,5,1898,125,meters,jsons/VE125_randls_55.json,1214838,1441261,30,Man
149,126667,DepthScenes,duration_manipulation_targetAtFixation,jsons/VE125_randls_55.json,http://54.235.29.9/FacialAge/BNav_EC2/DepthDuration/v2_depth_duration_MTurk/v2_DepthDuration_HTML.html#102,102,1348,606,1366,768,8-29-2022,11-17-46,150,depth_duration_stimuli/002199_2014-06-28_18-33-56_260595134347_rgbf000074-resize_0/002199_2014-06-28_18-33-56_260595134347_rgbf000074-resize_0-target.png,125,1.996,4,1866,118,meters,jsons/VE125_randls_55.json,1214838,1441261,30,Man
150,126667,DepthScenes,duration_manipulation_targetAtFixation,jsons/VE125_randls_55.json,http://54.235.29.9/FacialAge/BNav_EC2/DepthDuration/v2_depth_duration_MTurk/v2_DepthDuration_HTML.html#102,102,1348,606,1366,768,8-29-2022,11-17-46,151,depth_duration_stimuli/002763_2014-06-22_19-13-10_094959634447_rgbf000075-resize_4/002763_2014-06-22_19-13-10_094959634447_rgbf000075-resize_4-target.png,125,1.68375,5,2019,117,meters,jsons/VE125_randls_55.json,1214838,1441261,30,Man
151,126667,DepthScenes,duration_manipulation_targetAtFixation,jsons/VE125_randls_55.json,http://54.235.29.9/FacialAge/BNav_EC2/DepthDuration/v2_depth_duration_MTurk/v2_DepthDuration_HTML.html#102,102,1348,606,1366,768,8-29-2022,11-17-46,152,depth_duration_stimuli/002209_2014-06-28_18-36-10_260595134347_rgbf000051-resize_1/002209_2014-06-28_18-36-10_260595134347_rgbf000051-resize_1-target.png,125,2.057,7,1816,123,meters,jsons/VE125_randls_55.json,1214838,1441261,30,Man
152,126667,DepthScenes,duration_manipulation_targetAtFixation,jsons/VE125_randls_55.json,http://54.235.29.9/FacialAge/BNav_EC2/DepthDuration/v2_depth_duration_MTurk/v2_DepthDuration_HTML.html#102,102,1348,606,1366,768,8-29-2022,11-17-46,153,depth_duration_stimuli/002279_2014-06-28_18-55-32_260595134347_rgbf000040-resize_5/002279_2014-06-28_18-55-32_260595134347_rgbf000040-resize_5-target.png,125,1.5043333333333,4,2145,123,meters,jsons/VE125_randls_55.json,1214838,1441261,30,Man
153,126667,DepthScenes,duration_manipulation_targetAtFixation,jsons/VE125_randls_55.json,http://54.235.29.9/FacialAge/BNav_EC2/DepthDuration/v2_depth_duration_MTurk/v2_DepthDuration_HTML.html#102,102,1348,606,1366,768,8-29-2022,11-17-46,154,depth_duration_stimuli/000635_2014-06-08_16-38-42_260595134347_rgbf000106-resize_1/000635_2014-06-08_16-38-42_260595134347_rgbf000106-resize_1-target.png,125,2.074,2,1870,118,meters,jsons/VE125_randls_55.json,1214838,1441261,30,Man
154,126667,DepthScenes,duration_manipulation_targetAtFixation,jsons/VE125_randls_55.json,http://54.235.29.9/FacialAge/BNav_EC2/DepthDuration/v2_depth_duration_MTurk/v2_DepthDuration_HTML.html#102,102,1348,606,1366,768,8-29-2022,11-17-46,155,depth_duration_stimuli/000522_2014-06-08_13-35-06_260595134347_rgbf000244-resize_1/000522_2014-06-08_13-35-06_260595134347_rgbf000244-resize_1-target.png,125,2.3715,5,2145,125,meters,jsons/VE125_randls_55.json,1214838,1441261,30,Man
155,126667,DepthScenes,duration_manipulation_targetAtFixation,jsons/VE125_randls_55.json,http://54.235.29.9/FacialAge/BNav_EC2/DepthDuration/v2_depth_duration_MTurk/v2_DepthDuration_HTML.html#102,102,1348,606,1366,768,8-29-2022,11-17-46,156,depth_duration_stimuli/002949_2014-06-26_15-57-42_094959634447_rgbf000079-resize_1/002949_2014-06-26_15-57-42_094959634447_rgbf000079-resize_1-target.png,125,1.8915,6,2176,17,meters,jsons/VE125_randls_55.json,1214838,1441261,30,Man
156,126667,DepthScenes,duration_manipulation_targetAtFixation,jsons/VE125_randls_55.json,http://54.235.29.9/FacialAge/BNav_EC2/DepthDuration/v2_depth_duration_MTurk/v2_DepthDuration_HTML.html#102,102,1348,606,1366,768,8-29-2022,11-17-46,157,depth_duration_stimuli/002989_2014-06-15_12-25-03_094959634447_rgbf000150-resize_3/002989_2014-06-15_12-25-03_094959634447_rgbf000150-resize_3-target.png,125,4.1975,1,1971,98,meters,jsons/VE125_randls_55.json,1214838,1441261,30,Man
157,126667,DepthScenes,duration_manipulation_targetAtFixation,jsons/VE125_randls_55.json,http://54.235.29.9/FacialAge/BNav_EC2/DepthDuration/v2_depth_duration_MTurk/v2_DepthDuration_HTML.html#102,102,1348,606,1366,768,8-29-2022,11-17-46,158,depth_duration_stimuli/000866_2014-06-09_20-45-42_260595134347_rgbf000139-resize_1/000866_2014-06-09_20-45-42_260595134347_rgbf000139-resize_1-target.png,125,3.2155,2,1943,106,meters,jsons/VE125_randls_55.json,1214838,1441261,30,Man
158,126667,DepthScenes,duration_manipulation_targetAtFixation,jsons/VE125_randls_55.json,http://54.235.29.9/FacialAge/BNav_EC2/DepthDuration/v2_depth_duration_MTurk/v2_DepthDuration_HTML.html#102,102,1348,606,1366,768,8-29-2022,11-17-46,159,depth_duration_stimuli/002905_2014-06-03_18-04-43_094959634447_rgbf000151-resize_2/002905_2014-06-03_18-04-43_094959634447_rgbf000151-resize_2-target.png,125,2.0295,4,1953,121,meters,jsons/VE125_randls_55.json,1214838,1441261,30,Man
159,126667,DepthScenes,duration_manipulation_targetAtFixation,jsons/VE125_randls_55.json,http://54.235.29.9/FacialAge/BNav_EC2/DepthDuration/v2_depth_duration_MTurk/v2_DepthDuration_HTML.html#102,102,1348,606,1366,768,8-29-2022,11-17-46,160,depth_duration_stimuli/003423_2014-05-21_10-23-26_094959634447_rgbf002665-resize_2/003423_2014-05-21_10-23-26_094959634447_rgbf002665-resize_2-target.png,125,3.2575,6,2336,124,meters,jsons/VE125_randls_55.json,1214838,1441261,30,Man
160,126667,DepthScenes,duration_manipulation_targetAtFixation,jsons/VE125_randls_55.json,http://54.235.29.9/FacialAge/BNav_EC2/DepthDuration/v2_depth_duration_MTurk/v2_DepthDuration_HTML.html#102,102,1348,606,1366,768,8-29-2022,11-17-46,161,depth_duration_stimuli/001059_2014-06-08_21-53-27_260595134347_rgbf000061-resize_4/001059_2014-06-08_21-53-27_260595134347_rgbf000061-resize_4-target.png,125,2.4185,5,1897,121,meters,jsons/VE125_randls_55.json,1214838,1441261,30,Man
161,126667,DepthScenes,duration_manipulation_targetAtFixation,jsons/VE125_randls_55.json,http://54.235.29.9/FacialAge/BNav_EC2/DepthDuration/v2_depth_duration_MTurk/v2_DepthDuration_HTML.html#102,102,1348,606,1366,768,8-29-2022,11-17-46,162,depth_duration_stimuli/001032_2014-06-08_13-23-17_260595134347_rgbf000021-resize_3/001032_2014-06-08_13-23-17_260595134347_rgbf000021-resize_3-target.png,125,3.2725,4,2073,115,meters,jsons/VE125_randls_55.json,1214838,1441261,30,Man
162,126667,DepthScenes,duration_manipulation_targetAtFixation,jsons/VE125_randls_55.json,http://54.235.29.9/FacialAge/BNav_EC2/DepthDuration/v2_depth_duration_MTurk/v2_DepthDuration_HTML.html#102,102,1348,606,1366,768,8-29-2022,11-17-46,163,depth_duration_stimuli/001029_2014-06-08_13-17-57_260595134347_rgbf000065-resize_1/001029_2014-06-08_13-17-57_260595134347_rgbf000065-resize_1-target.png,125,3.0835,2,2249,1,meters,jsons/VE125_randls_55.json,1214838,1441261,30,Man
163,126667,DepthScenes,duration_manipulation_targetAtFixation,jsons/VE125_randls_55.json,http://54.235.29.9/FacialAge/BNav_EC2/DepthDuration/v2_depth_duration_MTurk/v2_DepthDuration_HTML.html#102,102,1348,606,1366,768,8-29-2022,11-17-46,164,depth_duration_stimuli/000677_2014-06-08_23-10-32_260595134347_rgbf000158-resize_6/000677_2014-06-08_23-10-32_260595134347_rgbf000158-resize_6-target.png,125,3.556,3,1876,122,meters,jsons/VE125_randls_55.json,1214838,1441261,30,Man
