,subjID,experimentName,versionName,sequenceName,url,selected_row,windowWidth,windowHeight,screenWidth,screenHeight,startDate,startTime,trial,stimulus,duration,actual_depth,depth_estimate,trial_RT,log_sceneDuration,unitSelection,seq_filepath,experimentTime,totalTime,age,gender
0,127930,DepthScenes,duration_manipulation_targetAtFixation,jsons/v1_VE250_randls_12_rotated.json,http://54.235.29.9/FacialAge/BNav_EC2/DepthDuration/v2_depth_duration_MTurk/v2_DepthDuration_HTML.html#20,20,1440,789,1440,900,8-20-2022,10-57-38,1,depth_duration_stimuli/001235_2014-06-17_16-37-36_260595134347_rgbf000084-resize_4/001235_2014-06-17_16-37-36_260595134347_rgbf000084-resize_4-target.png,250,3.6605,25,3089,250,meters,jsons/v1_VE250_randls_12_rotated.json,493461,767316,44,Woman
1,127930,DepthScenes,duration_manipulation_targetAtFixation,jsons/v1_VE250_randls_12_rotated.json,http://54.235.29.9/FacialAge/BNav_EC2/DepthDuration/v2_depth_duration_MTurk/v2_DepthDuration_HTML.html#20,20,1440,789,1440,900,8-20-2022,10-57-38,2,depth_duration_stimuli/000788_2014-06-08_22-34-36_260595134347_rgbf000131-resize_1/000788_2014-06-08_22-34-36_260595134347_rgbf000131-resize_1-target.png,250,3.359,30,2795,251,meters,jsons/v1_VE250_randls_12_rotated.json,493461,767316,44,Woman
2,127930,DepthScenes,duration_manipulation_targetAtFixation,jsons/v1_VE250_randls_12_rotated.json,http://54.235.29.9/FacialAge/BNav_EC2/DepthDuration/v2_depth_duration_MTurk/v2_DepthDuration_HTML.html#20,20,1440,789,1440,900,8-20-2022,10-57-38,3,depth_duration_stimuli/000927_2014-06-09_16-32-30_260595134347_rgbf000123-resize_3/000927_2014-06-09_16-32-30_260595134347_rgbf000123-resize_3-target.png,250,2.6785,15,2643,251,meters,jsons/v1_VE250_randls_12_rotated.json,493461,767316,44,Woman
3,127930,DepthScenes,duration_manipulation_targetAtFixation,jsons/v1_VE250_randls_12_rotated.json,http://54.235.29.9/FacialAge/BNav_EC2/DepthDuration/v2_depth_duration_MTurk/v2_DepthDuration_HTML.html#20,20,1440,789,1440,900,8-20-2022,10-57-38,4,depth_duration_stimuli/001110_2014-06-15_17-25-28_260595134347_rgbf000150-resize_1/001110_2014-06-15_17-25-28_260595134347_rgbf000150-resize_1-target.png,250,1.7115,15,2497,249,meters,jsons/v1_VE250_randls_12_rotated.json,493461,767316,44,Woman
4,127930,DepthScenes,duration_manipulation_targetAtFixation,jsons/v1_VE250_randls_12_rotated.json,http://54.235.29.9/FacialAge/BNav_EC2/DepthDuration/v2_depth_duration_MTurk/v2_DepthDuration_HTML.html#20,20,1440,789,1440,900,8-20-2022,10-57-38,5,depth_duration_stimuli/000483_2014-06-09_20-41-45_260595134347_rgbf000116-resize_4/000483_2014-06-09_20-41-45_260595134347_rgbf000116-resize_4-target.png,250,1.337,25,2762,250,meters,jsons/v1_VE250_randls_12_rotated.json,493461,767316,44,Woman
5,127930,DepthScenes,duration_manipulation_targetAtFixation,jsons/v1_VE250_randls_12_rotated.json,http://54.235.29.9/FacialAge/BNav_EC2/DepthDuration/v2_depth_duration_MTurk/v2_DepthDuration_HTML.html#20,20,1440,789,1440,900,8-20-2022,10-57-38,6,depth_duration_stimuli/000469_2014-06-09_19-42-10_260595134347_rgbf000081-resize_1/000469_2014-06-09_19-42-10_260595134347_rgbf000081-resize_1-target.png,250,1.652,5,3178,250,meters,jsons/v1_VE250_randls_12_rotated.json,493461,767316,44,Woman
6,127930,DepthScenes,duration_manipulation_targetAtFixation,jsons/v1_VE250_randls_12_rotated.json,http://54.235.29.9/FacialAge/BNav_EC2/DepthDuration/v2_depth_duration_MTurk/v2_DepthDuration_HTML.html#20,20,1440,789,1440,900,8-20-2022,10-57-38,7,depth_duration_stimuli/001815_2014-06-26_20-52-55_260595134347_rgbf000020-resize_0/001815_2014-06-26_20-52-55_260595134347_rgbf000020-resize_0-target.png,250,3.3865,30,2635,249,meters,jsons/v1_VE250_randls_12_rotated.json,493461,767316,44,Woman
7,127930,DepthScenes,duration_manipulation_targetAtFixation,jsons/v1_VE250_randls_12_rotated.json,http://54.235.29.9/FacialAge/BNav_EC2/DepthDuration/v2_depth_duration_MTurk/v2_DepthDuration_HTML.html#20,20,1440,789,1440,900,8-20-2022,10-57-38,8,depth_duration_stimuli/001808_2014-06-26_20-50-58_260595134347_rgbf000029-resize_1/001808_2014-06-26_20-50-58_260595134347_rgbf000029-resize_1-target.png,250,4.249,40,3521,248,meters,jsons/v1_VE250_randls_12_rotated.json,493461,767316,44,Woman
8,127930,DepthScenes,duration_manipulation_targetAtFixation,jsons/v1_VE250_randls_12_rotated.json,http://54.235.29.9/FacialAge/BNav_EC2/DepthDuration/v2_depth_duration_MTurk/v2_DepthDuration_HTML.html#20,20,1440,789,1440,900,8-20-2022,10-57-38,9,depth_duration_stimuli/000734_2014-06-08_17-39-11_260595134347_rgbf000128-resize_2/000734_2014-06-08_17-39-11_260595134347_rgbf000128-resize_2-target.png,250,4.098,55,2995,250,meters,jsons/v1_VE250_randls_12_rotated.json,493461,767316,44,Woman
9,127930,DepthScenes,duration_manipulation_targetAtFixation,jsons/v1_VE250_randls_12_rotated.json,http://54.235.29.9/FacialAge/BNav_EC2/DepthDuration/v2_depth_duration_MTurk/v2_DepthDuration_HTML.html#20,20,1440,789,1440,900,8-20-2022,10-57-38,10,depth_duration_stimuli/000739_2014-06-08_18-45-58_260595134347_rgbf000068-resize_1/000739_2014-06-08_18-45-58_260595134347_rgbf000068-resize_1-target.png,250,3.534,56,2682,251,meters,jsons/v1_VE250_randls_12_rotated.json,493461,767316,44,Woman
10,127930,DepthScenes,duration_manipulation_targetAtFixation,jsons/v1_VE250_randls_12_rotated.json,http://54.235.29.9/FacialAge/BNav_EC2/DepthDuration/v2_depth_duration_MTurk/v2_DepthDuration_HTML.html#20,20,1440,789,1440,900,8-20-2022,10-57-38,11,depth_duration_stimuli/001032_2014-06-08_13-23-17_260595134347_rgbf000021-resize_3/001032_2014-06-08_13-23-17_260595134347_rgbf000021-resize_3-target.png,250,3.2725,25,2620,251,meters,jsons/v1_VE250_randls_12_rotated.json,493461,767316,44,Woman
11,127930,DepthScenes,duration_manipulation_targetAtFixation,jsons/v1_VE250_randls_12_rotated.json,http://54.235.29.9/FacialAge/BNav_EC2/DepthDuration/v2_depth_duration_MTurk/v2_DepthDuration_HTML.html#20,20,1440,789,1440,900,8-20-2022,10-57-38,12,depth_duration_stimuli/001059_2014-06-08_21-53-27_260595134347_rgbf000061-resize_4/001059_2014-06-08_21-53-27_260595134347_rgbf000061-resize_4-target.png,250,2.4185,185,2418,251,meters,jsons/v1_VE250_randls_12_rotated.json,493461,767316,44,Woman
12,127930,DepthScenes,duration_manipulation_targetAtFixation,jsons/v1_VE250_randls_12_rotated.json,http://54.235.29.9/FacialAge/BNav_EC2/DepthDuration/v2_depth_duration_MTurk/v2_DepthDuration_HTML.html#20,20,1440,789,1440,900,8-20-2022,10-57-38,13,depth_duration_stimuli/001447_2014-06-19_17-00-32_260595134347_rgbf000082-resize_5/001447_2014-06-19_17-00-32_260595134347_rgbf000082-resize_5-target.png,250,4.13775,15,2555,250,meters,jsons/v1_VE250_randls_12_rotated.json,493461,767316,44,Woman
13,127930,DepthScenes,duration_manipulation_targetAtFixation,jsons/v1_VE250_randls_12_rotated.json,http://54.235.29.9/FacialAge/BNav_EC2/DepthDuration/v2_depth_duration_MTurk/v2_DepthDuration_HTML.html#20,20,1440,789,1440,900,8-20-2022,10-57-38,14,depth_duration_stimuli/000447_2014-06-08_16-15-46_260595134347_rgbf000130-resize_1/000447_2014-06-08_16-15-46_260595134347_rgbf000130-resize_1-target.png,250,4.479,115,2675,250,meters,jsons/v1_VE250_randls_12_rotated.json,493461,767316,44,Woman
14,127930,DepthScenes,duration_manipulation_targetAtFixation,jsons/v1_VE250_randls_12_rotated.json,http://54.235.29.9/FacialAge/BNav_EC2/DepthDuration/v2_depth_duration_MTurk/v2_DepthDuration_HTML.html#20,20,1440,789,1440,900,8-20-2022,10-57-38,15,depth_duration_stimuli/000556_2014-06-09_22-42-56_260595134347_rgbf000214-resize_1/000556_2014-06-09_22-42-56_260595134347_rgbf000214-resize_1-target.png,250,4.8415,10,2499,251,meters,jsons/v1_VE250_randls_12_rotated.json,493461,767316,44,Woman
15,127930,DepthScenes,duration_manipulation_targetAtFixation,jsons/v1_VE250_randls_12_rotated.json,http://54.235.29.9/FacialAge/BNav_EC2/DepthDuration/v2_depth_duration_MTurk/v2_DepthDuration_HTML.html#20,20,1440,789,1440,900,8-20-2022,10-57-38,16,depth_duration_stimuli/001158_2014-06-17_15-32-16_260595134347_rgbf000138-resize_2/001158_2014-06-17_15-32-16_260595134347_rgbf000138-resize_2-target.png,250,4.5315,14,2746,251,meters,jsons/v1_VE250_randls_12_rotated.json,493461,767316,44,Woman
16,127930,DepthScenes,duration_manipulation_targetAtFixation,jsons/v1_VE250_randls_12_rotated.json,http://54.235.29.9/FacialAge/BNav_EC2/DepthDuration/v2_depth_duration_MTurk/v2_DepthDuration_HTML.html#20,20,1440,789,1440,900,8-20-2022,10-57-38,17,depth_duration_stimuli/000457_2014-06-08_16-52-43_260595134347_rgbf000199-resize_1/000457_2014-06-08_16-52-43_260595134347_rgbf000199-resize_1-target.png,250,3.6489999999999996,10,2505,250,meters,jsons/v1_VE250_randls_12_rotated.json,493461,767316,44,Woman
17,127930,DepthScenes,duration_manipulation_targetAtFixation,jsons/v1_VE250_randls_12_rotated.json,http://54.235.29.9/FacialAge/BNav_EC2/DepthDuration/v2_depth_duration_MTurk/v2_DepthDuration_HTML.html#20,20,1440,789,1440,900,8-20-2022,10-57-38,18,depth_duration_stimuli/000929_2014-06-09_16-33-19_260595134347_rgbf000139-resize_0/000929_2014-06-09_16-33-19_260595134347_rgbf000139-resize_0-target.png,250,2.8680000000000003,20,2501,249,meters,jsons/v1_VE250_randls_12_rotated.json,493461,767316,44,Woman
18,127930,DepthScenes,duration_manipulation_targetAtFixation,jsons/v1_VE250_randls_12_rotated.json,http://54.235.29.9/FacialAge/BNav_EC2/DepthDuration/v2_depth_duration_MTurk/v2_DepthDuration_HTML.html#20,20,1440,789,1440,900,8-20-2022,10-57-38,19,depth_duration_stimuli/001498_2014-06-19_17-45-14_260595134347_rgbf000129-resize_4/001498_2014-06-19_17-45-14_260595134347_rgbf000129-resize-original.jpg,250,1.4075,0,2666,251,meters,jsons/v1_VE250_randls_12_rotated.json,493461,767316,44,Woman
19,127930,DepthScenes,duration_manipulation_targetAtFixation,jsons/v1_VE250_randls_12_rotated.json,http://54.235.29.9/FacialAge/BNav_EC2/DepthDuration/v2_depth_duration_MTurk/v2_DepthDuration_HTML.html#20,20,1440,789,1440,900,8-20-2022,10-57-38,20,depth_duration_stimuli/002425_2014-06-28_20-27-29_260595134347_rgbf000031-resize_8/002425_2014-06-28_20-27-29_260595134347_rgbf000031-resize_8-target.png,250,3.8960000000000004,15,2580,251,meters,jsons/v1_VE250_randls_12_rotated.json,493461,767316,44,Woman
20,127930,DepthScenes,duration_manipulation_targetAtFixation,jsons/v1_VE250_randls_12_rotated.json,http://54.235.29.9/FacialAge/BNav_EC2/DepthDuration/v2_depth_duration_MTurk/v2_DepthDuration_HTML.html#20,20,1440,789,1440,900,8-20-2022,10-57-38,21,depth_duration_stimuli/000642_2014-06-08_16-59-25_260595134347_rgbf000098-resize_2/000642_2014-06-08_16-59-25_260595134347_rgbf000098-resize_2-target.png,250,2.8815,14,2539,251,meters,jsons/v1_VE250_randls_12_rotated.json,493461,767316,44,Woman
21,127930,DepthScenes,duration_manipulation_targetAtFixation,jsons/v1_VE250_randls_12_rotated.json,http://54.235.29.9/FacialAge/BNav_EC2/DepthDuration/v2_depth_duration_MTurk/v2_DepthDuration_HTML.html#20,20,1440,789,1440,900,8-20-2022,10-57-38,22,depth_duration_stimuli/000780_2014-06-08_22-28-29_260595134347_rgbf000126-resize_1/000780_2014-06-08_22-28-29_260595134347_rgbf000126-resize_1-target.png,250,3.3825,11,2394,250,meters,jsons/v1_VE250_randls_12_rotated.json,493461,767316,44,Woman
22,127930,DepthScenes,duration_manipulation_targetAtFixation,jsons/v1_VE250_randls_12_rotated.json,http://54.235.29.9/FacialAge/BNav_EC2/DepthDuration/v2_depth_duration_MTurk/v2_DepthDuration_HTML.html#20,20,1440,789,1440,900,8-20-2022,10-57-38,23,depth_duration_stimuli/002445_2014-06-28_20-32-16_260595134347_rgbf000029-resize_4/002445_2014-06-28_20-32-16_260595134347_rgbf000029-resize_4-target.png,250,2.5315,10,2319,238,meters,jsons/v1_VE250_randls_12_rotated.json,493461,767316,44,Woman
23,127930,DepthScenes,duration_manipulation_targetAtFixation,jsons/v1_VE250_randls_12_rotated.json,http://54.235.29.9/FacialAge/BNav_EC2/DepthDuration/v2_depth_duration_MTurk/v2_DepthDuration_HTML.html#20,20,1440,789,1440,900,8-20-2022,10-57-38,24,depth_duration_stimuli/001571_2014-06-20_17-21-32_260595134347_rgbf000089-resize_1/001571_2014-06-20_17-21-32_260595134347_rgbf000089-resize_1-target.png,250,1.86,20,2466,249,meters,jsons/v1_VE250_randls_12_rotated.json,493461,767316,44,Woman
24,127930,DepthScenes,duration_manipulation_targetAtFixation,jsons/v1_VE250_randls_12_rotated.json,http://54.235.29.9/FacialAge/BNav_EC2/DepthDuration/v2_depth_duration_MTurk/v2_DepthDuration_HTML.html#20,20,1440,789,1440,900,8-20-2022,10-57-38,25,depth_duration_stimuli/002272_2014-06-28_18-53-56_260595134347_rgbf000067-resize_2/002272_2014-06-28_18-53-56_260595134347_rgbf000067-resize_2-target.png,250,1.138,25,2473,250,meters,jsons/v1_VE250_randls_12_rotated.json,493461,767316,44,Woman
25,127930,DepthScenes,duration_manipulation_targetAtFixation,jsons/v1_VE250_randls_12_rotated.json,http://54.235.29.9/FacialAge/BNav_EC2/DepthDuration/v2_depth_duration_MTurk/v2_DepthDuration_HTML.html#20,20,1440,789,1440,900,8-20-2022,10-57-38,26,depth_duration_stimuli/000502_2014-06-08_23-02-32_260595134347_rgbf000063-resize_4/000502_2014-06-08_23-02-32_260595134347_rgbf000063-resize_4-target.png,250,2.431,30,2402,250,meters,jsons/v1_VE250_randls_12_rotated.json,493461,767316,44,Woman
26,127930,DepthScenes,duration_manipulation_targetAtFixation,jsons/v1_VE250_randls_12_rotated.json,http://54.235.29.9/FacialAge/BNav_EC2/DepthDuration/v2_depth_duration_MTurk/v2_DepthDuration_HTML.html#20,20,1440,789,1440,900,8-20-2022,10-57-38,27,depth_duration_stimuli/001199_2014-06-17_16-03-48_260595134347_rgbf000077-resize_0/001199_2014-06-17_16-03-48_260595134347_rgbf000077-resize_0-target.png,250,3.4375,47,2867,249,meters,jsons/v1_VE250_randls_12_rotated.json,493461,767316,44,Woman
27,127930,DepthScenes,duration_manipulation_targetAtFixation,jsons/v1_VE250_randls_12_rotated.json,http://54.235.29.9/FacialAge/BNav_EC2/DepthDuration/v2_depth_duration_MTurk/v2_DepthDuration_HTML.html#20,20,1440,789,1440,900,8-20-2022,10-57-38,28,depth_duration_stimuli/000943_2014-06-09_19-31-07_260595134347_rgbf000128-resize_1/000943_2014-06-09_19-31-07_260595134347_rgbf000128-resize_1-target.png,250,1.9765,55,2530,249,meters,jsons/v1_VE250_randls_12_rotated.json,493461,767316,44,Woman
28,127930,DepthScenes,duration_manipulation_targetAtFixation,jsons/v1_VE250_randls_12_rotated.json,http://54.235.29.9/FacialAge/BNav_EC2/DepthDuration/v2_depth_duration_MTurk/v2_DepthDuration_HTML.html#20,20,1440,789,1440,900,8-20-2022,10-57-38,29,depth_duration_stimuli/003070_2014-06-15_14-58-27_094959634447_rgbf000150-resize_3/003070_2014-06-15_14-58-27_094959634447_rgbf000150-resize_3-target.png,250,2.9415,52,2379,250,meters,jsons/v1_VE250_randls_12_rotated.json,493461,767316,44,Woman
29,127930,DepthScenes,duration_manipulation_targetAtFixation,jsons/v1_VE250_randls_12_rotated.json,http://54.235.29.9/FacialAge/BNav_EC2/DepthDuration/v2_depth_duration_MTurk/v2_DepthDuration_HTML.html#20,20,1440,789,1440,900,8-20-2022,10-57-38,30,depth_duration_stimuli/002072_2014-06-24_21-48-06_260595134347_rgbf000115-resize_0/002072_2014-06-24_21-48-06_260595134347_rgbf000115-resize-original.jpg,250,4.702,0,2132,250,meters,jsons/v1_VE250_randls_12_rotated.json,493461,767316,44,Woman
30,127930,DepthScenes,duration_manipulation_targetAtFixation,jsons/v1_VE250_randls_12_rotated.json,http://54.235.29.9/FacialAge/BNav_EC2/DepthDuration/v2_depth_duration_MTurk/v2_DepthDuration_HTML.html#20,20,1440,789,1440,900,8-20-2022,10-57-38,31,depth_duration_stimuli/001828_2014-06-26_21-40-03_260595134347_rgbf000024-resize_0/001828_2014-06-26_21-40-03_260595134347_rgbf000024-resize_0-target.png,250,4.8260000000000005,36,2779,250,meters,jsons/v1_VE250_randls_12_rotated.json,493461,767316,44,Woman
31,127930,DepthScenes,duration_manipulation_targetAtFixation,jsons/v1_VE250_randls_12_rotated.json,http://54.235.29.9/FacialAge/BNav_EC2/DepthDuration/v2_depth_duration_MTurk/v2_DepthDuration_HTML.html#20,20,1440,789,1440,900,8-20-2022,10-57-38,32,depth_duration_stimuli/000009_2014-05-26_14-32-05_260595134347_rgbf000034-resize_3/000009_2014-05-26_14-32-05_260595134347_rgbf000034-resize_3-target.png,250,3.8715,15,2427,250,meters,jsons/v1_VE250_randls_12_rotated.json,493461,767316,44,Woman
32,127930,DepthScenes,duration_manipulation_targetAtFixation,jsons/v1_VE250_randls_12_rotated.json,http://54.235.29.9/FacialAge/BNav_EC2/DepthDuration/v2_depth_duration_MTurk/v2_DepthDuration_HTML.html#20,20,1440,789,1440,900,8-20-2022,10-57-38,33,depth_duration_stimuli/003228_2014-05-14_13-42-35_094959634447_rgbf000101-resize_1/003228_2014-05-14_13-42-35_094959634447_rgbf000101-resize_1-target.png,250,1.9680000000000002,10,2259,250,meters,jsons/v1_VE250_randls_12_rotated.json,493461,767316,44,Woman
33,127930,DepthScenes,duration_manipulation_targetAtFixation,jsons/v1_VE250_randls_12_rotated.json,http://54.235.29.9/FacialAge/BNav_EC2/DepthDuration/v2_depth_duration_MTurk/v2_DepthDuration_HTML.html#20,20,1440,789,1440,900,8-20-2022,10-57-38,34,depth_duration_stimuli/002600_2014-06-24_14-27-04_094959634447_rgbf000074-resize_2/002600_2014-06-24_14-27-04_094959634447_rgbf000074-resize_2-target.png,250,2.7575,15,2410,249,meters,jsons/v1_VE250_randls_12_rotated.json,493461,767316,44,Woman
34,127930,DepthScenes,duration_manipulation_targetAtFixation,jsons/v1_VE250_randls_12_rotated.json,http://54.235.29.9/FacialAge/BNav_EC2/DepthDuration/v2_depth_duration_MTurk/v2_DepthDuration_HTML.html#20,20,1440,789,1440,900,8-20-2022,10-57-38,35,depth_duration_stimuli/002949_2014-06-26_15-57-42_094959634447_rgbf000079-resize_1/002949_2014-06-26_15-57-42_094959634447_rgbf000079-resize_1-target.png,250,1.8915,12,2419,250,meters,jsons/v1_VE250_randls_12_rotated.json,493461,767316,44,Woman
35,127930,DepthScenes,duration_manipulation_targetAtFixation,jsons/v1_VE250_randls_12_rotated.json,http://54.235.29.9/FacialAge/BNav_EC2/DepthDuration/v2_depth_duration_MTurk/v2_DepthDuration_HTML.html#20,20,1440,789,1440,900,8-20-2022,10-57-38,36,depth_duration_stimuli/000522_2014-06-08_13-35-06_260595134347_rgbf000244-resize_1/000522_2014-06-08_13-35-06_260595134347_rgbf000244-resize_1-target.png,250,2.3715,12,2460,251,meters,jsons/v1_VE250_randls_12_rotated.json,493461,767316,44,Woman
36,127930,DepthScenes,duration_manipulation_targetAtFixation,jsons/v1_VE250_randls_12_rotated.json,http://54.235.29.9/FacialAge/BNav_EC2/DepthDuration/v2_depth_duration_MTurk/v2_DepthDuration_HTML.html#20,20,1440,789,1440,900,8-20-2022,10-57-38,37,depth_duration_stimuli/001584_2014-06-20_11-07-43_260595134347_rgbf000002-resize_1/001584_2014-06-20_11-07-43_260595134347_rgbf000002-resize_1-target.png,250,3.53,13,2579,250,meters,jsons/v1_VE250_randls_12_rotated.json,493461,767316,44,Woman
37,127930,DepthScenes,duration_manipulation_targetAtFixation,jsons/v1_VE250_randls_12_rotated.json,http://54.235.29.9/FacialAge/BNav_EC2/DepthDuration/v2_depth_duration_MTurk/v2_DepthDuration_HTML.html#20,20,1440,789,1440,900,8-20-2022,10-57-38,38,depth_duration_stimuli/003621_2014-05-23_18-06-08_094959634447_rgbf000101-resize_1/003621_2014-05-23_18-06-08_094959634447_rgbf000101-resize_1-target.png,250,3.9835,14,2428,250,meters,jsons/v1_VE250_randls_12_rotated.json,493461,767316,44,Woman
38,127930,DepthScenes,duration_manipulation_targetAtFixation,jsons/v1_VE250_randls_12_rotated.json,http://54.235.29.9/FacialAge/BNav_EC2/DepthDuration/v2_depth_duration_MTurk/v2_DepthDuration_HTML.html#20,20,1440,789,1440,900,8-20-2022,10-57-38,39,depth_duration_stimuli/001132_2014-06-17_14-48-54_260595134347_rgbf000100-resize_2/001132_2014-06-17_14-48-54_260595134347_rgbf000100-resize_2-target.png,250,3.753,15,2356,250,meters,jsons/v1_VE250_randls_12_rotated.json,493461,767316,44,Woman
39,127930,DepthScenes,duration_manipulation_targetAtFixation,jsons/v1_VE250_randls_12_rotated.json,http://54.235.29.9/FacialAge/BNav_EC2/DepthDuration/v2_depth_duration_MTurk/v2_DepthDuration_HTML.html#20,20,1440,789,1440,900,8-20-2022,10-57-38,40,depth_duration_stimuli/001133_2014-06-17_14-49-16_260595134347_rgbf000100-resize_0/001133_2014-06-17_14-49-16_260595134347_rgbf000100-resize_0-target.png,250,4.2115,14,2386,250,meters,jsons/v1_VE250_randls_12_rotated.json,493461,767316,44,Woman
40,127930,DepthScenes,duration_manipulation_targetAtFixation,jsons/v1_VE250_randls_12_rotated.json,http://54.235.29.9/FacialAge/BNav_EC2/DepthDuration/v2_depth_duration_MTurk/v2_DepthDuration_HTML.html#20,20,1440,789,1440,900,8-20-2022,10-57-38,41,depth_duration_stimuli/003490_2014-05-21_15-50-11_094959634447_rgbf000101-resize_3/003490_2014-05-21_15-50-11_094959634447_rgbf000101-resize_3-target.png,250,3.6445,25,2332,251,meters,jsons/v1_VE250_randls_12_rotated.json,493461,767316,44,Woman
41,127930,DepthScenes,duration_manipulation_targetAtFixation,jsons/v1_VE250_randls_12_rotated.json,http://54.235.29.9/FacialAge/BNav_EC2/DepthDuration/v2_depth_duration_MTurk/v2_DepthDuration_HTML.html#20,20,1440,789,1440,900,8-20-2022,10-57-38,42,depth_duration_stimuli/001175_2014-06-17_15-45-55_260595134347_rgbf000129-resize_4/001175_2014-06-17_15-45-55_260595134347_rgbf000129-resize_4-target.png,250,4.255,28,2378,249,meters,jsons/v1_VE250_randls_12_rotated.json,493461,767316,44,Woman
42,127930,DepthScenes,duration_manipulation_targetAtFixation,jsons/v1_VE250_randls_12_rotated.json,http://54.235.29.9/FacialAge/BNav_EC2/DepthDuration/v2_depth_duration_MTurk/v2_DepthDuration_HTML.html#20,20,1440,789,1440,900,8-20-2022,10-57-38,43,depth_duration_stimuli/001516_2014-06-20_16-25-09_260595134347_rgbf000076-resize_2/001516_2014-06-20_16-25-09_260595134347_rgbf000076-resize_2-target.png,250,1.7445,55,2596,250,meters,jsons/v1_VE250_randls_12_rotated.json,493461,767316,44,Woman
43,127930,DepthScenes,duration_manipulation_targetAtFixation,jsons/v1_VE250_randls_12_rotated.json,http://54.235.29.9/FacialAge/BNav_EC2/DepthDuration/v2_depth_duration_MTurk/v2_DepthDuration_HTML.html#20,20,1440,789,1440,900,8-20-2022,10-57-38,44,depth_duration_stimuli/002118_2014-06-25_20-32-08_260595134347_rgbf000078-resize_1/002118_2014-06-25_20-32-08_260595134347_rgbf000078-resize_1-target.png,250,2.6460000000000004,26,2548,250,meters,jsons/v1_VE250_randls_12_rotated.json,493461,767316,44,Woman
44,127930,DepthScenes,duration_manipulation_targetAtFixation,jsons/v1_VE250_randls_12_rotated.json,http://54.235.29.9/FacialAge/BNav_EC2/DepthDuration/v2_depth_duration_MTurk/v2_DepthDuration_HTML.html#20,20,1440,789,1440,900,8-20-2022,10-57-38,45,depth_duration_stimuli/002758_2014-06-22_19-11-20_094959634447_rgbf000128-resize_1/002758_2014-06-22_19-11-20_094959634447_rgbf000128-resize_1-target.png,250,2.555,14,2498,250,meters,jsons/v1_VE250_randls_12_rotated.json,493461,767316,44,Woman
45,127930,DepthScenes,duration_manipulation_targetAtFixation,jsons/v1_VE250_randls_12_rotated.json,http://54.235.29.9/FacialAge/BNav_EC2/DepthDuration/v2_depth_duration_MTurk/v2_DepthDuration_HTML.html#20,20,1440,789,1440,900,8-20-2022,10-57-38,46,depth_duration_stimuli/002630_2014-06-24_14-47-50_094959634447_rgbf000055-resize_1/002630_2014-06-24_14-47-50_094959634447_rgbf000055-resize_1-target.png,250,3.0095,75,3331,249,meters,jsons/v1_VE250_randls_12_rotated.json,493461,767316,44,Woman
46,127930,DepthScenes,duration_manipulation_targetAtFixation,jsons/v1_VE250_randls_12_rotated.json,http://54.235.29.9/FacialAge/BNav_EC2/DepthDuration/v2_depth_duration_MTurk/v2_DepthDuration_HTML.html#20,20,1440,789,1440,900,8-20-2022,10-57-38,47,depth_duration_stimuli/000137_2014-05-20_17-04-49_260595134347_rgbf000120-resize_1/000137_2014-05-20_17-04-49_260595134347_rgbf000120-resize_1-target.png,250,3.786,25,2377,249,meters,jsons/v1_VE250_randls_12_rotated.json,493461,767316,44,Woman
47,127930,DepthScenes,duration_manipulation_targetAtFixation,jsons/v1_VE250_randls_12_rotated.json,http://54.235.29.9/FacialAge/BNav_EC2/DepthDuration/v2_depth_duration_MTurk/v2_DepthDuration_HTML.html#20,20,1440,789,1440,900,8-20-2022,10-57-38,48,depth_duration_stimuli/000736_2014-06-08_18-24-15_260595134347_rgbf000206-resize_3/000736_2014-06-08_18-24-15_260595134347_rgbf000206-resize_3-target.png,250,3.515,35,2418,250,meters,jsons/v1_VE250_randls_12_rotated.json,493461,767316,44,Woman
48,127930,DepthScenes,duration_manipulation_targetAtFixation,jsons/v1_VE250_randls_12_rotated.json,http://54.235.29.9/FacialAge/BNav_EC2/DepthDuration/v2_depth_duration_MTurk/v2_DepthDuration_HTML.html#20,20,1440,789,1440,900,8-20-2022,10-57-38,49,depth_duration_stimuli/001170_2014-06-17_15-43-44_260595134347_rgbf000096-resize_6/001170_2014-06-17_15-43-44_260595134347_rgbf000096-resize-original.jpg,250,1.1909999999999998,0,2250,248,meters,jsons/v1_VE250_randls_12_rotated.json,493461,767316,44,Woman
49,127930,DepthScenes,duration_manipulation_targetAtFixation,jsons/v1_VE250_randls_12_rotated.json,http://54.235.29.9/FacialAge/BNav_EC2/DepthDuration/v2_depth_duration_MTurk/v2_DepthDuration_HTML.html#20,20,1440,789,1440,900,8-20-2022,10-57-38,50,depth_duration_stimuli/003338_2014-05-20_11-01-23_094959634447_rgbf000051-resize_6/003338_2014-05-20_11-01-23_094959634447_rgbf000051-resize_6-target.png,250,1.693,15,2426,250,meters,jsons/v1_VE250_randls_12_rotated.json,493461,767316,44,Woman
50,127930,DepthScenes,duration_manipulation_targetAtFixation,jsons/v1_VE250_randls_12_rotated.json,http://54.235.29.9/FacialAge/BNav_EC2/DepthDuration/v2_depth_duration_MTurk/v2_DepthDuration_HTML.html#20,20,1440,789,1440,900,8-20-2022,10-57-38,51,depth_duration_stimuli/002509_2014-06-24_13-19-22_094959634447_rgbf000077-resize_0/002509_2014-06-24_13-19-22_094959634447_rgbf000077-resize_0-target.png,250,1.3065,35,2410,251,meters,jsons/v1_VE250_randls_12_rotated.json,493461,767316,44,Woman
51,127930,DepthScenes,duration_manipulation_targetAtFixation,jsons/v1_VE250_randls_12_rotated.json,http://54.235.29.9/FacialAge/BNav_EC2/DepthDuration/v2_depth_duration_MTurk/v2_DepthDuration_HTML.html#20,20,1440,789,1440,900,8-20-2022,10-57-38,52,depth_duration_stimuli/003423_2014-05-21_10-23-26_094959634447_rgbf002665-resize_2/003423_2014-05-21_10-23-26_094959634447_rgbf002665-resize_2-target.png,250,3.2575,35,3074,250,meters,jsons/v1_VE250_randls_12_rotated.json,493461,767316,44,Woman
52,127930,DepthScenes,duration_manipulation_targetAtFixation,jsons/v1_VE250_randls_12_rotated.json,http://54.235.29.9/FacialAge/BNav_EC2/DepthDuration/v2_depth_duration_MTurk/v2_DepthDuration_HTML.html#20,20,1440,789,1440,900,8-20-2022,10-57-38,53,depth_duration_stimuli/002905_2014-06-03_18-04-43_094959634447_rgbf000151-resize_2/002905_2014-06-03_18-04-43_094959634447_rgbf000151-resize_2-target.png,250,2.0295,26,2466,250,meters,jsons/v1_VE250_randls_12_rotated.json,493461,767316,44,Woman
53,127930,DepthScenes,duration_manipulation_targetAtFixation,jsons/v1_VE250_randls_12_rotated.json,http://54.235.29.9/FacialAge/BNav_EC2/DepthDuration/v2_depth_duration_MTurk/v2_DepthDuration_HTML.html#20,20,1440,789,1440,900,8-20-2022,10-57-38,54,depth_duration_stimuli/002657_2014-06-13_15-29-54_094959634447_rgbf000150-resize_1/002657_2014-06-13_15-29-54_094959634447_rgbf000150-resize_1-target.png,250,4.919,14,2298,249,meters,jsons/v1_VE250_randls_12_rotated.json,493461,767316,44,Woman
54,127930,DepthScenes,duration_manipulation_targetAtFixation,jsons/v1_VE250_randls_12_rotated.json,http://54.235.29.9/FacialAge/BNav_EC2/DepthDuration/v2_depth_duration_MTurk/v2_DepthDuration_HTML.html#20,20,1440,789,1440,900,8-20-2022,10-57-38,55,depth_duration_stimuli/002375_2014-06-28_20-13-44_260595134347_rgbf000032-resize_1/002375_2014-06-28_20-13-44_260595134347_rgbf000032-resize_1-target.png,250,4.0175,25,2266,250,meters,jsons/v1_VE250_randls_12_rotated.json,493461,767316,44,Woman
55,127930,DepthScenes,duration_manipulation_targetAtFixation,jsons/v1_VE250_randls_12_rotated.json,http://54.235.29.9/FacialAge/BNav_EC2/DepthDuration/v2_depth_duration_MTurk/v2_DepthDuration_HTML.html#20,20,1440,789,1440,900,8-20-2022,10-57-38,56,depth_duration_stimuli/002414_2014-06-28_20-24-58_260595134347_rgbf000067-resize_4/002414_2014-06-28_20-24-58_260595134347_rgbf000067-resize_4-target.png,250,4.363,52,2347,251,meters,jsons/v1_VE250_randls_12_rotated.json,493461,767316,44,Woman
56,127930,DepthScenes,duration_manipulation_targetAtFixation,jsons/v1_VE250_randls_12_rotated.json,http://54.235.29.9/FacialAge/BNav_EC2/DepthDuration/v2_depth_duration_MTurk/v2_DepthDuration_HTML.html#20,20,1440,789,1440,900,8-20-2022,10-57-38,57,depth_duration_stimuli/000773_2014-06-08_22-24-54_260595134347_rgbf000093-resize_1/000773_2014-06-08_22-24-54_260595134347_rgbf000093-resize_1-target.png,250,4.973,62,2298,250,meters,jsons/v1_VE250_randls_12_rotated.json,493461,767316,44,Woman
57,127930,DepthScenes,duration_manipulation_targetAtFixation,jsons/v1_VE250_randls_12_rotated.json,http://54.235.29.9/FacialAge/BNav_EC2/DepthDuration/v2_depth_duration_MTurk/v2_DepthDuration_HTML.html#20,20,1440,789,1440,900,8-20-2022,10-57-38,58,depth_duration_stimuli/001650_2014-06-20_12-09-00_260595134347_rgbf000087-resize_3/001650_2014-06-20_12-09-00_260595134347_rgbf000087-resize_3-target.png,250,1.9505,25,2194,250,meters,jsons/v1_VE250_randls_12_rotated.json,493461,767316,44,Woman
58,127930,DepthScenes,duration_manipulation_targetAtFixation,jsons/v1_VE250_randls_12_rotated.json,http://54.235.29.9/FacialAge/BNav_EC2/DepthDuration/v2_depth_duration_MTurk/v2_DepthDuration_HTML.html#20,20,1440,789,1440,900,8-20-2022,10-57-38,59,depth_duration_stimuli/000682_2014-06-08_23-14-58_260595134347_rgbf000041-resize_5/000682_2014-06-08_23-14-58_260595134347_rgbf000041-resize_5-target.png,250,2.7239999999999998,30,2677,250,meters,jsons/v1_VE250_randls_12_rotated.json,493461,767316,44,Woman
59,127930,DepthScenes,duration_manipulation_targetAtFixation,jsons/v1_VE250_randls_12_rotated.json,http://54.235.29.9/FacialAge/BNav_EC2/DepthDuration/v2_depth_duration_MTurk/v2_DepthDuration_HTML.html#20,20,1440,789,1440,900,8-20-2022,10-57-38,60,depth_duration_stimuli/000549_2014-06-08_22-10-24_260595134347_rgbf000247-resize_3/000549_2014-06-08_22-10-24_260595134347_rgbf000247-resize_3-target.png,250,1.841,25,2267,251,meters,jsons/v1_VE250_randls_12_rotated.json,493461,767316,44,Woman
60,127930,DepthScenes,duration_manipulation_targetAtFixation,jsons/v1_VE250_randls_12_rotated.json,http://54.235.29.9/FacialAge/BNav_EC2/DepthDuration/v2_depth_duration_MTurk/v2_DepthDuration_HTML.html#20,20,1440,789,1440,900,8-20-2022,10-57-38,61,depth_duration_stimuli/001055_2014-06-08_18-45-35_260595134347_rgbf000111-resize_4/001055_2014-06-08_18-45-35_260595134347_rgbf000111-resize_4-target.png,250,2.4290000000000003,52,2275,251,meters,jsons/v1_VE250_randls_12_rotated.json,493461,767316,44,Woman
61,127930,DepthScenes,duration_manipulation_targetAtFixation,jsons/v1_VE250_randls_12_rotated.json,http://54.235.29.9/FacialAge/BNav_EC2/DepthDuration/v2_depth_duration_MTurk/v2_DepthDuration_HTML.html#20,20,1440,789,1440,900,8-20-2022,10-57-38,62,depth_duration_stimuli/002467_2014-06-28_20-38-07_260595134347_rgbf000026-resize_2/002467_2014-06-28_20-38-07_260595134347_rgbf000026-resize_2-target.png,250,4.742,12,2355,251,meters,jsons/v1_VE250_randls_12_rotated.json,493461,767316,44,Woman
62,127930,DepthScenes,duration_manipulation_targetAtFixation,jsons/v1_VE250_randls_12_rotated.json,http://54.235.29.9/FacialAge/BNav_EC2/DepthDuration/v2_depth_duration_MTurk/v2_DepthDuration_HTML.html#20,20,1440,789,1440,900,8-20-2022,10-57-38,63,depth_duration_stimuli/002570_2014-06-24_13-59-54_094959634447_rgbf000059-resize_0/002570_2014-06-24_13-59-54_094959634447_rgbf000059-resize_0-target.png,250,4.037,12,2217,250,meters,jsons/v1_VE250_randls_12_rotated.json,493461,767316,44,Woman
63,127930,DepthScenes,duration_manipulation_targetAtFixation,jsons/v1_VE250_randls_12_rotated.json,http://54.235.29.9/FacialAge/BNav_EC2/DepthDuration/v2_depth_duration_MTurk/v2_DepthDuration_HTML.html#20,20,1440,789,1440,900,8-20-2022,10-57-38,64,depth_duration_stimuli/002995_2014-06-15_12-31-26_094959634447_rgbf000150-resize_1/002995_2014-06-15_12-31-26_094959634447_rgbf000150-resize_1-target.png,250,3.8360000000000003,32,2354,250,meters,jsons/v1_VE250_randls_12_rotated.json,493461,767316,44,Woman
64,127930,DepthScenes,duration_manipulation_targetAtFixation,jsons/v1_VE250_randls_12_rotated.json,http://54.235.29.9/FacialAge/BNav_EC2/DepthDuration/v2_depth_duration_MTurk/v2_DepthDuration_HTML.html#20,20,1440,789,1440,900,8-20-2022,10-57-38,65,depth_duration_stimuli/002748_2014-06-22_19-07-22_094959634447_rgbf000078-resize_1/002748_2014-06-22_19-07-22_094959634447_rgbf000078-resize_1-target.png,250,4.6705,25,2180,250,meters,jsons/v1_VE250_randls_12_rotated.json,493461,767316,44,Woman
65,127930,DepthScenes,duration_manipulation_targetAtFixation,jsons/v1_VE250_randls_12_rotated.json,http://54.235.29.9/FacialAge/BNav_EC2/DepthDuration/v2_depth_duration_MTurk/v2_DepthDuration_HTML.html#20,20,1440,789,1440,900,8-20-2022,10-57-38,66,depth_duration_stimuli/001540_2014-06-20_17-01-05_260595134347_rgbf000086-resize_2/001540_2014-06-20_17-01-05_260595134347_rgbf000086-resize-original.jpg,250,1.459,0,2898,250,meters,jsons/v1_VE250_randls_12_rotated.json,493461,767316,44,Woman
66,127930,DepthScenes,duration_manipulation_targetAtFixation,jsons/v1_VE250_randls_12_rotated.json,http://54.235.29.9/FacialAge/BNav_EC2/DepthDuration/v2_depth_duration_MTurk/v2_DepthDuration_HTML.html#20,20,1440,789,1440,900,8-20-2022,10-57-38,67,depth_duration_stimuli/002209_2014-06-28_18-36-10_260595134347_rgbf000051-resize_1/002209_2014-06-28_18-36-10_260595134347_rgbf000051-resize_1-target.png,250,2.057,25,2314,249,meters,jsons/v1_VE250_randls_12_rotated.json,493461,767316,44,Woman
67,127930,DepthScenes,duration_manipulation_targetAtFixation,jsons/v1_VE250_randls_12_rotated.json,http://54.235.29.9/FacialAge/BNav_EC2/DepthDuration/v2_depth_duration_MTurk/v2_DepthDuration_HTML.html#20,20,1440,789,1440,900,8-20-2022,10-57-38,68,depth_duration_stimuli/002763_2014-06-22_19-13-10_094959634447_rgbf000075-resize_4/002763_2014-06-22_19-13-10_094959634447_rgbf000075-resize_4-target.png,250,1.68375,42,2419,249,meters,jsons/v1_VE250_randls_12_rotated.json,493461,767316,44,Woman
68,127930,DepthScenes,duration_manipulation_targetAtFixation,jsons/v1_VE250_randls_12_rotated.json,http://54.235.29.9/FacialAge/BNav_EC2/DepthDuration/v2_depth_duration_MTurk/v2_DepthDuration_HTML.html#20,20,1440,789,1440,900,8-20-2022,10-57-38,69,depth_duration_stimuli/002545_2014-06-24_13-38-53_094959634447_rgbf000080-resize_4/002545_2014-06-24_13-38-53_094959634447_rgbf000080-resize_4-target.png,250,1.9205,52,2586,249,meters,jsons/v1_VE250_randls_12_rotated.json,493461,767316,44,Woman
69,127930,DepthScenes,duration_manipulation_targetAtFixation,jsons/v1_VE250_randls_12_rotated.json,http://54.235.29.9/FacialAge/BNav_EC2/DepthDuration/v2_depth_duration_MTurk/v2_DepthDuration_HTML.html#20,20,1440,789,1440,900,8-20-2022,10-57-38,70,depth_duration_stimuli/001092_2014-06-15_17-34-58_260595134347_rgbf000171-resize_3/001092_2014-06-15_17-34-58_260595134347_rgbf000171-resize_3-target.png,250,2.6935,58,2459,250,meters,jsons/v1_VE250_randls_12_rotated.json,493461,767316,44,Woman
70,127930,DepthScenes,duration_manipulation_targetAtFixation,jsons/v1_VE250_randls_12_rotated.json,http://54.235.29.9/FacialAge/BNav_EC2/DepthDuration/v2_depth_duration_MTurk/v2_DepthDuration_HTML.html#20,20,1440,789,1440,900,8-20-2022,10-57-38,71,depth_duration_stimuli/002568_2014-06-24_13-59-21_094959634447_rgbf000062-resize_4/002568_2014-06-24_13-59-21_094959634447_rgbf000062-resize_4-target.png,250,3.015,65,2435,250,meters,jsons/v1_VE250_randls_12_rotated.json,493461,767316,44,Woman
71,127930,DepthScenes,duration_manipulation_targetAtFixation,jsons/v1_VE250_randls_12_rotated.json,http://54.235.29.9/FacialAge/BNav_EC2/DepthDuration/v2_depth_duration_MTurk/v2_DepthDuration_HTML.html#20,20,1440,789,1440,900,8-20-2022,10-57-38,72,depth_duration_stimuli/003492_2014-05-21_15-50-55_094959634447_rgbf000828-resize_1/003492_2014-05-21_15-50-55_094959634447_rgbf000828-resize_1-target.png,250,4.06875,52,2212,251,meters,jsons/v1_VE250_randls_12_rotated.json,493461,767316,44,Woman
72,127930,DepthScenes,duration_manipulation_targetAtFixation,jsons/v1_VE250_randls_12_rotated.json,http://54.235.29.9/FacialAge/BNav_EC2/DepthDuration/v2_depth_duration_MTurk/v2_DepthDuration_HTML.html#20,20,1440,789,1440,900,8-20-2022,10-57-38,73,depth_duration_stimuli/001450_2014-06-19_17-02-03_260595134347_rgbf000203-resize_4/001450_2014-06-19_17-02-03_260595134347_rgbf000203-resize_4-target.png,250,4.0106666666667,52,2345,250,meters,jsons/v1_VE250_randls_12_rotated.json,493461,767316,44,Woman
73,127930,DepthScenes,duration_manipulation_targetAtFixation,jsons/v1_VE250_randls_12_rotated.json,http://54.235.29.9/FacialAge/BNav_EC2/DepthDuration/v2_depth_duration_MTurk/v2_DepthDuration_HTML.html#20,20,1440,789,1440,900,8-20-2022,10-57-38,74,depth_duration_stimuli/001449_2014-06-19_17-01-27_260595134347_rgbf000116-resize_2/001449_2014-06-19_17-01-27_260595134347_rgbf000116-resize_2-target.png,250,3.452,25,2266,249,meters,jsons/v1_VE250_randls_12_rotated.json,493461,767316,44,Woman
74,127930,DepthScenes,duration_manipulation_targetAtFixation,jsons/v1_VE250_randls_12_rotated.json,http://54.235.29.9/FacialAge/BNav_EC2/DepthDuration/v2_depth_duration_MTurk/v2_DepthDuration_HTML.html#20,20,1440,789,1440,900,8-20-2022,10-57-38,75,depth_duration_stimuli/001100_2014-06-15_17-46-26_260595134347_rgbf000225-resize_2/001100_2014-06-15_17-46-26_260595134347_rgbf000225-resize_2-target.png,250,2.24,45,2483,250,meters,jsons/v1_VE250_randls_12_rotated.json,493461,767316,44,Woman
75,127930,DepthScenes,duration_manipulation_targetAtFixation,jsons/v1_VE250_randls_12_rotated.json,http://54.235.29.9/FacialAge/BNav_EC2/DepthDuration/v2_depth_duration_MTurk/v2_DepthDuration_HTML.html#20,20,1440,789,1440,900,8-20-2022,10-57-38,76,depth_duration_stimuli/002784_2014-06-22_19-26-30_094959634447_rgbf000083-resize_3/002784_2014-06-22_19-26-30_094959634447_rgbf000083-resize_3-target.png,250,1.8046666666667,85,2380,249,meters,jsons/v1_VE250_randls_12_rotated.json,493461,767316,44,Woman
76,127930,DepthScenes,duration_manipulation_targetAtFixation,jsons/v1_VE250_randls_12_rotated.json,http://54.235.29.9/FacialAge/BNav_EC2/DepthDuration/v2_depth_duration_MTurk/v2_DepthDuration_HTML.html#20,20,1440,789,1440,900,8-20-2022,10-57-38,77,depth_duration_stimuli/001052_2014-06-08_18-24-54_260595134347_rgbf000130-resize_1/001052_2014-06-08_18-24-54_260595134347_rgbf000130-resize_1-target.png,250,4.1045,65,2449,251,meters,jsons/v1_VE250_randls_12_rotated.json,493461,767316,44,Woman
77,127930,DepthScenes,duration_manipulation_targetAtFixation,jsons/v1_VE250_randls_12_rotated.json,http://54.235.29.9/FacialAge/BNav_EC2/DepthDuration/v2_depth_duration_MTurk/v2_DepthDuration_HTML.html#20,20,1440,789,1440,900,8-20-2022,10-57-38,78,depth_duration_stimuli/002988_2014-06-15_12-24-20_094959634447_rgbf000150-resize_1/002988_2014-06-15_12-24-20_094959634447_rgbf000150-resize_1-target.png,250,4.7669999999999995,45,2228,251,meters,jsons/v1_VE250_randls_12_rotated.json,493461,767316,44,Woman
78,127930,DepthScenes,duration_manipulation_targetAtFixation,jsons/v1_VE250_randls_12_rotated.json,http://54.235.29.9/FacialAge/BNav_EC2/DepthDuration/v2_depth_duration_MTurk/v2_DepthDuration_HTML.html#20,20,1440,789,1440,900,8-20-2022,10-57-38,79,depth_duration_stimuli/002639_2014-06-24_14-51-37_094959634447_rgbf000074-resize_4/002639_2014-06-24_14-51-37_094959634447_rgbf000074-resize_4-target.png,250,4.0375,52,2940,251,meters,jsons/v1_VE250_randls_12_rotated.json,493461,767316,44,Woman
79,127930,DepthScenes,duration_manipulation_targetAtFixation,jsons/v1_VE250_randls_12_rotated.json,http://54.235.29.9/FacialAge/BNav_EC2/DepthDuration/v2_depth_duration_MTurk/v2_DepthDuration_HTML.html#20,20,1440,789,1440,900,8-20-2022,10-57-38,80,depth_duration_stimuli/003292_2014-05-14_21-53-49_094959634447_rgbf000100-resize_2/003292_2014-05-14_21-53-49_094959634447_rgbf000100-resize_2-target.png,250,3.4815,25,2243,251,meters,jsons/v1_VE250_randls_12_rotated.json,493461,767316,44,Woman
80,127930,DepthScenes,duration_manipulation_targetAtFixation,jsons/v1_VE250_randls_12_rotated.json,http://54.235.29.9/FacialAge/BNav_EC2/DepthDuration/v2_depth_duration_MTurk/v2_DepthDuration_HTML.html#20,20,1440,789,1440,900,8-20-2022,10-57-38,81,depth_duration_stimuli/002199_2014-06-28_18-33-56_260595134347_rgbf000074-resize_0/002199_2014-06-28_18-33-56_260595134347_rgbf000074-resize_0-target.png,250,1.996,53,2691,251,meters,jsons/v1_VE250_randls_12_rotated.json,493461,767316,44,Woman
81,127930,DepthScenes,duration_manipulation_targetAtFixation,jsons/v1_VE250_randls_12_rotated.json,http://54.235.29.9/FacialAge/BNav_EC2/DepthDuration/v2_depth_duration_MTurk/v2_DepthDuration_HTML.html#20,20,1440,789,1440,900,8-20-2022,10-57-38,82,depth_duration_stimuli/001056_2014-06-08_18-46-44_260595134347_rgbf000068-resize_0/001056_2014-06-08_18-46-44_260595134347_rgbf000068-resize_0-target.png,250,2.6625,20,4498,251,meters,jsons/v1_VE250_randls_12_rotated.json,493461,767316,44,Woman
82,127930,DepthScenes,duration_manipulation_targetAtFixation,jsons/v1_VE250_randls_12_rotated.json,http://54.235.29.9/FacialAge/BNav_EC2/DepthDuration/v2_depth_duration_MTurk/v2_DepthDuration_HTML.html#20,20,1440,789,1440,900,8-20-2022,10-57-38,83,depth_duration_stimuli/000409_2014-06-04_19-23-33_260595134347_rgbf000067-resize_0/000409_2014-06-04_19-23-33_260595134347_rgbf000067-resize_0-target.png,250,3.7335,35,2674,249,meters,jsons/v1_VE250_randls_12_rotated.json,493461,767316,44,Woman
83,127930,DepthScenes,duration_manipulation_targetAtFixation,jsons/v1_VE250_randls_12_rotated.json,http://54.235.29.9/FacialAge/BNav_EC2/DepthDuration/v2_depth_duration_MTurk/v2_DepthDuration_HTML.html#20,20,1440,789,1440,900,8-20-2022,10-57-38,84,depth_duration_stimuli/002663_2014-06-13_15-50-26_094959634447_rgbf000075-resize_1/002663_2014-06-13_15-50-26_094959634447_rgbf000075-resize_1-target.png,250,4.7495,45,2564,251,meters,jsons/v1_VE250_randls_12_rotated.json,493461,767316,44,Woman
84,127930,DepthScenes,duration_manipulation_targetAtFixation,jsons/v1_VE250_randls_12_rotated.json,http://54.235.29.9/FacialAge/BNav_EC2/DepthDuration/v2_depth_duration_MTurk/v2_DepthDuration_HTML.html#20,20,1440,789,1440,900,8-20-2022,10-57-38,85,depth_duration_stimuli/000677_2014-06-08_23-10-32_260595134347_rgbf000158-resize_6/000677_2014-06-08_23-10-32_260595134347_rgbf000158-resize_6-target.png,250,3.556,56,2579,251,meters,jsons/v1_VE250_randls_12_rotated.json,493461,767316,44,Woman
85,127930,DepthScenes,duration_manipulation_targetAtFixation,jsons/v1_VE250_randls_12_rotated.json,http://54.235.29.9/FacialAge/BNav_EC2/DepthDuration/v2_depth_duration_MTurk/v2_DepthDuration_HTML.html#20,20,1440,789,1440,900,8-20-2022,10-57-38,86,depth_duration_stimuli/001029_2014-06-08_13-17-57_260595134347_rgbf000065-resize_1/001029_2014-06-08_13-17-57_260595134347_rgbf000065-resize_1-target.png,250,3.0835,52,2538,250,meters,jsons/v1_VE250_randls_12_rotated.json,493461,767316,44,Woman
86,127930,DepthScenes,duration_manipulation_targetAtFixation,jsons/v1_VE250_randls_12_rotated.json,http://54.235.29.9/FacialAge/BNav_EC2/DepthDuration/v2_depth_duration_MTurk/v2_DepthDuration_HTML.html#20,20,1440,789,1440,900,8-20-2022,10-57-38,87,depth_duration_stimuli/002344_2014-06-28_20-06-29_260595134347_rgbf000030-resize_1/002344_2014-06-28_20-06-29_260595134347_rgbf000030-resize_1-target.png,250,1.5795,52,3890,251,meters,jsons/v1_VE250_randls_12_rotated.json,493461,767316,44,Woman
87,127930,DepthScenes,duration_manipulation_targetAtFixation,jsons/v1_VE250_randls_12_rotated.json,http://54.235.29.9/FacialAge/BNav_EC2/DepthDuration/v2_depth_duration_MTurk/v2_DepthDuration_HTML.html#20,20,1440,789,1440,900,8-20-2022,10-57-38,88,depth_duration_stimuli/002725_2014-06-22_11-47-51_094959634447_rgbf000070-resize_1/002725_2014-06-22_11-47-51_094959634447_rgbf000070-resize_1-target.png,250,2.195,34,3947,251,meters,jsons/v1_VE250_randls_12_rotated.json,493461,767316,44,Woman
88,127930,DepthScenes,duration_manipulation_targetAtFixation,jsons/v1_VE250_randls_12_rotated.json,http://54.235.29.9/FacialAge/BNav_EC2/DepthDuration/v2_depth_duration_MTurk/v2_DepthDuration_HTML.html#20,20,1440,789,1440,900,8-20-2022,10-57-38,89,depth_duration_stimuli/003587_2014-05-23_16-48-02_094959634447_rgbf002384-resize_2/003587_2014-05-23_16-48-02_094959634447_rgbf002384-resize_2-target.png,250,1.357,2,2625,249,meters,jsons/v1_VE250_randls_12_rotated.json,493461,767316,44,Woman
89,127930,DepthScenes,duration_manipulation_targetAtFixation,jsons/v1_VE250_randls_12_rotated.json,http://54.235.29.9/FacialAge/BNav_EC2/DepthDuration/v2_depth_duration_MTurk/v2_DepthDuration_HTML.html#20,20,1440,789,1440,900,8-20-2022,10-57-38,90,depth_duration_stimuli/001167_2014-06-17_15-38-07_260595134347_rgbf000108-resize_0/001167_2014-06-17_15-38-07_260595134347_rgbf000108-resize_0-target.png,250,1.8505,5,2380,250,meters,jsons/v1_VE250_randls_12_rotated.json,493461,767316,44,Woman
90,127930,DepthScenes,duration_manipulation_targetAtFixation,jsons/v1_VE250_randls_12_rotated.json,http://54.235.29.9/FacialAge/BNav_EC2/DepthDuration/v2_depth_duration_MTurk/v2_DepthDuration_HTML.html#20,20,1440,789,1440,900,8-20-2022,10-57-38,91,depth_duration_stimuli/002750_2014-06-22_19-08-03_094959634447_rgbf000094-resize_4/002750_2014-06-22_19-08-03_094959634447_rgbf000094-resize_4-target.png,250,2.354,32,3444,250,meters,jsons/v1_VE250_randls_12_rotated.json,493461,767316,44,Woman
91,127930,DepthScenes,duration_manipulation_targetAtFixation,jsons/v1_VE250_randls_12_rotated.json,http://54.235.29.9/FacialAge/BNav_EC2/DepthDuration/v2_depth_duration_MTurk/v2_DepthDuration_HTML.html#20,20,1440,789,1440,900,8-20-2022,10-57-38,92,depth_duration_stimuli/002549_2014-06-24_13-41-39_094959634447_rgbf000022-resize_3/002549_2014-06-24_13-41-39_094959634447_rgbf000022-resize_3-target.png,250,1.476,12,2369,250,meters,jsons/v1_VE250_randls_12_rotated.json,493461,767316,44,Woman
92,127930,DepthScenes,duration_manipulation_targetAtFixation,jsons/v1_VE250_randls_12_rotated.json,http://54.235.29.9/FacialAge/BNav_EC2/DepthDuration/v2_depth_duration_MTurk/v2_DepthDuration_HTML.html#20,20,1440,789,1440,900,8-20-2022,10-57-38,93,depth_duration_stimuli/002678_2014-06-13_16-15-32_094959634447_rgbf000151-resize_6/002678_2014-06-13_16-15-32_094959634447_rgbf000151-resize_6-target.png,250,2.1830000000000003,45,2474,250,meters,jsons/v1_VE250_randls_12_rotated.json,493461,767316,44,Woman
93,127930,DepthScenes,duration_manipulation_targetAtFixation,jsons/v1_VE250_randls_12_rotated.json,http://54.235.29.9/FacialAge/BNav_EC2/DepthDuration/v2_depth_duration_MTurk/v2_DepthDuration_HTML.html#20,20,1440,789,1440,900,8-20-2022,10-57-38,94,depth_duration_stimuli/000368_2014-06-09_15-53-01_260595134347_rgbf000155-resize_2/000368_2014-06-09_15-53-01_260595134347_rgbf000155-resize_2-target.png,250,2.4859999999999998,5,2347,251,meters,jsons/v1_VE250_randls_12_rotated.json,493461,767316,44,Woman
94,127930,DepthScenes,duration_manipulation_targetAtFixation,jsons/v1_VE250_randls_12_rotated.json,http://54.235.29.9/FacialAge/BNav_EC2/DepthDuration/v2_depth_duration_MTurk/v2_DepthDuration_HTML.html#20,20,1440,789,1440,900,8-20-2022,10-57-38,95,depth_duration_stimuli/002875_2014-06-01_15-19-00_094959634447_rgbf000151-resize_1/002875_2014-06-01_15-19-00_094959634447_rgbf000151-resize_1-target.png,250,1.9675,6,2818,250,meters,jsons/v1_VE250_randls_12_rotated.json,493461,767316,44,Woman
95,127930,DepthScenes,duration_manipulation_targetAtFixation,jsons/v1_VE250_randls_12_rotated.json,http://54.235.29.9/FacialAge/BNav_EC2/DepthDuration/v2_depth_duration_MTurk/v2_DepthDuration_HTML.html#20,20,1440,789,1440,900,8-20-2022,10-57-38,96,depth_duration_stimuli/001011_2014-06-08_23-18-54_260595134347_rgbf000044-resize_4/001011_2014-06-08_23-18-54_260595134347_rgbf000044-resize_4-target.png,250,2.4730000000000003,4,2698,250,meters,jsons/v1_VE250_randls_12_rotated.json,493461,767316,44,Woman
96,127930,DepthScenes,duration_manipulation_targetAtFixation,jsons/v1_VE250_randls_12_rotated.json,http://54.235.29.9/FacialAge/BNav_EC2/DepthDuration/v2_depth_duration_MTurk/v2_DepthDuration_HTML.html#20,20,1440,789,1440,900,8-20-2022,10-57-38,97,depth_duration_stimuli/001392_2014-06-19_16-07-59_260595134347_rgbf000046-resize_1/001392_2014-06-19_16-07-59_260595134347_rgbf000046-resize_1-target.png,250,4.135,5,2356,251,meters,jsons/v1_VE250_randls_12_rotated.json,493461,767316,44,Woman
97,127930,DepthScenes,duration_manipulation_targetAtFixation,jsons/v1_VE250_randls_12_rotated.json,http://54.235.29.9/FacialAge/BNav_EC2/DepthDuration/v2_depth_duration_MTurk/v2_DepthDuration_HTML.html#20,20,1440,789,1440,900,8-20-2022,10-57-38,98,depth_duration_stimuli/001570_2014-06-20_17-21-09_260595134347_rgbf000135-resize_4/001570_2014-06-20_17-21-09_260595134347_rgbf000135-resize_4-target.png,250,4.467,45,3235,250,meters,jsons/v1_VE250_randls_12_rotated.json,493461,767316,44,Woman
98,127930,DepthScenes,duration_manipulation_targetAtFixation,jsons/v1_VE250_randls_12_rotated.json,http://54.235.29.9/FacialAge/BNav_EC2/DepthDuration/v2_depth_duration_MTurk/v2_DepthDuration_HTML.html#20,20,1440,789,1440,900,8-20-2022,10-57-38,99,depth_duration_stimuli/001222_2014-06-17_16-24-06_260595134347_rgbf000073-resize_0/001222_2014-06-17_16-24-06_260595134347_rgbf000073-resize-original.jpg,250,1.4385,0,2484,250,meters,jsons/v1_VE250_randls_12_rotated.json,493461,767316,44,Woman
99,127930,DepthScenes,duration_manipulation_targetAtFixation,jsons/v1_VE250_randls_12_rotated.json,http://54.235.29.9/FacialAge/BNav_EC2/DepthDuration/v2_depth_duration_MTurk/v2_DepthDuration_HTML.html#20,20,1440,789,1440,900,8-20-2022,10-57-38,100,depth_duration_stimuli/002805_2014-06-22_19-54-03_094959634447_rgbf000079-resize_1/002805_2014-06-22_19-54-03_094959634447_rgbf000079-resize_1-target.png,250,3.1439999999999997,45,2400,250,meters,jsons/v1_VE250_randls_12_rotated.json,493461,767316,44,Woman
100,127930,DepthScenes,duration_manipulation_targetAtFixation,jsons/v1_VE250_randls_12_rotated.json,http://54.235.29.9/FacialAge/BNav_EC2/DepthDuration/v2_depth_duration_MTurk/v2_DepthDuration_HTML.html#20,20,1440,789,1440,900,8-20-2022,10-57-38,101,depth_duration_stimuli/000906_2014-06-08_13-35-43_260595134347_rgbf000155-resize_1/000906_2014-06-08_13-35-43_260595134347_rgbf000155-resize_1-target.png,250,2.8489999999999998,0,2235,251,meters,jsons/v1_VE250_randls_12_rotated.json,493461,767316,44,Woman
101,127930,DepthScenes,duration_manipulation_targetAtFixation,jsons/v1_VE250_randls_12_rotated.json,http://54.235.29.9/FacialAge/BNav_EC2/DepthDuration/v2_depth_duration_MTurk/v2_DepthDuration_HTML.html#20,20,1440,789,1440,900,8-20-2022,10-57-38,102,depth_duration_stimuli/000742_2014-06-08_18-48-09_260595134347_rgbf000164-resize_4/000742_2014-06-08_18-48-09_260595134347_rgbf000164-resize_4-target.png,250,4.632,75,2467,250,meters,jsons/v1_VE250_randls_12_rotated.json,493461,767316,44,Woman
102,127930,DepthScenes,duration_manipulation_targetAtFixation,jsons/v1_VE250_randls_12_rotated.json,http://54.235.29.9/FacialAge/BNav_EC2/DepthDuration/v2_depth_duration_MTurk/v2_DepthDuration_HTML.html#20,20,1440,789,1440,900,8-20-2022,10-57-38,103,depth_duration_stimuli/001066_2014-06-08_22-03-20_260595134347_rgbf000066-resize_4/001066_2014-06-08_22-03-20_260595134347_rgbf000066-resize_4-target.png,250,4.2330000000000005,52,2762,250,meters,jsons/v1_VE250_randls_12_rotated.json,493461,767316,44,Woman
103,127930,DepthScenes,duration_manipulation_targetAtFixation,jsons/v1_VE250_randls_12_rotated.json,http://54.235.29.9/FacialAge/BNav_EC2/DepthDuration/v2_depth_duration_MTurk/v2_DepthDuration_HTML.html#20,20,1440,789,1440,900,8-20-2022,10-57-38,104,depth_duration_stimuli/003081_2014-06-15_15-19-16_094959634447_rgbf000150-resize_1/003081_2014-06-15_15-19-16_094959634447_rgbf000150-resize_1-target.png,250,3.9125,63,3315,251,meters,jsons/v1_VE250_randls_12_rotated.json,493461,767316,44,Woman
104,127930,DepthScenes,duration_manipulation_targetAtFixation,jsons/v1_VE250_randls_12_rotated.json,http://54.235.29.9/FacialAge/BNav_EC2/DepthDuration/v2_depth_duration_MTurk/v2_DepthDuration_HTML.html#20,20,1440,789,1440,900,8-20-2022,10-57-38,105,depth_duration_stimuli/001417_2014-06-19_16-25-36_260595134347_rgbf000115-resize_5/001417_2014-06-19_16-25-36_260595134347_rgbf000115-resize_5-target.png,250,4.6255,5,2196,250,meters,jsons/v1_VE250_randls_12_rotated.json,493461,767316,44,Woman
105,127930,DepthScenes,duration_manipulation_targetAtFixation,jsons/v1_VE250_randls_12_rotated.json,http://54.235.29.9/FacialAge/BNav_EC2/DepthDuration/v2_depth_duration_MTurk/v2_DepthDuration_HTML.html#20,20,1440,789,1440,900,8-20-2022,10-57-38,106,depth_duration_stimuli/002637_2014-06-24_14-51-13_094959634447_rgbf000066-resize_4/002637_2014-06-24_14-51-13_094959634447_rgbf000066-resize_4-target.png,250,1.9955,8,2835,250,meters,jsons/v1_VE250_randls_12_rotated.json,493461,767316,44,Woman
106,127930,DepthScenes,duration_manipulation_targetAtFixation,jsons/v1_VE250_randls_12_rotated.json,http://54.235.29.9/FacialAge/BNav_EC2/DepthDuration/v2_depth_duration_MTurk/v2_DepthDuration_HTML.html#20,20,1440,789,1440,900,8-20-2022,10-57-38,107,depth_duration_stimuli/003534_2014-05-22_15-06-10_094959634447_rgbf000102-resize_4/003534_2014-05-22_15-06-10_094959634447_rgbf000102-resize_4-target.png,250,1.426,9,4717,250,meters,jsons/v1_VE250_randls_12_rotated.json,493461,767316,44,Woman
107,127930,DepthScenes,duration_manipulation_targetAtFixation,jsons/v1_VE250_randls_12_rotated.json,http://54.235.29.9/FacialAge/BNav_EC2/DepthDuration/v2_depth_duration_MTurk/v2_DepthDuration_HTML.html#20,20,1440,789,1440,900,8-20-2022,10-57-38,108,depth_duration_stimuli/001617_2014-06-20_11-35-32_260595134347_rgbf000066-resize_1/001617_2014-06-20_11-35-32_260595134347_rgbf000066-resize_1-target.png,250,3.7910000000000004,11,3490,251,meters,jsons/v1_VE250_randls_12_rotated.json,493461,767316,44,Woman
108,127930,DepthScenes,duration_manipulation_targetAtFixation,jsons/v1_VE250_randls_12_rotated.json,http://54.235.29.9/FacialAge/BNav_EC2/DepthDuration/v2_depth_duration_MTurk/v2_DepthDuration_HTML.html#20,20,1440,789,1440,900,8-20-2022,10-57-38,109,depth_duration_stimuli/001806_2014-06-26_20-50-20_260595134347_rgbf000091-resize_1/001806_2014-06-26_20-50-20_260595134347_rgbf000091-resize_1-target.png,250,2.7305,5,2506,249,meters,jsons/v1_VE250_randls_12_rotated.json,493461,767316,44,Woman
109,127930,DepthScenes,duration_manipulation_targetAtFixation,jsons/v1_VE250_randls_12_rotated.json,http://54.235.29.9/FacialAge/BNav_EC2/DepthDuration/v2_depth_duration_MTurk/v2_DepthDuration_HTML.html#20,20,1440,789,1440,900,8-20-2022,10-57-38,110,depth_duration_stimuli/002444_2014-06-28_20-32-08_260595134347_rgbf000027-resize_0/002444_2014-06-28_20-32-08_260595134347_rgbf000027-resize_0-target.png,250,4.388999999999999,7,2563,251,meters,jsons/v1_VE250_randls_12_rotated.json,493461,767316,44,Woman
110,127930,DepthScenes,duration_manipulation_targetAtFixation,jsons/v1_VE250_randls_12_rotated.json,http://54.235.29.9/FacialAge/BNav_EC2/DepthDuration/v2_depth_duration_MTurk/v2_DepthDuration_HTML.html#20,20,1440,789,1440,900,8-20-2022,10-57-38,111,depth_duration_stimuli/000436_2014-06-09_22-25-11_260595134347_rgbf000137-resize_1/000436_2014-06-09_22-25-11_260595134347_rgbf000137-resize_1-target.png,250,4.0705,8,2587,251,meters,jsons/v1_VE250_randls_12_rotated.json,493461,767316,44,Woman
111,127930,DepthScenes,duration_manipulation_targetAtFixation,jsons/v1_VE250_randls_12_rotated.json,http://54.235.29.9/FacialAge/BNav_EC2/DepthDuration/v2_depth_duration_MTurk/v2_DepthDuration_HTML.html#20,20,1440,789,1440,900,8-20-2022,10-57-38,112,depth_duration_stimuli/002136_2014-06-25_21-18-03_260595134347_rgbf000109-resize_3/002136_2014-06-25_21-18-03_260595134347_rgbf000109-resize_3-target.png,250,1.9569999999999999,6,2097,250,meters,jsons/v1_VE250_randls_12_rotated.json,493461,767316,44,Woman
112,127930,DepthScenes,duration_manipulation_targetAtFixation,jsons/v1_VE250_randls_12_rotated.json,http://54.235.29.9/FacialAge/BNav_EC2/DepthDuration/v2_depth_duration_MTurk/v2_DepthDuration_HTML.html#20,20,1440,789,1440,900,8-20-2022,10-57-38,113,depth_duration_stimuli/002964_2014-06-08_17-46-11_094959634447_rgbf000091-resize_4/002964_2014-06-08_17-46-11_094959634447_rgbf000091-resize_4-target.png,250,1.6909999999999998,55,2661,249,meters,jsons/v1_VE250_randls_12_rotated.json,493461,767316,44,Woman
113,127930,DepthScenes,duration_manipulation_targetAtFixation,jsons/v1_VE250_randls_12_rotated.json,http://54.235.29.9/FacialAge/BNav_EC2/DepthDuration/v2_depth_duration_MTurk/v2_DepthDuration_HTML.html#20,20,1440,789,1440,900,8-20-2022,10-57-38,114,depth_duration_stimuli/000866_2014-06-09_20-45-42_260595134347_rgbf000139-resize_1/000866_2014-06-09_20-45-42_260595134347_rgbf000139-resize_1-target.png,250,3.2155,4,2402,250,meters,jsons/v1_VE250_randls_12_rotated.json,493461,767316,44,Woman
114,127930,DepthScenes,duration_manipulation_targetAtFixation,jsons/v1_VE250_randls_12_rotated.json,http://54.235.29.9/FacialAge/BNav_EC2/DepthDuration/v2_depth_duration_MTurk/v2_DepthDuration_HTML.html#20,20,1440,789,1440,900,8-20-2022,10-57-38,115,depth_duration_stimuli/002989_2014-06-15_12-25-03_094959634447_rgbf000150-resize_3/002989_2014-06-15_12-25-03_094959634447_rgbf000150-resize_3-target.png,250,4.1975,77,2587,249,meters,jsons/v1_VE250_randls_12_rotated.json,493461,767316,44,Woman
115,127930,DepthScenes,duration_manipulation_targetAtFixation,jsons/v1_VE250_randls_12_rotated.json,http://54.235.29.9/FacialAge/BNav_EC2/DepthDuration/v2_depth_duration_MTurk/v2_DepthDuration_HTML.html#20,20,1440,789,1440,900,8-20-2022,10-57-38,116,depth_duration_stimuli/003129_2014-05-12_10-48-10_094959634447_rgbf000100-resize_0/003129_2014-05-12_10-48-10_094959634447_rgbf000100-resize_0-target.png,250,4.9305,55,2668,249,meters,jsons/v1_VE250_randls_12_rotated.json,493461,767316,44,Woman
116,127930,DepthScenes,duration_manipulation_targetAtFixation,jsons/v1_VE250_randls_12_rotated.json,http://54.235.29.9/FacialAge/BNav_EC2/DepthDuration/v2_depth_duration_MTurk/v2_DepthDuration_HTML.html#20,20,1440,789,1440,900,8-20-2022,10-57-38,117,depth_duration_stimuli/000414_2014-06-04_19-49-13_260595134347_rgbf000044-resize_0/000414_2014-06-04_19-49-13_260595134347_rgbf000044-resize_0-target.png,250,4.329,65,3441,249,meters,jsons/v1_VE250_randls_12_rotated.json,493461,767316,44,Woman
117,127930,DepthScenes,duration_manipulation_targetAtFixation,jsons/v1_VE250_randls_12_rotated.json,http://54.235.29.9/FacialAge/BNav_EC2/DepthDuration/v2_depth_duration_MTurk/v2_DepthDuration_HTML.html#20,20,1440,789,1440,900,8-20-2022,10-57-38,118,depth_duration_stimuli/000109_2014-05-14_23-41-52_260595134347_rgbf000035-resize_9/000109_2014-05-14_23-41-52_260595134347_rgbf000035-resize_9-target.png,250,1.3545,55,2324,251,meters,jsons/v1_VE250_randls_12_rotated.json,493461,767316,44,Woman
118,127930,DepthScenes,duration_manipulation_targetAtFixation,jsons/v1_VE250_randls_12_rotated.json,http://54.235.29.9/FacialAge/BNav_EC2/DepthDuration/v2_depth_duration_MTurk/v2_DepthDuration_HTML.html#20,20,1440,789,1440,900,8-20-2022,10-57-38,119,depth_duration_stimuli/000470_2014-06-09_19-42-40_260595134347_rgbf000094-resize_1/000470_2014-06-09_19-42-40_260595134347_rgbf000094-resize_1-target.png,250,1.831,4,2319,249,meters,jsons/v1_VE250_randls_12_rotated.json,493461,767316,44,Woman
119,127930,DepthScenes,duration_manipulation_targetAtFixation,jsons/v1_VE250_randls_12_rotated.json,http://54.235.29.9/FacialAge/BNav_EC2/DepthDuration/v2_depth_duration_MTurk/v2_DepthDuration_HTML.html#20,20,1440,789,1440,900,8-20-2022,10-57-38,120,depth_duration_stimuli/000787_2014-06-08_22-33-53_260595134347_rgbf000175-resize_1/000787_2014-06-08_22-33-53_260595134347_rgbf000175-resize-original.jpg,250,4.784,0,2468,250,meters,jsons/v1_VE250_randls_12_rotated.json,493461,767316,44,Woman
120,127930,DepthScenes,duration_manipulation_targetAtFixation,jsons/v1_VE250_randls_12_rotated.json,http://54.235.29.9/FacialAge/BNav_EC2/DepthDuration/v2_depth_duration_MTurk/v2_DepthDuration_HTML.html#20,20,1440,789,1440,900,8-20-2022,10-57-38,121,depth_duration_stimuli/000854_2014-06-09_19-43-13_260595134347_rgbf000066-resize_0/000854_2014-06-09_19-43-13_260595134347_rgbf000066-resize_0-target.png,250,3.068,5,2515,251,meters,jsons/v1_VE250_randls_12_rotated.json,493461,767316,44,Woman
121,127930,DepthScenes,duration_manipulation_targetAtFixation,jsons/v1_VE250_randls_12_rotated.json,http://54.235.29.9/FacialAge/BNav_EC2/DepthDuration/v2_depth_duration_MTurk/v2_DepthDuration_HTML.html#20,20,1440,789,1440,900,8-20-2022,10-57-38,122,depth_duration_stimuli/000758_2014-06-08_22-05-08_260595134347_rgbf000085-resize_0/000758_2014-06-08_22-05-08_260595134347_rgbf000085-resize_0-target.png,250,3.3810000000000002,8,2363,251,meters,jsons/v1_VE250_randls_12_rotated.json,493461,767316,44,Woman
122,127930,DepthScenes,duration_manipulation_targetAtFixation,jsons/v1_VE250_randls_12_rotated.json,http://54.235.29.9/FacialAge/BNav_EC2/DepthDuration/v2_depth_duration_MTurk/v2_DepthDuration_HTML.html#20,20,1440,789,1440,900,8-20-2022,10-57-38,123,depth_duration_stimuli/002660_2014-06-13_15-44-18_094959634447_rgbf001878-resize_2/002660_2014-06-13_15-44-18_094959634447_rgbf001878-resize_2-target.png,250,3.576,9,2411,250,meters,jsons/v1_VE250_randls_12_rotated.json,493461,767316,44,Woman
123,127930,DepthScenes,duration_manipulation_targetAtFixation,jsons/v1_VE250_randls_12_rotated.json,http://54.235.29.9/FacialAge/BNav_EC2/DepthDuration/v2_depth_duration_MTurk/v2_DepthDuration_HTML.html#20,20,1440,789,1440,900,8-20-2022,10-57-38,124,depth_duration_stimuli/002153_2014-06-25_21-27-18_260595134347_rgbf000038-resize_5/002153_2014-06-25_21-27-18_260595134347_rgbf000038-resize_5-target.png,250,2.505,8,2291,249,meters,jsons/v1_VE250_randls_12_rotated.json,493461,767316,44,Woman
124,127930,DepthScenes,duration_manipulation_targetAtFixation,jsons/v1_VE250_randls_12_rotated.json,http://54.235.29.9/FacialAge/BNav_EC2/DepthDuration/v2_depth_duration_MTurk/v2_DepthDuration_HTML.html#20,20,1440,789,1440,900,8-20-2022,10-57-38,125,depth_duration_stimuli/000709_2014-06-08_13-51-55_260595134347_rgbf000068-resize_3/000709_2014-06-08_13-51-55_260595134347_rgbf000068-resize_3-target.png,250,1.8030000000000002,11,2370,251,meters,jsons/v1_VE250_randls_12_rotated.json,493461,767316,44,Woman
125,127930,DepthScenes,duration_manipulation_targetAtFixation,jsons/v1_VE250_randls_12_rotated.json,http://54.235.29.9/FacialAge/BNav_EC2/DepthDuration/v2_depth_duration_MTurk/v2_DepthDuration_HTML.html#20,20,1440,789,1440,900,8-20-2022,10-57-38,126,depth_duration_stimuli/002057_2014-06-24_21-00-13_260595134347_rgbf000120-resize_1/002057_2014-06-24_21-00-13_260595134347_rgbf000120-resize_1-target.png,250,2.967,4,2196,250,meters,jsons/v1_VE250_randls_12_rotated.json,493461,767316,44,Woman
126,127930,DepthScenes,duration_manipulation_targetAtFixation,jsons/v1_VE250_randls_12_rotated.json,http://54.235.29.9/FacialAge/BNav_EC2/DepthDuration/v2_depth_duration_MTurk/v2_DepthDuration_HTML.html#20,20,1440,789,1440,900,8-20-2022,10-57-38,127,depth_duration_stimuli/000191_2014-05-12_17-07-38_260595134347_rgbf000199-resize_0/000191_2014-05-12_17-07-38_260595134347_rgbf000199-resize_0-target.png,250,3.7995,8,2179,251,meters,jsons/v1_VE250_randls_12_rotated.json,493461,767316,44,Woman
127,127930,DepthScenes,duration_manipulation_targetAtFixation,jsons/v1_VE250_randls_12_rotated.json,http://54.235.29.9/FacialAge/BNav_EC2/DepthDuration/v2_depth_duration_MTurk/v2_DepthDuration_HTML.html#20,20,1440,789,1440,900,8-20-2022,10-57-38,128,depth_duration_stimuli/000493_2014-06-09_21-01-18_260595134347_rgbf000196-resize_3/000493_2014-06-09_21-01-18_260595134347_rgbf000196-resize_3-target.png,250,3.44,9,2202,249,meters,jsons/v1_VE250_randls_12_rotated.json,493461,767316,44,Woman
128,127930,DepthScenes,duration_manipulation_targetAtFixation,jsons/v1_VE250_randls_12_rotated.json,http://54.235.29.9/FacialAge/BNav_EC2/DepthDuration/v2_depth_duration_MTurk/v2_DepthDuration_HTML.html#20,20,1440,789,1440,900,8-20-2022,10-57-38,129,depth_duration_stimuli/002340_2014-06-28_20-05-46_260595134347_rgbf000113-resize_0/002340_2014-06-28_20-05-46_260595134347_rgbf000113-resize_0-target.png,250,2.4735,4,2258,250,meters,jsons/v1_VE250_randls_12_rotated.json,493461,767316,44,Woman
129,127930,DepthScenes,duration_manipulation_targetAtFixation,jsons/v1_VE250_randls_12_rotated.json,http://54.235.29.9/FacialAge/BNav_EC2/DepthDuration/v2_depth_duration_MTurk/v2_DepthDuration_HTML.html#20,20,1440,789,1440,900,8-20-2022,10-57-38,130,depth_duration_stimuli/001016_2014-06-09_16-16-10_260595134347_rgbf000112-resize_5/001016_2014-06-09_16-16-10_260595134347_rgbf000112-resize_5-target.png,250,1.6565,7,2228,251,meters,jsons/v1_VE250_randls_12_rotated.json,493461,767316,44,Woman
130,127930,DepthScenes,duration_manipulation_targetAtFixation,jsons/v1_VE250_randls_12_rotated.json,http://54.235.29.9/FacialAge/BNav_EC2/DepthDuration/v2_depth_duration_MTurk/v2_DepthDuration_HTML.html#20,20,1440,789,1440,900,8-20-2022,10-57-38,131,depth_duration_stimuli/000691_2014-06-08_13-08-50_260595134347_rgbf000132-resize_3/000691_2014-06-08_13-08-50_260595134347_rgbf000132-resize_3-target.png,250,4.1530000000000005,8,2187,251,meters,jsons/v1_VE250_randls_12_rotated.json,493461,767316,44,Woman
131,127930,DepthScenes,duration_manipulation_targetAtFixation,jsons/v1_VE250_randls_12_rotated.json,http://54.235.29.9/FacialAge/BNav_EC2/DepthDuration/v2_depth_duration_MTurk/v2_DepthDuration_HTML.html#20,20,1440,789,1440,900,8-20-2022,10-57-38,132,depth_duration_stimuli/002213_2014-06-28_18-37-58_260595134347_rgbf000055-resize_1/002213_2014-06-28_18-37-58_260595134347_rgbf000055-resize_1-target.png,250,3.62,8,2163,250,meters,jsons/v1_VE250_randls_12_rotated.json,493461,767316,44,Woman
132,127930,DepthScenes,duration_manipulation_targetAtFixation,jsons/v1_VE250_randls_12_rotated.json,http://54.235.29.9/FacialAge/BNav_EC2/DepthDuration/v2_depth_duration_MTurk/v2_DepthDuration_HTML.html#20,20,1440,789,1440,900,8-20-2022,10-57-38,133,depth_duration_stimuli/000103_2014-05-14_22-01-17_260595134347_rgbf000152-resize_5/000103_2014-05-14_22-01-17_260595134347_rgbf000152-resize_5-target.png,250,1.993,9,2242,251,meters,jsons/v1_VE250_randls_12_rotated.json,493461,767316,44,Woman
133,127930,DepthScenes,duration_manipulation_targetAtFixation,jsons/v1_VE250_randls_12_rotated.json,http://54.235.29.9/FacialAge/BNav_EC2/DepthDuration/v2_depth_duration_MTurk/v2_DepthDuration_HTML.html#20,20,1440,789,1440,900,8-20-2022,10-57-38,134,depth_duration_stimuli/001555_2014-06-20_17-12-10_260595134347_rgbf000065-resize_4/001555_2014-06-20_17-12-10_260595134347_rgbf000065-resize_4-target.png,250,1.633,4,2315,251,meters,jsons/v1_VE250_randls_12_rotated.json,493461,767316,44,Woman
134,127930,DepthScenes,duration_manipulation_targetAtFixation,jsons/v1_VE250_randls_12_rotated.json,http://54.235.29.9/FacialAge/BNav_EC2/DepthDuration/v2_depth_duration_MTurk/v2_DepthDuration_HTML.html#20,20,1440,789,1440,900,8-20-2022,10-57-38,135,depth_duration_stimuli/000375_2014-06-08_11-17-29_260595134347_rgbf000133-resize_2/000375_2014-06-08_11-17-29_260595134347_rgbf000133-resize-original.jpg,250,4.718,0,1965,250,meters,jsons/v1_VE250_randls_12_rotated.json,493461,767316,44,Woman
135,127930,DepthScenes,duration_manipulation_targetAtFixation,jsons/v1_VE250_randls_12_rotated.json,http://54.235.29.9/FacialAge/BNav_EC2/DepthDuration/v2_depth_duration_MTurk/v2_DepthDuration_HTML.html#20,20,1440,789,1440,900,8-20-2022,10-57-38,136,depth_duration_stimuli/002103_2014-06-25_20-00-40_260595134347_rgbf000049-resize_0/002103_2014-06-25_20-00-40_260595134347_rgbf000049-resize_0-target.png,250,4.105,4,2050,251,meters,jsons/v1_VE250_randls_12_rotated.json,493461,767316,44,Woman
136,127930,DepthScenes,duration_manipulation_targetAtFixation,jsons/v1_VE250_randls_12_rotated.json,http://54.235.29.9/FacialAge/BNav_EC2/DepthDuration/v2_depth_duration_MTurk/v2_DepthDuration_HTML.html#20,20,1440,789,1440,900,8-20-2022,10-57-38,137,depth_duration_stimuli/002039_2014-06-24_20-22-38_260595134347_rgbf000084-resize_1/002039_2014-06-24_20-22-38_260595134347_rgbf000084-resize_1-target.png,250,4.408,5,3277,251,meters,jsons/v1_VE250_randls_12_rotated.json,493461,767316,44,Woman
137,127930,DepthScenes,duration_manipulation_targetAtFixation,jsons/v1_VE250_randls_12_rotated.json,http://54.235.29.9/FacialAge/BNav_EC2/DepthDuration/v2_depth_duration_MTurk/v2_DepthDuration_HTML.html#20,20,1440,789,1440,900,8-20-2022,10-57-38,138,depth_duration_stimuli/003079_2014-06-15_15-18-20_094959634447_rgbf000152-resize_8/003079_2014-06-15_15-18-20_094959634447_rgbf000152-resize_8-target.png,250,2.8775,7,2179,251,meters,jsons/v1_VE250_randls_12_rotated.json,493461,767316,44,Woman
138,127930,DepthScenes,duration_manipulation_targetAtFixation,jsons/v1_VE250_randls_12_rotated.json,http://54.235.29.9/FacialAge/BNav_EC2/DepthDuration/v2_depth_duration_MTurk/v2_DepthDuration_HTML.html#20,20,1440,789,1440,900,8-20-2022,10-57-38,139,depth_duration_stimuli/000506_2014-06-08_23-21-00_260595134347_rgbf000070-resize_7/000506_2014-06-08_23-21-00_260595134347_rgbf000070-resize_7-target.png,250,4.0585,8,2178,251,meters,jsons/v1_VE250_randls_12_rotated.json,493461,767316,44,Woman
139,127930,DepthScenes,duration_manipulation_targetAtFixation,jsons/v1_VE250_randls_12_rotated.json,http://54.235.29.9/FacialAge/BNav_EC2/DepthDuration/v2_depth_duration_MTurk/v2_DepthDuration_HTML.html#20,20,1440,789,1440,900,8-20-2022,10-57-38,140,depth_duration_stimuli/001214_2014-06-17_16-13-55_260595134347_rgbf000111-resize_0/001214_2014-06-17_16-13-55_260595134347_rgbf000111-resize_0-target.png,250,2.6505,8,1901,250,meters,jsons/v1_VE250_randls_12_rotated.json,493461,767316,44,Woman
140,127930,DepthScenes,duration_manipulation_targetAtFixation,jsons/v1_VE250_randls_12_rotated.json,http://54.235.29.9/FacialAge/BNav_EC2/DepthDuration/v2_depth_duration_MTurk/v2_DepthDuration_HTML.html#20,20,1440,789,1440,900,8-20-2022,10-57-38,141,depth_duration_stimuli/000810_2014-06-08_17-20-01_260595134347_rgbf000105-resize_0/000810_2014-06-08_17-20-01_260595134347_rgbf000105-resize_0-target.png,250,1.4865,66,2698,250,meters,jsons/v1_VE250_randls_12_rotated.json,493461,767316,44,Woman
141,127930,DepthScenes,duration_manipulation_targetAtFixation,jsons/v1_VE250_randls_12_rotated.json,http://54.235.29.9/FacialAge/BNav_EC2/DepthDuration/v2_depth_duration_MTurk/v2_DepthDuration_HTML.html#20,20,1440,789,1440,900,8-20-2022,10-57-38,142,depth_duration_stimuli/000635_2014-06-08_16-38-42_260595134347_rgbf000106-resize_1/000635_2014-06-08_16-38-42_260595134347_rgbf000106-resize_1-target.png,250,2.074,5,2315,249,meters,jsons/v1_VE250_randls_12_rotated.json,493461,767316,44,Woman
142,127930,DepthScenes,duration_manipulation_targetAtFixation,jsons/v1_VE250_randls_12_rotated.json,http://54.235.29.9/FacialAge/BNav_EC2/DepthDuration/v2_depth_duration_MTurk/v2_DepthDuration_HTML.html#20,20,1440,789,1440,900,8-20-2022,10-57-38,143,depth_duration_stimuli/002279_2014-06-28_18-55-32_260595134347_rgbf000040-resize_5/002279_2014-06-28_18-55-32_260595134347_rgbf000040-resize_5-target.png,250,1.5043333333333,4,2170,250,meters,jsons/v1_VE250_randls_12_rotated.json,493461,767316,44,Woman
143,127930,DepthScenes,duration_manipulation_targetAtFixation,jsons/v1_VE250_randls_12_rotated.json,http://54.235.29.9/FacialAge/BNav_EC2/DepthDuration/v2_depth_duration_MTurk/v2_DepthDuration_HTML.html#20,20,1440,789,1440,900,8-20-2022,10-57-38,144,depth_duration_stimuli/001094_2014-06-15_17-36-00_260595134347_rgbf000205-resize_0/001094_2014-06-15_17-36-00_260595134347_rgbf000205-resize_0-target.png,250,4.2175,8,2153,250,meters,jsons/v1_VE250_randls_12_rotated.json,493461,767316,44,Woman
144,127930,DepthScenes,duration_manipulation_targetAtFixation,jsons/v1_VE250_randls_12_rotated.json,http://54.235.29.9/FacialAge/BNav_EC2/DepthDuration/v2_depth_duration_MTurk/v2_DepthDuration_HTML.html#20,20,1440,789,1440,900,8-20-2022,10-57-38,145,depth_duration_stimuli/000692_2014-06-08_13-09-42_260595134347_rgbf000199-resize_2/000692_2014-06-08_13-09-42_260595134347_rgbf000199-resize_2-target.png,250,3.661,0,1837,250,meters,jsons/v1_VE250_randls_12_rotated.json,493461,767316,44,Woman
145,127930,DepthScenes,duration_manipulation_targetAtFixation,jsons/v1_VE250_randls_12_rotated.json,http://54.235.29.9/FacialAge/BNav_EC2/DepthDuration/v2_depth_duration_MTurk/v2_DepthDuration_HTML.html#20,20,1440,789,1440,900,8-20-2022,10-57-38,146,depth_duration_stimuli/003495_2014-05-21_16-01-51_094959634447_rgbf000100-resize_3/003495_2014-05-21_16-01-51_094959634447_rgbf000100-resize_3-target.png,250,1.6255,5,2105,251,meters,jsons/v1_VE250_randls_12_rotated.json,493461,767316,44,Woman
146,127930,DepthScenes,duration_manipulation_targetAtFixation,jsons/v1_VE250_randls_12_rotated.json,http://54.235.29.9/FacialAge/BNav_EC2/DepthDuration/v2_depth_duration_MTurk/v2_DepthDuration_HTML.html#20,20,1440,789,1440,900,8-20-2022,10-57-38,147,depth_duration_stimuli/001244_2014-06-17_16-47-45_260595134347_rgbf000030-resize_4/001244_2014-06-17_16-47-45_260595134347_rgbf000030-resize_4-target.png,250,2.0425,4,2106,250,meters,jsons/v1_VE250_randls_12_rotated.json,493461,767316,44,Woman
147,127930,DepthScenes,duration_manipulation_targetAtFixation,jsons/v1_VE250_randls_12_rotated.json,http://54.235.29.9/FacialAge/BNav_EC2/DepthDuration/v2_depth_duration_MTurk/v2_DepthDuration_HTML.html#20,20,1440,789,1440,900,8-20-2022,10-57-38,148,depth_duration_stimuli/003083_2014-06-15_15-21-03_094959634447_rgbf000063-resize_1/003083_2014-06-15_15-21-03_094959634447_rgbf000063-resize_1-target.png,250,4.1405,5,2203,251,meters,jsons/v1_VE250_randls_12_rotated.json,493461,767316,44,Woman
148,127930,DepthScenes,duration_manipulation_targetAtFixation,jsons/v1_VE250_randls_12_rotated.json,http://54.235.29.9/FacialAge/BNav_EC2/DepthDuration/v2_depth_duration_MTurk/v2_DepthDuration_HTML.html#20,20,1440,789,1440,900,8-20-2022,10-57-38,149,depth_duration_stimuli/000486_2014-06-09_20-47-20_260595134347_rgbf000143-resize_2/000486_2014-06-09_20-47-20_260595134347_rgbf000143-resize_2-target.png,250,4.8325,6,2195,251,meters,jsons/v1_VE250_randls_12_rotated.json,493461,767316,44,Woman
149,127930,DepthScenes,duration_manipulation_targetAtFixation,jsons/v1_VE250_randls_12_rotated.json,http://54.235.29.9/FacialAge/BNav_EC2/DepthDuration/v2_depth_duration_MTurk/v2_DepthDuration_HTML.html#20,20,1440,789,1440,900,8-20-2022,10-57-38,150,depth_duration_stimuli/002953_2014-06-08_17-32-18_094959634447_rgbf000059-resize_5/002953_2014-06-08_17-32-18_094959634447_rgbf000059-resize_5-target.png,250,1.551,8,2316,249,meters,jsons/v1_VE250_randls_12_rotated.json,493461,767316,44,Woman
150,127930,DepthScenes,duration_manipulation_targetAtFixation,jsons/v1_VE250_randls_12_rotated.json,http://54.235.29.9/FacialAge/BNav_EC2/DepthDuration/v2_depth_duration_MTurk/v2_DepthDuration_HTML.html#20,20,1440,789,1440,900,8-20-2022,10-57-38,151,depth_duration_stimuli/000878_2014-06-08_22-52-45_260595134347_rgbf000045-resize_2/000878_2014-06-08_22-52-45_260595134347_rgbf000045-resize_2-target.png,250,2.092,4,2370,251,meters,jsons/v1_VE250_randls_12_rotated.json,493461,767316,44,Woman
151,127930,DepthScenes,duration_manipulation_targetAtFixation,jsons/v1_VE250_randls_12_rotated.json,http://54.235.29.9/FacialAge/BNav_EC2/DepthDuration/v2_depth_duration_MTurk/v2_DepthDuration_HTML.html#20,20,1440,789,1440,900,8-20-2022,10-57-38,152,depth_duration_stimuli/000569_2014-06-09_22-51-47_260595134347_rgbf000141-resize_3/000569_2014-06-09_22-51-47_260595134347_rgbf000141-resize-original.jpg,250,4.512,0,1923,251,meters,jsons/v1_VE250_randls_12_rotated.json,493461,767316,44,Woman
152,127930,DepthScenes,duration_manipulation_targetAtFixation,jsons/v1_VE250_randls_12_rotated.json,http://54.235.29.9/FacialAge/BNav_EC2/DepthDuration/v2_depth_duration_MTurk/v2_DepthDuration_HTML.html#20,20,1440,789,1440,900,8-20-2022,10-57-38,153,depth_duration_stimuli/002323_2014-06-28_20-01-54_260595134347_rgbf000051-resize_4/002323_2014-06-28_20-01-54_260595134347_rgbf000051-resize_4-target.png,250,3.7310000000000003,5,2010,251,meters,jsons/v1_VE250_randls_12_rotated.json,493461,767316,44,Woman
153,127930,DepthScenes,duration_manipulation_targetAtFixation,jsons/v1_VE250_randls_12_rotated.json,http://54.235.29.9/FacialAge/BNav_EC2/DepthDuration/v2_depth_duration_MTurk/v2_DepthDuration_HTML.html#20,20,1440,789,1440,900,8-20-2022,10-57-38,154,depth_duration_stimuli/000917_2014-06-09_22-45-29_260595134347_rgbf000149-resize_3/000917_2014-06-09_22-45-29_260595134347_rgbf000149-resize_3-target.png,250,4.1865,6,2155,251,meters,jsons/v1_VE250_randls_12_rotated.json,493461,767316,44,Woman
154,127930,DepthScenes,duration_manipulation_targetAtFixation,jsons/v1_VE250_randls_12_rotated.json,http://54.235.29.9/FacialAge/BNav_EC2/DepthDuration/v2_depth_duration_MTurk/v2_DepthDuration_HTML.html#20,20,1440,789,1440,900,8-20-2022,10-57-38,155,depth_duration_stimuli/003048_2014-06-15_13-49-43_094959634447_rgbf000150-resize_1/003048_2014-06-15_13-49-43_094959634447_rgbf000150-resize_1-target.png,250,4.0035,11,2387,249,meters,jsons/v1_VE250_randls_12_rotated.json,493461,767316,44,Woman
155,127930,DepthScenes,duration_manipulation_targetAtFixation,jsons/v1_VE250_randls_12_rotated.json,http://54.235.29.9/FacialAge/BNav_EC2/DepthDuration/v2_depth_duration_MTurk/v2_DepthDuration_HTML.html#20,20,1440,789,1440,900,8-20-2022,10-57-38,156,depth_duration_stimuli/002043_2014-06-24_20-29-38_260595134347_rgbf000039-resize_4/002043_2014-06-24_20-29-38_260595134347_rgbf000039-resize_4-target.png,250,2.8435,5,2204,251,meters,jsons/v1_VE250_randls_12_rotated.json,493461,767316,44,Woman
156,127930,DepthScenes,duration_manipulation_targetAtFixation,jsons/v1_VE250_randls_12_rotated.json,http://54.235.29.9/FacialAge/BNav_EC2/DepthDuration/v2_depth_duration_MTurk/v2_DepthDuration_HTML.html#20,20,1440,789,1440,900,8-20-2022,10-57-38,157,depth_duration_stimuli/000749_2014-06-08_21-55-06_260595134347_rgbf000070-resize_2/000749_2014-06-08_21-55-06_260595134347_rgbf000070-resize_2-target.png,250,2.331,6,2459,250,meters,jsons/v1_VE250_randls_12_rotated.json,493461,767316,44,Woman
157,127930,DepthScenes,duration_manipulation_targetAtFixation,jsons/v1_VE250_randls_12_rotated.json,http://54.235.29.9/FacialAge/BNav_EC2/DepthDuration/v2_depth_duration_MTurk/v2_DepthDuration_HTML.html#20,20,1440,789,1440,900,8-20-2022,10-57-38,158,depth_duration_stimuli/002788_2014-06-22_19-36-03_094959634447_rgbf000088-resize_2/002788_2014-06-22_19-36-03_094959634447_rgbf000088-resize_2-target.png,250,1.6465,4,2173,250,meters,jsons/v1_VE250_randls_12_rotated.json,493461,767316,44,Woman
158,127930,DepthScenes,duration_manipulation_targetAtFixation,jsons/v1_VE250_randls_12_rotated.json,http://54.235.29.9/FacialAge/BNav_EC2/DepthDuration/v2_depth_duration_MTurk/v2_DepthDuration_HTML.html#20,20,1440,789,1440,900,8-20-2022,10-57-38,159,depth_duration_stimuli/001136_2014-06-17_15-19-41_260595134347_rgbf000076-resize_3/001136_2014-06-17_15-19-41_260595134347_rgbf000076-resize_3-target.png,250,1.8655,8,2139,250,meters,jsons/v1_VE250_randls_12_rotated.json,493461,767316,44,Woman
159,127930,DepthScenes,duration_manipulation_targetAtFixation,jsons/v1_VE250_randls_12_rotated.json,http://54.235.29.9/FacialAge/BNav_EC2/DepthDuration/v2_depth_duration_MTurk/v2_DepthDuration_HTML.html#20,20,1440,789,1440,900,8-20-2022,10-57-38,160,depth_duration_stimuli/001164_2014-06-17_15-35-46_260595134347_rgbf000085-resize_3/001164_2014-06-17_15-35-46_260595134347_rgbf000085-resize_3-target.png,250,2.354,8,2027,250,meters,jsons/v1_VE250_randls_12_rotated.json,493461,767316,44,Woman
160,127930,DepthScenes,duration_manipulation_targetAtFixation,jsons/v1_VE250_randls_12_rotated.json,http://54.235.29.9/FacialAge/BNav_EC2/DepthDuration/v2_depth_duration_MTurk/v2_DepthDuration_HTML.html#20,20,1440,789,1440,900,8-20-2022,10-57-38,161,depth_duration_stimuli/003010_2014-06-15_12-54-35_094959634447_rgbf000112-resize_0/003010_2014-06-15_12-54-35_094959634447_rgbf000112-resize_0-target.png,250,3.1185,12,2705,249,meters,jsons/v1_VE250_randls_12_rotated.json,493461,767316,44,Woman
161,127930,DepthScenes,duration_manipulation_targetAtFixation,jsons/v1_VE250_randls_12_rotated.json,http://54.235.29.9/FacialAge/BNav_EC2/DepthDuration/v2_depth_duration_MTurk/v2_DepthDuration_HTML.html#20,20,1440,789,1440,900,8-20-2022,10-57-38,162,depth_duration_stimuli/001810_2014-06-26_20-51-35_260595134347_rgbf000040-resize_3/001810_2014-06-26_20-51-35_260595134347_rgbf000040-resize_3-target.png,250,2.2525,22,2266,251,meters,jsons/v1_VE250_randls_12_rotated.json,493461,767316,44,Woman
162,127930,DepthScenes,duration_manipulation_targetAtFixation,jsons/v1_VE250_randls_12_rotated.json,http://54.235.29.9/FacialAge/BNav_EC2/DepthDuration/v2_depth_duration_MTurk/v2_DepthDuration_HTML.html#20,20,1440,789,1440,900,8-20-2022,10-57-38,163,depth_duration_stimuli/000665_2014-06-09_20-42-35_260595134347_rgbf000110-resize_1/000665_2014-06-09_20-42-35_260595134347_rgbf000110-resize_1-target.png,250,3.057,5,2011,251,meters,jsons/v1_VE250_randls_12_rotated.json,493461,767316,44,Woman
163,127930,DepthScenes,duration_manipulation_targetAtFixation,jsons/v1_VE250_randls_12_rotated.json,http://54.235.29.9/FacialAge/BNav_EC2/DepthDuration/v2_depth_duration_MTurk/v2_DepthDuration_HTML.html#20,20,1440,789,1440,900,8-20-2022,10-57-38,164,depth_duration_stimuli/001150_2014-06-17_15-27-34_260595134347_rgbf000108-resize_2/001150_2014-06-17_15-27-34_260595134347_rgbf000108-resize_2-target.png,250,4.0325,4,2139,249,meters,jsons/v1_VE250_randls_12_rotated.json,493461,767316,44,Woman
