,subjID,experimentName,versionName,sequenceName,url,selected_row,windowWidth,windowHeight,screenWidth,screenHeight,startDate,startTime,trial,stimulus,duration,actual_depth,depth_estimate,trial_RT,log_sceneDuration,unitSelection,seq_filepath,experimentTime,totalTime,age,gender
0,128077,DepthScenes,duration_manipulation_targetAtFixation,jsons/v1_VE250_randls_59.json,http://54.235.29.9/FacialAge/BNav_EC2/DepthDuration/v2_depth_duration_MTurk/v2_DepthDuration_HTML.html#1,1,1517,694,1366,768,9-3-2022,6-14-19,1,depth_duration_stimuli/000736_2014-06-08_18-24-15_260595134347_rgbf000206-resize_3/000736_2014-06-08_18-24-15_260595134347_rgbf000206-resize_3-target.png,250,3.515,4,6352,250,meters,jsons/v1_VE250_randls_59.json,579394,921378,49,Woman
1,128077,DepthScenes,duration_manipulation_targetAtFixation,jsons/v1_VE250_randls_59.json,http://54.235.29.9/FacialAge/BNav_EC2/DepthDuration/v2_depth_duration_MTurk/v2_DepthDuration_HTML.html#1,1,1517,694,1366,768,9-3-2022,6-14-19,2,depth_duration_stimuli/000137_2014-05-20_17-04-49_260595134347_rgbf000120-resize_1/000137_2014-05-20_17-04-49_260595134347_rgbf000120-resize_1-target.png,250,3.786,5,2660,250,meters,jsons/v1_VE250_randls_59.json,579394,921378,49,Woman
2,128077,DepthScenes,duration_manipulation_targetAtFixation,jsons/v1_VE250_randls_59.json,http://54.235.29.9/FacialAge/BNav_EC2/DepthDuration/v2_depth_duration_MTurk/v2_DepthDuration_HTML.html#1,1,1517,694,1366,768,9-3-2022,6-14-19,3,depth_duration_stimuli/003534_2014-05-22_15-06-10_094959634447_rgbf000102-resize_4/003534_2014-05-22_15-06-10_094959634447_rgbf000102-resize_4-target.png,250,1.426,3,2459,237,meters,jsons/v1_VE250_randls_59.json,579394,921378,49,Woman
3,128077,DepthScenes,duration_manipulation_targetAtFixation,jsons/v1_VE250_randls_59.json,http://54.235.29.9/FacialAge/BNav_EC2/DepthDuration/v2_depth_duration_MTurk/v2_DepthDuration_HTML.html#1,1,1517,694,1366,768,9-3-2022,6-14-19,4,depth_duration_stimuli/002637_2014-06-24_14-51-13_094959634447_rgbf000066-resize_4/002637_2014-06-24_14-51-13_094959634447_rgbf000066-resize_4-target.png,250,1.9955,5,2488,244,meters,jsons/v1_VE250_randls_59.json,579394,921378,49,Woman
4,128077,DepthScenes,duration_manipulation_targetAtFixation,jsons/v1_VE250_randls_59.json,http://54.235.29.9/FacialAge/BNav_EC2/DepthDuration/v2_depth_duration_MTurk/v2_DepthDuration_HTML.html#1,1,1517,694,1366,768,9-3-2022,6-14-19,5,depth_duration_stimuli/000878_2014-06-08_22-52-45_260595134347_rgbf000045-resize_2/000878_2014-06-08_22-52-45_260595134347_rgbf000045-resize_2-target.png,250,2.092,8,3434,250,meters,jsons/v1_VE250_randls_59.json,579394,921378,49,Woman
5,128077,DepthScenes,duration_manipulation_targetAtFixation,jsons/v1_VE250_randls_59.json,http://54.235.29.9/FacialAge/BNav_EC2/DepthDuration/v2_depth_duration_MTurk/v2_DepthDuration_HTML.html#1,1,1517,694,1366,768,9-3-2022,6-14-19,6,depth_duration_stimuli/002953_2014-06-08_17-32-18_094959634447_rgbf000059-resize_5/002953_2014-06-08_17-32-18_094959634447_rgbf000059-resize_5-target.png,250,1.551,4,2708,244,meters,jsons/v1_VE250_randls_59.json,579394,921378,49,Woman
6,128077,DepthScenes,duration_manipulation_targetAtFixation,jsons/v1_VE250_randls_59.json,http://54.235.29.9/FacialAge/BNav_EC2/DepthDuration/v2_depth_duration_MTurk/v2_DepthDuration_HTML.html#1,1,1517,694,1366,768,9-3-2022,6-14-19,7,depth_duration_stimuli/000436_2014-06-09_22-25-11_260595134347_rgbf000137-resize_1/000436_2014-06-09_22-25-11_260595134347_rgbf000137-resize_1-target.png,250,4.0705,9,2377,245,meters,jsons/v1_VE250_randls_59.json,579394,921378,49,Woman
7,128077,DepthScenes,duration_manipulation_targetAtFixation,jsons/v1_VE250_randls_59.json,http://54.235.29.9/FacialAge/BNav_EC2/DepthDuration/v2_depth_duration_MTurk/v2_DepthDuration_HTML.html#1,1,1517,694,1366,768,9-3-2022,6-14-19,8,depth_duration_stimuli/002444_2014-06-28_20-32-08_260595134347_rgbf000027-resize_0/002444_2014-06-28_20-32-08_260595134347_rgbf000027-resize_0-target.png,250,4.388999999999999,7,3721,251,meters,jsons/v1_VE250_randls_59.json,579394,921378,49,Woman
8,128077,DepthScenes,duration_manipulation_targetAtFixation,jsons/v1_VE250_randls_59.json,http://54.235.29.9/FacialAge/BNav_EC2/DepthDuration/v2_depth_duration_MTurk/v2_DepthDuration_HTML.html#1,1,1517,694,1366,768,9-3-2022,6-14-19,9,depth_duration_stimuli/001066_2014-06-08_22-03-20_260595134347_rgbf000066-resize_4/001066_2014-06-08_22-03-20_260595134347_rgbf000066-resize_4-target.png,250,4.2330000000000005,9,2674,261,meters,jsons/v1_VE250_randls_59.json,579394,921378,49,Woman
9,128077,DepthScenes,duration_manipulation_targetAtFixation,jsons/v1_VE250_randls_59.json,http://54.235.29.9/FacialAge/BNav_EC2/DepthDuration/v2_depth_duration_MTurk/v2_DepthDuration_HTML.html#1,1,1517,694,1366,768,9-3-2022,6-14-19,10,depth_duration_stimuli/000742_2014-06-08_18-48-09_260595134347_rgbf000164-resize_4/000742_2014-06-08_18-48-09_260595134347_rgbf000164-resize_4-target.png,250,4.632,6,2450,237,meters,jsons/v1_VE250_randls_59.json,579394,921378,49,Woman
10,128077,DepthScenes,duration_manipulation_targetAtFixation,jsons/v1_VE250_randls_59.json,http://54.235.29.9/FacialAge/BNav_EC2/DepthDuration/v2_depth_duration_MTurk/v2_DepthDuration_HTML.html#1,1,1517,694,1366,768,9-3-2022,6-14-19,11,depth_duration_stimuli/001808_2014-06-26_20-50-58_260595134347_rgbf000029-resize_1/001808_2014-06-26_20-50-58_260595134347_rgbf000029-resize_1-target.png,250,4.249,7,2533,241,meters,jsons/v1_VE250_randls_59.json,579394,921378,49,Woman
11,128077,DepthScenes,duration_manipulation_targetAtFixation,jsons/v1_VE250_randls_59.json,http://54.235.29.9/FacialAge/BNav_EC2/DepthDuration/v2_depth_duration_MTurk/v2_DepthDuration_HTML.html#1,1,1517,694,1366,768,9-3-2022,6-14-19,12,depth_duration_stimuli/001815_2014-06-26_20-52-55_260595134347_rgbf000020-resize_0/001815_2014-06-26_20-52-55_260595134347_rgbf000020-resize_0-target.png,250,3.3865,9,2279,246,meters,jsons/v1_VE250_randls_59.json,579394,921378,49,Woman
12,128077,DepthScenes,duration_manipulation_targetAtFixation,jsons/v1_VE250_randls_59.json,http://54.235.29.9/FacialAge/BNav_EC2/DepthDuration/v2_depth_duration_MTurk/v2_DepthDuration_HTML.html#1,1,1517,694,1366,768,9-3-2022,6-14-19,13,depth_duration_stimuli/000569_2014-06-09_22-51-47_260595134347_rgbf000141-resize_3/000569_2014-06-09_22-51-47_260595134347_rgbf000141-resize-original.jpg,250,4.512,0,3225,248,meters,jsons/v1_VE250_randls_59.json,579394,921378,49,Woman
13,128077,DepthScenes,duration_manipulation_targetAtFixation,jsons/v1_VE250_randls_59.json,http://54.235.29.9/FacialAge/BNav_EC2/DepthDuration/v2_depth_duration_MTurk/v2_DepthDuration_HTML.html#1,1,1517,694,1366,768,9-3-2022,6-14-19,14,depth_duration_stimuli/001016_2014-06-09_16-16-10_260595134347_rgbf000112-resize_5/001016_2014-06-09_16-16-10_260595134347_rgbf000112-resize_5-target.png,250,1.6565,6,2734,252,meters,jsons/v1_VE250_randls_59.json,579394,921378,49,Woman
14,128077,DepthScenes,duration_manipulation_targetAtFixation,jsons/v1_VE250_randls_59.json,http://54.235.29.9/FacialAge/BNav_EC2/DepthDuration/v2_depth_duration_MTurk/v2_DepthDuration_HTML.html#1,1,1517,694,1366,768,9-3-2022,6-14-19,15,depth_duration_stimuli/002340_2014-06-28_20-05-46_260595134347_rgbf000113-resize_0/002340_2014-06-28_20-05-46_260595134347_rgbf000113-resize_0-target.png,250,2.4735,8,2595,236,meters,jsons/v1_VE250_randls_59.json,579394,921378,49,Woman
15,128077,DepthScenes,duration_manipulation_targetAtFixation,jsons/v1_VE250_randls_59.json,http://54.235.29.9/FacialAge/BNav_EC2/DepthDuration/v2_depth_duration_MTurk/v2_DepthDuration_HTML.html#1,1,1517,694,1366,768,9-3-2022,6-14-19,16,depth_duration_stimuli/002748_2014-06-22_19-07-22_094959634447_rgbf000078-resize_1/002748_2014-06-22_19-07-22_094959634447_rgbf000078-resize_1-target.png,250,4.6705,12,3769,248,meters,jsons/v1_VE250_randls_59.json,579394,921378,49,Woman
16,128077,DepthScenes,duration_manipulation_targetAtFixation,jsons/v1_VE250_randls_59.json,http://54.235.29.9/FacialAge/BNav_EC2/DepthDuration/v2_depth_duration_MTurk/v2_DepthDuration_HTML.html#1,1,1517,694,1366,768,9-3-2022,6-14-19,17,depth_duration_stimuli/002995_2014-06-15_12-31-26_094959634447_rgbf000150-resize_1/002995_2014-06-15_12-31-26_094959634447_rgbf000150-resize_1-target.png,250,3.8360000000000003,9,2397,248,meters,jsons/v1_VE250_randls_59.json,579394,921378,49,Woman
17,128077,DepthScenes,duration_manipulation_targetAtFixation,jsons/v1_VE250_randls_59.json,http://54.235.29.9/FacialAge/BNav_EC2/DepthDuration/v2_depth_duration_MTurk/v2_DepthDuration_HTML.html#1,1,1517,694,1366,768,9-3-2022,6-14-19,18,depth_duration_stimuli/000682_2014-06-08_23-14-58_260595134347_rgbf000041-resize_5/000682_2014-06-08_23-14-58_260595134347_rgbf000041-resize_5-target.png,250,2.7239999999999998,9,2242,248,meters,jsons/v1_VE250_randls_59.json,579394,921378,49,Woman
18,128077,DepthScenes,duration_manipulation_targetAtFixation,jsons/v1_VE250_randls_59.json,http://54.235.29.9/FacialAge/BNav_EC2/DepthDuration/v2_depth_duration_MTurk/v2_DepthDuration_HTML.html#1,1,1517,694,1366,768,9-3-2022,6-14-19,19,depth_duration_stimuli/001650_2014-06-20_12-09-00_260595134347_rgbf000087-resize_3/001650_2014-06-20_12-09-00_260595134347_rgbf000087-resize_3-target.png,250,1.9505,6,3205,239,meters,jsons/v1_VE250_randls_59.json,579394,921378,49,Woman
19,128077,DepthScenes,duration_manipulation_targetAtFixation,jsons/v1_VE250_randls_59.json,http://54.235.29.9/FacialAge/BNav_EC2/DepthDuration/v2_depth_duration_MTurk/v2_DepthDuration_HTML.html#1,1,1517,694,1366,768,9-3-2022,6-14-19,20,depth_duration_stimuli/001167_2014-06-17_15-38-07_260595134347_rgbf000108-resize_0/001167_2014-06-17_15-38-07_260595134347_rgbf000108-resize_0-target.png,250,1.8505,6,2370,241,meters,jsons/v1_VE250_randls_59.json,579394,921378,49,Woman
20,128077,DepthScenes,duration_manipulation_targetAtFixation,jsons/v1_VE250_randls_59.json,http://54.235.29.9/FacialAge/BNav_EC2/DepthDuration/v2_depth_duration_MTurk/v2_DepthDuration_HTML.html#1,1,1517,694,1366,768,9-3-2022,6-14-19,21,depth_duration_stimuli/003587_2014-05-23_16-48-02_094959634447_rgbf002384-resize_2/003587_2014-05-23_16-48-02_094959634447_rgbf002384-resize_2-target.png,250,1.357,5,2947,239,meters,jsons/v1_VE250_randls_59.json,579394,921378,49,Woman
21,128077,DepthScenes,duration_manipulation_targetAtFixation,jsons/v1_VE250_randls_59.json,http://54.235.29.9/FacialAge/BNav_EC2/DepthDuration/v2_depth_duration_MTurk/v2_DepthDuration_HTML.html#1,1,1517,694,1366,768,9-3-2022,6-14-19,22,depth_duration_stimuli/002375_2014-06-28_20-13-44_260595134347_rgbf000032-resize_1/002375_2014-06-28_20-13-44_260595134347_rgbf000032-resize_1-target.png,250,4.0175,6,2382,243,meters,jsons/v1_VE250_randls_59.json,579394,921378,49,Woman
22,128077,DepthScenes,duration_manipulation_targetAtFixation,jsons/v1_VE250_randls_59.json,http://54.235.29.9/FacialAge/BNav_EC2/DepthDuration/v2_depth_duration_MTurk/v2_DepthDuration_HTML.html#1,1,1517,694,1366,768,9-3-2022,6-14-19,23,depth_duration_stimuli/002657_2014-06-13_15-29-54_094959634447_rgbf000150-resize_1/002657_2014-06-13_15-29-54_094959634447_rgbf000150-resize_1-target.png,250,4.919,8,2856,252,meters,jsons/v1_VE250_randls_59.json,579394,921378,49,Woman
23,128077,DepthScenes,duration_manipulation_targetAtFixation,jsons/v1_VE250_randls_59.json,http://54.235.29.9/FacialAge/BNav_EC2/DepthDuration/v2_depth_duration_MTurk/v2_DepthDuration_HTML.html#1,1,1517,694,1366,768,9-3-2022,6-14-19,24,depth_duration_stimuli/001199_2014-06-17_16-03-48_260595134347_rgbf000077-resize_0/001199_2014-06-17_16-03-48_260595134347_rgbf000077-resize_0-target.png,250,3.4375,6,8083,241,meters,jsons/v1_VE250_randls_59.json,579394,921378,49,Woman
24,128077,DepthScenes,duration_manipulation_targetAtFixation,jsons/v1_VE250_randls_59.json,http://54.235.29.9/FacialAge/BNav_EC2/DepthDuration/v2_depth_duration_MTurk/v2_DepthDuration_HTML.html#1,1,1517,694,1366,768,9-3-2022,6-14-19,25,depth_duration_stimuli/000502_2014-06-08_23-02-32_260595134347_rgbf000063-resize_4/000502_2014-06-08_23-02-32_260595134347_rgbf000063-resize_4-target.png,250,2.431,6,2486,252,meters,jsons/v1_VE250_randls_59.json,579394,921378,49,Woman
25,128077,DepthScenes,duration_manipulation_targetAtFixation,jsons/v1_VE250_randls_59.json,http://54.235.29.9/FacialAge/BNav_EC2/DepthDuration/v2_depth_duration_MTurk/v2_DepthDuration_HTML.html#1,1,1517,694,1366,768,9-3-2022,6-14-19,26,depth_duration_stimuli/001164_2014-06-17_15-35-46_260595134347_rgbf000085-resize_3/001164_2014-06-17_15-35-46_260595134347_rgbf000085-resize_3-target.png,250,2.354,7,3648,264,meters,jsons/v1_VE250_randls_59.json,579394,921378,49,Woman
26,128077,DepthScenes,duration_manipulation_targetAtFixation,jsons/v1_VE250_randls_59.json,http://54.235.29.9/FacialAge/BNav_EC2/DepthDuration/v2_depth_duration_MTurk/v2_DepthDuration_HTML.html#1,1,1517,694,1366,768,9-3-2022,6-14-19,27,depth_duration_stimuli/001136_2014-06-17_15-19-41_260595134347_rgbf000076-resize_3/001136_2014-06-17_15-19-41_260595134347_rgbf000076-resize_3-target.png,250,1.8655,5,2444,263,meters,jsons/v1_VE250_randls_59.json,579394,921378,49,Woman
27,128077,DepthScenes,duration_manipulation_targetAtFixation,jsons/v1_VE250_randls_59.json,http://54.235.29.9/FacialAge/BNav_EC2/DepthDuration/v2_depth_duration_MTurk/v2_DepthDuration_HTML.html#1,1,1517,694,1366,768,9-3-2022,6-14-19,28,depth_duration_stimuli/002213_2014-06-28_18-37-58_260595134347_rgbf000055-resize_1/002213_2014-06-28_18-37-58_260595134347_rgbf000055-resize_1-target.png,250,3.62,9,2710,245,meters,jsons/v1_VE250_randls_59.json,579394,921378,49,Woman
28,128077,DepthScenes,duration_manipulation_targetAtFixation,jsons/v1_VE250_randls_59.json,http://54.235.29.9/FacialAge/BNav_EC2/DepthDuration/v2_depth_duration_MTurk/v2_DepthDuration_HTML.html#1,1,1517,694,1366,768,9-3-2022,6-14-19,29,depth_duration_stimuli/000691_2014-06-08_13-08-50_260595134347_rgbf000132-resize_3/000691_2014-06-08_13-08-50_260595134347_rgbf000132-resize_3-target.png,250,4.1530000000000005,12,4402,250,meters,jsons/v1_VE250_randls_59.json,579394,921378,49,Woman
29,128077,DepthScenes,duration_manipulation_targetAtFixation,jsons/v1_VE250_randls_59.json,http://54.235.29.9/FacialAge/BNav_EC2/DepthDuration/v2_depth_duration_MTurk/v2_DepthDuration_HTML.html#1,1,1517,694,1366,768,9-3-2022,6-14-19,30,depth_duration_stimuli/000375_2014-06-08_11-17-29_260595134347_rgbf000133-resize_2/000375_2014-06-08_11-17-29_260595134347_rgbf000133-resize-original.jpg,250,4.718,0,3009,242,meters,jsons/v1_VE250_randls_59.json,579394,921378,49,Woman
30,128077,DepthScenes,duration_manipulation_targetAtFixation,jsons/v1_VE250_randls_59.json,http://54.235.29.9/FacialAge/BNav_EC2/DepthDuration/v2_depth_duration_MTurk/v2_DepthDuration_HTML.html#1,1,1517,694,1366,768,9-3-2022,6-14-19,31,depth_duration_stimuli/001110_2014-06-15_17-25-28_260595134347_rgbf000150-resize_1/001110_2014-06-15_17-25-28_260595134347_rgbf000150-resize_1-target.png,250,1.7115,5,2538,240,meters,jsons/v1_VE250_randls_59.json,579394,921378,49,Woman
31,128077,DepthScenes,duration_manipulation_targetAtFixation,jsons/v1_VE250_randls_59.json,http://54.235.29.9/FacialAge/BNav_EC2/DepthDuration/v2_depth_duration_MTurk/v2_DepthDuration_HTML.html#1,1,1517,694,1366,768,9-3-2022,6-14-19,32,depth_duration_stimuli/000927_2014-06-09_16-32-30_260595134347_rgbf000123-resize_3/000927_2014-06-09_16-32-30_260595134347_rgbf000123-resize_3-target.png,250,2.6785,0,3996,243,meters,jsons/v1_VE250_randls_59.json,579394,921378,49,Woman
32,128077,DepthScenes,duration_manipulation_targetAtFixation,jsons/v1_VE250_randls_59.json,http://54.235.29.9/FacialAge/BNav_EC2/DepthDuration/v2_depth_duration_MTurk/v2_DepthDuration_HTML.html#1,1,1517,694,1366,768,9-3-2022,6-14-19,33,depth_duration_stimuli/003070_2014-06-15_14-58-27_094959634447_rgbf000150-resize_3/003070_2014-06-15_14-58-27_094959634447_rgbf000150-resize_3-target.png,250,2.9415,7,4545,239,meters,jsons/v1_VE250_randls_59.json,579394,921378,49,Woman
33,128077,DepthScenes,duration_manipulation_targetAtFixation,jsons/v1_VE250_randls_59.json,http://54.235.29.9/FacialAge/BNav_EC2/DepthDuration/v2_depth_duration_MTurk/v2_DepthDuration_HTML.html#1,1,1517,694,1366,768,9-3-2022,6-14-19,34,depth_duration_stimuli/000943_2014-06-09_19-31-07_260595134347_rgbf000128-resize_1/000943_2014-06-09_19-31-07_260595134347_rgbf000128-resize_1-target.png,250,1.9765,7,2269,256,meters,jsons/v1_VE250_randls_59.json,579394,921378,49,Woman
34,128077,DepthScenes,duration_manipulation_targetAtFixation,jsons/v1_VE250_randls_59.json,http://54.235.29.9/FacialAge/BNav_EC2/DepthDuration/v2_depth_duration_MTurk/v2_DepthDuration_HTML.html#1,1,1517,694,1366,768,9-3-2022,6-14-19,35,depth_duration_stimuli/001449_2014-06-19_17-01-27_260595134347_rgbf000116-resize_2/001449_2014-06-19_17-01-27_260595134347_rgbf000116-resize_2-target.png,250,3.452,6,2877,245,meters,jsons/v1_VE250_randls_59.json,579394,921378,49,Woman
35,128077,DepthScenes,duration_manipulation_targetAtFixation,jsons/v1_VE250_randls_59.json,http://54.235.29.9/FacialAge/BNav_EC2/DepthDuration/v2_depth_duration_MTurk/v2_DepthDuration_HTML.html#1,1,1517,694,1366,768,9-3-2022,6-14-19,36,depth_duration_stimuli/001450_2014-06-19_17-02-03_260595134347_rgbf000203-resize_4/001450_2014-06-19_17-02-03_260595134347_rgbf000203-resize_4-target.png,250,4.0106666666667,7,2678,254,meters,jsons/v1_VE250_randls_59.json,579394,921378,49,Woman
36,128077,DepthScenes,duration_manipulation_targetAtFixation,jsons/v1_VE250_randls_59.json,http://54.235.29.9/FacialAge/BNav_EC2/DepthDuration/v2_depth_duration_MTurk/v2_DepthDuration_HTML.html#1,1,1517,694,1366,768,9-3-2022,6-14-19,37,depth_duration_stimuli/001150_2014-06-17_15-27-34_260595134347_rgbf000108-resize_2/001150_2014-06-17_15-27-34_260595134347_rgbf000108-resize_2-target.png,250,4.0325,8,2321,251,meters,jsons/v1_VE250_randls_59.json,579394,921378,49,Woman
37,128077,DepthScenes,duration_manipulation_targetAtFixation,jsons/v1_VE250_randls_59.json,http://54.235.29.9/FacialAge/BNav_EC2/DepthDuration/v2_depth_duration_MTurk/v2_DepthDuration_HTML.html#1,1,1517,694,1366,768,9-3-2022,6-14-19,38,depth_duration_stimuli/000665_2014-06-09_20-42-35_260595134347_rgbf000110-resize_1/000665_2014-06-09_20-42-35_260595134347_rgbf000110-resize_1-target.png,250,3.057,6,2618,248,meters,jsons/v1_VE250_randls_59.json,579394,921378,49,Woman
38,128077,DepthScenes,duration_manipulation_targetAtFixation,jsons/v1_VE250_randls_59.json,http://54.235.29.9/FacialAge/BNav_EC2/DepthDuration/v2_depth_duration_MTurk/v2_DepthDuration_HTML.html#1,1,1517,694,1366,768,9-3-2022,6-14-19,39,depth_duration_stimuli/002905_2014-06-03_18-04-43_094959634447_rgbf000151-resize_2/002905_2014-06-03_18-04-43_094959634447_rgbf000151-resize_2-target.png,250,2.0295,5,3208,247,meters,jsons/v1_VE250_randls_59.json,579394,921378,49,Woman
39,128077,DepthScenes,duration_manipulation_targetAtFixation,jsons/v1_VE250_randls_59.json,http://54.235.29.9/FacialAge/BNav_EC2/DepthDuration/v2_depth_duration_MTurk/v2_DepthDuration_HTML.html#1,1,1517,694,1366,768,9-3-2022,6-14-19,40,depth_duration_stimuli/003423_2014-05-21_10-23-26_094959634447_rgbf002665-resize_2/003423_2014-05-21_10-23-26_094959634447_rgbf002665-resize_2-target.png,250,3.2575,8,2651,252,meters,jsons/v1_VE250_randls_59.json,579394,921378,49,Woman
40,128077,DepthScenes,duration_manipulation_targetAtFixation,jsons/v1_VE250_randls_59.json,http://54.235.29.9/FacialAge/BNav_EC2/DepthDuration/v2_depth_duration_MTurk/v2_DepthDuration_HTML.html#1,1,1517,694,1366,768,9-3-2022,6-14-19,41,depth_duration_stimuli/002057_2014-06-24_21-00-13_260595134347_rgbf000120-resize_1/002057_2014-06-24_21-00-13_260595134347_rgbf000120-resize_1-target.png,250,2.967,10,3488,248,meters,jsons/v1_VE250_randls_59.json,579394,921378,49,Woman
41,128077,DepthScenes,duration_manipulation_targetAtFixation,jsons/v1_VE250_randls_59.json,http://54.235.29.9/FacialAge/BNav_EC2/DepthDuration/v2_depth_duration_MTurk/v2_DepthDuration_HTML.html#1,1,1517,694,1366,768,9-3-2022,6-14-19,42,depth_duration_stimuli/000709_2014-06-08_13-51-55_260595134347_rgbf000068-resize_3/000709_2014-06-08_13-51-55_260595134347_rgbf000068-resize_3-target.png,250,1.8030000000000002,7,3035,252,meters,jsons/v1_VE250_randls_59.json,579394,921378,49,Woman
42,128077,DepthScenes,duration_manipulation_targetAtFixation,jsons/v1_VE250_randls_59.json,http://54.235.29.9/FacialAge/BNav_EC2/DepthDuration/v2_depth_duration_MTurk/v2_DepthDuration_HTML.html#1,1,1517,694,1366,768,9-3-2022,6-14-19,43,depth_duration_stimuli/000469_2014-06-09_19-42-10_260595134347_rgbf000081-resize_1/000469_2014-06-09_19-42-10_260595134347_rgbf000081-resize_1-target.png,250,1.652,5,2543,247,meters,jsons/v1_VE250_randls_59.json,579394,921378,49,Woman
43,128077,DepthScenes,duration_manipulation_targetAtFixation,jsons/v1_VE250_randls_59.json,http://54.235.29.9/FacialAge/BNav_EC2/DepthDuration/v2_depth_duration_MTurk/v2_DepthDuration_HTML.html#1,1,1517,694,1366,768,9-3-2022,6-14-19,44,depth_duration_stimuli/000483_2014-06-09_20-41-45_260595134347_rgbf000116-resize_4/000483_2014-06-09_20-41-45_260595134347_rgbf000116-resize_4-target.png,250,1.337,5,2641,245,meters,jsons/v1_VE250_randls_59.json,579394,921378,49,Woman
44,128077,DepthScenes,duration_manipulation_targetAtFixation,jsons/v1_VE250_randls_59.json,http://54.235.29.9/FacialAge/BNav_EC2/DepthDuration/v2_depth_duration_MTurk/v2_DepthDuration_HTML.html#1,1,1517,694,1366,768,9-3-2022,6-14-19,45,depth_duration_stimuli/000787_2014-06-08_22-33-53_260595134347_rgbf000175-resize_1/000787_2014-06-08_22-33-53_260595134347_rgbf000175-resize-original.jpg,250,4.784,0,2527,247,meters,jsons/v1_VE250_randls_59.json,579394,921378,49,Woman
45,128077,DepthScenes,duration_manipulation_targetAtFixation,jsons/v1_VE250_randls_59.json,http://54.235.29.9/FacialAge/BNav_EC2/DepthDuration/v2_depth_duration_MTurk/v2_DepthDuration_HTML.html#1,1,1517,694,1366,768,9-3-2022,6-14-19,46,depth_duration_stimuli/002989_2014-06-15_12-25-03_094959634447_rgbf000150-resize_3/002989_2014-06-15_12-25-03_094959634447_rgbf000150-resize_3-target.png,250,4.1975,7,2746,251,meters,jsons/v1_VE250_randls_59.json,579394,921378,49,Woman
46,128077,DepthScenes,duration_manipulation_targetAtFixation,jsons/v1_VE250_randls_59.json,http://54.235.29.9/FacialAge/BNav_EC2/DepthDuration/v2_depth_duration_MTurk/v2_DepthDuration_HTML.html#1,1,1517,694,1366,768,9-3-2022,6-14-19,47,depth_duration_stimuli/000866_2014-06-09_20-45-42_260595134347_rgbf000139-resize_1/000866_2014-06-09_20-45-42_260595134347_rgbf000139-resize_1-target.png,250,3.2155,8,2211,221,meters,jsons/v1_VE250_randls_59.json,579394,921378,49,Woman
47,128077,DepthScenes,duration_manipulation_targetAtFixation,jsons/v1_VE250_randls_59.json,http://54.235.29.9/FacialAge/BNav_EC2/DepthDuration/v2_depth_duration_MTurk/v2_DepthDuration_HTML.html#1,1,1517,694,1366,768,9-3-2022,6-14-19,48,depth_duration_stimuli/000906_2014-06-08_13-35-43_260595134347_rgbf000155-resize_1/000906_2014-06-08_13-35-43_260595134347_rgbf000155-resize_1-target.png,250,2.8489999999999998,9,2601,261,meters,jsons/v1_VE250_randls_59.json,579394,921378,49,Woman
48,128077,DepthScenes,duration_manipulation_targetAtFixation,jsons/v1_VE250_randls_59.json,http://54.235.29.9/FacialAge/BNav_EC2/DepthDuration/v2_depth_duration_MTurk/v2_DepthDuration_HTML.html#1,1,1517,694,1366,768,9-3-2022,6-14-19,49,depth_duration_stimuli/002805_2014-06-22_19-54-03_094959634447_rgbf000079-resize_1/002805_2014-06-22_19-54-03_094959634447_rgbf000079-resize_1-target.png,250,3.1439999999999997,7,2421,258,meters,jsons/v1_VE250_randls_59.json,579394,921378,49,Woman
49,128077,DepthScenes,duration_manipulation_targetAtFixation,jsons/v1_VE250_randls_59.json,http://54.235.29.9/FacialAge/BNav_EC2/DepthDuration/v2_depth_duration_MTurk/v2_DepthDuration_HTML.html#1,1,1517,694,1366,768,9-3-2022,6-14-19,50,depth_duration_stimuli/000506_2014-06-08_23-21-00_260595134347_rgbf000070-resize_7/000506_2014-06-08_23-21-00_260595134347_rgbf000070-resize_7-target.png,250,4.0585,8,2268,246,meters,jsons/v1_VE250_randls_59.json,579394,921378,49,Woman
50,128077,DepthScenes,duration_manipulation_targetAtFixation,jsons/v1_VE250_randls_59.json,http://54.235.29.9/FacialAge/BNav_EC2/DepthDuration/v2_depth_duration_MTurk/v2_DepthDuration_HTML.html#1,1,1517,694,1366,768,9-3-2022,6-14-19,51,depth_duration_stimuli/003079_2014-06-15_15-18-20_094959634447_rgbf000152-resize_8/003079_2014-06-15_15-18-20_094959634447_rgbf000152-resize_8-target.png,250,2.8775,0,3393,256,meters,jsons/v1_VE250_randls_59.json,579394,921378,49,Woman
51,128077,DepthScenes,duration_manipulation_targetAtFixation,jsons/v1_VE250_randls_59.json,http://54.235.29.9/FacialAge/BNav_EC2/DepthDuration/v2_depth_duration_MTurk/v2_DepthDuration_HTML.html#1,1,1517,694,1366,768,9-3-2022,6-14-19,52,depth_duration_stimuli/002509_2014-06-24_13-19-22_094959634447_rgbf000077-resize_0/002509_2014-06-24_13-19-22_094959634447_rgbf000077-resize_0-target.png,250,1.3065,3,2689,260,meters,jsons/v1_VE250_randls_59.json,579394,921378,49,Woman
52,128077,DepthScenes,duration_manipulation_targetAtFixation,jsons/v1_VE250_randls_59.json,http://54.235.29.9/FacialAge/BNav_EC2/DepthDuration/v2_depth_duration_MTurk/v2_DepthDuration_HTML.html#1,1,1517,694,1366,768,9-3-2022,6-14-19,53,depth_duration_stimuli/003338_2014-05-20_11-01-23_094959634447_rgbf000051-resize_6/003338_2014-05-20_11-01-23_094959634447_rgbf000051-resize_6-target.png,250,1.693,4,2552,250,meters,jsons/v1_VE250_randls_59.json,579394,921378,49,Woman
53,128077,DepthScenes,duration_manipulation_targetAtFixation,jsons/v1_VE250_randls_59.json,http://54.235.29.9/FacialAge/BNav_EC2/DepthDuration/v2_depth_duration_MTurk/v2_DepthDuration_HTML.html#1,1,1517,694,1366,768,9-3-2022,6-14-19,54,depth_duration_stimuli/001158_2014-06-17_15-32-16_260595134347_rgbf000138-resize_2/001158_2014-06-17_15-32-16_260595134347_rgbf000138-resize_2-target.png,250,4.5315,10,3076,235,meters,jsons/v1_VE250_randls_59.json,579394,921378,49,Woman
54,128077,DepthScenes,duration_manipulation_targetAtFixation,jsons/v1_VE250_randls_59.json,http://54.235.29.9/FacialAge/BNav_EC2/DepthDuration/v2_depth_duration_MTurk/v2_DepthDuration_HTML.html#1,1,1517,694,1366,768,9-3-2022,6-14-19,55,depth_duration_stimuli/000556_2014-06-09_22-42-56_260595134347_rgbf000214-resize_1/000556_2014-06-09_22-42-56_260595134347_rgbf000214-resize_1-target.png,250,4.8415,8,2638,245,meters,jsons/v1_VE250_randls_59.json,579394,921378,49,Woman
55,128077,DepthScenes,duration_manipulation_targetAtFixation,jsons/v1_VE250_randls_59.json,http://54.235.29.9/FacialAge/BNav_EC2/DepthDuration/v2_depth_duration_MTurk/v2_DepthDuration_HTML.html#1,1,1517,694,1366,768,9-3-2022,6-14-19,56,depth_duration_stimuli/000788_2014-06-08_22-34-36_260595134347_rgbf000131-resize_1/000788_2014-06-08_22-34-36_260595134347_rgbf000131-resize_1-target.png,250,3.359,7,2361,255,meters,jsons/v1_VE250_randls_59.json,579394,921378,49,Woman
56,128077,DepthScenes,duration_manipulation_targetAtFixation,jsons/v1_VE250_randls_59.json,http://54.235.29.9/FacialAge/BNav_EC2/DepthDuration/v2_depth_duration_MTurk/v2_DepthDuration_HTML.html#1,1,1517,694,1366,768,9-3-2022,6-14-19,57,depth_duration_stimuli/001235_2014-06-17_16-37-36_260595134347_rgbf000084-resize_4/001235_2014-06-17_16-37-36_260595134347_rgbf000084-resize_4-target.png,250,3.6605,6,3213,243,meters,jsons/v1_VE250_randls_59.json,579394,921378,49,Woman
57,128077,DepthScenes,duration_manipulation_targetAtFixation,jsons/v1_VE250_randls_59.json,http://54.235.29.9/FacialAge/BNav_EC2/DepthDuration/v2_depth_duration_MTurk/v2_DepthDuration_HTML.html#1,1,1517,694,1366,768,9-3-2022,6-14-19,58,depth_duration_stimuli/002153_2014-06-25_21-27-18_260595134347_rgbf000038-resize_5/002153_2014-06-25_21-27-18_260595134347_rgbf000038-resize_5-target.png,250,2.505,0,2916,237,meters,jsons/v1_VE250_randls_59.json,579394,921378,49,Woman
58,128077,DepthScenes,duration_manipulation_targetAtFixation,jsons/v1_VE250_randls_59.json,http://54.235.29.9/FacialAge/BNav_EC2/DepthDuration/v2_depth_duration_MTurk/v2_DepthDuration_HTML.html#1,1,1517,694,1366,768,9-3-2022,6-14-19,59,depth_duration_stimuli/002660_2014-06-13_15-44-18_094959634447_rgbf001878-resize_2/002660_2014-06-13_15-44-18_094959634447_rgbf001878-resize_2-target.png,250,3.576,7,2486,241,meters,jsons/v1_VE250_randls_59.json,579394,921378,49,Woman
59,128077,DepthScenes,duration_manipulation_targetAtFixation,jsons/v1_VE250_randls_59.json,http://54.235.29.9/FacialAge/BNav_EC2/DepthDuration/v2_depth_duration_MTurk/v2_DepthDuration_HTML.html#1,1,1517,694,1366,768,9-3-2022,6-14-19,60,depth_duration_stimuli/000810_2014-06-08_17-20-01_260595134347_rgbf000105-resize_0/000810_2014-06-08_17-20-01_260595134347_rgbf000105-resize_0-target.png,250,1.4865,8,2429,258,meters,jsons/v1_VE250_randls_59.json,579394,921378,49,Woman
60,128077,DepthScenes,duration_manipulation_targetAtFixation,jsons/v1_VE250_randls_59.json,http://54.235.29.9/FacialAge/BNav_EC2/DepthDuration/v2_depth_duration_MTurk/v2_DepthDuration_HTML.html#1,1,1517,694,1366,768,9-3-2022,6-14-19,61,depth_duration_stimuli/001214_2014-06-17_16-13-55_260595134347_rgbf000111-resize_0/001214_2014-06-17_16-13-55_260595134347_rgbf000111-resize_0-target.png,250,2.6505,6,2869,253,meters,jsons/v1_VE250_randls_59.json,579394,921378,49,Woman
61,128077,DepthScenes,duration_manipulation_targetAtFixation,jsons/v1_VE250_randls_59.json,http://54.235.29.9/FacialAge/BNav_EC2/DepthDuration/v2_depth_duration_MTurk/v2_DepthDuration_HTML.html#1,1,1517,694,1366,768,9-3-2022,6-14-19,62,depth_duration_stimuli/002039_2014-06-24_20-22-38_260595134347_rgbf000084-resize_1/002039_2014-06-24_20-22-38_260595134347_rgbf000084-resize_1-target.png,250,4.408,7,2697,253,meters,jsons/v1_VE250_randls_59.json,579394,921378,49,Woman
62,128077,DepthScenes,duration_manipulation_targetAtFixation,jsons/v1_VE250_randls_59.json,http://54.235.29.9/FacialAge/BNav_EC2/DepthDuration/v2_depth_duration_MTurk/v2_DepthDuration_HTML.html#1,1,1517,694,1366,768,9-3-2022,6-14-19,63,depth_duration_stimuli/002103_2014-06-25_20-00-40_260595134347_rgbf000049-resize_0/002103_2014-06-25_20-00-40_260595134347_rgbf000049-resize_0-target.png,250,4.105,5,3416,252,meters,jsons/v1_VE250_randls_59.json,579394,921378,49,Woman
63,128077,DepthScenes,duration_manipulation_targetAtFixation,jsons/v1_VE250_randls_59.json,http://54.235.29.9/FacialAge/BNav_EC2/DepthDuration/v2_depth_duration_MTurk/v2_DepthDuration_HTML.html#1,1,1517,694,1366,768,9-3-2022,6-14-19,64,depth_duration_stimuli/003292_2014-05-14_21-53-49_094959634447_rgbf000100-resize_2/003292_2014-05-14_21-53-49_094959634447_rgbf000100-resize_2-target.png,250,3.4815,7,2491,240,meters,jsons/v1_VE250_randls_59.json,579394,921378,49,Woman
64,128077,DepthScenes,duration_manipulation_targetAtFixation,jsons/v1_VE250_randls_59.json,http://54.235.29.9/FacialAge/BNav_EC2/DepthDuration/v2_depth_duration_MTurk/v2_DepthDuration_HTML.html#1,1,1517,694,1366,768,9-3-2022,6-14-19,65,depth_duration_stimuli/002639_2014-06-24_14-51-37_094959634447_rgbf000074-resize_4/002639_2014-06-24_14-51-37_094959634447_rgbf000074-resize_4-target.png,250,4.0375,6,4006,251,meters,jsons/v1_VE250_randls_59.json,579394,921378,49,Woman
65,128077,DepthScenes,duration_manipulation_targetAtFixation,jsons/v1_VE250_randls_59.json,http://54.235.29.9/FacialAge/BNav_EC2/DepthDuration/v2_depth_duration_MTurk/v2_DepthDuration_HTML.html#1,1,1517,694,1366,768,9-3-2022,6-14-19,66,depth_duration_stimuli/001222_2014-06-17_16-24-06_260595134347_rgbf000073-resize_0/001222_2014-06-17_16-24-06_260595134347_rgbf000073-resize-original.jpg,250,1.4385,5,7509,248,meters,jsons/v1_VE250_randls_59.json,579394,921378,49,Woman
66,128077,DepthScenes,duration_manipulation_targetAtFixation,jsons/v1_VE250_randls_59.json,http://54.235.29.9/FacialAge/BNav_EC2/DepthDuration/v2_depth_duration_MTurk/v2_DepthDuration_HTML.html#1,1,1517,694,1366,768,9-3-2022,6-14-19,67,depth_duration_stimuli/003621_2014-05-23_18-06-08_094959634447_rgbf000101-resize_1/003621_2014-05-23_18-06-08_094959634447_rgbf000101-resize_1-target.png,250,3.9835,6,2375,252,meters,jsons/v1_VE250_randls_59.json,579394,921378,49,Woman
67,128077,DepthScenes,duration_manipulation_targetAtFixation,jsons/v1_VE250_randls_59.json,http://54.235.29.9/FacialAge/BNav_EC2/DepthDuration/v2_depth_duration_MTurk/v2_DepthDuration_HTML.html#1,1,1517,694,1366,768,9-3-2022,6-14-19,68,depth_duration_stimuli/001584_2014-06-20_11-07-43_260595134347_rgbf000002-resize_1/001584_2014-06-20_11-07-43_260595134347_rgbf000002-resize_1-target.png,250,3.53,7,2185,250,meters,jsons/v1_VE250_randls_59.json,579394,921378,49,Woman
68,128077,DepthScenes,duration_manipulation_targetAtFixation,jsons/v1_VE250_randls_59.json,http://54.235.29.9/FacialAge/BNav_EC2/DepthDuration/v2_depth_duration_MTurk/v2_DepthDuration_HTML.html#1,1,1517,694,1366,768,9-3-2022,6-14-19,69,depth_duration_stimuli/000773_2014-06-08_22-24-54_260595134347_rgbf000093-resize_1/000773_2014-06-08_22-24-54_260595134347_rgbf000093-resize_1-target.png,250,4.973,7,2473,248,meters,jsons/v1_VE250_randls_59.json,579394,921378,49,Woman
69,128077,DepthScenes,duration_manipulation_targetAtFixation,jsons/v1_VE250_randls_59.json,http://54.235.29.9/FacialAge/BNav_EC2/DepthDuration/v2_depth_duration_MTurk/v2_DepthDuration_HTML.html#1,1,1517,694,1366,768,9-3-2022,6-14-19,70,depth_duration_stimuli/002414_2014-06-28_20-24-58_260595134347_rgbf000067-resize_4/002414_2014-06-28_20-24-58_260595134347_rgbf000067-resize_4-target.png,250,4.363,8,2322,245,meters,jsons/v1_VE250_randls_59.json,579394,921378,49,Woman
70,128077,DepthScenes,duration_manipulation_targetAtFixation,jsons/v1_VE250_randls_59.json,http://54.235.29.9/FacialAge/BNav_EC2/DepthDuration/v2_depth_duration_MTurk/v2_DepthDuration_HTML.html#1,1,1517,694,1366,768,9-3-2022,6-14-19,71,depth_duration_stimuli/001806_2014-06-26_20-50-20_260595134347_rgbf000091-resize_1/001806_2014-06-26_20-50-20_260595134347_rgbf000091-resize_1-target.png,250,2.7305,6,2314,255,meters,jsons/v1_VE250_randls_59.json,579394,921378,49,Woman
71,128077,DepthScenes,duration_manipulation_targetAtFixation,jsons/v1_VE250_randls_59.json,http://54.235.29.9/FacialAge/BNav_EC2/DepthDuration/v2_depth_duration_MTurk/v2_DepthDuration_HTML.html#1,1,1517,694,1366,768,9-3-2022,6-14-19,72,depth_duration_stimuli/001617_2014-06-20_11-35-32_260595134347_rgbf000066-resize_1/001617_2014-06-20_11-35-32_260595134347_rgbf000066-resize_1-target.png,250,3.7910000000000004,8,2145,244,meters,jsons/v1_VE250_randls_59.json,579394,921378,49,Woman
72,128077,DepthScenes,duration_manipulation_targetAtFixation,jsons/v1_VE250_randls_59.json,http://54.235.29.9/FacialAge/BNav_EC2/DepthDuration/v2_depth_duration_MTurk/v2_DepthDuration_HTML.html#1,1,1517,694,1366,768,9-3-2022,6-14-19,73,depth_duration_stimuli/001056_2014-06-08_18-46-44_260595134347_rgbf000068-resize_0/001056_2014-06-08_18-46-44_260595134347_rgbf000068-resize_0-target.png,250,2.6625,7,2190,240,meters,jsons/v1_VE250_randls_59.json,579394,921378,49,Woman
73,128077,DepthScenes,duration_manipulation_targetAtFixation,jsons/v1_VE250_randls_59.json,http://54.235.29.9/FacialAge/BNav_EC2/DepthDuration/v2_depth_duration_MTurk/v2_DepthDuration_HTML.html#1,1,1517,694,1366,768,9-3-2022,6-14-19,74,depth_duration_stimuli/002199_2014-06-28_18-33-56_260595134347_rgbf000074-resize_0/002199_2014-06-28_18-33-56_260595134347_rgbf000074-resize_0-target.png,250,1.996,4,2372,243,meters,jsons/v1_VE250_randls_59.json,579394,921378,49,Woman
74,128077,DepthScenes,duration_manipulation_targetAtFixation,jsons/v1_VE250_randls_59.json,http://54.235.29.9/FacialAge/BNav_EC2/DepthDuration/v2_depth_duration_MTurk/v2_DepthDuration_HTML.html#1,1,1517,694,1366,768,9-3-2022,6-14-19,75,depth_duration_stimuli/001555_2014-06-20_17-12-10_260595134347_rgbf000065-resize_4/001555_2014-06-20_17-12-10_260595134347_rgbf000065-resize_4-target.png,250,1.633,6,2289,245,meters,jsons/v1_VE250_randls_59.json,579394,921378,49,Woman
75,128077,DepthScenes,duration_manipulation_targetAtFixation,jsons/v1_VE250_randls_59.json,http://54.235.29.9/FacialAge/BNav_EC2/DepthDuration/v2_depth_duration_MTurk/v2_DepthDuration_HTML.html#1,1,1517,694,1366,768,9-3-2022,6-14-19,76,depth_duration_stimuli/000103_2014-05-14_22-01-17_260595134347_rgbf000152-resize_5/000103_2014-05-14_22-01-17_260595134347_rgbf000152-resize_5-target.png,250,1.993,8,2232,239,meters,jsons/v1_VE250_randls_59.json,579394,921378,49,Woman
76,128077,DepthScenes,duration_manipulation_targetAtFixation,jsons/v1_VE250_randls_59.json,http://54.235.29.9/FacialAge/BNav_EC2/DepthDuration/v2_depth_duration_MTurk/v2_DepthDuration_HTML.html#1,1,1517,694,1366,768,9-3-2022,6-14-19,77,depth_duration_stimuli/000758_2014-06-08_22-05-08_260595134347_rgbf000085-resize_0/000758_2014-06-08_22-05-08_260595134347_rgbf000085-resize_0-target.png,250,3.3810000000000002,9,4316,248,meters,jsons/v1_VE250_randls_59.json,579394,921378,49,Woman
77,128077,DepthScenes,duration_manipulation_targetAtFixation,jsons/v1_VE250_randls_59.json,http://54.235.29.9/FacialAge/BNav_EC2/DepthDuration/v2_depth_duration_MTurk/v2_DepthDuration_HTML.html#1,1,1517,694,1366,768,9-3-2022,6-14-19,78,depth_duration_stimuli/000854_2014-06-09_19-43-13_260595134347_rgbf000066-resize_0/000854_2014-06-09_19-43-13_260595134347_rgbf000066-resize_0-target.png,250,3.068,5,2663,255,meters,jsons/v1_VE250_randls_59.json,579394,921378,49,Woman
78,128077,DepthScenes,duration_manipulation_targetAtFixation,jsons/v1_VE250_randls_59.json,http://54.235.29.9/FacialAge/BNav_EC2/DepthDuration/v2_depth_duration_MTurk/v2_DepthDuration_HTML.html#1,1,1517,694,1366,768,9-3-2022,6-14-19,79,depth_duration_stimuli/000692_2014-06-08_13-09-42_260595134347_rgbf000199-resize_2/000692_2014-06-08_13-09-42_260595134347_rgbf000199-resize_2-target.png,250,3.661,7,2442,250,meters,jsons/v1_VE250_randls_59.json,579394,921378,49,Woman
79,128077,DepthScenes,duration_manipulation_targetAtFixation,jsons/v1_VE250_randls_59.json,http://54.235.29.9/FacialAge/BNav_EC2/DepthDuration/v2_depth_duration_MTurk/v2_DepthDuration_HTML.html#1,1,1517,694,1366,768,9-3-2022,6-14-19,80,depth_duration_stimuli/001094_2014-06-15_17-36-00_260595134347_rgbf000205-resize_0/001094_2014-06-15_17-36-00_260595134347_rgbf000205-resize_0-target.png,250,4.2175,9,2413,245,meters,jsons/v1_VE250_randls_59.json,579394,921378,49,Woman
80,128077,DepthScenes,duration_manipulation_targetAtFixation,jsons/v1_VE250_randls_59.json,http://54.235.29.9/FacialAge/BNav_EC2/DepthDuration/v2_depth_duration_MTurk/v2_DepthDuration_HTML.html#1,1,1517,694,1366,768,9-3-2022,6-14-19,81,depth_duration_stimuli/002043_2014-06-24_20-29-38_260595134347_rgbf000039-resize_4/002043_2014-06-24_20-29-38_260595134347_rgbf000039-resize_4-target.png,250,2.8435,6,2112,238,meters,jsons/v1_VE250_randls_59.json,579394,921378,49,Woman
81,128077,DepthScenes,duration_manipulation_targetAtFixation,jsons/v1_VE250_randls_59.json,http://54.235.29.9/FacialAge/BNav_EC2/DepthDuration/v2_depth_duration_MTurk/v2_DepthDuration_HTML.html#1,1,1517,694,1366,768,9-3-2022,6-14-19,82,depth_duration_stimuli/003048_2014-06-15_13-49-43_094959634447_rgbf000150-resize_1/003048_2014-06-15_13-49-43_094959634447_rgbf000150-resize_1-target.png,250,4.0035,12,3272,252,meters,jsons/v1_VE250_randls_59.json,579394,921378,49,Woman
82,128077,DepthScenes,duration_manipulation_targetAtFixation,jsons/v1_VE250_randls_59.json,http://54.235.29.9/FacialAge/BNav_EC2/DepthDuration/v2_depth_duration_MTurk/v2_DepthDuration_HTML.html#1,1,1517,694,1366,768,9-3-2022,6-14-19,83,depth_duration_stimuli/002964_2014-06-08_17-46-11_094959634447_rgbf000091-resize_4/002964_2014-06-08_17-46-11_094959634447_rgbf000091-resize_4-target.png,250,1.6909999999999998,3,2506,239,meters,jsons/v1_VE250_randls_59.json,579394,921378,49,Woman
83,128077,DepthScenes,duration_manipulation_targetAtFixation,jsons/v1_VE250_randls_59.json,http://54.235.29.9/FacialAge/BNav_EC2/DepthDuration/v2_depth_duration_MTurk/v2_DepthDuration_HTML.html#1,1,1517,694,1366,768,9-3-2022,6-14-19,84,depth_duration_stimuli/002136_2014-06-25_21-18-03_260595134347_rgbf000109-resize_3/002136_2014-06-25_21-18-03_260595134347_rgbf000109-resize_3-target.png,250,1.9569999999999999,0,2949,240,meters,jsons/v1_VE250_randls_59.json,579394,921378,49,Woman
84,128077,DepthScenes,duration_manipulation_targetAtFixation,jsons/v1_VE250_randls_59.json,http://54.235.29.9/FacialAge/BNav_EC2/DepthDuration/v2_depth_duration_MTurk/v2_DepthDuration_HTML.html#1,1,1517,694,1366,768,9-3-2022,6-14-19,85,depth_duration_stimuli/000447_2014-06-08_16-15-46_260595134347_rgbf000130-resize_1/000447_2014-06-08_16-15-46_260595134347_rgbf000130-resize_1-target.png,250,4.479,5,2175,244,meters,jsons/v1_VE250_randls_59.json,579394,921378,49,Woman
85,128077,DepthScenes,duration_manipulation_targetAtFixation,jsons/v1_VE250_randls_59.json,http://54.235.29.9/FacialAge/BNav_EC2/DepthDuration/v2_depth_duration_MTurk/v2_DepthDuration_HTML.html#1,1,1517,694,1366,768,9-3-2022,6-14-19,86,depth_duration_stimuli/001447_2014-06-19_17-00-32_260595134347_rgbf000082-resize_5/001447_2014-06-19_17-00-32_260595134347_rgbf000082-resize_5-target.png,250,4.13775,6,2303,246,meters,jsons/v1_VE250_randls_59.json,579394,921378,49,Woman
86,128077,DepthScenes,duration_manipulation_targetAtFixation,jsons/v1_VE250_randls_59.json,http://54.235.29.9/FacialAge/BNav_EC2/DepthDuration/v2_depth_duration_MTurk/v2_DepthDuration_HTML.html#1,1,1517,694,1366,768,9-3-2022,6-14-19,87,depth_duration_stimuli/001059_2014-06-08_21-53-27_260595134347_rgbf000061-resize_4/001059_2014-06-08_21-53-27_260595134347_rgbf000061-resize_4-target.png,250,2.4185,6,2919,243,meters,jsons/v1_VE250_randls_59.json,579394,921378,49,Woman
87,128077,DepthScenes,duration_manipulation_targetAtFixation,jsons/v1_VE250_randls_59.json,http://54.235.29.9/FacialAge/BNav_EC2/DepthDuration/v2_depth_duration_MTurk/v2_DepthDuration_HTML.html#1,1,1517,694,1366,768,9-3-2022,6-14-19,88,depth_duration_stimuli/001032_2014-06-08_13-23-17_260595134347_rgbf000021-resize_3/001032_2014-06-08_13-23-17_260595134347_rgbf000021-resize_3-target.png,250,3.2725,7,2271,255,meters,jsons/v1_VE250_randls_59.json,579394,921378,49,Woman
88,128077,DepthScenes,duration_manipulation_targetAtFixation,jsons/v1_VE250_randls_59.json,http://54.235.29.9/FacialAge/BNav_EC2/DepthDuration/v2_depth_duration_MTurk/v2_DepthDuration_HTML.html#1,1,1517,694,1366,768,9-3-2022,6-14-19,89,depth_duration_stimuli/001092_2014-06-15_17-34-58_260595134347_rgbf000171-resize_3/001092_2014-06-15_17-34-58_260595134347_rgbf000171-resize_3-target.png,250,2.6935,5,2161,250,meters,jsons/v1_VE250_randls_59.json,579394,921378,49,Woman
89,128077,DepthScenes,duration_manipulation_targetAtFixation,jsons/v1_VE250_randls_59.json,http://54.235.29.9/FacialAge/BNav_EC2/DepthDuration/v2_depth_duration_MTurk/v2_DepthDuration_HTML.html#1,1,1517,694,1366,768,9-3-2022,6-14-19,90,depth_duration_stimuli/002545_2014-06-24_13-38-53_094959634447_rgbf000080-resize_4/002545_2014-06-24_13-38-53_094959634447_rgbf000080-resize_4-target.png,250,1.9205,7,2172,256,meters,jsons/v1_VE250_randls_59.json,579394,921378,49,Woman
90,128077,DepthScenes,duration_manipulation_targetAtFixation,jsons/v1_VE250_randls_59.json,http://54.235.29.9/FacialAge/BNav_EC2/DepthDuration/v2_depth_duration_MTurk/v2_DepthDuration_HTML.html#1,1,1517,694,1366,768,9-3-2022,6-14-19,91,depth_duration_stimuli/002763_2014-06-22_19-13-10_094959634447_rgbf000075-resize_4/002763_2014-06-22_19-13-10_094959634447_rgbf000075-resize_4-target.png,250,1.68375,4,4498,259,meters,jsons/v1_VE250_randls_59.json,579394,921378,49,Woman
91,128077,DepthScenes,duration_manipulation_targetAtFixation,jsons/v1_VE250_randls_59.json,http://54.235.29.9/FacialAge/BNav_EC2/DepthDuration/v2_depth_duration_MTurk/v2_DepthDuration_HTML.html#1,1,1517,694,1366,768,9-3-2022,6-14-19,92,depth_duration_stimuli/002209_2014-06-28_18-36-10_260595134347_rgbf000051-resize_1/002209_2014-06-28_18-36-10_260595134347_rgbf000051-resize_1-target.png,250,2.057,6,2709,247,meters,jsons/v1_VE250_randls_59.json,579394,921378,49,Woman
92,128077,DepthScenes,duration_manipulation_targetAtFixation,jsons/v1_VE250_randls_59.json,http://54.235.29.9/FacialAge/BNav_EC2/DepthDuration/v2_depth_duration_MTurk/v2_DepthDuration_HTML.html#1,1,1517,694,1366,768,9-3-2022,6-14-19,93,depth_duration_stimuli/000414_2014-06-04_19-49-13_260595134347_rgbf000044-resize_0/000414_2014-06-04_19-49-13_260595134347_rgbf000044-resize_0-target.png,250,4.329,12,2275,240,meters,jsons/v1_VE250_randls_59.json,579394,921378,49,Woman
93,128077,DepthScenes,duration_manipulation_targetAtFixation,jsons/v1_VE250_randls_59.json,http://54.235.29.9/FacialAge/BNav_EC2/DepthDuration/v2_depth_duration_MTurk/v2_DepthDuration_HTML.html#1,1,1517,694,1366,768,9-3-2022,6-14-19,94,depth_duration_stimuli/003129_2014-05-12_10-48-10_094959634447_rgbf000100-resize_0/003129_2014-05-12_10-48-10_094959634447_rgbf000100-resize_0-target.png,250,4.9305,14,2949,234,meters,jsons/v1_VE250_randls_59.json,579394,921378,49,Woman
94,128077,DepthScenes,duration_manipulation_targetAtFixation,jsons/v1_VE250_randls_59.json,http://54.235.29.9/FacialAge/BNav_EC2/DepthDuration/v2_depth_duration_MTurk/v2_DepthDuration_HTML.html#1,1,1517,694,1366,768,9-3-2022,6-14-19,95,depth_duration_stimuli/000929_2014-06-09_16-33-19_260595134347_rgbf000139-resize_0/000929_2014-06-09_16-33-19_260595134347_rgbf000139-resize_0-target.png,250,2.8680000000000003,7,2516,249,meters,jsons/v1_VE250_randls_59.json,579394,921378,49,Woman
95,128077,DepthScenes,duration_manipulation_targetAtFixation,jsons/v1_VE250_randls_59.json,http://54.235.29.9/FacialAge/BNav_EC2/DepthDuration/v2_depth_duration_MTurk/v2_DepthDuration_HTML.html#1,1,1517,694,1366,768,9-3-2022,6-14-19,96,depth_duration_stimuli/000457_2014-06-08_16-52-43_260595134347_rgbf000199-resize_1/000457_2014-06-08_16-52-43_260595134347_rgbf000199-resize_1-target.png,250,3.6489999999999996,7,5750,234,meters,jsons/v1_VE250_randls_59.json,579394,921378,49,Woman
96,128077,DepthScenes,duration_manipulation_targetAtFixation,jsons/v1_VE250_randls_59.json,http://54.235.29.9/FacialAge/BNav_EC2/DepthDuration/v2_depth_duration_MTurk/v2_DepthDuration_HTML.html#1,1,1517,694,1366,768,9-3-2022,6-14-19,97,depth_duration_stimuli/001133_2014-06-17_14-49-16_260595134347_rgbf000100-resize_0/001133_2014-06-17_14-49-16_260595134347_rgbf000100-resize_0-target.png,250,4.2115,10,4505,249,meters,jsons/v1_VE250_randls_59.json,579394,921378,49,Woman
97,128077,DepthScenes,duration_manipulation_targetAtFixation,jsons/v1_VE250_randls_59.json,http://54.235.29.9/FacialAge/BNav_EC2/DepthDuration/v2_depth_duration_MTurk/v2_DepthDuration_HTML.html#1,1,1517,694,1366,768,9-3-2022,6-14-19,98,depth_duration_stimuli/001132_2014-06-17_14-48-54_260595134347_rgbf000100-resize_2/001132_2014-06-17_14-48-54_260595134347_rgbf000100-resize_2-target.png,250,3.753,7,3243,247,meters,jsons/v1_VE250_randls_59.json,579394,921378,49,Woman
98,128077,DepthScenes,duration_manipulation_targetAtFixation,jsons/v1_VE250_randls_59.json,http://54.235.29.9/FacialAge/BNav_EC2/DepthDuration/v2_depth_duration_MTurk/v2_DepthDuration_HTML.html#1,1,1517,694,1366,768,9-3-2022,6-14-19,99,depth_duration_stimuli/001540_2014-06-20_17-01-05_260595134347_rgbf000086-resize_2/001540_2014-06-20_17-01-05_260595134347_rgbf000086-resize-original.jpg,250,1.459,0,2494,245,meters,jsons/v1_VE250_randls_59.json,579394,921378,49,Woman
99,128077,DepthScenes,duration_manipulation_targetAtFixation,jsons/v1_VE250_randls_59.json,http://54.235.29.9/FacialAge/BNav_EC2/DepthDuration/v2_depth_duration_MTurk/v2_DepthDuration_HTML.html#1,1,1517,694,1366,768,9-3-2022,6-14-19,100,depth_duration_stimuli/002570_2014-06-24_13-59-54_094959634447_rgbf000059-resize_0/002570_2014-06-24_13-59-54_094959634447_rgbf000059-resize_0-target.png,250,4.037,8,2513,254,meters,jsons/v1_VE250_randls_59.json,579394,921378,49,Woman
100,128077,DepthScenes,duration_manipulation_targetAtFixation,jsons/v1_VE250_randls_59.json,http://54.235.29.9/FacialAge/BNav_EC2/DepthDuration/v2_depth_duration_MTurk/v2_DepthDuration_HTML.html#1,1,1517,694,1366,768,9-3-2022,6-14-19,101,depth_duration_stimuli/002467_2014-06-28_20-38-07_260595134347_rgbf000026-resize_2/002467_2014-06-28_20-38-07_260595134347_rgbf000026-resize_2-target.png,250,4.742,7,2630,254,meters,jsons/v1_VE250_randls_59.json,579394,921378,49,Woman
101,128077,DepthScenes,duration_manipulation_targetAtFixation,jsons/v1_VE250_randls_59.json,http://54.235.29.9/FacialAge/BNav_EC2/DepthDuration/v2_depth_duration_MTurk/v2_DepthDuration_HTML.html#1,1,1517,694,1366,768,9-3-2022,6-14-19,102,depth_duration_stimuli/001011_2014-06-08_23-18-54_260595134347_rgbf000044-resize_4/001011_2014-06-08_23-18-54_260595134347_rgbf000044-resize_4-target.png,250,2.4730000000000003,9,2804,254,meters,jsons/v1_VE250_randls_59.json,579394,921378,49,Woman
102,128077,DepthScenes,duration_manipulation_targetAtFixation,jsons/v1_VE250_randls_59.json,http://54.235.29.9/FacialAge/BNav_EC2/DepthDuration/v2_depth_duration_MTurk/v2_DepthDuration_HTML.html#1,1,1517,694,1366,768,9-3-2022,6-14-19,103,depth_duration_stimuli/002875_2014-06-01_15-19-00_094959634447_rgbf000151-resize_1/002875_2014-06-01_15-19-00_094959634447_rgbf000151-resize_1-target.png,250,1.9675,3,2673,249,meters,jsons/v1_VE250_randls_59.json,579394,921378,49,Woman
103,128077,DepthScenes,duration_manipulation_targetAtFixation,jsons/v1_VE250_randls_59.json,http://54.235.29.9/FacialAge/BNav_EC2/DepthDuration/v2_depth_duration_MTurk/v2_DepthDuration_HTML.html#1,1,1517,694,1366,768,9-3-2022,6-14-19,104,depth_duration_stimuli/002279_2014-06-28_18-55-32_260595134347_rgbf000040-resize_5/002279_2014-06-28_18-55-32_260595134347_rgbf000040-resize_5-target.png,250,1.5043333333333,5,2681,252,meters,jsons/v1_VE250_randls_59.json,579394,921378,49,Woman
104,128077,DepthScenes,duration_manipulation_targetAtFixation,jsons/v1_VE250_randls_59.json,http://54.235.29.9/FacialAge/BNav_EC2/DepthDuration/v2_depth_duration_MTurk/v2_DepthDuration_HTML.html#1,1,1517,694,1366,768,9-3-2022,6-14-19,105,depth_duration_stimuli/000635_2014-06-08_16-38-42_260595134347_rgbf000106-resize_1/000635_2014-06-08_16-38-42_260595134347_rgbf000106-resize_1-target.png,250,2.074,6,2364,240,meters,jsons/v1_VE250_randls_59.json,579394,921378,49,Woman
105,128077,DepthScenes,duration_manipulation_targetAtFixation,jsons/v1_VE250_randls_59.json,http://54.235.29.9/FacialAge/BNav_EC2/DepthDuration/v2_depth_duration_MTurk/v2_DepthDuration_HTML.html#1,1,1517,694,1366,768,9-3-2022,6-14-19,106,depth_duration_stimuli/002630_2014-06-24_14-47-50_094959634447_rgbf000055-resize_1/002630_2014-06-24_14-47-50_094959634447_rgbf000055-resize_1-target.png,250,3.0095,7,2972,248,meters,jsons/v1_VE250_randls_59.json,579394,921378,49,Woman
106,128077,DepthScenes,duration_manipulation_targetAtFixation,jsons/v1_VE250_randls_59.json,http://54.235.29.9/FacialAge/BNav_EC2/DepthDuration/v2_depth_duration_MTurk/v2_DepthDuration_HTML.html#1,1,1517,694,1366,768,9-3-2022,6-14-19,107,depth_duration_stimuli/002758_2014-06-22_19-11-20_094959634447_rgbf000128-resize_1/002758_2014-06-22_19-11-20_094959634447_rgbf000128-resize_1-target.png,250,2.555,8,2608,256,meters,jsons/v1_VE250_randls_59.json,579394,921378,49,Woman
107,128077,DepthScenes,duration_manipulation_targetAtFixation,jsons/v1_VE250_randls_59.json,http://54.235.29.9/FacialAge/BNav_EC2/DepthDuration/v2_depth_duration_MTurk/v2_DepthDuration_HTML.html#1,1,1517,694,1366,768,9-3-2022,6-14-19,108,depth_duration_stimuli/000642_2014-06-08_16-59-25_260595134347_rgbf000098-resize_2/000642_2014-06-08_16-59-25_260595134347_rgbf000098-resize_2-target.png,250,2.8815,12,3760,244,meters,jsons/v1_VE250_randls_59.json,579394,921378,49,Woman
108,128077,DepthScenes,duration_manipulation_targetAtFixation,jsons/v1_VE250_randls_59.json,http://54.235.29.9/FacialAge/BNav_EC2/DepthDuration/v2_depth_duration_MTurk/v2_DepthDuration_HTML.html#1,1,1517,694,1366,768,9-3-2022,6-14-19,109,depth_duration_stimuli/002425_2014-06-28_20-27-29_260595134347_rgbf000031-resize_8/002425_2014-06-28_20-27-29_260595134347_rgbf000031-resize_8-target.png,250,3.8960000000000004,6,4218,255,meters,jsons/v1_VE250_randls_59.json,579394,921378,49,Woman
109,128077,DepthScenes,duration_manipulation_targetAtFixation,jsons/v1_VE250_randls_59.json,http://54.235.29.9/FacialAge/BNav_EC2/DepthDuration/v2_depth_duration_MTurk/v2_DepthDuration_HTML.html#1,1,1517,694,1366,768,9-3-2022,6-14-19,110,depth_duration_stimuli/002118_2014-06-25_20-32-08_260595134347_rgbf000078-resize_1/002118_2014-06-25_20-32-08_260595134347_rgbf000078-resize_1-target.png,250,2.6460000000000004,7,2246,247,meters,jsons/v1_VE250_randls_59.json,579394,921378,49,Woman
110,128077,DepthScenes,duration_manipulation_targetAtFixation,jsons/v1_VE250_randls_59.json,http://54.235.29.9/FacialAge/BNav_EC2/DepthDuration/v2_depth_duration_MTurk/v2_DepthDuration_HTML.html#1,1,1517,694,1366,768,9-3-2022,6-14-19,111,depth_duration_stimuli/001516_2014-06-20_16-25-09_260595134347_rgbf000076-resize_2/001516_2014-06-20_16-25-09_260595134347_rgbf000076-resize_2-target.png,250,1.7445,6,2418,255,meters,jsons/v1_VE250_randls_59.json,579394,921378,49,Woman
111,128077,DepthScenes,duration_manipulation_targetAtFixation,jsons/v1_VE250_randls_59.json,http://54.235.29.9/FacialAge/BNav_EC2/DepthDuration/v2_depth_duration_MTurk/v2_DepthDuration_HTML.html#1,1,1517,694,1366,768,9-3-2022,6-14-19,112,depth_duration_stimuli/003492_2014-05-21_15-50-55_094959634447_rgbf000828-resize_1/003492_2014-05-21_15-50-55_094959634447_rgbf000828-resize_1-target.png,250,4.06875,12,3356,248,meters,jsons/v1_VE250_randls_59.json,579394,921378,49,Woman
112,128077,DepthScenes,duration_manipulation_targetAtFixation,jsons/v1_VE250_randls_59.json,http://54.235.29.9/FacialAge/BNav_EC2/DepthDuration/v2_depth_duration_MTurk/v2_DepthDuration_HTML.html#1,1,1517,694,1366,768,9-3-2022,6-14-19,113,depth_duration_stimuli/002568_2014-06-24_13-59-21_094959634447_rgbf000062-resize_4/002568_2014-06-24_13-59-21_094959634447_rgbf000062-resize_4-target.png,250,3.015,14,4083,254,meters,jsons/v1_VE250_randls_59.json,579394,921378,49,Woman
113,128077,DepthScenes,duration_manipulation_targetAtFixation,jsons/v1_VE250_randls_59.json,http://54.235.29.9/FacialAge/BNav_EC2/DepthDuration/v2_depth_duration_MTurk/v2_DepthDuration_HTML.html#1,1,1517,694,1366,768,9-3-2022,6-14-19,114,depth_duration_stimuli/001175_2014-06-17_15-45-55_260595134347_rgbf000129-resize_4/001175_2014-06-17_15-45-55_260595134347_rgbf000129-resize_4-target.png,250,4.255,12,2445,245,meters,jsons/v1_VE250_randls_59.json,579394,921378,49,Woman
114,128077,DepthScenes,duration_manipulation_targetAtFixation,jsons/v1_VE250_randls_59.json,http://54.235.29.9/FacialAge/BNav_EC2/DepthDuration/v2_depth_duration_MTurk/v2_DepthDuration_HTML.html#1,1,1517,694,1366,768,9-3-2022,6-14-19,115,depth_duration_stimuli/003490_2014-05-21_15-50-11_094959634447_rgbf000101-resize_3/003490_2014-05-21_15-50-11_094959634447_rgbf000101-resize_3-target.png,250,3.6445,12,2889,248,meters,jsons/v1_VE250_randls_59.json,579394,921378,49,Woman
115,128077,DepthScenes,duration_manipulation_targetAtFixation,jsons/v1_VE250_randls_59.json,http://54.235.29.9/FacialAge/BNav_EC2/DepthDuration/v2_depth_duration_MTurk/v2_DepthDuration_HTML.html#1,1,1517,694,1366,768,9-3-2022,6-14-19,116,depth_duration_stimuli/001170_2014-06-17_15-43-44_260595134347_rgbf000096-resize_6/001170_2014-06-17_15-43-44_260595134347_rgbf000096-resize-original.jpg,250,1.1909999999999998,0,3696,250,meters,jsons/v1_VE250_randls_59.json,579394,921378,49,Woman
116,128077,DepthScenes,duration_manipulation_targetAtFixation,jsons/v1_VE250_randls_59.json,http://54.235.29.9/FacialAge/BNav_EC2/DepthDuration/v2_depth_duration_MTurk/v2_DepthDuration_HTML.html#1,1,1517,694,1366,768,9-3-2022,6-14-19,117,depth_duration_stimuli/000470_2014-06-09_19-42-40_260595134347_rgbf000094-resize_1/000470_2014-06-09_19-42-40_260595134347_rgbf000094-resize_1-target.png,250,1.831,0,2953,248,meters,jsons/v1_VE250_randls_59.json,579394,921378,49,Woman
117,128077,DepthScenes,duration_manipulation_targetAtFixation,jsons/v1_VE250_randls_59.json,http://54.235.29.9/FacialAge/BNav_EC2/DepthDuration/v2_depth_duration_MTurk/v2_DepthDuration_HTML.html#1,1,1517,694,1366,768,9-3-2022,6-14-19,118,depth_duration_stimuli/000109_2014-05-14_23-41-52_260595134347_rgbf000035-resize_9/000109_2014-05-14_23-41-52_260595134347_rgbf000035-resize_9-target.png,250,1.3545,4,2799,245,meters,jsons/v1_VE250_randls_59.json,579394,921378,49,Woman
118,128077,DepthScenes,duration_manipulation_targetAtFixation,jsons/v1_VE250_randls_59.json,http://54.235.29.9/FacialAge/BNav_EC2/DepthDuration/v2_depth_duration_MTurk/v2_DepthDuration_HTML.html#1,1,1517,694,1366,768,9-3-2022,6-14-19,119,depth_duration_stimuli/001029_2014-06-08_13-17-57_260595134347_rgbf000065-resize_1/001029_2014-06-08_13-17-57_260595134347_rgbf000065-resize_1-target.png,250,3.0835,6,3659,253,meters,jsons/v1_VE250_randls_59.json,579394,921378,49,Woman
119,128077,DepthScenes,duration_manipulation_targetAtFixation,jsons/v1_VE250_randls_59.json,http://54.235.29.9/FacialAge/BNav_EC2/DepthDuration/v2_depth_duration_MTurk/v2_DepthDuration_HTML.html#1,1,1517,694,1366,768,9-3-2022,6-14-19,120,depth_duration_stimuli/000677_2014-06-08_23-10-32_260595134347_rgbf000158-resize_6/000677_2014-06-08_23-10-32_260595134347_rgbf000158-resize_6-target.png,250,3.556,9,3443,252,meters,jsons/v1_VE250_randls_59.json,579394,921378,49,Woman
120,128077,DepthScenes,duration_manipulation_targetAtFixation,jsons/v1_VE250_randls_59.json,http://54.235.29.9/FacialAge/BNav_EC2/DepthDuration/v2_depth_duration_MTurk/v2_DepthDuration_HTML.html#1,1,1517,694,1366,768,9-3-2022,6-14-19,121,depth_duration_stimuli/000522_2014-06-08_13-35-06_260595134347_rgbf000244-resize_1/000522_2014-06-08_13-35-06_260595134347_rgbf000244-resize_1-target.png,250,2.3715,4,2498,238,meters,jsons/v1_VE250_randls_59.json,579394,921378,49,Woman
121,128077,DepthScenes,duration_manipulation_targetAtFixation,jsons/v1_VE250_randls_59.json,http://54.235.29.9/FacialAge/BNav_EC2/DepthDuration/v2_depth_duration_MTurk/v2_DepthDuration_HTML.html#1,1,1517,694,1366,768,9-3-2022,6-14-19,122,depth_duration_stimuli/002949_2014-06-26_15-57-42_094959634447_rgbf000079-resize_1/002949_2014-06-26_15-57-42_094959634447_rgbf000079-resize_1-target.png,250,1.8915,5,2596,256,meters,jsons/v1_VE250_randls_59.json,579394,921378,49,Woman
122,128077,DepthScenes,duration_manipulation_targetAtFixation,jsons/v1_VE250_randls_59.json,http://54.235.29.9/FacialAge/BNav_EC2/DepthDuration/v2_depth_duration_MTurk/v2_DepthDuration_HTML.html#1,1,1517,694,1366,768,9-3-2022,6-14-19,123,depth_duration_stimuli/000917_2014-06-09_22-45-29_260595134347_rgbf000149-resize_3/000917_2014-06-09_22-45-29_260595134347_rgbf000149-resize_3-target.png,250,4.1865,8,2988,240,meters,jsons/v1_VE250_randls_59.json,579394,921378,49,Woman
123,128077,DepthScenes,duration_manipulation_targetAtFixation,jsons/v1_VE250_randls_59.json,http://54.235.29.9/FacialAge/BNav_EC2/DepthDuration/v2_depth_duration_MTurk/v2_DepthDuration_HTML.html#1,1,1517,694,1366,768,9-3-2022,6-14-19,124,depth_duration_stimuli/002323_2014-06-28_20-01-54_260595134347_rgbf000051-resize_4/002323_2014-06-28_20-01-54_260595134347_rgbf000051-resize_4-target.png,250,3.7310000000000003,8,2764,252,meters,jsons/v1_VE250_randls_59.json,579394,921378,49,Woman
124,128077,DepthScenes,duration_manipulation_targetAtFixation,jsons/v1_VE250_randls_59.json,http://54.235.29.9/FacialAge/BNav_EC2/DepthDuration/v2_depth_duration_MTurk/v2_DepthDuration_HTML.html#1,1,1517,694,1366,768,9-3-2022,6-14-19,125,depth_duration_stimuli/000486_2014-06-09_20-47-20_260595134347_rgbf000143-resize_2/000486_2014-06-09_20-47-20_260595134347_rgbf000143-resize_2-target.png,250,4.8325,0,3432,261,meters,jsons/v1_VE250_randls_59.json,579394,921378,49,Woman
125,128077,DepthScenes,duration_manipulation_targetAtFixation,jsons/v1_VE250_randls_59.json,http://54.235.29.9/FacialAge/BNav_EC2/DepthDuration/v2_depth_duration_MTurk/v2_DepthDuration_HTML.html#1,1,1517,694,1366,768,9-3-2022,6-14-19,126,depth_duration_stimuli/003083_2014-06-15_15-21-03_094959634447_rgbf000063-resize_1/003083_2014-06-15_15-21-03_094959634447_rgbf000063-resize_1-target.png,250,4.1405,12,2822,249,meters,jsons/v1_VE250_randls_59.json,579394,921378,49,Woman
126,128077,DepthScenes,duration_manipulation_targetAtFixation,jsons/v1_VE250_randls_59.json,http://54.235.29.9/FacialAge/BNav_EC2/DepthDuration/v2_depth_duration_MTurk/v2_DepthDuration_HTML.html#1,1,1517,694,1366,768,9-3-2022,6-14-19,127,depth_duration_stimuli/001810_2014-06-26_20-51-35_260595134347_rgbf000040-resize_3/001810_2014-06-26_20-51-35_260595134347_rgbf000040-resize_3-target.png,250,2.2525,6,2649,265,meters,jsons/v1_VE250_randls_59.json,579394,921378,49,Woman
127,128077,DepthScenes,duration_manipulation_targetAtFixation,jsons/v1_VE250_randls_59.json,http://54.235.29.9/FacialAge/BNav_EC2/DepthDuration/v2_depth_duration_MTurk/v2_DepthDuration_HTML.html#1,1,1517,694,1366,768,9-3-2022,6-14-19,128,depth_duration_stimuli/003010_2014-06-15_12-54-35_094959634447_rgbf000112-resize_0/003010_2014-06-15_12-54-35_094959634447_rgbf000112-resize_0-target.png,250,3.1185,11,2927,260,meters,jsons/v1_VE250_randls_59.json,579394,921378,49,Woman
128,128077,DepthScenes,duration_manipulation_targetAtFixation,jsons/v1_VE250_randls_59.json,http://54.235.29.9/FacialAge/BNav_EC2/DepthDuration/v2_depth_duration_MTurk/v2_DepthDuration_HTML.html#1,1,1517,694,1366,768,9-3-2022,6-14-19,129,depth_duration_stimuli/002549_2014-06-24_13-41-39_094959634447_rgbf000022-resize_3/002549_2014-06-24_13-41-39_094959634447_rgbf000022-resize_3-target.png,250,1.476,5,2556,248,meters,jsons/v1_VE250_randls_59.json,579394,921378,49,Woman
129,128077,DepthScenes,duration_manipulation_targetAtFixation,jsons/v1_VE250_randls_59.json,http://54.235.29.9/FacialAge/BNav_EC2/DepthDuration/v2_depth_duration_MTurk/v2_DepthDuration_HTML.html#1,1,1517,694,1366,768,9-3-2022,6-14-19,130,depth_duration_stimuli/002750_2014-06-22_19-08-03_094959634447_rgbf000094-resize_4/002750_2014-06-22_19-08-03_094959634447_rgbf000094-resize_4-target.png,250,2.354,5,2840,249,meters,jsons/v1_VE250_randls_59.json,579394,921378,49,Woman
130,128077,DepthScenes,duration_manipulation_targetAtFixation,jsons/v1_VE250_randls_59.json,http://54.235.29.9/FacialAge/BNav_EC2/DepthDuration/v2_depth_duration_MTurk/v2_DepthDuration_HTML.html#1,1,1517,694,1366,768,9-3-2022,6-14-19,131,depth_duration_stimuli/002784_2014-06-22_19-26-30_094959634447_rgbf000083-resize_3/002784_2014-06-22_19-26-30_094959634447_rgbf000083-resize_3-target.png,250,1.8046666666667,4,2498,245,meters,jsons/v1_VE250_randls_59.json,579394,921378,49,Woman
131,128077,DepthScenes,duration_manipulation_targetAtFixation,jsons/v1_VE250_randls_59.json,http://54.235.29.9/FacialAge/BNav_EC2/DepthDuration/v2_depth_duration_MTurk/v2_DepthDuration_HTML.html#1,1,1517,694,1366,768,9-3-2022,6-14-19,132,depth_duration_stimuli/001100_2014-06-15_17-46-26_260595134347_rgbf000225-resize_2/001100_2014-06-15_17-46-26_260595134347_rgbf000225-resize_2-target.png,250,2.24,4,2888,260,meters,jsons/v1_VE250_randls_59.json,579394,921378,49,Woman
132,128077,DepthScenes,duration_manipulation_targetAtFixation,jsons/v1_VE250_randls_59.json,http://54.235.29.9/FacialAge/BNav_EC2/DepthDuration/v2_depth_duration_MTurk/v2_DepthDuration_HTML.html#1,1,1517,694,1366,768,9-3-2022,6-14-19,133,depth_duration_stimuli/002725_2014-06-22_11-47-51_094959634447_rgbf000070-resize_1/002725_2014-06-22_11-47-51_094959634447_rgbf000070-resize_1-target.png,250,2.195,6,2278,241,meters,jsons/v1_VE250_randls_59.json,579394,921378,49,Woman
133,128077,DepthScenes,duration_manipulation_targetAtFixation,jsons/v1_VE250_randls_59.json,http://54.235.29.9/FacialAge/BNav_EC2/DepthDuration/v2_depth_duration_MTurk/v2_DepthDuration_HTML.html#1,1,1517,694,1366,768,9-3-2022,6-14-19,134,depth_duration_stimuli/002344_2014-06-28_20-06-29_260595134347_rgbf000030-resize_1/002344_2014-06-28_20-06-29_260595134347_rgbf000030-resize_1-target.png,250,1.5795,4,3243,264,meters,jsons/v1_VE250_randls_59.json,579394,921378,49,Woman
134,128077,DepthScenes,duration_manipulation_targetAtFixation,jsons/v1_VE250_randls_59.json,http://54.235.29.9/FacialAge/BNav_EC2/DepthDuration/v2_depth_duration_MTurk/v2_DepthDuration_HTML.html#1,1,1517,694,1366,768,9-3-2022,6-14-19,135,depth_duration_stimuli/002072_2014-06-24_21-48-06_260595134347_rgbf000115-resize_0/002072_2014-06-24_21-48-06_260595134347_rgbf000115-resize-original.jpg,250,4.702,0,2654,250,meters,jsons/v1_VE250_randls_59.json,579394,921378,49,Woman
135,128077,DepthScenes,duration_manipulation_targetAtFixation,jsons/v1_VE250_randls_59.json,http://54.235.29.9/FacialAge/BNav_EC2/DepthDuration/v2_depth_duration_MTurk/v2_DepthDuration_HTML.html#1,1,1517,694,1366,768,9-3-2022,6-14-19,136,depth_duration_stimuli/001570_2014-06-20_17-21-09_260595134347_rgbf000135-resize_4/001570_2014-06-20_17-21-09_260595134347_rgbf000135-resize_4-target.png,250,4.467,8,6683,243,meters,jsons/v1_VE250_randls_59.json,579394,921378,49,Woman
136,128077,DepthScenes,duration_manipulation_targetAtFixation,jsons/v1_VE250_randls_59.json,http://54.235.29.9/FacialAge/BNav_EC2/DepthDuration/v2_depth_duration_MTurk/v2_DepthDuration_HTML.html#1,1,1517,694,1366,768,9-3-2022,6-14-19,137,depth_duration_stimuli/001392_2014-06-19_16-07-59_260595134347_rgbf000046-resize_1/001392_2014-06-19_16-07-59_260595134347_rgbf000046-resize_1-target.png,250,4.135,8,3303,244,meters,jsons/v1_VE250_randls_59.json,579394,921378,49,Woman
137,128077,DepthScenes,duration_manipulation_targetAtFixation,jsons/v1_VE250_randls_59.json,http://54.235.29.9/FacialAge/BNav_EC2/DepthDuration/v2_depth_duration_MTurk/v2_DepthDuration_HTML.html#1,1,1517,694,1366,768,9-3-2022,6-14-19,138,depth_duration_stimuli/002663_2014-06-13_15-50-26_094959634447_rgbf000075-resize_1/002663_2014-06-13_15-50-26_094959634447_rgbf000075-resize_1-target.png,250,4.7495,7,2749,258,meters,jsons/v1_VE250_randls_59.json,579394,921378,49,Woman
138,128077,DepthScenes,duration_manipulation_targetAtFixation,jsons/v1_VE250_randls_59.json,http://54.235.29.9/FacialAge/BNav_EC2/DepthDuration/v2_depth_duration_MTurk/v2_DepthDuration_HTML.html#1,1,1517,694,1366,768,9-3-2022,6-14-19,139,depth_duration_stimuli/000409_2014-06-04_19-23-33_260595134347_rgbf000067-resize_0/000409_2014-06-04_19-23-33_260595134347_rgbf000067-resize_0-target.png,250,3.7335,7,2510,248,meters,jsons/v1_VE250_randls_59.json,579394,921378,49,Woman
139,128077,DepthScenes,duration_manipulation_targetAtFixation,jsons/v1_VE250_randls_59.json,http://54.235.29.9/FacialAge/BNav_EC2/DepthDuration/v2_depth_duration_MTurk/v2_DepthDuration_HTML.html#1,1,1517,694,1366,768,9-3-2022,6-14-19,140,depth_duration_stimuli/000009_2014-05-26_14-32-05_260595134347_rgbf000034-resize_3/000009_2014-05-26_14-32-05_260595134347_rgbf000034-resize_3-target.png,250,3.8715,12,3061,250,meters,jsons/v1_VE250_randls_59.json,579394,921378,49,Woman
140,128077,DepthScenes,duration_manipulation_targetAtFixation,jsons/v1_VE250_randls_59.json,http://54.235.29.9/FacialAge/BNav_EC2/DepthDuration/v2_depth_duration_MTurk/v2_DepthDuration_HTML.html#1,1,1517,694,1366,768,9-3-2022,6-14-19,141,depth_duration_stimuli/001828_2014-06-26_21-40-03_260595134347_rgbf000024-resize_0/001828_2014-06-26_21-40-03_260595134347_rgbf000024-resize_0-target.png,250,4.8260000000000005,8,2859,258,meters,jsons/v1_VE250_randls_59.json,579394,921378,49,Woman
141,128077,DepthScenes,duration_manipulation_targetAtFixation,jsons/v1_VE250_randls_59.json,http://54.235.29.9/FacialAge/BNav_EC2/DepthDuration/v2_depth_duration_MTurk/v2_DepthDuration_HTML.html#1,1,1517,694,1366,768,9-3-2022,6-14-19,142,depth_duration_stimuli/002272_2014-06-28_18-53-56_260595134347_rgbf000067-resize_2/002272_2014-06-28_18-53-56_260595134347_rgbf000067-resize_2-target.png,250,1.138,5,3900,251,meters,jsons/v1_VE250_randls_59.json,579394,921378,49,Woman
142,128077,DepthScenes,duration_manipulation_targetAtFixation,jsons/v1_VE250_randls_59.json,http://54.235.29.9/FacialAge/BNav_EC2/DepthDuration/v2_depth_duration_MTurk/v2_DepthDuration_HTML.html#1,1,1517,694,1366,768,9-3-2022,6-14-19,143,depth_duration_stimuli/001571_2014-06-20_17-21-32_260595134347_rgbf000089-resize_1/001571_2014-06-20_17-21-32_260595134347_rgbf000089-resize_1-target.png,250,1.86,6,2969,249,meters,jsons/v1_VE250_randls_59.json,579394,921378,49,Woman
143,128077,DepthScenes,duration_manipulation_targetAtFixation,jsons/v1_VE250_randls_59.json,http://54.235.29.9/FacialAge/BNav_EC2/DepthDuration/v2_depth_duration_MTurk/v2_DepthDuration_HTML.html#1,1,1517,694,1366,768,9-3-2022,6-14-19,144,depth_duration_stimuli/002600_2014-06-24_14-27-04_094959634447_rgbf000074-resize_2/002600_2014-06-24_14-27-04_094959634447_rgbf000074-resize_2-target.png,250,2.7575,12,2911,244,meters,jsons/v1_VE250_randls_59.json,579394,921378,49,Woman
144,128077,DepthScenes,duration_manipulation_targetAtFixation,jsons/v1_VE250_randls_59.json,http://54.235.29.9/FacialAge/BNav_EC2/DepthDuration/v2_depth_duration_MTurk/v2_DepthDuration_HTML.html#1,1,1517,694,1366,768,9-3-2022,6-14-19,145,depth_duration_stimuli/003228_2014-05-14_13-42-35_094959634447_rgbf000101-resize_1/003228_2014-05-14_13-42-35_094959634447_rgbf000101-resize_1-target.png,250,1.9680000000000002,5,3172,244,meters,jsons/v1_VE250_randls_59.json,579394,921378,49,Woman
145,128077,DepthScenes,duration_manipulation_targetAtFixation,jsons/v1_VE250_randls_59.json,http://54.235.29.9/FacialAge/BNav_EC2/DepthDuration/v2_depth_duration_MTurk/v2_DepthDuration_HTML.html#1,1,1517,694,1366,768,9-3-2022,6-14-19,146,depth_duration_stimuli/001498_2014-06-19_17-45-14_260595134347_rgbf000129-resize_4/001498_2014-06-19_17-45-14_260595134347_rgbf000129-resize-original.jpg,250,1.4075,4,3725,248,meters,jsons/v1_VE250_randls_59.json,579394,921378,49,Woman
146,128077,DepthScenes,duration_manipulation_targetAtFixation,jsons/v1_VE250_randls_59.json,http://54.235.29.9/FacialAge/BNav_EC2/DepthDuration/v2_depth_duration_MTurk/v2_DepthDuration_HTML.html#1,1,1517,694,1366,768,9-3-2022,6-14-19,147,depth_duration_stimuli/002445_2014-06-28_20-32-16_260595134347_rgbf000029-resize_4/002445_2014-06-28_20-32-16_260595134347_rgbf000029-resize_4-target.png,250,2.5315,5,4507,246,meters,jsons/v1_VE250_randls_59.json,579394,921378,49,Woman
147,128077,DepthScenes,duration_manipulation_targetAtFixation,jsons/v1_VE250_randls_59.json,http://54.235.29.9/FacialAge/BNav_EC2/DepthDuration/v2_depth_duration_MTurk/v2_DepthDuration_HTML.html#1,1,1517,694,1366,768,9-3-2022,6-14-19,148,depth_duration_stimuli/000780_2014-06-08_22-28-29_260595134347_rgbf000126-resize_1/000780_2014-06-08_22-28-29_260595134347_rgbf000126-resize_1-target.png,250,3.3825,7,2576,261,meters,jsons/v1_VE250_randls_59.json,579394,921378,49,Woman
148,128077,DepthScenes,duration_manipulation_targetAtFixation,jsons/v1_VE250_randls_59.json,http://54.235.29.9/FacialAge/BNav_EC2/DepthDuration/v2_depth_duration_MTurk/v2_DepthDuration_HTML.html#1,1,1517,694,1366,768,9-3-2022,6-14-19,149,depth_duration_stimuli/001417_2014-06-19_16-25-36_260595134347_rgbf000115-resize_5/001417_2014-06-19_16-25-36_260595134347_rgbf000115-resize_5-target.png,250,4.6255,8,2965,236,meters,jsons/v1_VE250_randls_59.json,579394,921378,49,Woman
149,128077,DepthScenes,duration_manipulation_targetAtFixation,jsons/v1_VE250_randls_59.json,http://54.235.29.9/FacialAge/BNav_EC2/DepthDuration/v2_depth_duration_MTurk/v2_DepthDuration_HTML.html#1,1,1517,694,1366,768,9-3-2022,6-14-19,150,depth_duration_stimuli/003081_2014-06-15_15-19-16_094959634447_rgbf000150-resize_1/003081_2014-06-15_15-19-16_094959634447_rgbf000150-resize_1-target.png,250,3.9125,8,2905,242,meters,jsons/v1_VE250_randls_59.json,579394,921378,49,Woman
150,128077,DepthScenes,duration_manipulation_targetAtFixation,jsons/v1_VE250_randls_59.json,http://54.235.29.9/FacialAge/BNav_EC2/DepthDuration/v2_depth_duration_MTurk/v2_DepthDuration_HTML.html#1,1,1517,694,1366,768,9-3-2022,6-14-19,151,depth_duration_stimuli/001244_2014-06-17_16-47-45_260595134347_rgbf000030-resize_4/001244_2014-06-17_16-47-45_260595134347_rgbf000030-resize_4-target.png,250,2.0425,6,2737,255,meters,jsons/v1_VE250_randls_59.json,579394,921378,49,Woman
151,128077,DepthScenes,duration_manipulation_targetAtFixation,jsons/v1_VE250_randls_59.json,http://54.235.29.9/FacialAge/BNav_EC2/DepthDuration/v2_depth_duration_MTurk/v2_DepthDuration_HTML.html#1,1,1517,694,1366,768,9-3-2022,6-14-19,152,depth_duration_stimuli/003495_2014-05-21_16-01-51_094959634447_rgbf000100-resize_3/003495_2014-05-21_16-01-51_094959634447_rgbf000100-resize_3-target.png,250,1.6255,5,2961,252,meters,jsons/v1_VE250_randls_59.json,579394,921378,49,Woman
152,128077,DepthScenes,duration_manipulation_targetAtFixation,jsons/v1_VE250_randls_59.json,http://54.235.29.9/FacialAge/BNav_EC2/DepthDuration/v2_depth_duration_MTurk/v2_DepthDuration_HTML.html#1,1,1517,694,1366,768,9-3-2022,6-14-19,153,depth_duration_stimuli/000368_2014-06-09_15-53-01_260595134347_rgbf000155-resize_2/000368_2014-06-09_15-53-01_260595134347_rgbf000155-resize_2-target.png,250,2.4859999999999998,6,5444,250,meters,jsons/v1_VE250_randls_59.json,579394,921378,49,Woman
153,128077,DepthScenes,duration_manipulation_targetAtFixation,jsons/v1_VE250_randls_59.json,http://54.235.29.9/FacialAge/BNav_EC2/DepthDuration/v2_depth_duration_MTurk/v2_DepthDuration_HTML.html#1,1,1517,694,1366,768,9-3-2022,6-14-19,154,depth_duration_stimuli/002678_2014-06-13_16-15-32_094959634447_rgbf000151-resize_6/002678_2014-06-13_16-15-32_094959634447_rgbf000151-resize_6-target.png,250,2.1830000000000003,7,2566,250,meters,jsons/v1_VE250_randls_59.json,579394,921378,49,Woman
154,128077,DepthScenes,duration_manipulation_targetAtFixation,jsons/v1_VE250_randls_59.json,http://54.235.29.9/FacialAge/BNav_EC2/DepthDuration/v2_depth_duration_MTurk/v2_DepthDuration_HTML.html#1,1,1517,694,1366,768,9-3-2022,6-14-19,155,depth_duration_stimuli/000493_2014-06-09_21-01-18_260595134347_rgbf000196-resize_3/000493_2014-06-09_21-01-18_260595134347_rgbf000196-resize_3-target.png,250,3.44,8,2827,252,meters,jsons/v1_VE250_randls_59.json,579394,921378,49,Woman
155,128077,DepthScenes,duration_manipulation_targetAtFixation,jsons/v1_VE250_randls_59.json,http://54.235.29.9/FacialAge/BNav_EC2/DepthDuration/v2_depth_duration_MTurk/v2_DepthDuration_HTML.html#1,1,1517,694,1366,768,9-3-2022,6-14-19,156,depth_duration_stimuli/000191_2014-05-12_17-07-38_260595134347_rgbf000199-resize_0/000191_2014-05-12_17-07-38_260595134347_rgbf000199-resize_0-target.png,250,3.7995,12,3311,243,meters,jsons/v1_VE250_randls_59.json,579394,921378,49,Woman
156,128077,DepthScenes,duration_manipulation_targetAtFixation,jsons/v1_VE250_randls_59.json,http://54.235.29.9/FacialAge/BNav_EC2/DepthDuration/v2_depth_duration_MTurk/v2_DepthDuration_HTML.html#1,1,1517,694,1366,768,9-3-2022,6-14-19,157,depth_duration_stimuli/002988_2014-06-15_12-24-20_094959634447_rgbf000150-resize_1/002988_2014-06-15_12-24-20_094959634447_rgbf000150-resize_1-target.png,250,4.7669999999999995,8,2814,245,meters,jsons/v1_VE250_randls_59.json,579394,921378,49,Woman
157,128077,DepthScenes,duration_manipulation_targetAtFixation,jsons/v1_VE250_randls_59.json,http://54.235.29.9/FacialAge/BNav_EC2/DepthDuration/v2_depth_duration_MTurk/v2_DepthDuration_HTML.html#1,1,1517,694,1366,768,9-3-2022,6-14-19,158,depth_duration_stimuli/001052_2014-06-08_18-24-54_260595134347_rgbf000130-resize_1/001052_2014-06-08_18-24-54_260595134347_rgbf000130-resize_1-target.png,250,4.1045,12,2780,251,meters,jsons/v1_VE250_randls_59.json,579394,921378,49,Woman
158,128077,DepthScenes,duration_manipulation_targetAtFixation,jsons/v1_VE250_randls_59.json,http://54.235.29.9/FacialAge/BNav_EC2/DepthDuration/v2_depth_duration_MTurk/v2_DepthDuration_HTML.html#1,1,1517,694,1366,768,9-3-2022,6-14-19,159,depth_duration_stimuli/002788_2014-06-22_19-36-03_094959634447_rgbf000088-resize_2/002788_2014-06-22_19-36-03_094959634447_rgbf000088-resize_2-target.png,250,1.6465,8,2741,233,meters,jsons/v1_VE250_randls_59.json,579394,921378,49,Woman
159,128077,DepthScenes,duration_manipulation_targetAtFixation,jsons/v1_VE250_randls_59.json,http://54.235.29.9/FacialAge/BNav_EC2/DepthDuration/v2_depth_duration_MTurk/v2_DepthDuration_HTML.html#1,1,1517,694,1366,768,9-3-2022,6-14-19,160,depth_duration_stimuli/000749_2014-06-08_21-55-06_260595134347_rgbf000070-resize_2/000749_2014-06-08_21-55-06_260595134347_rgbf000070-resize_2-target.png,250,2.331,8,2867,245,meters,jsons/v1_VE250_randls_59.json,579394,921378,49,Woman
160,128077,DepthScenes,duration_manipulation_targetAtFixation,jsons/v1_VE250_randls_59.json,http://54.235.29.9/FacialAge/BNav_EC2/DepthDuration/v2_depth_duration_MTurk/v2_DepthDuration_HTML.html#1,1,1517,694,1366,768,9-3-2022,6-14-19,161,depth_duration_stimuli/000739_2014-06-08_18-45-58_260595134347_rgbf000068-resize_1/000739_2014-06-08_18-45-58_260595134347_rgbf000068-resize_1-target.png,250,3.534,10,6074,253,meters,jsons/v1_VE250_randls_59.json,579394,921378,49,Woman
161,128077,DepthScenes,duration_manipulation_targetAtFixation,jsons/v1_VE250_randls_59.json,http://54.235.29.9/FacialAge/BNav_EC2/DepthDuration/v2_depth_duration_MTurk/v2_DepthDuration_HTML.html#1,1,1517,694,1366,768,9-3-2022,6-14-19,162,depth_duration_stimuli/000734_2014-06-08_17-39-11_260595134347_rgbf000128-resize_2/000734_2014-06-08_17-39-11_260595134347_rgbf000128-resize_2-target.png,250,4.098,8,3448,250,meters,jsons/v1_VE250_randls_59.json,579394,921378,49,Woman
162,128077,DepthScenes,duration_manipulation_targetAtFixation,jsons/v1_VE250_randls_59.json,http://54.235.29.9/FacialAge/BNav_EC2/DepthDuration/v2_depth_duration_MTurk/v2_DepthDuration_HTML.html#1,1,1517,694,1366,768,9-3-2022,6-14-19,163,depth_duration_stimuli/001055_2014-06-08_18-45-35_260595134347_rgbf000111-resize_4/001055_2014-06-08_18-45-35_260595134347_rgbf000111-resize_4-target.png,250,2.4290000000000003,7,6373,236,meters,jsons/v1_VE250_randls_59.json,579394,921378,49,Woman
163,128077,DepthScenes,duration_manipulation_targetAtFixation,jsons/v1_VE250_randls_59.json,http://54.235.29.9/FacialAge/BNav_EC2/DepthDuration/v2_depth_duration_MTurk/v2_DepthDuration_HTML.html#1,1,1517,694,1366,768,9-3-2022,6-14-19,164,depth_duration_stimuli/000549_2014-06-08_22-10-24_260595134347_rgbf000247-resize_3/000549_2014-06-08_22-10-24_260595134347_rgbf000247-resize_3-target.png,250,1.841,3,2229,238,meters,jsons/v1_VE250_randls_59.json,579394,921378,49,Woman
