,subjID,experimentName,versionName,sequenceName,url,selected_row,windowWidth,windowHeight,screenWidth,screenHeight,startDate,startTime,trial,stimulus,duration,actual_depth,depth_estimate,trial_RT,log_sceneDuration,unitSelection,seq_filepath,experimentTime,totalTime,age,gender
0,128865,DepthScenes,duration_manipulation_targetAtFixation,jsons/v1_VE250_randls_13.json,http://54.235.29.9/FacialAge/BNav_EC2/DepthDuration/v2_depth_duration_MTurk/v2_DepthDuration_HTML.html#86,86,1536,722,1536,864,8-20-2022,11-27-51,1,depth_duration_stimuli/001808_2014-06-26_20-50-58_260595134347_rgbf000029-resize_1/001808_2014-06-26_20-50-58_260595134347_rgbf000029-resize_1-target.png,250,4.249,3,5168,247,feet,jsons/v1_VE250_randls_13.json,493574,669704,34,Man
1,128865,DepthScenes,duration_manipulation_targetAtFixation,jsons/v1_VE250_randls_13.json,http://54.235.29.9/FacialAge/BNav_EC2/DepthDuration/v2_depth_duration_MTurk/v2_DepthDuration_HTML.html#86,86,1536,722,1536,864,8-20-2022,11-27-51,2,depth_duration_stimuli/001815_2014-06-26_20-52-55_260595134347_rgbf000020-resize_0/001815_2014-06-26_20-52-55_260595134347_rgbf000020-resize_0-target.png,250,3.3865,4,2529,249,feet,jsons/v1_VE250_randls_13.json,493574,669704,34,Man
2,128865,DepthScenes,duration_manipulation_targetAtFixation,jsons/v1_VE250_randls_13.json,http://54.235.29.9/FacialAge/BNav_EC2/DepthDuration/v2_depth_duration_MTurk/v2_DepthDuration_HTML.html#86,86,1536,722,1536,864,8-20-2022,11-27-51,3,depth_duration_stimuli/001029_2014-06-08_13-17-57_260595134347_rgbf000065-resize_1/001029_2014-06-08_13-17-57_260595134347_rgbf000065-resize_1-target.png,250,3.0835,5,2530,237,feet,jsons/v1_VE250_randls_13.json,493574,669704,34,Man
3,128865,DepthScenes,duration_manipulation_targetAtFixation,jsons/v1_VE250_randls_13.json,http://54.235.29.9/FacialAge/BNav_EC2/DepthDuration/v2_depth_duration_MTurk/v2_DepthDuration_HTML.html#86,86,1536,722,1536,864,8-20-2022,11-27-51,4,depth_duration_stimuli/000677_2014-06-08_23-10-32_260595134347_rgbf000158-resize_6/000677_2014-06-08_23-10-32_260595134347_rgbf000158-resize_6-target.png,250,3.556,6,2625,245,feet,jsons/v1_VE250_randls_13.json,493574,669704,34,Man
4,128865,DepthScenes,duration_manipulation_targetAtFixation,jsons/v1_VE250_randls_13.json,http://54.235.29.9/FacialAge/BNav_EC2/DepthDuration/v2_depth_duration_MTurk/v2_DepthDuration_HTML.html#86,86,1536,722,1536,864,8-20-2022,11-27-51,5,depth_duration_stimuli/002118_2014-06-25_20-32-08_260595134347_rgbf000078-resize_1/002118_2014-06-25_20-32-08_260595134347_rgbf000078-resize_1-target.png,250,2.6460000000000004,3,2570,261,feet,jsons/v1_VE250_randls_13.json,493574,669704,34,Man
5,128865,DepthScenes,duration_manipulation_targetAtFixation,jsons/v1_VE250_randls_13.json,http://54.235.29.9/FacialAge/BNav_EC2/DepthDuration/v2_depth_duration_MTurk/v2_DepthDuration_HTML.html#86,86,1536,722,1536,864,8-20-2022,11-27-51,6,depth_duration_stimuli/001516_2014-06-20_16-25-09_260595134347_rgbf000076-resize_2/001516_2014-06-20_16-25-09_260595134347_rgbf000076-resize_2-target.png,250,1.7445,4,2333,241,feet,jsons/v1_VE250_randls_13.json,493574,669704,34,Man
6,128865,DepthScenes,duration_manipulation_targetAtFixation,jsons/v1_VE250_randls_13.json,http://54.235.29.9/FacialAge/BNav_EC2/DepthDuration/v2_depth_duration_MTurk/v2_DepthDuration_HTML.html#86,86,1536,722,1536,864,8-20-2022,11-27-51,7,depth_duration_stimuli/001417_2014-06-19_16-25-36_260595134347_rgbf000115-resize_5/001417_2014-06-19_16-25-36_260595134347_rgbf000115-resize_5-target.png,250,4.6255,5,2159,238,feet,jsons/v1_VE250_randls_13.json,493574,669704,34,Man
7,128865,DepthScenes,duration_manipulation_targetAtFixation,jsons/v1_VE250_randls_13.json,http://54.235.29.9/FacialAge/BNav_EC2/DepthDuration/v2_depth_duration_MTurk/v2_DepthDuration_HTML.html#86,86,1536,722,1536,864,8-20-2022,11-27-51,8,depth_duration_stimuli/003081_2014-06-15_15-19-16_094959634447_rgbf000150-resize_1/003081_2014-06-15_15-19-16_094959634447_rgbf000150-resize_1-target.png,250,3.9125,6,2072,250,feet,jsons/v1_VE250_randls_13.json,493574,669704,34,Man
8,128865,DepthScenes,duration_manipulation_targetAtFixation,jsons/v1_VE250_randls_13.json,http://54.235.29.9/FacialAge/BNav_EC2/DepthDuration/v2_depth_duration_MTurk/v2_DepthDuration_HTML.html#86,86,1536,722,1536,864,8-20-2022,11-27-51,9,depth_duration_stimuli/000682_2014-06-08_23-14-58_260595134347_rgbf000041-resize_5/000682_2014-06-08_23-14-58_260595134347_rgbf000041-resize_5-target.png,250,2.7239999999999998,3,4418,248,feet,jsons/v1_VE250_randls_13.json,493574,669704,34,Man
9,128865,DepthScenes,duration_manipulation_targetAtFixation,jsons/v1_VE250_randls_13.json,http://54.235.29.9/FacialAge/BNav_EC2/DepthDuration/v2_depth_duration_MTurk/v2_DepthDuration_HTML.html#86,86,1536,722,1536,864,8-20-2022,11-27-51,10,depth_duration_stimuli/001650_2014-06-20_12-09-00_260595134347_rgbf000087-resize_3/001650_2014-06-20_12-09-00_260595134347_rgbf000087-resize_3-target.png,250,1.9505,2,2866,245,feet,jsons/v1_VE250_randls_13.json,493574,669704,34,Man
10,128865,DepthScenes,duration_manipulation_targetAtFixation,jsons/v1_VE250_randls_13.json,http://54.235.29.9/FacialAge/BNav_EC2/DepthDuration/v2_depth_duration_MTurk/v2_DepthDuration_HTML.html#86,86,1536,722,1536,864,8-20-2022,11-27-51,11,depth_duration_stimuli/001244_2014-06-17_16-47-45_260595134347_rgbf000030-resize_4/001244_2014-06-17_16-47-45_260595134347_rgbf000030-resize_4-target.png,250,2.0425,4,2335,237,feet,jsons/v1_VE250_randls_13.json,493574,669704,34,Man
11,128865,DepthScenes,duration_manipulation_targetAtFixation,jsons/v1_VE250_randls_13.json,http://54.235.29.9/FacialAge/BNav_EC2/DepthDuration/v2_depth_duration_MTurk/v2_DepthDuration_HTML.html#86,86,1536,722,1536,864,8-20-2022,11-27-51,12,depth_duration_stimuli/003495_2014-05-21_16-01-51_094959634447_rgbf000100-resize_3/003495_2014-05-21_16-01-51_094959634447_rgbf000100-resize_3-target.png,250,1.6255,2,2302,233,feet,jsons/v1_VE250_randls_13.json,493574,669704,34,Man
12,128865,DepthScenes,duration_manipulation_targetAtFixation,jsons/v1_VE250_randls_13.json,http://54.235.29.9/FacialAge/BNav_EC2/DepthDuration/v2_depth_duration_MTurk/v2_DepthDuration_HTML.html#86,86,1536,722,1536,864,8-20-2022,11-27-51,13,depth_duration_stimuli/000569_2014-06-09_22-51-47_260595134347_rgbf000141-resize_3/000569_2014-06-09_22-51-47_260595134347_rgbf000141-resize-original.jpg,250,4.512,0,3762,255,feet,jsons/v1_VE250_randls_13.json,493574,669704,34,Man
13,128865,DepthScenes,duration_manipulation_targetAtFixation,jsons/v1_VE250_randls_13.json,http://54.235.29.9/FacialAge/BNav_EC2/DepthDuration/v2_depth_duration_MTurk/v2_DepthDuration_HTML.html#86,86,1536,722,1536,864,8-20-2022,11-27-51,14,depth_duration_stimuli/001158_2014-06-17_15-32-16_260595134347_rgbf000138-resize_2/001158_2014-06-17_15-32-16_260595134347_rgbf000138-resize_2-target.png,250,4.5315,6,2423,237,feet,jsons/v1_VE250_randls_13.json,493574,669704,34,Man
14,128865,DepthScenes,duration_manipulation_targetAtFixation,jsons/v1_VE250_randls_13.json,http://54.235.29.9/FacialAge/BNav_EC2/DepthDuration/v2_depth_duration_MTurk/v2_DepthDuration_HTML.html#86,86,1536,722,1536,864,8-20-2022,11-27-51,15,depth_duration_stimuli/000556_2014-06-09_22-42-56_260595134347_rgbf000214-resize_1/000556_2014-06-09_22-42-56_260595134347_rgbf000214-resize_1-target.png,250,4.8415,5,1952,250,feet,jsons/v1_VE250_randls_13.json,493574,669704,34,Man
15,128865,DepthScenes,duration_manipulation_targetAtFixation,jsons/v1_VE250_randls_13.json,http://54.235.29.9/FacialAge/BNav_EC2/DepthDuration/v2_depth_duration_MTurk/v2_DepthDuration_HTML.html#86,86,1536,722,1536,864,8-20-2022,11-27-51,16,depth_duration_stimuli/001150_2014-06-17_15-27-34_260595134347_rgbf000108-resize_2/001150_2014-06-17_15-27-34_260595134347_rgbf000108-resize_2-target.png,250,4.0325,4,2107,256,feet,jsons/v1_VE250_randls_13.json,493574,669704,34,Man
16,128865,DepthScenes,duration_manipulation_targetAtFixation,jsons/v1_VE250_randls_13.json,http://54.235.29.9/FacialAge/BNav_EC2/DepthDuration/v2_depth_duration_MTurk/v2_DepthDuration_HTML.html#86,86,1536,722,1536,864,8-20-2022,11-27-51,17,depth_duration_stimuli/000665_2014-06-09_20-42-35_260595134347_rgbf000110-resize_1/000665_2014-06-09_20-42-35_260595134347_rgbf000110-resize_1-target.png,250,3.057,6,2043,236,feet,jsons/v1_VE250_randls_13.json,493574,669704,34,Man
17,128865,DepthScenes,duration_manipulation_targetAtFixation,jsons/v1_VE250_randls_13.json,http://54.235.29.9/FacialAge/BNav_EC2/DepthDuration/v2_depth_duration_MTurk/v2_DepthDuration_HTML.html#86,86,1536,722,1536,864,8-20-2022,11-27-51,18,depth_duration_stimuli/002375_2014-06-28_20-13-44_260595134347_rgbf000032-resize_1/002375_2014-06-28_20-13-44_260595134347_rgbf000032-resize_1-target.png,250,4.0175,4,2115,245,feet,jsons/v1_VE250_randls_13.json,493574,669704,34,Man
18,128865,DepthScenes,duration_manipulation_targetAtFixation,jsons/v1_VE250_randls_13.json,http://54.235.29.9/FacialAge/BNav_EC2/DepthDuration/v2_depth_duration_MTurk/v2_DepthDuration_HTML.html#86,86,1536,722,1536,864,8-20-2022,11-27-51,19,depth_duration_stimuli/002657_2014-06-13_15-29-54_094959634447_rgbf000150-resize_1/002657_2014-06-13_15-29-54_094959634447_rgbf000150-resize_1-target.png,250,4.919,24,2108,263,feet,jsons/v1_VE250_randls_13.json,493574,669704,34,Man
19,128865,DepthScenes,duration_manipulation_targetAtFixation,jsons/v1_VE250_randls_13.json,http://54.235.29.9/FacialAge/BNav_EC2/DepthDuration/v2_depth_duration_MTurk/v2_DepthDuration_HTML.html#86,86,1536,722,1536,864,8-20-2022,11-27-51,20,depth_duration_stimuli/003492_2014-05-21_15-50-55_094959634447_rgbf000828-resize_1/003492_2014-05-21_15-50-55_094959634447_rgbf000828-resize_1-target.png,250,4.06875,4,2276,259,feet,jsons/v1_VE250_randls_13.json,493574,669704,34,Man
20,128865,DepthScenes,duration_manipulation_targetAtFixation,jsons/v1_VE250_randls_13.json,http://54.235.29.9/FacialAge/BNav_EC2/DepthDuration/v2_depth_duration_MTurk/v2_DepthDuration_HTML.html#86,86,1536,722,1536,864,8-20-2022,11-27-51,21,depth_duration_stimuli/002568_2014-06-24_13-59-21_094959634447_rgbf000062-resize_4/002568_2014-06-24_13-59-21_094959634447_rgbf000062-resize_4-target.png,250,3.015,6,2887,251,feet,jsons/v1_VE250_randls_13.json,493574,669704,34,Man
21,128865,DepthScenes,duration_manipulation_targetAtFixation,jsons/v1_VE250_randls_13.json,http://54.235.29.9/FacialAge/BNav_EC2/DepthDuration/v2_depth_duration_MTurk/v2_DepthDuration_HTML.html#86,86,1536,722,1536,864,8-20-2022,11-27-51,22,depth_duration_stimuli/000788_2014-06-08_22-34-36_260595134347_rgbf000131-resize_1/000788_2014-06-08_22-34-36_260595134347_rgbf000131-resize_1-target.png,250,3.359,5,2038,237,feet,jsons/v1_VE250_randls_13.json,493574,669704,34,Man
22,128865,DepthScenes,duration_manipulation_targetAtFixation,jsons/v1_VE250_randls_13.json,http://54.235.29.9/FacialAge/BNav_EC2/DepthDuration/v2_depth_duration_MTurk/v2_DepthDuration_HTML.html#86,86,1536,722,1536,864,8-20-2022,11-27-51,23,depth_duration_stimuli/001235_2014-06-17_16-37-36_260595134347_rgbf000084-resize_4/001235_2014-06-17_16-37-36_260595134347_rgbf000084-resize_4-target.png,250,3.6605,4,2505,253,feet,jsons/v1_VE250_randls_13.json,493574,669704,34,Man
23,128865,DepthScenes,duration_manipulation_targetAtFixation,jsons/v1_VE250_randls_13.json,http://54.235.29.9/FacialAge/BNav_EC2/DepthDuration/v2_depth_duration_MTurk/v2_DepthDuration_HTML.html#86,86,1536,722,1536,864,8-20-2022,11-27-51,24,depth_duration_stimuli/000692_2014-06-08_13-09-42_260595134347_rgbf000199-resize_2/000692_2014-06-08_13-09-42_260595134347_rgbf000199-resize_2-target.png,250,3.661,6,2072,238,feet,jsons/v1_VE250_randls_13.json,493574,669704,34,Man
24,128865,DepthScenes,duration_manipulation_targetAtFixation,jsons/v1_VE250_randls_13.json,http://54.235.29.9/FacialAge/BNav_EC2/DepthDuration/v2_depth_duration_MTurk/v2_DepthDuration_HTML.html#86,86,1536,722,1536,864,8-20-2022,11-27-51,25,depth_duration_stimuli/001094_2014-06-15_17-36-00_260595134347_rgbf000205-resize_0/001094_2014-06-15_17-36-00_260595134347_rgbf000205-resize_0-target.png,250,4.2175,5,2285,242,feet,jsons/v1_VE250_randls_13.json,493574,669704,34,Man
25,128865,DepthScenes,duration_manipulation_targetAtFixation,jsons/v1_VE250_randls_13.json,http://54.235.29.9/FacialAge/BNav_EC2/DepthDuration/v2_depth_duration_MTurk/v2_DepthDuration_HTML.html#86,86,1536,722,1536,864,8-20-2022,11-27-51,26,depth_duration_stimuli/002445_2014-06-28_20-32-16_260595134347_rgbf000029-resize_4/002445_2014-06-28_20-32-16_260595134347_rgbf000029-resize_4-target.png,250,2.5315,2,2133,237,feet,jsons/v1_VE250_randls_13.json,493574,669704,34,Man
26,128865,DepthScenes,duration_manipulation_targetAtFixation,jsons/v1_VE250_randls_13.json,http://54.235.29.9/FacialAge/BNav_EC2/DepthDuration/v2_depth_duration_MTurk/v2_DepthDuration_HTML.html#86,86,1536,722,1536,864,8-20-2022,11-27-51,27,depth_duration_stimuli/000780_2014-06-08_22-28-29_260595134347_rgbf000126-resize_1/000780_2014-06-08_22-28-29_260595134347_rgbf000126-resize_1-target.png,250,3.3825,4,2551,242,feet,jsons/v1_VE250_randls_13.json,493574,669704,34,Man
27,128865,DepthScenes,duration_manipulation_targetAtFixation,jsons/v1_VE250_randls_13.json,http://54.235.29.9/FacialAge/BNav_EC2/DepthDuration/v2_depth_duration_MTurk/v2_DepthDuration_HTML.html#86,86,1536,722,1536,864,8-20-2022,11-27-51,28,depth_duration_stimuli/000470_2014-06-09_19-42-40_260595134347_rgbf000094-resize_1/000470_2014-06-09_19-42-40_260595134347_rgbf000094-resize_1-target.png,250,1.831,6,2631,247,feet,jsons/v1_VE250_randls_13.json,493574,669704,34,Man
28,128865,DepthScenes,duration_manipulation_targetAtFixation,jsons/v1_VE250_randls_13.json,http://54.235.29.9/FacialAge/BNav_EC2/DepthDuration/v2_depth_duration_MTurk/v2_DepthDuration_HTML.html#86,86,1536,722,1536,864,8-20-2022,11-27-51,29,depth_duration_stimuli/000109_2014-05-14_23-41-52_260595134347_rgbf000035-resize_9/000109_2014-05-14_23-41-52_260595134347_rgbf000035-resize_9-target.png,250,1.3545,2,4450,248,feet,jsons/v1_VE250_randls_13.json,493574,669704,34,Man
29,128865,DepthScenes,duration_manipulation_targetAtFixation,jsons/v1_VE250_randls_13.json,http://54.235.29.9/FacialAge/BNav_EC2/DepthDuration/v2_depth_duration_MTurk/v2_DepthDuration_HTML.html#86,86,1536,722,1536,864,8-20-2022,11-27-51,30,depth_duration_stimuli/000375_2014-06-08_11-17-29_260595134347_rgbf000133-resize_2/000375_2014-06-08_11-17-29_260595134347_rgbf000133-resize-original.jpg,250,4.718,3,2799,240,feet,jsons/v1_VE250_randls_13.json,493574,669704,34,Man
30,128865,DepthScenes,duration_manipulation_targetAtFixation,jsons/v1_VE250_randls_13.json,http://54.235.29.9/FacialAge/BNav_EC2/DepthDuration/v2_depth_duration_MTurk/v2_DepthDuration_HTML.html#86,86,1536,722,1536,864,8-20-2022,11-27-51,31,depth_duration_stimuli/002509_2014-06-24_13-19-22_094959634447_rgbf000077-resize_0/002509_2014-06-24_13-19-22_094959634447_rgbf000077-resize_0-target.png,250,1.3065,2,2315,235,feet,jsons/v1_VE250_randls_13.json,493574,669704,34,Man
31,128865,DepthScenes,duration_manipulation_targetAtFixation,jsons/v1_VE250_randls_13.json,http://54.235.29.9/FacialAge/BNav_EC2/DepthDuration/v2_depth_duration_MTurk/v2_DepthDuration_HTML.html#86,86,1536,722,1536,864,8-20-2022,11-27-51,32,depth_duration_stimuli/003338_2014-05-20_11-01-23_094959634447_rgbf000051-resize_6/003338_2014-05-20_11-01-23_094959634447_rgbf000051-resize_6-target.png,250,1.693,2,2209,252,feet,jsons/v1_VE250_randls_13.json,493574,669704,34,Man
32,128865,DepthScenes,duration_manipulation_targetAtFixation,jsons/v1_VE250_randls_13.json,http://54.235.29.9/FacialAge/BNav_EC2/DepthDuration/v2_depth_duration_MTurk/v2_DepthDuration_HTML.html#86,86,1536,722,1536,864,8-20-2022,11-27-51,33,depth_duration_stimuli/002784_2014-06-22_19-26-30_094959634447_rgbf000083-resize_3/002784_2014-06-22_19-26-30_094959634447_rgbf000083-resize_3-target.png,250,1.8046666666667,4,4536,243,feet,jsons/v1_VE250_randls_13.json,493574,669704,34,Man
33,128865,DepthScenes,duration_manipulation_targetAtFixation,jsons/v1_VE250_randls_13.json,http://54.235.29.9/FacialAge/BNav_EC2/DepthDuration/v2_depth_duration_MTurk/v2_DepthDuration_HTML.html#86,86,1536,722,1536,864,8-20-2022,11-27-51,34,depth_duration_stimuli/001100_2014-06-15_17-46-26_260595134347_rgbf000225-resize_2/001100_2014-06-15_17-46-26_260595134347_rgbf000225-resize_2-target.png,250,2.24,5,2738,256,feet,jsons/v1_VE250_randls_13.json,493574,669704,34,Man
34,128865,DepthScenes,duration_manipulation_targetAtFixation,jsons/v1_VE250_randls_13.json,http://54.235.29.9/FacialAge/BNav_EC2/DepthDuration/v2_depth_duration_MTurk/v2_DepthDuration_HTML.html#86,86,1536,722,1536,864,8-20-2022,11-27-51,35,depth_duration_stimuli/000469_2014-06-09_19-42-10_260595134347_rgbf000081-resize_1/000469_2014-06-09_19-42-10_260595134347_rgbf000081-resize_1-target.png,250,1.652,2,2504,244,feet,jsons/v1_VE250_randls_13.json,493574,669704,34,Man
35,128865,DepthScenes,duration_manipulation_targetAtFixation,jsons/v1_VE250_randls_13.json,http://54.235.29.9/FacialAge/BNav_EC2/DepthDuration/v2_depth_duration_MTurk/v2_DepthDuration_HTML.html#86,86,1536,722,1536,864,8-20-2022,11-27-51,36,depth_duration_stimuli/000483_2014-06-09_20-41-45_260595134347_rgbf000116-resize_4/000483_2014-06-09_20-41-45_260595134347_rgbf000116-resize_4-target.png,250,1.337,2,2074,260,feet,jsons/v1_VE250_randls_13.json,493574,669704,34,Man
36,128865,DepthScenes,duration_manipulation_targetAtFixation,jsons/v1_VE250_randls_13.json,http://54.235.29.9/FacialAge/BNav_EC2/DepthDuration/v2_depth_duration_MTurk/v2_DepthDuration_HTML.html#86,86,1536,722,1536,864,8-20-2022,11-27-51,37,depth_duration_stimuli/002964_2014-06-08_17-46-11_094959634447_rgbf000091-resize_4/002964_2014-06-08_17-46-11_094959634447_rgbf000091-resize_4-target.png,250,1.6909999999999998,2,2088,253,feet,jsons/v1_VE250_randls_13.json,493574,669704,34,Man
37,128865,DepthScenes,duration_manipulation_targetAtFixation,jsons/v1_VE250_randls_13.json,http://54.235.29.9/FacialAge/BNav_EC2/DepthDuration/v2_depth_duration_MTurk/v2_DepthDuration_HTML.html#86,86,1536,722,1536,864,8-20-2022,11-27-51,38,depth_duration_stimuli/002136_2014-06-25_21-18-03_260595134347_rgbf000109-resize_3/002136_2014-06-25_21-18-03_260595134347_rgbf000109-resize_3-target.png,250,1.9569999999999999,4,2460,245,feet,jsons/v1_VE250_randls_13.json,493574,669704,34,Man
38,128865,DepthScenes,duration_manipulation_targetAtFixation,jsons/v1_VE250_randls_13.json,http://54.235.29.9/FacialAge/BNav_EC2/DepthDuration/v2_depth_duration_MTurk/v2_DepthDuration_HTML.html#86,86,1536,722,1536,864,8-20-2022,11-27-51,39,depth_duration_stimuli/002039_2014-06-24_20-22-38_260595134347_rgbf000084-resize_1/002039_2014-06-24_20-22-38_260595134347_rgbf000084-resize_1-target.png,250,4.408,5,2289,243,feet,jsons/v1_VE250_randls_13.json,493574,669704,34,Man
39,128865,DepthScenes,duration_manipulation_targetAtFixation,jsons/v1_VE250_randls_13.json,http://54.235.29.9/FacialAge/BNav_EC2/DepthDuration/v2_depth_duration_MTurk/v2_DepthDuration_HTML.html#86,86,1536,722,1536,864,8-20-2022,11-27-51,40,depth_duration_stimuli/002103_2014-06-25_20-00-40_260595134347_rgbf000049-resize_0/002103_2014-06-25_20-00-40_260595134347_rgbf000049-resize_0-target.png,250,4.105,4,2124,260,feet,jsons/v1_VE250_randls_13.json,493574,669704,34,Man
40,128865,DepthScenes,duration_manipulation_targetAtFixation,jsons/v1_VE250_randls_13.json,http://54.235.29.9/FacialAge/BNav_EC2/DepthDuration/v2_depth_duration_MTurk/v2_DepthDuration_HTML.html#86,86,1536,722,1536,864,8-20-2022,11-27-51,41,depth_duration_stimuli/002213_2014-06-28_18-37-58_260595134347_rgbf000055-resize_1/002213_2014-06-28_18-37-58_260595134347_rgbf000055-resize_1-target.png,250,3.62,4,2322,241,feet,jsons/v1_VE250_randls_13.json,493574,669704,34,Man
41,128865,DepthScenes,duration_manipulation_targetAtFixation,jsons/v1_VE250_randls_13.json,http://54.235.29.9/FacialAge/BNav_EC2/DepthDuration/v2_depth_duration_MTurk/v2_DepthDuration_HTML.html#86,86,1536,722,1536,864,8-20-2022,11-27-51,42,depth_duration_stimuli/000691_2014-06-08_13-08-50_260595134347_rgbf000132-resize_3/000691_2014-06-08_13-08-50_260595134347_rgbf000132-resize_3-target.png,250,4.1530000000000005,4,2053,247,feet,jsons/v1_VE250_randls_13.json,493574,669704,34,Man
42,128865,DepthScenes,duration_manipulation_targetAtFixation,jsons/v1_VE250_randls_13.json,http://54.235.29.9/FacialAge/BNav_EC2/DepthDuration/v2_depth_duration_MTurk/v2_DepthDuration_HTML.html#86,86,1536,722,1536,864,8-20-2022,11-27-51,43,depth_duration_stimuli/000929_2014-06-09_16-33-19_260595134347_rgbf000139-resize_0/000929_2014-06-09_16-33-19_260595134347_rgbf000139-resize_0-target.png,250,2.8680000000000003,2,2014,247,feet,jsons/v1_VE250_randls_13.json,493574,669704,34,Man
43,128865,DepthScenes,duration_manipulation_targetAtFixation,jsons/v1_VE250_randls_13.json,http://54.235.29.9/FacialAge/BNav_EC2/DepthDuration/v2_depth_duration_MTurk/v2_DepthDuration_HTML.html#86,86,1536,722,1536,864,8-20-2022,11-27-51,44,depth_duration_stimuli/000457_2014-06-08_16-52-43_260595134347_rgbf000199-resize_1/000457_2014-06-08_16-52-43_260595134347_rgbf000199-resize_1-target.png,250,3.6489999999999996,2,2128,237,feet,jsons/v1_VE250_randls_13.json,493574,669704,34,Man
44,128865,DepthScenes,duration_manipulation_targetAtFixation,jsons/v1_VE250_randls_13.json,http://54.235.29.9/FacialAge/BNav_EC2/DepthDuration/v2_depth_duration_MTurk/v2_DepthDuration_HTML.html#86,86,1536,722,1536,864,8-20-2022,11-27-51,45,depth_duration_stimuli/000787_2014-06-08_22-33-53_260595134347_rgbf000175-resize_1/000787_2014-06-08_22-33-53_260595134347_rgbf000175-resize-original.jpg,250,4.784,2,2188,244,feet,jsons/v1_VE250_randls_13.json,493574,669704,34,Man
45,128865,DepthScenes,duration_manipulation_targetAtFixation,jsons/v1_VE250_randls_13.json,http://54.235.29.9/FacialAge/BNav_EC2/DepthDuration/v2_depth_duration_MTurk/v2_DepthDuration_HTML.html#86,86,1536,722,1536,864,8-20-2022,11-27-51,46,depth_duration_stimuli/003621_2014-05-23_18-06-08_094959634447_rgbf000101-resize_1/003621_2014-05-23_18-06-08_094959634447_rgbf000101-resize_1-target.png,250,3.9835,5,1980,259,feet,jsons/v1_VE250_randls_13.json,493574,669704,34,Man
46,128865,DepthScenes,duration_manipulation_targetAtFixation,jsons/v1_VE250_randls_13.json,http://54.235.29.9/FacialAge/BNav_EC2/DepthDuration/v2_depth_duration_MTurk/v2_DepthDuration_HTML.html#86,86,1536,722,1536,864,8-20-2022,11-27-51,47,depth_duration_stimuli/001584_2014-06-20_11-07-43_260595134347_rgbf000002-resize_1/001584_2014-06-20_11-07-43_260595134347_rgbf000002-resize_1-target.png,250,3.53,54,2237,256,feet,jsons/v1_VE250_randls_13.json,493574,669704,34,Man
47,128865,DepthScenes,duration_manipulation_targetAtFixation,jsons/v1_VE250_randls_13.json,http://54.235.29.9/FacialAge/BNav_EC2/DepthDuration/v2_depth_duration_MTurk/v2_DepthDuration_HTML.html#86,86,1536,722,1536,864,8-20-2022,11-27-51,48,depth_duration_stimuli/001175_2014-06-17_15-45-55_260595134347_rgbf000129-resize_4/001175_2014-06-17_15-45-55_260595134347_rgbf000129-resize_4-target.png,250,4.255,4,2417,250,feet,jsons/v1_VE250_randls_13.json,493574,669704,34,Man
48,128865,DepthScenes,duration_manipulation_targetAtFixation,jsons/v1_VE250_randls_13.json,http://54.235.29.9/FacialAge/BNav_EC2/DepthDuration/v2_depth_duration_MTurk/v2_DepthDuration_HTML.html#86,86,1536,722,1536,864,8-20-2022,11-27-51,49,depth_duration_stimuli/003490_2014-05-21_15-50-11_094959634447_rgbf000101-resize_3/003490_2014-05-21_15-50-11_094959634447_rgbf000101-resize_3-target.png,250,3.6445,5,2194,241,feet,jsons/v1_VE250_randls_13.json,493574,669704,34,Man
49,128865,DepthScenes,duration_manipulation_targetAtFixation,jsons/v1_VE250_randls_13.json,http://54.235.29.9/FacialAge/BNav_EC2/DepthDuration/v2_depth_duration_MTurk/v2_DepthDuration_HTML.html#86,86,1536,722,1536,864,8-20-2022,11-27-51,50,depth_duration_stimuli/002279_2014-06-28_18-55-32_260595134347_rgbf000040-resize_5/002279_2014-06-28_18-55-32_260595134347_rgbf000040-resize_5-target.png,250,1.5043333333333,4,2666,244,feet,jsons/v1_VE250_randls_13.json,493574,669704,34,Man
50,128865,DepthScenes,duration_manipulation_targetAtFixation,jsons/v1_VE250_randls_13.json,http://54.235.29.9/FacialAge/BNav_EC2/DepthDuration/v2_depth_duration_MTurk/v2_DepthDuration_HTML.html#86,86,1536,722,1536,864,8-20-2022,11-27-51,51,depth_duration_stimuli/000635_2014-06-08_16-38-42_260595134347_rgbf000106-resize_1/000635_2014-06-08_16-38-42_260595134347_rgbf000106-resize_1-target.png,250,2.074,5,2411,257,feet,jsons/v1_VE250_randls_13.json,493574,669704,34,Man
51,128865,DepthScenes,duration_manipulation_targetAtFixation,jsons/v1_VE250_randls_13.json,http://54.235.29.9/FacialAge/BNav_EC2/DepthDuration/v2_depth_duration_MTurk/v2_DepthDuration_HTML.html#86,86,1536,722,1536,864,8-20-2022,11-27-51,52,depth_duration_stimuli/002043_2014-06-24_20-29-38_260595134347_rgbf000039-resize_4/002043_2014-06-24_20-29-38_260595134347_rgbf000039-resize_4-target.png,250,2.8435,5,2359,256,feet,jsons/v1_VE250_randls_13.json,493574,669704,34,Man
52,128865,DepthScenes,duration_manipulation_targetAtFixation,jsons/v1_VE250_randls_13.json,http://54.235.29.9/FacialAge/BNav_EC2/DepthDuration/v2_depth_duration_MTurk/v2_DepthDuration_HTML.html#86,86,1536,722,1536,864,8-20-2022,11-27-51,53,depth_duration_stimuli/003048_2014-06-15_13-49-43_094959634447_rgbf000150-resize_1/003048_2014-06-15_13-49-43_094959634447_rgbf000150-resize_1-target.png,250,4.0035,4,2336,264,feet,jsons/v1_VE250_randls_13.json,493574,669704,34,Man
53,128865,DepthScenes,duration_manipulation_targetAtFixation,jsons/v1_VE250_randls_13.json,http://54.235.29.9/FacialAge/BNav_EC2/DepthDuration/v2_depth_duration_MTurk/v2_DepthDuration_HTML.html#86,86,1536,722,1536,864,8-20-2022,11-27-51,54,depth_duration_stimuli/002725_2014-06-22_11-47-51_094959634447_rgbf000070-resize_1/002725_2014-06-22_11-47-51_094959634447_rgbf000070-resize_1-target.png,250,2.195,5,2109,249,feet,jsons/v1_VE250_randls_13.json,493574,669704,34,Man
54,128865,DepthScenes,duration_manipulation_targetAtFixation,jsons/v1_VE250_randls_13.json,http://54.235.29.9/FacialAge/BNav_EC2/DepthDuration/v2_depth_duration_MTurk/v2_DepthDuration_HTML.html#86,86,1536,722,1536,864,8-20-2022,11-27-51,55,depth_duration_stimuli/002344_2014-06-28_20-06-29_260595134347_rgbf000030-resize_1/002344_2014-06-28_20-06-29_260595134347_rgbf000030-resize_1-target.png,250,1.5795,2,2659,257,feet,jsons/v1_VE250_randls_13.json,493574,669704,34,Man
55,128865,DepthScenes,duration_manipulation_targetAtFixation,jsons/v1_VE250_randls_13.json,http://54.235.29.9/FacialAge/BNav_EC2/DepthDuration/v2_depth_duration_MTurk/v2_DepthDuration_HTML.html#86,86,1536,722,1536,864,8-20-2022,11-27-51,56,depth_duration_stimuli/001055_2014-06-08_18-45-35_260595134347_rgbf000111-resize_4/001055_2014-06-08_18-45-35_260595134347_rgbf000111-resize_4-target.png,250,2.4290000000000003,6,2040,241,feet,jsons/v1_VE250_randls_13.json,493574,669704,34,Man
56,128865,DepthScenes,duration_manipulation_targetAtFixation,jsons/v1_VE250_randls_13.json,http://54.235.29.9/FacialAge/BNav_EC2/DepthDuration/v2_depth_duration_MTurk/v2_DepthDuration_HTML.html#86,86,1536,722,1536,864,8-20-2022,11-27-51,57,depth_duration_stimuli/000549_2014-06-08_22-10-24_260595134347_rgbf000247-resize_3/000549_2014-06-08_22-10-24_260595134347_rgbf000247-resize_3-target.png,250,1.841,2,2341,252,feet,jsons/v1_VE250_randls_13.json,493574,669704,34,Man
57,128865,DepthScenes,duration_manipulation_targetAtFixation,jsons/v1_VE250_randls_13.json,http://54.235.29.9/FacialAge/BNav_EC2/DepthDuration/v2_depth_duration_MTurk/v2_DepthDuration_HTML.html#86,86,1536,722,1536,864,8-20-2022,11-27-51,58,depth_duration_stimuli/000736_2014-06-08_18-24-15_260595134347_rgbf000206-resize_3/000736_2014-06-08_18-24-15_260595134347_rgbf000206-resize_3-target.png,250,3.515,4,2103,269,feet,jsons/v1_VE250_randls_13.json,493574,669704,34,Man
58,128865,DepthScenes,duration_manipulation_targetAtFixation,jsons/v1_VE250_randls_13.json,http://54.235.29.9/FacialAge/BNav_EC2/DepthDuration/v2_depth_duration_MTurk/v2_DepthDuration_HTML.html#86,86,1536,722,1536,864,8-20-2022,11-27-51,59,depth_duration_stimuli/000137_2014-05-20_17-04-49_260595134347_rgbf000120-resize_1/000137_2014-05-20_17-04-49_260595134347_rgbf000120-resize_1-target.png,250,3.786,6,2448,244,feet,jsons/v1_VE250_randls_13.json,493574,669704,34,Man
59,128865,DepthScenes,duration_manipulation_targetAtFixation,jsons/v1_VE250_randls_13.json,http://54.235.29.9/FacialAge/BNav_EC2/DepthDuration/v2_depth_duration_MTurk/v2_DepthDuration_HTML.html#86,86,1536,722,1536,864,8-20-2022,11-27-51,60,depth_duration_stimuli/000642_2014-06-08_16-59-25_260595134347_rgbf000098-resize_2/000642_2014-06-08_16-59-25_260595134347_rgbf000098-resize_2-target.png,250,2.8815,5,1980,268,feet,jsons/v1_VE250_randls_13.json,493574,669704,34,Man
60,128865,DepthScenes,duration_manipulation_targetAtFixation,jsons/v1_VE250_randls_13.json,http://54.235.29.9/FacialAge/BNav_EC2/DepthDuration/v2_depth_duration_MTurk/v2_DepthDuration_HTML.html#86,86,1536,722,1536,864,8-20-2022,11-27-51,61,depth_duration_stimuli/002425_2014-06-28_20-27-29_260595134347_rgbf000031-resize_8/002425_2014-06-28_20-27-29_260595134347_rgbf000031-resize_8-target.png,250,3.8960000000000004,5,2400,238,feet,jsons/v1_VE250_randls_13.json,493574,669704,34,Man
61,128865,DepthScenes,duration_manipulation_targetAtFixation,jsons/v1_VE250_randls_13.json,http://54.235.29.9/FacialAge/BNav_EC2/DepthDuration/v2_depth_duration_MTurk/v2_DepthDuration_HTML.html#86,86,1536,722,1536,864,8-20-2022,11-27-51,62,depth_duration_stimuli/001056_2014-06-08_18-46-44_260595134347_rgbf000068-resize_0/001056_2014-06-08_18-46-44_260595134347_rgbf000068-resize_0-target.png,250,2.6625,4,2110,241,feet,jsons/v1_VE250_randls_13.json,493574,669704,34,Man
62,128865,DepthScenes,duration_manipulation_targetAtFixation,jsons/v1_VE250_randls_13.json,http://54.235.29.9/FacialAge/BNav_EC2/DepthDuration/v2_depth_duration_MTurk/v2_DepthDuration_HTML.html#86,86,1536,722,1536,864,8-20-2022,11-27-51,63,depth_duration_stimuli/002199_2014-06-28_18-33-56_260595134347_rgbf000074-resize_0/002199_2014-06-28_18-33-56_260595134347_rgbf000074-resize_0-target.png,250,1.996,2,2167,255,feet,jsons/v1_VE250_randls_13.json,493574,669704,34,Man
63,128865,DepthScenes,duration_manipulation_targetAtFixation,jsons/v1_VE250_randls_13.json,http://54.235.29.9/FacialAge/BNav_EC2/DepthDuration/v2_depth_duration_MTurk/v2_DepthDuration_HTML.html#86,86,1536,722,1536,864,8-20-2022,11-27-51,64,depth_duration_stimuli/000917_2014-06-09_22-45-29_260595134347_rgbf000149-resize_3/000917_2014-06-09_22-45-29_260595134347_rgbf000149-resize_3-target.png,250,4.1865,5,2079,260,feet,jsons/v1_VE250_randls_13.json,493574,669704,34,Man
64,128865,DepthScenes,duration_manipulation_targetAtFixation,jsons/v1_VE250_randls_13.json,http://54.235.29.9/FacialAge/BNav_EC2/DepthDuration/v2_depth_duration_MTurk/v2_DepthDuration_HTML.html#86,86,1536,722,1536,864,8-20-2022,11-27-51,65,depth_duration_stimuli/002323_2014-06-28_20-01-54_260595134347_rgbf000051-resize_4/002323_2014-06-28_20-01-54_260595134347_rgbf000051-resize_4-target.png,250,3.7310000000000003,6,2333,261,feet,jsons/v1_VE250_randls_13.json,493574,669704,34,Man
65,128865,DepthScenes,duration_manipulation_targetAtFixation,jsons/v1_VE250_randls_13.json,http://54.235.29.9/FacialAge/BNav_EC2/DepthDuration/v2_depth_duration_MTurk/v2_DepthDuration_HTML.html#86,86,1536,722,1536,864,8-20-2022,11-27-51,66,depth_duration_stimuli/001222_2014-06-17_16-24-06_260595134347_rgbf000073-resize_0/001222_2014-06-17_16-24-06_260595134347_rgbf000073-resize-original.jpg,250,1.4385,0,3648,258,feet,jsons/v1_VE250_randls_13.json,493574,669704,34,Man
66,128865,DepthScenes,duration_manipulation_targetAtFixation,jsons/v1_VE250_randls_13.json,http://54.235.29.9/FacialAge/BNav_EC2/DepthDuration/v2_depth_duration_MTurk/v2_DepthDuration_HTML.html#86,86,1536,722,1536,864,8-20-2022,11-27-51,67,depth_duration_stimuli/000878_2014-06-08_22-52-45_260595134347_rgbf000045-resize_2/000878_2014-06-08_22-52-45_260595134347_rgbf000045-resize_2-target.png,250,2.092,4,2425,251,feet,jsons/v1_VE250_randls_13.json,493574,669704,34,Man
67,128865,DepthScenes,duration_manipulation_targetAtFixation,jsons/v1_VE250_randls_13.json,http://54.235.29.9/FacialAge/BNav_EC2/DepthDuration/v2_depth_duration_MTurk/v2_DepthDuration_HTML.html#86,86,1536,722,1536,864,8-20-2022,11-27-51,68,depth_duration_stimuli/002953_2014-06-08_17-32-18_094959634447_rgbf000059-resize_5/002953_2014-06-08_17-32-18_094959634447_rgbf000059-resize_5-target.png,250,1.551,2,2448,246,feet,jsons/v1_VE250_randls_13.json,493574,669704,34,Man
68,128865,DepthScenes,duration_manipulation_targetAtFixation,jsons/v1_VE250_randls_13.json,http://54.235.29.9/FacialAge/BNav_EC2/DepthDuration/v2_depth_duration_MTurk/v2_DepthDuration_HTML.html#86,86,1536,722,1536,864,8-20-2022,11-27-51,69,depth_duration_stimuli/002905_2014-06-03_18-04-43_094959634447_rgbf000151-resize_2/002905_2014-06-03_18-04-43_094959634447_rgbf000151-resize_2-target.png,250,2.0295,4,2157,252,feet,jsons/v1_VE250_randls_13.json,493574,669704,34,Man
69,128865,DepthScenes,duration_manipulation_targetAtFixation,jsons/v1_VE250_randls_13.json,http://54.235.29.9/FacialAge/BNav_EC2/DepthDuration/v2_depth_duration_MTurk/v2_DepthDuration_HTML.html#86,86,1536,722,1536,864,8-20-2022,11-27-51,70,depth_duration_stimuli/003423_2014-05-21_10-23-26_094959634447_rgbf002665-resize_2/003423_2014-05-21_10-23-26_094959634447_rgbf002665-resize_2-target.png,250,3.2575,5,2140,237,feet,jsons/v1_VE250_randls_13.json,493574,669704,34,Man
70,128865,DepthScenes,duration_manipulation_targetAtFixation,jsons/v1_VE250_randls_13.json,http://54.235.29.9/FacialAge/BNav_EC2/DepthDuration/v2_depth_duration_MTurk/v2_DepthDuration_HTML.html#86,86,1536,722,1536,864,8-20-2022,11-27-51,71,depth_duration_stimuli/000414_2014-06-04_19-49-13_260595134347_rgbf000044-resize_0/000414_2014-06-04_19-49-13_260595134347_rgbf000044-resize_0-target.png,250,4.329,4,2264,251,feet,jsons/v1_VE250_randls_13.json,493574,669704,34,Man
71,128865,DepthScenes,duration_manipulation_targetAtFixation,jsons/v1_VE250_randls_13.json,http://54.235.29.9/FacialAge/BNav_EC2/DepthDuration/v2_depth_duration_MTurk/v2_DepthDuration_HTML.html#86,86,1536,722,1536,864,8-20-2022,11-27-51,72,depth_duration_stimuli/003129_2014-05-12_10-48-10_094959634447_rgbf000100-resize_0/003129_2014-05-12_10-48-10_094959634447_rgbf000100-resize_0-target.png,250,4.9305,5,2563,233,feet,jsons/v1_VE250_randls_13.json,493574,669704,34,Man
72,128865,DepthScenes,duration_manipulation_targetAtFixation,jsons/v1_VE250_randls_13.json,http://54.235.29.9/FacialAge/BNav_EC2/DepthDuration/v2_depth_duration_MTurk/v2_DepthDuration_HTML.html#86,86,1536,722,1536,864,8-20-2022,11-27-51,73,depth_duration_stimuli/002988_2014-06-15_12-24-20_094959634447_rgbf000150-resize_1/002988_2014-06-15_12-24-20_094959634447_rgbf000150-resize_1-target.png,250,4.7669999999999995,6,2092,259,feet,jsons/v1_VE250_randls_13.json,493574,669704,34,Man
73,128865,DepthScenes,duration_manipulation_targetAtFixation,jsons/v1_VE250_randls_13.json,http://54.235.29.9/FacialAge/BNav_EC2/DepthDuration/v2_depth_duration_MTurk/v2_DepthDuration_HTML.html#86,86,1536,722,1536,864,8-20-2022,11-27-51,74,depth_duration_stimuli/001052_2014-06-08_18-24-54_260595134347_rgbf000130-resize_1/001052_2014-06-08_18-24-54_260595134347_rgbf000130-resize_1-target.png,250,4.1045,6,1957,255,feet,jsons/v1_VE250_randls_13.json,493574,669704,34,Man
74,128865,DepthScenes,duration_manipulation_targetAtFixation,jsons/v1_VE250_randls_13.json,http://54.235.29.9/FacialAge/BNav_EC2/DepthDuration/v2_depth_duration_MTurk/v2_DepthDuration_HTML.html#86,86,1536,722,1536,864,8-20-2022,11-27-51,75,depth_duration_stimuli/000810_2014-06-08_17-20-01_260595134347_rgbf000105-resize_0/000810_2014-06-08_17-20-01_260595134347_rgbf000105-resize_0-target.png,250,1.4865,5,1898,247,feet,jsons/v1_VE250_randls_13.json,493574,669704,34,Man
75,128865,DepthScenes,duration_manipulation_targetAtFixation,jsons/v1_VE250_randls_13.json,http://54.235.29.9/FacialAge/BNav_EC2/DepthDuration/v2_depth_duration_MTurk/v2_DepthDuration_HTML.html#86,86,1536,722,1536,864,8-20-2022,11-27-51,76,depth_duration_stimuli/001214_2014-06-17_16-13-55_260595134347_rgbf000111-resize_0/001214_2014-06-17_16-13-55_260595134347_rgbf000111-resize_0-target.png,250,2.6505,4,1973,254,feet,jsons/v1_VE250_randls_13.json,493574,669704,34,Man
76,128865,DepthScenes,duration_manipulation_targetAtFixation,jsons/v1_VE250_randls_13.json,http://54.235.29.9/FacialAge/BNav_EC2/DepthDuration/v2_depth_duration_MTurk/v2_DepthDuration_HTML.html#86,86,1536,722,1536,864,8-20-2022,11-27-51,77,depth_duration_stimuli/002272_2014-06-28_18-53-56_260595134347_rgbf000067-resize_2/002272_2014-06-28_18-53-56_260595134347_rgbf000067-resize_2-target.png,250,1.138,2,1969,252,feet,jsons/v1_VE250_randls_13.json,493574,669704,34,Man
77,128865,DepthScenes,duration_manipulation_targetAtFixation,jsons/v1_VE250_randls_13.json,http://54.235.29.9/FacialAge/BNav_EC2/DepthDuration/v2_depth_duration_MTurk/v2_DepthDuration_HTML.html#86,86,1536,722,1536,864,8-20-2022,11-27-51,78,depth_duration_stimuli/001571_2014-06-20_17-21-32_260595134347_rgbf000089-resize_1/001571_2014-06-20_17-21-32_260595134347_rgbf000089-resize_1-target.png,250,1.86,2,2106,240,feet,jsons/v1_VE250_randls_13.json,493574,669704,34,Man
78,128865,DepthScenes,duration_manipulation_targetAtFixation,jsons/v1_VE250_randls_13.json,http://54.235.29.9/FacialAge/BNav_EC2/DepthDuration/v2_depth_duration_MTurk/v2_DepthDuration_HTML.html#86,86,1536,722,1536,864,8-20-2022,11-27-51,79,depth_duration_stimuli/002788_2014-06-22_19-36-03_094959634447_rgbf000088-resize_2/002788_2014-06-22_19-36-03_094959634447_rgbf000088-resize_2-target.png,250,1.6465,4,2007,239,feet,jsons/v1_VE250_randls_13.json,493574,669704,34,Man
79,128865,DepthScenes,duration_manipulation_targetAtFixation,jsons/v1_VE250_randls_13.json,http://54.235.29.9/FacialAge/BNav_EC2/DepthDuration/v2_depth_duration_MTurk/v2_DepthDuration_HTML.html#86,86,1536,722,1536,864,8-20-2022,11-27-51,80,depth_duration_stimuli/000749_2014-06-08_21-55-06_260595134347_rgbf000070-resize_2/000749_2014-06-08_21-55-06_260595134347_rgbf000070-resize_2-target.png,250,2.331,4,1913,247,feet,jsons/v1_VE250_randls_13.json,493574,669704,34,Man
80,128865,DepthScenes,duration_manipulation_targetAtFixation,jsons/v1_VE250_randls_13.json,http://54.235.29.9/FacialAge/BNav_EC2/DepthDuration/v2_depth_duration_MTurk/v2_DepthDuration_HTML.html#86,86,1536,722,1536,864,8-20-2022,11-27-51,81,depth_duration_stimuli/002748_2014-06-22_19-07-22_094959634447_rgbf000078-resize_1/002748_2014-06-22_19-07-22_094959634447_rgbf000078-resize_1-target.png,250,4.6705,5,1917,256,feet,jsons/v1_VE250_randls_13.json,493574,669704,34,Man
81,128865,DepthScenes,duration_manipulation_targetAtFixation,jsons/v1_VE250_randls_13.json,http://54.235.29.9/FacialAge/BNav_EC2/DepthDuration/v2_depth_duration_MTurk/v2_DepthDuration_HTML.html#86,86,1536,722,1536,864,8-20-2022,11-27-51,82,depth_duration_stimuli/002995_2014-06-15_12-31-26_094959634447_rgbf000150-resize_1/002995_2014-06-15_12-31-26_094959634447_rgbf000150-resize_1-target.png,250,3.8360000000000003,4,1981,255,feet,jsons/v1_VE250_randls_13.json,493574,669704,34,Man
82,128865,DepthScenes,duration_manipulation_targetAtFixation,jsons/v1_VE250_randls_13.json,http://54.235.29.9/FacialAge/BNav_EC2/DepthDuration/v2_depth_duration_MTurk/v2_DepthDuration_HTML.html#86,86,1536,722,1536,864,8-20-2022,11-27-51,83,depth_duration_stimuli/000436_2014-06-09_22-25-11_260595134347_rgbf000137-resize_1/000436_2014-06-09_22-25-11_260595134347_rgbf000137-resize_1-target.png,250,4.0705,5,1965,243,feet,jsons/v1_VE250_randls_13.json,493574,669704,34,Man
83,128865,DepthScenes,duration_manipulation_targetAtFixation,jsons/v1_VE250_randls_13.json,http://54.235.29.9/FacialAge/BNav_EC2/DepthDuration/v2_depth_duration_MTurk/v2_DepthDuration_HTML.html#86,86,1536,722,1536,864,8-20-2022,11-27-51,84,depth_duration_stimuli/002444_2014-06-28_20-32-08_260595134347_rgbf000027-resize_0/002444_2014-06-28_20-32-08_260595134347_rgbf000027-resize_0-target.png,250,4.388999999999999,5,1812,255,feet,jsons/v1_VE250_randls_13.json,493574,669704,34,Man
84,128865,DepthScenes,duration_manipulation_targetAtFixation,jsons/v1_VE250_randls_13.json,http://54.235.29.9/FacialAge/BNav_EC2/DepthDuration/v2_depth_duration_MTurk/v2_DepthDuration_HTML.html#86,86,1536,722,1536,864,8-20-2022,11-27-51,85,depth_duration_stimuli/001133_2014-06-17_14-49-16_260595134347_rgbf000100-resize_0/001133_2014-06-17_14-49-16_260595134347_rgbf000100-resize_0-target.png,250,4.2115,5,1787,262,feet,jsons/v1_VE250_randls_13.json,493574,669704,34,Man
85,128865,DepthScenes,duration_manipulation_targetAtFixation,jsons/v1_VE250_randls_13.json,http://54.235.29.9/FacialAge/BNav_EC2/DepthDuration/v2_depth_duration_MTurk/v2_DepthDuration_HTML.html#86,86,1536,722,1536,864,8-20-2022,11-27-51,86,depth_duration_stimuli/001132_2014-06-17_14-48-54_260595134347_rgbf000100-resize_2/001132_2014-06-17_14-48-54_260595134347_rgbf000100-resize_2-target.png,250,3.753,5,1772,239,feet,jsons/v1_VE250_randls_13.json,493574,669704,34,Man
86,128865,DepthScenes,duration_manipulation_targetAtFixation,jsons/v1_VE250_randls_13.json,http://54.235.29.9/FacialAge/BNav_EC2/DepthDuration/v2_depth_duration_MTurk/v2_DepthDuration_HTML.html#86,86,1536,722,1536,864,8-20-2022,11-27-51,87,depth_duration_stimuli/003070_2014-06-15_14-58-27_094959634447_rgbf000150-resize_3/003070_2014-06-15_14-58-27_094959634447_rgbf000150-resize_3-target.png,250,2.9415,5,1910,254,feet,jsons/v1_VE250_randls_13.json,493574,669704,34,Man
87,128865,DepthScenes,duration_manipulation_targetAtFixation,jsons/v1_VE250_randls_13.json,http://54.235.29.9/FacialAge/BNav_EC2/DepthDuration/v2_depth_duration_MTurk/v2_DepthDuration_HTML.html#86,86,1536,722,1536,864,8-20-2022,11-27-51,88,depth_duration_stimuli/000943_2014-06-09_19-31-07_260595134347_rgbf000128-resize_1/000943_2014-06-09_19-31-07_260595134347_rgbf000128-resize_1-target.png,250,1.9765,4,1893,259,feet,jsons/v1_VE250_randls_13.json,493574,669704,34,Man
88,128865,DepthScenes,duration_manipulation_targetAtFixation,jsons/v1_VE250_randls_13.json,http://54.235.29.9/FacialAge/BNav_EC2/DepthDuration/v2_depth_duration_MTurk/v2_DepthDuration_HTML.html#86,86,1536,722,1536,864,8-20-2022,11-27-51,89,depth_duration_stimuli/002057_2014-06-24_21-00-13_260595134347_rgbf000120-resize_1/002057_2014-06-24_21-00-13_260595134347_rgbf000120-resize_1-target.png,250,2.967,6,1956,257,feet,jsons/v1_VE250_randls_13.json,493574,669704,34,Man
89,128865,DepthScenes,duration_manipulation_targetAtFixation,jsons/v1_VE250_randls_13.json,http://54.235.29.9/FacialAge/BNav_EC2/DepthDuration/v2_depth_duration_MTurk/v2_DepthDuration_HTML.html#86,86,1536,722,1536,864,8-20-2022,11-27-51,90,depth_duration_stimuli/000709_2014-06-08_13-51-55_260595134347_rgbf000068-resize_3/000709_2014-06-08_13-51-55_260595134347_rgbf000068-resize_3-target.png,250,1.8030000000000002,4,1847,242,feet,jsons/v1_VE250_randls_13.json,493574,669704,34,Man
90,128865,DepthScenes,duration_manipulation_targetAtFixation,jsons/v1_VE250_randls_13.json,http://54.235.29.9/FacialAge/BNav_EC2/DepthDuration/v2_depth_duration_MTurk/v2_DepthDuration_HTML.html#86,86,1536,722,1536,864,8-20-2022,11-27-51,91,depth_duration_stimuli/000758_2014-06-08_22-05-08_260595134347_rgbf000085-resize_0/000758_2014-06-08_22-05-08_260595134347_rgbf000085-resize_0-target.png,250,3.3810000000000002,6,1981,249,feet,jsons/v1_VE250_randls_13.json,493574,669704,34,Man
91,128865,DepthScenes,duration_manipulation_targetAtFixation,jsons/v1_VE250_randls_13.json,http://54.235.29.9/FacialAge/BNav_EC2/DepthDuration/v2_depth_duration_MTurk/v2_DepthDuration_HTML.html#86,86,1536,722,1536,864,8-20-2022,11-27-51,92,depth_duration_stimuli/000854_2014-06-09_19-43-13_260595134347_rgbf000066-resize_0/000854_2014-06-09_19-43-13_260595134347_rgbf000066-resize_0-target.png,250,3.068,5,1826,226,feet,jsons/v1_VE250_randls_13.json,493574,669704,34,Man
92,128865,DepthScenes,duration_manipulation_targetAtFixation,jsons/v1_VE250_randls_13.json,http://54.235.29.9/FacialAge/BNav_EC2/DepthDuration/v2_depth_duration_MTurk/v2_DepthDuration_HTML.html#86,86,1536,722,1536,864,8-20-2022,11-27-51,93,depth_duration_stimuli/001164_2014-06-17_15-35-46_260595134347_rgbf000085-resize_3/001164_2014-06-17_15-35-46_260595134347_rgbf000085-resize_3-target.png,250,2.354,5,1858,258,feet,jsons/v1_VE250_randls_13.json,493574,669704,34,Man
93,128865,DepthScenes,duration_manipulation_targetAtFixation,jsons/v1_VE250_randls_13.json,http://54.235.29.9/FacialAge/BNav_EC2/DepthDuration/v2_depth_duration_MTurk/v2_DepthDuration_HTML.html#86,86,1536,722,1536,864,8-20-2022,11-27-51,94,depth_duration_stimuli/001136_2014-06-17_15-19-41_260595134347_rgbf000076-resize_3/001136_2014-06-17_15-19-41_260595134347_rgbf000076-resize_3-target.png,250,1.8655,6,1832,246,feet,jsons/v1_VE250_randls_13.json,493574,669704,34,Man
94,128865,DepthScenes,duration_manipulation_targetAtFixation,jsons/v1_VE250_randls_13.json,http://54.235.29.9/FacialAge/BNav_EC2/DepthDuration/v2_depth_duration_MTurk/v2_DepthDuration_HTML.html#86,86,1536,722,1536,864,8-20-2022,11-27-51,95,depth_duration_stimuli/002153_2014-06-25_21-27-18_260595134347_rgbf000038-resize_5/002153_2014-06-25_21-27-18_260595134347_rgbf000038-resize_5-target.png,250,2.505,4,1844,246,feet,jsons/v1_VE250_randls_13.json,493574,669704,34,Man
95,128865,DepthScenes,duration_manipulation_targetAtFixation,jsons/v1_VE250_randls_13.json,http://54.235.29.9/FacialAge/BNav_EC2/DepthDuration/v2_depth_duration_MTurk/v2_DepthDuration_HTML.html#86,86,1536,722,1536,864,8-20-2022,11-27-51,96,depth_duration_stimuli/002660_2014-06-13_15-44-18_094959634447_rgbf001878-resize_2/002660_2014-06-13_15-44-18_094959634447_rgbf001878-resize_2-target.png,250,3.576,5,1919,250,feet,jsons/v1_VE250_randls_13.json,493574,669704,34,Man
96,128865,DepthScenes,duration_manipulation_targetAtFixation,jsons/v1_VE250_randls_13.json,http://54.235.29.9/FacialAge/BNav_EC2/DepthDuration/v2_depth_duration_MTurk/v2_DepthDuration_HTML.html#86,86,1536,722,1536,864,8-20-2022,11-27-51,97,depth_duration_stimuli/000739_2014-06-08_18-45-58_260595134347_rgbf000068-resize_1/000739_2014-06-08_18-45-58_260595134347_rgbf000068-resize_1-target.png,250,3.534,5,1802,256,feet,jsons/v1_VE250_randls_13.json,493574,669704,34,Man
97,128865,DepthScenes,duration_manipulation_targetAtFixation,jsons/v1_VE250_randls_13.json,http://54.235.29.9/FacialAge/BNav_EC2/DepthDuration/v2_depth_duration_MTurk/v2_DepthDuration_HTML.html#86,86,1536,722,1536,864,8-20-2022,11-27-51,98,depth_duration_stimuli/000734_2014-06-08_17-39-11_260595134347_rgbf000128-resize_2/000734_2014-06-08_17-39-11_260595134347_rgbf000128-resize_2-target.png,250,4.098,5,1715,233,feet,jsons/v1_VE250_randls_13.json,493574,669704,34,Man
98,128865,DepthScenes,duration_manipulation_targetAtFixation,jsons/v1_VE250_randls_13.json,http://54.235.29.9/FacialAge/BNav_EC2/DepthDuration/v2_depth_duration_MTurk/v2_DepthDuration_HTML.html#86,86,1536,722,1536,864,8-20-2022,11-27-51,99,depth_duration_stimuli/001540_2014-06-20_17-01-05_260595134347_rgbf000086-resize_2/001540_2014-06-20_17-01-05_260595134347_rgbf000086-resize-original.jpg,250,1.459,0,3628,234,feet,jsons/v1_VE250_randls_13.json,493574,669704,34,Man
99,128865,DepthScenes,duration_manipulation_targetAtFixation,jsons/v1_VE250_randls_13.json,http://54.235.29.9/FacialAge/BNav_EC2/DepthDuration/v2_depth_duration_MTurk/v2_DepthDuration_HTML.html#86,86,1536,722,1536,864,8-20-2022,11-27-51,100,depth_duration_stimuli/000522_2014-06-08_13-35-06_260595134347_rgbf000244-resize_1/000522_2014-06-08_13-35-06_260595134347_rgbf000244-resize_1-target.png,250,2.3715,4,2096,259,feet,jsons/v1_VE250_randls_13.json,493574,669704,34,Man
100,128865,DepthScenes,duration_manipulation_targetAtFixation,jsons/v1_VE250_randls_13.json,http://54.235.29.9/FacialAge/BNav_EC2/DepthDuration/v2_depth_duration_MTurk/v2_DepthDuration_HTML.html#86,86,1536,722,1536,864,8-20-2022,11-27-51,101,depth_duration_stimuli/002949_2014-06-26_15-57-42_094959634447_rgbf000079-resize_1/002949_2014-06-26_15-57-42_094959634447_rgbf000079-resize_1-target.png,250,1.8915,0,3930,255,feet,jsons/v1_VE250_randls_13.json,493574,669704,34,Man
101,128865,DepthScenes,duration_manipulation_targetAtFixation,jsons/v1_VE250_randls_13.json,http://54.235.29.9/FacialAge/BNav_EC2/DepthDuration/v2_depth_duration_MTurk/v2_DepthDuration_HTML.html#86,86,1536,722,1536,864,8-20-2022,11-27-51,102,depth_duration_stimuli/002989_2014-06-15_12-25-03_094959634447_rgbf000150-resize_3/002989_2014-06-15_12-25-03_094959634447_rgbf000150-resize_3-target.png,250,4.1975,4,2747,239,feet,jsons/v1_VE250_randls_13.json,493574,669704,34,Man
102,128865,DepthScenes,duration_manipulation_targetAtFixation,jsons/v1_VE250_randls_13.json,http://54.235.29.9/FacialAge/BNav_EC2/DepthDuration/v2_depth_duration_MTurk/v2_DepthDuration_HTML.html#86,86,1536,722,1536,864,8-20-2022,11-27-51,103,depth_duration_stimuli/000866_2014-06-09_20-45-42_260595134347_rgbf000139-resize_1/000866_2014-06-09_20-45-42_260595134347_rgbf000139-resize_1-target.png,250,3.2155,5,2474,231,feet,jsons/v1_VE250_randls_13.json,493574,669704,34,Man
103,128865,DepthScenes,duration_manipulation_targetAtFixation,jsons/v1_VE250_randls_13.json,http://54.235.29.9/FacialAge/BNav_EC2/DepthDuration/v2_depth_duration_MTurk/v2_DepthDuration_HTML.html#86,86,1536,722,1536,864,8-20-2022,11-27-51,104,depth_duration_stimuli/001555_2014-06-20_17-12-10_260595134347_rgbf000065-resize_4/001555_2014-06-20_17-12-10_260595134347_rgbf000065-resize_4-target.png,250,1.633,2,1984,251,feet,jsons/v1_VE250_randls_13.json,493574,669704,34,Man
104,128865,DepthScenes,duration_manipulation_targetAtFixation,jsons/v1_VE250_randls_13.json,http://54.235.29.9/FacialAge/BNav_EC2/DepthDuration/v2_depth_duration_MTurk/v2_DepthDuration_HTML.html#86,86,1536,722,1536,864,8-20-2022,11-27-51,105,depth_duration_stimuli/000103_2014-05-14_22-01-17_260595134347_rgbf000152-resize_5/000103_2014-05-14_22-01-17_260595134347_rgbf000152-resize_5-target.png,250,1.993,4,2396,248,feet,jsons/v1_VE250_randls_13.json,493574,669704,34,Man
105,128865,DepthScenes,duration_manipulation_targetAtFixation,jsons/v1_VE250_randls_13.json,http://54.235.29.9/FacialAge/BNav_EC2/DepthDuration/v2_depth_duration_MTurk/v2_DepthDuration_HTML.html#86,86,1536,722,1536,864,8-20-2022,11-27-51,106,depth_duration_stimuli/003534_2014-05-22_15-06-10_094959634447_rgbf000102-resize_4/003534_2014-05-22_15-06-10_094959634447_rgbf000102-resize_4-target.png,250,1.426,2,2737,255,feet,jsons/v1_VE250_randls_13.json,493574,669704,34,Man
106,128865,DepthScenes,duration_manipulation_targetAtFixation,jsons/v1_VE250_randls_13.json,http://54.235.29.9/FacialAge/BNav_EC2/DepthDuration/v2_depth_duration_MTurk/v2_DepthDuration_HTML.html#86,86,1536,722,1536,864,8-20-2022,11-27-51,107,depth_duration_stimuli/002637_2014-06-24_14-51-13_094959634447_rgbf000066-resize_4/002637_2014-06-24_14-51-13_094959634447_rgbf000066-resize_4-target.png,250,1.9955,4,3100,245,feet,jsons/v1_VE250_randls_13.json,493574,669704,34,Man
107,128865,DepthScenes,duration_manipulation_targetAtFixation,jsons/v1_VE250_randls_13.json,http://54.235.29.9/FacialAge/BNav_EC2/DepthDuration/v2_depth_duration_MTurk/v2_DepthDuration_HTML.html#86,86,1536,722,1536,864,8-20-2022,11-27-51,108,depth_duration_stimuli/001016_2014-06-09_16-16-10_260595134347_rgbf000112-resize_5/001016_2014-06-09_16-16-10_260595134347_rgbf000112-resize_5-target.png,250,1.6565,4,1988,257,feet,jsons/v1_VE250_randls_13.json,493574,669704,34,Man
108,128865,DepthScenes,duration_manipulation_targetAtFixation,jsons/v1_VE250_randls_13.json,http://54.235.29.9/FacialAge/BNav_EC2/DepthDuration/v2_depth_duration_MTurk/v2_DepthDuration_HTML.html#86,86,1536,722,1536,864,8-20-2022,11-27-51,109,depth_duration_stimuli/002340_2014-06-28_20-05-46_260595134347_rgbf000113-resize_0/002340_2014-06-28_20-05-46_260595134347_rgbf000113-resize_0-target.png,250,2.4735,4,2179,241,feet,jsons/v1_VE250_randls_13.json,493574,669704,34,Man
109,128865,DepthScenes,duration_manipulation_targetAtFixation,jsons/v1_VE250_randls_13.json,http://54.235.29.9/FacialAge/BNav_EC2/DepthDuration/v2_depth_duration_MTurk/v2_DepthDuration_HTML.html#86,86,1536,722,1536,864,8-20-2022,11-27-51,110,depth_duration_stimuli/000773_2014-06-08_22-24-54_260595134347_rgbf000093-resize_1/000773_2014-06-08_22-24-54_260595134347_rgbf000093-resize_1-target.png,250,4.973,5,2025,250,feet,jsons/v1_VE250_randls_13.json,493574,669704,34,Man
110,128865,DepthScenes,duration_manipulation_targetAtFixation,jsons/v1_VE250_randls_13.json,http://54.235.29.9/FacialAge/BNav_EC2/DepthDuration/v2_depth_duration_MTurk/v2_DepthDuration_HTML.html#86,86,1536,722,1536,864,8-20-2022,11-27-51,111,depth_duration_stimuli/002414_2014-06-28_20-24-58_260595134347_rgbf000067-resize_4/002414_2014-06-28_20-24-58_260595134347_rgbf000067-resize_4-target.png,250,4.363,6,1937,248,feet,jsons/v1_VE250_randls_13.json,493574,669704,34,Man
111,128865,DepthScenes,duration_manipulation_targetAtFixation,jsons/v1_VE250_randls_13.json,http://54.235.29.9/FacialAge/BNav_EC2/DepthDuration/v2_depth_duration_MTurk/v2_DepthDuration_HTML.html#86,86,1536,722,1536,864,8-20-2022,11-27-51,112,depth_duration_stimuli/001059_2014-06-08_21-53-27_260595134347_rgbf000061-resize_4/001059_2014-06-08_21-53-27_260595134347_rgbf000061-resize_4-target.png,250,2.4185,5,1855,238,feet,jsons/v1_VE250_randls_13.json,493574,669704,34,Man
112,128865,DepthScenes,duration_manipulation_targetAtFixation,jsons/v1_VE250_randls_13.json,http://54.235.29.9/FacialAge/BNav_EC2/DepthDuration/v2_depth_duration_MTurk/v2_DepthDuration_HTML.html#86,86,1536,722,1536,864,8-20-2022,11-27-51,113,depth_duration_stimuli/001032_2014-06-08_13-23-17_260595134347_rgbf000021-resize_3/001032_2014-06-08_13-23-17_260595134347_rgbf000021-resize_3-target.png,250,3.2725,4,1900,263,feet,jsons/v1_VE250_randls_13.json,493574,669704,34,Man
113,128865,DepthScenes,duration_manipulation_targetAtFixation,jsons/v1_VE250_randls_13.json,http://54.235.29.9/FacialAge/BNav_EC2/DepthDuration/v2_depth_duration_MTurk/v2_DepthDuration_HTML.html#86,86,1536,722,1536,864,8-20-2022,11-27-51,114,depth_duration_stimuli/003292_2014-05-14_21-53-49_094959634447_rgbf000100-resize_2/003292_2014-05-14_21-53-49_094959634447_rgbf000100-resize_2-target.png,250,3.4815,5,1907,251,feet,jsons/v1_VE250_randls_13.json,493574,669704,34,Man
114,128865,DepthScenes,duration_manipulation_targetAtFixation,jsons/v1_VE250_randls_13.json,http://54.235.29.9/FacialAge/BNav_EC2/DepthDuration/v2_depth_duration_MTurk/v2_DepthDuration_HTML.html#86,86,1536,722,1536,864,8-20-2022,11-27-51,115,depth_duration_stimuli/002639_2014-06-24_14-51-37_094959634447_rgbf000074-resize_4/002639_2014-06-24_14-51-37_094959634447_rgbf000074-resize_4-target.png,250,4.0375,4,2020,253,feet,jsons/v1_VE250_randls_13.json,493574,669704,34,Man
115,128865,DepthScenes,duration_manipulation_targetAtFixation,jsons/v1_VE250_randls_13.json,http://54.235.29.9/FacialAge/BNav_EC2/DepthDuration/v2_depth_duration_MTurk/v2_DepthDuration_HTML.html#86,86,1536,722,1536,864,8-20-2022,11-27-51,116,depth_duration_stimuli/001170_2014-06-17_15-43-44_260595134347_rgbf000096-resize_6/001170_2014-06-17_15-43-44_260595134347_rgbf000096-resize-original.jpg,250,1.1909999999999998,5,1892,231,feet,jsons/v1_VE250_randls_13.json,493574,669704,34,Man
116,128865,DepthScenes,duration_manipulation_targetAtFixation,jsons/v1_VE250_randls_13.json,http://54.235.29.9/FacialAge/BNav_EC2/DepthDuration/v2_depth_duration_MTurk/v2_DepthDuration_HTML.html#86,86,1536,722,1536,864,8-20-2022,11-27-51,117,depth_duration_stimuli/001570_2014-06-20_17-21-09_260595134347_rgbf000135-resize_4/001570_2014-06-20_17-21-09_260595134347_rgbf000135-resize_4-target.png,250,4.467,4,1909,251,feet,jsons/v1_VE250_randls_13.json,493574,669704,34,Man
117,128865,DepthScenes,duration_manipulation_targetAtFixation,jsons/v1_VE250_randls_13.json,http://54.235.29.9/FacialAge/BNav_EC2/DepthDuration/v2_depth_duration_MTurk/v2_DepthDuration_HTML.html#86,86,1536,722,1536,864,8-20-2022,11-27-51,118,depth_duration_stimuli/001392_2014-06-19_16-07-59_260595134347_rgbf000046-resize_1/001392_2014-06-19_16-07-59_260595134347_rgbf000046-resize_1-target.png,250,4.135,5,1857,256,feet,jsons/v1_VE250_randls_13.json,493574,669704,34,Man
118,128865,DepthScenes,duration_manipulation_targetAtFixation,jsons/v1_VE250_randls_13.json,http://54.235.29.9/FacialAge/BNav_EC2/DepthDuration/v2_depth_duration_MTurk/v2_DepthDuration_HTML.html#86,86,1536,722,1536,864,8-20-2022,11-27-51,119,depth_duration_stimuli/000447_2014-06-08_16-15-46_260595134347_rgbf000130-resize_1/000447_2014-06-08_16-15-46_260595134347_rgbf000130-resize_1-target.png,250,4.479,5,1954,228,feet,jsons/v1_VE250_randls_13.json,493574,669704,34,Man
119,128865,DepthScenes,duration_manipulation_targetAtFixation,jsons/v1_VE250_randls_13.json,http://54.235.29.9/FacialAge/BNav_EC2/DepthDuration/v2_depth_duration_MTurk/v2_DepthDuration_HTML.html#86,86,1536,722,1536,864,8-20-2022,11-27-51,120,depth_duration_stimuli/001447_2014-06-19_17-00-32_260595134347_rgbf000082-resize_5/001447_2014-06-19_17-00-32_260595134347_rgbf000082-resize_5-target.png,250,4.13775,4,1810,244,feet,jsons/v1_VE250_randls_13.json,493574,669704,34,Man
120,128865,DepthScenes,duration_manipulation_targetAtFixation,jsons/v1_VE250_randls_13.json,http://54.235.29.9/FacialAge/BNav_EC2/DepthDuration/v2_depth_duration_MTurk/v2_DepthDuration_HTML.html#86,86,1536,722,1536,864,8-20-2022,11-27-51,121,depth_duration_stimuli/001066_2014-06-08_22-03-20_260595134347_rgbf000066-resize_4/001066_2014-06-08_22-03-20_260595134347_rgbf000066-resize_4-target.png,250,4.2330000000000005,4,1796,248,feet,jsons/v1_VE250_randls_13.json,493574,669704,34,Man
121,128865,DepthScenes,duration_manipulation_targetAtFixation,jsons/v1_VE250_randls_13.json,http://54.235.29.9/FacialAge/BNav_EC2/DepthDuration/v2_depth_duration_MTurk/v2_DepthDuration_HTML.html#86,86,1536,722,1536,864,8-20-2022,11-27-51,122,depth_duration_stimuli/000742_2014-06-08_18-48-09_260595134347_rgbf000164-resize_4/000742_2014-06-08_18-48-09_260595134347_rgbf000164-resize_4-target.png,250,4.632,5,1829,242,feet,jsons/v1_VE250_randls_13.json,493574,669704,34,Man
122,128865,DepthScenes,duration_manipulation_targetAtFixation,jsons/v1_VE250_randls_13.json,http://54.235.29.9/FacialAge/BNav_EC2/DepthDuration/v2_depth_duration_MTurk/v2_DepthDuration_HTML.html#86,86,1536,722,1536,864,8-20-2022,11-27-51,123,depth_duration_stimuli/002630_2014-06-24_14-47-50_094959634447_rgbf000055-resize_1/002630_2014-06-24_14-47-50_094959634447_rgbf000055-resize_1-target.png,250,3.0095,5,1940,250,feet,jsons/v1_VE250_randls_13.json,493574,669704,34,Man
123,128865,DepthScenes,duration_manipulation_targetAtFixation,jsons/v1_VE250_randls_13.json,http://54.235.29.9/FacialAge/BNav_EC2/DepthDuration/v2_depth_duration_MTurk/v2_DepthDuration_HTML.html#86,86,1536,722,1536,864,8-20-2022,11-27-51,124,depth_duration_stimuli/002758_2014-06-22_19-11-20_094959634447_rgbf000128-resize_1/002758_2014-06-22_19-11-20_094959634447_rgbf000128-resize_1-target.png,250,2.555,4,1799,253,feet,jsons/v1_VE250_randls_13.json,493574,669704,34,Man
124,128865,DepthScenes,duration_manipulation_targetAtFixation,jsons/v1_VE250_randls_13.json,http://54.235.29.9/FacialAge/BNav_EC2/DepthDuration/v2_depth_duration_MTurk/v2_DepthDuration_HTML.html#86,86,1536,722,1536,864,8-20-2022,11-27-51,125,depth_duration_stimuli/002549_2014-06-24_13-41-39_094959634447_rgbf000022-resize_3/002549_2014-06-24_13-41-39_094959634447_rgbf000022-resize_3-target.png,250,1.476,2,1830,256,feet,jsons/v1_VE250_randls_13.json,493574,669704,34,Man
125,128865,DepthScenes,duration_manipulation_targetAtFixation,jsons/v1_VE250_randls_13.json,http://54.235.29.9/FacialAge/BNav_EC2/DepthDuration/v2_depth_duration_MTurk/v2_DepthDuration_HTML.html#86,86,1536,722,1536,864,8-20-2022,11-27-51,126,depth_duration_stimuli/002750_2014-06-22_19-08-03_094959634447_rgbf000094-resize_4/002750_2014-06-22_19-08-03_094959634447_rgbf000094-resize_4-target.png,250,2.354,4,1833,250,feet,jsons/v1_VE250_randls_13.json,493574,669704,34,Man
126,128865,DepthScenes,duration_manipulation_targetAtFixation,jsons/v1_VE250_randls_13.json,http://54.235.29.9/FacialAge/BNav_EC2/DepthDuration/v2_depth_duration_MTurk/v2_DepthDuration_HTML.html#86,86,1536,722,1536,864,8-20-2022,11-27-51,127,depth_duration_stimuli/001199_2014-06-17_16-03-48_260595134347_rgbf000077-resize_0/001199_2014-06-17_16-03-48_260595134347_rgbf000077-resize_0-target.png,250,3.4375,5,1833,244,feet,jsons/v1_VE250_randls_13.json,493574,669704,34,Man
127,128865,DepthScenes,duration_manipulation_targetAtFixation,jsons/v1_VE250_randls_13.json,http://54.235.29.9/FacialAge/BNav_EC2/DepthDuration/v2_depth_duration_MTurk/v2_DepthDuration_HTML.html#86,86,1536,722,1536,864,8-20-2022,11-27-51,128,depth_duration_stimuli/000502_2014-06-08_23-02-32_260595134347_rgbf000063-resize_4/000502_2014-06-08_23-02-32_260595134347_rgbf000063-resize_4-target.png,250,2.431,4,2267,246,feet,jsons/v1_VE250_randls_13.json,493574,669704,34,Man
128,128865,DepthScenes,duration_manipulation_targetAtFixation,jsons/v1_VE250_randls_13.json,http://54.235.29.9/FacialAge/BNav_EC2/DepthDuration/v2_depth_duration_MTurk/v2_DepthDuration_HTML.html#86,86,1536,722,1536,864,8-20-2022,11-27-51,129,depth_duration_stimuli/000486_2014-06-09_20-47-20_260595134347_rgbf000143-resize_2/000486_2014-06-09_20-47-20_260595134347_rgbf000143-resize_2-target.png,250,4.8325,5,1838,240,feet,jsons/v1_VE250_randls_13.json,493574,669704,34,Man
129,128865,DepthScenes,duration_manipulation_targetAtFixation,jsons/v1_VE250_randls_13.json,http://54.235.29.9/FacialAge/BNav_EC2/DepthDuration/v2_depth_duration_MTurk/v2_DepthDuration_HTML.html#86,86,1536,722,1536,864,8-20-2022,11-27-51,130,depth_duration_stimuli/003083_2014-06-15_15-21-03_094959634447_rgbf000063-resize_1/003083_2014-06-15_15-21-03_094959634447_rgbf000063-resize_1-target.png,250,4.1405,6,1921,248,feet,jsons/v1_VE250_randls_13.json,493574,669704,34,Man
130,128865,DepthScenes,duration_manipulation_targetAtFixation,jsons/v1_VE250_randls_13.json,http://54.235.29.9/FacialAge/BNav_EC2/DepthDuration/v2_depth_duration_MTurk/v2_DepthDuration_HTML.html#86,86,1536,722,1536,864,8-20-2022,11-27-51,131,depth_duration_stimuli/001806_2014-06-26_20-50-20_260595134347_rgbf000091-resize_1/001806_2014-06-26_20-50-20_260595134347_rgbf000091-resize_1-target.png,250,2.7305,4,1901,247,feet,jsons/v1_VE250_randls_13.json,493574,669704,34,Man
131,128865,DepthScenes,duration_manipulation_targetAtFixation,jsons/v1_VE250_randls_13.json,http://54.235.29.9/FacialAge/BNav_EC2/DepthDuration/v2_depth_duration_MTurk/v2_DepthDuration_HTML.html#86,86,1536,722,1536,864,8-20-2022,11-27-51,132,depth_duration_stimuli/001617_2014-06-20_11-35-32_260595134347_rgbf000066-resize_1/001617_2014-06-20_11-35-32_260595134347_rgbf000066-resize_1-target.png,250,3.7910000000000004,5,1933,256,feet,jsons/v1_VE250_randls_13.json,493574,669704,34,Man
132,128865,DepthScenes,duration_manipulation_targetAtFixation,jsons/v1_VE250_randls_13.json,http://54.235.29.9/FacialAge/BNav_EC2/DepthDuration/v2_depth_duration_MTurk/v2_DepthDuration_HTML.html#86,86,1536,722,1536,864,8-20-2022,11-27-51,133,depth_duration_stimuli/000493_2014-06-09_21-01-18_260595134347_rgbf000196-resize_3/000493_2014-06-09_21-01-18_260595134347_rgbf000196-resize_3-target.png,250,3.44,5,2020,246,feet,jsons/v1_VE250_randls_13.json,493574,669704,34,Man
133,128865,DepthScenes,duration_manipulation_targetAtFixation,jsons/v1_VE250_randls_13.json,http://54.235.29.9/FacialAge/BNav_EC2/DepthDuration/v2_depth_duration_MTurk/v2_DepthDuration_HTML.html#86,86,1536,722,1536,864,8-20-2022,11-27-51,134,depth_duration_stimuli/000191_2014-05-12_17-07-38_260595134347_rgbf000199-resize_0/000191_2014-05-12_17-07-38_260595134347_rgbf000199-resize_0-target.png,250,3.7995,6,1888,250,feet,jsons/v1_VE250_randls_13.json,493574,669704,34,Man
134,128865,DepthScenes,duration_manipulation_targetAtFixation,jsons/v1_VE250_randls_13.json,http://54.235.29.9/FacialAge/BNav_EC2/DepthDuration/v2_depth_duration_MTurk/v2_DepthDuration_HTML.html#86,86,1536,722,1536,864,8-20-2022,11-27-51,135,depth_duration_stimuli/002072_2014-06-24_21-48-06_260595134347_rgbf000115-resize_0/002072_2014-06-24_21-48-06_260595134347_rgbf000115-resize-original.jpg,250,4.702,5,3694,258,feet,jsons/v1_VE250_randls_13.json,493574,669704,34,Man
135,128865,DepthScenes,duration_manipulation_targetAtFixation,jsons/v1_VE250_randls_13.json,http://54.235.29.9/FacialAge/BNav_EC2/DepthDuration/v2_depth_duration_MTurk/v2_DepthDuration_HTML.html#86,86,1536,722,1536,864,8-20-2022,11-27-51,136,depth_duration_stimuli/000506_2014-06-08_23-21-00_260595134347_rgbf000070-resize_7/000506_2014-06-08_23-21-00_260595134347_rgbf000070-resize_7-target.png,250,4.0585,6,1905,248,feet,jsons/v1_VE250_randls_13.json,493574,669704,34,Man
136,128865,DepthScenes,duration_manipulation_targetAtFixation,jsons/v1_VE250_randls_13.json,http://54.235.29.9/FacialAge/BNav_EC2/DepthDuration/v2_depth_duration_MTurk/v2_DepthDuration_HTML.html#86,86,1536,722,1536,864,8-20-2022,11-27-51,137,depth_duration_stimuli/003079_2014-06-15_15-18-20_094959634447_rgbf000152-resize_8/003079_2014-06-15_15-18-20_094959634447_rgbf000152-resize_8-target.png,250,2.8775,5,2092,243,feet,jsons/v1_VE250_randls_13.json,493574,669704,34,Man
137,128865,DepthScenes,duration_manipulation_targetAtFixation,jsons/v1_VE250_randls_13.json,http://54.235.29.9/FacialAge/BNav_EC2/DepthDuration/v2_depth_duration_MTurk/v2_DepthDuration_HTML.html#86,86,1536,722,1536,864,8-20-2022,11-27-51,138,depth_duration_stimuli/001449_2014-06-19_17-01-27_260595134347_rgbf000116-resize_2/001449_2014-06-19_17-01-27_260595134347_rgbf000116-resize_2-target.png,250,3.452,5,1858,240,feet,jsons/v1_VE250_randls_13.json,493574,669704,34,Man
138,128865,DepthScenes,duration_manipulation_targetAtFixation,jsons/v1_VE250_randls_13.json,http://54.235.29.9/FacialAge/BNav_EC2/DepthDuration/v2_depth_duration_MTurk/v2_DepthDuration_HTML.html#86,86,1536,722,1536,864,8-20-2022,11-27-51,139,depth_duration_stimuli/001450_2014-06-19_17-02-03_260595134347_rgbf000203-resize_4/001450_2014-06-19_17-02-03_260595134347_rgbf000203-resize_4-target.png,250,4.0106666666667,0,3550,251,feet,jsons/v1_VE250_randls_13.json,493574,669704,34,Man
139,128865,DepthScenes,duration_manipulation_targetAtFixation,jsons/v1_VE250_randls_13.json,http://54.235.29.9/FacialAge/BNav_EC2/DepthDuration/v2_depth_duration_MTurk/v2_DepthDuration_HTML.html#86,86,1536,722,1536,864,8-20-2022,11-27-51,140,depth_duration_stimuli/002600_2014-06-24_14-27-04_094959634447_rgbf000074-resize_2/002600_2014-06-24_14-27-04_094959634447_rgbf000074-resize_2-target.png,250,2.7575,2,2522,248,feet,jsons/v1_VE250_randls_13.json,493574,669704,34,Man
140,128865,DepthScenes,duration_manipulation_targetAtFixation,jsons/v1_VE250_randls_13.json,http://54.235.29.9/FacialAge/BNav_EC2/DepthDuration/v2_depth_duration_MTurk/v2_DepthDuration_HTML.html#86,86,1536,722,1536,864,8-20-2022,11-27-51,141,depth_duration_stimuli/003228_2014-05-14_13-42-35_094959634447_rgbf000101-resize_1/003228_2014-05-14_13-42-35_094959634447_rgbf000101-resize_1-target.png,250,1.9680000000000002,3,35057,249,feet,jsons/v1_VE250_randls_13.json,493574,669704,34,Man
141,128865,DepthScenes,duration_manipulation_targetAtFixation,jsons/v1_VE250_randls_13.json,http://54.235.29.9/FacialAge/BNav_EC2/DepthDuration/v2_depth_duration_MTurk/v2_DepthDuration_HTML.html#86,86,1536,722,1536,864,8-20-2022,11-27-51,142,depth_duration_stimuli/000368_2014-06-09_15-53-01_260595134347_rgbf000155-resize_2/000368_2014-06-09_15-53-01_260595134347_rgbf000155-resize_2-target.png,250,2.4859999999999998,2,3984,247,feet,jsons/v1_VE250_randls_13.json,493574,669704,34,Man
142,128865,DepthScenes,duration_manipulation_targetAtFixation,jsons/v1_VE250_randls_13.json,http://54.235.29.9/FacialAge/BNav_EC2/DepthDuration/v2_depth_duration_MTurk/v2_DepthDuration_HTML.html#86,86,1536,722,1536,864,8-20-2022,11-27-51,143,depth_duration_stimuli/002678_2014-06-13_16-15-32_094959634447_rgbf000151-resize_6/002678_2014-06-13_16-15-32_094959634447_rgbf000151-resize_6-target.png,250,2.1830000000000003,4,4901,254,feet,jsons/v1_VE250_randls_13.json,493574,669704,34,Man
143,128865,DepthScenes,duration_manipulation_targetAtFixation,jsons/v1_VE250_randls_13.json,http://54.235.29.9/FacialAge/BNav_EC2/DepthDuration/v2_depth_duration_MTurk/v2_DepthDuration_HTML.html#86,86,1536,722,1536,864,8-20-2022,11-27-51,144,depth_duration_stimuli/002763_2014-06-22_19-13-10_094959634447_rgbf000075-resize_4/002763_2014-06-22_19-13-10_094959634447_rgbf000075-resize_4-target.png,250,1.68375,5,2483,249,feet,jsons/v1_VE250_randls_13.json,493574,669704,34,Man
144,128865,DepthScenes,duration_manipulation_targetAtFixation,jsons/v1_VE250_randls_13.json,http://54.235.29.9/FacialAge/BNav_EC2/DepthDuration/v2_depth_duration_MTurk/v2_DepthDuration_HTML.html#86,86,1536,722,1536,864,8-20-2022,11-27-51,145,depth_duration_stimuli/002209_2014-06-28_18-36-10_260595134347_rgbf000051-resize_1/002209_2014-06-28_18-36-10_260595134347_rgbf000051-resize_1-target.png,250,2.057,4,3130,243,feet,jsons/v1_VE250_randls_13.json,493574,669704,34,Man
145,128865,DepthScenes,duration_manipulation_targetAtFixation,jsons/v1_VE250_randls_13.json,http://54.235.29.9/FacialAge/BNav_EC2/DepthDuration/v2_depth_duration_MTurk/v2_DepthDuration_HTML.html#86,86,1536,722,1536,864,8-20-2022,11-27-51,146,depth_duration_stimuli/001498_2014-06-19_17-45-14_260595134347_rgbf000129-resize_4/001498_2014-06-19_17-45-14_260595134347_rgbf000129-resize-original.jpg,250,1.4075,4,2516,262,feet,jsons/v1_VE250_randls_13.json,493574,669704,34,Man
146,128865,DepthScenes,duration_manipulation_targetAtFixation,jsons/v1_VE250_randls_13.json,http://54.235.29.9/FacialAge/BNav_EC2/DepthDuration/v2_depth_duration_MTurk/v2_DepthDuration_HTML.html#86,86,1536,722,1536,864,8-20-2022,11-27-51,147,depth_duration_stimuli/000009_2014-05-26_14-32-05_260595134347_rgbf000034-resize_3/000009_2014-05-26_14-32-05_260595134347_rgbf000034-resize_3-target.png,250,3.8715,5,2260,242,feet,jsons/v1_VE250_randls_13.json,493574,669704,34,Man
147,128865,DepthScenes,duration_manipulation_targetAtFixation,jsons/v1_VE250_randls_13.json,http://54.235.29.9/FacialAge/BNav_EC2/DepthDuration/v2_depth_duration_MTurk/v2_DepthDuration_HTML.html#86,86,1536,722,1536,864,8-20-2022,11-27-51,148,depth_duration_stimuli/001828_2014-06-26_21-40-03_260595134347_rgbf000024-resize_0/001828_2014-06-26_21-40-03_260595134347_rgbf000024-resize_0-target.png,250,4.8260000000000005,5,1980,242,feet,jsons/v1_VE250_randls_13.json,493574,669704,34,Man
148,128865,DepthScenes,duration_manipulation_targetAtFixation,jsons/v1_VE250_randls_13.json,http://54.235.29.9/FacialAge/BNav_EC2/DepthDuration/v2_depth_duration_MTurk/v2_DepthDuration_HTML.html#86,86,1536,722,1536,864,8-20-2022,11-27-51,149,depth_duration_stimuli/000906_2014-06-08_13-35-43_260595134347_rgbf000155-resize_1/000906_2014-06-08_13-35-43_260595134347_rgbf000155-resize_1-target.png,250,2.8489999999999998,5,3123,259,feet,jsons/v1_VE250_randls_13.json,493574,669704,34,Man
149,128865,DepthScenes,duration_manipulation_targetAtFixation,jsons/v1_VE250_randls_13.json,http://54.235.29.9/FacialAge/BNav_EC2/DepthDuration/v2_depth_duration_MTurk/v2_DepthDuration_HTML.html#86,86,1536,722,1536,864,8-20-2022,11-27-51,150,depth_duration_stimuli/002805_2014-06-22_19-54-03_094959634447_rgbf000079-resize_1/002805_2014-06-22_19-54-03_094959634447_rgbf000079-resize_1-target.png,250,3.1439999999999997,5,2415,249,feet,jsons/v1_VE250_randls_13.json,493574,669704,34,Man
150,128865,DepthScenes,duration_manipulation_targetAtFixation,jsons/v1_VE250_randls_13.json,http://54.235.29.9/FacialAge/BNav_EC2/DepthDuration/v2_depth_duration_MTurk/v2_DepthDuration_HTML.html#86,86,1536,722,1536,864,8-20-2022,11-27-51,151,depth_duration_stimuli/001110_2014-06-15_17-25-28_260595134347_rgbf000150-resize_1/001110_2014-06-15_17-25-28_260595134347_rgbf000150-resize_1-target.png,250,1.7115,6,2019,248,feet,jsons/v1_VE250_randls_13.json,493574,669704,34,Man
151,128865,DepthScenes,duration_manipulation_targetAtFixation,jsons/v1_VE250_randls_13.json,http://54.235.29.9/FacialAge/BNav_EC2/DepthDuration/v2_depth_duration_MTurk/v2_DepthDuration_HTML.html#86,86,1536,722,1536,864,8-20-2022,11-27-51,152,depth_duration_stimuli/000927_2014-06-09_16-32-30_260595134347_rgbf000123-resize_3/000927_2014-06-09_16-32-30_260595134347_rgbf000123-resize_3-target.png,250,2.6785,5,2007,256,feet,jsons/v1_VE250_randls_13.json,493574,669704,34,Man
152,128865,DepthScenes,duration_manipulation_targetAtFixation,jsons/v1_VE250_randls_13.json,http://54.235.29.9/FacialAge/BNav_EC2/DepthDuration/v2_depth_duration_MTurk/v2_DepthDuration_HTML.html#86,86,1536,722,1536,864,8-20-2022,11-27-51,153,depth_duration_stimuli/002570_2014-06-24_13-59-54_094959634447_rgbf000059-resize_0/002570_2014-06-24_13-59-54_094959634447_rgbf000059-resize_0-target.png,250,4.037,5,2012,249,feet,jsons/v1_VE250_randls_13.json,493574,669704,34,Man
153,128865,DepthScenes,duration_manipulation_targetAtFixation,jsons/v1_VE250_randls_13.json,http://54.235.29.9/FacialAge/BNav_EC2/DepthDuration/v2_depth_duration_MTurk/v2_DepthDuration_HTML.html#86,86,1536,722,1536,864,8-20-2022,11-27-51,154,depth_duration_stimuli/002467_2014-06-28_20-38-07_260595134347_rgbf000026-resize_2/002467_2014-06-28_20-38-07_260595134347_rgbf000026-resize_2-target.png,250,4.742,6,1923,244,feet,jsons/v1_VE250_randls_13.json,493574,669704,34,Man
154,128865,DepthScenes,duration_manipulation_targetAtFixation,jsons/v1_VE250_randls_13.json,http://54.235.29.9/FacialAge/BNav_EC2/DepthDuration/v2_depth_duration_MTurk/v2_DepthDuration_HTML.html#86,86,1536,722,1536,864,8-20-2022,11-27-51,155,depth_duration_stimuli/001810_2014-06-26_20-51-35_260595134347_rgbf000040-resize_3/001810_2014-06-26_20-51-35_260595134347_rgbf000040-resize_3-target.png,250,2.2525,5,1932,249,feet,jsons/v1_VE250_randls_13.json,493574,669704,34,Man
155,128865,DepthScenes,duration_manipulation_targetAtFixation,jsons/v1_VE250_randls_13.json,http://54.235.29.9/FacialAge/BNav_EC2/DepthDuration/v2_depth_duration_MTurk/v2_DepthDuration_HTML.html#86,86,1536,722,1536,864,8-20-2022,11-27-51,156,depth_duration_stimuli/003010_2014-06-15_12-54-35_094959634447_rgbf000112-resize_0/003010_2014-06-15_12-54-35_094959634447_rgbf000112-resize_0-target.png,250,3.1185,6,2008,251,feet,jsons/v1_VE250_randls_13.json,493574,669704,34,Man
156,128865,DepthScenes,duration_manipulation_targetAtFixation,jsons/v1_VE250_randls_13.json,http://54.235.29.9/FacialAge/BNav_EC2/DepthDuration/v2_depth_duration_MTurk/v2_DepthDuration_HTML.html#86,86,1536,722,1536,864,8-20-2022,11-27-51,157,depth_duration_stimuli/002663_2014-06-13_15-50-26_094959634447_rgbf000075-resize_1/002663_2014-06-13_15-50-26_094959634447_rgbf000075-resize_1-target.png,250,4.7495,5,1939,246,feet,jsons/v1_VE250_randls_13.json,493574,669704,34,Man
157,128865,DepthScenes,duration_manipulation_targetAtFixation,jsons/v1_VE250_randls_13.json,http://54.235.29.9/FacialAge/BNav_EC2/DepthDuration/v2_depth_duration_MTurk/v2_DepthDuration_HTML.html#86,86,1536,722,1536,864,8-20-2022,11-27-51,158,depth_duration_stimuli/000409_2014-06-04_19-23-33_260595134347_rgbf000067-resize_0/000409_2014-06-04_19-23-33_260595134347_rgbf000067-resize_0-target.png,250,3.7335,4,1969,254,feet,jsons/v1_VE250_randls_13.json,493574,669704,34,Man
158,128865,DepthScenes,duration_manipulation_targetAtFixation,jsons/v1_VE250_randls_13.json,http://54.235.29.9/FacialAge/BNav_EC2/DepthDuration/v2_depth_duration_MTurk/v2_DepthDuration_HTML.html#86,86,1536,722,1536,864,8-20-2022,11-27-51,159,depth_duration_stimuli/001011_2014-06-08_23-18-54_260595134347_rgbf000044-resize_4/001011_2014-06-08_23-18-54_260595134347_rgbf000044-resize_4-target.png,250,2.4730000000000003,6,1997,248,feet,jsons/v1_VE250_randls_13.json,493574,669704,34,Man
159,128865,DepthScenes,duration_manipulation_targetAtFixation,jsons/v1_VE250_randls_13.json,http://54.235.29.9/FacialAge/BNav_EC2/DepthDuration/v2_depth_duration_MTurk/v2_DepthDuration_HTML.html#86,86,1536,722,1536,864,8-20-2022,11-27-51,160,depth_duration_stimuli/002875_2014-06-01_15-19-00_094959634447_rgbf000151-resize_1/002875_2014-06-01_15-19-00_094959634447_rgbf000151-resize_1-target.png,250,1.9675,5,2060,258,feet,jsons/v1_VE250_randls_13.json,493574,669704,34,Man
160,128865,DepthScenes,duration_manipulation_targetAtFixation,jsons/v1_VE250_randls_13.json,http://54.235.29.9/FacialAge/BNav_EC2/DepthDuration/v2_depth_duration_MTurk/v2_DepthDuration_HTML.html#86,86,1536,722,1536,864,8-20-2022,11-27-51,161,depth_duration_stimuli/001092_2014-06-15_17-34-58_260595134347_rgbf000171-resize_3/001092_2014-06-15_17-34-58_260595134347_rgbf000171-resize_3-target.png,250,2.6935,4,2086,244,feet,jsons/v1_VE250_randls_13.json,493574,669704,34,Man
161,128865,DepthScenes,duration_manipulation_targetAtFixation,jsons/v1_VE250_randls_13.json,http://54.235.29.9/FacialAge/BNav_EC2/DepthDuration/v2_depth_duration_MTurk/v2_DepthDuration_HTML.html#86,86,1536,722,1536,864,8-20-2022,11-27-51,162,depth_duration_stimuli/002545_2014-06-24_13-38-53_094959634447_rgbf000080-resize_4/002545_2014-06-24_13-38-53_094959634447_rgbf000080-resize_4-target.png,250,1.9205,6,1901,254,feet,jsons/v1_VE250_randls_13.json,493574,669704,34,Man
162,128865,DepthScenes,duration_manipulation_targetAtFixation,jsons/v1_VE250_randls_13.json,http://54.235.29.9/FacialAge/BNav_EC2/DepthDuration/v2_depth_duration_MTurk/v2_DepthDuration_HTML.html#86,86,1536,722,1536,864,8-20-2022,11-27-51,163,depth_duration_stimuli/001167_2014-06-17_15-38-07_260595134347_rgbf000108-resize_0/001167_2014-06-17_15-38-07_260595134347_rgbf000108-resize_0-target.png,250,1.8505,4,2069,249,feet,jsons/v1_VE250_randls_13.json,493574,669704,34,Man
163,128865,DepthScenes,duration_manipulation_targetAtFixation,jsons/v1_VE250_randls_13.json,http://54.235.29.9/FacialAge/BNav_EC2/DepthDuration/v2_depth_duration_MTurk/v2_DepthDuration_HTML.html#86,86,1536,722,1536,864,8-20-2022,11-27-51,164,depth_duration_stimuli/003587_2014-05-23_16-48-02_094959634447_rgbf002384-resize_2/003587_2014-05-23_16-48-02_094959634447_rgbf002384-resize_2-target.png,250,1.357,3,2155,248,feet,jsons/v1_VE250_randls_13.json,493574,669704,34,Man
