,subjID,experimentName,versionName,sequenceName,url,selected_row,windowWidth,windowHeight,screenWidth,screenHeight,startDate,startTime,trial,stimulus,duration,actual_depth,depth_estimate,trial_RT,log_sceneDuration,unitSelection,seq_filepath,experimentTime,totalTime,age,gender
0,130344,DepthScenes,duration_manipulation_targetAtFixation,jsons/v1_VE1000_randls_10_rotated.json,http://54.235.29.9/FacialAge/BNav_EC2/DepthDuration/v2_depth_duration_MTurk/v2_DepthDuration_HTML.html#95,95,1350,608,1366,768,8-22-2022,12-59-38,1,depth_duration_stimuli/003423_2014-05-21_10-23-26_094959634447_rgbf002665-resize_2/003423_2014-05-21_10-23-26_094959634447_rgbf002665-resize_2-target.png,1000,3.2575,2,5219,970,meters,jsons/v1_VE1000_randls_10_rotated.json,700396,852211,29,Man
1,130344,DepthScenes,duration_manipulation_targetAtFixation,jsons/v1_VE1000_randls_10_rotated.json,http://54.235.29.9/FacialAge/BNav_EC2/DepthDuration/v2_depth_duration_MTurk/v2_DepthDuration_HTML.html#95,95,1350,608,1366,768,8-22-2022,12-59-38,2,depth_duration_stimuli/002905_2014-06-03_18-04-43_094959634447_rgbf000151-resize_2/002905_2014-06-03_18-04-43_094959634447_rgbf000151-resize_2-target.png,1000,2.0295,6,3448,1059,meters,jsons/v1_VE1000_randls_10_rotated.json,700396,852211,29,Man
2,130344,DepthScenes,duration_manipulation_targetAtFixation,jsons/v1_VE1000_randls_10_rotated.json,http://54.235.29.9/FacialAge/BNav_EC2/DepthDuration/v2_depth_duration_MTurk/v2_DepthDuration_HTML.html#95,95,1350,608,1366,768,8-22-2022,12-59-38,3,depth_duration_stimuli/003495_2014-05-21_16-01-51_094959634447_rgbf000100-resize_3/003495_2014-05-21_16-01-51_094959634447_rgbf000100-resize_3-target.png,1000,1.6255,5,3801,1003,meters,jsons/v1_VE1000_randls_10_rotated.json,700396,852211,29,Man
3,130344,DepthScenes,duration_manipulation_targetAtFixation,jsons/v1_VE1000_randls_10_rotated.json,http://54.235.29.9/FacialAge/BNav_EC2/DepthDuration/v2_depth_duration_MTurk/v2_DepthDuration_HTML.html#95,95,1350,608,1366,768,8-22-2022,12-59-38,4,depth_duration_stimuli/001244_2014-06-17_16-47-45_260595134347_rgbf000030-resize_4/001244_2014-06-17_16-47-45_260595134347_rgbf000030-resize_4-target.png,1000,2.0425,3,3114,1001,meters,jsons/v1_VE1000_randls_10_rotated.json,700396,852211,29,Man
4,130344,DepthScenes,duration_manipulation_targetAtFixation,jsons/v1_VE1000_randls_10_rotated.json,http://54.235.29.9/FacialAge/BNav_EC2/DepthDuration/v2_depth_duration_MTurk/v2_DepthDuration_HTML.html#95,95,1350,608,1366,768,8-22-2022,12-59-38,5,depth_duration_stimuli/002545_2014-06-24_13-38-53_094959634447_rgbf000080-resize_4/002545_2014-06-24_13-38-53_094959634447_rgbf000080-resize_4-target.png,1000,1.9205,5,3374,1000,meters,jsons/v1_VE1000_randls_10_rotated.json,700396,852211,29,Man
5,130344,DepthScenes,duration_manipulation_targetAtFixation,jsons/v1_VE1000_randls_10_rotated.json,http://54.235.29.9/FacialAge/BNav_EC2/DepthDuration/v2_depth_duration_MTurk/v2_DepthDuration_HTML.html#95,95,1350,608,1366,768,8-22-2022,12-59-38,6,depth_duration_stimuli/001092_2014-06-15_17-34-58_260595134347_rgbf000171-resize_3/001092_2014-06-15_17-34-58_260595134347_rgbf000171-resize_3-target.png,1000,2.6935,6,3467,974,meters,jsons/v1_VE1000_randls_10_rotated.json,700396,852211,29,Man
6,130344,DepthScenes,duration_manipulation_targetAtFixation,jsons/v1_VE1000_randls_10_rotated.json,http://54.235.29.9/FacialAge/BNav_EC2/DepthDuration/v2_depth_duration_MTurk/v2_DepthDuration_HTML.html#95,95,1350,608,1366,768,8-22-2022,12-59-38,7,depth_duration_stimuli/001136_2014-06-17_15-19-41_260595134347_rgbf000076-resize_3/001136_2014-06-17_15-19-41_260595134347_rgbf000076-resize_3-target.png,1000,1.8655,3,4213,977,meters,jsons/v1_VE1000_randls_10_rotated.json,700396,852211,29,Man
7,130344,DepthScenes,duration_manipulation_targetAtFixation,jsons/v1_VE1000_randls_10_rotated.json,http://54.235.29.9/FacialAge/BNav_EC2/DepthDuration/v2_depth_duration_MTurk/v2_DepthDuration_HTML.html#95,95,1350,608,1366,768,8-22-2022,12-59-38,8,depth_duration_stimuli/001164_2014-06-17_15-35-46_260595134347_rgbf000085-resize_3/001164_2014-06-17_15-35-46_260595134347_rgbf000085-resize_3-target.png,1000,2.354,5,3945,1020,meters,jsons/v1_VE1000_randls_10_rotated.json,700396,852211,29,Man
8,130344,DepthScenes,duration_manipulation_targetAtFixation,jsons/v1_VE1000_randls_10_rotated.json,http://54.235.29.9/FacialAge/BNav_EC2/DepthDuration/v2_depth_duration_MTurk/v2_DepthDuration_HTML.html#95,95,1350,608,1366,768,8-22-2022,12-59-38,9,depth_duration_stimuli/003490_2014-05-21_15-50-11_094959634447_rgbf000101-resize_3/003490_2014-05-21_15-50-11_094959634447_rgbf000101-resize_3-target.png,1000,3.6445,3,4731,1015,meters,jsons/v1_VE1000_randls_10_rotated.json,700396,852211,29,Man
9,130344,DepthScenes,duration_manipulation_targetAtFixation,jsons/v1_VE1000_randls_10_rotated.json,http://54.235.29.9/FacialAge/BNav_EC2/DepthDuration/v2_depth_duration_MTurk/v2_DepthDuration_HTML.html#95,95,1350,608,1366,768,8-22-2022,12-59-38,10,depth_duration_stimuli/001175_2014-06-17_15-45-55_260595134347_rgbf000129-resize_4/001175_2014-06-17_15-45-55_260595134347_rgbf000129-resize_4-target.png,1000,4.255,6,4113,939,meters,jsons/v1_VE1000_randls_10_rotated.json,700396,852211,29,Man
10,130344,DepthScenes,duration_manipulation_targetAtFixation,jsons/v1_VE1000_randls_10_rotated.json,http://54.235.29.9/FacialAge/BNav_EC2/DepthDuration/v2_depth_duration_MTurk/v2_DepthDuration_HTML.html#95,95,1350,608,1366,768,8-22-2022,12-59-38,11,depth_duration_stimuli/000137_2014-05-20_17-04-49_260595134347_rgbf000120-resize_1/000137_2014-05-20_17-04-49_260595134347_rgbf000120-resize_1-target.png,1000,3.786,5,3417,999,meters,jsons/v1_VE1000_randls_10_rotated.json,700396,852211,29,Man
11,130344,DepthScenes,duration_manipulation_targetAtFixation,jsons/v1_VE1000_randls_10_rotated.json,http://54.235.29.9/FacialAge/BNav_EC2/DepthDuration/v2_depth_duration_MTurk/v2_DepthDuration_HTML.html#95,95,1350,608,1366,768,8-22-2022,12-59-38,12,depth_duration_stimuli/000736_2014-06-08_18-24-15_260595134347_rgbf000206-resize_3/000736_2014-06-08_18-24-15_260595134347_rgbf000206-resize_3-target.png,1000,3.515,1,3252,1049,meters,jsons/v1_VE1000_randls_10_rotated.json,700396,852211,29,Man
12,130344,DepthScenes,duration_manipulation_targetAtFixation,jsons/v1_VE1000_randls_10_rotated.json,http://54.235.29.9/FacialAge/BNav_EC2/DepthDuration/v2_depth_duration_MTurk/v2_DepthDuration_HTML.html#95,95,1350,608,1366,768,8-22-2022,12-59-38,13,depth_duration_stimuli/002340_2014-06-28_20-05-46_260595134347_rgbf000113-resize_0/002340_2014-06-28_20-05-46_260595134347_rgbf000113-resize_0-target.png,1000,2.4735,2,3621,901,meters,jsons/v1_VE1000_randls_10_rotated.json,700396,852211,29,Man
13,130344,DepthScenes,duration_manipulation_targetAtFixation,jsons/v1_VE1000_randls_10_rotated.json,http://54.235.29.9/FacialAge/BNav_EC2/DepthDuration/v2_depth_duration_MTurk/v2_DepthDuration_HTML.html#95,95,1350,608,1366,768,8-22-2022,12-59-38,14,depth_duration_stimuli/001016_2014-06-09_16-16-10_260595134347_rgbf000112-resize_5/001016_2014-06-09_16-16-10_260595134347_rgbf000112-resize_5-target.png,1000,1.6565,5,3288,963,meters,jsons/v1_VE1000_randls_10_rotated.json,700396,852211,29,Man
14,130344,DepthScenes,duration_manipulation_targetAtFixation,jsons/v1_VE1000_randls_10_rotated.json,http://54.235.29.9/FacialAge/BNav_EC2/DepthDuration/v2_depth_duration_MTurk/v2_DepthDuration_HTML.html#95,95,1350,608,1366,768,8-22-2022,12-59-38,15,depth_duration_stimuli/001584_2014-06-20_11-07-43_260595134347_rgbf000002-resize_1/001584_2014-06-20_11-07-43_260595134347_rgbf000002-resize_1-target.png,1000,3.53,3,3334,1022,meters,jsons/v1_VE1000_randls_10_rotated.json,700396,852211,29,Man
15,130344,DepthScenes,duration_manipulation_targetAtFixation,jsons/v1_VE1000_randls_10_rotated.json,http://54.235.29.9/FacialAge/BNav_EC2/DepthDuration/v2_depth_duration_MTurk/v2_DepthDuration_HTML.html#95,95,1350,608,1366,768,8-22-2022,12-59-38,16,depth_duration_stimuli/003621_2014-05-23_18-06-08_094959634447_rgbf000101-resize_1/003621_2014-05-23_18-06-08_094959634447_rgbf000101-resize_1-target.png,1000,3.9835,4,4192,1003,meters,jsons/v1_VE1000_randls_10_rotated.json,700396,852211,29,Man
16,130344,DepthScenes,duration_manipulation_targetAtFixation,jsons/v1_VE1000_randls_10_rotated.json,http://54.235.29.9/FacialAge/BNav_EC2/DepthDuration/v2_depth_duration_MTurk/v2_DepthDuration_HTML.html#95,95,1350,608,1366,768,8-22-2022,12-59-38,17,depth_duration_stimuli/002103_2014-06-25_20-00-40_260595134347_rgbf000049-resize_0/002103_2014-06-25_20-00-40_260595134347_rgbf000049-resize_0-target.png,1000,4.105,5,3382,973,meters,jsons/v1_VE1000_randls_10_rotated.json,700396,852211,29,Man
17,130344,DepthScenes,duration_manipulation_targetAtFixation,jsons/v1_VE1000_randls_10_rotated.json,http://54.235.29.9/FacialAge/BNav_EC2/DepthDuration/v2_depth_duration_MTurk/v2_DepthDuration_HTML.html#95,95,1350,608,1366,768,8-22-2022,12-59-38,18,depth_duration_stimuli/002039_2014-06-24_20-22-38_260595134347_rgbf000084-resize_1/002039_2014-06-24_20-22-38_260595134347_rgbf000084-resize_1-target.png,1000,4.408,3,3182,988,meters,jsons/v1_VE1000_randls_10_rotated.json,700396,852211,29,Man
18,130344,DepthScenes,duration_manipulation_targetAtFixation,jsons/v1_VE1000_randls_10_rotated.json,http://54.235.29.9/FacialAge/BNav_EC2/DepthDuration/v2_depth_duration_MTurk/v2_DepthDuration_HTML.html#95,95,1350,608,1366,768,8-22-2022,12-59-38,19,depth_duration_stimuli/001498_2014-06-19_17-45-14_260595134347_rgbf000129-resize_4/001498_2014-06-19_17-45-14_260595134347_rgbf000129-resize-original.jpg,1000,1.4075,8,4227,1122,meters,jsons/v1_VE1000_randls_10_rotated.json,700396,852211,29,Man
19,130344,DepthScenes,duration_manipulation_targetAtFixation,jsons/v1_VE1000_randls_10_rotated.json,http://54.235.29.9/FacialAge/BNav_EC2/DepthDuration/v2_depth_duration_MTurk/v2_DepthDuration_HTML.html#95,95,1350,608,1366,768,8-22-2022,12-59-38,20,depth_duration_stimuli/002660_2014-06-13_15-44-18_094959634447_rgbf001878-resize_2/002660_2014-06-13_15-44-18_094959634447_rgbf001878-resize_2-target.png,1000,3.576,2,3274,1012,meters,jsons/v1_VE1000_randls_10_rotated.json,700396,852211,29,Man
20,130344,DepthScenes,duration_manipulation_targetAtFixation,jsons/v1_VE1000_randls_10_rotated.json,http://54.235.29.9/FacialAge/BNav_EC2/DepthDuration/v2_depth_duration_MTurk/v2_DepthDuration_HTML.html#95,95,1350,608,1366,768,8-22-2022,12-59-38,21,depth_duration_stimuli/002153_2014-06-25_21-27-18_260595134347_rgbf000038-resize_5/002153_2014-06-25_21-27-18_260595134347_rgbf000038-resize_5-target.png,1000,2.505,4,4613,998,meters,jsons/v1_VE1000_randls_10_rotated.json,700396,852211,29,Man
21,130344,DepthScenes,duration_manipulation_targetAtFixation,jsons/v1_VE1000_randls_10_rotated.json,http://54.235.29.9/FacialAge/BNav_EC2/DepthDuration/v2_depth_duration_MTurk/v2_DepthDuration_HTML.html#95,95,1350,608,1366,768,8-22-2022,12-59-38,22,depth_duration_stimuli/002209_2014-06-28_18-36-10_260595134347_rgbf000051-resize_1/002209_2014-06-28_18-36-10_260595134347_rgbf000051-resize_1-target.png,1000,2.057,5,3625,1031,meters,jsons/v1_VE1000_randls_10_rotated.json,700396,852211,29,Man
22,130344,DepthScenes,duration_manipulation_targetAtFixation,jsons/v1_VE1000_randls_10_rotated.json,http://54.235.29.9/FacialAge/BNav_EC2/DepthDuration/v2_depth_duration_MTurk/v2_DepthDuration_HTML.html#95,95,1350,608,1366,768,8-22-2022,12-59-38,23,depth_duration_stimuli/002763_2014-06-22_19-13-10_094959634447_rgbf000075-resize_4/002763_2014-06-22_19-13-10_094959634447_rgbf000075-resize_4-target.png,1000,1.68375,3,3293,1000,meters,jsons/v1_VE1000_randls_10_rotated.json,700396,852211,29,Man
23,130344,DepthScenes,duration_manipulation_targetAtFixation,jsons/v1_VE1000_randls_10_rotated.json,http://54.235.29.9/FacialAge/BNav_EC2/DepthDuration/v2_depth_duration_MTurk/v2_DepthDuration_HTML.html#95,95,1350,608,1366,768,8-22-2022,12-59-38,24,depth_duration_stimuli/002568_2014-06-24_13-59-21_094959634447_rgbf000062-resize_4/002568_2014-06-24_13-59-21_094959634447_rgbf000062-resize_4-target.png,1000,3.015,5,4239,1003,meters,jsons/v1_VE1000_randls_10_rotated.json,700396,852211,29,Man
24,130344,DepthScenes,duration_manipulation_targetAtFixation,jsons/v1_VE1000_randls_10_rotated.json,http://54.235.29.9/FacialAge/BNav_EC2/DepthDuration/v2_depth_duration_MTurk/v2_DepthDuration_HTML.html#95,95,1350,608,1366,768,8-22-2022,12-59-38,25,depth_duration_stimuli/003492_2014-05-21_15-50-55_094959634447_rgbf000828-resize_1/003492_2014-05-21_15-50-55_094959634447_rgbf000828-resize_1-target.png,1000,4.06875,5,3244,1011,meters,jsons/v1_VE1000_randls_10_rotated.json,700396,852211,29,Man
25,130344,DepthScenes,duration_manipulation_targetAtFixation,jsons/v1_VE1000_randls_10_rotated.json,http://54.235.29.9/FacialAge/BNav_EC2/DepthDuration/v2_depth_duration_MTurk/v2_DepthDuration_HTML.html#95,95,1350,608,1366,768,8-22-2022,12-59-38,26,depth_duration_stimuli/003079_2014-06-15_15-18-20_094959634447_rgbf000152-resize_8/003079_2014-06-15_15-18-20_094959634447_rgbf000152-resize_8-target.png,1000,2.8775,3,3996,991,meters,jsons/v1_VE1000_randls_10_rotated.json,700396,852211,29,Man
26,130344,DepthScenes,duration_manipulation_targetAtFixation,jsons/v1_VE1000_randls_10_rotated.json,http://54.235.29.9/FacialAge/BNav_EC2/DepthDuration/v2_depth_duration_MTurk/v2_DepthDuration_HTML.html#95,95,1350,608,1366,768,8-22-2022,12-59-38,27,depth_duration_stimuli/000506_2014-06-08_23-21-00_260595134347_rgbf000070-resize_7/000506_2014-06-08_23-21-00_260595134347_rgbf000070-resize_7-target.png,1000,4.0585,5,3069,986,meters,jsons/v1_VE1000_randls_10_rotated.json,700396,852211,29,Man
27,130344,DepthScenes,duration_manipulation_targetAtFixation,jsons/v1_VE1000_randls_10_rotated.json,http://54.235.29.9/FacialAge/BNav_EC2/DepthDuration/v2_depth_duration_MTurk/v2_DepthDuration_HTML.html#95,95,1350,608,1366,768,8-22-2022,12-59-38,28,depth_duration_stimuli/003129_2014-05-12_10-48-10_094959634447_rgbf000100-resize_0/003129_2014-05-12_10-48-10_094959634447_rgbf000100-resize_0-target.png,1000,4.9305,9,3774,991,meters,jsons/v1_VE1000_randls_10_rotated.json,700396,852211,29,Man
28,130344,DepthScenes,duration_manipulation_targetAtFixation,jsons/v1_VE1000_randls_10_rotated.json,http://54.235.29.9/FacialAge/BNav_EC2/DepthDuration/v2_depth_duration_MTurk/v2_DepthDuration_HTML.html#95,95,1350,608,1366,768,8-22-2022,12-59-38,29,depth_duration_stimuli/000414_2014-06-04_19-49-13_260595134347_rgbf000044-resize_0/000414_2014-06-04_19-49-13_260595134347_rgbf000044-resize_0-target.png,1000,4.329,4,3109,994,meters,jsons/v1_VE1000_randls_10_rotated.json,700396,852211,29,Man
29,130344,DepthScenes,duration_manipulation_targetAtFixation,jsons/v1_VE1000_randls_10_rotated.json,http://54.235.29.9/FacialAge/BNav_EC2/DepthDuration/v2_depth_duration_MTurk/v2_DepthDuration_HTML.html#95,95,1350,608,1366,768,8-22-2022,12-59-38,30,depth_duration_stimuli/002072_2014-06-24_21-48-06_260595134347_rgbf000115-resize_0/002072_2014-06-24_21-48-06_260595134347_rgbf000115-resize-original.jpg,1000,4.702,2,3351,1006,meters,jsons/v1_VE1000_randls_10_rotated.json,700396,852211,29,Man
30,130344,DepthScenes,duration_manipulation_targetAtFixation,jsons/v1_VE1000_randls_10_rotated.json,http://54.235.29.9/FacialAge/BNav_EC2/DepthDuration/v2_depth_duration_MTurk/v2_DepthDuration_HTML.html#95,95,1350,608,1366,768,8-22-2022,12-59-38,31,depth_duration_stimuli/000780_2014-06-08_22-28-29_260595134347_rgbf000126-resize_1/000780_2014-06-08_22-28-29_260595134347_rgbf000126-resize_1-target.png,1000,3.3825,5,3674,998,meters,jsons/v1_VE1000_randls_10_rotated.json,700396,852211,29,Man
31,130344,DepthScenes,duration_manipulation_targetAtFixation,jsons/v1_VE1000_randls_10_rotated.json,http://54.235.29.9/FacialAge/BNav_EC2/DepthDuration/v2_depth_duration_MTurk/v2_DepthDuration_HTML.html#95,95,1350,608,1366,768,8-22-2022,12-59-38,32,depth_duration_stimuli/002445_2014-06-28_20-32-16_260595134347_rgbf000029-resize_4/002445_2014-06-28_20-32-16_260595134347_rgbf000029-resize_4-target.png,1000,2.5315,3,3713,995,meters,jsons/v1_VE1000_randls_10_rotated.json,700396,852211,29,Man
32,130344,DepthScenes,duration_manipulation_targetAtFixation,jsons/v1_VE1000_randls_10_rotated.json,http://54.235.29.9/FacialAge/BNav_EC2/DepthDuration/v2_depth_duration_MTurk/v2_DepthDuration_HTML.html#95,95,1350,608,1366,768,8-22-2022,12-59-38,33,depth_duration_stimuli/002750_2014-06-22_19-08-03_094959634447_rgbf000094-resize_4/002750_2014-06-22_19-08-03_094959634447_rgbf000094-resize_4-target.png,1000,2.354,1,3249,999,meters,jsons/v1_VE1000_randls_10_rotated.json,700396,852211,29,Man
33,130344,DepthScenes,duration_manipulation_targetAtFixation,jsons/v1_VE1000_randls_10_rotated.json,http://54.235.29.9/FacialAge/BNav_EC2/DepthDuration/v2_depth_duration_MTurk/v2_DepthDuration_HTML.html#95,95,1350,608,1366,768,8-22-2022,12-59-38,34,depth_duration_stimuli/002549_2014-06-24_13-41-39_094959634447_rgbf000022-resize_3/002549_2014-06-24_13-41-39_094959634447_rgbf000022-resize_3-target.png,1000,1.476,5,3331,1001,meters,jsons/v1_VE1000_randls_10_rotated.json,700396,852211,29,Man
34,130344,DepthScenes,duration_manipulation_targetAtFixation,jsons/v1_VE1000_randls_10_rotated.json,http://54.235.29.9/FacialAge/BNav_EC2/DepthDuration/v2_depth_duration_MTurk/v2_DepthDuration_HTML.html#95,95,1350,608,1366,768,8-22-2022,12-59-38,35,depth_duration_stimuli/001235_2014-06-17_16-37-36_260595134347_rgbf000084-resize_4/001235_2014-06-17_16-37-36_260595134347_rgbf000084-resize_4-target.png,1000,3.6605,5,2962,845,meters,jsons/v1_VE1000_randls_10_rotated.json,700396,852211,29,Man
35,130344,DepthScenes,duration_manipulation_targetAtFixation,jsons/v1_VE1000_randls_10_rotated.json,http://54.235.29.9/FacialAge/BNav_EC2/DepthDuration/v2_depth_duration_MTurk/v2_DepthDuration_HTML.html#95,95,1350,608,1366,768,8-22-2022,12-59-38,36,depth_duration_stimuli/000788_2014-06-08_22-34-36_260595134347_rgbf000131-resize_1/000788_2014-06-08_22-34-36_260595134347_rgbf000131-resize_1-target.png,1000,3.359,5,2999,955,meters,jsons/v1_VE1000_randls_10_rotated.json,700396,852211,29,Man
36,130344,DepthScenes,duration_manipulation_targetAtFixation,jsons/v1_VE1000_randls_10_rotated.json,http://54.235.29.9/FacialAge/BNav_EC2/DepthDuration/v2_depth_duration_MTurk/v2_DepthDuration_HTML.html#95,95,1350,608,1366,768,8-22-2022,12-59-38,37,depth_duration_stimuli/002995_2014-06-15_12-31-26_094959634447_rgbf000150-resize_1/002995_2014-06-15_12-31-26_094959634447_rgbf000150-resize_1-target.png,1000,3.8360000000000003,6,2856,958,meters,jsons/v1_VE1000_randls_10_rotated.json,700396,852211,29,Man
37,130344,DepthScenes,duration_manipulation_targetAtFixation,jsons/v1_VE1000_randls_10_rotated.json,http://54.235.29.9/FacialAge/BNav_EC2/DepthDuration/v2_depth_duration_MTurk/v2_DepthDuration_HTML.html#95,95,1350,608,1366,768,8-22-2022,12-59-38,38,depth_duration_stimuli/002748_2014-06-22_19-07-22_094959634447_rgbf000078-resize_1/002748_2014-06-22_19-07-22_094959634447_rgbf000078-resize_1-target.png,1000,4.6705,6,3780,999,meters,jsons/v1_VE1000_randls_10_rotated.json,700396,852211,29,Man
38,130344,DepthScenes,duration_manipulation_targetAtFixation,jsons/v1_VE1000_randls_10_rotated.json,http://54.235.29.9/FacialAge/BNav_EC2/DepthDuration/v2_depth_duration_MTurk/v2_DepthDuration_HTML.html#95,95,1350,608,1366,768,8-22-2022,12-59-38,39,depth_duration_stimuli/000943_2014-06-09_19-31-07_260595134347_rgbf000128-resize_1/000943_2014-06-09_19-31-07_260595134347_rgbf000128-resize_1-target.png,1000,1.9765,5,3322,1025,meters,jsons/v1_VE1000_randls_10_rotated.json,700396,852211,29,Man
39,130344,DepthScenes,duration_manipulation_targetAtFixation,jsons/v1_VE1000_randls_10_rotated.json,http://54.235.29.9/FacialAge/BNav_EC2/DepthDuration/v2_depth_duration_MTurk/v2_DepthDuration_HTML.html#95,95,1350,608,1366,768,8-22-2022,12-59-38,40,depth_duration_stimuli/003070_2014-06-15_14-58-27_094959634447_rgbf000150-resize_3/003070_2014-06-15_14-58-27_094959634447_rgbf000150-resize_3-target.png,1000,2.9415,6,3051,998,meters,jsons/v1_VE1000_randls_10_rotated.json,700396,852211,29,Man
40,130344,DepthScenes,duration_manipulation_targetAtFixation,jsons/v1_VE1000_randls_10_rotated.json,http://54.235.29.9/FacialAge/BNav_EC2/DepthDuration/v2_depth_duration_MTurk/v2_DepthDuration_HTML.html#95,95,1350,608,1366,768,8-22-2022,12-59-38,41,depth_duration_stimuli/002805_2014-06-22_19-54-03_094959634447_rgbf000079-resize_1/002805_2014-06-22_19-54-03_094959634447_rgbf000079-resize_1-target.png,1000,3.1439999999999997,9,3625,1015,meters,jsons/v1_VE1000_randls_10_rotated.json,700396,852211,29,Man
41,130344,DepthScenes,duration_manipulation_targetAtFixation,jsons/v1_VE1000_randls_10_rotated.json,http://54.235.29.9/FacialAge/BNav_EC2/DepthDuration/v2_depth_duration_MTurk/v2_DepthDuration_HTML.html#95,95,1350,608,1366,768,8-22-2022,12-59-38,42,depth_duration_stimuli/000906_2014-06-08_13-35-43_260595134347_rgbf000155-resize_1/000906_2014-06-08_13-35-43_260595134347_rgbf000155-resize_1-target.png,1000,2.8489999999999998,8,3585,985,meters,jsons/v1_VE1000_randls_10_rotated.json,700396,852211,29,Man
42,130344,DepthScenes,duration_manipulation_targetAtFixation,jsons/v1_VE1000_randls_10_rotated.json,http://54.235.29.9/FacialAge/BNav_EC2/DepthDuration/v2_depth_duration_MTurk/v2_DepthDuration_HTML.html#95,95,1350,608,1366,768,8-22-2022,12-59-38,43,depth_duration_stimuli/002344_2014-06-28_20-06-29_260595134347_rgbf000030-resize_1/002344_2014-06-28_20-06-29_260595134347_rgbf000030-resize_1-target.png,1000,1.5795,8,3587,992,meters,jsons/v1_VE1000_randls_10_rotated.json,700396,852211,29,Man
43,130344,DepthScenes,duration_manipulation_targetAtFixation,jsons/v1_VE1000_randls_10_rotated.json,http://54.235.29.9/FacialAge/BNav_EC2/DepthDuration/v2_depth_duration_MTurk/v2_DepthDuration_HTML.html#95,95,1350,608,1366,768,8-22-2022,12-59-38,44,depth_duration_stimuli/002725_2014-06-22_11-47-51_094959634447_rgbf000070-resize_1/002725_2014-06-22_11-47-51_094959634447_rgbf000070-resize_1-target.png,1000,2.195,5,3800,1003,meters,jsons/v1_VE1000_randls_10_rotated.json,700396,852211,29,Man
44,130344,DepthScenes,duration_manipulation_targetAtFixation,jsons/v1_VE1000_randls_10_rotated.json,http://54.235.29.9/FacialAge/BNav_EC2/DepthDuration/v2_depth_duration_MTurk/v2_DepthDuration_HTML.html#95,95,1350,608,1366,768,8-22-2022,12-59-38,45,depth_duration_stimuli/000734_2014-06-08_17-39-11_260595134347_rgbf000128-resize_2/000734_2014-06-08_17-39-11_260595134347_rgbf000128-resize_2-target.png,1000,4.098,4,3040,1042,meters,jsons/v1_VE1000_randls_10_rotated.json,700396,852211,29,Man
45,130344,DepthScenes,duration_manipulation_targetAtFixation,jsons/v1_VE1000_randls_10_rotated.json,http://54.235.29.9/FacialAge/BNav_EC2/DepthDuration/v2_depth_duration_MTurk/v2_DepthDuration_HTML.html#95,95,1350,608,1366,768,8-22-2022,12-59-38,46,depth_duration_stimuli/000739_2014-06-08_18-45-58_260595134347_rgbf000068-resize_1/000739_2014-06-08_18-45-58_260595134347_rgbf000068-resize_1-target.png,1000,3.534,2,3458,1004,meters,jsons/v1_VE1000_randls_10_rotated.json,700396,852211,29,Man
46,130344,DepthScenes,duration_manipulation_targetAtFixation,jsons/v1_VE1000_randls_10_rotated.json,http://54.235.29.9/FacialAge/BNav_EC2/DepthDuration/v2_depth_duration_MTurk/v2_DepthDuration_HTML.html#95,95,1350,608,1366,768,8-22-2022,12-59-38,47,depth_duration_stimuli/001650_2014-06-20_12-09-00_260595134347_rgbf000087-resize_3/001650_2014-06-20_12-09-00_260595134347_rgbf000087-resize_3-target.png,1000,1.9505,5,3193,990,meters,jsons/v1_VE1000_randls_10_rotated.json,700396,852211,29,Man
47,130344,DepthScenes,duration_manipulation_targetAtFixation,jsons/v1_VE1000_randls_10_rotated.json,http://54.235.29.9/FacialAge/BNav_EC2/DepthDuration/v2_depth_duration_MTurk/v2_DepthDuration_HTML.html#95,95,1350,608,1366,768,8-22-2022,12-59-38,48,depth_duration_stimuli/000682_2014-06-08_23-14-58_260595134347_rgbf000041-resize_5/000682_2014-06-08_23-14-58_260595134347_rgbf000041-resize_5-target.png,1000,2.7239999999999998,3,2831,970,meters,jsons/v1_VE1000_randls_10_rotated.json,700396,852211,29,Man
48,130344,DepthScenes,duration_manipulation_targetAtFixation,jsons/v1_VE1000_randls_10_rotated.json,http://54.235.29.9/FacialAge/BNav_EC2/DepthDuration/v2_depth_duration_MTurk/v2_DepthDuration_HTML.html#95,95,1350,608,1366,768,8-22-2022,12-59-38,49,depth_duration_stimuli/001170_2014-06-17_15-43-44_260595134347_rgbf000096-resize_6/001170_2014-06-17_15-43-44_260595134347_rgbf000096-resize-original.jpg,1000,1.1909999999999998,5,3080,995,meters,jsons/v1_VE1000_randls_10_rotated.json,700396,852211,29,Man
49,130344,DepthScenes,duration_manipulation_targetAtFixation,jsons/v1_VE1000_randls_10_rotated.json,http://54.235.29.9/FacialAge/BNav_EC2/DepthDuration/v2_depth_duration_MTurk/v2_DepthDuration_HTML.html#95,95,1350,608,1366,768,8-22-2022,12-59-38,50,depth_duration_stimuli/002467_2014-06-28_20-38-07_260595134347_rgbf000026-resize_2/002467_2014-06-28_20-38-07_260595134347_rgbf000026-resize_2-target.png,1000,4.742,8,3858,996,meters,jsons/v1_VE1000_randls_10_rotated.json,700396,852211,29,Man
50,130344,DepthScenes,duration_manipulation_targetAtFixation,jsons/v1_VE1000_randls_10_rotated.json,http://54.235.29.9/FacialAge/BNav_EC2/DepthDuration/v2_depth_duration_MTurk/v2_DepthDuration_HTML.html#95,95,1350,608,1366,768,8-22-2022,12-59-38,51,depth_duration_stimuli/002570_2014-06-24_13-59-54_094959634447_rgbf000059-resize_0/002570_2014-06-24_13-59-54_094959634447_rgbf000059-resize_0-target.png,1000,4.037,6,3208,1172,meters,jsons/v1_VE1000_randls_10_rotated.json,700396,852211,29,Man
51,130344,DepthScenes,duration_manipulation_targetAtFixation,jsons/v1_VE1000_randls_10_rotated.json,http://54.235.29.9/FacialAge/BNav_EC2/DepthDuration/v2_depth_duration_MTurk/v2_DepthDuration_HTML.html#95,95,1350,608,1366,768,8-22-2022,12-59-38,52,depth_duration_stimuli/000502_2014-06-08_23-02-32_260595134347_rgbf000063-resize_4/000502_2014-06-08_23-02-32_260595134347_rgbf000063-resize_4-target.png,1000,2.431,4,3511,998,meters,jsons/v1_VE1000_randls_10_rotated.json,700396,852211,29,Man
52,130344,DepthScenes,duration_manipulation_targetAtFixation,jsons/v1_VE1000_randls_10_rotated.json,http://54.235.29.9/FacialAge/BNav_EC2/DepthDuration/v2_depth_duration_MTurk/v2_DepthDuration_HTML.html#95,95,1350,608,1366,768,8-22-2022,12-59-38,53,depth_duration_stimuli/001199_2014-06-17_16-03-48_260595134347_rgbf000077-resize_0/001199_2014-06-17_16-03-48_260595134347_rgbf000077-resize_0-target.png,1000,3.4375,2,4090,987,meters,jsons/v1_VE1000_randls_10_rotated.json,700396,852211,29,Man
53,130344,DepthScenes,duration_manipulation_targetAtFixation,jsons/v1_VE1000_randls_10_rotated.json,http://54.235.29.9/FacialAge/BNav_EC2/DepthDuration/v2_depth_duration_MTurk/v2_DepthDuration_HTML.html#95,95,1350,608,1366,768,8-22-2022,12-59-38,54,depth_duration_stimuli/003010_2014-06-15_12-54-35_094959634447_rgbf000112-resize_0/003010_2014-06-15_12-54-35_094959634447_rgbf000112-resize_0-target.png,1000,3.1185,2,3171,892,meters,jsons/v1_VE1000_randls_10_rotated.json,700396,852211,29,Man
54,130344,DepthScenes,duration_manipulation_targetAtFixation,jsons/v1_VE1000_randls_10_rotated.json,http://54.235.29.9/FacialAge/BNav_EC2/DepthDuration/v2_depth_duration_MTurk/v2_DepthDuration_HTML.html#95,95,1350,608,1366,768,8-22-2022,12-59-38,55,depth_duration_stimuli/001810_2014-06-26_20-51-35_260595134347_rgbf000040-resize_3/001810_2014-06-26_20-51-35_260595134347_rgbf000040-resize_3-target.png,1000,2.2525,8,3070,1004,meters,jsons/v1_VE1000_randls_10_rotated.json,700396,852211,29,Man
55,130344,DepthScenes,duration_manipulation_targetAtFixation,jsons/v1_VE1000_randls_10_rotated.json,http://54.235.29.9/FacialAge/BNav_EC2/DepthDuration/v2_depth_duration_MTurk/v2_DepthDuration_HTML.html#95,95,1350,608,1366,768,8-22-2022,12-59-38,56,depth_duration_stimuli/000854_2014-06-09_19-43-13_260595134347_rgbf000066-resize_0/000854_2014-06-09_19-43-13_260595134347_rgbf000066-resize_0-target.png,1000,3.068,8,2988,1002,meters,jsons/v1_VE1000_randls_10_rotated.json,700396,852211,29,Man
56,130344,DepthScenes,duration_manipulation_targetAtFixation,jsons/v1_VE1000_randls_10_rotated.json,http://54.235.29.9/FacialAge/BNav_EC2/DepthDuration/v2_depth_duration_MTurk/v2_DepthDuration_HTML.html#95,95,1350,608,1366,768,8-22-2022,12-59-38,57,depth_duration_stimuli/000758_2014-06-08_22-05-08_260595134347_rgbf000085-resize_0/000758_2014-06-08_22-05-08_260595134347_rgbf000085-resize_0-target.png,1000,3.3810000000000002,6,5362,993,meters,jsons/v1_VE1000_randls_10_rotated.json,700396,852211,29,Man
57,130344,DepthScenes,duration_manipulation_targetAtFixation,jsons/v1_VE1000_randls_10_rotated.json,http://54.235.29.9/FacialAge/BNav_EC2/DepthDuration/v2_depth_duration_MTurk/v2_DepthDuration_HTML.html#95,95,1350,608,1366,768,8-22-2022,12-59-38,58,depth_duration_stimuli/003338_2014-05-20_11-01-23_094959634447_rgbf000051-resize_6/003338_2014-05-20_11-01-23_094959634447_rgbf000051-resize_6-target.png,1000,1.693,3,3729,1002,meters,jsons/v1_VE1000_randls_10_rotated.json,700396,852211,29,Man
58,130344,DepthScenes,duration_manipulation_targetAtFixation,jsons/v1_VE1000_randls_10_rotated.json,http://54.235.29.9/FacialAge/BNav_EC2/DepthDuration/v2_depth_duration_MTurk/v2_DepthDuration_HTML.html#95,95,1350,608,1366,768,8-22-2022,12-59-38,59,depth_duration_stimuli/002509_2014-06-24_13-19-22_094959634447_rgbf000077-resize_0/002509_2014-06-24_13-19-22_094959634447_rgbf000077-resize_0-target.png,1000,1.3065,2,3463,1013,meters,jsons/v1_VE1000_randls_10_rotated.json,700396,852211,29,Man
59,130344,DepthScenes,duration_manipulation_targetAtFixation,jsons/v1_VE1000_randls_10_rotated.json,http://54.235.29.9/FacialAge/BNav_EC2/DepthDuration/v2_depth_duration_MTurk/v2_DepthDuration_HTML.html#95,95,1350,608,1366,768,8-22-2022,12-59-38,60,depth_duration_stimuli/000677_2014-06-08_23-10-32_260595134347_rgbf000158-resize_6/000677_2014-06-08_23-10-32_260595134347_rgbf000158-resize_6-target.png,1000,3.556,5,4790,1000,meters,jsons/v1_VE1000_randls_10_rotated.json,700396,852211,29,Man
60,130344,DepthScenes,duration_manipulation_targetAtFixation,jsons/v1_VE1000_randls_10_rotated.json,http://54.235.29.9/FacialAge/BNav_EC2/DepthDuration/v2_depth_duration_MTurk/v2_DepthDuration_HTML.html#95,95,1350,608,1366,768,8-22-2022,12-59-38,61,depth_duration_stimuli/001029_2014-06-08_13-17-57_260595134347_rgbf000065-resize_1/001029_2014-06-08_13-17-57_260595134347_rgbf000065-resize_1-target.png,1000,3.0835,4,3342,919,meters,jsons/v1_VE1000_randls_10_rotated.json,700396,852211,29,Man
61,130344,DepthScenes,duration_manipulation_targetAtFixation,jsons/v1_VE1000_randls_10_rotated.json,http://54.235.29.9/FacialAge/BNav_EC2/DepthDuration/v2_depth_duration_MTurk/v2_DepthDuration_HTML.html#95,95,1350,608,1366,768,8-22-2022,12-59-38,62,depth_duration_stimuli/001447_2014-06-19_17-00-32_260595134347_rgbf000082-resize_5/001447_2014-06-19_17-00-32_260595134347_rgbf000082-resize_5-target.png,1000,4.13775,7,4618,986,meters,jsons/v1_VE1000_randls_10_rotated.json,700396,852211,29,Man
62,130344,DepthScenes,duration_manipulation_targetAtFixation,jsons/v1_VE1000_randls_10_rotated.json,http://54.235.29.9/FacialAge/BNav_EC2/DepthDuration/v2_depth_duration_MTurk/v2_DepthDuration_HTML.html#95,95,1350,608,1366,768,8-22-2022,12-59-38,63,depth_duration_stimuli/000447_2014-06-08_16-15-46_260595134347_rgbf000130-resize_1/000447_2014-06-08_16-15-46_260595134347_rgbf000130-resize_1-target.png,1000,4.479,8,3827,1045,meters,jsons/v1_VE1000_randls_10_rotated.json,700396,852211,29,Man
63,130344,DepthScenes,duration_manipulation_targetAtFixation,jsons/v1_VE1000_randls_10_rotated.json,http://54.235.29.9/FacialAge/BNav_EC2/DepthDuration/v2_depth_duration_MTurk/v2_DepthDuration_HTML.html#95,95,1350,608,1366,768,8-22-2022,12-59-38,64,depth_duration_stimuli/000866_2014-06-09_20-45-42_260595134347_rgbf000139-resize_1/000866_2014-06-09_20-45-42_260595134347_rgbf000139-resize_1-target.png,1000,3.2155,6,5633,1009,meters,jsons/v1_VE1000_randls_10_rotated.json,700396,852211,29,Man
64,130344,DepthScenes,duration_manipulation_targetAtFixation,jsons/v1_VE1000_randls_10_rotated.json,http://54.235.29.9/FacialAge/BNav_EC2/DepthDuration/v2_depth_duration_MTurk/v2_DepthDuration_HTML.html#95,95,1350,608,1366,768,8-22-2022,12-59-38,65,depth_duration_stimuli/002989_2014-06-15_12-25-03_094959634447_rgbf000150-resize_3/002989_2014-06-15_12-25-03_094959634447_rgbf000150-resize_3-target.png,1000,4.1975,5,3161,1004,meters,jsons/v1_VE1000_randls_10_rotated.json,700396,852211,29,Man
65,130344,DepthScenes,duration_manipulation_targetAtFixation,jsons/v1_VE1000_randls_10_rotated.json,http://54.235.29.9/FacialAge/BNav_EC2/DepthDuration/v2_depth_duration_MTurk/v2_DepthDuration_HTML.html#95,95,1350,608,1366,768,8-22-2022,12-59-38,66,depth_duration_stimuli/001540_2014-06-20_17-01-05_260595134347_rgbf000086-resize_2/001540_2014-06-20_17-01-05_260595134347_rgbf000086-resize-original.jpg,1000,1.459,3,3690,996,meters,jsons/v1_VE1000_randls_10_rotated.json,700396,852211,29,Man
66,130344,DepthScenes,duration_manipulation_targetAtFixation,jsons/v1_VE1000_randls_10_rotated.json,http://54.235.29.9/FacialAge/BNav_EC2/DepthDuration/v2_depth_duration_MTurk/v2_DepthDuration_HTML.html#95,95,1350,608,1366,768,8-22-2022,12-59-38,67,depth_duration_stimuli/000635_2014-06-08_16-38-42_260595134347_rgbf000106-resize_1/000635_2014-06-08_16-38-42_260595134347_rgbf000106-resize_1-target.png,1000,2.074,3,4473,1055,meters,jsons/v1_VE1000_randls_10_rotated.json,700396,852211,29,Man
67,130344,DepthScenes,duration_manipulation_targetAtFixation,jsons/v1_VE1000_randls_10_rotated.json,http://54.235.29.9/FacialAge/BNav_EC2/DepthDuration/v2_depth_duration_MTurk/v2_DepthDuration_HTML.html#95,95,1350,608,1366,768,8-22-2022,12-59-38,68,depth_duration_stimuli/002279_2014-06-28_18-55-32_260595134347_rgbf000040-resize_5/002279_2014-06-28_18-55-32_260595134347_rgbf000040-resize_5-target.png,1000,1.5043333333333,5,3084,1005,meters,jsons/v1_VE1000_randls_10_rotated.json,700396,852211,29,Man
68,130344,DepthScenes,duration_manipulation_targetAtFixation,jsons/v1_VE1000_randls_10_rotated.json,http://54.235.29.9/FacialAge/BNav_EC2/DepthDuration/v2_depth_duration_MTurk/v2_DepthDuration_HTML.html#95,95,1350,608,1366,768,8-22-2022,12-59-38,69,depth_duration_stimuli/002875_2014-06-01_15-19-00_094959634447_rgbf000151-resize_1/002875_2014-06-01_15-19-00_094959634447_rgbf000151-resize_1-target.png,1000,1.9675,6,3014,996,meters,jsons/v1_VE1000_randls_10_rotated.json,700396,852211,29,Man
69,130344,DepthScenes,duration_manipulation_targetAtFixation,jsons/v1_VE1000_randls_10_rotated.json,http://54.235.29.9/FacialAge/BNav_EC2/DepthDuration/v2_depth_duration_MTurk/v2_DepthDuration_HTML.html#95,95,1350,608,1366,768,8-22-2022,12-59-38,70,depth_duration_stimuli/001011_2014-06-08_23-18-54_260595134347_rgbf000044-resize_4/001011_2014-06-08_23-18-54_260595134347_rgbf000044-resize_4-target.png,1000,2.4730000000000003,4,2739,997,meters,jsons/v1_VE1000_randls_10_rotated.json,700396,852211,29,Man
70,130344,DepthScenes,duration_manipulation_targetAtFixation,jsons/v1_VE1000_randls_10_rotated.json,http://54.235.29.9/FacialAge/BNav_EC2/DepthDuration/v2_depth_duration_MTurk/v2_DepthDuration_HTML.html#95,95,1350,608,1366,768,8-22-2022,12-59-38,71,depth_duration_stimuli/003228_2014-05-14_13-42-35_094959634447_rgbf000101-resize_1/003228_2014-05-14_13-42-35_094959634447_rgbf000101-resize_1-target.png,1000,1.9680000000000002,2,5326,1037,meters,jsons/v1_VE1000_randls_10_rotated.json,700396,852211,29,Man
71,130344,DepthScenes,duration_manipulation_targetAtFixation,jsons/v1_VE1000_randls_10_rotated.json,http://54.235.29.9/FacialAge/BNav_EC2/DepthDuration/v2_depth_duration_MTurk/v2_DepthDuration_HTML.html#95,95,1350,608,1366,768,8-22-2022,12-59-38,72,depth_duration_stimuli/002600_2014-06-24_14-27-04_094959634447_rgbf000074-resize_2/002600_2014-06-24_14-27-04_094959634447_rgbf000074-resize_2-target.png,1000,2.7575,8,3128,998,meters,jsons/v1_VE1000_randls_10_rotated.json,700396,852211,29,Man
72,130344,DepthScenes,duration_manipulation_targetAtFixation,jsons/v1_VE1000_randls_10_rotated.json,http://54.235.29.9/FacialAge/BNav_EC2/DepthDuration/v2_depth_duration_MTurk/v2_DepthDuration_HTML.html#95,95,1350,608,1366,768,8-22-2022,12-59-38,73,depth_duration_stimuli/000483_2014-06-09_20-41-45_260595134347_rgbf000116-resize_4/000483_2014-06-09_20-41-45_260595134347_rgbf000116-resize_4-target.png,1000,1.337,8,3805,992,meters,jsons/v1_VE1000_randls_10_rotated.json,700396,852211,29,Man
73,130344,DepthScenes,duration_manipulation_targetAtFixation,jsons/v1_VE1000_randls_10_rotated.json,http://54.235.29.9/FacialAge/BNav_EC2/DepthDuration/v2_depth_duration_MTurk/v2_DepthDuration_HTML.html#95,95,1350,608,1366,768,8-22-2022,12-59-38,74,depth_duration_stimuli/000469_2014-06-09_19-42-10_260595134347_rgbf000081-resize_1/000469_2014-06-09_19-42-10_260595134347_rgbf000081-resize_1-target.png,1000,1.652,2,5111,995,meters,jsons/v1_VE1000_randls_10_rotated.json,700396,852211,29,Man
74,130344,DepthScenes,duration_manipulation_targetAtFixation,jsons/v1_VE1000_randls_10_rotated.json,http://54.235.29.9/FacialAge/BNav_EC2/DepthDuration/v2_depth_duration_MTurk/v2_DepthDuration_HTML.html#95,95,1350,608,1366,768,8-22-2022,12-59-38,75,depth_duration_stimuli/000665_2014-06-09_20-42-35_260595134347_rgbf000110-resize_1/000665_2014-06-09_20-42-35_260595134347_rgbf000110-resize_1-target.png,1000,3.057,6,3588,1027,meters,jsons/v1_VE1000_randls_10_rotated.json,700396,852211,29,Man
75,130344,DepthScenes,duration_manipulation_targetAtFixation,jsons/v1_VE1000_randls_10_rotated.json,http://54.235.29.9/FacialAge/BNav_EC2/DepthDuration/v2_depth_duration_MTurk/v2_DepthDuration_HTML.html#95,95,1350,608,1366,768,8-22-2022,12-59-38,76,depth_duration_stimuli/001150_2014-06-17_15-27-34_260595134347_rgbf000108-resize_2/001150_2014-06-17_15-27-34_260595134347_rgbf000108-resize_2-target.png,1000,4.0325,3,3240,1014,meters,jsons/v1_VE1000_randls_10_rotated.json,700396,852211,29,Man
76,130344,DepthScenes,duration_manipulation_targetAtFixation,jsons/v1_VE1000_randls_10_rotated.json,http://54.235.29.9/FacialAge/BNav_EC2/DepthDuration/v2_depth_duration_MTurk/v2_DepthDuration_HTML.html#95,95,1350,608,1366,768,8-22-2022,12-59-38,77,depth_duration_stimuli/002758_2014-06-22_19-11-20_094959634447_rgbf000128-resize_1/002758_2014-06-22_19-11-20_094959634447_rgbf000128-resize_1-target.png,1000,2.555,2,3250,992,meters,jsons/v1_VE1000_randls_10_rotated.json,700396,852211,29,Man
77,130344,DepthScenes,duration_manipulation_targetAtFixation,jsons/v1_VE1000_randls_10_rotated.json,http://54.235.29.9/FacialAge/BNav_EC2/DepthDuration/v2_depth_duration_MTurk/v2_DepthDuration_HTML.html#95,95,1350,608,1366,768,8-22-2022,12-59-38,78,depth_duration_stimuli/002630_2014-06-24_14-47-50_094959634447_rgbf000055-resize_1/002630_2014-06-24_14-47-50_094959634447_rgbf000055-resize_1-target.png,1000,3.0095,1,3368,985,meters,jsons/v1_VE1000_randls_10_rotated.json,700396,852211,29,Man
78,130344,DepthScenes,duration_manipulation_targetAtFixation,jsons/v1_VE1000_randls_10_rotated.json,http://54.235.29.9/FacialAge/BNav_EC2/DepthDuration/v2_depth_duration_MTurk/v2_DepthDuration_HTML.html#95,95,1350,608,1366,768,8-22-2022,12-59-38,79,depth_duration_stimuli/003048_2014-06-15_13-49-43_094959634447_rgbf000150-resize_1/003048_2014-06-15_13-49-43_094959634447_rgbf000150-resize_1-target.png,1000,4.0035,2,3645,1000,meters,jsons/v1_VE1000_randls_10_rotated.json,700396,852211,29,Man
79,130344,DepthScenes,duration_manipulation_targetAtFixation,jsons/v1_VE1000_randls_10_rotated.json,http://54.235.29.9/FacialAge/BNav_EC2/DepthDuration/v2_depth_duration_MTurk/v2_DepthDuration_HTML.html#95,95,1350,608,1366,768,8-22-2022,12-59-38,80,depth_duration_stimuli/002043_2014-06-24_20-29-38_260595134347_rgbf000039-resize_4/002043_2014-06-24_20-29-38_260595134347_rgbf000039-resize_4-target.png,1000,2.8435,6,3055,1010,meters,jsons/v1_VE1000_randls_10_rotated.json,700396,852211,29,Man
80,130344,DepthScenes,duration_manipulation_targetAtFixation,jsons/v1_VE1000_randls_10_rotated.json,http://54.235.29.9/FacialAge/BNav_EC2/DepthDuration/v2_depth_duration_MTurk/v2_DepthDuration_HTML.html#95,95,1350,608,1366,768,8-22-2022,12-59-38,81,depth_duration_stimuli/001571_2014-06-20_17-21-32_260595134347_rgbf000089-resize_1/001571_2014-06-20_17-21-32_260595134347_rgbf000089-resize_1-target.png,1000,1.86,9,3680,1010,meters,jsons/v1_VE1000_randls_10_rotated.json,700396,852211,29,Man
81,130344,DepthScenes,duration_manipulation_targetAtFixation,jsons/v1_VE1000_randls_10_rotated.json,http://54.235.29.9/FacialAge/BNav_EC2/DepthDuration/v2_depth_duration_MTurk/v2_DepthDuration_HTML.html#95,95,1350,608,1366,768,8-22-2022,12-59-38,82,depth_duration_stimuli/002272_2014-06-28_18-53-56_260595134347_rgbf000067-resize_2/002272_2014-06-28_18-53-56_260595134347_rgbf000067-resize_2-target.png,1000,1.138,3,5747,1038,meters,jsons/v1_VE1000_randls_10_rotated.json,700396,852211,29,Man
82,130344,DepthScenes,duration_manipulation_targetAtFixation,jsons/v1_VE1000_randls_10_rotated.json,http://54.235.29.9/FacialAge/BNav_EC2/DepthDuration/v2_depth_duration_MTurk/v2_DepthDuration_HTML.html#95,95,1350,608,1366,768,8-22-2022,12-59-38,83,depth_duration_stimuli/001828_2014-06-26_21-40-03_260595134347_rgbf000024-resize_0/001828_2014-06-26_21-40-03_260595134347_rgbf000024-resize_0-target.png,1000,4.8260000000000005,8,3539,1003,meters,jsons/v1_VE1000_randls_10_rotated.json,700396,852211,29,Man
83,130344,DepthScenes,duration_manipulation_targetAtFixation,jsons/v1_VE1000_randls_10_rotated.json,http://54.235.29.9/FacialAge/BNav_EC2/DepthDuration/v2_depth_duration_MTurk/v2_DepthDuration_HTML.html#95,95,1350,608,1366,768,8-22-2022,12-59-38,84,depth_duration_stimuli/000009_2014-05-26_14-32-05_260595134347_rgbf000034-resize_3/000009_2014-05-26_14-32-05_260595134347_rgbf000034-resize_3-target.png,1000,3.8715,7,3020,1001,meters,jsons/v1_VE1000_randls_10_rotated.json,700396,852211,29,Man
84,130344,DepthScenes,duration_manipulation_targetAtFixation,jsons/v1_VE1000_randls_10_rotated.json,http://54.235.29.9/FacialAge/BNav_EC2/DepthDuration/v2_depth_duration_MTurk/v2_DepthDuration_HTML.html#95,95,1350,608,1366,768,8-22-2022,12-59-38,85,depth_duration_stimuli/000457_2014-06-08_16-52-43_260595134347_rgbf000199-resize_1/000457_2014-06-08_16-52-43_260595134347_rgbf000199-resize_1-target.png,1000,3.6489999999999996,7,3214,960,meters,jsons/v1_VE1000_randls_10_rotated.json,700396,852211,29,Man
85,130344,DepthScenes,duration_manipulation_targetAtFixation,jsons/v1_VE1000_randls_10_rotated.json,http://54.235.29.9/FacialAge/BNav_EC2/DepthDuration/v2_depth_duration_MTurk/v2_DepthDuration_HTML.html#95,95,1350,608,1366,768,8-22-2022,12-59-38,86,depth_duration_stimuli/000929_2014-06-09_16-33-19_260595134347_rgbf000139-resize_0/000929_2014-06-09_16-33-19_260595134347_rgbf000139-resize_0-target.png,1000,2.8680000000000003,5,3550,1009,meters,jsons/v1_VE1000_randls_10_rotated.json,700396,852211,29,Man
86,130344,DepthScenes,duration_manipulation_targetAtFixation,jsons/v1_VE1000_randls_10_rotated.json,http://54.235.29.9/FacialAge/BNav_EC2/DepthDuration/v2_depth_duration_MTurk/v2_DepthDuration_HTML.html#95,95,1350,608,1366,768,8-22-2022,12-59-38,87,depth_duration_stimuli/000709_2014-06-08_13-51-55_260595134347_rgbf000068-resize_3/000709_2014-06-08_13-51-55_260595134347_rgbf000068-resize_3-target.png,1000,1.8030000000000002,5,3566,994,meters,jsons/v1_VE1000_randls_10_rotated.json,700396,852211,29,Man
87,130344,DepthScenes,duration_manipulation_targetAtFixation,jsons/v1_VE1000_randls_10_rotated.json,http://54.235.29.9/FacialAge/BNav_EC2/DepthDuration/v2_depth_duration_MTurk/v2_DepthDuration_HTML.html#95,95,1350,608,1366,768,8-22-2022,12-59-38,88,depth_duration_stimuli/002057_2014-06-24_21-00-13_260595134347_rgbf000120-resize_1/002057_2014-06-24_21-00-13_260595134347_rgbf000120-resize_1-target.png,1000,2.967,5,4069,986,meters,jsons/v1_VE1000_randls_10_rotated.json,700396,852211,29,Man
88,130344,DepthScenes,duration_manipulation_targetAtFixation,jsons/v1_VE1000_randls_10_rotated.json,http://54.235.29.9/FacialAge/BNav_EC2/DepthDuration/v2_depth_duration_MTurk/v2_DepthDuration_HTML.html#95,95,1350,608,1366,768,8-22-2022,12-59-38,89,depth_duration_stimuli/001516_2014-06-20_16-25-09_260595134347_rgbf000076-resize_2/001516_2014-06-20_16-25-09_260595134347_rgbf000076-resize_2-target.png,1000,1.7445,2,8361,1022,meters,jsons/v1_VE1000_randls_10_rotated.json,700396,852211,29,Man
89,130344,DepthScenes,duration_manipulation_targetAtFixation,jsons/v1_VE1000_randls_10_rotated.json,http://54.235.29.9/FacialAge/BNav_EC2/DepthDuration/v2_depth_duration_MTurk/v2_DepthDuration_HTML.html#95,95,1350,608,1366,768,8-22-2022,12-59-38,90,depth_duration_stimuli/002118_2014-06-25_20-32-08_260595134347_rgbf000078-resize_1/002118_2014-06-25_20-32-08_260595134347_rgbf000078-resize_1-target.png,1000,2.6460000000000004,5,3876,892,meters,jsons/v1_VE1000_randls_10_rotated.json,700396,852211,29,Man
90,130344,DepthScenes,duration_manipulation_targetAtFixation,jsons/v1_VE1000_randls_10_rotated.json,http://54.235.29.9/FacialAge/BNav_EC2/DepthDuration/v2_depth_duration_MTurk/v2_DepthDuration_HTML.html#95,95,1350,608,1366,768,8-22-2022,12-59-38,91,depth_duration_stimuli/001032_2014-06-08_13-23-17_260595134347_rgbf000021-resize_3/001032_2014-06-08_13-23-17_260595134347_rgbf000021-resize_3-target.png,1000,3.2725,6,3887,983,meters,jsons/v1_VE1000_randls_10_rotated.json,700396,852211,29,Man
91,130344,DepthScenes,duration_manipulation_targetAtFixation,jsons/v1_VE1000_randls_10_rotated.json,http://54.235.29.9/FacialAge/BNav_EC2/DepthDuration/v2_depth_duration_MTurk/v2_DepthDuration_HTML.html#95,95,1350,608,1366,768,8-22-2022,12-59-38,92,depth_duration_stimuli/001059_2014-06-08_21-53-27_260595134347_rgbf000061-resize_4/001059_2014-06-08_21-53-27_260595134347_rgbf000061-resize_4-target.png,1000,2.4185,3,3398,946,meters,jsons/v1_VE1000_randls_10_rotated.json,700396,852211,29,Man
92,130344,DepthScenes,duration_manipulation_targetAtFixation,jsons/v1_VE1000_randls_10_rotated.json,http://54.235.29.9/FacialAge/BNav_EC2/DepthDuration/v2_depth_duration_MTurk/v2_DepthDuration_HTML.html#95,95,1350,608,1366,768,8-22-2022,12-59-38,93,depth_duration_stimuli/001052_2014-06-08_18-24-54_260595134347_rgbf000130-resize_1/001052_2014-06-08_18-24-54_260595134347_rgbf000130-resize_1-target.png,1000,4.1045,9,4994,974,meters,jsons/v1_VE1000_randls_10_rotated.json,700396,852211,29,Man
93,130344,DepthScenes,duration_manipulation_targetAtFixation,jsons/v1_VE1000_randls_10_rotated.json,http://54.235.29.9/FacialAge/BNav_EC2/DepthDuration/v2_depth_duration_MTurk/v2_DepthDuration_HTML.html#95,95,1350,608,1366,768,8-22-2022,12-59-38,94,depth_duration_stimuli/002988_2014-06-15_12-24-20_094959634447_rgbf000150-resize_1/002988_2014-06-15_12-24-20_094959634447_rgbf000150-resize_1-target.png,1000,4.7669999999999995,4,4077,998,meters,jsons/v1_VE1000_randls_10_rotated.json,700396,852211,29,Man
94,130344,DepthScenes,duration_manipulation_targetAtFixation,jsons/v1_VE1000_randls_10_rotated.json,http://54.235.29.9/FacialAge/BNav_EC2/DepthDuration/v2_depth_duration_MTurk/v2_DepthDuration_HTML.html#95,95,1350,608,1366,768,8-22-2022,12-59-38,95,depth_duration_stimuli/001617_2014-06-20_11-35-32_260595134347_rgbf000066-resize_1/001617_2014-06-20_11-35-32_260595134347_rgbf000066-resize_1-target.png,1000,3.7910000000000004,2,5962,984,meters,jsons/v1_VE1000_randls_10_rotated.json,700396,852211,29,Man
95,130344,DepthScenes,duration_manipulation_targetAtFixation,jsons/v1_VE1000_randls_10_rotated.json,http://54.235.29.9/FacialAge/BNav_EC2/DepthDuration/v2_depth_duration_MTurk/v2_DepthDuration_HTML.html#95,95,1350,608,1366,768,8-22-2022,12-59-38,96,depth_duration_stimuli/001806_2014-06-26_20-50-20_260595134347_rgbf000091-resize_1/001806_2014-06-26_20-50-20_260595134347_rgbf000091-resize_1-target.png,1000,2.7305,2,3213,1001,meters,jsons/v1_VE1000_randls_10_rotated.json,700396,852211,29,Man
96,130344,DepthScenes,duration_manipulation_targetAtFixation,jsons/v1_VE1000_randls_10_rotated.json,http://54.235.29.9/FacialAge/BNav_EC2/DepthDuration/v2_depth_duration_MTurk/v2_DepthDuration_HTML.html#95,95,1350,608,1366,768,8-22-2022,12-59-38,97,depth_duration_stimuli/002414_2014-06-28_20-24-58_260595134347_rgbf000067-resize_4/002414_2014-06-28_20-24-58_260595134347_rgbf000067-resize_4-target.png,1000,4.363,1,3531,982,meters,jsons/v1_VE1000_randls_10_rotated.json,700396,852211,29,Man
97,130344,DepthScenes,duration_manipulation_targetAtFixation,jsons/v1_VE1000_randls_10_rotated.json,http://54.235.29.9/FacialAge/BNav_EC2/DepthDuration/v2_depth_duration_MTurk/v2_DepthDuration_HTML.html#95,95,1350,608,1366,768,8-22-2022,12-59-38,98,depth_duration_stimuli/000773_2014-06-08_22-24-54_260595134347_rgbf000093-resize_1/000773_2014-06-08_22-24-54_260595134347_rgbf000093-resize_1-target.png,1000,4.973,1,3656,1007,meters,jsons/v1_VE1000_randls_10_rotated.json,700396,852211,29,Man
98,130344,DepthScenes,duration_manipulation_targetAtFixation,jsons/v1_VE1000_randls_10_rotated.json,http://54.235.29.9/FacialAge/BNav_EC2/DepthDuration/v2_depth_duration_MTurk/v2_DepthDuration_HTML.html#95,95,1350,608,1366,768,8-22-2022,12-59-38,99,depth_duration_stimuli/001222_2014-06-17_16-24-06_260595134347_rgbf000073-resize_0/001222_2014-06-17_16-24-06_260595134347_rgbf000073-resize-original.jpg,1000,1.4385,5,3082,994,meters,jsons/v1_VE1000_randls_10_rotated.json,700396,852211,29,Man
99,130344,DepthScenes,duration_manipulation_targetAtFixation,jsons/v1_VE1000_randls_10_rotated.json,http://54.235.29.9/FacialAge/BNav_EC2/DepthDuration/v2_depth_duration_MTurk/v2_DepthDuration_HTML.html#95,95,1350,608,1366,768,8-22-2022,12-59-38,100,depth_duration_stimuli/000556_2014-06-09_22-42-56_260595134347_rgbf000214-resize_1/000556_2014-06-09_22-42-56_260595134347_rgbf000214-resize_1-target.png,1000,4.8415,6,3340,997,meters,jsons/v1_VE1000_randls_10_rotated.json,700396,852211,29,Man
100,130344,DepthScenes,duration_manipulation_targetAtFixation,jsons/v1_VE1000_randls_10_rotated.json,http://54.235.29.9/FacialAge/BNav_EC2/DepthDuration/v2_depth_duration_MTurk/v2_DepthDuration_HTML.html#95,95,1350,608,1366,768,8-22-2022,12-59-38,101,depth_duration_stimuli/001158_2014-06-17_15-32-16_260595134347_rgbf000138-resize_2/001158_2014-06-17_15-32-16_260595134347_rgbf000138-resize_2-target.png,1000,4.5315,8,3258,999,meters,jsons/v1_VE1000_randls_10_rotated.json,700396,852211,29,Man
101,130344,DepthScenes,duration_manipulation_targetAtFixation,jsons/v1_VE1000_randls_10_rotated.json,http://54.235.29.9/FacialAge/BNav_EC2/DepthDuration/v2_depth_duration_MTurk/v2_DepthDuration_HTML.html#95,95,1350,608,1366,768,8-22-2022,12-59-38,102,depth_duration_stimuli/000691_2014-06-08_13-08-50_260595134347_rgbf000132-resize_3/000691_2014-06-08_13-08-50_260595134347_rgbf000132-resize_3-target.png,1000,4.1530000000000005,6,3633,1028,meters,jsons/v1_VE1000_randls_10_rotated.json,700396,852211,29,Man
102,130344,DepthScenes,duration_manipulation_targetAtFixation,jsons/v1_VE1000_randls_10_rotated.json,http://54.235.29.9/FacialAge/BNav_EC2/DepthDuration/v2_depth_duration_MTurk/v2_DepthDuration_HTML.html#95,95,1350,608,1366,768,8-22-2022,12-59-38,103,depth_duration_stimuli/002213_2014-06-28_18-37-58_260595134347_rgbf000055-resize_1/002213_2014-06-28_18-37-58_260595134347_rgbf000055-resize_1-target.png,1000,3.62,2,3436,962,meters,jsons/v1_VE1000_randls_10_rotated.json,700396,852211,29,Man
103,130344,DepthScenes,duration_manipulation_targetAtFixation,jsons/v1_VE1000_randls_10_rotated.json,http://54.235.29.9/FacialAge/BNav_EC2/DepthDuration/v2_depth_duration_MTurk/v2_DepthDuration_HTML.html#95,95,1350,608,1366,768,8-22-2022,12-59-38,104,depth_duration_stimuli/002953_2014-06-08_17-32-18_094959634447_rgbf000059-resize_5/002953_2014-06-08_17-32-18_094959634447_rgbf000059-resize_5-target.png,1000,1.551,8,3773,1004,meters,jsons/v1_VE1000_randls_10_rotated.json,700396,852211,29,Man
104,130344,DepthScenes,duration_manipulation_targetAtFixation,jsons/v1_VE1000_randls_10_rotated.json,http://54.235.29.9/FacialAge/BNav_EC2/DepthDuration/v2_depth_duration_MTurk/v2_DepthDuration_HTML.html#95,95,1350,608,1366,768,8-22-2022,12-59-38,105,depth_duration_stimuli/000878_2014-06-08_22-52-45_260595134347_rgbf000045-resize_2/000878_2014-06-08_22-52-45_260595134347_rgbf000045-resize_2-target.png,1000,2.092,6,4638,1103,meters,jsons/v1_VE1000_randls_10_rotated.json,700396,852211,29,Man
105,130344,DepthScenes,duration_manipulation_targetAtFixation,jsons/v1_VE1000_randls_10_rotated.json,http://54.235.29.9/FacialAge/BNav_EC2/DepthDuration/v2_depth_duration_MTurk/v2_DepthDuration_HTML.html#95,95,1350,608,1366,768,8-22-2022,12-59-38,106,depth_duration_stimuli/002444_2014-06-28_20-32-08_260595134347_rgbf000027-resize_0/002444_2014-06-28_20-32-08_260595134347_rgbf000027-resize_0-target.png,1000,4.388999999999999,9,5073,1105,meters,jsons/v1_VE1000_randls_10_rotated.json,700396,852211,29,Man
106,130344,DepthScenes,duration_manipulation_targetAtFixation,jsons/v1_VE1000_randls_10_rotated.json,http://54.235.29.9/FacialAge/BNav_EC2/DepthDuration/v2_depth_duration_MTurk/v2_DepthDuration_HTML.html#95,95,1350,608,1366,768,8-22-2022,12-59-38,107,depth_duration_stimuli/000436_2014-06-09_22-25-11_260595134347_rgbf000137-resize_1/000436_2014-06-09_22-25-11_260595134347_rgbf000137-resize_1-target.png,1000,4.0705,3,7192,1001,meters,jsons/v1_VE1000_randls_10_rotated.json,700396,852211,29,Man
107,130344,DepthScenes,duration_manipulation_targetAtFixation,jsons/v1_VE1000_randls_10_rotated.json,http://54.235.29.9/FacialAge/BNav_EC2/DepthDuration/v2_depth_duration_MTurk/v2_DepthDuration_HTML.html#95,95,1350,608,1366,768,8-22-2022,12-59-38,108,depth_duration_stimuli/000749_2014-06-08_21-55-06_260595134347_rgbf000070-resize_2/000749_2014-06-08_21-55-06_260595134347_rgbf000070-resize_2-target.png,1000,2.331,3,3907,1068,meters,jsons/v1_VE1000_randls_10_rotated.json,700396,852211,29,Man
108,130344,DepthScenes,duration_manipulation_targetAtFixation,jsons/v1_VE1000_randls_10_rotated.json,http://54.235.29.9/FacialAge/BNav_EC2/DepthDuration/v2_depth_duration_MTurk/v2_DepthDuration_HTML.html#95,95,1350,608,1366,768,8-22-2022,12-59-38,109,depth_duration_stimuli/002788_2014-06-22_19-36-03_094959634447_rgbf000088-resize_2/002788_2014-06-22_19-36-03_094959634447_rgbf000088-resize_2-target.png,1000,1.6465,5,2916,981,meters,jsons/v1_VE1000_randls_10_rotated.json,700396,852211,29,Man
109,130344,DepthScenes,duration_manipulation_targetAtFixation,jsons/v1_VE1000_randls_10_rotated.json,http://54.235.29.9/FacialAge/BNav_EC2/DepthDuration/v2_depth_duration_MTurk/v2_DepthDuration_HTML.html#95,95,1350,608,1366,768,8-22-2022,12-59-38,110,depth_duration_stimuli/000409_2014-06-04_19-23-33_260595134347_rgbf000067-resize_0/000409_2014-06-04_19-23-33_260595134347_rgbf000067-resize_0-target.png,1000,3.7335,4,3168,996,meters,jsons/v1_VE1000_randls_10_rotated.json,700396,852211,29,Man
110,130344,DepthScenes,duration_manipulation_targetAtFixation,jsons/v1_VE1000_randls_10_rotated.json,http://54.235.29.9/FacialAge/BNav_EC2/DepthDuration/v2_depth_duration_MTurk/v2_DepthDuration_HTML.html#95,95,1350,608,1366,768,8-22-2022,12-59-38,111,depth_duration_stimuli/002663_2014-06-13_15-50-26_094959634447_rgbf000075-resize_1/002663_2014-06-13_15-50-26_094959634447_rgbf000075-resize_1-target.png,1000,4.7495,2,3628,997,meters,jsons/v1_VE1000_randls_10_rotated.json,700396,852211,29,Man
111,130344,DepthScenes,duration_manipulation_targetAtFixation,jsons/v1_VE1000_randls_10_rotated.json,http://54.235.29.9/FacialAge/BNav_EC2/DepthDuration/v2_depth_duration_MTurk/v2_DepthDuration_HTML.html#95,95,1350,608,1366,768,8-22-2022,12-59-38,112,depth_duration_stimuli/001450_2014-06-19_17-02-03_260595134347_rgbf000203-resize_4/001450_2014-06-19_17-02-03_260595134347_rgbf000203-resize_4-target.png,1000,4.0106666666667,8,3726,970,meters,jsons/v1_VE1000_randls_10_rotated.json,700396,852211,29,Man
112,130344,DepthScenes,duration_manipulation_targetAtFixation,jsons/v1_VE1000_randls_10_rotated.json,http://54.235.29.9/FacialAge/BNav_EC2/DepthDuration/v2_depth_duration_MTurk/v2_DepthDuration_HTML.html#95,95,1350,608,1366,768,8-22-2022,12-59-38,113,depth_duration_stimuli/001449_2014-06-19_17-01-27_260595134347_rgbf000116-resize_2/001449_2014-06-19_17-01-27_260595134347_rgbf000116-resize_2-target.png,1000,3.452,4,3027,962,meters,jsons/v1_VE1000_randls_10_rotated.json,700396,852211,29,Man
113,130344,DepthScenes,duration_manipulation_targetAtFixation,jsons/v1_VE1000_randls_10_rotated.json,http://54.235.29.9/FacialAge/BNav_EC2/DepthDuration/v2_depth_duration_MTurk/v2_DepthDuration_HTML.html#95,95,1350,608,1366,768,8-22-2022,12-59-38,114,depth_duration_stimuli/002199_2014-06-28_18-33-56_260595134347_rgbf000074-resize_0/002199_2014-06-28_18-33-56_260595134347_rgbf000074-resize_0-target.png,1000,1.996,2,3978,998,meters,jsons/v1_VE1000_randls_10_rotated.json,700396,852211,29,Man
114,130344,DepthScenes,duration_manipulation_targetAtFixation,jsons/v1_VE1000_randls_10_rotated.json,http://54.235.29.9/FacialAge/BNav_EC2/DepthDuration/v2_depth_duration_MTurk/v2_DepthDuration_HTML.html#95,95,1350,608,1366,768,8-22-2022,12-59-38,115,depth_duration_stimuli/001056_2014-06-08_18-46-44_260595134347_rgbf000068-resize_0/001056_2014-06-08_18-46-44_260595134347_rgbf000068-resize_0-target.png,1000,2.6625,3,3596,1043,meters,jsons/v1_VE1000_randls_10_rotated.json,700396,852211,29,Man
115,130344,DepthScenes,duration_manipulation_targetAtFixation,jsons/v1_VE1000_randls_10_rotated.json,http://54.235.29.9/FacialAge/BNav_EC2/DepthDuration/v2_depth_duration_MTurk/v2_DepthDuration_HTML.html#95,95,1350,608,1366,768,8-22-2022,12-59-38,116,depth_duration_stimuli/000191_2014-05-12_17-07-38_260595134347_rgbf000199-resize_0/000191_2014-05-12_17-07-38_260595134347_rgbf000199-resize_0-target.png,1000,3.7995,1,3829,1000,meters,jsons/v1_VE1000_randls_10_rotated.json,700396,852211,29,Man
116,130344,DepthScenes,duration_manipulation_targetAtFixation,jsons/v1_VE1000_randls_10_rotated.json,http://54.235.29.9/FacialAge/BNav_EC2/DepthDuration/v2_depth_duration_MTurk/v2_DepthDuration_HTML.html#95,95,1350,608,1366,768,8-22-2022,12-59-38,117,depth_duration_stimuli/000493_2014-06-09_21-01-18_260595134347_rgbf000196-resize_3/000493_2014-06-09_21-01-18_260595134347_rgbf000196-resize_3-target.png,1000,3.44,0,3579,1033,meters,jsons/v1_VE1000_randls_10_rotated.json,700396,852211,29,Man
117,130344,DepthScenes,duration_manipulation_targetAtFixation,jsons/v1_VE1000_randls_10_rotated.json,http://54.235.29.9/FacialAge/BNav_EC2/DepthDuration/v2_depth_duration_MTurk/v2_DepthDuration_HTML.html#95,95,1350,608,1366,768,8-22-2022,12-59-38,118,depth_duration_stimuli/002637_2014-06-24_14-51-13_094959634447_rgbf000066-resize_4/002637_2014-06-24_14-51-13_094959634447_rgbf000066-resize_4-target.png,1000,1.9955,2,3783,981,meters,jsons/v1_VE1000_randls_10_rotated.json,700396,852211,29,Man
118,130344,DepthScenes,duration_manipulation_targetAtFixation,jsons/v1_VE1000_randls_10_rotated.json,http://54.235.29.9/FacialAge/BNav_EC2/DepthDuration/v2_depth_duration_MTurk/v2_DepthDuration_HTML.html#95,95,1350,608,1366,768,8-22-2022,12-59-38,119,depth_duration_stimuli/003534_2014-05-22_15-06-10_094959634447_rgbf000102-resize_4/003534_2014-05-22_15-06-10_094959634447_rgbf000102-resize_4-target.png,1000,1.426,5,3117,1002,meters,jsons/v1_VE1000_randls_10_rotated.json,700396,852211,29,Man
119,130344,DepthScenes,duration_manipulation_targetAtFixation,jsons/v1_VE1000_randls_10_rotated.json,http://54.235.29.9/FacialAge/BNav_EC2/DepthDuration/v2_depth_duration_MTurk/v2_DepthDuration_HTML.html#95,95,1350,608,1366,768,8-22-2022,12-59-38,120,depth_duration_stimuli/000787_2014-06-08_22-33-53_260595134347_rgbf000175-resize_1/000787_2014-06-08_22-33-53_260595134347_rgbf000175-resize-original.jpg,1000,4.784,6,3097,1005,meters,jsons/v1_VE1000_randls_10_rotated.json,700396,852211,29,Man
120,130344,DepthScenes,duration_manipulation_targetAtFixation,jsons/v1_VE1000_randls_10_rotated.json,http://54.235.29.9/FacialAge/BNav_EC2/DepthDuration/v2_depth_duration_MTurk/v2_DepthDuration_HTML.html#95,95,1350,608,1366,768,8-22-2022,12-59-38,121,depth_duration_stimuli/001094_2014-06-15_17-36-00_260595134347_rgbf000205-resize_0/001094_2014-06-15_17-36-00_260595134347_rgbf000205-resize_0-target.png,1000,4.2175,8,4115,1017,meters,jsons/v1_VE1000_randls_10_rotated.json,700396,852211,29,Man
121,130344,DepthScenes,duration_manipulation_targetAtFixation,jsons/v1_VE1000_randls_10_rotated.json,http://54.235.29.9/FacialAge/BNav_EC2/DepthDuration/v2_depth_duration_MTurk/v2_DepthDuration_HTML.html#95,95,1350,608,1366,768,8-22-2022,12-59-38,122,depth_duration_stimuli/000692_2014-06-08_13-09-42_260595134347_rgbf000199-resize_2/000692_2014-06-08_13-09-42_260595134347_rgbf000199-resize_2-target.png,1000,3.661,8,3609,1052,meters,jsons/v1_VE1000_randls_10_rotated.json,700396,852211,29,Man
122,130344,DepthScenes,duration_manipulation_targetAtFixation,jsons/v1_VE1000_randls_10_rotated.json,http://54.235.29.9/FacialAge/BNav_EC2/DepthDuration/v2_depth_duration_MTurk/v2_DepthDuration_HTML.html#95,95,1350,608,1366,768,8-22-2022,12-59-38,123,depth_duration_stimuli/001214_2014-06-17_16-13-55_260595134347_rgbf000111-resize_0/001214_2014-06-17_16-13-55_260595134347_rgbf000111-resize_0-target.png,1000,2.6505,8,3143,1001,meters,jsons/v1_VE1000_randls_10_rotated.json,700396,852211,29,Man
123,130344,DepthScenes,duration_manipulation_targetAtFixation,jsons/v1_VE1000_randls_10_rotated.json,http://54.235.29.9/FacialAge/BNav_EC2/DepthDuration/v2_depth_duration_MTurk/v2_DepthDuration_HTML.html#95,95,1350,608,1366,768,8-22-2022,12-59-38,124,depth_duration_stimuli/000810_2014-06-08_17-20-01_260595134347_rgbf000105-resize_0/000810_2014-06-08_17-20-01_260595134347_rgbf000105-resize_0-target.png,1000,1.4865,3,3362,1011,meters,jsons/v1_VE1000_randls_10_rotated.json,700396,852211,29,Man
124,130344,DepthScenes,duration_manipulation_targetAtFixation,jsons/v1_VE1000_randls_10_rotated.json,http://54.235.29.9/FacialAge/BNav_EC2/DepthDuration/v2_depth_duration_MTurk/v2_DepthDuration_HTML.html#95,95,1350,608,1366,768,8-22-2022,12-59-38,125,depth_duration_stimuli/003083_2014-06-15_15-21-03_094959634447_rgbf000063-resize_1/003083_2014-06-15_15-21-03_094959634447_rgbf000063-resize_1-target.png,1000,4.1405,3,5390,1011,meters,jsons/v1_VE1000_randls_10_rotated.json,700396,852211,29,Man
125,130344,DepthScenes,duration_manipulation_targetAtFixation,jsons/v1_VE1000_randls_10_rotated.json,http://54.235.29.9/FacialAge/BNav_EC2/DepthDuration/v2_depth_duration_MTurk/v2_DepthDuration_HTML.html#95,95,1350,608,1366,768,8-22-2022,12-59-38,126,depth_duration_stimuli/000486_2014-06-09_20-47-20_260595134347_rgbf000143-resize_2/000486_2014-06-09_20-47-20_260595134347_rgbf000143-resize_2-target.png,1000,4.8325,5,4056,1043,meters,jsons/v1_VE1000_randls_10_rotated.json,700396,852211,29,Man
126,130344,DepthScenes,duration_manipulation_targetAtFixation,jsons/v1_VE1000_randls_10_rotated.json,http://54.235.29.9/FacialAge/BNav_EC2/DepthDuration/v2_depth_duration_MTurk/v2_DepthDuration_HTML.html#95,95,1350,608,1366,768,8-22-2022,12-59-38,127,depth_duration_stimuli/003587_2014-05-23_16-48-02_094959634447_rgbf002384-resize_2/003587_2014-05-23_16-48-02_094959634447_rgbf002384-resize_2-target.png,1000,1.357,5,3934,1004,meters,jsons/v1_VE1000_randls_10_rotated.json,700396,852211,29,Man
127,130344,DepthScenes,duration_manipulation_targetAtFixation,jsons/v1_VE1000_randls_10_rotated.json,http://54.235.29.9/FacialAge/BNav_EC2/DepthDuration/v2_depth_duration_MTurk/v2_DepthDuration_HTML.html#95,95,1350,608,1366,768,8-22-2022,12-59-38,128,depth_duration_stimuli/001167_2014-06-17_15-38-07_260595134347_rgbf000108-resize_0/001167_2014-06-17_15-38-07_260595134347_rgbf000108-resize_0-target.png,1000,1.8505,8,5046,991,meters,jsons/v1_VE1000_randls_10_rotated.json,700396,852211,29,Man
128,130344,DepthScenes,duration_manipulation_targetAtFixation,jsons/v1_VE1000_randls_10_rotated.json,http://54.235.29.9/FacialAge/BNav_EC2/DepthDuration/v2_depth_duration_MTurk/v2_DepthDuration_HTML.html#95,95,1350,608,1366,768,8-22-2022,12-59-38,129,depth_duration_stimuli/001392_2014-06-19_16-07-59_260595134347_rgbf000046-resize_1/001392_2014-06-19_16-07-59_260595134347_rgbf000046-resize_1-target.png,1000,4.135,3,3639,991,meters,jsons/v1_VE1000_randls_10_rotated.json,700396,852211,29,Man
129,130344,DepthScenes,duration_manipulation_targetAtFixation,jsons/v1_VE1000_randls_10_rotated.json,http://54.235.29.9/FacialAge/BNav_EC2/DepthDuration/v2_depth_duration_MTurk/v2_DepthDuration_HTML.html#95,95,1350,608,1366,768,8-22-2022,12-59-38,130,depth_duration_stimuli/001570_2014-06-20_17-21-09_260595134347_rgbf000135-resize_4/001570_2014-06-20_17-21-09_260595134347_rgbf000135-resize_4-target.png,1000,4.467,4,2925,1002,meters,jsons/v1_VE1000_randls_10_rotated.json,700396,852211,29,Man
130,130344,DepthScenes,duration_manipulation_targetAtFixation,jsons/v1_VE1000_randls_10_rotated.json,http://54.235.29.9/FacialAge/BNav_EC2/DepthDuration/v2_depth_duration_MTurk/v2_DepthDuration_HTML.html#95,95,1350,608,1366,768,8-22-2022,12-59-38,131,depth_duration_stimuli/002678_2014-06-13_16-15-32_094959634447_rgbf000151-resize_6/002678_2014-06-13_16-15-32_094959634447_rgbf000151-resize_6-target.png,1000,2.1830000000000003,2,2887,999,meters,jsons/v1_VE1000_randls_10_rotated.json,700396,852211,29,Man
131,130344,DepthScenes,duration_manipulation_targetAtFixation,jsons/v1_VE1000_randls_10_rotated.json,http://54.235.29.9/FacialAge/BNav_EC2/DepthDuration/v2_depth_duration_MTurk/v2_DepthDuration_HTML.html#95,95,1350,608,1366,768,8-22-2022,12-59-38,132,depth_duration_stimuli/000368_2014-06-09_15-53-01_260595134347_rgbf000155-resize_2/000368_2014-06-09_15-53-01_260595134347_rgbf000155-resize_2-target.png,1000,2.4859999999999998,4,2921,1050,meters,jsons/v1_VE1000_randls_10_rotated.json,700396,852211,29,Man
132,130344,DepthScenes,duration_manipulation_targetAtFixation,jsons/v1_VE1000_randls_10_rotated.json,http://54.235.29.9/FacialAge/BNav_EC2/DepthDuration/v2_depth_duration_MTurk/v2_DepthDuration_HTML.html#95,95,1350,608,1366,768,8-22-2022,12-59-38,133,depth_duration_stimuli/002639_2014-06-24_14-51-37_094959634447_rgbf000074-resize_4/002639_2014-06-24_14-51-37_094959634447_rgbf000074-resize_4-target.png,1000,4.0375,5,3489,932,meters,jsons/v1_VE1000_randls_10_rotated.json,700396,852211,29,Man
133,130344,DepthScenes,duration_manipulation_targetAtFixation,jsons/v1_VE1000_randls_10_rotated.json,http://54.235.29.9/FacialAge/BNav_EC2/DepthDuration/v2_depth_duration_MTurk/v2_DepthDuration_HTML.html#95,95,1350,608,1366,768,8-22-2022,12-59-38,134,depth_duration_stimuli/003292_2014-05-14_21-53-49_094959634447_rgbf000100-resize_2/003292_2014-05-14_21-53-49_094959634447_rgbf000100-resize_2-target.png,1000,3.4815,2,2968,989,meters,jsons/v1_VE1000_randls_10_rotated.json,700396,852211,29,Man
134,130344,DepthScenes,duration_manipulation_targetAtFixation,jsons/v1_VE1000_randls_10_rotated.json,http://54.235.29.9/FacialAge/BNav_EC2/DepthDuration/v2_depth_duration_MTurk/v2_DepthDuration_HTML.html#95,95,1350,608,1366,768,8-22-2022,12-59-38,135,depth_duration_stimuli/000375_2014-06-08_11-17-29_260595134347_rgbf000133-resize_2/000375_2014-06-08_11-17-29_260595134347_rgbf000133-resize-original.jpg,1000,4.718,3,3130,999,meters,jsons/v1_VE1000_randls_10_rotated.json,700396,852211,29,Man
135,130344,DepthScenes,duration_manipulation_targetAtFixation,jsons/v1_VE1000_randls_10_rotated.json,http://54.235.29.9/FacialAge/BNav_EC2/DepthDuration/v2_depth_duration_MTurk/v2_DepthDuration_HTML.html#95,95,1350,608,1366,768,8-22-2022,12-59-38,136,depth_duration_stimuli/000927_2014-06-09_16-32-30_260595134347_rgbf000123-resize_3/000927_2014-06-09_16-32-30_260595134347_rgbf000123-resize_3-target.png,1000,2.6785,4,7236,1012,meters,jsons/v1_VE1000_randls_10_rotated.json,700396,852211,29,Man
136,130344,DepthScenes,duration_manipulation_targetAtFixation,jsons/v1_VE1000_randls_10_rotated.json,http://54.235.29.9/FacialAge/BNav_EC2/DepthDuration/v2_depth_duration_MTurk/v2_DepthDuration_HTML.html#95,95,1350,608,1366,768,8-22-2022,12-59-38,137,depth_duration_stimuli/001110_2014-06-15_17-25-28_260595134347_rgbf000150-resize_1/001110_2014-06-15_17-25-28_260595134347_rgbf000150-resize_1-target.png,1000,1.7115,4,3585,1016,meters,jsons/v1_VE1000_randls_10_rotated.json,700396,852211,29,Man
137,130344,DepthScenes,duration_manipulation_targetAtFixation,jsons/v1_VE1000_randls_10_rotated.json,http://54.235.29.9/FacialAge/BNav_EC2/DepthDuration/v2_depth_duration_MTurk/v2_DepthDuration_HTML.html#95,95,1350,608,1366,768,8-22-2022,12-59-38,138,depth_duration_stimuli/000103_2014-05-14_22-01-17_260595134347_rgbf000152-resize_5/000103_2014-05-14_22-01-17_260595134347_rgbf000152-resize_5-target.png,1000,1.993,5,4867,972,meters,jsons/v1_VE1000_randls_10_rotated.json,700396,852211,29,Man
138,130344,DepthScenes,duration_manipulation_targetAtFixation,jsons/v1_VE1000_randls_10_rotated.json,http://54.235.29.9/FacialAge/BNav_EC2/DepthDuration/v2_depth_duration_MTurk/v2_DepthDuration_HTML.html#95,95,1350,608,1366,768,8-22-2022,12-59-38,139,depth_duration_stimuli/001555_2014-06-20_17-12-10_260595134347_rgbf000065-resize_4/001555_2014-06-20_17-12-10_260595134347_rgbf000065-resize_4-target.png,1000,1.633,8,3421,862,meters,jsons/v1_VE1000_randls_10_rotated.json,700396,852211,29,Man
139,130344,DepthScenes,duration_manipulation_targetAtFixation,jsons/v1_VE1000_randls_10_rotated.json,http://54.235.29.9/FacialAge/BNav_EC2/DepthDuration/v2_depth_duration_MTurk/v2_DepthDuration_HTML.html#95,95,1350,608,1366,768,8-22-2022,12-59-38,140,depth_duration_stimuli/000109_2014-05-14_23-41-52_260595134347_rgbf000035-resize_9/000109_2014-05-14_23-41-52_260595134347_rgbf000035-resize_9-target.png,1000,1.3545,3,5403,998,meters,jsons/v1_VE1000_randls_10_rotated.json,700396,852211,29,Man
140,130344,DepthScenes,duration_manipulation_targetAtFixation,jsons/v1_VE1000_randls_10_rotated.json,http://54.235.29.9/FacialAge/BNav_EC2/DepthDuration/v2_depth_duration_MTurk/v2_DepthDuration_HTML.html#95,95,1350,608,1366,768,8-22-2022,12-59-38,141,depth_duration_stimuli/000470_2014-06-09_19-42-40_260595134347_rgbf000094-resize_1/000470_2014-06-09_19-42-40_260595134347_rgbf000094-resize_1-target.png,1000,1.831,5,4302,996,meters,jsons/v1_VE1000_randls_10_rotated.json,700396,852211,29,Man
141,130344,DepthScenes,duration_manipulation_targetAtFixation,jsons/v1_VE1000_randls_10_rotated.json,http://54.235.29.9/FacialAge/BNav_EC2/DepthDuration/v2_depth_duration_MTurk/v2_DepthDuration_HTML.html#95,95,1350,608,1366,768,8-22-2022,12-59-38,142,depth_duration_stimuli/001100_2014-06-15_17-46-26_260595134347_rgbf000225-resize_2/001100_2014-06-15_17-46-26_260595134347_rgbf000225-resize_2-target.png,1000,2.24,6,3545,1001,meters,jsons/v1_VE1000_randls_10_rotated.json,700396,852211,29,Man
142,130344,DepthScenes,duration_manipulation_targetAtFixation,jsons/v1_VE1000_randls_10_rotated.json,http://54.235.29.9/FacialAge/BNav_EC2/DepthDuration/v2_depth_duration_MTurk/v2_DepthDuration_HTML.html#95,95,1350,608,1366,768,8-22-2022,12-59-38,143,depth_duration_stimuli/002784_2014-06-22_19-26-30_094959634447_rgbf000083-resize_3/002784_2014-06-22_19-26-30_094959634447_rgbf000083-resize_3-target.png,1000,1.8046666666667,4,3124,1000,meters,jsons/v1_VE1000_randls_10_rotated.json,700396,852211,29,Man
143,130344,DepthScenes,duration_manipulation_targetAtFixation,jsons/v1_VE1000_randls_10_rotated.json,http://54.235.29.9/FacialAge/BNav_EC2/DepthDuration/v2_depth_duration_MTurk/v2_DepthDuration_HTML.html#95,95,1350,608,1366,768,8-22-2022,12-59-38,144,depth_duration_stimuli/002425_2014-06-28_20-27-29_260595134347_rgbf000031-resize_8/002425_2014-06-28_20-27-29_260595134347_rgbf000031-resize_8-target.png,1000,3.8960000000000004,4,3834,806,meters,jsons/v1_VE1000_randls_10_rotated.json,700396,852211,29,Man
144,130344,DepthScenes,duration_manipulation_targetAtFixation,jsons/v1_VE1000_randls_10_rotated.json,http://54.235.29.9/FacialAge/BNav_EC2/DepthDuration/v2_depth_duration_MTurk/v2_DepthDuration_HTML.html#95,95,1350,608,1366,768,8-22-2022,12-59-38,145,depth_duration_stimuli/000642_2014-06-08_16-59-25_260595134347_rgbf000098-resize_2/000642_2014-06-08_16-59-25_260595134347_rgbf000098-resize_2-target.png,1000,2.8815,2,3049,939,meters,jsons/v1_VE1000_randls_10_rotated.json,700396,852211,29,Man
145,130344,DepthScenes,duration_manipulation_targetAtFixation,jsons/v1_VE1000_randls_10_rotated.json,http://54.235.29.9/FacialAge/BNav_EC2/DepthDuration/v2_depth_duration_MTurk/v2_DepthDuration_HTML.html#95,95,1350,608,1366,768,8-22-2022,12-59-38,146,depth_duration_stimuli/003081_2014-06-15_15-19-16_094959634447_rgbf000150-resize_1/003081_2014-06-15_15-19-16_094959634447_rgbf000150-resize_1-target.png,1000,3.9125,8,3242,970,meters,jsons/v1_VE1000_randls_10_rotated.json,700396,852211,29,Man
146,130344,DepthScenes,duration_manipulation_targetAtFixation,jsons/v1_VE1000_randls_10_rotated.json,http://54.235.29.9/FacialAge/BNav_EC2/DepthDuration/v2_depth_duration_MTurk/v2_DepthDuration_HTML.html#95,95,1350,608,1366,768,8-22-2022,12-59-38,147,depth_duration_stimuli/001417_2014-06-19_16-25-36_260595134347_rgbf000115-resize_5/001417_2014-06-19_16-25-36_260595134347_rgbf000115-resize_5-target.png,1000,4.6255,6,3159,1019,meters,jsons/v1_VE1000_randls_10_rotated.json,700396,852211,29,Man
147,130344,DepthScenes,duration_manipulation_targetAtFixation,jsons/v1_VE1000_randls_10_rotated.json,http://54.235.29.9/FacialAge/BNav_EC2/DepthDuration/v2_depth_duration_MTurk/v2_DepthDuration_HTML.html#95,95,1350,608,1366,768,8-22-2022,12-59-38,148,depth_duration_stimuli/000742_2014-06-08_18-48-09_260595134347_rgbf000164-resize_4/000742_2014-06-08_18-48-09_260595134347_rgbf000164-resize_4-target.png,1000,4.632,7,2934,997,meters,jsons/v1_VE1000_randls_10_rotated.json,700396,852211,29,Man
148,130344,DepthScenes,duration_manipulation_targetAtFixation,jsons/v1_VE1000_randls_10_rotated.json,http://54.235.29.9/FacialAge/BNav_EC2/DepthDuration/v2_depth_duration_MTurk/v2_DepthDuration_HTML.html#95,95,1350,608,1366,768,8-22-2022,12-59-38,149,depth_duration_stimuli/001066_2014-06-08_22-03-20_260595134347_rgbf000066-resize_4/001066_2014-06-08_22-03-20_260595134347_rgbf000066-resize_4-target.png,1000,4.2330000000000005,5,3303,986,meters,jsons/v1_VE1000_randls_10_rotated.json,700396,852211,29,Man
149,130344,DepthScenes,duration_manipulation_targetAtFixation,jsons/v1_VE1000_randls_10_rotated.json,http://54.235.29.9/FacialAge/BNav_EC2/DepthDuration/v2_depth_duration_MTurk/v2_DepthDuration_HTML.html#95,95,1350,608,1366,768,8-22-2022,12-59-38,150,depth_duration_stimuli/001815_2014-06-26_20-52-55_260595134347_rgbf000020-resize_0/001815_2014-06-26_20-52-55_260595134347_rgbf000020-resize_0-target.png,1000,3.3865,4,6307,1004,meters,jsons/v1_VE1000_randls_10_rotated.json,700396,852211,29,Man
150,130344,DepthScenes,duration_manipulation_targetAtFixation,jsons/v1_VE1000_randls_10_rotated.json,http://54.235.29.9/FacialAge/BNav_EC2/DepthDuration/v2_depth_duration_MTurk/v2_DepthDuration_HTML.html#95,95,1350,608,1366,768,8-22-2022,12-59-38,151,depth_duration_stimuli/001808_2014-06-26_20-50-58_260595134347_rgbf000029-resize_1/001808_2014-06-26_20-50-58_260595134347_rgbf000029-resize_1-target.png,1000,4.249,5,3284,947,meters,jsons/v1_VE1000_randls_10_rotated.json,700396,852211,29,Man
151,130344,DepthScenes,duration_manipulation_targetAtFixation,jsons/v1_VE1000_randls_10_rotated.json,http://54.235.29.9/FacialAge/BNav_EC2/DepthDuration/v2_depth_duration_MTurk/v2_DepthDuration_HTML.html#95,95,1350,608,1366,768,8-22-2022,12-59-38,152,depth_duration_stimuli/000569_2014-06-09_22-51-47_260595134347_rgbf000141-resize_3/000569_2014-06-09_22-51-47_260595134347_rgbf000141-resize-original.jpg,1000,4.512,5,3196,1025,meters,jsons/v1_VE1000_randls_10_rotated.json,700396,852211,29,Man
152,130344,DepthScenes,duration_manipulation_targetAtFixation,jsons/v1_VE1000_randls_10_rotated.json,http://54.235.29.9/FacialAge/BNav_EC2/DepthDuration/v2_depth_duration_MTurk/v2_DepthDuration_HTML.html#95,95,1350,608,1366,768,8-22-2022,12-59-38,153,depth_duration_stimuli/002657_2014-06-13_15-29-54_094959634447_rgbf000150-resize_1/002657_2014-06-13_15-29-54_094959634447_rgbf000150-resize_1-target.png,1000,4.919,3,3409,996,meters,jsons/v1_VE1000_randls_10_rotated.json,700396,852211,29,Man
153,130344,DepthScenes,duration_manipulation_targetAtFixation,jsons/v1_VE1000_randls_10_rotated.json,http://54.235.29.9/FacialAge/BNav_EC2/DepthDuration/v2_depth_duration_MTurk/v2_DepthDuration_HTML.html#95,95,1350,608,1366,768,8-22-2022,12-59-38,154,depth_duration_stimuli/002375_2014-06-28_20-13-44_260595134347_rgbf000032-resize_1/002375_2014-06-28_20-13-44_260595134347_rgbf000032-resize_1-target.png,1000,4.0175,3,3510,1002,meters,jsons/v1_VE1000_randls_10_rotated.json,700396,852211,29,Man
154,130344,DepthScenes,duration_manipulation_targetAtFixation,jsons/v1_VE1000_randls_10_rotated.json,http://54.235.29.9/FacialAge/BNav_EC2/DepthDuration/v2_depth_duration_MTurk/v2_DepthDuration_HTML.html#95,95,1350,608,1366,768,8-22-2022,12-59-38,155,depth_duration_stimuli/002136_2014-06-25_21-18-03_260595134347_rgbf000109-resize_3/002136_2014-06-25_21-18-03_260595134347_rgbf000109-resize_3-target.png,1000,1.9569999999999999,2,3818,999,meters,jsons/v1_VE1000_randls_10_rotated.json,700396,852211,29,Man
155,130344,DepthScenes,duration_manipulation_targetAtFixation,jsons/v1_VE1000_randls_10_rotated.json,http://54.235.29.9/FacialAge/BNav_EC2/DepthDuration/v2_depth_duration_MTurk/v2_DepthDuration_HTML.html#95,95,1350,608,1366,768,8-22-2022,12-59-38,156,depth_duration_stimuli/002964_2014-06-08_17-46-11_094959634447_rgbf000091-resize_4/002964_2014-06-08_17-46-11_094959634447_rgbf000091-resize_4-target.png,1000,1.6909999999999998,5,4133,1007,meters,jsons/v1_VE1000_randls_10_rotated.json,700396,852211,29,Man
156,130344,DepthScenes,duration_manipulation_targetAtFixation,jsons/v1_VE1000_randls_10_rotated.json,http://54.235.29.9/FacialAge/BNav_EC2/DepthDuration/v2_depth_duration_MTurk/v2_DepthDuration_HTML.html#95,95,1350,608,1366,768,8-22-2022,12-59-38,157,depth_duration_stimuli/000549_2014-06-08_22-10-24_260595134347_rgbf000247-resize_3/000549_2014-06-08_22-10-24_260595134347_rgbf000247-resize_3-target.png,1000,1.841,1,3303,1017,meters,jsons/v1_VE1000_randls_10_rotated.json,700396,852211,29,Man
157,130344,DepthScenes,duration_manipulation_targetAtFixation,jsons/v1_VE1000_randls_10_rotated.json,http://54.235.29.9/FacialAge/BNav_EC2/DepthDuration/v2_depth_duration_MTurk/v2_DepthDuration_HTML.html#95,95,1350,608,1366,768,8-22-2022,12-59-38,158,depth_duration_stimuli/001055_2014-06-08_18-45-35_260595134347_rgbf000111-resize_4/001055_2014-06-08_18-45-35_260595134347_rgbf000111-resize_4-target.png,1000,2.4290000000000003,2,5662,995,meters,jsons/v1_VE1000_randls_10_rotated.json,700396,852211,29,Man
158,130344,DepthScenes,duration_manipulation_targetAtFixation,jsons/v1_VE1000_randls_10_rotated.json,http://54.235.29.9/FacialAge/BNav_EC2/DepthDuration/v2_depth_duration_MTurk/v2_DepthDuration_HTML.html#95,95,1350,608,1366,768,8-22-2022,12-59-38,159,depth_duration_stimuli/002949_2014-06-26_15-57-42_094959634447_rgbf000079-resize_1/002949_2014-06-26_15-57-42_094959634447_rgbf000079-resize_1-target.png,1000,1.8915,2,3645,1002,meters,jsons/v1_VE1000_randls_10_rotated.json,700396,852211,29,Man
159,130344,DepthScenes,duration_manipulation_targetAtFixation,jsons/v1_VE1000_randls_10_rotated.json,http://54.235.29.9/FacialAge/BNav_EC2/DepthDuration/v2_depth_duration_MTurk/v2_DepthDuration_HTML.html#95,95,1350,608,1366,768,8-22-2022,12-59-38,160,depth_duration_stimuli/000522_2014-06-08_13-35-06_260595134347_rgbf000244-resize_1/000522_2014-06-08_13-35-06_260595134347_rgbf000244-resize_1-target.png,1000,2.3715,3,2929,999,meters,jsons/v1_VE1000_randls_10_rotated.json,700396,852211,29,Man
160,130344,DepthScenes,duration_manipulation_targetAtFixation,jsons/v1_VE1000_randls_10_rotated.json,http://54.235.29.9/FacialAge/BNav_EC2/DepthDuration/v2_depth_duration_MTurk/v2_DepthDuration_HTML.html#95,95,1350,608,1366,768,8-22-2022,12-59-38,161,depth_duration_stimuli/001132_2014-06-17_14-48-54_260595134347_rgbf000100-resize_2/001132_2014-06-17_14-48-54_260595134347_rgbf000100-resize_2-target.png,1000,3.753,4,3516,952,meters,jsons/v1_VE1000_randls_10_rotated.json,700396,852211,29,Man
161,130344,DepthScenes,duration_manipulation_targetAtFixation,jsons/v1_VE1000_randls_10_rotated.json,http://54.235.29.9/FacialAge/BNav_EC2/DepthDuration/v2_depth_duration_MTurk/v2_DepthDuration_HTML.html#95,95,1350,608,1366,768,8-22-2022,12-59-38,162,depth_duration_stimuli/001133_2014-06-17_14-49-16_260595134347_rgbf000100-resize_0/001133_2014-06-17_14-49-16_260595134347_rgbf000100-resize_0-target.png,1000,4.2115,5,3547,1049,meters,jsons/v1_VE1000_randls_10_rotated.json,700396,852211,29,Man
162,130344,DepthScenes,duration_manipulation_targetAtFixation,jsons/v1_VE1000_randls_10_rotated.json,http://54.235.29.9/FacialAge/BNav_EC2/DepthDuration/v2_depth_duration_MTurk/v2_DepthDuration_HTML.html#95,95,1350,608,1366,768,8-22-2022,12-59-38,163,depth_duration_stimuli/002323_2014-06-28_20-01-54_260595134347_rgbf000051-resize_4/002323_2014-06-28_20-01-54_260595134347_rgbf000051-resize_4-target.png,1000,3.7310000000000003,6,3329,997,meters,jsons/v1_VE1000_randls_10_rotated.json,700396,852211,29,Man
163,130344,DepthScenes,duration_manipulation_targetAtFixation,jsons/v1_VE1000_randls_10_rotated.json,http://54.235.29.9/FacialAge/BNav_EC2/DepthDuration/v2_depth_duration_MTurk/v2_DepthDuration_HTML.html#95,95,1350,608,1366,768,8-22-2022,12-59-38,164,depth_duration_stimuli/000917_2014-06-09_22-45-29_260595134347_rgbf000149-resize_3/000917_2014-06-09_22-45-29_260595134347_rgbf000149-resize_3-target.png,1000,4.1865,7,3086,1005,meters,jsons/v1_VE1000_randls_10_rotated.json,700396,852211,29,Man
