,subjID,experimentName,versionName,sequenceName,url,selected_row,windowWidth,windowHeight,screenWidth,screenHeight,startDate,startTime,trial,stimulus,duration,actual_depth,depth_estimate,trial_RT,log_sceneDuration,unitSelection,seq_filepath,experimentTime,totalTime,age,gender
0,130543,DepthScenes,duration_manipulation_targetAtFixation,jsons/v1_VE250_randls_26.json,http://54.235.29.9/FacialAge/BNav_EC2/DepthDuration/v2_depth_duration_MTurk/v2_DepthDuration_HTML.html#286,286,1366,657,1366,768,9-18-2022,13-12-35,1,depth_duration_stimuli/000810_2014-06-08_17-20-01_260595134347_rgbf000105-resize_0/000810_2014-06-08_17-20-01_260595134347_rgbf000105-resize_0-target.png,250,1.4865,1,3783,233,meters,jsons/v1_VE250_randls_26.json,854001,1307146,24,Woman
1,130543,DepthScenes,duration_manipulation_targetAtFixation,jsons/v1_VE250_randls_26.json,http://54.235.29.9/FacialAge/BNav_EC2/DepthDuration/v2_depth_duration_MTurk/v2_DepthDuration_HTML.html#286,286,1366,657,1366,768,9-18-2022,13-12-35,2,depth_duration_stimuli/001214_2014-06-17_16-13-55_260595134347_rgbf000111-resize_0/001214_2014-06-17_16-13-55_260595134347_rgbf000111-resize_0-target.png,250,2.6505,1,3579,245,meters,jsons/v1_VE250_randls_26.json,854001,1307146,24,Woman
2,130543,DepthScenes,duration_manipulation_targetAtFixation,jsons/v1_VE250_randls_26.json,http://54.235.29.9/FacialAge/BNav_EC2/DepthDuration/v2_depth_duration_MTurk/v2_DepthDuration_HTML.html#286,286,1366,657,1366,768,9-18-2022,13-12-35,3,depth_duration_stimuli/002213_2014-06-28_18-37-58_260595134347_rgbf000055-resize_1/002213_2014-06-28_18-37-58_260595134347_rgbf000055-resize_1-target.png,250,3.62,1,3932,242,meters,jsons/v1_VE250_randls_26.json,854001,1307146,24,Woman
3,130543,DepthScenes,duration_manipulation_targetAtFixation,jsons/v1_VE250_randls_26.json,http://54.235.29.9/FacialAge/BNav_EC2/DepthDuration/v2_depth_duration_MTurk/v2_DepthDuration_HTML.html#286,286,1366,657,1366,768,9-18-2022,13-12-35,4,depth_duration_stimuli/000691_2014-06-08_13-08-50_260595134347_rgbf000132-resize_3/000691_2014-06-08_13-08-50_260595134347_rgbf000132-resize_3-target.png,250,4.1530000000000005,1,3522,243,meters,jsons/v1_VE250_randls_26.json,854001,1307146,24,Woman
4,130543,DepthScenes,duration_manipulation_targetAtFixation,jsons/v1_VE250_randls_26.json,http://54.235.29.9/FacialAge/BNav_EC2/DepthDuration/v2_depth_duration_MTurk/v2_DepthDuration_HTML.html#286,286,1366,657,1366,768,9-18-2022,13-12-35,5,depth_duration_stimuli/002989_2014-06-15_12-25-03_094959634447_rgbf000150-resize_3/002989_2014-06-15_12-25-03_094959634447_rgbf000150-resize_3-target.png,250,4.1975,1,5648,248,meters,jsons/v1_VE250_randls_26.json,854001,1307146,24,Woman
5,130543,DepthScenes,duration_manipulation_targetAtFixation,jsons/v1_VE250_randls_26.json,http://54.235.29.9/FacialAge/BNav_EC2/DepthDuration/v2_depth_duration_MTurk/v2_DepthDuration_HTML.html#286,286,1366,657,1366,768,9-18-2022,13-12-35,6,depth_duration_stimuli/000866_2014-06-09_20-45-42_260595134347_rgbf000139-resize_1/000866_2014-06-09_20-45-42_260595134347_rgbf000139-resize_1-target.png,250,3.2155,0,3976,246,meters,jsons/v1_VE250_randls_26.json,854001,1307146,24,Woman
6,130543,DepthScenes,duration_manipulation_targetAtFixation,jsons/v1_VE250_randls_26.json,http://54.235.29.9/FacialAge/BNav_EC2/DepthDuration/v2_depth_duration_MTurk/v2_DepthDuration_HTML.html#286,286,1366,657,1366,768,9-18-2022,13-12-35,7,depth_duration_stimuli/002043_2014-06-24_20-29-38_260595134347_rgbf000039-resize_4/002043_2014-06-24_20-29-38_260595134347_rgbf000039-resize_4-target.png,250,2.8435,1,3786,250,meters,jsons/v1_VE250_randls_26.json,854001,1307146,24,Woman
7,130543,DepthScenes,duration_manipulation_targetAtFixation,jsons/v1_VE250_randls_26.json,http://54.235.29.9/FacialAge/BNav_EC2/DepthDuration/v2_depth_duration_MTurk/v2_DepthDuration_HTML.html#286,286,1366,657,1366,768,9-18-2022,13-12-35,8,depth_duration_stimuli/003048_2014-06-15_13-49-43_094959634447_rgbf000150-resize_1/003048_2014-06-15_13-49-43_094959634447_rgbf000150-resize_1-target.png,250,4.0035,0,5177,251,meters,jsons/v1_VE250_randls_26.json,854001,1307146,24,Woman
8,130543,DepthScenes,duration_manipulation_targetAtFixation,jsons/v1_VE250_randls_26.json,http://54.235.29.9/FacialAge/BNav_EC2/DepthDuration/v2_depth_duration_MTurk/v2_DepthDuration_HTML.html#286,286,1366,657,1366,768,9-18-2022,13-12-35,9,depth_duration_stimuli/001110_2014-06-15_17-25-28_260595134347_rgbf000150-resize_1/001110_2014-06-15_17-25-28_260595134347_rgbf000150-resize_1-target.png,250,1.7115,1,5218,256,meters,jsons/v1_VE250_randls_26.json,854001,1307146,24,Woman
9,130543,DepthScenes,duration_manipulation_targetAtFixation,jsons/v1_VE250_randls_26.json,http://54.235.29.9/FacialAge/BNav_EC2/DepthDuration/v2_depth_duration_MTurk/v2_DepthDuration_HTML.html#286,286,1366,657,1366,768,9-18-2022,13-12-35,10,depth_duration_stimuli/000927_2014-06-09_16-32-30_260595134347_rgbf000123-resize_3/000927_2014-06-09_16-32-30_260595134347_rgbf000123-resize_3-target.png,250,2.6785,1,4798,242,meters,jsons/v1_VE250_randls_26.json,854001,1307146,24,Woman
10,130543,DepthScenes,duration_manipulation_targetAtFixation,jsons/v1_VE250_randls_26.json,http://54.235.29.9/FacialAge/BNav_EC2/DepthDuration/v2_depth_duration_MTurk/v2_DepthDuration_HTML.html#286,286,1366,657,1366,768,9-18-2022,13-12-35,11,depth_duration_stimuli/000436_2014-06-09_22-25-11_260595134347_rgbf000137-resize_1/000436_2014-06-09_22-25-11_260595134347_rgbf000137-resize_1-target.png,250,4.0705,1,4087,247,meters,jsons/v1_VE250_randls_26.json,854001,1307146,24,Woman
11,130543,DepthScenes,duration_manipulation_targetAtFixation,jsons/v1_VE250_randls_26.json,http://54.235.29.9/FacialAge/BNav_EC2/DepthDuration/v2_depth_duration_MTurk/v2_DepthDuration_HTML.html#286,286,1366,657,1366,768,9-18-2022,13-12-35,12,depth_duration_stimuli/002444_2014-06-28_20-32-08_260595134347_rgbf000027-resize_0/002444_2014-06-28_20-32-08_260595134347_rgbf000027-resize_0-target.png,250,4.388999999999999,1,4809,249,meters,jsons/v1_VE250_randls_26.json,854001,1307146,24,Woman
12,130543,DepthScenes,duration_manipulation_targetAtFixation,jsons/v1_VE250_randls_26.json,http://54.235.29.9/FacialAge/BNav_EC2/DepthDuration/v2_depth_duration_MTurk/v2_DepthDuration_HTML.html#286,286,1366,657,1366,768,9-18-2022,13-12-35,13,depth_duration_stimuli/000569_2014-06-09_22-51-47_260595134347_rgbf000141-resize_3/000569_2014-06-09_22-51-47_260595134347_rgbf000141-resize-original.jpg,250,4.512,0,3302,247,meters,jsons/v1_VE250_randls_26.json,854001,1307146,24,Woman
13,130543,DepthScenes,duration_manipulation_targetAtFixation,jsons/v1_VE250_randls_26.json,http://54.235.29.9/FacialAge/BNav_EC2/DepthDuration/v2_depth_duration_MTurk/v2_DepthDuration_HTML.html#286,286,1366,657,1366,768,9-18-2022,13-12-35,14,depth_duration_stimuli/000493_2014-06-09_21-01-18_260595134347_rgbf000196-resize_3/000493_2014-06-09_21-01-18_260595134347_rgbf000196-resize_3-target.png,250,3.44,1,3473,245,meters,jsons/v1_VE250_randls_26.json,854001,1307146,24,Woman
14,130543,DepthScenes,duration_manipulation_targetAtFixation,jsons/v1_VE250_randls_26.json,http://54.235.29.9/FacialAge/BNav_EC2/DepthDuration/v2_depth_duration_MTurk/v2_DepthDuration_HTML.html#286,286,1366,657,1366,768,9-18-2022,13-12-35,15,depth_duration_stimuli/000191_2014-05-12_17-07-38_260595134347_rgbf000199-resize_0/000191_2014-05-12_17-07-38_260595134347_rgbf000199-resize_0-target.png,250,3.7995,0,3753,245,meters,jsons/v1_VE250_randls_26.json,854001,1307146,24,Woman
15,130543,DepthScenes,duration_manipulation_targetAtFixation,jsons/v1_VE250_randls_26.json,http://54.235.29.9/FacialAge/BNav_EC2/DepthDuration/v2_depth_duration_MTurk/v2_DepthDuration_HTML.html#286,286,1366,657,1366,768,9-18-2022,13-12-35,16,depth_duration_stimuli/000878_2014-06-08_22-52-45_260595134347_rgbf000045-resize_2/000878_2014-06-08_22-52-45_260595134347_rgbf000045-resize_2-target.png,250,2.092,1,3432,248,meters,jsons/v1_VE250_randls_26.json,854001,1307146,24,Woman
16,130543,DepthScenes,duration_manipulation_targetAtFixation,jsons/v1_VE250_randls_26.json,http://54.235.29.9/FacialAge/BNav_EC2/DepthDuration/v2_depth_duration_MTurk/v2_DepthDuration_HTML.html#286,286,1366,657,1366,768,9-18-2022,13-12-35,17,depth_duration_stimuli/002953_2014-06-08_17-32-18_094959634447_rgbf000059-resize_5/002953_2014-06-08_17-32-18_094959634447_rgbf000059-resize_5-target.png,250,1.551,1,4513,239,meters,jsons/v1_VE250_randls_26.json,854001,1307146,24,Woman
17,130543,DepthScenes,duration_manipulation_targetAtFixation,jsons/v1_VE250_randls_26.json,http://54.235.29.9/FacialAge/BNav_EC2/DepthDuration/v2_depth_duration_MTurk/v2_DepthDuration_HTML.html#286,286,1366,657,1366,768,9-18-2022,13-12-35,18,depth_duration_stimuli/000929_2014-06-09_16-33-19_260595134347_rgbf000139-resize_0/000929_2014-06-09_16-33-19_260595134347_rgbf000139-resize_0-target.png,250,2.8680000000000003,1,3247,249,meters,jsons/v1_VE250_randls_26.json,854001,1307146,24,Woman
18,130543,DepthScenes,duration_manipulation_targetAtFixation,jsons/v1_VE250_randls_26.json,http://54.235.29.9/FacialAge/BNav_EC2/DepthDuration/v2_depth_duration_MTurk/v2_DepthDuration_HTML.html#286,286,1366,657,1366,768,9-18-2022,13-12-35,19,depth_duration_stimuli/000457_2014-06-08_16-52-43_260595134347_rgbf000199-resize_1/000457_2014-06-08_16-52-43_260595134347_rgbf000199-resize_1-target.png,250,3.6489999999999996,1,3285,280,meters,jsons/v1_VE250_randls_26.json,854001,1307146,24,Woman
19,130543,DepthScenes,duration_manipulation_targetAtFixation,jsons/v1_VE250_randls_26.json,http://54.235.29.9/FacialAge/BNav_EC2/DepthDuration/v2_depth_duration_MTurk/v2_DepthDuration_HTML.html#286,286,1366,657,1366,768,9-18-2022,13-12-35,20,depth_duration_stimuli/002630_2014-06-24_14-47-50_094959634447_rgbf000055-resize_1/002630_2014-06-24_14-47-50_094959634447_rgbf000055-resize_1-target.png,250,3.0095,0,3901,151,meters,jsons/v1_VE250_randls_26.json,854001,1307146,24,Woman
20,130543,DepthScenes,duration_manipulation_targetAtFixation,jsons/v1_VE250_randls_26.json,http://54.235.29.9/FacialAge/BNav_EC2/DepthDuration/v2_depth_duration_MTurk/v2_DepthDuration_HTML.html#286,286,1366,657,1366,768,9-18-2022,13-12-35,21,depth_duration_stimuli/002758_2014-06-22_19-11-20_094959634447_rgbf000128-resize_1/002758_2014-06-22_19-11-20_094959634447_rgbf000128-resize_1-target.png,250,2.555,1,3309,277,meters,jsons/v1_VE250_randls_26.json,854001,1307146,24,Woman
21,130543,DepthScenes,duration_manipulation_targetAtFixation,jsons/v1_VE250_randls_26.json,http://54.235.29.9/FacialAge/BNav_EC2/DepthDuration/v2_depth_duration_MTurk/v2_DepthDuration_HTML.html#286,286,1366,657,1366,768,9-18-2022,13-12-35,22,depth_duration_stimuli/000368_2014-06-09_15-53-01_260595134347_rgbf000155-resize_2/000368_2014-06-09_15-53-01_260595134347_rgbf000155-resize_2-target.png,250,2.4859999999999998,1,3548,220,meters,jsons/v1_VE250_randls_26.json,854001,1307146,24,Woman
22,130543,DepthScenes,duration_manipulation_targetAtFixation,jsons/v1_VE250_randls_26.json,http://54.235.29.9/FacialAge/BNav_EC2/DepthDuration/v2_depth_duration_MTurk/v2_DepthDuration_HTML.html#286,286,1366,657,1366,768,9-18-2022,13-12-35,23,depth_duration_stimuli/002678_2014-06-13_16-15-32_094959634447_rgbf000151-resize_6/002678_2014-06-13_16-15-32_094959634447_rgbf000151-resize_6-target.png,250,2.1830000000000003,1,3617,212,meters,jsons/v1_VE250_randls_26.json,854001,1307146,24,Woman
23,130543,DepthScenes,duration_manipulation_targetAtFixation,jsons/v1_VE250_randls_26.json,http://54.235.29.9/FacialAge/BNav_EC2/DepthDuration/v2_depth_duration_MTurk/v2_DepthDuration_HTML.html#286,286,1366,657,1366,768,9-18-2022,13-12-35,24,depth_duration_stimuli/002784_2014-06-22_19-26-30_094959634447_rgbf000083-resize_3/002784_2014-06-22_19-26-30_094959634447_rgbf000083-resize_3-target.png,250,1.8046666666667,1,3210,252,meters,jsons/v1_VE250_randls_26.json,854001,1307146,24,Woman
24,130543,DepthScenes,duration_manipulation_targetAtFixation,jsons/v1_VE250_randls_26.json,http://54.235.29.9/FacialAge/BNav_EC2/DepthDuration/v2_depth_duration_MTurk/v2_DepthDuration_HTML.html#286,286,1366,657,1366,768,9-18-2022,13-12-35,25,depth_duration_stimuli/001100_2014-06-15_17-46-26_260595134347_rgbf000225-resize_2/001100_2014-06-15_17-46-26_260595134347_rgbf000225-resize_2-target.png,250,2.24,1,3120,251,meters,jsons/v1_VE250_randls_26.json,854001,1307146,24,Woman
25,130543,DepthScenes,duration_manipulation_targetAtFixation,jsons/v1_VE250_randls_26.json,http://54.235.29.9/FacialAge/BNav_EC2/DepthDuration/v2_depth_duration_MTurk/v2_DepthDuration_HTML.html#286,286,1366,657,1366,768,9-18-2022,13-12-35,26,depth_duration_stimuli/001150_2014-06-17_15-27-34_260595134347_rgbf000108-resize_2/001150_2014-06-17_15-27-34_260595134347_rgbf000108-resize_2-target.png,250,4.0325,1,5809,249,meters,jsons/v1_VE250_randls_26.json,854001,1307146,24,Woman
26,130543,DepthScenes,duration_manipulation_targetAtFixation,jsons/v1_VE250_randls_26.json,http://54.235.29.9/FacialAge/BNav_EC2/DepthDuration/v2_depth_duration_MTurk/v2_DepthDuration_HTML.html#286,286,1366,657,1366,768,9-18-2022,13-12-35,27,depth_duration_stimuli/000665_2014-06-09_20-42-35_260595134347_rgbf000110-resize_1/000665_2014-06-09_20-42-35_260595134347_rgbf000110-resize_1-target.png,250,3.057,1,4885,255,meters,jsons/v1_VE250_randls_26.json,854001,1307146,24,Woman
27,130543,DepthScenes,duration_manipulation_targetAtFixation,jsons/v1_VE250_randls_26.json,http://54.235.29.9/FacialAge/BNav_EC2/DepthDuration/v2_depth_duration_MTurk/v2_DepthDuration_HTML.html#286,286,1366,657,1366,768,9-18-2022,13-12-35,28,depth_duration_stimuli/001158_2014-06-17_15-32-16_260595134347_rgbf000138-resize_2/001158_2014-06-17_15-32-16_260595134347_rgbf000138-resize_2-target.png,250,4.5315,1,4017,266,meters,jsons/v1_VE250_randls_26.json,854001,1307146,24,Woman
28,130543,DepthScenes,duration_manipulation_targetAtFixation,jsons/v1_VE250_randls_26.json,http://54.235.29.9/FacialAge/BNav_EC2/DepthDuration/v2_depth_duration_MTurk/v2_DepthDuration_HTML.html#286,286,1366,657,1366,768,9-18-2022,13-12-35,29,depth_duration_stimuli/000556_2014-06-09_22-42-56_260595134347_rgbf000214-resize_1/000556_2014-06-09_22-42-56_260595134347_rgbf000214-resize_1-target.png,250,4.8415,1,3939,234,meters,jsons/v1_VE250_randls_26.json,854001,1307146,24,Woman
29,130543,DepthScenes,duration_manipulation_targetAtFixation,jsons/v1_VE250_randls_26.json,http://54.235.29.9/FacialAge/BNav_EC2/DepthDuration/v2_depth_duration_MTurk/v2_DepthDuration_HTML.html#286,286,1366,657,1366,768,9-18-2022,13-12-35,30,depth_duration_stimuli/000375_2014-06-08_11-17-29_260595134347_rgbf000133-resize_2/000375_2014-06-08_11-17-29_260595134347_rgbf000133-resize-original.jpg,250,4.718,0,3560,241,meters,jsons/v1_VE250_randls_26.json,854001,1307146,24,Woman
30,130543,DepthScenes,duration_manipulation_targetAtFixation,jsons/v1_VE250_randls_26.json,http://54.235.29.9/FacialAge/BNav_EC2/DepthDuration/v2_depth_duration_MTurk/v2_DepthDuration_HTML.html#286,286,1366,657,1366,768,9-18-2022,13-12-35,31,depth_duration_stimuli/002445_2014-06-28_20-32-16_260595134347_rgbf000029-resize_4/002445_2014-06-28_20-32-16_260595134347_rgbf000029-resize_4-target.png,250,2.5315,1,3831,219,meters,jsons/v1_VE250_randls_26.json,854001,1307146,24,Woman
31,130543,DepthScenes,duration_manipulation_targetAtFixation,jsons/v1_VE250_randls_26.json,http://54.235.29.9/FacialAge/BNav_EC2/DepthDuration/v2_depth_duration_MTurk/v2_DepthDuration_HTML.html#286,286,1366,657,1366,768,9-18-2022,13-12-35,32,depth_duration_stimuli/000780_2014-06-08_22-28-29_260595134347_rgbf000126-resize_1/000780_2014-06-08_22-28-29_260595134347_rgbf000126-resize_1-target.png,250,3.3825,1,3141,259,meters,jsons/v1_VE250_randls_26.json,854001,1307146,24,Woman
32,130543,DepthScenes,duration_manipulation_targetAtFixation,jsons/v1_VE250_randls_26.json,http://54.235.29.9/FacialAge/BNav_EC2/DepthDuration/v2_depth_duration_MTurk/v2_DepthDuration_HTML.html#286,286,1366,657,1366,768,9-18-2022,13-12-35,33,depth_duration_stimuli/002788_2014-06-22_19-36-03_094959634447_rgbf000088-resize_2/002788_2014-06-22_19-36-03_094959634447_rgbf000088-resize_2-target.png,250,1.6465,1,3565,237,meters,jsons/v1_VE250_randls_26.json,854001,1307146,24,Woman
33,130543,DepthScenes,duration_manipulation_targetAtFixation,jsons/v1_VE250_randls_26.json,http://54.235.29.9/FacialAge/BNav_EC2/DepthDuration/v2_depth_duration_MTurk/v2_DepthDuration_HTML.html#286,286,1366,657,1366,768,9-18-2022,13-12-35,34,depth_duration_stimuli/000749_2014-06-08_21-55-06_260595134347_rgbf000070-resize_2/000749_2014-06-08_21-55-06_260595134347_rgbf000070-resize_2-target.png,250,2.331,1,4811,261,meters,jsons/v1_VE250_randls_26.json,854001,1307146,24,Woman
34,130543,DepthScenes,duration_manipulation_targetAtFixation,jsons/v1_VE250_randls_26.json,http://54.235.29.9/FacialAge/BNav_EC2/DepthDuration/v2_depth_duration_MTurk/v2_DepthDuration_HTML.html#286,286,1366,657,1366,768,9-18-2022,13-12-35,35,depth_duration_stimuli/002057_2014-06-24_21-00-13_260595134347_rgbf000120-resize_1/002057_2014-06-24_21-00-13_260595134347_rgbf000120-resize_1-target.png,250,2.967,1,4327,243,meters,jsons/v1_VE250_randls_26.json,854001,1307146,24,Woman
35,130543,DepthScenes,duration_manipulation_targetAtFixation,jsons/v1_VE250_randls_26.json,http://54.235.29.9/FacialAge/BNav_EC2/DepthDuration/v2_depth_duration_MTurk/v2_DepthDuration_HTML.html#286,286,1366,657,1366,768,9-18-2022,13-12-35,36,depth_duration_stimuli/000709_2014-06-08_13-51-55_260595134347_rgbf000068-resize_3/000709_2014-06-08_13-51-55_260595134347_rgbf000068-resize_3-target.png,250,1.8030000000000002,0,4346,103,meters,jsons/v1_VE250_randls_26.json,854001,1307146,24,Woman
36,130543,DepthScenes,duration_manipulation_targetAtFixation,jsons/v1_VE250_randls_26.json,http://54.235.29.9/FacialAge/BNav_EC2/DepthDuration/v2_depth_duration_MTurk/v2_DepthDuration_HTML.html#286,286,1366,657,1366,768,9-18-2022,13-12-35,37,depth_duration_stimuli/000906_2014-06-08_13-35-43_260595134347_rgbf000155-resize_1/000906_2014-06-08_13-35-43_260595134347_rgbf000155-resize_1-target.png,250,2.8489999999999998,1,3291,248,meters,jsons/v1_VE250_randls_26.json,854001,1307146,24,Woman
37,130543,DepthScenes,duration_manipulation_targetAtFixation,jsons/v1_VE250_randls_26.json,http://54.235.29.9/FacialAge/BNav_EC2/DepthDuration/v2_depth_duration_MTurk/v2_DepthDuration_HTML.html#286,286,1366,657,1366,768,9-18-2022,13-12-35,38,depth_duration_stimuli/002805_2014-06-22_19-54-03_094959634447_rgbf000079-resize_1/002805_2014-06-22_19-54-03_094959634447_rgbf000079-resize_1-target.png,250,3.1439999999999997,0,3691,240,meters,jsons/v1_VE250_randls_26.json,854001,1307146,24,Woman
38,130543,DepthScenes,duration_manipulation_targetAtFixation,jsons/v1_VE250_randls_26.json,http://54.235.29.9/FacialAge/BNav_EC2/DepthDuration/v2_depth_duration_MTurk/v2_DepthDuration_HTML.html#286,286,1366,657,1366,768,9-18-2022,13-12-35,39,depth_duration_stimuli/002725_2014-06-22_11-47-51_094959634447_rgbf000070-resize_1/002725_2014-06-22_11-47-51_094959634447_rgbf000070-resize_1-target.png,250,2.195,1,4518,238,meters,jsons/v1_VE250_randls_26.json,854001,1307146,24,Woman
39,130543,DepthScenes,duration_manipulation_targetAtFixation,jsons/v1_VE250_randls_26.json,http://54.235.29.9/FacialAge/BNav_EC2/DepthDuration/v2_depth_duration_MTurk/v2_DepthDuration_HTML.html#286,286,1366,657,1366,768,9-18-2022,13-12-35,40,depth_duration_stimuli/002344_2014-06-28_20-06-29_260595134347_rgbf000030-resize_1/002344_2014-06-28_20-06-29_260595134347_rgbf000030-resize_1-target.png,250,1.5795,1,4866,243,meters,jsons/v1_VE250_randls_26.json,854001,1307146,24,Woman
40,130543,DepthScenes,duration_manipulation_targetAtFixation,jsons/v1_VE250_randls_26.json,http://54.235.29.9/FacialAge/BNav_EC2/DepthDuration/v2_depth_duration_MTurk/v2_DepthDuration_HTML.html#286,286,1366,657,1366,768,9-18-2022,13-12-35,41,depth_duration_stimuli/002549_2014-06-24_13-41-39_094959634447_rgbf000022-resize_3/002549_2014-06-24_13-41-39_094959634447_rgbf000022-resize_3-target.png,250,1.476,1,4048,232,meters,jsons/v1_VE250_randls_26.json,854001,1307146,24,Woman
41,130543,DepthScenes,duration_manipulation_targetAtFixation,jsons/v1_VE250_randls_26.json,http://54.235.29.9/FacialAge/BNav_EC2/DepthDuration/v2_depth_duration_MTurk/v2_DepthDuration_HTML.html#286,286,1366,657,1366,768,9-18-2022,13-12-35,42,depth_duration_stimuli/002750_2014-06-22_19-08-03_094959634447_rgbf000094-resize_4/002750_2014-06-22_19-08-03_094959634447_rgbf000094-resize_4-target.png,250,2.354,0,5532,240,meters,jsons/v1_VE250_randls_26.json,854001,1307146,24,Woman
42,130543,DepthScenes,duration_manipulation_targetAtFixation,jsons/v1_VE250_randls_26.json,http://54.235.29.9/FacialAge/BNav_EC2/DepthDuration/v2_depth_duration_MTurk/v2_DepthDuration_HTML.html#286,286,1366,657,1366,768,9-18-2022,13-12-35,43,depth_duration_stimuli/003070_2014-06-15_14-58-27_094959634447_rgbf000150-resize_3/003070_2014-06-15_14-58-27_094959634447_rgbf000150-resize_3-target.png,250,2.9415,1,5417,233,meters,jsons/v1_VE250_randls_26.json,854001,1307146,24,Woman
43,130543,DepthScenes,duration_manipulation_targetAtFixation,jsons/v1_VE250_randls_26.json,http://54.235.29.9/FacialAge/BNav_EC2/DepthDuration/v2_depth_duration_MTurk/v2_DepthDuration_HTML.html#286,286,1366,657,1366,768,9-18-2022,13-12-35,44,depth_duration_stimuli/000943_2014-06-09_19-31-07_260595134347_rgbf000128-resize_1/000943_2014-06-09_19-31-07_260595134347_rgbf000128-resize_1-target.png,250,1.9765,0,4400,239,meters,jsons/v1_VE250_randls_26.json,854001,1307146,24,Woman
44,130543,DepthScenes,duration_manipulation_targetAtFixation,jsons/v1_VE250_randls_26.json,http://54.235.29.9/FacialAge/BNav_EC2/DepthDuration/v2_depth_duration_MTurk/v2_DepthDuration_HTML.html#286,286,1366,657,1366,768,9-18-2022,13-12-35,45,depth_duration_stimuli/000787_2014-06-08_22-33-53_260595134347_rgbf000175-resize_1/000787_2014-06-08_22-33-53_260595134347_rgbf000175-resize-original.jpg,250,4.784,0,5686,242,meters,jsons/v1_VE250_randls_26.json,854001,1307146,24,Woman
45,130543,DepthScenes,duration_manipulation_targetAtFixation,jsons/v1_VE250_randls_26.json,http://54.235.29.9/FacialAge/BNav_EC2/DepthDuration/v2_depth_duration_MTurk/v2_DepthDuration_HTML.html#286,286,1366,657,1366,768,9-18-2022,13-12-35,46,depth_duration_stimuli/001555_2014-06-20_17-12-10_260595134347_rgbf000065-resize_4/001555_2014-06-20_17-12-10_260595134347_rgbf000065-resize_4-target.png,250,1.633,1,4608,248,meters,jsons/v1_VE250_randls_26.json,854001,1307146,24,Woman
46,130543,DepthScenes,duration_manipulation_targetAtFixation,jsons/v1_VE250_randls_26.json,http://54.235.29.9/FacialAge/BNav_EC2/DepthDuration/v2_depth_duration_MTurk/v2_DepthDuration_HTML.html#286,286,1366,657,1366,768,9-18-2022,13-12-35,47,depth_duration_stimuli/000103_2014-05-14_22-01-17_260595134347_rgbf000152-resize_5/000103_2014-05-14_22-01-17_260595134347_rgbf000152-resize_5-target.png,250,1.993,1,5652,250,meters,jsons/v1_VE250_randls_26.json,854001,1307146,24,Woman
47,130543,DepthScenes,duration_manipulation_targetAtFixation,jsons/v1_VE250_randls_26.json,http://54.235.29.9/FacialAge/BNav_EC2/DepthDuration/v2_depth_duration_MTurk/v2_DepthDuration_HTML.html#286,286,1366,657,1366,768,9-18-2022,13-12-35,48,depth_duration_stimuli/002600_2014-06-24_14-27-04_094959634447_rgbf000074-resize_2/002600_2014-06-24_14-27-04_094959634447_rgbf000074-resize_2-target.png,250,2.7575,1,5449,248,meters,jsons/v1_VE250_randls_26.json,854001,1307146,24,Woman
48,130543,DepthScenes,duration_manipulation_targetAtFixation,jsons/v1_VE250_randls_26.json,http://54.235.29.9/FacialAge/BNav_EC2/DepthDuration/v2_depth_duration_MTurk/v2_DepthDuration_HTML.html#286,286,1366,657,1366,768,9-18-2022,13-12-35,49,depth_duration_stimuli/003228_2014-05-14_13-42-35_094959634447_rgbf000101-resize_1/003228_2014-05-14_13-42-35_094959634447_rgbf000101-resize_1-target.png,250,1.9680000000000002,1,4407,251,meters,jsons/v1_VE250_randls_26.json,854001,1307146,24,Woman
49,130543,DepthScenes,duration_manipulation_targetAtFixation,jsons/v1_VE250_randls_26.json,http://54.235.29.9/FacialAge/BNav_EC2/DepthDuration/v2_depth_duration_MTurk/v2_DepthDuration_HTML.html#286,286,1366,657,1366,768,9-18-2022,13-12-35,50,depth_duration_stimuli/002663_2014-06-13_15-50-26_094959634447_rgbf000075-resize_1/002663_2014-06-13_15-50-26_094959634447_rgbf000075-resize_1-target.png,250,4.7495,1,4592,235,meters,jsons/v1_VE250_randls_26.json,854001,1307146,24,Woman
50,130543,DepthScenes,duration_manipulation_targetAtFixation,jsons/v1_VE250_randls_26.json,http://54.235.29.9/FacialAge/BNav_EC2/DepthDuration/v2_depth_duration_MTurk/v2_DepthDuration_HTML.html#286,286,1366,657,1366,768,9-18-2022,13-12-35,51,depth_duration_stimuli/000409_2014-06-04_19-23-33_260595134347_rgbf000067-resize_0/000409_2014-06-04_19-23-33_260595134347_rgbf000067-resize_0-target.png,250,3.7335,1,4352,236,meters,jsons/v1_VE250_randls_26.json,854001,1307146,24,Woman
51,130543,DepthScenes,duration_manipulation_targetAtFixation,jsons/v1_VE250_randls_26.json,http://54.235.29.9/FacialAge/BNav_EC2/DepthDuration/v2_depth_duration_MTurk/v2_DepthDuration_HTML.html#286,286,1366,657,1366,768,9-18-2022,13-12-35,52,depth_duration_stimuli/000788_2014-06-08_22-34-36_260595134347_rgbf000131-resize_1/000788_2014-06-08_22-34-36_260595134347_rgbf000131-resize_1-target.png,250,3.359,1,4545,248,meters,jsons/v1_VE250_randls_26.json,854001,1307146,24,Woman
52,130543,DepthScenes,duration_manipulation_targetAtFixation,jsons/v1_VE250_randls_26.json,http://54.235.29.9/FacialAge/BNav_EC2/DepthDuration/v2_depth_duration_MTurk/v2_DepthDuration_HTML.html#286,286,1366,657,1366,768,9-18-2022,13-12-35,53,depth_duration_stimuli/001235_2014-06-17_16-37-36_260595134347_rgbf000084-resize_4/001235_2014-06-17_16-37-36_260595134347_rgbf000084-resize_4-target.png,250,3.6605,1,3972,244,meters,jsons/v1_VE250_randls_26.json,854001,1307146,24,Woman
53,130543,DepthScenes,duration_manipulation_targetAtFixation,jsons/v1_VE250_randls_26.json,http://54.235.29.9/FacialAge/BNav_EC2/DepthDuration/v2_depth_duration_MTurk/v2_DepthDuration_HTML.html#286,286,1366,657,1366,768,9-18-2022,13-12-35,54,depth_duration_stimuli/001810_2014-06-26_20-51-35_260595134347_rgbf000040-resize_3/001810_2014-06-26_20-51-35_260595134347_rgbf000040-resize_3-target.png,250,2.2525,1,3982,238,meters,jsons/v1_VE250_randls_26.json,854001,1307146,24,Woman
54,130543,DepthScenes,duration_manipulation_targetAtFixation,jsons/v1_VE250_randls_26.json,http://54.235.29.9/FacialAge/BNav_EC2/DepthDuration/v2_depth_duration_MTurk/v2_DepthDuration_HTML.html#286,286,1366,657,1366,768,9-18-2022,13-12-35,55,depth_duration_stimuli/003010_2014-06-15_12-54-35_094959634447_rgbf000112-resize_0/003010_2014-06-15_12-54-35_094959634447_rgbf000112-resize_0-target.png,250,3.1185,1,5807,252,meters,jsons/v1_VE250_randls_26.json,854001,1307146,24,Woman
55,130543,DepthScenes,duration_manipulation_targetAtFixation,jsons/v1_VE250_randls_26.json,http://54.235.29.9/FacialAge/BNav_EC2/DepthDuration/v2_depth_duration_MTurk/v2_DepthDuration_HTML.html#286,286,1366,657,1366,768,9-18-2022,13-12-35,56,depth_duration_stimuli/001570_2014-06-20_17-21-09_260595134347_rgbf000135-resize_4/001570_2014-06-20_17-21-09_260595134347_rgbf000135-resize_4-target.png,250,4.467,0,5019,259,meters,jsons/v1_VE250_randls_26.json,854001,1307146,24,Woman
56,130543,DepthScenes,duration_manipulation_targetAtFixation,jsons/v1_VE250_randls_26.json,http://54.235.29.9/FacialAge/BNav_EC2/DepthDuration/v2_depth_duration_MTurk/v2_DepthDuration_HTML.html#286,286,1366,657,1366,768,9-18-2022,13-12-35,57,depth_duration_stimuli/001392_2014-06-19_16-07-59_260595134347_rgbf000046-resize_1/001392_2014-06-19_16-07-59_260595134347_rgbf000046-resize_1-target.png,250,4.135,1,4095,212,meters,jsons/v1_VE250_randls_26.json,854001,1307146,24,Woman
57,130543,DepthScenes,duration_manipulation_targetAtFixation,jsons/v1_VE250_randls_26.json,http://54.235.29.9/FacialAge/BNav_EC2/DepthDuration/v2_depth_duration_MTurk/v2_DepthDuration_HTML.html#286,286,1366,657,1366,768,9-18-2022,13-12-35,58,depth_duration_stimuli/001133_2014-06-17_14-49-16_260595134347_rgbf000100-resize_0/001133_2014-06-17_14-49-16_260595134347_rgbf000100-resize_0-target.png,250,4.2115,1,21101,248,meters,jsons/v1_VE250_randls_26.json,854001,1307146,24,Woman
58,130543,DepthScenes,duration_manipulation_targetAtFixation,jsons/v1_VE250_randls_26.json,http://54.235.29.9/FacialAge/BNav_EC2/DepthDuration/v2_depth_duration_MTurk/v2_DepthDuration_HTML.html#286,286,1366,657,1366,768,9-18-2022,13-12-35,59,depth_duration_stimuli/001132_2014-06-17_14-48-54_260595134347_rgbf000100-resize_2/001132_2014-06-17_14-48-54_260595134347_rgbf000100-resize_2-target.png,250,3.753,1,4987,248,meters,jsons/v1_VE250_randls_26.json,854001,1307146,24,Woman
59,130543,DepthScenes,duration_manipulation_targetAtFixation,jsons/v1_VE250_randls_26.json,http://54.235.29.9/FacialAge/BNav_EC2/DepthDuration/v2_depth_duration_MTurk/v2_DepthDuration_HTML.html#286,286,1366,657,1366,768,9-18-2022,13-12-35,60,depth_duration_stimuli/002118_2014-06-25_20-32-08_260595134347_rgbf000078-resize_1/002118_2014-06-25_20-32-08_260595134347_rgbf000078-resize_1-target.png,250,2.6460000000000004,0,9504,239,meters,jsons/v1_VE250_randls_26.json,854001,1307146,24,Woman
60,130543,DepthScenes,duration_manipulation_targetAtFixation,jsons/v1_VE250_randls_26.json,http://54.235.29.9/FacialAge/BNav_EC2/DepthDuration/v2_depth_duration_MTurk/v2_DepthDuration_HTML.html#286,286,1366,657,1366,768,9-18-2022,13-12-35,61,depth_duration_stimuli/001516_2014-06-20_16-25-09_260595134347_rgbf000076-resize_2/001516_2014-06-20_16-25-09_260595134347_rgbf000076-resize_2-target.png,250,1.7445,0,5247,118,meters,jsons/v1_VE250_randls_26.json,854001,1307146,24,Woman
61,130543,DepthScenes,duration_manipulation_targetAtFixation,jsons/v1_VE250_randls_26.json,http://54.235.29.9/FacialAge/BNav_EC2/DepthDuration/v2_depth_duration_MTurk/v2_DepthDuration_HTML.html#286,286,1366,657,1366,768,9-18-2022,13-12-35,62,depth_duration_stimuli/001806_2014-06-26_20-50-20_260595134347_rgbf000091-resize_1/001806_2014-06-26_20-50-20_260595134347_rgbf000091-resize_1-target.png,250,2.7305,0,5421,250,meters,jsons/v1_VE250_randls_26.json,854001,1307146,24,Woman
62,130543,DepthScenes,duration_manipulation_targetAtFixation,jsons/v1_VE250_randls_26.json,http://54.235.29.9/FacialAge/BNav_EC2/DepthDuration/v2_depth_duration_MTurk/v2_DepthDuration_HTML.html#286,286,1366,657,1366,768,9-18-2022,13-12-35,63,depth_duration_stimuli/001617_2014-06-20_11-35-32_260595134347_rgbf000066-resize_1/001617_2014-06-20_11-35-32_260595134347_rgbf000066-resize_1-target.png,250,3.7910000000000004,1,4438,260,meters,jsons/v1_VE250_randls_26.json,854001,1307146,24,Woman
63,130543,DepthScenes,duration_manipulation_targetAtFixation,jsons/v1_VE250_randls_26.json,http://54.235.29.9/FacialAge/BNav_EC2/DepthDuration/v2_depth_duration_MTurk/v2_DepthDuration_HTML.html#286,286,1366,657,1366,768,9-18-2022,13-12-35,64,depth_duration_stimuli/001066_2014-06-08_22-03-20_260595134347_rgbf000066-resize_4/001066_2014-06-08_22-03-20_260595134347_rgbf000066-resize_4-target.png,250,4.2330000000000005,1,4831,242,meters,jsons/v1_VE250_randls_26.json,854001,1307146,24,Woman
64,130543,DepthScenes,duration_manipulation_targetAtFixation,jsons/v1_VE250_randls_26.json,http://54.235.29.9/FacialAge/BNav_EC2/DepthDuration/v2_depth_duration_MTurk/v2_DepthDuration_HTML.html#286,286,1366,657,1366,768,9-18-2022,13-12-35,65,depth_duration_stimuli/000742_2014-06-08_18-48-09_260595134347_rgbf000164-resize_4/000742_2014-06-08_18-48-09_260595134347_rgbf000164-resize_4-target.png,250,4.632,1,4709,262,meters,jsons/v1_VE250_randls_26.json,854001,1307146,24,Woman
65,130543,DepthScenes,duration_manipulation_targetAtFixation,jsons/v1_VE250_randls_26.json,http://54.235.29.9/FacialAge/BNav_EC2/DepthDuration/v2_depth_duration_MTurk/v2_DepthDuration_HTML.html#286,286,1366,657,1366,768,9-18-2022,13-12-35,66,depth_duration_stimuli/001222_2014-06-17_16-24-06_260595134347_rgbf000073-resize_0/001222_2014-06-17_16-24-06_260595134347_rgbf000073-resize-original.jpg,250,1.4385,0,3893,250,meters,jsons/v1_VE250_randls_26.json,854001,1307146,24,Woman
66,130543,DepthScenes,duration_manipulation_targetAtFixation,jsons/v1_VE250_randls_26.json,http://54.235.29.9/FacialAge/BNav_EC2/DepthDuration/v2_depth_duration_MTurk/v2_DepthDuration_HTML.html#286,286,1366,657,1366,768,9-18-2022,13-12-35,67,depth_duration_stimuli/001244_2014-06-17_16-47-45_260595134347_rgbf000030-resize_4/001244_2014-06-17_16-47-45_260595134347_rgbf000030-resize_4-target.png,250,2.0425,1,3650,237,meters,jsons/v1_VE250_randls_26.json,854001,1307146,24,Woman
67,130543,DepthScenes,duration_manipulation_targetAtFixation,jsons/v1_VE250_randls_26.json,http://54.235.29.9/FacialAge/BNav_EC2/DepthDuration/v2_depth_duration_MTurk/v2_DepthDuration_HTML.html#286,286,1366,657,1366,768,9-18-2022,13-12-35,68,depth_duration_stimuli/003495_2014-05-21_16-01-51_094959634447_rgbf000100-resize_3/003495_2014-05-21_16-01-51_094959634447_rgbf000100-resize_3-target.png,250,1.6255,1,3991,254,meters,jsons/v1_VE250_randls_26.json,854001,1307146,24,Woman
68,130543,DepthScenes,duration_manipulation_targetAtFixation,jsons/v1_VE250_randls_26.json,http://54.235.29.9/FacialAge/BNav_EC2/DepthDuration/v2_depth_duration_MTurk/v2_DepthDuration_HTML.html#286,286,1366,657,1366,768,9-18-2022,13-12-35,69,depth_duration_stimuli/000522_2014-06-08_13-35-06_260595134347_rgbf000244-resize_1/000522_2014-06-08_13-35-06_260595134347_rgbf000244-resize_1-target.png,250,2.3715,1,3781,246,meters,jsons/v1_VE250_randls_26.json,854001,1307146,24,Woman
69,130543,DepthScenes,duration_manipulation_targetAtFixation,jsons/v1_VE250_randls_26.json,http://54.235.29.9/FacialAge/BNav_EC2/DepthDuration/v2_depth_duration_MTurk/v2_DepthDuration_HTML.html#286,286,1366,657,1366,768,9-18-2022,13-12-35,70,depth_duration_stimuli/002949_2014-06-26_15-57-42_094959634447_rgbf000079-resize_1/002949_2014-06-26_15-57-42_094959634447_rgbf000079-resize_1-target.png,250,1.8915,0,4425,235,meters,jsons/v1_VE250_randls_26.json,854001,1307146,24,Woman
70,130543,DepthScenes,duration_manipulation_targetAtFixation,jsons/v1_VE250_randls_26.json,http://54.235.29.9/FacialAge/BNav_EC2/DepthDuration/v2_depth_duration_MTurk/v2_DepthDuration_HTML.html#286,286,1366,657,1366,768,9-18-2022,13-12-35,71,depth_duration_stimuli/001167_2014-06-17_15-38-07_260595134347_rgbf000108-resize_0/001167_2014-06-17_15-38-07_260595134347_rgbf000108-resize_0-target.png,250,1.8505,1,4026,251,meters,jsons/v1_VE250_randls_26.json,854001,1307146,24,Woman
71,130543,DepthScenes,duration_manipulation_targetAtFixation,jsons/v1_VE250_randls_26.json,http://54.235.29.9/FacialAge/BNav_EC2/DepthDuration/v2_depth_duration_MTurk/v2_DepthDuration_HTML.html#286,286,1366,657,1366,768,9-18-2022,13-12-35,72,depth_duration_stimuli/003587_2014-05-23_16-48-02_094959634447_rgbf002384-resize_2/003587_2014-05-23_16-48-02_094959634447_rgbf002384-resize_2-target.png,250,1.357,0,3841,255,meters,jsons/v1_VE250_randls_26.json,854001,1307146,24,Woman
72,130543,DepthScenes,duration_manipulation_targetAtFixation,jsons/v1_VE250_randls_26.json,http://54.235.29.9/FacialAge/BNav_EC2/DepthDuration/v2_depth_duration_MTurk/v2_DepthDuration_HTML.html#286,286,1366,657,1366,768,9-18-2022,13-12-35,73,depth_duration_stimuli/000773_2014-06-08_22-24-54_260595134347_rgbf000093-resize_1/000773_2014-06-08_22-24-54_260595134347_rgbf000093-resize_1-target.png,250,4.973,1,3487,201,meters,jsons/v1_VE250_randls_26.json,854001,1307146,24,Woman
73,130543,DepthScenes,duration_manipulation_targetAtFixation,jsons/v1_VE250_randls_26.json,http://54.235.29.9/FacialAge/BNav_EC2/DepthDuration/v2_depth_duration_MTurk/v2_DepthDuration_HTML.html#286,286,1366,657,1366,768,9-18-2022,13-12-35,74,depth_duration_stimuli/002414_2014-06-28_20-24-58_260595134347_rgbf000067-resize_4/002414_2014-06-28_20-24-58_260595134347_rgbf000067-resize_4-target.png,250,4.363,1,3479,248,meters,jsons/v1_VE250_randls_26.json,854001,1307146,24,Woman
74,130543,DepthScenes,duration_manipulation_targetAtFixation,jsons/v1_VE250_randls_26.json,http://54.235.29.9/FacialAge/BNav_EC2/DepthDuration/v2_depth_duration_MTurk/v2_DepthDuration_HTML.html#286,286,1366,657,1366,768,9-18-2022,13-12-35,75,depth_duration_stimuli/000414_2014-06-04_19-49-13_260595134347_rgbf000044-resize_0/000414_2014-06-04_19-49-13_260595134347_rgbf000044-resize_0-target.png,250,4.329,1,3370,248,meters,jsons/v1_VE250_randls_26.json,854001,1307146,24,Woman
75,130543,DepthScenes,duration_manipulation_targetAtFixation,jsons/v1_VE250_randls_26.json,http://54.235.29.9/FacialAge/BNav_EC2/DepthDuration/v2_depth_duration_MTurk/v2_DepthDuration_HTML.html#286,286,1366,657,1366,768,9-18-2022,13-12-35,76,depth_duration_stimuli/003129_2014-05-12_10-48-10_094959634447_rgbf000100-resize_0/003129_2014-05-12_10-48-10_094959634447_rgbf000100-resize_0-target.png,250,4.9305,1,3143,243,meters,jsons/v1_VE250_randls_26.json,854001,1307146,24,Woman
76,130543,DepthScenes,duration_manipulation_targetAtFixation,jsons/v1_VE250_randls_26.json,http://54.235.29.9/FacialAge/BNav_EC2/DepthDuration/v2_depth_duration_MTurk/v2_DepthDuration_HTML.html#286,286,1366,657,1366,768,9-18-2022,13-12-35,77,depth_duration_stimuli/000739_2014-06-08_18-45-58_260595134347_rgbf000068-resize_1/000739_2014-06-08_18-45-58_260595134347_rgbf000068-resize_1-target.png,250,3.534,1,4212,258,meters,jsons/v1_VE250_randls_26.json,854001,1307146,24,Woman
77,130543,DepthScenes,duration_manipulation_targetAtFixation,jsons/v1_VE250_randls_26.json,http://54.235.29.9/FacialAge/BNav_EC2/DepthDuration/v2_depth_duration_MTurk/v2_DepthDuration_HTML.html#286,286,1366,657,1366,768,9-18-2022,13-12-35,78,depth_duration_stimuli/000734_2014-06-08_17-39-11_260595134347_rgbf000128-resize_2/000734_2014-06-08_17-39-11_260595134347_rgbf000128-resize_2-target.png,250,4.098,0,3164,249,meters,jsons/v1_VE250_randls_26.json,854001,1307146,24,Woman
78,130543,DepthScenes,duration_manipulation_targetAtFixation,jsons/v1_VE250_randls_26.json,http://54.235.29.9/FacialAge/BNav_EC2/DepthDuration/v2_depth_duration_MTurk/v2_DepthDuration_HTML.html#286,286,1366,657,1366,768,9-18-2022,13-12-35,79,depth_duration_stimuli/000469_2014-06-09_19-42-10_260595134347_rgbf000081-resize_1/000469_2014-06-09_19-42-10_260595134347_rgbf000081-resize_1-target.png,250,1.652,1,3178,256,meters,jsons/v1_VE250_randls_26.json,854001,1307146,24,Woman
79,130543,DepthScenes,duration_manipulation_targetAtFixation,jsons/v1_VE250_randls_26.json,http://54.235.29.9/FacialAge/BNav_EC2/DepthDuration/v2_depth_duration_MTurk/v2_DepthDuration_HTML.html#286,286,1366,657,1366,768,9-18-2022,13-12-35,80,depth_duration_stimuli/000483_2014-06-09_20-41-45_260595134347_rgbf000116-resize_4/000483_2014-06-09_20-41-45_260595134347_rgbf000116-resize_4-target.png,250,1.337,1,4316,229,meters,jsons/v1_VE250_randls_26.json,854001,1307146,24,Woman
80,130543,DepthScenes,duration_manipulation_targetAtFixation,jsons/v1_VE250_randls_26.json,http://54.235.29.9/FacialAge/BNav_EC2/DepthDuration/v2_depth_duration_MTurk/v2_DepthDuration_HTML.html#286,286,1366,657,1366,768,9-18-2022,13-12-35,81,depth_duration_stimuli/003534_2014-05-22_15-06-10_094959634447_rgbf000102-resize_4/003534_2014-05-22_15-06-10_094959634447_rgbf000102-resize_4-target.png,250,1.426,1,3571,271,meters,jsons/v1_VE250_randls_26.json,854001,1307146,24,Woman
81,130543,DepthScenes,duration_manipulation_targetAtFixation,jsons/v1_VE250_randls_26.json,http://54.235.29.9/FacialAge/BNav_EC2/DepthDuration/v2_depth_duration_MTurk/v2_DepthDuration_HTML.html#286,286,1366,657,1366,768,9-18-2022,13-12-35,82,depth_duration_stimuli/002637_2014-06-24_14-51-13_094959634447_rgbf000066-resize_4/002637_2014-06-24_14-51-13_094959634447_rgbf000066-resize_4-target.png,250,1.9955,0,3608,223,meters,jsons/v1_VE250_randls_26.json,854001,1307146,24,Woman
82,130543,DepthScenes,duration_manipulation_targetAtFixation,jsons/v1_VE250_randls_26.json,http://54.235.29.9/FacialAge/BNav_EC2/DepthDuration/v2_depth_duration_MTurk/v2_DepthDuration_HTML.html#286,286,1366,657,1366,768,9-18-2022,13-12-35,83,depth_duration_stimuli/000642_2014-06-08_16-59-25_260595134347_rgbf000098-resize_2/000642_2014-06-08_16-59-25_260595134347_rgbf000098-resize_2-target.png,250,2.8815,1,4377,237,meters,jsons/v1_VE250_randls_26.json,854001,1307146,24,Woman
83,130543,DepthScenes,duration_manipulation_targetAtFixation,jsons/v1_VE250_randls_26.json,http://54.235.29.9/FacialAge/BNav_EC2/DepthDuration/v2_depth_duration_MTurk/v2_DepthDuration_HTML.html#286,286,1366,657,1366,768,9-18-2022,13-12-35,84,depth_duration_stimuli/002425_2014-06-28_20-27-29_260595134347_rgbf000031-resize_8/002425_2014-06-28_20-27-29_260595134347_rgbf000031-resize_8-target.png,250,3.8960000000000004,0,3193,253,meters,jsons/v1_VE250_randls_26.json,854001,1307146,24,Woman
84,130543,DepthScenes,duration_manipulation_targetAtFixation,jsons/v1_VE250_randls_26.json,http://54.235.29.9/FacialAge/BNav_EC2/DepthDuration/v2_depth_duration_MTurk/v2_DepthDuration_HTML.html#286,286,1366,657,1366,768,9-18-2022,13-12-35,85,depth_duration_stimuli/001011_2014-06-08_23-18-54_260595134347_rgbf000044-resize_4/001011_2014-06-08_23-18-54_260595134347_rgbf000044-resize_4-target.png,250,2.4730000000000003,1,3787,256,meters,jsons/v1_VE250_randls_26.json,854001,1307146,24,Woman
85,130543,DepthScenes,duration_manipulation_targetAtFixation,jsons/v1_VE250_randls_26.json,http://54.235.29.9/FacialAge/BNav_EC2/DepthDuration/v2_depth_duration_MTurk/v2_DepthDuration_HTML.html#286,286,1366,657,1366,768,9-18-2022,13-12-35,86,depth_duration_stimuli/002875_2014-06-01_15-19-00_094959634447_rgbf000151-resize_1/002875_2014-06-01_15-19-00_094959634447_rgbf000151-resize_1-target.png,250,1.9675,0,3695,245,meters,jsons/v1_VE250_randls_26.json,854001,1307146,24,Woman
86,130543,DepthScenes,duration_manipulation_targetAtFixation,jsons/v1_VE250_randls_26.json,http://54.235.29.9/FacialAge/BNav_EC2/DepthDuration/v2_depth_duration_MTurk/v2_DepthDuration_HTML.html#286,286,1366,657,1366,768,9-18-2022,13-12-35,87,depth_duration_stimuli/001092_2014-06-15_17-34-58_260595134347_rgbf000171-resize_3/001092_2014-06-15_17-34-58_260595134347_rgbf000171-resize_3-target.png,250,2.6935,1,3022,245,meters,jsons/v1_VE250_randls_26.json,854001,1307146,24,Woman
87,130543,DepthScenes,duration_manipulation_targetAtFixation,jsons/v1_VE250_randls_26.json,http://54.235.29.9/FacialAge/BNav_EC2/DepthDuration/v2_depth_duration_MTurk/v2_DepthDuration_HTML.html#286,286,1366,657,1366,768,9-18-2022,13-12-35,88,depth_duration_stimuli/002545_2014-06-24_13-38-53_094959634447_rgbf000080-resize_4/002545_2014-06-24_13-38-53_094959634447_rgbf000080-resize_4-target.png,250,1.9205,0,3927,245,meters,jsons/v1_VE250_randls_26.json,854001,1307146,24,Woman
88,130543,DepthScenes,duration_manipulation_targetAtFixation,jsons/v1_VE250_randls_26.json,http://54.235.29.9/FacialAge/BNav_EC2/DepthDuration/v2_depth_duration_MTurk/v2_DepthDuration_HTML.html#286,286,1366,657,1366,768,9-18-2022,13-12-35,89,depth_duration_stimuli/002375_2014-06-28_20-13-44_260595134347_rgbf000032-resize_1/002375_2014-06-28_20-13-44_260595134347_rgbf000032-resize_1-target.png,250,4.0175,1,3425,253,meters,jsons/v1_VE250_randls_26.json,854001,1307146,24,Woman
89,130543,DepthScenes,duration_manipulation_targetAtFixation,jsons/v1_VE250_randls_26.json,http://54.235.29.9/FacialAge/BNav_EC2/DepthDuration/v2_depth_duration_MTurk/v2_DepthDuration_HTML.html#286,286,1366,657,1366,768,9-18-2022,13-12-35,90,depth_duration_stimuli/002657_2014-06-13_15-29-54_094959634447_rgbf000150-resize_1/002657_2014-06-13_15-29-54_094959634447_rgbf000150-resize_1-target.png,250,4.919,0,3453,249,meters,jsons/v1_VE250_randls_26.json,854001,1307146,24,Woman
90,130543,DepthScenes,duration_manipulation_targetAtFixation,jsons/v1_VE250_randls_26.json,http://54.235.29.9/FacialAge/BNav_EC2/DepthDuration/v2_depth_duration_MTurk/v2_DepthDuration_HTML.html#286,286,1366,657,1366,768,9-18-2022,13-12-35,91,depth_duration_stimuli/000682_2014-06-08_23-14-58_260595134347_rgbf000041-resize_5/000682_2014-06-08_23-14-58_260595134347_rgbf000041-resize_5-target.png,250,2.7239999999999998,1,4043,241,meters,jsons/v1_VE250_randls_26.json,854001,1307146,24,Woman
91,130543,DepthScenes,duration_manipulation_targetAtFixation,jsons/v1_VE250_randls_26.json,http://54.235.29.9/FacialAge/BNav_EC2/DepthDuration/v2_depth_duration_MTurk/v2_DepthDuration_HTML.html#286,286,1366,657,1366,768,9-18-2022,13-12-35,92,depth_duration_stimuli/001650_2014-06-20_12-09-00_260595134347_rgbf000087-resize_3/001650_2014-06-20_12-09-00_260595134347_rgbf000087-resize_3-target.png,250,1.9505,0,82149,91,meters,jsons/v1_VE250_randls_26.json,854001,1307146,24,Woman
92,130543,DepthScenes,duration_manipulation_targetAtFixation,jsons/v1_VE250_randls_26.json,http://54.235.29.9/FacialAge/BNav_EC2/DepthDuration/v2_depth_duration_MTurk/v2_DepthDuration_HTML.html#286,286,1366,657,1366,768,9-18-2022,13-12-35,93,depth_duration_stimuli/003292_2014-05-14_21-53-49_094959634447_rgbf000100-resize_2/003292_2014-05-14_21-53-49_094959634447_rgbf000100-resize_2-target.png,250,3.4815,1,3850,267,meters,jsons/v1_VE250_randls_26.json,854001,1307146,24,Woman
93,130543,DepthScenes,duration_manipulation_targetAtFixation,jsons/v1_VE250_randls_26.json,http://54.235.29.9/FacialAge/BNav_EC2/DepthDuration/v2_depth_duration_MTurk/v2_DepthDuration_HTML.html#286,286,1366,657,1366,768,9-18-2022,13-12-35,94,depth_duration_stimuli/002639_2014-06-24_14-51-37_094959634447_rgbf000074-resize_4/002639_2014-06-24_14-51-37_094959634447_rgbf000074-resize_4-target.png,250,4.0375,1,3097,249,meters,jsons/v1_VE250_randls_26.json,854001,1307146,24,Woman
94,130543,DepthScenes,duration_manipulation_targetAtFixation,jsons/v1_VE250_randls_26.json,http://54.235.29.9/FacialAge/BNav_EC2/DepthDuration/v2_depth_duration_MTurk/v2_DepthDuration_HTML.html#286,286,1366,657,1366,768,9-18-2022,13-12-35,95,depth_duration_stimuli/000486_2014-06-09_20-47-20_260595134347_rgbf000143-resize_2/000486_2014-06-09_20-47-20_260595134347_rgbf000143-resize_2-target.png,250,4.8325,1,3454,239,meters,jsons/v1_VE250_randls_26.json,854001,1307146,24,Woman
95,130543,DepthScenes,duration_manipulation_targetAtFixation,jsons/v1_VE250_randls_26.json,http://54.235.29.9/FacialAge/BNav_EC2/DepthDuration/v2_depth_duration_MTurk/v2_DepthDuration_HTML.html#286,286,1366,657,1366,768,9-18-2022,13-12-35,96,depth_duration_stimuli/003083_2014-06-15_15-21-03_094959634447_rgbf000063-resize_1/003083_2014-06-15_15-21-03_094959634447_rgbf000063-resize_1-target.png,250,4.1405,1,3592,244,meters,jsons/v1_VE250_randls_26.json,854001,1307146,24,Woman
96,130543,DepthScenes,duration_manipulation_targetAtFixation,jsons/v1_VE250_randls_26.json,http://54.235.29.9/FacialAge/BNav_EC2/DepthDuration/v2_depth_duration_MTurk/v2_DepthDuration_HTML.html#286,286,1366,657,1366,768,9-18-2022,13-12-35,97,depth_duration_stimuli/001175_2014-06-17_15-45-55_260595134347_rgbf000129-resize_4/001175_2014-06-17_15-45-55_260595134347_rgbf000129-resize_4-target.png,250,4.255,1,7726,252,meters,jsons/v1_VE250_randls_26.json,854001,1307146,24,Woman
97,130543,DepthScenes,duration_manipulation_targetAtFixation,jsons/v1_VE250_randls_26.json,http://54.235.29.9/FacialAge/BNav_EC2/DepthDuration/v2_depth_duration_MTurk/v2_DepthDuration_HTML.html#286,286,1366,657,1366,768,9-18-2022,13-12-35,98,depth_duration_stimuli/003490_2014-05-21_15-50-11_094959634447_rgbf000101-resize_3/003490_2014-05-21_15-50-11_094959634447_rgbf000101-resize_3-target.png,250,3.6445,1,4416,213,meters,jsons/v1_VE250_randls_26.json,854001,1307146,24,Woman
98,130543,DepthScenes,duration_manipulation_targetAtFixation,jsons/v1_VE250_randls_26.json,http://54.235.29.9/FacialAge/BNav_EC2/DepthDuration/v2_depth_duration_MTurk/v2_DepthDuration_HTML.html#286,286,1366,657,1366,768,9-18-2022,13-12-35,99,depth_duration_stimuli/001540_2014-06-20_17-01-05_260595134347_rgbf000086-resize_2/001540_2014-06-20_17-01-05_260595134347_rgbf000086-resize-original.jpg,250,1.459,0,4649,252,meters,jsons/v1_VE250_randls_26.json,854001,1307146,24,Woman
99,130543,DepthScenes,duration_manipulation_targetAtFixation,jsons/v1_VE250_randls_26.json,http://54.235.29.9/FacialAge/BNav_EC2/DepthDuration/v2_depth_duration_MTurk/v2_DepthDuration_HTML.html#286,286,1366,657,1366,768,9-18-2022,13-12-35,100,depth_duration_stimuli/001808_2014-06-26_20-50-58_260595134347_rgbf000029-resize_1/001808_2014-06-26_20-50-58_260595134347_rgbf000029-resize_1-target.png,250,4.249,1,4125,236,meters,jsons/v1_VE250_randls_26.json,854001,1307146,24,Woman
100,130543,DepthScenes,duration_manipulation_targetAtFixation,jsons/v1_VE250_randls_26.json,http://54.235.29.9/FacialAge/BNav_EC2/DepthDuration/v2_depth_duration_MTurk/v2_DepthDuration_HTML.html#286,286,1366,657,1366,768,9-18-2022,13-12-35,101,depth_duration_stimuli/001815_2014-06-26_20-52-55_260595134347_rgbf000020-resize_0/001815_2014-06-26_20-52-55_260595134347_rgbf000020-resize_0-target.png,250,3.3865,1,2964,253,meters,jsons/v1_VE250_randls_26.json,854001,1307146,24,Woman
101,130543,DepthScenes,duration_manipulation_targetAtFixation,jsons/v1_VE250_randls_26.json,http://54.235.29.9/FacialAge/BNav_EC2/DepthDuration/v2_depth_duration_MTurk/v2_DepthDuration_HTML.html#286,286,1366,657,1366,768,9-18-2022,13-12-35,102,depth_duration_stimuli/003492_2014-05-21_15-50-55_094959634447_rgbf000828-resize_1/003492_2014-05-21_15-50-55_094959634447_rgbf000828-resize_1-target.png,250,4.06875,1,2942,247,meters,jsons/v1_VE250_randls_26.json,854001,1307146,24,Woman
102,130543,DepthScenes,duration_manipulation_targetAtFixation,jsons/v1_VE250_randls_26.json,http://54.235.29.9/FacialAge/BNav_EC2/DepthDuration/v2_depth_duration_MTurk/v2_DepthDuration_HTML.html#286,286,1366,657,1366,768,9-18-2022,13-12-35,103,depth_duration_stimuli/002568_2014-06-24_13-59-21_094959634447_rgbf000062-resize_4/002568_2014-06-24_13-59-21_094959634447_rgbf000062-resize_4-target.png,250,3.015,1,2746,242,meters,jsons/v1_VE250_randls_26.json,854001,1307146,24,Woman
103,130543,DepthScenes,duration_manipulation_targetAtFixation,jsons/v1_VE250_randls_26.json,http://54.235.29.9/FacialAge/BNav_EC2/DepthDuration/v2_depth_duration_MTurk/v2_DepthDuration_HTML.html#286,286,1366,657,1366,768,9-18-2022,13-12-35,104,depth_duration_stimuli/003621_2014-05-23_18-06-08_094959634447_rgbf000101-resize_1/003621_2014-05-23_18-06-08_094959634447_rgbf000101-resize_1-target.png,250,3.9835,1,3420,239,meters,jsons/v1_VE250_randls_26.json,854001,1307146,24,Woman
104,130543,DepthScenes,duration_manipulation_targetAtFixation,jsons/v1_VE250_randls_26.json,http://54.235.29.9/FacialAge/BNav_EC2/DepthDuration/v2_depth_duration_MTurk/v2_DepthDuration_HTML.html#286,286,1366,657,1366,768,9-18-2022,13-12-35,105,depth_duration_stimuli/001584_2014-06-20_11-07-43_260595134347_rgbf000002-resize_1/001584_2014-06-20_11-07-43_260595134347_rgbf000002-resize_1-target.png,250,3.53,1,3326,236,meters,jsons/v1_VE250_randls_26.json,854001,1307146,24,Woman
105,130543,DepthScenes,duration_manipulation_targetAtFixation,jsons/v1_VE250_randls_26.json,http://54.235.29.9/FacialAge/BNav_EC2/DepthDuration/v2_depth_duration_MTurk/v2_DepthDuration_HTML.html#286,286,1366,657,1366,768,9-18-2022,13-12-35,106,depth_duration_stimuli/001059_2014-06-08_21-53-27_260595134347_rgbf000061-resize_4/001059_2014-06-08_21-53-27_260595134347_rgbf000061-resize_4-target.png,250,2.4185,1,2863,257,meters,jsons/v1_VE250_randls_26.json,854001,1307146,24,Woman
106,130543,DepthScenes,duration_manipulation_targetAtFixation,jsons/v1_VE250_randls_26.json,http://54.235.29.9/FacialAge/BNav_EC2/DepthDuration/v2_depth_duration_MTurk/v2_DepthDuration_HTML.html#286,286,1366,657,1366,768,9-18-2022,13-12-35,107,depth_duration_stimuli/001032_2014-06-08_13-23-17_260595134347_rgbf000021-resize_3/001032_2014-06-08_13-23-17_260595134347_rgbf000021-resize_3-target.png,250,3.2725,0,4740,235,meters,jsons/v1_VE250_randls_26.json,854001,1307146,24,Woman
107,130543,DepthScenes,duration_manipulation_targetAtFixation,jsons/v1_VE250_randls_26.json,http://54.235.29.9/FacialAge/BNav_EC2/DepthDuration/v2_depth_duration_MTurk/v2_DepthDuration_HTML.html#286,286,1366,657,1366,768,9-18-2022,13-12-35,108,depth_duration_stimuli/002748_2014-06-22_19-07-22_094959634447_rgbf000078-resize_1/002748_2014-06-22_19-07-22_094959634447_rgbf000078-resize_1-target.png,250,4.6705,1,2930,243,meters,jsons/v1_VE250_randls_26.json,854001,1307146,24,Woman
108,130543,DepthScenes,duration_manipulation_targetAtFixation,jsons/v1_VE250_randls_26.json,http://54.235.29.9/FacialAge/BNav_EC2/DepthDuration/v2_depth_duration_MTurk/v2_DepthDuration_HTML.html#286,286,1366,657,1366,768,9-18-2022,13-12-35,109,depth_duration_stimuli/002995_2014-06-15_12-31-26_094959634447_rgbf000150-resize_1/002995_2014-06-15_12-31-26_094959634447_rgbf000150-resize_1-target.png,250,3.8360000000000003,1,3819,229,meters,jsons/v1_VE250_randls_26.json,854001,1307146,24,Woman
109,130543,DepthScenes,duration_manipulation_targetAtFixation,jsons/v1_VE250_randls_26.json,http://54.235.29.9/FacialAge/BNav_EC2/DepthDuration/v2_depth_duration_MTurk/v2_DepthDuration_HTML.html#286,286,1366,657,1366,768,9-18-2022,13-12-35,110,depth_duration_stimuli/002763_2014-06-22_19-13-10_094959634447_rgbf000075-resize_4/002763_2014-06-22_19-13-10_094959634447_rgbf000075-resize_4-target.png,250,1.68375,0,4437,208,meters,jsons/v1_VE250_randls_26.json,854001,1307146,24,Woman
110,130543,DepthScenes,duration_manipulation_targetAtFixation,jsons/v1_VE250_randls_26.json,http://54.235.29.9/FacialAge/BNav_EC2/DepthDuration/v2_depth_duration_MTurk/v2_DepthDuration_HTML.html#286,286,1366,657,1366,768,9-18-2022,13-12-35,111,depth_duration_stimuli/002209_2014-06-28_18-36-10_260595134347_rgbf000051-resize_1/002209_2014-06-28_18-36-10_260595134347_rgbf000051-resize_1-target.png,250,2.057,1,3931,255,meters,jsons/v1_VE250_randls_26.json,854001,1307146,24,Woman
111,130543,DepthScenes,duration_manipulation_targetAtFixation,jsons/v1_VE250_randls_26.json,http://54.235.29.9/FacialAge/BNav_EC2/DepthDuration/v2_depth_duration_MTurk/v2_DepthDuration_HTML.html#286,286,1366,657,1366,768,9-18-2022,13-12-35,112,depth_duration_stimuli/001417_2014-06-19_16-25-36_260595134347_rgbf000115-resize_5/001417_2014-06-19_16-25-36_260595134347_rgbf000115-resize_5-target.png,250,4.6255,1,3142,253,meters,jsons/v1_VE250_randls_26.json,854001,1307146,24,Woman
112,130543,DepthScenes,duration_manipulation_targetAtFixation,jsons/v1_VE250_randls_26.json,http://54.235.29.9/FacialAge/BNav_EC2/DepthDuration/v2_depth_duration_MTurk/v2_DepthDuration_HTML.html#286,286,1366,657,1366,768,9-18-2022,13-12-35,113,depth_duration_stimuli/003081_2014-06-15_15-19-16_094959634447_rgbf000150-resize_1/003081_2014-06-15_15-19-16_094959634447_rgbf000150-resize_1-target.png,250,3.9125,1,2988,273,meters,jsons/v1_VE250_randls_26.json,854001,1307146,24,Woman
113,130543,DepthScenes,duration_manipulation_targetAtFixation,jsons/v1_VE250_randls_26.json,http://54.235.29.9/FacialAge/BNav_EC2/DepthDuration/v2_depth_duration_MTurk/v2_DepthDuration_HTML.html#286,286,1366,657,1366,768,9-18-2022,13-12-35,114,depth_duration_stimuli/001056_2014-06-08_18-46-44_260595134347_rgbf000068-resize_0/001056_2014-06-08_18-46-44_260595134347_rgbf000068-resize_0-target.png,250,2.6625,1,4776,248,meters,jsons/v1_VE250_randls_26.json,854001,1307146,24,Woman
114,130543,DepthScenes,duration_manipulation_targetAtFixation,jsons/v1_VE250_randls_26.json,http://54.235.29.9/FacialAge/BNav_EC2/DepthDuration/v2_depth_duration_MTurk/v2_DepthDuration_HTML.html#286,286,1366,657,1366,768,9-18-2022,13-12-35,115,depth_duration_stimuli/002199_2014-06-28_18-33-56_260595134347_rgbf000074-resize_0/002199_2014-06-28_18-33-56_260595134347_rgbf000074-resize_0-target.png,250,1.996,1,3284,247,meters,jsons/v1_VE250_randls_26.json,854001,1307146,24,Woman
115,130543,DepthScenes,duration_manipulation_targetAtFixation,jsons/v1_VE250_randls_26.json,http://54.235.29.9/FacialAge/BNav_EC2/DepthDuration/v2_depth_duration_MTurk/v2_DepthDuration_HTML.html#286,286,1366,657,1366,768,9-18-2022,13-12-35,116,depth_duration_stimuli/001170_2014-06-17_15-43-44_260595134347_rgbf000096-resize_6/001170_2014-06-17_15-43-44_260595134347_rgbf000096-resize-original.jpg,250,1.1909999999999998,0,4270,247,meters,jsons/v1_VE250_randls_26.json,854001,1307146,24,Woman
116,130543,DepthScenes,duration_manipulation_targetAtFixation,jsons/v1_VE250_randls_26.json,http://54.235.29.9/FacialAge/BNav_EC2/DepthDuration/v2_depth_duration_MTurk/v2_DepthDuration_HTML.html#286,286,1366,657,1366,768,9-18-2022,13-12-35,117,depth_duration_stimuli/001199_2014-06-17_16-03-48_260595134347_rgbf000077-resize_0/001199_2014-06-17_16-03-48_260595134347_rgbf000077-resize_0-target.png,250,3.4375,1,3011,246,meters,jsons/v1_VE250_randls_26.json,854001,1307146,24,Woman
117,130543,DepthScenes,duration_manipulation_targetAtFixation,jsons/v1_VE250_randls_26.json,http://54.235.29.9/FacialAge/BNav_EC2/DepthDuration/v2_depth_duration_MTurk/v2_DepthDuration_HTML.html#286,286,1366,657,1366,768,9-18-2022,13-12-35,118,depth_duration_stimuli/000502_2014-06-08_23-02-32_260595134347_rgbf000063-resize_4/000502_2014-06-08_23-02-32_260595134347_rgbf000063-resize_4-target.png,250,2.431,1,4406,216,meters,jsons/v1_VE250_randls_26.json,854001,1307146,24,Woman
118,130543,DepthScenes,duration_manipulation_targetAtFixation,jsons/v1_VE250_randls_26.json,http://54.235.29.9/FacialAge/BNav_EC2/DepthDuration/v2_depth_duration_MTurk/v2_DepthDuration_HTML.html#286,286,1366,657,1366,768,9-18-2022,13-12-35,119,depth_duration_stimuli/000506_2014-06-08_23-21-00_260595134347_rgbf000070-resize_7/000506_2014-06-08_23-21-00_260595134347_rgbf000070-resize_7-target.png,250,4.0585,1,5960,244,meters,jsons/v1_VE250_randls_26.json,854001,1307146,24,Woman
119,130543,DepthScenes,duration_manipulation_targetAtFixation,jsons/v1_VE250_randls_26.json,http://54.235.29.9/FacialAge/BNav_EC2/DepthDuration/v2_depth_duration_MTurk/v2_DepthDuration_HTML.html#286,286,1366,657,1366,768,9-18-2022,13-12-35,120,depth_duration_stimuli/003079_2014-06-15_15-18-20_094959634447_rgbf000152-resize_8/003079_2014-06-15_15-18-20_094959634447_rgbf000152-resize_8-target.png,250,2.8775,0,3494,246,meters,jsons/v1_VE250_randls_26.json,854001,1307146,24,Woman
120,130543,DepthScenes,duration_manipulation_targetAtFixation,jsons/v1_VE250_randls_26.json,http://54.235.29.9/FacialAge/BNav_EC2/DepthDuration/v2_depth_duration_MTurk/v2_DepthDuration_HTML.html#286,286,1366,657,1366,768,9-18-2022,13-12-35,121,depth_duration_stimuli/002964_2014-06-08_17-46-11_094959634447_rgbf000091-resize_4/002964_2014-06-08_17-46-11_094959634447_rgbf000091-resize_4-target.png,250,1.6909999999999998,1,3271,248,meters,jsons/v1_VE250_randls_26.json,854001,1307146,24,Woman
121,130543,DepthScenes,duration_manipulation_targetAtFixation,jsons/v1_VE250_randls_26.json,http://54.235.29.9/FacialAge/BNav_EC2/DepthDuration/v2_depth_duration_MTurk/v2_DepthDuration_HTML.html#286,286,1366,657,1366,768,9-18-2022,13-12-35,122,depth_duration_stimuli/002136_2014-06-25_21-18-03_260595134347_rgbf000109-resize_3/002136_2014-06-25_21-18-03_260595134347_rgbf000109-resize_3-target.png,250,1.9569999999999999,1,6755,314,meters,jsons/v1_VE250_randls_26.json,854001,1307146,24,Woman
122,130543,DepthScenes,duration_manipulation_targetAtFixation,jsons/v1_VE250_randls_26.json,http://54.235.29.9/FacialAge/BNav_EC2/DepthDuration/v2_depth_duration_MTurk/v2_DepthDuration_HTML.html#286,286,1366,657,1366,768,9-18-2022,13-12-35,123,depth_duration_stimuli/000736_2014-06-08_18-24-15_260595134347_rgbf000206-resize_3/000736_2014-06-08_18-24-15_260595134347_rgbf000206-resize_3-target.png,250,3.515,1,13787,273,meters,jsons/v1_VE250_randls_26.json,854001,1307146,24,Woman
123,130543,DepthScenes,duration_manipulation_targetAtFixation,jsons/v1_VE250_randls_26.json,http://54.235.29.9/FacialAge/BNav_EC2/DepthDuration/v2_depth_duration_MTurk/v2_DepthDuration_HTML.html#286,286,1366,657,1366,768,9-18-2022,13-12-35,124,depth_duration_stimuli/000137_2014-05-20_17-04-49_260595134347_rgbf000120-resize_1/000137_2014-05-20_17-04-49_260595134347_rgbf000120-resize_1-target.png,250,3.786,1,6019,249,meters,jsons/v1_VE250_randls_26.json,854001,1307146,24,Woman
124,130543,DepthScenes,duration_manipulation_targetAtFixation,jsons/v1_VE250_randls_26.json,http://54.235.29.9/FacialAge/BNav_EC2/DepthDuration/v2_depth_duration_MTurk/v2_DepthDuration_HTML.html#286,286,1366,657,1366,768,9-18-2022,13-12-35,125,depth_duration_stimuli/002570_2014-06-24_13-59-54_094959634447_rgbf000059-resize_0/002570_2014-06-24_13-59-54_094959634447_rgbf000059-resize_0-target.png,250,4.037,0,3870,183,meters,jsons/v1_VE250_randls_26.json,854001,1307146,24,Woman
125,130543,DepthScenes,duration_manipulation_targetAtFixation,jsons/v1_VE250_randls_26.json,http://54.235.29.9/FacialAge/BNav_EC2/DepthDuration/v2_depth_duration_MTurk/v2_DepthDuration_HTML.html#286,286,1366,657,1366,768,9-18-2022,13-12-35,126,depth_duration_stimuli/002467_2014-06-28_20-38-07_260595134347_rgbf000026-resize_2/002467_2014-06-28_20-38-07_260595134347_rgbf000026-resize_2-target.png,250,4.742,1,4244,252,meters,jsons/v1_VE250_randls_26.json,854001,1307146,24,Woman
126,130543,DepthScenes,duration_manipulation_targetAtFixation,jsons/v1_VE250_randls_26.json,http://54.235.29.9/FacialAge/BNav_EC2/DepthDuration/v2_depth_duration_MTurk/v2_DepthDuration_HTML.html#286,286,1366,657,1366,768,9-18-2022,13-12-35,127,depth_duration_stimuli/001449_2014-06-19_17-01-27_260595134347_rgbf000116-resize_2/001449_2014-06-19_17-01-27_260595134347_rgbf000116-resize_2-target.png,250,3.452,1,3469,249,meters,jsons/v1_VE250_randls_26.json,854001,1307146,24,Woman
127,130543,DepthScenes,duration_manipulation_targetAtFixation,jsons/v1_VE250_randls_26.json,http://54.235.29.9/FacialAge/BNav_EC2/DepthDuration/v2_depth_duration_MTurk/v2_DepthDuration_HTML.html#286,286,1366,657,1366,768,9-18-2022,13-12-35,128,depth_duration_stimuli/001450_2014-06-19_17-02-03_260595134347_rgbf000203-resize_4/001450_2014-06-19_17-02-03_260595134347_rgbf000203-resize_4-target.png,250,4.0106666666667,1,4461,249,meters,jsons/v1_VE250_randls_26.json,854001,1307146,24,Woman
128,130543,DepthScenes,duration_manipulation_targetAtFixation,jsons/v1_VE250_randls_26.json,http://54.235.29.9/FacialAge/BNav_EC2/DepthDuration/v2_depth_duration_MTurk/v2_DepthDuration_HTML.html#286,286,1366,657,1366,768,9-18-2022,13-12-35,129,depth_duration_stimuli/001055_2014-06-08_18-45-35_260595134347_rgbf000111-resize_4/001055_2014-06-08_18-45-35_260595134347_rgbf000111-resize_4-target.png,250,2.4290000000000003,1,2984,253,meters,jsons/v1_VE250_randls_26.json,854001,1307146,24,Woman
129,130543,DepthScenes,duration_manipulation_targetAtFixation,jsons/v1_VE250_randls_26.json,http://54.235.29.9/FacialAge/BNav_EC2/DepthDuration/v2_depth_duration_MTurk/v2_DepthDuration_HTML.html#286,286,1366,657,1366,768,9-18-2022,13-12-35,130,depth_duration_stimuli/000549_2014-06-08_22-10-24_260595134347_rgbf000247-resize_3/000549_2014-06-08_22-10-24_260595134347_rgbf000247-resize_3-target.png,250,1.841,1,4265,235,meters,jsons/v1_VE250_randls_26.json,854001,1307146,24,Woman
130,130543,DepthScenes,duration_manipulation_targetAtFixation,jsons/v1_VE250_randls_26.json,http://54.235.29.9/FacialAge/BNav_EC2/DepthDuration/v2_depth_duration_MTurk/v2_DepthDuration_HTML.html#286,286,1366,657,1366,768,9-18-2022,13-12-35,131,depth_duration_stimuli/001029_2014-06-08_13-17-57_260595134347_rgbf000065-resize_1/001029_2014-06-08_13-17-57_260595134347_rgbf000065-resize_1-target.png,250,3.0835,1,4706,261,meters,jsons/v1_VE250_randls_26.json,854001,1307146,24,Woman
131,130543,DepthScenes,duration_manipulation_targetAtFixation,jsons/v1_VE250_randls_26.json,http://54.235.29.9/FacialAge/BNav_EC2/DepthDuration/v2_depth_duration_MTurk/v2_DepthDuration_HTML.html#286,286,1366,657,1366,768,9-18-2022,13-12-35,132,depth_duration_stimuli/000677_2014-06-08_23-10-32_260595134347_rgbf000158-resize_6/000677_2014-06-08_23-10-32_260595134347_rgbf000158-resize_6-target.png,250,3.556,1,4570,247,meters,jsons/v1_VE250_randls_26.json,854001,1307146,24,Woman
132,130543,DepthScenes,duration_manipulation_targetAtFixation,jsons/v1_VE250_randls_26.json,http://54.235.29.9/FacialAge/BNav_EC2/DepthDuration/v2_depth_duration_MTurk/v2_DepthDuration_HTML.html#286,286,1366,657,1366,768,9-18-2022,13-12-35,133,depth_duration_stimuli/002153_2014-06-25_21-27-18_260595134347_rgbf000038-resize_5/002153_2014-06-25_21-27-18_260595134347_rgbf000038-resize_5-target.png,250,2.505,1,2753,235,meters,jsons/v1_VE250_randls_26.json,854001,1307146,24,Woman
133,130543,DepthScenes,duration_manipulation_targetAtFixation,jsons/v1_VE250_randls_26.json,http://54.235.29.9/FacialAge/BNav_EC2/DepthDuration/v2_depth_duration_MTurk/v2_DepthDuration_HTML.html#286,286,1366,657,1366,768,9-18-2022,13-12-35,134,depth_duration_stimuli/002660_2014-06-13_15-44-18_094959634447_rgbf001878-resize_2/002660_2014-06-13_15-44-18_094959634447_rgbf001878-resize_2-target.png,250,3.576,1,2538,235,meters,jsons/v1_VE250_randls_26.json,854001,1307146,24,Woman
134,130543,DepthScenes,duration_manipulation_targetAtFixation,jsons/v1_VE250_randls_26.json,http://54.235.29.9/FacialAge/BNav_EC2/DepthDuration/v2_depth_duration_MTurk/v2_DepthDuration_HTML.html#286,286,1366,657,1366,768,9-18-2022,13-12-35,135,depth_duration_stimuli/002072_2014-06-24_21-48-06_260595134347_rgbf000115-resize_0/002072_2014-06-24_21-48-06_260595134347_rgbf000115-resize-original.jpg,250,4.702,0,4054,249,meters,jsons/v1_VE250_randls_26.json,854001,1307146,24,Woman
135,130543,DepthScenes,duration_manipulation_targetAtFixation,jsons/v1_VE250_randls_26.json,http://54.235.29.9/FacialAge/BNav_EC2/DepthDuration/v2_depth_duration_MTurk/v2_DepthDuration_HTML.html#286,286,1366,657,1366,768,9-18-2022,13-12-35,136,depth_duration_stimuli/000470_2014-06-09_19-42-40_260595134347_rgbf000094-resize_1/000470_2014-06-09_19-42-40_260595134347_rgbf000094-resize_1-target.png,250,1.831,1,2529,243,meters,jsons/v1_VE250_randls_26.json,854001,1307146,24,Woman
136,130543,DepthScenes,duration_manipulation_targetAtFixation,jsons/v1_VE250_randls_26.json,http://54.235.29.9/FacialAge/BNav_EC2/DepthDuration/v2_depth_duration_MTurk/v2_DepthDuration_HTML.html#286,286,1366,657,1366,768,9-18-2022,13-12-35,137,depth_duration_stimuli/000109_2014-05-14_23-41-52_260595134347_rgbf000035-resize_9/000109_2014-05-14_23-41-52_260595134347_rgbf000035-resize_9-target.png,250,1.3545,1,4458,256,meters,jsons/v1_VE250_randls_26.json,854001,1307146,24,Woman
137,130543,DepthScenes,duration_manipulation_targetAtFixation,jsons/v1_VE250_randls_26.json,http://54.235.29.9/FacialAge/BNav_EC2/DepthDuration/v2_depth_duration_MTurk/v2_DepthDuration_HTML.html#286,286,1366,657,1366,768,9-18-2022,13-12-35,138,depth_duration_stimuli/000692_2014-06-08_13-09-42_260595134347_rgbf000199-resize_2/000692_2014-06-08_13-09-42_260595134347_rgbf000199-resize_2-target.png,250,3.661,1,5001,246,meters,jsons/v1_VE250_randls_26.json,854001,1307146,24,Woman
138,130543,DepthScenes,duration_manipulation_targetAtFixation,jsons/v1_VE250_randls_26.json,http://54.235.29.9/FacialAge/BNav_EC2/DepthDuration/v2_depth_duration_MTurk/v2_DepthDuration_HTML.html#286,286,1366,657,1366,768,9-18-2022,13-12-35,139,depth_duration_stimuli/001094_2014-06-15_17-36-00_260595134347_rgbf000205-resize_0/001094_2014-06-15_17-36-00_260595134347_rgbf000205-resize_0-target.png,250,4.2175,0,3222,242,meters,jsons/v1_VE250_randls_26.json,854001,1307146,24,Woman
139,130543,DepthScenes,duration_manipulation_targetAtFixation,jsons/v1_VE250_randls_26.json,http://54.235.29.9/FacialAge/BNav_EC2/DepthDuration/v2_depth_duration_MTurk/v2_DepthDuration_HTML.html#286,286,1366,657,1366,768,9-18-2022,13-12-35,140,depth_duration_stimuli/002905_2014-06-03_18-04-43_094959634447_rgbf000151-resize_2/002905_2014-06-03_18-04-43_094959634447_rgbf000151-resize_2-target.png,250,2.0295,1,6402,243,meters,jsons/v1_VE250_randls_26.json,854001,1307146,24,Woman
140,130543,DepthScenes,duration_manipulation_targetAtFixation,jsons/v1_VE250_randls_26.json,http://54.235.29.9/FacialAge/BNav_EC2/DepthDuration/v2_depth_duration_MTurk/v2_DepthDuration_HTML.html#286,286,1366,657,1366,768,9-18-2022,13-12-35,141,depth_duration_stimuli/003423_2014-05-21_10-23-26_094959634447_rgbf002665-resize_2/003423_2014-05-21_10-23-26_094959634447_rgbf002665-resize_2-target.png,250,3.2575,1,3452,256,meters,jsons/v1_VE250_randls_26.json,854001,1307146,24,Woman
141,130543,DepthScenes,duration_manipulation_targetAtFixation,jsons/v1_VE250_randls_26.json,http://54.235.29.9/FacialAge/BNav_EC2/DepthDuration/v2_depth_duration_MTurk/v2_DepthDuration_HTML.html#286,286,1366,657,1366,768,9-18-2022,13-12-35,142,depth_duration_stimuli/002988_2014-06-15_12-24-20_094959634447_rgbf000150-resize_1/002988_2014-06-15_12-24-20_094959634447_rgbf000150-resize_1-target.png,250,4.7669999999999995,1,4027,246,meters,jsons/v1_VE250_randls_26.json,854001,1307146,24,Woman
142,130543,DepthScenes,duration_manipulation_targetAtFixation,jsons/v1_VE250_randls_26.json,http://54.235.29.9/FacialAge/BNav_EC2/DepthDuration/v2_depth_duration_MTurk/v2_DepthDuration_HTML.html#286,286,1366,657,1366,768,9-18-2022,13-12-35,143,depth_duration_stimuli/001052_2014-06-08_18-24-54_260595134347_rgbf000130-resize_1/001052_2014-06-08_18-24-54_260595134347_rgbf000130-resize_1-target.png,250,4.1045,1,3617,238,meters,jsons/v1_VE250_randls_26.json,854001,1307146,24,Woman
143,130543,DepthScenes,duration_manipulation_targetAtFixation,jsons/v1_VE250_randls_26.json,http://54.235.29.9/FacialAge/BNav_EC2/DepthDuration/v2_depth_duration_MTurk/v2_DepthDuration_HTML.html#286,286,1366,657,1366,768,9-18-2022,13-12-35,144,depth_duration_stimuli/001164_2014-06-17_15-35-46_260595134347_rgbf000085-resize_3/001164_2014-06-17_15-35-46_260595134347_rgbf000085-resize_3-target.png,250,2.354,1,3895,237,meters,jsons/v1_VE250_randls_26.json,854001,1307146,24,Woman
144,130543,DepthScenes,duration_manipulation_targetAtFixation,jsons/v1_VE250_randls_26.json,http://54.235.29.9/FacialAge/BNav_EC2/DepthDuration/v2_depth_duration_MTurk/v2_DepthDuration_HTML.html#286,286,1366,657,1366,768,9-18-2022,13-12-35,145,depth_duration_stimuli/001136_2014-06-17_15-19-41_260595134347_rgbf000076-resize_3/001136_2014-06-17_15-19-41_260595134347_rgbf000076-resize_3-target.png,250,1.8655,0,5137,234,meters,jsons/v1_VE250_randls_26.json,854001,1307146,24,Woman
145,130543,DepthScenes,duration_manipulation_targetAtFixation,jsons/v1_VE250_randls_26.json,http://54.235.29.9/FacialAge/BNav_EC2/DepthDuration/v2_depth_duration_MTurk/v2_DepthDuration_HTML.html#286,286,1366,657,1366,768,9-18-2022,13-12-35,146,depth_duration_stimuli/001498_2014-06-19_17-45-14_260595134347_rgbf000129-resize_4/001498_2014-06-19_17-45-14_260595134347_rgbf000129-resize-original.jpg,250,1.4075,0,3074,248,meters,jsons/v1_VE250_randls_26.json,854001,1307146,24,Woman
146,130543,DepthScenes,duration_manipulation_targetAtFixation,jsons/v1_VE250_randls_26.json,http://54.235.29.9/FacialAge/BNav_EC2/DepthDuration/v2_depth_duration_MTurk/v2_DepthDuration_HTML.html#286,286,1366,657,1366,768,9-18-2022,13-12-35,147,depth_duration_stimuli/002272_2014-06-28_18-53-56_260595134347_rgbf000067-resize_2/002272_2014-06-28_18-53-56_260595134347_rgbf000067-resize_2-target.png,250,1.138,1,2974,256,meters,jsons/v1_VE250_randls_26.json,854001,1307146,24,Woman
147,130543,DepthScenes,duration_manipulation_targetAtFixation,jsons/v1_VE250_randls_26.json,http://54.235.29.9/FacialAge/BNav_EC2/DepthDuration/v2_depth_duration_MTurk/v2_DepthDuration_HTML.html#286,286,1366,657,1366,768,9-18-2022,13-12-35,148,depth_duration_stimuli/001571_2014-06-20_17-21-32_260595134347_rgbf000089-resize_1/001571_2014-06-20_17-21-32_260595134347_rgbf000089-resize_1-target.png,250,1.86,0,3155,245,meters,jsons/v1_VE250_randls_26.json,854001,1307146,24,Woman
148,130543,DepthScenes,duration_manipulation_targetAtFixation,jsons/v1_VE250_randls_26.json,http://54.235.29.9/FacialAge/BNav_EC2/DepthDuration/v2_depth_duration_MTurk/v2_DepthDuration_HTML.html#286,286,1366,657,1366,768,9-18-2022,13-12-35,149,depth_duration_stimuli/000447_2014-06-08_16-15-46_260595134347_rgbf000130-resize_1/000447_2014-06-08_16-15-46_260595134347_rgbf000130-resize_1-target.png,250,4.479,1,3341,254,meters,jsons/v1_VE250_randls_26.json,854001,1307146,24,Woman
149,130543,DepthScenes,duration_manipulation_targetAtFixation,jsons/v1_VE250_randls_26.json,http://54.235.29.9/FacialAge/BNav_EC2/DepthDuration/v2_depth_duration_MTurk/v2_DepthDuration_HTML.html#286,286,1366,657,1366,768,9-18-2022,13-12-35,150,depth_duration_stimuli/001447_2014-06-19_17-00-32_260595134347_rgbf000082-resize_5/001447_2014-06-19_17-00-32_260595134347_rgbf000082-resize_5-target.png,250,4.13775,1,2849,285,meters,jsons/v1_VE250_randls_26.json,854001,1307146,24,Woman
150,130543,DepthScenes,duration_manipulation_targetAtFixation,jsons/v1_VE250_randls_26.json,http://54.235.29.9/FacialAge/BNav_EC2/DepthDuration/v2_depth_duration_MTurk/v2_DepthDuration_HTML.html#286,286,1366,657,1366,768,9-18-2022,13-12-35,151,depth_duration_stimuli/000758_2014-06-08_22-05-08_260595134347_rgbf000085-resize_0/000758_2014-06-08_22-05-08_260595134347_rgbf000085-resize_0-target.png,250,3.3810000000000002,1,6927,261,meters,jsons/v1_VE250_randls_26.json,854001,1307146,24,Woman
151,130543,DepthScenes,duration_manipulation_targetAtFixation,jsons/v1_VE250_randls_26.json,http://54.235.29.9/FacialAge/BNav_EC2/DepthDuration/v2_depth_duration_MTurk/v2_DepthDuration_HTML.html#286,286,1366,657,1366,768,9-18-2022,13-12-35,152,depth_duration_stimuli/000854_2014-06-09_19-43-13_260595134347_rgbf000066-resize_0/000854_2014-06-09_19-43-13_260595134347_rgbf000066-resize_0-target.png,250,3.068,1,2948,244,meters,jsons/v1_VE250_randls_26.json,854001,1307146,24,Woman
152,130543,DepthScenes,duration_manipulation_targetAtFixation,jsons/v1_VE250_randls_26.json,http://54.235.29.9/FacialAge/BNav_EC2/DepthDuration/v2_depth_duration_MTurk/v2_DepthDuration_HTML.html#286,286,1366,657,1366,768,9-18-2022,13-12-35,153,depth_duration_stimuli/002509_2014-06-24_13-19-22_094959634447_rgbf000077-resize_0/002509_2014-06-24_13-19-22_094959634447_rgbf000077-resize_0-target.png,250,1.3065,1,3327,253,meters,jsons/v1_VE250_randls_26.json,854001,1307146,24,Woman
153,130543,DepthScenes,duration_manipulation_targetAtFixation,jsons/v1_VE250_randls_26.json,http://54.235.29.9/FacialAge/BNav_EC2/DepthDuration/v2_depth_duration_MTurk/v2_DepthDuration_HTML.html#286,286,1366,657,1366,768,9-18-2022,13-12-35,154,depth_duration_stimuli/003338_2014-05-20_11-01-23_094959634447_rgbf000051-resize_6/003338_2014-05-20_11-01-23_094959634447_rgbf000051-resize_6-target.png,250,1.693,1,3579,240,meters,jsons/v1_VE250_randls_26.json,854001,1307146,24,Woman
154,130543,DepthScenes,duration_manipulation_targetAtFixation,jsons/v1_VE250_randls_26.json,http://54.235.29.9/FacialAge/BNav_EC2/DepthDuration/v2_depth_duration_MTurk/v2_DepthDuration_HTML.html#286,286,1366,657,1366,768,9-18-2022,13-12-35,155,depth_duration_stimuli/002279_2014-06-28_18-55-32_260595134347_rgbf000040-resize_5/002279_2014-06-28_18-55-32_260595134347_rgbf000040-resize_5-target.png,250,1.5043333333333,1,3442,253,meters,jsons/v1_VE250_randls_26.json,854001,1307146,24,Woman
155,130543,DepthScenes,duration_manipulation_targetAtFixation,jsons/v1_VE250_randls_26.json,http://54.235.29.9/FacialAge/BNav_EC2/DepthDuration/v2_depth_duration_MTurk/v2_DepthDuration_HTML.html#286,286,1366,657,1366,768,9-18-2022,13-12-35,156,depth_duration_stimuli/000635_2014-06-08_16-38-42_260595134347_rgbf000106-resize_1/000635_2014-06-08_16-38-42_260595134347_rgbf000106-resize_1-target.png,250,2.074,0,3571,239,meters,jsons/v1_VE250_randls_26.json,854001,1307146,24,Woman
156,130543,DepthScenes,duration_manipulation_targetAtFixation,jsons/v1_VE250_randls_26.json,http://54.235.29.9/FacialAge/BNav_EC2/DepthDuration/v2_depth_duration_MTurk/v2_DepthDuration_HTML.html#286,286,1366,657,1366,768,9-18-2022,13-12-35,157,depth_duration_stimuli/002039_2014-06-24_20-22-38_260595134347_rgbf000084-resize_1/002039_2014-06-24_20-22-38_260595134347_rgbf000084-resize_1-target.png,250,4.408,1,3463,237,meters,jsons/v1_VE250_randls_26.json,854001,1307146,24,Woman
157,130543,DepthScenes,duration_manipulation_targetAtFixation,jsons/v1_VE250_randls_26.json,http://54.235.29.9/FacialAge/BNav_EC2/DepthDuration/v2_depth_duration_MTurk/v2_DepthDuration_HTML.html#286,286,1366,657,1366,768,9-18-2022,13-12-35,158,depth_duration_stimuli/002103_2014-06-25_20-00-40_260595134347_rgbf000049-resize_0/002103_2014-06-25_20-00-40_260595134347_rgbf000049-resize_0-target.png,250,4.105,1,3001,256,meters,jsons/v1_VE250_randls_26.json,854001,1307146,24,Woman
158,130543,DepthScenes,duration_manipulation_targetAtFixation,jsons/v1_VE250_randls_26.json,http://54.235.29.9/FacialAge/BNav_EC2/DepthDuration/v2_depth_duration_MTurk/v2_DepthDuration_HTML.html#286,286,1366,657,1366,768,9-18-2022,13-12-35,159,depth_duration_stimuli/000009_2014-05-26_14-32-05_260595134347_rgbf000034-resize_3/000009_2014-05-26_14-32-05_260595134347_rgbf000034-resize_3-target.png,250,3.8715,1,5129,248,meters,jsons/v1_VE250_randls_26.json,854001,1307146,24,Woman
159,130543,DepthScenes,duration_manipulation_targetAtFixation,jsons/v1_VE250_randls_26.json,http://54.235.29.9/FacialAge/BNav_EC2/DepthDuration/v2_depth_duration_MTurk/v2_DepthDuration_HTML.html#286,286,1366,657,1366,768,9-18-2022,13-12-35,160,depth_duration_stimuli/001828_2014-06-26_21-40-03_260595134347_rgbf000024-resize_0/001828_2014-06-26_21-40-03_260595134347_rgbf000024-resize_0-target.png,250,4.8260000000000005,1,3276,234,meters,jsons/v1_VE250_randls_26.json,854001,1307146,24,Woman
160,130543,DepthScenes,duration_manipulation_targetAtFixation,jsons/v1_VE250_randls_26.json,http://54.235.29.9/FacialAge/BNav_EC2/DepthDuration/v2_depth_duration_MTurk/v2_DepthDuration_HTML.html#286,286,1366,657,1366,768,9-18-2022,13-12-35,161,depth_duration_stimuli/001016_2014-06-09_16-16-10_260595134347_rgbf000112-resize_5/001016_2014-06-09_16-16-10_260595134347_rgbf000112-resize_5-target.png,250,1.6565,0,3840,252,meters,jsons/v1_VE250_randls_26.json,854001,1307146,24,Woman
161,130543,DepthScenes,duration_manipulation_targetAtFixation,jsons/v1_VE250_randls_26.json,http://54.235.29.9/FacialAge/BNav_EC2/DepthDuration/v2_depth_duration_MTurk/v2_DepthDuration_HTML.html#286,286,1366,657,1366,768,9-18-2022,13-12-35,162,depth_duration_stimuli/002340_2014-06-28_20-05-46_260595134347_rgbf000113-resize_0/002340_2014-06-28_20-05-46_260595134347_rgbf000113-resize_0-target.png,250,2.4735,1,3094,257,meters,jsons/v1_VE250_randls_26.json,854001,1307146,24,Woman
162,130543,DepthScenes,duration_manipulation_targetAtFixation,jsons/v1_VE250_randls_26.json,http://54.235.29.9/FacialAge/BNav_EC2/DepthDuration/v2_depth_duration_MTurk/v2_DepthDuration_HTML.html#286,286,1366,657,1366,768,9-18-2022,13-12-35,163,depth_duration_stimuli/000917_2014-06-09_22-45-29_260595134347_rgbf000149-resize_3/000917_2014-06-09_22-45-29_260595134347_rgbf000149-resize_3-target.png,250,4.1865,1,3458,236,meters,jsons/v1_VE250_randls_26.json,854001,1307146,24,Woman
163,130543,DepthScenes,duration_manipulation_targetAtFixation,jsons/v1_VE250_randls_26.json,http://54.235.29.9/FacialAge/BNav_EC2/DepthDuration/v2_depth_duration_MTurk/v2_DepthDuration_HTML.html#286,286,1366,657,1366,768,9-18-2022,13-12-35,164,depth_duration_stimuli/002323_2014-06-28_20-01-54_260595134347_rgbf000051-resize_4/002323_2014-06-28_20-01-54_260595134347_rgbf000051-resize_4-target.png,250,3.7310000000000003,1,3544,271,meters,jsons/v1_VE250_randls_26.json,854001,1307146,24,Woman
