,subjID,experimentName,versionName,sequenceName,url,selected_row,windowWidth,windowHeight,screenWidth,screenHeight,startDate,startTime,trial,stimulus,duration,actual_depth,depth_estimate,trial_RT,log_sceneDuration,unitSelection,seq_filepath,experimentTime,totalTime,age,gender
0,132201,DepthScenes,duration_manipulation_targetAtFixation,jsons/VE125_randls_8.json,http://54.235.29.9/FacialAge/BNav_EC2/DepthDuration/v2_depth_duration_MTurk/v2_DepthDuration_HTML.html#442,442,1280,609,1280,720,8-29-2022,12-33-2,1,depth_duration_stimuli/000788_2014-06-08_22-34-36_260595134347_rgbf000131-resize_1/000788_2014-06-08_22-34-36_260595134347_rgbf000131-resize_1-target.png,125,3.359,4,3498,126,meters,jsons/VE125_randls_8.json,1596422,2961987,37,Woman
1,132201,DepthScenes,duration_manipulation_targetAtFixation,jsons/VE125_randls_8.json,http://54.235.29.9/FacialAge/BNav_EC2/DepthDuration/v2_depth_duration_MTurk/v2_DepthDuration_HTML.html#442,442,1280,609,1280,720,8-29-2022,12-33-2,2,depth_duration_stimuli/001235_2014-06-17_16-37-36_260595134347_rgbf000084-resize_4/001235_2014-06-17_16-37-36_260595134347_rgbf000084-resize_4-target.png,125,3.6605,2,2713,125,meters,jsons/VE125_randls_8.json,1596422,2961987,37,Woman
2,132201,DepthScenes,duration_manipulation_targetAtFixation,jsons/VE125_randls_8.json,http://54.235.29.9/FacialAge/BNav_EC2/DepthDuration/v2_depth_duration_MTurk/v2_DepthDuration_HTML.html#442,442,1280,609,1280,720,8-29-2022,12-33-2,3,depth_duration_stimuli/001175_2014-06-17_15-45-55_260595134347_rgbf000129-resize_4/001175_2014-06-17_15-45-55_260595134347_rgbf000129-resize_4-target.png,125,4.255,5,3106,123,meters,jsons/VE125_randls_8.json,1596422,2961987,37,Woman
3,132201,DepthScenes,duration_manipulation_targetAtFixation,jsons/VE125_randls_8.json,http://54.235.29.9/FacialAge/BNav_EC2/DepthDuration/v2_depth_duration_MTurk/v2_DepthDuration_HTML.html#442,442,1280,609,1280,720,8-29-2022,12-33-2,4,depth_duration_stimuli/003490_2014-05-21_15-50-11_094959634447_rgbf000101-resize_3/003490_2014-05-21_15-50-11_094959634447_rgbf000101-resize_3-target.png,125,3.6445,4,2774,129,meters,jsons/VE125_randls_8.json,1596422,2961987,37,Woman
4,132201,DepthScenes,duration_manipulation_targetAtFixation,jsons/VE125_randls_8.json,http://54.235.29.9/FacialAge/BNav_EC2/DepthDuration/v2_depth_duration_MTurk/v2_DepthDuration_HTML.html#442,442,1280,609,1280,720,8-29-2022,12-33-2,5,depth_duration_stimuli/000810_2014-06-08_17-20-01_260595134347_rgbf000105-resize_0/000810_2014-06-08_17-20-01_260595134347_rgbf000105-resize_0-target.png,125,1.4865,5,3013,119,meters,jsons/VE125_randls_8.json,1596422,2961987,37,Woman
5,132201,DepthScenes,duration_manipulation_targetAtFixation,jsons/VE125_randls_8.json,http://54.235.29.9/FacialAge/BNav_EC2/DepthDuration/v2_depth_duration_MTurk/v2_DepthDuration_HTML.html#442,442,1280,609,1280,720,8-29-2022,12-33-2,6,depth_duration_stimuli/001214_2014-06-17_16-13-55_260595134347_rgbf000111-resize_0/001214_2014-06-17_16-13-55_260595134347_rgbf000111-resize_0-target.png,125,2.6505,6,2385,118,meters,jsons/VE125_randls_8.json,1596422,2961987,37,Woman
6,132201,DepthScenes,duration_manipulation_targetAtFixation,jsons/VE125_randls_8.json,http://54.235.29.9/FacialAge/BNav_EC2/DepthDuration/v2_depth_duration_MTurk/v2_DepthDuration_HTML.html#442,442,1280,609,1280,720,8-29-2022,12-33-2,7,depth_duration_stimuli/003070_2014-06-15_14-58-27_094959634447_rgbf000150-resize_3/003070_2014-06-15_14-58-27_094959634447_rgbf000150-resize_3-target.png,125,2.9415,5,2414,117,meters,jsons/VE125_randls_8.json,1596422,2961987,37,Woman
7,132201,DepthScenes,duration_manipulation_targetAtFixation,jsons/VE125_randls_8.json,http://54.235.29.9/FacialAge/BNav_EC2/DepthDuration/v2_depth_duration_MTurk/v2_DepthDuration_HTML.html#442,442,1280,609,1280,720,8-29-2022,12-33-2,8,depth_duration_stimuli/000943_2014-06-09_19-31-07_260595134347_rgbf000128-resize_1/000943_2014-06-09_19-31-07_260595134347_rgbf000128-resize_1-target.png,125,1.9765,4,2464,129,meters,jsons/VE125_randls_8.json,1596422,2961987,37,Woman
8,132201,DepthScenes,duration_manipulation_targetAtFixation,jsons/VE125_randls_8.json,http://54.235.29.9/FacialAge/BNav_EC2/DepthDuration/v2_depth_duration_MTurk/v2_DepthDuration_HTML.html#442,442,1280,609,1280,720,8-29-2022,12-33-2,9,depth_duration_stimuli/000469_2014-06-09_19-42-10_260595134347_rgbf000081-resize_1/000469_2014-06-09_19-42-10_260595134347_rgbf000081-resize_1-target.png,125,1.652,4,2609,127,meters,jsons/VE125_randls_8.json,1596422,2961987,37,Woman
9,132201,DepthScenes,duration_manipulation_targetAtFixation,jsons/VE125_randls_8.json,http://54.235.29.9/FacialAge/BNav_EC2/DepthDuration/v2_depth_duration_MTurk/v2_DepthDuration_HTML.html#442,442,1280,609,1280,720,8-29-2022,12-33-2,10,depth_duration_stimuli/000483_2014-06-09_20-41-45_260595134347_rgbf000116-resize_4/000483_2014-06-09_20-41-45_260595134347_rgbf000116-resize_4-target.png,125,1.337,5,2609,132,meters,jsons/VE125_randls_8.json,1596422,2961987,37,Woman
10,132201,DepthScenes,duration_manipulation_targetAtFixation,jsons/VE125_randls_8.json,http://54.235.29.9/FacialAge/BNav_EC2/DepthDuration/v2_depth_duration_MTurk/v2_DepthDuration_HTML.html#442,442,1280,609,1280,720,8-29-2022,12-33-2,11,depth_duration_stimuli/001810_2014-06-26_20-51-35_260595134347_rgbf000040-resize_3/001810_2014-06-26_20-51-35_260595134347_rgbf000040-resize_3-target.png,125,2.2525,0,2805,111,meters,jsons/VE125_randls_8.json,1596422,2961987,37,Woman
11,132201,DepthScenes,duration_manipulation_targetAtFixation,jsons/VE125_randls_8.json,http://54.235.29.9/FacialAge/BNav_EC2/DepthDuration/v2_depth_duration_MTurk/v2_DepthDuration_HTML.html#442,442,1280,609,1280,720,8-29-2022,12-33-2,12,depth_duration_stimuli/003010_2014-06-15_12-54-35_094959634447_rgbf000112-resize_0/003010_2014-06-15_12-54-35_094959634447_rgbf000112-resize_0-target.png,125,3.1185,5,2364,128,meters,jsons/VE125_randls_8.json,1596422,2961987,37,Woman
12,132201,DepthScenes,duration_manipulation_targetAtFixation,jsons/VE125_randls_8.json,http://54.235.29.9/FacialAge/BNav_EC2/DepthDuration/v2_depth_duration_MTurk/v2_DepthDuration_HTML.html#442,442,1280,609,1280,720,8-29-2022,12-33-2,13,depth_duration_stimuli/000569_2014-06-09_22-51-47_260595134347_rgbf000141-resize_3/000569_2014-06-09_22-51-47_260595134347_rgbf000141-resize-original.jpg,125,4.512,0,20483,119,meters,jsons/VE125_randls_8.json,1596422,2961987,37,Woman
13,132201,DepthScenes,duration_manipulation_targetAtFixation,jsons/VE125_randls_8.json,http://54.235.29.9/FacialAge/BNav_EC2/DepthDuration/v2_depth_duration_MTurk/v2_DepthDuration_HTML.html#442,442,1280,609,1280,720,8-29-2022,12-33-2,14,depth_duration_stimuli/000682_2014-06-08_23-14-58_260595134347_rgbf000041-resize_5/000682_2014-06-08_23-14-58_260595134347_rgbf000041-resize_5-target.png,125,2.7239999999999998,4,2626,124,meters,jsons/VE125_randls_8.json,1596422,2961987,37,Woman
14,132201,DepthScenes,duration_manipulation_targetAtFixation,jsons/VE125_randls_8.json,http://54.235.29.9/FacialAge/BNav_EC2/DepthDuration/v2_depth_duration_MTurk/v2_DepthDuration_HTML.html#442,442,1280,609,1280,720,8-29-2022,12-33-2,15,depth_duration_stimuli/001650_2014-06-20_12-09-00_260595134347_rgbf000087-resize_3/001650_2014-06-20_12-09-00_260595134347_rgbf000087-resize_3-target.png,125,1.9505,2,2434,129,meters,jsons/VE125_randls_8.json,1596422,2961987,37,Woman
15,132201,DepthScenes,duration_manipulation_targetAtFixation,jsons/VE125_randls_8.json,http://54.235.29.9/FacialAge/BNav_EC2/DepthDuration/v2_depth_duration_MTurk/v2_DepthDuration_HTML.html#442,442,1280,609,1280,720,8-29-2022,12-33-2,16,depth_duration_stimuli/002630_2014-06-24_14-47-50_094959634447_rgbf000055-resize_1/002630_2014-06-24_14-47-50_094959634447_rgbf000055-resize_1-target.png,125,3.0095,5,3548,122,meters,jsons/VE125_randls_8.json,1596422,2961987,37,Woman
16,132201,DepthScenes,duration_manipulation_targetAtFixation,jsons/VE125_randls_8.json,http://54.235.29.9/FacialAge/BNav_EC2/DepthDuration/v2_depth_duration_MTurk/v2_DepthDuration_HTML.html#442,442,1280,609,1280,720,8-29-2022,12-33-2,17,depth_duration_stimuli/002758_2014-06-22_19-11-20_094959634447_rgbf000128-resize_1/002758_2014-06-22_19-11-20_094959634447_rgbf000128-resize_1-target.png,125,2.555,3,2552,134,meters,jsons/VE125_randls_8.json,1596422,2961987,37,Woman
17,132201,DepthScenes,duration_manipulation_targetAtFixation,jsons/VE125_randls_8.json,http://54.235.29.9/FacialAge/BNav_EC2/DepthDuration/v2_depth_duration_MTurk/v2_DepthDuration_HTML.html#442,442,1280,609,1280,720,8-29-2022,12-33-2,18,depth_duration_stimuli/001133_2014-06-17_14-49-16_260595134347_rgbf000100-resize_0/001133_2014-06-17_14-49-16_260595134347_rgbf000100-resize_0-target.png,125,4.2115,5,559888,129,meters,jsons/VE125_randls_8.json,1596422,2961987,37,Woman
18,132201,DepthScenes,duration_manipulation_targetAtFixation,jsons/VE125_randls_8.json,http://54.235.29.9/FacialAge/BNav_EC2/DepthDuration/v2_depth_duration_MTurk/v2_DepthDuration_HTML.html#442,442,1280,609,1280,720,8-29-2022,12-33-2,19,depth_duration_stimuli/001132_2014-06-17_14-48-54_260595134347_rgbf000100-resize_2/001132_2014-06-17_14-48-54_260595134347_rgbf000100-resize_2-target.png,125,3.753,6,5751,122,meters,jsons/VE125_randls_8.json,1596422,2961987,37,Woman
19,132201,DepthScenes,duration_manipulation_targetAtFixation,jsons/VE125_randls_8.json,http://54.235.29.9/FacialAge/BNav_EC2/DepthDuration/v2_depth_duration_MTurk/v2_DepthDuration_HTML.html#442,442,1280,609,1280,720,8-29-2022,12-33-2,20,depth_duration_stimuli/001059_2014-06-08_21-53-27_260595134347_rgbf000061-resize_4/001059_2014-06-08_21-53-27_260595134347_rgbf000061-resize_4-target.png,125,2.4185,5,4010,125,meters,jsons/VE125_randls_8.json,1596422,2961987,37,Woman
20,132201,DepthScenes,duration_manipulation_targetAtFixation,jsons/VE125_randls_8.json,http://54.235.29.9/FacialAge/BNav_EC2/DepthDuration/v2_depth_duration_MTurk/v2_DepthDuration_HTML.html#442,442,1280,609,1280,720,8-29-2022,12-33-2,21,depth_duration_stimuli/001032_2014-06-08_13-23-17_260595134347_rgbf000021-resize_3/001032_2014-06-08_13-23-17_260595134347_rgbf000021-resize_3-target.png,125,3.2725,5,4248,117,meters,jsons/VE125_randls_8.json,1596422,2961987,37,Woman
21,132201,DepthScenes,duration_manipulation_targetAtFixation,jsons/VE125_randls_8.json,http://54.235.29.9/FacialAge/BNav_EC2/DepthDuration/v2_depth_duration_MTurk/v2_DepthDuration_HTML.html#442,442,1280,609,1280,720,8-29-2022,12-33-2,22,depth_duration_stimuli/000736_2014-06-08_18-24-15_260595134347_rgbf000206-resize_3/000736_2014-06-08_18-24-15_260595134347_rgbf000206-resize_3-target.png,125,3.515,4,3903,113,meters,jsons/VE125_randls_8.json,1596422,2961987,37,Woman
22,132201,DepthScenes,duration_manipulation_targetAtFixation,jsons/VE125_randls_8.json,http://54.235.29.9/FacialAge/BNav_EC2/DepthDuration/v2_depth_duration_MTurk/v2_DepthDuration_HTML.html#442,442,1280,609,1280,720,8-29-2022,12-33-2,23,depth_duration_stimuli/000137_2014-05-20_17-04-49_260595134347_rgbf000120-resize_1/000137_2014-05-20_17-04-49_260595134347_rgbf000120-resize_1-target.png,125,3.786,6,3524,120,meters,jsons/VE125_randls_8.json,1596422,2961987,37,Woman
23,132201,DepthScenes,duration_manipulation_targetAtFixation,jsons/VE125_randls_8.json,http://54.235.29.9/FacialAge/BNav_EC2/DepthDuration/v2_depth_duration_MTurk/v2_DepthDuration_HTML.html#442,442,1280,609,1280,720,8-29-2022,12-33-2,24,depth_duration_stimuli/000493_2014-06-09_21-01-18_260595134347_rgbf000196-resize_3/000493_2014-06-09_21-01-18_260595134347_rgbf000196-resize_3-target.png,125,3.44,0,89831,121,meters,jsons/VE125_randls_8.json,1596422,2961987,37,Woman
24,132201,DepthScenes,duration_manipulation_targetAtFixation,jsons/VE125_randls_8.json,http://54.235.29.9/FacialAge/BNav_EC2/DepthDuration/v2_depth_duration_MTurk/v2_DepthDuration_HTML.html#442,442,1280,609,1280,720,8-29-2022,12-33-2,25,depth_duration_stimuli/000191_2014-05-12_17-07-38_260595134347_rgbf000199-resize_0/000191_2014-05-12_17-07-38_260595134347_rgbf000199-resize_0-target.png,125,3.7995,7,162113,125,meters,jsons/VE125_randls_8.json,1596422,2961987,37,Woman
25,132201,DepthScenes,duration_manipulation_targetAtFixation,jsons/VE125_randls_8.json,http://54.235.29.9/FacialAge/BNav_EC2/DepthDuration/v2_depth_duration_MTurk/v2_DepthDuration_HTML.html#442,442,1280,609,1280,720,8-29-2022,12-33-2,26,depth_duration_stimuli/001244_2014-06-17_16-47-45_260595134347_rgbf000030-resize_4/001244_2014-06-17_16-47-45_260595134347_rgbf000030-resize_4-target.png,125,2.0425,0,20954,132,meters,jsons/VE125_randls_8.json,1596422,2961987,37,Woman
26,132201,DepthScenes,duration_manipulation_targetAtFixation,jsons/VE125_randls_8.json,http://54.235.29.9/FacialAge/BNav_EC2/DepthDuration/v2_depth_duration_MTurk/v2_DepthDuration_HTML.html#442,442,1280,609,1280,720,8-29-2022,12-33-2,27,depth_duration_stimuli/003495_2014-05-21_16-01-51_094959634447_rgbf000100-resize_3/003495_2014-05-21_16-01-51_094959634447_rgbf000100-resize_3-target.png,125,1.6255,3,3734,135,meters,jsons/VE125_randls_8.json,1596422,2961987,37,Woman
27,132201,DepthScenes,duration_manipulation_targetAtFixation,jsons/VE125_randls_8.json,http://54.235.29.9/FacialAge/BNav_EC2/DepthDuration/v2_depth_duration_MTurk/v2_DepthDuration_HTML.html#442,442,1280,609,1280,720,8-29-2022,12-33-2,28,depth_duration_stimuli/002763_2014-06-22_19-13-10_094959634447_rgbf000075-resize_4/002763_2014-06-22_19-13-10_094959634447_rgbf000075-resize_4-target.png,125,1.68375,3,2523,134,meters,jsons/VE125_randls_8.json,1596422,2961987,37,Woman
28,132201,DepthScenes,duration_manipulation_targetAtFixation,jsons/VE125_randls_8.json,http://54.235.29.9/FacialAge/BNav_EC2/DepthDuration/v2_depth_duration_MTurk/v2_DepthDuration_HTML.html#442,442,1280,609,1280,720,8-29-2022,12-33-2,29,depth_duration_stimuli/002209_2014-06-28_18-36-10_260595134347_rgbf000051-resize_1/002209_2014-06-28_18-36-10_260595134347_rgbf000051-resize_1-target.png,125,2.057,3,2227,128,meters,jsons/VE125_randls_8.json,1596422,2961987,37,Woman
29,132201,DepthScenes,duration_manipulation_targetAtFixation,jsons/VE125_randls_8.json,http://54.235.29.9/FacialAge/BNav_EC2/DepthDuration/v2_depth_duration_MTurk/v2_DepthDuration_HTML.html#442,442,1280,609,1280,720,8-29-2022,12-33-2,30,depth_duration_stimuli/000375_2014-06-08_11-17-29_260595134347_rgbf000133-resize_2/000375_2014-06-08_11-17-29_260595134347_rgbf000133-resize-original.jpg,125,4.718,0,9762,118,meters,jsons/VE125_randls_8.json,1596422,2961987,37,Woman
30,132201,DepthScenes,duration_manipulation_targetAtFixation,jsons/VE125_randls_8.json,http://54.235.29.9/FacialAge/BNav_EC2/DepthDuration/v2_depth_duration_MTurk/v2_DepthDuration_HTML.html#442,442,1280,609,1280,720,8-29-2022,12-33-2,31,depth_duration_stimuli/001570_2014-06-20_17-21-09_260595134347_rgbf000135-resize_4/001570_2014-06-20_17-21-09_260595134347_rgbf000135-resize_4-target.png,125,4.467,5,2424,125,meters,jsons/VE125_randls_8.json,1596422,2961987,37,Woman
31,132201,DepthScenes,duration_manipulation_targetAtFixation,jsons/VE125_randls_8.json,http://54.235.29.9/FacialAge/BNav_EC2/DepthDuration/v2_depth_duration_MTurk/v2_DepthDuration_HTML.html#442,442,1280,609,1280,720,8-29-2022,12-33-2,32,depth_duration_stimuli/001392_2014-06-19_16-07-59_260595134347_rgbf000046-resize_1/001392_2014-06-19_16-07-59_260595134347_rgbf000046-resize_1-target.png,125,4.135,3,2761,132,meters,jsons/VE125_randls_8.json,1596422,2961987,37,Woman
32,132201,DepthScenes,duration_manipulation_targetAtFixation,jsons/VE125_randls_8.json,http://54.235.29.9/FacialAge/BNav_EC2/DepthDuration/v2_depth_duration_MTurk/v2_DepthDuration_HTML.html#442,442,1280,609,1280,720,8-29-2022,12-33-2,33,depth_duration_stimuli/000414_2014-06-04_19-49-13_260595134347_rgbf000044-resize_0/000414_2014-06-04_19-49-13_260595134347_rgbf000044-resize_0-target.png,125,4.329,4,2715,126,meters,jsons/VE125_randls_8.json,1596422,2961987,37,Woman
33,132201,DepthScenes,duration_manipulation_targetAtFixation,jsons/VE125_randls_8.json,http://54.235.29.9/FacialAge/BNav_EC2/DepthDuration/v2_depth_duration_MTurk/v2_DepthDuration_HTML.html#442,442,1280,609,1280,720,8-29-2022,12-33-2,34,depth_duration_stimuli/003129_2014-05-12_10-48-10_094959634447_rgbf000100-resize_0/003129_2014-05-12_10-48-10_094959634447_rgbf000100-resize_0-target.png,125,4.9305,3,2443,130,meters,jsons/VE125_randls_8.json,1596422,2961987,37,Woman
34,132201,DepthScenes,duration_manipulation_targetAtFixation,jsons/VE125_randls_8.json,http://54.235.29.9/FacialAge/BNav_EC2/DepthDuration/v2_depth_duration_MTurk/v2_DepthDuration_HTML.html#442,442,1280,609,1280,720,8-29-2022,12-33-2,35,depth_duration_stimuli/001417_2014-06-19_16-25-36_260595134347_rgbf000115-resize_5/001417_2014-06-19_16-25-36_260595134347_rgbf000115-resize_5-target.png,125,4.6255,4,2511,135,meters,jsons/VE125_randls_8.json,1596422,2961987,37,Woman
35,132201,DepthScenes,duration_manipulation_targetAtFixation,jsons/VE125_randls_8.json,http://54.235.29.9/FacialAge/BNav_EC2/DepthDuration/v2_depth_duration_MTurk/v2_DepthDuration_HTML.html#442,442,1280,609,1280,720,8-29-2022,12-33-2,36,depth_duration_stimuli/003081_2014-06-15_15-19-16_094959634447_rgbf000150-resize_1/003081_2014-06-15_15-19-16_094959634447_rgbf000150-resize_1-target.png,125,3.9125,3,2379,125,meters,jsons/VE125_randls_8.json,1596422,2961987,37,Woman
36,132201,DepthScenes,duration_manipulation_targetAtFixation,jsons/VE125_randls_8.json,http://54.235.29.9/FacialAge/BNav_EC2/DepthDuration/v2_depth_duration_MTurk/v2_DepthDuration_HTML.html#442,442,1280,609,1280,720,8-29-2022,12-33-2,37,depth_duration_stimuli/000929_2014-06-09_16-33-19_260595134347_rgbf000139-resize_0/000929_2014-06-09_16-33-19_260595134347_rgbf000139-resize_0-target.png,125,2.8680000000000003,4,2659,126,meters,jsons/VE125_randls_8.json,1596422,2961987,37,Woman
37,132201,DepthScenes,duration_manipulation_targetAtFixation,jsons/VE125_randls_8.json,http://54.235.29.9/FacialAge/BNav_EC2/DepthDuration/v2_depth_duration_MTurk/v2_DepthDuration_HTML.html#442,442,1280,609,1280,720,8-29-2022,12-33-2,38,depth_duration_stimuli/000457_2014-06-08_16-52-43_260595134347_rgbf000199-resize_1/000457_2014-06-08_16-52-43_260595134347_rgbf000199-resize_1-target.png,125,3.6489999999999996,0,41633,129,meters,jsons/VE125_randls_8.json,1596422,2961987,37,Woman
38,132201,DepthScenes,duration_manipulation_targetAtFixation,jsons/VE125_randls_8.json,http://54.235.29.9/FacialAge/BNav_EC2/DepthDuration/v2_depth_duration_MTurk/v2_DepthDuration_HTML.html#442,442,1280,609,1280,720,8-29-2022,12-33-2,39,depth_duration_stimuli/001066_2014-06-08_22-03-20_260595134347_rgbf000066-resize_4/001066_2014-06-08_22-03-20_260595134347_rgbf000066-resize_4-target.png,125,4.2330000000000005,4,2483,129,meters,jsons/VE125_randls_8.json,1596422,2961987,37,Woman
39,132201,DepthScenes,duration_manipulation_targetAtFixation,jsons/VE125_randls_8.json,http://54.235.29.9/FacialAge/BNav_EC2/DepthDuration/v2_depth_duration_MTurk/v2_DepthDuration_HTML.html#442,442,1280,609,1280,720,8-29-2022,12-33-2,40,depth_duration_stimuli/000742_2014-06-08_18-48-09_260595134347_rgbf000164-resize_4/000742_2014-06-08_18-48-09_260595134347_rgbf000164-resize_4-target.png,125,4.632,5,2380,120,meters,jsons/VE125_randls_8.json,1596422,2961987,37,Woman
40,132201,DepthScenes,duration_manipulation_targetAtFixation,jsons/VE125_randls_8.json,http://54.235.29.9/FacialAge/BNav_EC2/DepthDuration/v2_depth_duration_MTurk/v2_DepthDuration_HTML.html#442,442,1280,609,1280,720,8-29-2022,12-33-2,41,depth_duration_stimuli/000773_2014-06-08_22-24-54_260595134347_rgbf000093-resize_1/000773_2014-06-08_22-24-54_260595134347_rgbf000093-resize_1-target.png,125,4.973,3,2195,116,meters,jsons/VE125_randls_8.json,1596422,2961987,37,Woman
41,132201,DepthScenes,duration_manipulation_targetAtFixation,jsons/VE125_randls_8.json,http://54.235.29.9/FacialAge/BNav_EC2/DepthDuration/v2_depth_duration_MTurk/v2_DepthDuration_HTML.html#442,442,1280,609,1280,720,8-29-2022,12-33-2,42,depth_duration_stimuli/002414_2014-06-28_20-24-58_260595134347_rgbf000067-resize_4/002414_2014-06-28_20-24-58_260595134347_rgbf000067-resize_4-target.png,125,4.363,4,2112,132,meters,jsons/VE125_randls_8.json,1596422,2961987,37,Woman
42,132201,DepthScenes,duration_manipulation_targetAtFixation,jsons/VE125_randls_8.json,http://54.235.29.9/FacialAge/BNav_EC2/DepthDuration/v2_depth_duration_MTurk/v2_DepthDuration_HTML.html#442,442,1280,609,1280,720,8-29-2022,12-33-2,43,depth_duration_stimuli/002663_2014-06-13_15-50-26_094959634447_rgbf000075-resize_1/002663_2014-06-13_15-50-26_094959634447_rgbf000075-resize_1-target.png,125,4.7495,5,2188,132,meters,jsons/VE125_randls_8.json,1596422,2961987,37,Woman
43,132201,DepthScenes,duration_manipulation_targetAtFixation,jsons/VE125_randls_8.json,http://54.235.29.9/FacialAge/BNav_EC2/DepthDuration/v2_depth_duration_MTurk/v2_DepthDuration_HTML.html#442,442,1280,609,1280,720,8-29-2022,12-33-2,44,depth_duration_stimuli/000409_2014-06-04_19-23-33_260595134347_rgbf000067-resize_0/000409_2014-06-04_19-23-33_260595134347_rgbf000067-resize_0-target.png,125,3.7335,3,2453,113,meters,jsons/VE125_randls_8.json,1596422,2961987,37,Woman
44,132201,DepthScenes,duration_manipulation_targetAtFixation,jsons/VE125_randls_8.json,http://54.235.29.9/FacialAge/BNav_EC2/DepthDuration/v2_depth_duration_MTurk/v2_DepthDuration_HTML.html#442,442,1280,609,1280,720,8-29-2022,12-33-2,45,depth_duration_stimuli/000787_2014-06-08_22-33-53_260595134347_rgbf000175-resize_1/000787_2014-06-08_22-33-53_260595134347_rgbf000175-resize-original.jpg,125,4.784,0,2510,113,meters,jsons/VE125_randls_8.json,1596422,2961987,37,Woman
45,132201,DepthScenes,duration_manipulation_targetAtFixation,jsons/VE125_randls_8.json,http://54.235.29.9/FacialAge/BNav_EC2/DepthDuration/v2_depth_duration_MTurk/v2_DepthDuration_HTML.html#442,442,1280,609,1280,720,8-29-2022,12-33-2,46,depth_duration_stimuli/002788_2014-06-22_19-36-03_094959634447_rgbf000088-resize_2/002788_2014-06-22_19-36-03_094959634447_rgbf000088-resize_2-target.png,125,1.6465,4,2223,128,meters,jsons/VE125_randls_8.json,1596422,2961987,37,Woman
46,132201,DepthScenes,duration_manipulation_targetAtFixation,jsons/VE125_randls_8.json,http://54.235.29.9/FacialAge/BNav_EC2/DepthDuration/v2_depth_duration_MTurk/v2_DepthDuration_HTML.html#442,442,1280,609,1280,720,8-29-2022,12-33-2,47,depth_duration_stimuli/000749_2014-06-08_21-55-06_260595134347_rgbf000070-resize_2/000749_2014-06-08_21-55-06_260595134347_rgbf000070-resize_2-target.png,125,2.331,5,2134,124,meters,jsons/VE125_randls_8.json,1596422,2961987,37,Woman
47,132201,DepthScenes,duration_manipulation_targetAtFixation,jsons/VE125_randls_8.json,http://54.235.29.9/FacialAge/BNav_EC2/DepthDuration/v2_depth_duration_MTurk/v2_DepthDuration_HTML.html#442,442,1280,609,1280,720,8-29-2022,12-33-2,48,depth_duration_stimuli/002509_2014-06-24_13-19-22_094959634447_rgbf000077-resize_0/002509_2014-06-24_13-19-22_094959634447_rgbf000077-resize_0-target.png,125,1.3065,2,2081,120,meters,jsons/VE125_randls_8.json,1596422,2961987,37,Woman
48,132201,DepthScenes,duration_manipulation_targetAtFixation,jsons/VE125_randls_8.json,http://54.235.29.9/FacialAge/BNav_EC2/DepthDuration/v2_depth_duration_MTurk/v2_DepthDuration_HTML.html#442,442,1280,609,1280,720,8-29-2022,12-33-2,49,depth_duration_stimuli/003338_2014-05-20_11-01-23_094959634447_rgbf000051-resize_6/003338_2014-05-20_11-01-23_094959634447_rgbf000051-resize_6-target.png,125,1.693,3,1955,129,meters,jsons/VE125_randls_8.json,1596422,2961987,37,Woman
49,132201,DepthScenes,duration_manipulation_targetAtFixation,jsons/VE125_randls_8.json,http://54.235.29.9/FacialAge/BNav_EC2/DepthDuration/v2_depth_duration_MTurk/v2_DepthDuration_HTML.html#442,442,1280,609,1280,720,8-29-2022,12-33-2,50,depth_duration_stimuli/003492_2014-05-21_15-50-55_094959634447_rgbf000828-resize_1/003492_2014-05-21_15-50-55_094959634447_rgbf000828-resize_1-target.png,125,4.06875,4,2299,125,meters,jsons/VE125_randls_8.json,1596422,2961987,37,Woman
50,132201,DepthScenes,duration_manipulation_targetAtFixation,jsons/VE125_randls_8.json,http://54.235.29.9/FacialAge/BNav_EC2/DepthDuration/v2_depth_duration_MTurk/v2_DepthDuration_HTML.html#442,442,1280,609,1280,720,8-29-2022,12-33-2,51,depth_duration_stimuli/002568_2014-06-24_13-59-21_094959634447_rgbf000062-resize_4/002568_2014-06-24_13-59-21_094959634447_rgbf000062-resize_4-target.png,125,3.015,3,2016,133,meters,jsons/VE125_randls_8.json,1596422,2961987,37,Woman
51,132201,DepthScenes,duration_manipulation_targetAtFixation,jsons/VE125_randls_8.json,http://54.235.29.9/FacialAge/BNav_EC2/DepthDuration/v2_depth_duration_MTurk/v2_DepthDuration_HTML.html#442,442,1280,609,1280,720,8-29-2022,12-33-2,52,depth_duration_stimuli/000368_2014-06-09_15-53-01_260595134347_rgbf000155-resize_2/000368_2014-06-09_15-53-01_260595134347_rgbf000155-resize_2-target.png,125,2.4859999999999998,3,2759,129,meters,jsons/VE125_randls_8.json,1596422,2961987,37,Woman
52,132201,DepthScenes,duration_manipulation_targetAtFixation,jsons/VE125_randls_8.json,http://54.235.29.9/FacialAge/BNav_EC2/DepthDuration/v2_depth_duration_MTurk/v2_DepthDuration_HTML.html#442,442,1280,609,1280,720,8-29-2022,12-33-2,53,depth_duration_stimuli/002678_2014-06-13_16-15-32_094959634447_rgbf000151-resize_6/002678_2014-06-13_16-15-32_094959634447_rgbf000151-resize_6-target.png,125,2.1830000000000003,0,2965,121,meters,jsons/VE125_randls_8.json,1596422,2961987,37,Woman
53,132201,DepthScenes,duration_manipulation_targetAtFixation,jsons/VE125_randls_8.json,http://54.235.29.9/FacialAge/BNav_EC2/DepthDuration/v2_depth_duration_MTurk/v2_DepthDuration_HTML.html#442,442,1280,609,1280,720,8-29-2022,12-33-2,54,depth_duration_stimuli/003621_2014-05-23_18-06-08_094959634447_rgbf000101-resize_1/003621_2014-05-23_18-06-08_094959634447_rgbf000101-resize_1-target.png,125,3.9835,5,2595,128,meters,jsons/VE125_randls_8.json,1596422,2961987,37,Woman
54,132201,DepthScenes,duration_manipulation_targetAtFixation,jsons/VE125_randls_8.json,http://54.235.29.9/FacialAge/BNav_EC2/DepthDuration/v2_depth_duration_MTurk/v2_DepthDuration_HTML.html#442,442,1280,609,1280,720,8-29-2022,12-33-2,55,depth_duration_stimuli/001584_2014-06-20_11-07-43_260595134347_rgbf000002-resize_1/001584_2014-06-20_11-07-43_260595134347_rgbf000002-resize_1-target.png,125,3.53,3,2827,125,meters,jsons/VE125_randls_8.json,1596422,2961987,37,Woman
55,132201,DepthScenes,duration_manipulation_targetAtFixation,jsons/VE125_randls_8.json,http://54.235.29.9/FacialAge/BNav_EC2/DepthDuration/v2_depth_duration_MTurk/v2_DepthDuration_HTML.html#442,442,1280,609,1280,720,8-29-2022,12-33-2,56,depth_duration_stimuli/002989_2014-06-15_12-25-03_094959634447_rgbf000150-resize_3/002989_2014-06-15_12-25-03_094959634447_rgbf000150-resize_3-target.png,125,4.1975,0,4859,123,meters,jsons/VE125_randls_8.json,1596422,2961987,37,Woman
56,132201,DepthScenes,duration_manipulation_targetAtFixation,jsons/VE125_randls_8.json,http://54.235.29.9/FacialAge/BNav_EC2/DepthDuration/v2_depth_duration_MTurk/v2_DepthDuration_HTML.html#442,442,1280,609,1280,720,8-29-2022,12-33-2,57,depth_duration_stimuli/000866_2014-06-09_20-45-42_260595134347_rgbf000139-resize_1/000866_2014-06-09_20-45-42_260595134347_rgbf000139-resize_1-target.png,125,3.2155,3,2643,125,meters,jsons/VE125_randls_8.json,1596422,2961987,37,Woman
57,132201,DepthScenes,duration_manipulation_targetAtFixation,jsons/VE125_randls_8.json,http://54.235.29.9/FacialAge/BNav_EC2/DepthDuration/v2_depth_duration_MTurk/v2_DepthDuration_HTML.html#442,442,1280,609,1280,720,8-29-2022,12-33-2,58,depth_duration_stimuli/003292_2014-05-14_21-53-49_094959634447_rgbf000100-resize_2/003292_2014-05-14_21-53-49_094959634447_rgbf000100-resize_2-target.png,125,3.4815,4,2339,126,meters,jsons/VE125_randls_8.json,1596422,2961987,37,Woman
58,132201,DepthScenes,duration_manipulation_targetAtFixation,jsons/VE125_randls_8.json,http://54.235.29.9/FacialAge/BNav_EC2/DepthDuration/v2_depth_duration_MTurk/v2_DepthDuration_HTML.html#442,442,1280,609,1280,720,8-29-2022,12-33-2,59,depth_duration_stimuli/002639_2014-06-24_14-51-37_094959634447_rgbf000074-resize_4/002639_2014-06-24_14-51-37_094959634447_rgbf000074-resize_4-target.png,125,4.0375,4,2314,135,meters,jsons/VE125_randls_8.json,1596422,2961987,37,Woman
59,132201,DepthScenes,duration_manipulation_targetAtFixation,jsons/VE125_randls_8.json,http://54.235.29.9/FacialAge/BNav_EC2/DepthDuration/v2_depth_duration_MTurk/v2_DepthDuration_HTML.html#442,442,1280,609,1280,720,8-29-2022,12-33-2,60,depth_duration_stimuli/001449_2014-06-19_17-01-27_260595134347_rgbf000116-resize_2/001449_2014-06-19_17-01-27_260595134347_rgbf000116-resize_2-target.png,125,3.452,3,2611,139,meters,jsons/VE125_randls_8.json,1596422,2961987,37,Woman
60,132201,DepthScenes,duration_manipulation_targetAtFixation,jsons/VE125_randls_8.json,http://54.235.29.9/FacialAge/BNav_EC2/DepthDuration/v2_depth_duration_MTurk/v2_DepthDuration_HTML.html#442,442,1280,609,1280,720,8-29-2022,12-33-2,61,depth_duration_stimuli/001450_2014-06-19_17-02-03_260595134347_rgbf000203-resize_4/001450_2014-06-19_17-02-03_260595134347_rgbf000203-resize_4-target.png,125,4.0106666666667,4,2418,127,meters,jsons/VE125_randls_8.json,1596422,2961987,37,Woman
61,132201,DepthScenes,duration_manipulation_targetAtFixation,jsons/VE125_randls_8.json,http://54.235.29.9/FacialAge/BNav_EC2/DepthDuration/v2_depth_duration_MTurk/v2_DepthDuration_HTML.html#442,442,1280,609,1280,720,8-29-2022,12-33-2,62,depth_duration_stimuli/000506_2014-06-08_23-21-00_260595134347_rgbf000070-resize_7/000506_2014-06-08_23-21-00_260595134347_rgbf000070-resize_7-target.png,125,4.0585,4,2300,117,meters,jsons/VE125_randls_8.json,1596422,2961987,37,Woman
62,132201,DepthScenes,duration_manipulation_targetAtFixation,jsons/VE125_randls_8.json,http://54.235.29.9/FacialAge/BNav_EC2/DepthDuration/v2_depth_duration_MTurk/v2_DepthDuration_HTML.html#442,442,1280,609,1280,720,8-29-2022,12-33-2,63,depth_duration_stimuli/003079_2014-06-15_15-18-20_094959634447_rgbf000152-resize_8/003079_2014-06-15_15-18-20_094959634447_rgbf000152-resize_8-target.png,125,2.8775,3,2610,129,meters,jsons/VE125_randls_8.json,1596422,2961987,37,Woman
63,132201,DepthScenes,duration_manipulation_targetAtFixation,jsons/VE125_randls_8.json,http://54.235.29.9/FacialAge/BNav_EC2/DepthDuration/v2_depth_duration_MTurk/v2_DepthDuration_HTML.html#442,442,1280,609,1280,720,8-29-2022,12-33-2,64,depth_duration_stimuli/001110_2014-06-15_17-25-28_260595134347_rgbf000150-resize_1/001110_2014-06-15_17-25-28_260595134347_rgbf000150-resize_1-target.png,125,1.7115,4,2283,125,meters,jsons/VE125_randls_8.json,1596422,2961987,37,Woman
64,132201,DepthScenes,duration_manipulation_targetAtFixation,jsons/VE125_randls_8.json,http://54.235.29.9/FacialAge/BNav_EC2/DepthDuration/v2_depth_duration_MTurk/v2_DepthDuration_HTML.html#442,442,1280,609,1280,720,8-29-2022,12-33-2,65,depth_duration_stimuli/000927_2014-06-09_16-32-30_260595134347_rgbf000123-resize_3/000927_2014-06-09_16-32-30_260595134347_rgbf000123-resize_3-target.png,125,2.6785,5,2356,130,meters,jsons/VE125_randls_8.json,1596422,2961987,37,Woman
65,132201,DepthScenes,duration_manipulation_targetAtFixation,jsons/VE125_randls_8.json,http://54.235.29.9/FacialAge/BNav_EC2/DepthDuration/v2_depth_duration_MTurk/v2_DepthDuration_HTML.html#442,442,1280,609,1280,720,8-29-2022,12-33-2,66,depth_duration_stimuli/001222_2014-06-17_16-24-06_260595134347_rgbf000073-resize_0/001222_2014-06-17_16-24-06_260595134347_rgbf000073-resize-original.jpg,125,1.4385,0,2460,126,meters,jsons/VE125_randls_8.json,1596422,2961987,37,Woman
66,132201,DepthScenes,duration_manipulation_targetAtFixation,jsons/VE125_randls_8.json,http://54.235.29.9/FacialAge/BNav_EC2/DepthDuration/v2_depth_duration_MTurk/v2_DepthDuration_HTML.html#442,442,1280,609,1280,720,8-29-2022,12-33-2,67,depth_duration_stimuli/002784_2014-06-22_19-26-30_094959634447_rgbf000083-resize_3/002784_2014-06-22_19-26-30_094959634447_rgbf000083-resize_3-target.png,125,1.8046666666667,2,2152,119,meters,jsons/VE125_randls_8.json,1596422,2961987,37,Woman
67,132201,DepthScenes,duration_manipulation_targetAtFixation,jsons/VE125_randls_8.json,http://54.235.29.9/FacialAge/BNav_EC2/DepthDuration/v2_depth_duration_MTurk/v2_DepthDuration_HTML.html#442,442,1280,609,1280,720,8-29-2022,12-33-2,68,depth_duration_stimuli/001100_2014-06-15_17-46-26_260595134347_rgbf000225-resize_2/001100_2014-06-15_17-46-26_260595134347_rgbf000225-resize_2-target.png,125,2.24,3,2091,131,meters,jsons/VE125_randls_8.json,1596422,2961987,37,Woman
68,132201,DepthScenes,duration_manipulation_targetAtFixation,jsons/VE125_randls_8.json,http://54.235.29.9/FacialAge/BNav_EC2/DepthDuration/v2_depth_duration_MTurk/v2_DepthDuration_HTML.html#442,442,1280,609,1280,720,8-29-2022,12-33-2,69,depth_duration_stimuli/001167_2014-06-17_15-38-07_260595134347_rgbf000108-resize_0/001167_2014-06-17_15-38-07_260595134347_rgbf000108-resize_0-target.png,125,1.8505,4,2218,118,meters,jsons/VE125_randls_8.json,1596422,2961987,37,Woman
69,132201,DepthScenes,duration_manipulation_targetAtFixation,jsons/VE125_randls_8.json,http://54.235.29.9/FacialAge/BNav_EC2/DepthDuration/v2_depth_duration_MTurk/v2_DepthDuration_HTML.html#442,442,1280,609,1280,720,8-29-2022,12-33-2,70,depth_duration_stimuli/003587_2014-05-23_16-48-02_094959634447_rgbf002384-resize_2/003587_2014-05-23_16-48-02_094959634447_rgbf002384-resize_2-target.png,125,1.357,2,2074,124,meters,jsons/VE125_randls_8.json,1596422,2961987,37,Woman
70,132201,DepthScenes,duration_manipulation_targetAtFixation,jsons/VE125_randls_8.json,http://54.235.29.9/FacialAge/BNav_EC2/DepthDuration/v2_depth_duration_MTurk/v2_DepthDuration_HTML.html#442,442,1280,609,1280,720,8-29-2022,12-33-2,71,depth_duration_stimuli/000906_2014-06-08_13-35-43_260595134347_rgbf000155-resize_1/000906_2014-06-08_13-35-43_260595134347_rgbf000155-resize_1-target.png,125,2.8489999999999998,6,2347,137,meters,jsons/VE125_randls_8.json,1596422,2961987,37,Woman
71,132201,DepthScenes,duration_manipulation_targetAtFixation,jsons/VE125_randls_8.json,http://54.235.29.9/FacialAge/BNav_EC2/DepthDuration/v2_depth_duration_MTurk/v2_DepthDuration_HTML.html#442,442,1280,609,1280,720,8-29-2022,12-33-2,72,depth_duration_stimuli/002805_2014-06-22_19-54-03_094959634447_rgbf000079-resize_1/002805_2014-06-22_19-54-03_094959634447_rgbf000079-resize_1-target.png,125,3.1439999999999997,7,2096,122,meters,jsons/VE125_randls_8.json,1596422,2961987,37,Woman
72,132201,DepthScenes,duration_manipulation_targetAtFixation,jsons/VE125_randls_8.json,http://54.235.29.9/FacialAge/BNav_EC2/DepthDuration/v2_depth_duration_MTurk/v2_DepthDuration_HTML.html#442,442,1280,609,1280,720,8-29-2022,12-33-2,73,depth_duration_stimuli/001199_2014-06-17_16-03-48_260595134347_rgbf000077-resize_0/001199_2014-06-17_16-03-48_260595134347_rgbf000077-resize_0-target.png,125,3.4375,4,2259,125,meters,jsons/VE125_randls_8.json,1596422,2961987,37,Woman
73,132201,DepthScenes,duration_manipulation_targetAtFixation,jsons/VE125_randls_8.json,http://54.235.29.9/FacialAge/BNav_EC2/DepthDuration/v2_depth_duration_MTurk/v2_DepthDuration_HTML.html#442,442,1280,609,1280,720,8-29-2022,12-33-2,74,depth_duration_stimuli/000502_2014-06-08_23-02-32_260595134347_rgbf000063-resize_4/000502_2014-06-08_23-02-32_260595134347_rgbf000063-resize_4-target.png,125,2.431,3,9627,137,meters,jsons/VE125_randls_8.json,1596422,2961987,37,Woman
74,132201,DepthScenes,duration_manipulation_targetAtFixation,jsons/VE125_randls_8.json,http://54.235.29.9/FacialAge/BNav_EC2/DepthDuration/v2_depth_duration_MTurk/v2_DepthDuration_HTML.html#442,442,1280,609,1280,720,8-29-2022,12-33-2,75,depth_duration_stimuli/001056_2014-06-08_18-46-44_260595134347_rgbf000068-resize_0/001056_2014-06-08_18-46-44_260595134347_rgbf000068-resize_0-target.png,125,2.6625,4,2492,110,meters,jsons/VE125_randls_8.json,1596422,2961987,37,Woman
75,132201,DepthScenes,duration_manipulation_targetAtFixation,jsons/VE125_randls_8.json,http://54.235.29.9/FacialAge/BNav_EC2/DepthDuration/v2_depth_duration_MTurk/v2_DepthDuration_HTML.html#442,442,1280,609,1280,720,8-29-2022,12-33-2,76,depth_duration_stimuli/002199_2014-06-28_18-33-56_260595134347_rgbf000074-resize_0/002199_2014-06-28_18-33-56_260595134347_rgbf000074-resize_0-target.png,125,1.996,2,2330,126,meters,jsons/VE125_randls_8.json,1596422,2961987,37,Woman
76,132201,DepthScenes,duration_manipulation_targetAtFixation,jsons/VE125_randls_8.json,http://54.235.29.9/FacialAge/BNav_EC2/DepthDuration/v2_depth_duration_MTurk/v2_DepthDuration_HTML.html#442,442,1280,609,1280,720,8-29-2022,12-33-2,77,depth_duration_stimuli/001158_2014-06-17_15-32-16_260595134347_rgbf000138-resize_2/001158_2014-06-17_15-32-16_260595134347_rgbf000138-resize_2-target.png,125,4.5315,6,2491,124,meters,jsons/VE125_randls_8.json,1596422,2961987,37,Woman
77,132201,DepthScenes,duration_manipulation_targetAtFixation,jsons/VE125_randls_8.json,http://54.235.29.9/FacialAge/BNav_EC2/DepthDuration/v2_depth_duration_MTurk/v2_DepthDuration_HTML.html#442,442,1280,609,1280,720,8-29-2022,12-33-2,78,depth_duration_stimuli/000556_2014-06-09_22-42-56_260595134347_rgbf000214-resize_1/000556_2014-06-09_22-42-56_260595134347_rgbf000214-resize_1-target.png,125,4.8415,4,2174,120,meters,jsons/VE125_randls_8.json,1596422,2961987,37,Woman
78,132201,DepthScenes,duration_manipulation_targetAtFixation,jsons/VE125_randls_8.json,http://54.235.29.9/FacialAge/BNav_EC2/DepthDuration/v2_depth_duration_MTurk/v2_DepthDuration_HTML.html#442,442,1280,609,1280,720,8-29-2022,12-33-2,79,depth_duration_stimuli/002748_2014-06-22_19-07-22_094959634447_rgbf000078-resize_1/002748_2014-06-22_19-07-22_094959634447_rgbf000078-resize_1-target.png,125,4.6705,7,2372,135,meters,jsons/VE125_randls_8.json,1596422,2961987,37,Woman
79,132201,DepthScenes,duration_manipulation_targetAtFixation,jsons/VE125_randls_8.json,http://54.235.29.9/FacialAge/BNav_EC2/DepthDuration/v2_depth_duration_MTurk/v2_DepthDuration_HTML.html#442,442,1280,609,1280,720,8-29-2022,12-33-2,80,depth_duration_stimuli/002995_2014-06-15_12-31-26_094959634447_rgbf000150-resize_1/002995_2014-06-15_12-31-26_094959634447_rgbf000150-resize_1-target.png,125,3.8360000000000003,5,2131,131,meters,jsons/VE125_randls_8.json,1596422,2961987,37,Woman
80,132201,DepthScenes,duration_manipulation_targetAtFixation,jsons/VE125_randls_8.json,http://54.235.29.9/FacialAge/BNav_EC2/DepthDuration/v2_depth_duration_MTurk/v2_DepthDuration_HTML.html#442,442,1280,609,1280,720,8-29-2022,12-33-2,81,depth_duration_stimuli/000436_2014-06-09_22-25-11_260595134347_rgbf000137-resize_1/000436_2014-06-09_22-25-11_260595134347_rgbf000137-resize_1-target.png,125,4.0705,5,2227,126,meters,jsons/VE125_randls_8.json,1596422,2961987,37,Woman
81,132201,DepthScenes,duration_manipulation_targetAtFixation,jsons/VE125_randls_8.json,http://54.235.29.9/FacialAge/BNav_EC2/DepthDuration/v2_depth_duration_MTurk/v2_DepthDuration_HTML.html#442,442,1280,609,1280,720,8-29-2022,12-33-2,82,depth_duration_stimuli/002444_2014-06-28_20-32-08_260595134347_rgbf000027-resize_0/002444_2014-06-28_20-32-08_260595134347_rgbf000027-resize_0-target.png,125,4.388999999999999,6,2196,125,meters,jsons/VE125_randls_8.json,1596422,2961987,37,Woman
82,132201,DepthScenes,duration_manipulation_targetAtFixation,jsons/VE125_randls_8.json,http://54.235.29.9/FacialAge/BNav_EC2/DepthDuration/v2_depth_duration_MTurk/v2_DepthDuration_HTML.html#442,442,1280,609,1280,720,8-29-2022,12-33-2,83,depth_duration_stimuli/000758_2014-06-08_22-05-08_260595134347_rgbf000085-resize_0/000758_2014-06-08_22-05-08_260595134347_rgbf000085-resize_0-target.png,125,3.3810000000000002,0,2621,134,meters,jsons/VE125_randls_8.json,1596422,2961987,37,Woman
83,132201,DepthScenes,duration_manipulation_targetAtFixation,jsons/VE125_randls_8.json,http://54.235.29.9/FacialAge/BNav_EC2/DepthDuration/v2_depth_duration_MTurk/v2_DepthDuration_HTML.html#442,442,1280,609,1280,720,8-29-2022,12-33-2,84,depth_duration_stimuli/000854_2014-06-09_19-43-13_260595134347_rgbf000066-resize_0/000854_2014-06-09_19-43-13_260595134347_rgbf000066-resize_0-target.png,125,3.068,5,2032,122,meters,jsons/VE125_randls_8.json,1596422,2961987,37,Woman
84,132201,DepthScenes,duration_manipulation_targetAtFixation,jsons/VE125_randls_8.json,http://54.235.29.9/FacialAge/BNav_EC2/DepthDuration/v2_depth_duration_MTurk/v2_DepthDuration_HTML.html#442,442,1280,609,1280,720,8-29-2022,12-33-2,85,depth_duration_stimuli/000009_2014-05-26_14-32-05_260595134347_rgbf000034-resize_3/000009_2014-05-26_14-32-05_260595134347_rgbf000034-resize_3-target.png,125,3.8715,7,2301,124,meters,jsons/VE125_randls_8.json,1596422,2961987,37,Woman
85,132201,DepthScenes,duration_manipulation_targetAtFixation,jsons/VE125_randls_8.json,http://54.235.29.9/FacialAge/BNav_EC2/DepthDuration/v2_depth_duration_MTurk/v2_DepthDuration_HTML.html#442,442,1280,609,1280,720,8-29-2022,12-33-2,86,depth_duration_stimuli/001828_2014-06-26_21-40-03_260595134347_rgbf000024-resize_0/001828_2014-06-26_21-40-03_260595134347_rgbf000024-resize_0-target.png,125,4.8260000000000005,3,2540,126,meters,jsons/VE125_randls_8.json,1596422,2961987,37,Woman
86,132201,DepthScenes,duration_manipulation_targetAtFixation,jsons/VE125_randls_8.json,http://54.235.29.9/FacialAge/BNav_EC2/DepthDuration/v2_depth_duration_MTurk/v2_DepthDuration_HTML.html#442,442,1280,609,1280,720,8-29-2022,12-33-2,87,depth_duration_stimuli/001029_2014-06-08_13-17-57_260595134347_rgbf000065-resize_1/001029_2014-06-08_13-17-57_260595134347_rgbf000065-resize_1-target.png,125,3.0835,4,1967,121,meters,jsons/VE125_randls_8.json,1596422,2961987,37,Woman
87,132201,DepthScenes,duration_manipulation_targetAtFixation,jsons/VE125_randls_8.json,http://54.235.29.9/FacialAge/BNav_EC2/DepthDuration/v2_depth_duration_MTurk/v2_DepthDuration_HTML.html#442,442,1280,609,1280,720,8-29-2022,12-33-2,88,depth_duration_stimuli/000677_2014-06-08_23-10-32_260595134347_rgbf000158-resize_6/000677_2014-06-08_23-10-32_260595134347_rgbf000158-resize_6-target.png,125,3.556,4,1999,126,meters,jsons/VE125_randls_8.json,1596422,2961987,37,Woman
88,132201,DepthScenes,duration_manipulation_targetAtFixation,jsons/VE125_randls_8.json,http://54.235.29.9/FacialAge/BNav_EC2/DepthDuration/v2_depth_duration_MTurk/v2_DepthDuration_HTML.html#442,442,1280,609,1280,720,8-29-2022,12-33-2,89,depth_duration_stimuli/003534_2014-05-22_15-06-10_094959634447_rgbf000102-resize_4/003534_2014-05-22_15-06-10_094959634447_rgbf000102-resize_4-target.png,125,1.426,2,2267,124,meters,jsons/VE125_randls_8.json,1596422,2961987,37,Woman
89,132201,DepthScenes,duration_manipulation_targetAtFixation,jsons/VE125_randls_8.json,http://54.235.29.9/FacialAge/BNav_EC2/DepthDuration/v2_depth_duration_MTurk/v2_DepthDuration_HTML.html#442,442,1280,609,1280,720,8-29-2022,12-33-2,90,depth_duration_stimuli/002637_2014-06-24_14-51-13_094959634447_rgbf000066-resize_4/002637_2014-06-24_14-51-13_094959634447_rgbf000066-resize_4-target.png,125,1.9955,3,2001,115,meters,jsons/VE125_randls_8.json,1596422,2961987,37,Woman
90,132201,DepthScenes,duration_manipulation_targetAtFixation,jsons/VE125_randls_8.json,http://54.235.29.9/FacialAge/BNav_EC2/DepthDuration/v2_depth_duration_MTurk/v2_DepthDuration_HTML.html#442,442,1280,609,1280,720,8-29-2022,12-33-2,91,depth_duration_stimuli/002118_2014-06-25_20-32-08_260595134347_rgbf000078-resize_1/002118_2014-06-25_20-32-08_260595134347_rgbf000078-resize_1-target.png,125,2.6460000000000004,3,2051,124,meters,jsons/VE125_randls_8.json,1596422,2961987,37,Woman
91,132201,DepthScenes,duration_manipulation_targetAtFixation,jsons/VE125_randls_8.json,http://54.235.29.9/FacialAge/BNav_EC2/DepthDuration/v2_depth_duration_MTurk/v2_DepthDuration_HTML.html#442,442,1280,609,1280,720,8-29-2022,12-33-2,92,depth_duration_stimuli/001516_2014-06-20_16-25-09_260595134347_rgbf000076-resize_2/001516_2014-06-20_16-25-09_260595134347_rgbf000076-resize_2-target.png,125,1.7445,3,2214,121,meters,jsons/VE125_randls_8.json,1596422,2961987,37,Woman
92,132201,DepthScenes,duration_manipulation_targetAtFixation,jsons/VE125_randls_8.json,http://54.235.29.9/FacialAge/BNav_EC2/DepthDuration/v2_depth_duration_MTurk/v2_DepthDuration_HTML.html#442,442,1280,609,1280,720,8-29-2022,12-33-2,93,depth_duration_stimuli/000917_2014-06-09_22-45-29_260595134347_rgbf000149-resize_3/000917_2014-06-09_22-45-29_260595134347_rgbf000149-resize_3-target.png,125,4.1865,3,7788,118,meters,jsons/VE125_randls_8.json,1596422,2961987,37,Woman
93,132201,DepthScenes,duration_manipulation_targetAtFixation,jsons/VE125_randls_8.json,http://54.235.29.9/FacialAge/BNav_EC2/DepthDuration/v2_depth_duration_MTurk/v2_DepthDuration_HTML.html#442,442,1280,609,1280,720,8-29-2022,12-33-2,94,depth_duration_stimuli/002323_2014-06-28_20-01-54_260595134347_rgbf000051-resize_4/002323_2014-06-28_20-01-54_260595134347_rgbf000051-resize_4-target.png,125,3.7310000000000003,4,2278,123,meters,jsons/VE125_randls_8.json,1596422,2961987,37,Woman
94,132201,DepthScenes,duration_manipulation_targetAtFixation,jsons/VE125_randls_8.json,http://54.235.29.9/FacialAge/BNav_EC2/DepthDuration/v2_depth_duration_MTurk/v2_DepthDuration_HTML.html#442,442,1280,609,1280,720,8-29-2022,12-33-2,95,depth_duration_stimuli/000642_2014-06-08_16-59-25_260595134347_rgbf000098-resize_2/000642_2014-06-08_16-59-25_260595134347_rgbf000098-resize_2-target.png,125,2.8815,0,2546,115,meters,jsons/VE125_randls_8.json,1596422,2961987,37,Woman
95,132201,DepthScenes,duration_manipulation_targetAtFixation,jsons/VE125_randls_8.json,http://54.235.29.9/FacialAge/BNav_EC2/DepthDuration/v2_depth_duration_MTurk/v2_DepthDuration_HTML.html#442,442,1280,609,1280,720,8-29-2022,12-33-2,96,depth_duration_stimuli/002425_2014-06-28_20-27-29_260595134347_rgbf000031-resize_8/002425_2014-06-28_20-27-29_260595134347_rgbf000031-resize_8-target.png,125,3.8960000000000004,0,2497,134,meters,jsons/VE125_randls_8.json,1596422,2961987,37,Woman
96,132201,DepthScenes,duration_manipulation_targetAtFixation,jsons/VE125_randls_8.json,http://54.235.29.9/FacialAge/BNav_EC2/DepthDuration/v2_depth_duration_MTurk/v2_DepthDuration_HTML.html#442,442,1280,609,1280,720,8-29-2022,12-33-2,97,depth_duration_stimuli/001150_2014-06-17_15-27-34_260595134347_rgbf000108-resize_2/001150_2014-06-17_15-27-34_260595134347_rgbf000108-resize_2-target.png,125,4.0325,4,2327,124,meters,jsons/VE125_randls_8.json,1596422,2961987,37,Woman
97,132201,DepthScenes,duration_manipulation_targetAtFixation,jsons/VE125_randls_8.json,http://54.235.29.9/FacialAge/BNav_EC2/DepthDuration/v2_depth_duration_MTurk/v2_DepthDuration_HTML.html#442,442,1280,609,1280,720,8-29-2022,12-33-2,98,depth_duration_stimuli/000665_2014-06-09_20-42-35_260595134347_rgbf000110-resize_1/000665_2014-06-09_20-42-35_260595134347_rgbf000110-resize_1-target.png,125,3.057,0,2956,114,meters,jsons/VE125_randls_8.json,1596422,2961987,37,Woman
98,132201,DepthScenes,duration_manipulation_targetAtFixation,jsons/VE125_randls_8.json,http://54.235.29.9/FacialAge/BNav_EC2/DepthDuration/v2_depth_duration_MTurk/v2_DepthDuration_HTML.html#442,442,1280,609,1280,720,8-29-2022,12-33-2,99,depth_duration_stimuli/001540_2014-06-20_17-01-05_260595134347_rgbf000086-resize_2/001540_2014-06-20_17-01-05_260595134347_rgbf000086-resize-original.jpg,125,1.459,0,2215,126,meters,jsons/VE125_randls_8.json,1596422,2961987,37,Woman
99,132201,DepthScenes,duration_manipulation_targetAtFixation,jsons/VE125_randls_8.json,http://54.235.29.9/FacialAge/BNav_EC2/DepthDuration/v2_depth_duration_MTurk/v2_DepthDuration_HTML.html#442,442,1280,609,1280,720,8-29-2022,12-33-2,100,depth_duration_stimuli/001164_2014-06-17_15-35-46_260595134347_rgbf000085-resize_3/001164_2014-06-17_15-35-46_260595134347_rgbf000085-resize_3-target.png,125,2.354,4,2201,125,meters,jsons/VE125_randls_8.json,1596422,2961987,37,Woman
100,132201,DepthScenes,duration_manipulation_targetAtFixation,jsons/VE125_randls_8.json,http://54.235.29.9/FacialAge/BNav_EC2/DepthDuration/v2_depth_duration_MTurk/v2_DepthDuration_HTML.html#442,442,1280,609,1280,720,8-29-2022,12-33-2,101,depth_duration_stimuli/001136_2014-06-17_15-19-41_260595134347_rgbf000076-resize_3/001136_2014-06-17_15-19-41_260595134347_rgbf000076-resize_3-target.png,125,1.8655,4,2519,121,meters,jsons/VE125_randls_8.json,1596422,2961987,37,Woman
101,132201,DepthScenes,duration_manipulation_targetAtFixation,jsons/VE125_randls_8.json,http://54.235.29.9/FacialAge/BNav_EC2/DepthDuration/v2_depth_duration_MTurk/v2_DepthDuration_HTML.html#442,442,1280,609,1280,720,8-29-2022,12-33-2,102,depth_duration_stimuli/002039_2014-06-24_20-22-38_260595134347_rgbf000084-resize_1/002039_2014-06-24_20-22-38_260595134347_rgbf000084-resize_1-target.png,125,4.408,0,2363,124,meters,jsons/VE125_randls_8.json,1596422,2961987,37,Woman
102,132201,DepthScenes,duration_manipulation_targetAtFixation,jsons/VE125_randls_8.json,http://54.235.29.9/FacialAge/BNav_EC2/DepthDuration/v2_depth_duration_MTurk/v2_DepthDuration_HTML.html#442,442,1280,609,1280,720,8-29-2022,12-33-2,103,depth_duration_stimuli/002103_2014-06-25_20-00-40_260595134347_rgbf000049-resize_0/002103_2014-06-25_20-00-40_260595134347_rgbf000049-resize_0-target.png,125,4.105,3,2427,124,meters,jsons/VE125_randls_8.json,1596422,2961987,37,Woman
103,132201,DepthScenes,duration_manipulation_targetAtFixation,jsons/VE125_randls_8.json,http://54.235.29.9/FacialAge/BNav_EC2/DepthDuration/v2_depth_duration_MTurk/v2_DepthDuration_HTML.html#442,442,1280,609,1280,720,8-29-2022,12-33-2,104,depth_duration_stimuli/001092_2014-06-15_17-34-58_260595134347_rgbf000171-resize_3/001092_2014-06-15_17-34-58_260595134347_rgbf000171-resize_3-target.png,125,2.6935,0,2535,117,meters,jsons/VE125_randls_8.json,1596422,2961987,37,Woman
104,132201,DepthScenes,duration_manipulation_targetAtFixation,jsons/VE125_randls_8.json,http://54.235.29.9/FacialAge/BNav_EC2/DepthDuration/v2_depth_duration_MTurk/v2_DepthDuration_HTML.html#442,442,1280,609,1280,720,8-29-2022,12-33-2,105,depth_duration_stimuli/002545_2014-06-24_13-38-53_094959634447_rgbf000080-resize_4/002545_2014-06-24_13-38-53_094959634447_rgbf000080-resize_4-target.png,125,1.9205,3,2354,114,meters,jsons/VE125_randls_8.json,1596422,2961987,37,Woman
105,132201,DepthScenes,duration_manipulation_targetAtFixation,jsons/VE125_randls_8.json,http://54.235.29.9/FacialAge/BNav_EC2/DepthDuration/v2_depth_duration_MTurk/v2_DepthDuration_HTML.html#442,442,1280,609,1280,720,8-29-2022,12-33-2,106,depth_duration_stimuli/000486_2014-06-09_20-47-20_260595134347_rgbf000143-resize_2/000486_2014-06-09_20-47-20_260595134347_rgbf000143-resize_2-target.png,125,4.8325,3,2254,125,meters,jsons/VE125_randls_8.json,1596422,2961987,37,Woman
106,132201,DepthScenes,duration_manipulation_targetAtFixation,jsons/VE125_randls_8.json,http://54.235.29.9/FacialAge/BNav_EC2/DepthDuration/v2_depth_duration_MTurk/v2_DepthDuration_HTML.html#442,442,1280,609,1280,720,8-29-2022,12-33-2,107,depth_duration_stimuli/003083_2014-06-15_15-21-03_094959634447_rgbf000063-resize_1/003083_2014-06-15_15-21-03_094959634447_rgbf000063-resize_1-target.png,125,4.1405,0,2727,123,meters,jsons/VE125_randls_8.json,1596422,2961987,37,Woman
107,132201,DepthScenes,duration_manipulation_targetAtFixation,jsons/VE125_randls_8.json,http://54.235.29.9/FacialAge/BNav_EC2/DepthDuration/v2_depth_duration_MTurk/v2_DepthDuration_HTML.html#442,442,1280,609,1280,720,8-29-2022,12-33-2,108,depth_duration_stimuli/000739_2014-06-08_18-45-58_260595134347_rgbf000068-resize_1/000739_2014-06-08_18-45-58_260595134347_rgbf000068-resize_1-target.png,125,3.534,4,2137,122,meters,jsons/VE125_randls_8.json,1596422,2961987,37,Woman
108,132201,DepthScenes,duration_manipulation_targetAtFixation,jsons/VE125_randls_8.json,http://54.235.29.9/FacialAge/BNav_EC2/DepthDuration/v2_depth_duration_MTurk/v2_DepthDuration_HTML.html#442,442,1280,609,1280,720,8-29-2022,12-33-2,109,depth_duration_stimuli/000734_2014-06-08_17-39-11_260595134347_rgbf000128-resize_2/000734_2014-06-08_17-39-11_260595134347_rgbf000128-resize_2-target.png,125,4.098,5,2909,131,meters,jsons/VE125_randls_8.json,1596422,2961987,37,Woman
109,132201,DepthScenes,duration_manipulation_targetAtFixation,jsons/VE125_randls_8.json,http://54.235.29.9/FacialAge/BNav_EC2/DepthDuration/v2_depth_duration_MTurk/v2_DepthDuration_HTML.html#442,442,1280,609,1280,720,8-29-2022,12-33-2,110,depth_duration_stimuli/002905_2014-06-03_18-04-43_094959634447_rgbf000151-resize_2/002905_2014-06-03_18-04-43_094959634447_rgbf000151-resize_2-target.png,125,2.0295,0,2944,128,meters,jsons/VE125_randls_8.json,1596422,2961987,37,Woman
110,132201,DepthScenes,duration_manipulation_targetAtFixation,jsons/VE125_randls_8.json,http://54.235.29.9/FacialAge/BNav_EC2/DepthDuration/v2_depth_duration_MTurk/v2_DepthDuration_HTML.html#442,442,1280,609,1280,720,8-29-2022,12-33-2,111,depth_duration_stimuli/003423_2014-05-21_10-23-26_094959634447_rgbf002665-resize_2/003423_2014-05-21_10-23-26_094959634447_rgbf002665-resize_2-target.png,125,3.2575,5,2154,124,meters,jsons/VE125_randls_8.json,1596422,2961987,37,Woman
111,132201,DepthScenes,duration_manipulation_targetAtFixation,jsons/VE125_randls_8.json,http://54.235.29.9/FacialAge/BNav_EC2/DepthDuration/v2_depth_duration_MTurk/v2_DepthDuration_HTML.html#442,442,1280,609,1280,720,8-29-2022,12-33-2,112,depth_duration_stimuli/002279_2014-06-28_18-55-32_260595134347_rgbf000040-resize_5/002279_2014-06-28_18-55-32_260595134347_rgbf000040-resize_5-target.png,125,1.5043333333333,0,3409,134,meters,jsons/VE125_randls_8.json,1596422,2961987,37,Woman
112,132201,DepthScenes,duration_manipulation_targetAtFixation,jsons/VE125_randls_8.json,http://54.235.29.9/FacialAge/BNav_EC2/DepthDuration/v2_depth_duration_MTurk/v2_DepthDuration_HTML.html#442,442,1280,609,1280,720,8-29-2022,12-33-2,113,depth_duration_stimuli/000635_2014-06-08_16-38-42_260595134347_rgbf000106-resize_1/000635_2014-06-08_16-38-42_260595134347_rgbf000106-resize_1-target.png,125,2.074,5,2170,133,meters,jsons/VE125_randls_8.json,1596422,2961987,37,Woman
113,132201,DepthScenes,duration_manipulation_targetAtFixation,jsons/VE125_randls_8.json,http://54.235.29.9/FacialAge/BNav_EC2/DepthDuration/v2_depth_duration_MTurk/v2_DepthDuration_HTML.html#442,442,1280,609,1280,720,8-29-2022,12-33-2,114,depth_duration_stimuli/002153_2014-06-25_21-27-18_260595134347_rgbf000038-resize_5/002153_2014-06-25_21-27-18_260595134347_rgbf000038-resize_5-target.png,125,2.505,4,2138,128,meters,jsons/VE125_randls_8.json,1596422,2961987,37,Woman
114,132201,DepthScenes,duration_manipulation_targetAtFixation,jsons/VE125_randls_8.json,http://54.235.29.9/FacialAge/BNav_EC2/DepthDuration/v2_depth_duration_MTurk/v2_DepthDuration_HTML.html#442,442,1280,609,1280,720,8-29-2022,12-33-2,115,depth_duration_stimuli/002660_2014-06-13_15-44-18_094959634447_rgbf001878-resize_2/002660_2014-06-13_15-44-18_094959634447_rgbf001878-resize_2-target.png,125,3.576,5,2038,121,meters,jsons/VE125_randls_8.json,1596422,2961987,37,Woman
115,132201,DepthScenes,duration_manipulation_targetAtFixation,jsons/VE125_randls_8.json,http://54.235.29.9/FacialAge/BNav_EC2/DepthDuration/v2_depth_duration_MTurk/v2_DepthDuration_HTML.html#442,442,1280,609,1280,720,8-29-2022,12-33-2,116,depth_duration_stimuli/001170_2014-06-17_15-43-44_260595134347_rgbf000096-resize_6/001170_2014-06-17_15-43-44_260595134347_rgbf000096-resize-original.jpg,125,1.1909999999999998,0,44652,120,meters,jsons/VE125_randls_8.json,1596422,2961987,37,Woman
116,132201,DepthScenes,duration_manipulation_targetAtFixation,jsons/VE125_randls_8.json,http://54.235.29.9/FacialAge/BNav_EC2/DepthDuration/v2_depth_duration_MTurk/v2_DepthDuration_HTML.html#442,442,1280,609,1280,720,8-29-2022,12-33-2,117,depth_duration_stimuli/000522_2014-06-08_13-35-06_260595134347_rgbf000244-resize_1/000522_2014-06-08_13-35-06_260595134347_rgbf000244-resize_1-target.png,125,2.3715,2,77661,128,meters,jsons/VE125_randls_8.json,1596422,2961987,37,Woman
117,132201,DepthScenes,duration_manipulation_targetAtFixation,jsons/VE125_randls_8.json,http://54.235.29.9/FacialAge/BNav_EC2/DepthDuration/v2_depth_duration_MTurk/v2_DepthDuration_HTML.html#442,442,1280,609,1280,720,8-29-2022,12-33-2,118,depth_duration_stimuli/002949_2014-06-26_15-57-42_094959634447_rgbf000079-resize_1/002949_2014-06-26_15-57-42_094959634447_rgbf000079-resize_1-target.png,125,1.8915,3,2717,121,meters,jsons/VE125_randls_8.json,1596422,2961987,37,Woman
118,132201,DepthScenes,duration_manipulation_targetAtFixation,jsons/VE125_randls_8.json,http://54.235.29.9/FacialAge/BNav_EC2/DepthDuration/v2_depth_duration_MTurk/v2_DepthDuration_HTML.html#442,442,1280,609,1280,720,8-29-2022,12-33-2,119,depth_duration_stimuli/002272_2014-06-28_18-53-56_260595134347_rgbf000067-resize_2/002272_2014-06-28_18-53-56_260595134347_rgbf000067-resize_2-target.png,125,1.138,2,2729,122,meters,jsons/VE125_randls_8.json,1596422,2961987,37,Woman
119,132201,DepthScenes,duration_manipulation_targetAtFixation,jsons/VE125_randls_8.json,http://54.235.29.9/FacialAge/BNav_EC2/DepthDuration/v2_depth_duration_MTurk/v2_DepthDuration_HTML.html#442,442,1280,609,1280,720,8-29-2022,12-33-2,120,depth_duration_stimuli/001571_2014-06-20_17-21-32_260595134347_rgbf000089-resize_1/001571_2014-06-20_17-21-32_260595134347_rgbf000089-resize_1-target.png,125,1.86,0,2340,126,meters,jsons/VE125_randls_8.json,1596422,2961987,37,Woman
120,132201,DepthScenes,duration_manipulation_targetAtFixation,jsons/VE125_randls_8.json,http://54.235.29.9/FacialAge/BNav_EC2/DepthDuration/v2_depth_duration_MTurk/v2_DepthDuration_HTML.html#442,442,1280,609,1280,720,8-29-2022,12-33-2,121,depth_duration_stimuli/002213_2014-06-28_18-37-58_260595134347_rgbf000055-resize_1/002213_2014-06-28_18-37-58_260595134347_rgbf000055-resize_1-target.png,125,3.62,4,9831,129,meters,jsons/VE125_randls_8.json,1596422,2961987,37,Woman
121,132201,DepthScenes,duration_manipulation_targetAtFixation,jsons/VE125_randls_8.json,http://54.235.29.9/FacialAge/BNav_EC2/DepthDuration/v2_depth_duration_MTurk/v2_DepthDuration_HTML.html#442,442,1280,609,1280,720,8-29-2022,12-33-2,122,depth_duration_stimuli/000691_2014-06-08_13-08-50_260595134347_rgbf000132-resize_3/000691_2014-06-08_13-08-50_260595134347_rgbf000132-resize_3-target.png,125,4.1530000000000005,7,2371,131,meters,jsons/VE125_randls_8.json,1596422,2961987,37,Woman
122,132201,DepthScenes,duration_manipulation_targetAtFixation,jsons/VE125_randls_8.json,http://54.235.29.9/FacialAge/BNav_EC2/DepthDuration/v2_depth_duration_MTurk/v2_DepthDuration_HTML.html#442,442,1280,609,1280,720,8-29-2022,12-33-2,123,depth_duration_stimuli/002570_2014-06-24_13-59-54_094959634447_rgbf000059-resize_0/002570_2014-06-24_13-59-54_094959634447_rgbf000059-resize_0-target.png,125,4.037,0,2525,131,meters,jsons/VE125_randls_8.json,1596422,2961987,37,Woman
123,132201,DepthScenes,duration_manipulation_targetAtFixation,jsons/VE125_randls_8.json,http://54.235.29.9/FacialAge/BNav_EC2/DepthDuration/v2_depth_duration_MTurk/v2_DepthDuration_HTML.html#442,442,1280,609,1280,720,8-29-2022,12-33-2,124,depth_duration_stimuli/002467_2014-06-28_20-38-07_260595134347_rgbf000026-resize_2/002467_2014-06-28_20-38-07_260595134347_rgbf000026-resize_2-target.png,125,4.742,0,2224,126,meters,jsons/VE125_randls_8.json,1596422,2961987,37,Woman
124,132201,DepthScenes,duration_manipulation_targetAtFixation,jsons/VE125_randls_8.json,http://54.235.29.9/FacialAge/BNav_EC2/DepthDuration/v2_depth_duration_MTurk/v2_DepthDuration_HTML.html#442,442,1280,609,1280,720,8-29-2022,12-33-2,125,depth_duration_stimuli/002043_2014-06-24_20-29-38_260595134347_rgbf000039-resize_4/002043_2014-06-24_20-29-38_260595134347_rgbf000039-resize_4-target.png,125,2.8435,4,2512,133,meters,jsons/VE125_randls_8.json,1596422,2961987,37,Woman
125,132201,DepthScenes,duration_manipulation_targetAtFixation,jsons/VE125_randls_8.json,http://54.235.29.9/FacialAge/BNav_EC2/DepthDuration/v2_depth_duration_MTurk/v2_DepthDuration_HTML.html#442,442,1280,609,1280,720,8-29-2022,12-33-2,126,depth_duration_stimuli/003048_2014-06-15_13-49-43_094959634447_rgbf000150-resize_1/003048_2014-06-15_13-49-43_094959634447_rgbf000150-resize_1-target.png,125,4.0035,5,2099,125,meters,jsons/VE125_randls_8.json,1596422,2961987,37,Woman
126,132201,DepthScenes,duration_manipulation_targetAtFixation,jsons/VE125_randls_8.json,http://54.235.29.9/FacialAge/BNav_EC2/DepthDuration/v2_depth_duration_MTurk/v2_DepthDuration_HTML.html#442,442,1280,609,1280,720,8-29-2022,12-33-2,127,depth_duration_stimuli/002988_2014-06-15_12-24-20_094959634447_rgbf000150-resize_1/002988_2014-06-15_12-24-20_094959634447_rgbf000150-resize_1-target.png,125,4.7669999999999995,4,2082,115,meters,jsons/VE125_randls_8.json,1596422,2961987,37,Woman
127,132201,DepthScenes,duration_manipulation_targetAtFixation,jsons/VE125_randls_8.json,http://54.235.29.9/FacialAge/BNav_EC2/DepthDuration/v2_depth_duration_MTurk/v2_DepthDuration_HTML.html#442,442,1280,609,1280,720,8-29-2022,12-33-2,128,depth_duration_stimuli/001052_2014-06-08_18-24-54_260595134347_rgbf000130-resize_1/001052_2014-06-08_18-24-54_260595134347_rgbf000130-resize_1-target.png,125,4.1045,0,2434,124,meters,jsons/VE125_randls_8.json,1596422,2961987,37,Woman
128,132201,DepthScenes,duration_manipulation_targetAtFixation,jsons/VE125_randls_8.json,http://54.235.29.9/FacialAge/BNav_EC2/DepthDuration/v2_depth_duration_MTurk/v2_DepthDuration_HTML.html#442,442,1280,609,1280,720,8-29-2022,12-33-2,129,depth_duration_stimuli/000692_2014-06-08_13-09-42_260595134347_rgbf000199-resize_2/000692_2014-06-08_13-09-42_260595134347_rgbf000199-resize_2-target.png,125,3.661,6,2212,124,meters,jsons/VE125_randls_8.json,1596422,2961987,37,Woman
129,132201,DepthScenes,duration_manipulation_targetAtFixation,jsons/VE125_randls_8.json,http://54.235.29.9/FacialAge/BNav_EC2/DepthDuration/v2_depth_duration_MTurk/v2_DepthDuration_HTML.html#442,442,1280,609,1280,720,8-29-2022,12-33-2,130,depth_duration_stimuli/001094_2014-06-15_17-36-00_260595134347_rgbf000205-resize_0/001094_2014-06-15_17-36-00_260595134347_rgbf000205-resize_0-target.png,125,4.2175,0,2484,132,meters,jsons/VE125_randls_8.json,1596422,2961987,37,Woman
130,132201,DepthScenes,duration_manipulation_targetAtFixation,jsons/VE125_randls_8.json,http://54.235.29.9/FacialAge/BNav_EC2/DepthDuration/v2_depth_duration_MTurk/v2_DepthDuration_HTML.html#442,442,1280,609,1280,720,8-29-2022,12-33-2,131,depth_duration_stimuli/001555_2014-06-20_17-12-10_260595134347_rgbf000065-resize_4/001555_2014-06-20_17-12-10_260595134347_rgbf000065-resize_4-target.png,125,1.633,5,1961,122,meters,jsons/VE125_randls_8.json,1596422,2961987,37,Woman
131,132201,DepthScenes,duration_manipulation_targetAtFixation,jsons/VE125_randls_8.json,http://54.235.29.9/FacialAge/BNav_EC2/DepthDuration/v2_depth_duration_MTurk/v2_DepthDuration_HTML.html#442,442,1280,609,1280,720,8-29-2022,12-33-2,132,depth_duration_stimuli/000103_2014-05-14_22-01-17_260595134347_rgbf000152-resize_5/000103_2014-05-14_22-01-17_260595134347_rgbf000152-resize_5-target.png,125,1.993,5,1933,121,meters,jsons/VE125_randls_8.json,1596422,2961987,37,Woman
132,132201,DepthScenes,duration_manipulation_targetAtFixation,jsons/VE125_randls_8.json,http://54.235.29.9/FacialAge/BNav_EC2/DepthDuration/v2_depth_duration_MTurk/v2_DepthDuration_HTML.html#442,442,1280,609,1280,720,8-29-2022,12-33-2,133,depth_duration_stimuli/002057_2014-06-24_21-00-13_260595134347_rgbf000120-resize_1/002057_2014-06-24_21-00-13_260595134347_rgbf000120-resize_1-target.png,125,2.967,0,2578,131,meters,jsons/VE125_randls_8.json,1596422,2961987,37,Woman
133,132201,DepthScenes,duration_manipulation_targetAtFixation,jsons/VE125_randls_8.json,http://54.235.29.9/FacialAge/BNav_EC2/DepthDuration/v2_depth_duration_MTurk/v2_DepthDuration_HTML.html#442,442,1280,609,1280,720,8-29-2022,12-33-2,134,depth_duration_stimuli/000709_2014-06-08_13-51-55_260595134347_rgbf000068-resize_3/000709_2014-06-08_13-51-55_260595134347_rgbf000068-resize_3-target.png,125,1.8030000000000002,0,2339,125,meters,jsons/VE125_randls_8.json,1596422,2961987,37,Woman
134,132201,DepthScenes,duration_manipulation_targetAtFixation,jsons/VE125_randls_8.json,http://54.235.29.9/FacialAge/BNav_EC2/DepthDuration/v2_depth_duration_MTurk/v2_DepthDuration_HTML.html#442,442,1280,609,1280,720,8-29-2022,12-33-2,135,depth_duration_stimuli/002072_2014-06-24_21-48-06_260595134347_rgbf000115-resize_0/002072_2014-06-24_21-48-06_260595134347_rgbf000115-resize-original.jpg,125,4.702,0,3058,129,meters,jsons/VE125_randls_8.json,1596422,2961987,37,Woman
135,132201,DepthScenes,duration_manipulation_targetAtFixation,jsons/VE125_randls_8.json,http://54.235.29.9/FacialAge/BNav_EC2/DepthDuration/v2_depth_duration_MTurk/v2_DepthDuration_HTML.html#442,442,1280,609,1280,720,8-29-2022,12-33-2,136,depth_duration_stimuli/002600_2014-06-24_14-27-04_094959634447_rgbf000074-resize_2/002600_2014-06-24_14-27-04_094959634447_rgbf000074-resize_2-target.png,125,2.7575,6,2113,129,meters,jsons/VE125_randls_8.json,1596422,2961987,37,Woman
136,132201,DepthScenes,duration_manipulation_targetAtFixation,jsons/VE125_randls_8.json,http://54.235.29.9/FacialAge/BNav_EC2/DepthDuration/v2_depth_duration_MTurk/v2_DepthDuration_HTML.html#442,442,1280,609,1280,720,8-29-2022,12-33-2,137,depth_duration_stimuli/003228_2014-05-14_13-42-35_094959634447_rgbf000101-resize_1/003228_2014-05-14_13-42-35_094959634447_rgbf000101-resize_1-target.png,125,1.9680000000000002,5,2002,110,meters,jsons/VE125_randls_8.json,1596422,2961987,37,Woman
137,132201,DepthScenes,duration_manipulation_targetAtFixation,jsons/VE125_randls_8.json,http://54.235.29.9/FacialAge/BNav_EC2/DepthDuration/v2_depth_duration_MTurk/v2_DepthDuration_HTML.html#442,442,1280,609,1280,720,8-29-2022,12-33-2,138,depth_duration_stimuli/002445_2014-06-28_20-32-16_260595134347_rgbf000029-resize_4/002445_2014-06-28_20-32-16_260595134347_rgbf000029-resize_4-target.png,125,2.5315,0,2547,127,meters,jsons/VE125_randls_8.json,1596422,2961987,37,Woman
138,132201,DepthScenes,duration_manipulation_targetAtFixation,jsons/VE125_randls_8.json,http://54.235.29.9/FacialAge/BNav_EC2/DepthDuration/v2_depth_duration_MTurk/v2_DepthDuration_HTML.html#442,442,1280,609,1280,720,8-29-2022,12-33-2,139,depth_duration_stimuli/000780_2014-06-08_22-28-29_260595134347_rgbf000126-resize_1/000780_2014-06-08_22-28-29_260595134347_rgbf000126-resize_1-target.png,125,3.3825,0,2150,111,meters,jsons/VE125_randls_8.json,1596422,2961987,37,Woman
139,132201,DepthScenes,duration_manipulation_targetAtFixation,jsons/VE125_randls_8.json,http://54.235.29.9/FacialAge/BNav_EC2/DepthDuration/v2_depth_duration_MTurk/v2_DepthDuration_HTML.html#442,442,1280,609,1280,720,8-29-2022,12-33-2,140,depth_duration_stimuli/002549_2014-06-24_13-41-39_094959634447_rgbf000022-resize_3/002549_2014-06-24_13-41-39_094959634447_rgbf000022-resize_3-target.png,125,1.476,4,2237,112,meters,jsons/VE125_randls_8.json,1596422,2961987,37,Woman
140,132201,DepthScenes,duration_manipulation_targetAtFixation,jsons/VE125_randls_8.json,http://54.235.29.9/FacialAge/BNav_EC2/DepthDuration/v2_depth_duration_MTurk/v2_DepthDuration_HTML.html#442,442,1280,609,1280,720,8-29-2022,12-33-2,141,depth_duration_stimuli/002750_2014-06-22_19-08-03_094959634447_rgbf000094-resize_4/002750_2014-06-22_19-08-03_094959634447_rgbf000094-resize_4-target.png,125,2.354,0,2579,124,meters,jsons/VE125_randls_8.json,1596422,2961987,37,Woman
141,132201,DepthScenes,duration_manipulation_targetAtFixation,jsons/VE125_randls_8.json,http://54.235.29.9/FacialAge/BNav_EC2/DepthDuration/v2_depth_duration_MTurk/v2_DepthDuration_HTML.html#442,442,1280,609,1280,720,8-29-2022,12-33-2,142,depth_duration_stimuli/000878_2014-06-08_22-52-45_260595134347_rgbf000045-resize_2/000878_2014-06-08_22-52-45_260595134347_rgbf000045-resize_2-target.png,125,2.092,0,3993,123,meters,jsons/VE125_randls_8.json,1596422,2961987,37,Woman
142,132201,DepthScenes,duration_manipulation_targetAtFixation,jsons/VE125_randls_8.json,http://54.235.29.9/FacialAge/BNav_EC2/DepthDuration/v2_depth_duration_MTurk/v2_DepthDuration_HTML.html#442,442,1280,609,1280,720,8-29-2022,12-33-2,143,depth_duration_stimuli/002953_2014-06-08_17-32-18_094959634447_rgbf000059-resize_5/002953_2014-06-08_17-32-18_094959634447_rgbf000059-resize_5-target.png,125,1.551,4,3250,128,meters,jsons/VE125_randls_8.json,1596422,2961987,37,Woman
143,132201,DepthScenes,duration_manipulation_targetAtFixation,jsons/VE125_randls_8.json,http://54.235.29.9/FacialAge/BNav_EC2/DepthDuration/v2_depth_duration_MTurk/v2_DepthDuration_HTML.html#442,442,1280,609,1280,720,8-29-2022,12-33-2,144,depth_duration_stimuli/001016_2014-06-09_16-16-10_260595134347_rgbf000112-resize_5/001016_2014-06-09_16-16-10_260595134347_rgbf000112-resize_5-target.png,125,1.6565,5,2535,119,meters,jsons/VE125_randls_8.json,1596422,2961987,37,Woman
144,132201,DepthScenes,duration_manipulation_targetAtFixation,jsons/VE125_randls_8.json,http://54.235.29.9/FacialAge/BNav_EC2/DepthDuration/v2_depth_duration_MTurk/v2_DepthDuration_HTML.html#442,442,1280,609,1280,720,8-29-2022,12-33-2,145,depth_duration_stimuli/002340_2014-06-28_20-05-46_260595134347_rgbf000113-resize_0/002340_2014-06-28_20-05-46_260595134347_rgbf000113-resize_0-target.png,125,2.4735,0,2268,125,meters,jsons/VE125_randls_8.json,1596422,2961987,37,Woman
145,132201,DepthScenes,duration_manipulation_targetAtFixation,jsons/VE125_randls_8.json,http://54.235.29.9/FacialAge/BNav_EC2/DepthDuration/v2_depth_duration_MTurk/v2_DepthDuration_HTML.html#442,442,1280,609,1280,720,8-29-2022,12-33-2,146,depth_duration_stimuli/001498_2014-06-19_17-45-14_260595134347_rgbf000129-resize_4/001498_2014-06-19_17-45-14_260595134347_rgbf000129-resize-original.jpg,125,1.4075,0,2248,128,meters,jsons/VE125_randls_8.json,1596422,2961987,37,Woman
146,132201,DepthScenes,duration_manipulation_targetAtFixation,jsons/VE125_randls_8.json,http://54.235.29.9/FacialAge/BNav_EC2/DepthDuration/v2_depth_duration_MTurk/v2_DepthDuration_HTML.html#442,442,1280,609,1280,720,8-29-2022,12-33-2,147,depth_duration_stimuli/001055_2014-06-08_18-45-35_260595134347_rgbf000111-resize_4/001055_2014-06-08_18-45-35_260595134347_rgbf000111-resize_4-target.png,125,2.4290000000000003,5,2278,115,meters,jsons/VE125_randls_8.json,1596422,2961987,37,Woman
147,132201,DepthScenes,duration_manipulation_targetAtFixation,jsons/VE125_randls_8.json,http://54.235.29.9/FacialAge/BNav_EC2/DepthDuration/v2_depth_duration_MTurk/v2_DepthDuration_HTML.html#442,442,1280,609,1280,720,8-29-2022,12-33-2,148,depth_duration_stimuli/000549_2014-06-08_22-10-24_260595134347_rgbf000247-resize_3/000549_2014-06-08_22-10-24_260595134347_rgbf000247-resize_3-target.png,125,1.841,0,2310,130,meters,jsons/VE125_randls_8.json,1596422,2961987,37,Woman
148,132201,DepthScenes,duration_manipulation_targetAtFixation,jsons/VE125_randls_8.json,http://54.235.29.9/FacialAge/BNav_EC2/DepthDuration/v2_depth_duration_MTurk/v2_DepthDuration_HTML.html#442,442,1280,609,1280,720,8-29-2022,12-33-2,149,depth_duration_stimuli/001808_2014-06-26_20-50-58_260595134347_rgbf000029-resize_1/001808_2014-06-26_20-50-58_260595134347_rgbf000029-resize_1-target.png,125,4.249,5,2323,126,meters,jsons/VE125_randls_8.json,1596422,2961987,37,Woman
149,132201,DepthScenes,duration_manipulation_targetAtFixation,jsons/VE125_randls_8.json,http://54.235.29.9/FacialAge/BNav_EC2/DepthDuration/v2_depth_duration_MTurk/v2_DepthDuration_HTML.html#442,442,1280,609,1280,720,8-29-2022,12-33-2,150,depth_duration_stimuli/001815_2014-06-26_20-52-55_260595134347_rgbf000020-resize_0/001815_2014-06-26_20-52-55_260595134347_rgbf000020-resize_0-target.png,125,3.3865,4,2430,123,meters,jsons/VE125_randls_8.json,1596422,2961987,37,Woman
150,132201,DepthScenes,duration_manipulation_targetAtFixation,jsons/VE125_randls_8.json,http://54.235.29.9/FacialAge/BNav_EC2/DepthDuration/v2_depth_duration_MTurk/v2_DepthDuration_HTML.html#442,442,1280,609,1280,720,8-29-2022,12-33-2,151,depth_duration_stimuli/001011_2014-06-08_23-18-54_260595134347_rgbf000044-resize_4/001011_2014-06-08_23-18-54_260595134347_rgbf000044-resize_4-target.png,125,2.4730000000000003,0,2382,133,meters,jsons/VE125_randls_8.json,1596422,2961987,37,Woman
151,132201,DepthScenes,duration_manipulation_targetAtFixation,jsons/VE125_randls_8.json,http://54.235.29.9/FacialAge/BNav_EC2/DepthDuration/v2_depth_duration_MTurk/v2_DepthDuration_HTML.html#442,442,1280,609,1280,720,8-29-2022,12-33-2,152,depth_duration_stimuli/002875_2014-06-01_15-19-00_094959634447_rgbf000151-resize_1/002875_2014-06-01_15-19-00_094959634447_rgbf000151-resize_1-target.png,125,1.9675,4,76309,132,meters,jsons/VE125_randls_8.json,1596422,2961987,37,Woman
152,132201,DepthScenes,duration_manipulation_targetAtFixation,jsons/VE125_randls_8.json,http://54.235.29.9/FacialAge/BNav_EC2/DepthDuration/v2_depth_duration_MTurk/v2_DepthDuration_HTML.html#442,442,1280,609,1280,720,8-29-2022,12-33-2,153,depth_duration_stimuli/002725_2014-06-22_11-47-51_094959634447_rgbf000070-resize_1/002725_2014-06-22_11-47-51_094959634447_rgbf000070-resize_1-target.png,125,2.195,4,2866,123,meters,jsons/VE125_randls_8.json,1596422,2961987,37,Woman
153,132201,DepthScenes,duration_manipulation_targetAtFixation,jsons/VE125_randls_8.json,http://54.235.29.9/FacialAge/BNav_EC2/DepthDuration/v2_depth_duration_MTurk/v2_DepthDuration_HTML.html#442,442,1280,609,1280,720,8-29-2022,12-33-2,154,depth_duration_stimuli/002344_2014-06-28_20-06-29_260595134347_rgbf000030-resize_1/002344_2014-06-28_20-06-29_260595134347_rgbf000030-resize_1-target.png,125,1.5795,4,2302,129,meters,jsons/VE125_randls_8.json,1596422,2961987,37,Woman
154,132201,DepthScenes,duration_manipulation_targetAtFixation,jsons/VE125_randls_8.json,http://54.235.29.9/FacialAge/BNav_EC2/DepthDuration/v2_depth_duration_MTurk/v2_DepthDuration_HTML.html#442,442,1280,609,1280,720,8-29-2022,12-33-2,155,depth_duration_stimuli/001806_2014-06-26_20-50-20_260595134347_rgbf000091-resize_1/001806_2014-06-26_20-50-20_260595134347_rgbf000091-resize_1-target.png,125,2.7305,3,1978,119,meters,jsons/VE125_randls_8.json,1596422,2961987,37,Woman
155,132201,DepthScenes,duration_manipulation_targetAtFixation,jsons/VE125_randls_8.json,http://54.235.29.9/FacialAge/BNav_EC2/DepthDuration/v2_depth_duration_MTurk/v2_DepthDuration_HTML.html#442,442,1280,609,1280,720,8-29-2022,12-33-2,156,depth_duration_stimuli/001617_2014-06-20_11-35-32_260595134347_rgbf000066-resize_1/001617_2014-06-20_11-35-32_260595134347_rgbf000066-resize_1-target.png,125,3.7910000000000004,4,1946,131,meters,jsons/VE125_randls_8.json,1596422,2961987,37,Woman
156,132201,DepthScenes,duration_manipulation_targetAtFixation,jsons/VE125_randls_8.json,http://54.235.29.9/FacialAge/BNav_EC2/DepthDuration/v2_depth_duration_MTurk/v2_DepthDuration_HTML.html#442,442,1280,609,1280,720,8-29-2022,12-33-2,157,depth_duration_stimuli/002375_2014-06-28_20-13-44_260595134347_rgbf000032-resize_1/002375_2014-06-28_20-13-44_260595134347_rgbf000032-resize_1-target.png,125,4.0175,5,2529,127,meters,jsons/VE125_randls_8.json,1596422,2961987,37,Woman
157,132201,DepthScenes,duration_manipulation_targetAtFixation,jsons/VE125_randls_8.json,http://54.235.29.9/FacialAge/BNav_EC2/DepthDuration/v2_depth_duration_MTurk/v2_DepthDuration_HTML.html#442,442,1280,609,1280,720,8-29-2022,12-33-2,158,depth_duration_stimuli/002657_2014-06-13_15-29-54_094959634447_rgbf000150-resize_1/002657_2014-06-13_15-29-54_094959634447_rgbf000150-resize_1-target.png,125,4.919,0,2346,126,meters,jsons/VE125_randls_8.json,1596422,2961987,37,Woman
158,132201,DepthScenes,duration_manipulation_targetAtFixation,jsons/VE125_randls_8.json,http://54.235.29.9/FacialAge/BNav_EC2/DepthDuration/v2_depth_duration_MTurk/v2_DepthDuration_HTML.html#442,442,1280,609,1280,720,8-29-2022,12-33-2,159,depth_duration_stimuli/000470_2014-06-09_19-42-40_260595134347_rgbf000094-resize_1/000470_2014-06-09_19-42-40_260595134347_rgbf000094-resize_1-target.png,125,1.831,0,2652,128,meters,jsons/VE125_randls_8.json,1596422,2961987,37,Woman
159,132201,DepthScenes,duration_manipulation_targetAtFixation,jsons/VE125_randls_8.json,http://54.235.29.9/FacialAge/BNav_EC2/DepthDuration/v2_depth_duration_MTurk/v2_DepthDuration_HTML.html#442,442,1280,609,1280,720,8-29-2022,12-33-2,160,depth_duration_stimuli/000109_2014-05-14_23-41-52_260595134347_rgbf000035-resize_9/000109_2014-05-14_23-41-52_260595134347_rgbf000035-resize_9-target.png,125,1.3545,0,5658,121,meters,jsons/VE125_randls_8.json,1596422,2961987,37,Woman
160,132201,DepthScenes,duration_manipulation_targetAtFixation,jsons/VE125_randls_8.json,http://54.235.29.9/FacialAge/BNav_EC2/DepthDuration/v2_depth_duration_MTurk/v2_DepthDuration_HTML.html#442,442,1280,609,1280,720,8-29-2022,12-33-2,161,depth_duration_stimuli/002964_2014-06-08_17-46-11_094959634447_rgbf000091-resize_4/002964_2014-06-08_17-46-11_094959634447_rgbf000091-resize_4-target.png,125,1.6909999999999998,4,2905,128,meters,jsons/VE125_randls_8.json,1596422,2961987,37,Woman
161,132201,DepthScenes,duration_manipulation_targetAtFixation,jsons/VE125_randls_8.json,http://54.235.29.9/FacialAge/BNav_EC2/DepthDuration/v2_depth_duration_MTurk/v2_DepthDuration_HTML.html#442,442,1280,609,1280,720,8-29-2022,12-33-2,162,depth_duration_stimuli/002136_2014-06-25_21-18-03_260595134347_rgbf000109-resize_3/002136_2014-06-25_21-18-03_260595134347_rgbf000109-resize_3-target.png,125,1.9569999999999999,5,2210,113,meters,jsons/VE125_randls_8.json,1596422,2961987,37,Woman
162,132201,DepthScenes,duration_manipulation_targetAtFixation,jsons/VE125_randls_8.json,http://54.235.29.9/FacialAge/BNav_EC2/DepthDuration/v2_depth_duration_MTurk/v2_DepthDuration_HTML.html#442,442,1280,609,1280,720,8-29-2022,12-33-2,163,depth_duration_stimuli/000447_2014-06-08_16-15-46_260595134347_rgbf000130-resize_1/000447_2014-06-08_16-15-46_260595134347_rgbf000130-resize_1-target.png,125,4.479,5,2211,126,meters,jsons/VE125_randls_8.json,1596422,2961987,37,Woman
163,132201,DepthScenes,duration_manipulation_targetAtFixation,jsons/VE125_randls_8.json,http://54.235.29.9/FacialAge/BNav_EC2/DepthDuration/v2_depth_duration_MTurk/v2_DepthDuration_HTML.html#442,442,1280,609,1280,720,8-29-2022,12-33-2,164,depth_duration_stimuli/001447_2014-06-19_17-00-32_260595134347_rgbf000082-resize_5/001447_2014-06-19_17-00-32_260595134347_rgbf000082-resize_5-target.png,125,4.13775,4,2169,126,meters,jsons/VE125_randls_8.json,1596422,2961987,37,Woman
