,subjID,experimentName,versionName,sequenceName,url,selected_row,windowWidth,windowHeight,screenWidth,screenHeight,startDate,startTime,trial,stimulus,duration,actual_depth,depth_estimate,trial_RT,log_sceneDuration,unitSelection,seq_filepath,experimentTime,totalTime,age,gender
0,132622,DepthScenes,duration_manipulation_targetAtFixation,jsons/v1_VE1000_randls_67_rotated.json,http://54.235.29.9/FacialAge/BNav_EC2/DepthDuration/v2_depth_duration_MTurk/v2_DepthDuration_HTML.html#111,111,1364,625,1364,768,8-22-2022,5-1-52,1,depth_duration_stimuli/000866_2014-06-09_20-45-42_260595134347_rgbf000139-resize_1/000866_2014-06-09_20-45-42_260595134347_rgbf000139-resize_1-target.png,1000,3.2155,2,16536,939,feet,jsons/v1_VE1000_randls_67_rotated.json,2183444,2603873,30,Woman
1,132622,DepthScenes,duration_manipulation_targetAtFixation,jsons/v1_VE1000_randls_67_rotated.json,http://54.235.29.9/FacialAge/BNav_EC2/DepthDuration/v2_depth_duration_MTurk/v2_DepthDuration_HTML.html#111,111,1364,625,1364,768,8-22-2022,5-1-52,2,depth_duration_stimuli/002989_2014-06-15_12-25-03_094959634447_rgbf000150-resize_3/002989_2014-06-15_12-25-03_094959634447_rgbf000150-resize_3-target.png,1000,4.1975,3,11787,1294,feet,jsons/v1_VE1000_randls_67_rotated.json,2183444,2603873,30,Woman
2,132622,DepthScenes,duration_manipulation_targetAtFixation,jsons/v1_VE1000_randls_67_rotated.json,http://54.235.29.9/FacialAge/BNav_EC2/DepthDuration/v2_depth_duration_MTurk/v2_DepthDuration_HTML.html#111,111,1364,625,1364,768,8-22-2022,5-1-52,3,depth_duration_stimuli/001132_2014-06-17_14-48-54_260595134347_rgbf000100-resize_2/001132_2014-06-17_14-48-54_260595134347_rgbf000100-resize_2-target.png,1000,3.753,5,10160,1130,feet,jsons/v1_VE1000_randls_67_rotated.json,2183444,2603873,30,Woman
3,132622,DepthScenes,duration_manipulation_targetAtFixation,jsons/v1_VE1000_randls_67_rotated.json,http://54.235.29.9/FacialAge/BNav_EC2/DepthDuration/v2_depth_duration_MTurk/v2_DepthDuration_HTML.html#111,111,1364,625,1364,768,8-22-2022,5-1-52,4,depth_duration_stimuli/001133_2014-06-17_14-49-16_260595134347_rgbf000100-resize_0/001133_2014-06-17_14-49-16_260595134347_rgbf000100-resize_0-target.png,1000,4.2115,4,9431,902,feet,jsons/v1_VE1000_randls_67_rotated.json,2183444,2603873,30,Woman
4,132622,DepthScenes,duration_manipulation_targetAtFixation,jsons/v1_VE1000_randls_67_rotated.json,http://54.235.29.9/FacialAge/BNav_EC2/DepthDuration/v2_depth_duration_MTurk/v2_DepthDuration_HTML.html#111,111,1364,625,1364,768,8-22-2022,5-1-52,5,depth_duration_stimuli/002657_2014-06-13_15-29-54_094959634447_rgbf000150-resize_1/002657_2014-06-13_15-29-54_094959634447_rgbf000150-resize_1-target.png,1000,4.919,6,11021,1031,feet,jsons/v1_VE1000_randls_67_rotated.json,2183444,2603873,30,Woman
5,132622,DepthScenes,duration_manipulation_targetAtFixation,jsons/v1_VE1000_randls_67_rotated.json,http://54.235.29.9/FacialAge/BNav_EC2/DepthDuration/v2_depth_duration_MTurk/v2_DepthDuration_HTML.html#111,111,1364,625,1364,768,8-22-2022,5-1-52,6,depth_duration_stimuli/002375_2014-06-28_20-13-44_260595134347_rgbf000032-resize_1/002375_2014-06-28_20-13-44_260595134347_rgbf000032-resize_1-target.png,1000,4.0175,3,21780,978,feet,jsons/v1_VE1000_randls_67_rotated.json,2183444,2603873,30,Woman
6,132622,DepthScenes,duration_manipulation_targetAtFixation,jsons/v1_VE1000_randls_67_rotated.json,http://54.235.29.9/FacialAge/BNav_EC2/DepthDuration/v2_depth_duration_MTurk/v2_DepthDuration_HTML.html#111,111,1364,625,1364,768,8-22-2022,5-1-52,7,depth_duration_stimuli/002136_2014-06-25_21-18-03_260595134347_rgbf000109-resize_3/002136_2014-06-25_21-18-03_260595134347_rgbf000109-resize_3-target.png,1000,1.9569999999999999,2,14040,999,feet,jsons/v1_VE1000_randls_67_rotated.json,2183444,2603873,30,Woman
7,132622,DepthScenes,duration_manipulation_targetAtFixation,jsons/v1_VE1000_randls_67_rotated.json,http://54.235.29.9/FacialAge/BNav_EC2/DepthDuration/v2_depth_duration_MTurk/v2_DepthDuration_HTML.html#111,111,1364,625,1364,768,8-22-2022,5-1-52,8,depth_duration_stimuli/002964_2014-06-08_17-46-11_094959634447_rgbf000091-resize_4/002964_2014-06-08_17-46-11_094959634447_rgbf000091-resize_4-target.png,1000,1.6909999999999998,3,21560,1004,feet,jsons/v1_VE1000_randls_67_rotated.json,2183444,2603873,30,Woman
8,132622,DepthScenes,duration_manipulation_targetAtFixation,jsons/v1_VE1000_randls_67_rotated.json,http://54.235.29.9/FacialAge/BNav_EC2/DepthDuration/v2_depth_duration_MTurk/v2_DepthDuration_HTML.html#111,111,1364,625,1364,768,8-22-2022,5-1-52,9,depth_duration_stimuli/001052_2014-06-08_18-24-54_260595134347_rgbf000130-resize_1/001052_2014-06-08_18-24-54_260595134347_rgbf000130-resize_1-target.png,1000,4.1045,3,14902,1065,feet,jsons/v1_VE1000_randls_67_rotated.json,2183444,2603873,30,Woman
9,132622,DepthScenes,duration_manipulation_targetAtFixation,jsons/v1_VE1000_randls_67_rotated.json,http://54.235.29.9/FacialAge/BNav_EC2/DepthDuration/v2_depth_duration_MTurk/v2_DepthDuration_HTML.html#111,111,1364,625,1364,768,8-22-2022,5-1-52,10,depth_duration_stimuli/002988_2014-06-15_12-24-20_094959634447_rgbf000150-resize_1/002988_2014-06-15_12-24-20_094959634447_rgbf000150-resize_1-target.png,1000,4.7669999999999995,3,11642,986,feet,jsons/v1_VE1000_randls_67_rotated.json,2183444,2603873,30,Woman
10,132622,DepthScenes,duration_manipulation_targetAtFixation,jsons/v1_VE1000_randls_67_rotated.json,http://54.235.29.9/FacialAge/BNav_EC2/DepthDuration/v2_depth_duration_MTurk/v2_DepthDuration_HTML.html#111,111,1364,625,1364,768,8-22-2022,5-1-52,11,depth_duration_stimuli/003129_2014-05-12_10-48-10_094959634447_rgbf000100-resize_0/003129_2014-05-12_10-48-10_094959634447_rgbf000100-resize_0-target.png,1000,4.9305,4,18939,884,feet,jsons/v1_VE1000_randls_67_rotated.json,2183444,2603873,30,Woman
11,132622,DepthScenes,duration_manipulation_targetAtFixation,jsons/v1_VE1000_randls_67_rotated.json,http://54.235.29.9/FacialAge/BNav_EC2/DepthDuration/v2_depth_duration_MTurk/v2_DepthDuration_HTML.html#111,111,1364,625,1364,768,8-22-2022,5-1-52,12,depth_duration_stimuli/000414_2014-06-04_19-49-13_260595134347_rgbf000044-resize_0/000414_2014-06-04_19-49-13_260595134347_rgbf000044-resize_0-target.png,1000,4.329,3,9121,376,feet,jsons/v1_VE1000_randls_67_rotated.json,2183444,2603873,30,Woman
12,132622,DepthScenes,duration_manipulation_targetAtFixation,jsons/v1_VE1000_randls_67_rotated.json,http://54.235.29.9/FacialAge/BNav_EC2/DepthDuration/v2_depth_duration_MTurk/v2_DepthDuration_HTML.html#111,111,1364,625,1364,768,8-22-2022,5-1-52,13,depth_duration_stimuli/003079_2014-06-15_15-18-20_094959634447_rgbf000152-resize_8/003079_2014-06-15_15-18-20_094959634447_rgbf000152-resize_8-target.png,1000,2.8775,6,21612,1100,feet,jsons/v1_VE1000_randls_67_rotated.json,2183444,2603873,30,Woman
13,132622,DepthScenes,duration_manipulation_targetAtFixation,jsons/v1_VE1000_randls_67_rotated.json,http://54.235.29.9/FacialAge/BNav_EC2/DepthDuration/v2_depth_duration_MTurk/v2_DepthDuration_HTML.html#111,111,1364,625,1364,768,8-22-2022,5-1-52,14,depth_duration_stimuli/000506_2014-06-08_23-21-00_260595134347_rgbf000070-resize_7/000506_2014-06-08_23-21-00_260595134347_rgbf000070-resize_7-target.png,1000,4.0585,4,8887,979,feet,jsons/v1_VE1000_randls_67_rotated.json,2183444,2603873,30,Woman
14,132622,DepthScenes,duration_manipulation_targetAtFixation,jsons/v1_VE1000_randls_67_rotated.json,http://54.235.29.9/FacialAge/BNav_EC2/DepthDuration/v2_depth_duration_MTurk/v2_DepthDuration_HTML.html#111,111,1364,625,1364,768,8-22-2022,5-1-52,15,depth_duration_stimuli/000549_2014-06-08_22-10-24_260595134347_rgbf000247-resize_3/000549_2014-06-08_22-10-24_260595134347_rgbf000247-resize_3-target.png,1000,1.841,3,17521,1022,feet,jsons/v1_VE1000_randls_67_rotated.json,2183444,2603873,30,Woman
15,132622,DepthScenes,duration_manipulation_targetAtFixation,jsons/v1_VE1000_randls_67_rotated.json,http://54.235.29.9/FacialAge/BNav_EC2/DepthDuration/v2_depth_duration_MTurk/v2_DepthDuration_HTML.html#111,111,1364,625,1364,768,8-22-2022,5-1-52,16,depth_duration_stimuli/001055_2014-06-08_18-45-35_260595134347_rgbf000111-resize_4/001055_2014-06-08_18-45-35_260595134347_rgbf000111-resize_4-target.png,1000,2.4290000000000003,4,9723,1242,feet,jsons/v1_VE1000_randls_67_rotated.json,2183444,2603873,30,Woman
16,132622,DepthScenes,duration_manipulation_targetAtFixation,jsons/v1_VE1000_randls_67_rotated.json,http://54.235.29.9/FacialAge/BNav_EC2/DepthDuration/v2_depth_duration_MTurk/v2_DepthDuration_HTML.html#111,111,1364,625,1364,768,8-22-2022,5-1-52,17,depth_duration_stimuli/000409_2014-06-04_19-23-33_260595134347_rgbf000067-resize_0/000409_2014-06-04_19-23-33_260595134347_rgbf000067-resize_0-target.png,1000,3.7335,3,12934,793,feet,jsons/v1_VE1000_randls_67_rotated.json,2183444,2603873,30,Woman
17,132622,DepthScenes,duration_manipulation_targetAtFixation,jsons/v1_VE1000_randls_67_rotated.json,http://54.235.29.9/FacialAge/BNav_EC2/DepthDuration/v2_depth_duration_MTurk/v2_DepthDuration_HTML.html#111,111,1364,625,1364,768,8-22-2022,5-1-52,18,depth_duration_stimuli/002663_2014-06-13_15-50-26_094959634447_rgbf000075-resize_1/002663_2014-06-13_15-50-26_094959634447_rgbf000075-resize_1-target.png,1000,4.7495,1,10194,1001,feet,jsons/v1_VE1000_randls_67_rotated.json,2183444,2603873,30,Woman
18,132622,DepthScenes,duration_manipulation_targetAtFixation,jsons/v1_VE1000_randls_67_rotated.json,http://54.235.29.9/FacialAge/BNav_EC2/DepthDuration/v2_depth_duration_MTurk/v2_DepthDuration_HTML.html#111,111,1364,625,1364,768,8-22-2022,5-1-52,19,depth_duration_stimuli/001498_2014-06-19_17-45-14_260595134347_rgbf000129-resize_4/001498_2014-06-19_17-45-14_260595134347_rgbf000129-resize-original.jpg,1000,1.4075,3,26106,1244,feet,jsons/v1_VE1000_randls_67_rotated.json,2183444,2603873,30,Woman
19,132622,DepthScenes,duration_manipulation_targetAtFixation,jsons/v1_VE1000_randls_67_rotated.json,http://54.235.29.9/FacialAge/BNav_EC2/DepthDuration/v2_depth_duration_MTurk/v2_DepthDuration_HTML.html#111,111,1364,625,1364,768,8-22-2022,5-1-52,20,depth_duration_stimuli/002103_2014-06-25_20-00-40_260595134347_rgbf000049-resize_0/002103_2014-06-25_20-00-40_260595134347_rgbf000049-resize_0-target.png,1000,4.105,3,20344,776,feet,jsons/v1_VE1000_randls_67_rotated.json,2183444,2603873,30,Woman
20,132622,DepthScenes,duration_manipulation_targetAtFixation,jsons/v1_VE1000_randls_67_rotated.json,http://54.235.29.9/FacialAge/BNav_EC2/DepthDuration/v2_depth_duration_MTurk/v2_DepthDuration_HTML.html#111,111,1364,625,1364,768,8-22-2022,5-1-52,21,depth_duration_stimuli/002039_2014-06-24_20-22-38_260595134347_rgbf000084-resize_1/002039_2014-06-24_20-22-38_260595134347_rgbf000084-resize_1-target.png,1000,4.408,3,13375,961,feet,jsons/v1_VE1000_randls_67_rotated.json,2183444,2603873,30,Woman
21,132622,DepthScenes,duration_manipulation_targetAtFixation,jsons/v1_VE1000_randls_67_rotated.json,http://54.235.29.9/FacialAge/BNav_EC2/DepthDuration/v2_depth_duration_MTurk/v2_DepthDuration_HTML.html#111,111,1364,625,1364,768,8-22-2022,5-1-52,22,depth_duration_stimuli/000927_2014-06-09_16-32-30_260595134347_rgbf000123-resize_3/000927_2014-06-09_16-32-30_260595134347_rgbf000123-resize_3-target.png,1000,2.6785,4,19057,1002,feet,jsons/v1_VE1000_randls_67_rotated.json,2183444,2603873,30,Woman
22,132622,DepthScenes,duration_manipulation_targetAtFixation,jsons/v1_VE1000_randls_67_rotated.json,http://54.235.29.9/FacialAge/BNav_EC2/DepthDuration/v2_depth_duration_MTurk/v2_DepthDuration_HTML.html#111,111,1364,625,1364,768,8-22-2022,5-1-52,23,depth_duration_stimuli/001110_2014-06-15_17-25-28_260595134347_rgbf000150-resize_1/001110_2014-06-15_17-25-28_260595134347_rgbf000150-resize_1-target.png,1000,1.7115,3,10610,1016,feet,jsons/v1_VE1000_randls_67_rotated.json,2183444,2603873,30,Woman
23,132622,DepthScenes,duration_manipulation_targetAtFixation,jsons/v1_VE1000_randls_67_rotated.json,http://54.235.29.9/FacialAge/BNav_EC2/DepthDuration/v2_depth_duration_MTurk/v2_DepthDuration_HTML.html#111,111,1364,625,1364,768,8-22-2022,5-1-52,24,depth_duration_stimuli/000709_2014-06-08_13-51-55_260595134347_rgbf000068-resize_3/000709_2014-06-08_13-51-55_260595134347_rgbf000068-resize_3-target.png,1000,1.8030000000000002,4,10939,1212,feet,jsons/v1_VE1000_randls_67_rotated.json,2183444,2603873,30,Woman
24,132622,DepthScenes,duration_manipulation_targetAtFixation,jsons/v1_VE1000_randls_67_rotated.json,http://54.235.29.9/FacialAge/BNav_EC2/DepthDuration/v2_depth_duration_MTurk/v2_DepthDuration_HTML.html#111,111,1364,625,1364,768,8-22-2022,5-1-52,25,depth_duration_stimuli/002057_2014-06-24_21-00-13_260595134347_rgbf000120-resize_1/002057_2014-06-24_21-00-13_260595134347_rgbf000120-resize_1-target.png,1000,2.967,3,7852,834,feet,jsons/v1_VE1000_randls_67_rotated.json,2183444,2603873,30,Woman
25,132622,DepthScenes,duration_manipulation_targetAtFixation,jsons/v1_VE1000_randls_67_rotated.json,http://54.235.29.9/FacialAge/BNav_EC2/DepthDuration/v2_depth_duration_MTurk/v2_DepthDuration_HTML.html#111,111,1364,625,1364,768,8-22-2022,5-1-52,26,depth_duration_stimuli/001100_2014-06-15_17-46-26_260595134347_rgbf000225-resize_2/001100_2014-06-15_17-46-26_260595134347_rgbf000225-resize_2-target.png,1000,2.24,4,9479,928,feet,jsons/v1_VE1000_randls_67_rotated.json,2183444,2603873,30,Woman
26,132622,DepthScenes,duration_manipulation_targetAtFixation,jsons/v1_VE1000_randls_67_rotated.json,http://54.235.29.9/FacialAge/BNav_EC2/DepthDuration/v2_depth_duration_MTurk/v2_DepthDuration_HTML.html#111,111,1364,625,1364,768,8-22-2022,5-1-52,27,depth_duration_stimuli/002784_2014-06-22_19-26-30_094959634447_rgbf000083-resize_3/002784_2014-06-22_19-26-30_094959634447_rgbf000083-resize_3-target.png,1000,1.8046666666667,1,14260,880,feet,jsons/v1_VE1000_randls_67_rotated.json,2183444,2603873,30,Woman
27,132622,DepthScenes,duration_manipulation_targetAtFixation,jsons/v1_VE1000_randls_67_rotated.json,http://54.235.29.9/FacialAge/BNav_EC2/DepthDuration/v2_depth_duration_MTurk/v2_DepthDuration_HTML.html#111,111,1364,625,1364,768,8-22-2022,5-1-52,28,depth_duration_stimuli/002995_2014-06-15_12-31-26_094959634447_rgbf000150-resize_1/002995_2014-06-15_12-31-26_094959634447_rgbf000150-resize_1-target.png,1000,3.8360000000000003,1,10792,681,feet,jsons/v1_VE1000_randls_67_rotated.json,2183444,2603873,30,Woman
28,132622,DepthScenes,duration_manipulation_targetAtFixation,jsons/v1_VE1000_randls_67_rotated.json,http://54.235.29.9/FacialAge/BNav_EC2/DepthDuration/v2_depth_duration_MTurk/v2_DepthDuration_HTML.html#111,111,1364,625,1364,768,8-22-2022,5-1-52,29,depth_duration_stimuli/002748_2014-06-22_19-07-22_094959634447_rgbf000078-resize_1/002748_2014-06-22_19-07-22_094959634447_rgbf000078-resize_1-target.png,1000,4.6705,2,10820,1114,feet,jsons/v1_VE1000_randls_67_rotated.json,2183444,2603873,30,Woman
29,132622,DepthScenes,duration_manipulation_targetAtFixation,jsons/v1_VE1000_randls_67_rotated.json,http://54.235.29.9/FacialAge/BNav_EC2/DepthDuration/v2_depth_duration_MTurk/v2_DepthDuration_HTML.html#111,111,1364,625,1364,768,8-22-2022,5-1-52,30,depth_duration_stimuli/002072_2014-06-24_21-48-06_260595134347_rgbf000115-resize_0/002072_2014-06-24_21-48-06_260595134347_rgbf000115-resize-original.jpg,1000,4.702,3,14062,993,feet,jsons/v1_VE1000_randls_67_rotated.json,2183444,2603873,30,Woman
30,132622,DepthScenes,duration_manipulation_targetAtFixation,jsons/v1_VE1000_randls_67_rotated.json,http://54.235.29.9/FacialAge/BNav_EC2/DepthDuration/v2_depth_duration_MTurk/v2_DepthDuration_HTML.html#111,111,1364,625,1364,768,8-22-2022,5-1-52,31,depth_duration_stimuli/000677_2014-06-08_23-10-32_260595134347_rgbf000158-resize_6/000677_2014-06-08_23-10-32_260595134347_rgbf000158-resize_6-target.png,1000,3.556,3,14622,938,feet,jsons/v1_VE1000_randls_67_rotated.json,2183444,2603873,30,Woman
31,132622,DepthScenes,duration_manipulation_targetAtFixation,jsons/v1_VE1000_randls_67_rotated.json,http://54.235.29.9/FacialAge/BNav_EC2/DepthDuration/v2_depth_duration_MTurk/v2_DepthDuration_HTML.html#111,111,1364,625,1364,768,8-22-2022,5-1-52,32,depth_duration_stimuli/001029_2014-06-08_13-17-57_260595134347_rgbf000065-resize_1/001029_2014-06-08_13-17-57_260595134347_rgbf000065-resize_1-target.png,1000,3.0835,2,10801,999,feet,jsons/v1_VE1000_randls_67_rotated.json,2183444,2603873,30,Woman
32,132622,DepthScenes,duration_manipulation_targetAtFixation,jsons/v1_VE1000_randls_67_rotated.json,http://54.235.29.9/FacialAge/BNav_EC2/DepthDuration/v2_depth_duration_MTurk/v2_DepthDuration_HTML.html#111,111,1364,625,1364,768,8-22-2022,5-1-52,33,depth_duration_stimuli/002639_2014-06-24_14-51-37_094959634447_rgbf000074-resize_4/002639_2014-06-24_14-51-37_094959634447_rgbf000074-resize_4-target.png,1000,4.0375,3,21467,1053,feet,jsons/v1_VE1000_randls_67_rotated.json,2183444,2603873,30,Woman
33,132622,DepthScenes,duration_manipulation_targetAtFixation,jsons/v1_VE1000_randls_67_rotated.json,http://54.235.29.9/FacialAge/BNav_EC2/DepthDuration/v2_depth_duration_MTurk/v2_DepthDuration_HTML.html#111,111,1364,625,1364,768,8-22-2022,5-1-52,34,depth_duration_stimuli/003292_2014-05-14_21-53-49_094959634447_rgbf000100-resize_2/003292_2014-05-14_21-53-49_094959634447_rgbf000100-resize_2-target.png,1000,3.4815,3,8245,1062,feet,jsons/v1_VE1000_randls_67_rotated.json,2183444,2603873,30,Woman
34,132622,DepthScenes,duration_manipulation_targetAtFixation,jsons/v1_VE1000_randls_67_rotated.json,http://54.235.29.9/FacialAge/BNav_EC2/DepthDuration/v2_depth_duration_MTurk/v2_DepthDuration_HTML.html#111,111,1364,625,1364,768,8-22-2022,5-1-52,35,depth_duration_stimuli/001584_2014-06-20_11-07-43_260595134347_rgbf000002-resize_1/001584_2014-06-20_11-07-43_260595134347_rgbf000002-resize_1-target.png,1000,3.53,6,10393,960,feet,jsons/v1_VE1000_randls_67_rotated.json,2183444,2603873,30,Woman
35,132622,DepthScenes,duration_manipulation_targetAtFixation,jsons/v1_VE1000_randls_67_rotated.json,http://54.235.29.9/FacialAge/BNav_EC2/DepthDuration/v2_depth_duration_MTurk/v2_DepthDuration_HTML.html#111,111,1364,625,1364,768,8-22-2022,5-1-52,36,depth_duration_stimuli/003621_2014-05-23_18-06-08_094959634447_rgbf000101-resize_1/003621_2014-05-23_18-06-08_094959634447_rgbf000101-resize_1-target.png,1000,3.9835,3,20810,1169,feet,jsons/v1_VE1000_randls_67_rotated.json,2183444,2603873,30,Woman
36,132622,DepthScenes,duration_manipulation_targetAtFixation,jsons/v1_VE1000_randls_67_rotated.json,http://54.235.29.9/FacialAge/BNav_EC2/DepthDuration/v2_depth_duration_MTurk/v2_DepthDuration_HTML.html#111,111,1364,625,1364,768,8-22-2022,5-1-52,37,depth_duration_stimuli/001516_2014-06-20_16-25-09_260595134347_rgbf000076-resize_2/001516_2014-06-20_16-25-09_260595134347_rgbf000076-resize_2-target.png,1000,1.7445,1,25058,925,feet,jsons/v1_VE1000_randls_67_rotated.json,2183444,2603873,30,Woman
37,132622,DepthScenes,duration_manipulation_targetAtFixation,jsons/v1_VE1000_randls_67_rotated.json,http://54.235.29.9/FacialAge/BNav_EC2/DepthDuration/v2_depth_duration_MTurk/v2_DepthDuration_HTML.html#111,111,1364,625,1364,768,8-22-2022,5-1-52,38,depth_duration_stimuli/002118_2014-06-25_20-32-08_260595134347_rgbf000078-resize_1/002118_2014-06-25_20-32-08_260595134347_rgbf000078-resize_1-target.png,1000,2.6460000000000004,3,13542,976,feet,jsons/v1_VE1000_randls_67_rotated.json,2183444,2603873,30,Woman
38,132622,DepthScenes,duration_manipulation_targetAtFixation,jsons/v1_VE1000_randls_67_rotated.json,http://54.235.29.9/FacialAge/BNav_EC2/DepthDuration/v2_depth_duration_MTurk/v2_DepthDuration_HTML.html#111,111,1364,625,1364,768,8-22-2022,5-1-52,39,depth_duration_stimuli/001815_2014-06-26_20-52-55_260595134347_rgbf000020-resize_0/001815_2014-06-26_20-52-55_260595134347_rgbf000020-resize_0-target.png,1000,3.3865,2,20769,999,feet,jsons/v1_VE1000_randls_67_rotated.json,2183444,2603873,30,Woman
39,132622,DepthScenes,duration_manipulation_targetAtFixation,jsons/v1_VE1000_randls_67_rotated.json,http://54.235.29.9/FacialAge/BNav_EC2/DepthDuration/v2_depth_duration_MTurk/v2_DepthDuration_HTML.html#111,111,1364,625,1364,768,8-22-2022,5-1-52,40,depth_duration_stimuli/001808_2014-06-26_20-50-58_260595134347_rgbf000029-resize_1/001808_2014-06-26_20-50-58_260595134347_rgbf000029-resize_1-target.png,1000,4.249,3,7203,998,feet,jsons/v1_VE1000_randls_67_rotated.json,2183444,2603873,30,Woman
40,132622,DepthScenes,duration_manipulation_targetAtFixation,jsons/v1_VE1000_randls_67_rotated.json,http://54.235.29.9/FacialAge/BNav_EC2/DepthDuration/v2_depth_duration_MTurk/v2_DepthDuration_HTML.html#111,111,1364,625,1364,768,8-22-2022,5-1-52,41,depth_duration_stimuli/001235_2014-06-17_16-37-36_260595134347_rgbf000084-resize_4/001235_2014-06-17_16-37-36_260595134347_rgbf000084-resize_4-target.png,1000,3.6605,1,10461,1249,feet,jsons/v1_VE1000_randls_67_rotated.json,2183444,2603873,30,Woman
41,132622,DepthScenes,duration_manipulation_targetAtFixation,jsons/v1_VE1000_randls_67_rotated.json,http://54.235.29.9/FacialAge/BNav_EC2/DepthDuration/v2_depth_duration_MTurk/v2_DepthDuration_HTML.html#111,111,1364,625,1364,768,8-22-2022,5-1-52,42,depth_duration_stimuli/000788_2014-06-08_22-34-36_260595134347_rgbf000131-resize_1/000788_2014-06-08_22-34-36_260595134347_rgbf000131-resize_1-target.png,1000,3.359,2,6653,1016,feet,jsons/v1_VE1000_randls_67_rotated.json,2183444,2603873,30,Woman
42,132622,DepthScenes,duration_manipulation_targetAtFixation,jsons/v1_VE1000_randls_67_rotated.json,http://54.235.29.9/FacialAge/BNav_EC2/DepthDuration/v2_depth_duration_MTurk/v2_DepthDuration_HTML.html#111,111,1364,625,1364,768,8-22-2022,5-1-52,43,depth_duration_stimuli/002568_2014-06-24_13-59-21_094959634447_rgbf000062-resize_4/002568_2014-06-24_13-59-21_094959634447_rgbf000062-resize_4-target.png,1000,3.015,1,8169,1051,feet,jsons/v1_VE1000_randls_67_rotated.json,2183444,2603873,30,Woman
43,132622,DepthScenes,duration_manipulation_targetAtFixation,jsons/v1_VE1000_randls_67_rotated.json,http://54.235.29.9/FacialAge/BNav_EC2/DepthDuration/v2_depth_duration_MTurk/v2_DepthDuration_HTML.html#111,111,1364,625,1364,768,8-22-2022,5-1-52,44,depth_duration_stimuli/003492_2014-05-21_15-50-55_094959634447_rgbf000828-resize_1/003492_2014-05-21_15-50-55_094959634447_rgbf000828-resize_1-target.png,1000,4.06875,2,5321,1026,feet,jsons/v1_VE1000_randls_67_rotated.json,2183444,2603873,30,Woman
44,132622,DepthScenes,duration_manipulation_targetAtFixation,jsons/v1_VE1000_randls_67_rotated.json,http://54.235.29.9/FacialAge/BNav_EC2/DepthDuration/v2_depth_duration_MTurk/v2_DepthDuration_HTML.html#111,111,1364,625,1364,768,8-22-2022,5-1-52,45,depth_duration_stimuli/000457_2014-06-08_16-52-43_260595134347_rgbf000199-resize_1/000457_2014-06-08_16-52-43_260595134347_rgbf000199-resize_1-target.png,1000,3.6489999999999996,2,11905,988,feet,jsons/v1_VE1000_randls_67_rotated.json,2183444,2603873,30,Woman
45,132622,DepthScenes,duration_manipulation_targetAtFixation,jsons/v1_VE1000_randls_67_rotated.json,http://54.235.29.9/FacialAge/BNav_EC2/DepthDuration/v2_depth_duration_MTurk/v2_DepthDuration_HTML.html#111,111,1364,625,1364,768,8-22-2022,5-1-52,46,depth_duration_stimuli/000929_2014-06-09_16-33-19_260595134347_rgbf000139-resize_0/000929_2014-06-09_16-33-19_260595134347_rgbf000139-resize_0-target.png,1000,2.8680000000000003,1,7556,782,feet,jsons/v1_VE1000_randls_67_rotated.json,2183444,2603873,30,Woman
46,132622,DepthScenes,duration_manipulation_targetAtFixation,jsons/v1_VE1000_randls_67_rotated.json,http://54.235.29.9/FacialAge/BNav_EC2/DepthDuration/v2_depth_duration_MTurk/v2_DepthDuration_HTML.html#111,111,1364,625,1364,768,8-22-2022,5-1-52,47,depth_duration_stimuli/000556_2014-06-09_22-42-56_260595134347_rgbf000214-resize_1/000556_2014-06-09_22-42-56_260595134347_rgbf000214-resize_1-target.png,1000,4.8415,2,15466,931,feet,jsons/v1_VE1000_randls_67_rotated.json,2183444,2603873,30,Woman
47,132622,DepthScenes,duration_manipulation_targetAtFixation,jsons/v1_VE1000_randls_67_rotated.json,http://54.235.29.9/FacialAge/BNav_EC2/DepthDuration/v2_depth_duration_MTurk/v2_DepthDuration_HTML.html#111,111,1364,625,1364,768,8-22-2022,5-1-52,48,depth_duration_stimuli/001158_2014-06-17_15-32-16_260595134347_rgbf000138-resize_2/001158_2014-06-17_15-32-16_260595134347_rgbf000138-resize_2-target.png,1000,4.5315,3,5993,994,feet,jsons/v1_VE1000_randls_67_rotated.json,2183444,2603873,30,Woman
48,132622,DepthScenes,duration_manipulation_targetAtFixation,jsons/v1_VE1000_randls_67_rotated.json,http://54.235.29.9/FacialAge/BNav_EC2/DepthDuration/v2_depth_duration_MTurk/v2_DepthDuration_HTML.html#111,111,1364,625,1364,768,8-22-2022,5-1-52,49,depth_duration_stimuli/001170_2014-06-17_15-43-44_260595134347_rgbf000096-resize_6/001170_2014-06-17_15-43-44_260595134347_rgbf000096-resize-original.jpg,1000,1.1909999999999998,3,20339,930,feet,jsons/v1_VE1000_randls_67_rotated.json,2183444,2603873,30,Woman
49,132622,DepthScenes,duration_manipulation_targetAtFixation,jsons/v1_VE1000_randls_67_rotated.json,http://54.235.29.9/FacialAge/BNav_EC2/DepthDuration/v2_depth_duration_MTurk/v2_DepthDuration_HTML.html#111,111,1364,625,1364,768,8-22-2022,5-1-52,50,depth_duration_stimuli/000103_2014-05-14_22-01-17_260595134347_rgbf000152-resize_5/000103_2014-05-14_22-01-17_260595134347_rgbf000152-resize_5-target.png,1000,1.993,1,20432,718,feet,jsons/v1_VE1000_randls_67_rotated.json,2183444,2603873,30,Woman
50,132622,DepthScenes,duration_manipulation_targetAtFixation,jsons/v1_VE1000_randls_67_rotated.json,http://54.235.29.9/FacialAge/BNav_EC2/DepthDuration/v2_depth_duration_MTurk/v2_DepthDuration_HTML.html#111,111,1364,625,1364,768,8-22-2022,5-1-52,51,depth_duration_stimuli/001555_2014-06-20_17-12-10_260595134347_rgbf000065-resize_4/001555_2014-06-20_17-12-10_260595134347_rgbf000065-resize_4-target.png,1000,1.633,2,14676,923,feet,jsons/v1_VE1000_randls_67_rotated.json,2183444,2603873,30,Woman
51,132622,DepthScenes,duration_manipulation_targetAtFixation,jsons/v1_VE1000_randls_67_rotated.json,http://54.235.29.9/FacialAge/BNav_EC2/DepthDuration/v2_depth_duration_MTurk/v2_DepthDuration_HTML.html#111,111,1364,625,1364,768,8-22-2022,5-1-52,52,depth_duration_stimuli/003083_2014-06-15_15-21-03_094959634447_rgbf000063-resize_1/003083_2014-06-15_15-21-03_094959634447_rgbf000063-resize_1-target.png,1000,4.1405,3,23133,921,feet,jsons/v1_VE1000_randls_67_rotated.json,2183444,2603873,30,Woman
52,132622,DepthScenes,duration_manipulation_targetAtFixation,jsons/v1_VE1000_randls_67_rotated.json,http://54.235.29.9/FacialAge/BNav_EC2/DepthDuration/v2_depth_duration_MTurk/v2_DepthDuration_HTML.html#111,111,1364,625,1364,768,8-22-2022,5-1-52,53,depth_duration_stimuli/000486_2014-06-09_20-47-20_260595134347_rgbf000143-resize_2/000486_2014-06-09_20-47-20_260595134347_rgbf000143-resize_2-target.png,1000,4.8325,3,12549,958,feet,jsons/v1_VE1000_randls_67_rotated.json,2183444,2603873,30,Woman
53,132622,DepthScenes,duration_manipulation_targetAtFixation,jsons/v1_VE1000_randls_67_rotated.json,http://54.235.29.9/FacialAge/BNav_EC2/DepthDuration/v2_depth_duration_MTurk/v2_DepthDuration_HTML.html#111,111,1364,625,1364,768,8-22-2022,5-1-52,54,depth_duration_stimuli/000635_2014-06-08_16-38-42_260595134347_rgbf000106-resize_1/000635_2014-06-08_16-38-42_260595134347_rgbf000106-resize_1-target.png,1000,2.074,2,11565,712,feet,jsons/v1_VE1000_randls_67_rotated.json,2183444,2603873,30,Woman
54,132622,DepthScenes,duration_manipulation_targetAtFixation,jsons/v1_VE1000_randls_67_rotated.json,http://54.235.29.9/FacialAge/BNav_EC2/DepthDuration/v2_depth_duration_MTurk/v2_DepthDuration_HTML.html#111,111,1364,625,1364,768,8-22-2022,5-1-52,55,depth_duration_stimuli/002279_2014-06-28_18-55-32_260595134347_rgbf000040-resize_5/002279_2014-06-28_18-55-32_260595134347_rgbf000040-resize_5-target.png,1000,1.5043333333333,3,5954,1019,feet,jsons/v1_VE1000_randls_67_rotated.json,2183444,2603873,30,Woman
55,132622,DepthScenes,duration_manipulation_targetAtFixation,jsons/v1_VE1000_randls_67_rotated.json,http://54.235.29.9/FacialAge/BNav_EC2/DepthDuration/v2_depth_duration_MTurk/v2_DepthDuration_HTML.html#111,111,1364,625,1364,768,8-22-2022,5-1-52,56,depth_duration_stimuli/002875_2014-06-01_15-19-00_094959634447_rgbf000151-resize_1/002875_2014-06-01_15-19-00_094959634447_rgbf000151-resize_1-target.png,1000,1.9675,1,10010,943,feet,jsons/v1_VE1000_randls_67_rotated.json,2183444,2603873,30,Woman
56,132622,DepthScenes,duration_manipulation_targetAtFixation,jsons/v1_VE1000_randls_67_rotated.json,http://54.235.29.9/FacialAge/BNav_EC2/DepthDuration/v2_depth_duration_MTurk/v2_DepthDuration_HTML.html#111,111,1364,625,1364,768,8-22-2022,5-1-52,57,depth_duration_stimuli/001011_2014-06-08_23-18-54_260595134347_rgbf000044-resize_4/001011_2014-06-08_23-18-54_260595134347_rgbf000044-resize_4-target.png,1000,2.4730000000000003,1,7346,1068,feet,jsons/v1_VE1000_randls_67_rotated.json,2183444,2603873,30,Woman
57,132622,DepthScenes,duration_manipulation_targetAtFixation,jsons/v1_VE1000_randls_67_rotated.json,http://54.235.29.9/FacialAge/BNav_EC2/DepthDuration/v2_depth_duration_MTurk/v2_DepthDuration_HTML.html#111,111,1364,625,1364,768,8-22-2022,5-1-52,58,depth_duration_stimuli/002750_2014-06-22_19-08-03_094959634447_rgbf000094-resize_4/002750_2014-06-22_19-08-03_094959634447_rgbf000094-resize_4-target.png,1000,2.354,2,10524,870,feet,jsons/v1_VE1000_randls_67_rotated.json,2183444,2603873,30,Woman
58,132622,DepthScenes,duration_manipulation_targetAtFixation,jsons/v1_VE1000_randls_67_rotated.json,http://54.235.29.9/FacialAge/BNav_EC2/DepthDuration/v2_depth_duration_MTurk/v2_DepthDuration_HTML.html#111,111,1364,625,1364,768,8-22-2022,5-1-52,59,depth_duration_stimuli/002549_2014-06-24_13-41-39_094959634447_rgbf000022-resize_3/002549_2014-06-24_13-41-39_094959634447_rgbf000022-resize_3-target.png,1000,1.476,3,9452,1068,feet,jsons/v1_VE1000_randls_67_rotated.json,2183444,2603873,30,Woman
59,132622,DepthScenes,duration_manipulation_targetAtFixation,jsons/v1_VE1000_randls_67_rotated.json,http://54.235.29.9/FacialAge/BNav_EC2/DepthDuration/v2_depth_duration_MTurk/v2_DepthDuration_HTML.html#111,111,1364,625,1364,768,8-22-2022,5-1-52,60,depth_duration_stimuli/003423_2014-05-21_10-23-26_094959634447_rgbf002665-resize_2/003423_2014-05-21_10-23-26_094959634447_rgbf002665-resize_2-target.png,1000,3.2575,2,12437,867,feet,jsons/v1_VE1000_randls_67_rotated.json,2183444,2603873,30,Woman
60,132622,DepthScenes,duration_manipulation_targetAtFixation,jsons/v1_VE1000_randls_67_rotated.json,http://54.235.29.9/FacialAge/BNav_EC2/DepthDuration/v2_depth_duration_MTurk/v2_DepthDuration_HTML.html#111,111,1364,625,1364,768,8-22-2022,5-1-52,61,depth_duration_stimuli/002905_2014-06-03_18-04-43_094959634447_rgbf000151-resize_2/002905_2014-06-03_18-04-43_094959634447_rgbf000151-resize_2-target.png,1000,2.0295,4,8953,2543,feet,jsons/v1_VE1000_randls_67_rotated.json,2183444,2603873,30,Woman
61,132622,DepthScenes,duration_manipulation_targetAtFixation,jsons/v1_VE1000_randls_67_rotated.json,http://54.235.29.9/FacialAge/BNav_EC2/DepthDuration/v2_depth_duration_MTurk/v2_DepthDuration_HTML.html#111,111,1364,625,1364,768,8-22-2022,5-1-52,62,depth_duration_stimuli/002425_2014-06-28_20-27-29_260595134347_rgbf000031-resize_8/002425_2014-06-28_20-27-29_260595134347_rgbf000031-resize_8-target.png,1000,3.8960000000000004,3,15082,1,feet,jsons/v1_VE1000_randls_67_rotated.json,2183444,2603873,30,Woman
62,132622,DepthScenes,duration_manipulation_targetAtFixation,jsons/v1_VE1000_randls_67_rotated.json,http://54.235.29.9/FacialAge/BNav_EC2/DepthDuration/v2_depth_duration_MTurk/v2_DepthDuration_HTML.html#111,111,1364,625,1364,768,8-22-2022,5-1-52,63,depth_duration_stimuli/000642_2014-06-08_16-59-25_260595134347_rgbf000098-resize_2/000642_2014-06-08_16-59-25_260595134347_rgbf000098-resize_2-target.png,1000,2.8815,2,10603,1005,feet,jsons/v1_VE1000_randls_67_rotated.json,2183444,2603873,30,Woman
63,132622,DepthScenes,duration_manipulation_targetAtFixation,jsons/v1_VE1000_randls_67_rotated.json,http://54.235.29.9/FacialAge/BNav_EC2/DepthDuration/v2_depth_duration_MTurk/v2_DepthDuration_HTML.html#111,111,1364,625,1364,768,8-22-2022,5-1-52,64,depth_duration_stimuli/001571_2014-06-20_17-21-32_260595134347_rgbf000089-resize_1/001571_2014-06-20_17-21-32_260595134347_rgbf000089-resize_1-target.png,1000,1.86,1,13526,1331,feet,jsons/v1_VE1000_randls_67_rotated.json,2183444,2603873,30,Woman
64,132622,DepthScenes,duration_manipulation_targetAtFixation,jsons/v1_VE1000_randls_67_rotated.json,http://54.235.29.9/FacialAge/BNav_EC2/DepthDuration/v2_depth_duration_MTurk/v2_DepthDuration_HTML.html#111,111,1364,625,1364,768,8-22-2022,5-1-52,65,depth_duration_stimuli/002272_2014-06-28_18-53-56_260595134347_rgbf000067-resize_2/002272_2014-06-28_18-53-56_260595134347_rgbf000067-resize_2-target.png,1000,1.138,3,14687,1114,feet,jsons/v1_VE1000_randls_67_rotated.json,2183444,2603873,30,Woman
65,132622,DepthScenes,duration_manipulation_targetAtFixation,jsons/v1_VE1000_randls_67_rotated.json,http://54.235.29.9/FacialAge/BNav_EC2/DepthDuration/v2_depth_duration_MTurk/v2_DepthDuration_HTML.html#111,111,1364,625,1364,768,8-22-2022,5-1-52,66,depth_duration_stimuli/001540_2014-06-20_17-01-05_260595134347_rgbf000086-resize_2/001540_2014-06-20_17-01-05_260595134347_rgbf000086-resize-original.jpg,1000,1.459,3,10278,821,feet,jsons/v1_VE1000_randls_67_rotated.json,2183444,2603873,30,Woman
66,132622,DepthScenes,duration_manipulation_targetAtFixation,jsons/v1_VE1000_randls_67_rotated.json,http://54.235.29.9/FacialAge/BNav_EC2/DepthDuration/v2_depth_duration_MTurk/v2_DepthDuration_HTML.html#111,111,1364,625,1364,768,8-22-2022,5-1-52,67,depth_duration_stimuli/002949_2014-06-26_15-57-42_094959634447_rgbf000079-resize_1/002949_2014-06-26_15-57-42_094959634447_rgbf000079-resize_1-target.png,1000,1.8915,4,8029,974,feet,jsons/v1_VE1000_randls_67_rotated.json,2183444,2603873,30,Woman
67,132622,DepthScenes,duration_manipulation_targetAtFixation,jsons/v1_VE1000_randls_67_rotated.json,http://54.235.29.9/FacialAge/BNav_EC2/DepthDuration/v2_depth_duration_MTurk/v2_DepthDuration_HTML.html#111,111,1364,625,1364,768,8-22-2022,5-1-52,68,depth_duration_stimuli/000522_2014-06-08_13-35-06_260595134347_rgbf000244-resize_1/000522_2014-06-08_13-35-06_260595134347_rgbf000244-resize_1-target.png,1000,2.3715,2,15064,835,feet,jsons/v1_VE1000_randls_67_rotated.json,2183444,2603873,30,Woman
68,132622,DepthScenes,duration_manipulation_targetAtFixation,jsons/v1_VE1000_randls_67_rotated.json,http://54.235.29.9/FacialAge/BNav_EC2/DepthDuration/v2_depth_duration_MTurk/v2_DepthDuration_HTML.html#111,111,1364,625,1364,768,8-22-2022,5-1-52,69,depth_duration_stimuli/002444_2014-06-28_20-32-08_260595134347_rgbf000027-resize_0/002444_2014-06-28_20-32-08_260595134347_rgbf000027-resize_0-target.png,1000,4.388999999999999,3,8835,848,feet,jsons/v1_VE1000_randls_67_rotated.json,2183444,2603873,30,Woman
69,132622,DepthScenes,duration_manipulation_targetAtFixation,jsons/v1_VE1000_randls_67_rotated.json,http://54.235.29.9/FacialAge/BNav_EC2/DepthDuration/v2_depth_duration_MTurk/v2_DepthDuration_HTML.html#111,111,1364,625,1364,768,8-22-2022,5-1-52,70,depth_duration_stimuli/000436_2014-06-09_22-25-11_260595134347_rgbf000137-resize_1/000436_2014-06-09_22-25-11_260595134347_rgbf000137-resize_1-target.png,1000,4.0705,2,12081,1124,feet,jsons/v1_VE1000_randls_67_rotated.json,2183444,2603873,30,Woman
70,132622,DepthScenes,duration_manipulation_targetAtFixation,jsons/v1_VE1000_randls_67_rotated.json,http://54.235.29.9/FacialAge/BNav_EC2/DepthDuration/v2_depth_duration_MTurk/v2_DepthDuration_HTML.html#111,111,1364,625,1364,768,8-22-2022,5-1-52,71,depth_duration_stimuli/002953_2014-06-08_17-32-18_094959634447_rgbf000059-resize_5/002953_2014-06-08_17-32-18_094959634447_rgbf000059-resize_5-target.png,1000,1.551,1,10275,885,feet,jsons/v1_VE1000_randls_67_rotated.json,2183444,2603873,30,Woman
71,132622,DepthScenes,duration_manipulation_targetAtFixation,jsons/v1_VE1000_randls_67_rotated.json,http://54.235.29.9/FacialAge/BNav_EC2/DepthDuration/v2_depth_duration_MTurk/v2_DepthDuration_HTML.html#111,111,1364,625,1364,768,8-22-2022,5-1-52,72,depth_duration_stimuli/000878_2014-06-08_22-52-45_260595134347_rgbf000045-resize_2/000878_2014-06-08_22-52-45_260595134347_rgbf000045-resize_2-target.png,1000,2.092,4,21835,934,feet,jsons/v1_VE1000_randls_67_rotated.json,2183444,2603873,30,Woman
72,132622,DepthScenes,duration_manipulation_targetAtFixation,jsons/v1_VE1000_randls_67_rotated.json,http://54.235.29.9/FacialAge/BNav_EC2/DepthDuration/v2_depth_duration_MTurk/v2_DepthDuration_HTML.html#111,111,1364,625,1364,768,8-22-2022,5-1-52,73,depth_duration_stimuli/000691_2014-06-08_13-08-50_260595134347_rgbf000132-resize_3/000691_2014-06-08_13-08-50_260595134347_rgbf000132-resize_3-target.png,1000,4.1530000000000005,3,13218,962,feet,jsons/v1_VE1000_randls_67_rotated.json,2183444,2603873,30,Woman
73,132622,DepthScenes,duration_manipulation_targetAtFixation,jsons/v1_VE1000_randls_67_rotated.json,http://54.235.29.9/FacialAge/BNav_EC2/DepthDuration/v2_depth_duration_MTurk/v2_DepthDuration_HTML.html#111,111,1364,625,1364,768,8-22-2022,5-1-52,74,depth_duration_stimuli/002213_2014-06-28_18-37-58_260595134347_rgbf000055-resize_1/002213_2014-06-28_18-37-58_260595134347_rgbf000055-resize_1-target.png,1000,3.62,2,6300,1004,feet,jsons/v1_VE1000_randls_67_rotated.json,2183444,2603873,30,Woman
74,132622,DepthScenes,duration_manipulation_targetAtFixation,jsons/v1_VE1000_randls_67_rotated.json,http://54.235.29.9/FacialAge/BNav_EC2/DepthDuration/v2_depth_duration_MTurk/v2_DepthDuration_HTML.html#111,111,1364,625,1364,768,8-22-2022,5-1-52,75,depth_duration_stimuli/003338_2014-05-20_11-01-23_094959634447_rgbf000051-resize_6/003338_2014-05-20_11-01-23_094959634447_rgbf000051-resize_6-target.png,1000,1.693,1,15423,1312,feet,jsons/v1_VE1000_randls_67_rotated.json,2183444,2603873,30,Woman
75,132622,DepthScenes,duration_manipulation_targetAtFixation,jsons/v1_VE1000_randls_67_rotated.json,http://54.235.29.9/FacialAge/BNav_EC2/DepthDuration/v2_depth_duration_MTurk/v2_DepthDuration_HTML.html#111,111,1364,625,1364,768,8-22-2022,5-1-52,76,depth_duration_stimuli/002509_2014-06-24_13-19-22_094959634447_rgbf000077-resize_0/002509_2014-06-24_13-19-22_094959634447_rgbf000077-resize_0-target.png,1000,1.3065,1,5216,1001,feet,jsons/v1_VE1000_randls_67_rotated.json,2183444,2603873,30,Woman
76,132622,DepthScenes,duration_manipulation_targetAtFixation,jsons/v1_VE1000_randls_67_rotated.json,http://54.235.29.9/FacialAge/BNav_EC2/DepthDuration/v2_depth_duration_MTurk/v2_DepthDuration_HTML.html#111,111,1364,625,1364,768,8-22-2022,5-1-52,77,depth_duration_stimuli/001617_2014-06-20_11-35-32_260595134347_rgbf000066-resize_1/001617_2014-06-20_11-35-32_260595134347_rgbf000066-resize_1-target.png,1000,3.7910000000000004,1,12522,1069,feet,jsons/v1_VE1000_randls_67_rotated.json,2183444,2603873,30,Woman
77,132622,DepthScenes,duration_manipulation_targetAtFixation,jsons/v1_VE1000_randls_67_rotated.json,http://54.235.29.9/FacialAge/BNav_EC2/DepthDuration/v2_depth_duration_MTurk/v2_DepthDuration_HTML.html#111,111,1364,625,1364,768,8-22-2022,5-1-52,78,depth_duration_stimuli/001806_2014-06-26_20-50-20_260595134347_rgbf000091-resize_1/001806_2014-06-26_20-50-20_260595134347_rgbf000091-resize_1-target.png,1000,2.7305,2,7467,1229,feet,jsons/v1_VE1000_randls_67_rotated.json,2183444,2603873,30,Woman
78,132622,DepthScenes,duration_manipulation_targetAtFixation,jsons/v1_VE1000_randls_67_rotated.json,http://54.235.29.9/FacialAge/BNav_EC2/DepthDuration/v2_depth_duration_MTurk/v2_DepthDuration_HTML.html#111,111,1364,625,1364,768,8-22-2022,5-1-52,79,depth_duration_stimuli/000665_2014-06-09_20-42-35_260595134347_rgbf000110-resize_1/000665_2014-06-09_20-42-35_260595134347_rgbf000110-resize_1-target.png,1000,3.057,2,12446,1148,feet,jsons/v1_VE1000_randls_67_rotated.json,2183444,2603873,30,Woman
79,132622,DepthScenes,duration_manipulation_targetAtFixation,jsons/v1_VE1000_randls_67_rotated.json,http://54.235.29.9/FacialAge/BNav_EC2/DepthDuration/v2_depth_duration_MTurk/v2_DepthDuration_HTML.html#111,111,1364,625,1364,768,8-22-2022,5-1-52,80,depth_duration_stimuli/001150_2014-06-17_15-27-34_260595134347_rgbf000108-resize_2/001150_2014-06-17_15-27-34_260595134347_rgbf000108-resize_2-target.png,1000,4.0325,3,7535,917,feet,jsons/v1_VE1000_randls_67_rotated.json,2183444,2603873,30,Woman
80,132622,DepthScenes,duration_manipulation_targetAtFixation,jsons/v1_VE1000_randls_67_rotated.json,http://54.235.29.9/FacialAge/BNav_EC2/DepthDuration/v2_depth_duration_MTurk/v2_DepthDuration_HTML.html#111,111,1364,625,1364,768,8-22-2022,5-1-52,81,depth_duration_stimuli/001214_2014-06-17_16-13-55_260595134347_rgbf000111-resize_0/001214_2014-06-17_16-13-55_260595134347_rgbf000111-resize_0-target.png,1000,2.6505,1,9417,1077,feet,jsons/v1_VE1000_randls_67_rotated.json,2183444,2603873,30,Woman
81,132622,DepthScenes,duration_manipulation_targetAtFixation,jsons/v1_VE1000_randls_67_rotated.json,http://54.235.29.9/FacialAge/BNav_EC2/DepthDuration/v2_depth_duration_MTurk/v2_DepthDuration_HTML.html#111,111,1364,625,1364,768,8-22-2022,5-1-52,82,depth_duration_stimuli/000810_2014-06-08_17-20-01_260595134347_rgbf000105-resize_0/000810_2014-06-08_17-20-01_260595134347_rgbf000105-resize_0-target.png,1000,1.4865,1,7725,992,feet,jsons/v1_VE1000_randls_67_rotated.json,2183444,2603873,30,Woman
82,132622,DepthScenes,duration_manipulation_targetAtFixation,jsons/v1_VE1000_randls_67_rotated.json,http://54.235.29.9/FacialAge/BNav_EC2/DepthDuration/v2_depth_duration_MTurk/v2_DepthDuration_HTML.html#111,111,1364,625,1364,768,8-22-2022,5-1-52,83,depth_duration_stimuli/000749_2014-06-08_21-55-06_260595134347_rgbf000070-resize_2/000749_2014-06-08_21-55-06_260595134347_rgbf000070-resize_2-target.png,1000,2.331,1,10337,854,feet,jsons/v1_VE1000_randls_67_rotated.json,2183444,2603873,30,Woman
83,132622,DepthScenes,duration_manipulation_targetAtFixation,jsons/v1_VE1000_randls_67_rotated.json,http://54.235.29.9/FacialAge/BNav_EC2/DepthDuration/v2_depth_duration_MTurk/v2_DepthDuration_HTML.html#111,111,1364,625,1364,768,8-22-2022,5-1-52,84,depth_duration_stimuli/002788_2014-06-22_19-36-03_094959634447_rgbf000088-resize_2/002788_2014-06-22_19-36-03_094959634447_rgbf000088-resize_2-target.png,1000,1.6465,2,7853,1016,feet,jsons/v1_VE1000_randls_67_rotated.json,2183444,2603873,30,Woman
84,132622,DepthScenes,duration_manipulation_targetAtFixation,jsons/v1_VE1000_randls_67_rotated.json,http://54.235.29.9/FacialAge/BNav_EC2/DepthDuration/v2_depth_duration_MTurk/v2_DepthDuration_HTML.html#111,111,1364,625,1364,768,8-22-2022,5-1-52,85,depth_duration_stimuli/000780_2014-06-08_22-28-29_260595134347_rgbf000126-resize_1/000780_2014-06-08_22-28-29_260595134347_rgbf000126-resize_1-target.png,1000,3.3825,3,14804,1040,feet,jsons/v1_VE1000_randls_67_rotated.json,2183444,2603873,30,Woman
85,132622,DepthScenes,duration_manipulation_targetAtFixation,jsons/v1_VE1000_randls_67_rotated.json,http://54.235.29.9/FacialAge/BNav_EC2/DepthDuration/v2_depth_duration_MTurk/v2_DepthDuration_HTML.html#111,111,1364,625,1364,768,8-22-2022,5-1-52,86,depth_duration_stimuli/002445_2014-06-28_20-32-16_260595134347_rgbf000029-resize_4/002445_2014-06-28_20-32-16_260595134347_rgbf000029-resize_4-target.png,1000,2.5315,2,6754,1082,feet,jsons/v1_VE1000_randls_67_rotated.json,2183444,2603873,30,Woman
86,132622,DepthScenes,duration_manipulation_targetAtFixation,jsons/v1_VE1000_randls_67_rotated.json,http://54.235.29.9/FacialAge/BNav_EC2/DepthDuration/v2_depth_duration_MTurk/v2_DepthDuration_HTML.html#111,111,1364,625,1364,768,8-22-2022,5-1-52,87,depth_duration_stimuli/001450_2014-06-19_17-02-03_260595134347_rgbf000203-resize_4/001450_2014-06-19_17-02-03_260595134347_rgbf000203-resize_4-target.png,1000,4.0106666666667,3,6200,1563,feet,jsons/v1_VE1000_randls_67_rotated.json,2183444,2603873,30,Woman
87,132622,DepthScenes,duration_manipulation_targetAtFixation,jsons/v1_VE1000_randls_67_rotated.json,http://54.235.29.9/FacialAge/BNav_EC2/DepthDuration/v2_depth_duration_MTurk/v2_DepthDuration_HTML.html#111,111,1364,625,1364,768,8-22-2022,5-1-52,88,depth_duration_stimuli/001449_2014-06-19_17-01-27_260595134347_rgbf000116-resize_2/001449_2014-06-19_17-01-27_260595134347_rgbf000116-resize_2-target.png,1000,3.452,3,10649,1096,feet,jsons/v1_VE1000_randls_67_rotated.json,2183444,2603873,30,Woman
88,132622,DepthScenes,duration_manipulation_targetAtFixation,jsons/v1_VE1000_randls_67_rotated.json,http://54.235.29.9/FacialAge/BNav_EC2/DepthDuration/v2_depth_duration_MTurk/v2_DepthDuration_HTML.html#111,111,1364,625,1364,768,8-22-2022,5-1-52,89,depth_duration_stimuli/002758_2014-06-22_19-11-20_094959634447_rgbf000128-resize_1/002758_2014-06-22_19-11-20_094959634447_rgbf000128-resize_1-target.png,1000,2.555,3,11565,1487,feet,jsons/v1_VE1000_randls_67_rotated.json,2183444,2603873,30,Woman
89,132622,DepthScenes,duration_manipulation_targetAtFixation,jsons/v1_VE1000_randls_67_rotated.json,http://54.235.29.9/FacialAge/BNav_EC2/DepthDuration/v2_depth_duration_MTurk/v2_DepthDuration_HTML.html#111,111,1364,625,1364,768,8-22-2022,5-1-52,90,depth_duration_stimuli/002630_2014-06-24_14-47-50_094959634447_rgbf000055-resize_1/002630_2014-06-24_14-47-50_094959634447_rgbf000055-resize_1-target.png,1000,3.0095,3,11896,1458,feet,jsons/v1_VE1000_randls_67_rotated.json,2183444,2603873,30,Woman
90,132622,DepthScenes,duration_manipulation_targetAtFixation,jsons/v1_VE1000_randls_67_rotated.json,http://54.235.29.9/FacialAge/BNav_EC2/DepthDuration/v2_depth_duration_MTurk/v2_DepthDuration_HTML.html#111,111,1364,625,1364,768,8-22-2022,5-1-52,91,depth_duration_stimuli/002545_2014-06-24_13-38-53_094959634447_rgbf000080-resize_4/002545_2014-06-24_13-38-53_094959634447_rgbf000080-resize_4-target.png,1000,1.9205,3,19842,1033,feet,jsons/v1_VE1000_randls_67_rotated.json,2183444,2603873,30,Woman
91,132622,DepthScenes,duration_manipulation_targetAtFixation,jsons/v1_VE1000_randls_67_rotated.json,http://54.235.29.9/FacialAge/BNav_EC2/DepthDuration/v2_depth_duration_MTurk/v2_DepthDuration_HTML.html#111,111,1364,625,1364,768,8-22-2022,5-1-52,92,depth_duration_stimuli/001092_2014-06-15_17-34-58_260595134347_rgbf000171-resize_3/001092_2014-06-15_17-34-58_260595134347_rgbf000171-resize_3-target.png,1000,2.6935,3,9828,1110,feet,jsons/v1_VE1000_randls_67_rotated.json,2183444,2603873,30,Woman
92,132622,DepthScenes,duration_manipulation_targetAtFixation,jsons/v1_VE1000_randls_67_rotated.json,http://54.235.29.9/FacialAge/BNav_EC2/DepthDuration/v2_depth_duration_MTurk/v2_DepthDuration_HTML.html#111,111,1364,625,1364,768,8-22-2022,5-1-52,93,depth_duration_stimuli/001392_2014-06-19_16-07-59_260595134347_rgbf000046-resize_1/001392_2014-06-19_16-07-59_260595134347_rgbf000046-resize_1-target.png,1000,4.135,3,11140,905,feet,jsons/v1_VE1000_randls_67_rotated.json,2183444,2603873,30,Woman
93,132622,DepthScenes,duration_manipulation_targetAtFixation,jsons/v1_VE1000_randls_67_rotated.json,http://54.235.29.9/FacialAge/BNav_EC2/DepthDuration/v2_depth_duration_MTurk/v2_DepthDuration_HTML.html#111,111,1364,625,1364,768,8-22-2022,5-1-52,94,depth_duration_stimuli/001570_2014-06-20_17-21-09_260595134347_rgbf000135-resize_4/001570_2014-06-20_17-21-09_260595134347_rgbf000135-resize_4-target.png,1000,4.467,6,14135,881,feet,jsons/v1_VE1000_randls_67_rotated.json,2183444,2603873,30,Woman
94,132622,DepthScenes,duration_manipulation_targetAtFixation,jsons/v1_VE1000_randls_67_rotated.json,http://54.235.29.9/FacialAge/BNav_EC2/DepthDuration/v2_depth_duration_MTurk/v2_DepthDuration_HTML.html#111,111,1364,625,1364,768,8-22-2022,5-1-52,95,depth_duration_stimuli/003490_2014-05-21_15-50-11_094959634447_rgbf000101-resize_3/003490_2014-05-21_15-50-11_094959634447_rgbf000101-resize_3-target.png,1000,3.6445,3,8279,1073,feet,jsons/v1_VE1000_randls_67_rotated.json,2183444,2603873,30,Woman
95,132622,DepthScenes,duration_manipulation_targetAtFixation,jsons/v1_VE1000_randls_67_rotated.json,http://54.235.29.9/FacialAge/BNav_EC2/DepthDuration/v2_depth_duration_MTurk/v2_DepthDuration_HTML.html#111,111,1364,625,1364,768,8-22-2022,5-1-52,96,depth_duration_stimuli/001175_2014-06-17_15-45-55_260595134347_rgbf000129-resize_4/001175_2014-06-17_15-45-55_260595134347_rgbf000129-resize_4-target.png,1000,4.255,3,8945,948,feet,jsons/v1_VE1000_randls_67_rotated.json,2183444,2603873,30,Woman
96,132622,DepthScenes,duration_manipulation_targetAtFixation,jsons/v1_VE1000_randls_67_rotated.json,http://54.235.29.9/FacialAge/BNav_EC2/DepthDuration/v2_depth_duration_MTurk/v2_DepthDuration_HTML.html#111,111,1364,625,1364,768,8-22-2022,5-1-52,97,depth_duration_stimuli/002637_2014-06-24_14-51-13_094959634447_rgbf000066-resize_4/002637_2014-06-24_14-51-13_094959634447_rgbf000066-resize_4-target.png,1000,1.9955,2,14818,1085,feet,jsons/v1_VE1000_randls_67_rotated.json,2183444,2603873,30,Woman
97,132622,DepthScenes,duration_manipulation_targetAtFixation,jsons/v1_VE1000_randls_67_rotated.json,http://54.235.29.9/FacialAge/BNav_EC2/DepthDuration/v2_depth_duration_MTurk/v2_DepthDuration_HTML.html#111,111,1364,625,1364,768,8-22-2022,5-1-52,98,depth_duration_stimuli/003534_2014-05-22_15-06-10_094959634447_rgbf000102-resize_4/003534_2014-05-22_15-06-10_094959634447_rgbf000102-resize_4-target.png,1000,1.426,3,10091,855,feet,jsons/v1_VE1000_randls_67_rotated.json,2183444,2603873,30,Woman
98,132622,DepthScenes,duration_manipulation_targetAtFixation,jsons/v1_VE1000_randls_67_rotated.json,http://54.235.29.9/FacialAge/BNav_EC2/DepthDuration/v2_depth_duration_MTurk/v2_DepthDuration_HTML.html#111,111,1364,625,1364,768,8-22-2022,5-1-52,99,depth_duration_stimuli/001222_2014-06-17_16-24-06_260595134347_rgbf000073-resize_0/001222_2014-06-17_16-24-06_260595134347_rgbf000073-resize-original.jpg,1000,1.4385,3,11094,1007,feet,jsons/v1_VE1000_randls_67_rotated.json,2183444,2603873,30,Woman
99,132622,DepthScenes,duration_manipulation_targetAtFixation,jsons/v1_VE1000_randls_67_rotated.json,http://54.235.29.9/FacialAge/BNav_EC2/DepthDuration/v2_depth_duration_MTurk/v2_DepthDuration_HTML.html#111,111,1364,625,1364,768,8-22-2022,5-1-52,100,depth_duration_stimuli/000734_2014-06-08_17-39-11_260595134347_rgbf000128-resize_2/000734_2014-06-08_17-39-11_260595134347_rgbf000128-resize_2-target.png,1000,4.098,2,15295,996,feet,jsons/v1_VE1000_randls_67_rotated.json,2183444,2603873,30,Woman
100,132622,DepthScenes,duration_manipulation_targetAtFixation,jsons/v1_VE1000_randls_67_rotated.json,http://54.235.29.9/FacialAge/BNav_EC2/DepthDuration/v2_depth_duration_MTurk/v2_DepthDuration_HTML.html#111,111,1364,625,1364,768,8-22-2022,5-1-52,101,depth_duration_stimuli/000739_2014-06-08_18-45-58_260595134347_rgbf000068-resize_1/000739_2014-06-08_18-45-58_260595134347_rgbf000068-resize_1-target.png,1000,3.534,3,12407,1226,feet,jsons/v1_VE1000_randls_67_rotated.json,2183444,2603873,30,Woman
101,132622,DepthScenes,duration_manipulation_targetAtFixation,jsons/v1_VE1000_randls_67_rotated.json,http://54.235.29.9/FacialAge/BNav_EC2/DepthDuration/v2_depth_duration_MTurk/v2_DepthDuration_HTML.html#111,111,1364,625,1364,768,8-22-2022,5-1-52,102,depth_duration_stimuli/001094_2014-06-15_17-36-00_260595134347_rgbf000205-resize_0/001094_2014-06-15_17-36-00_260595134347_rgbf000205-resize_0-target.png,1000,4.2175,2,40249,1000,feet,jsons/v1_VE1000_randls_67_rotated.json,2183444,2603873,30,Woman
102,132622,DepthScenes,duration_manipulation_targetAtFixation,jsons/v1_VE1000_randls_67_rotated.json,http://54.235.29.9/FacialAge/BNav_EC2/DepthDuration/v2_depth_duration_MTurk/v2_DepthDuration_HTML.html#111,111,1364,768,1364,768,8-22-2022,5-1-52,103,depth_duration_stimuli/000692_2014-06-08_13-09-42_260595134347_rgbf000199-resize_2/000692_2014-06-08_13-09-42_260595134347_rgbf000199-resize_2-target.png,1000,3.661,3,49897,935,feet,jsons/v1_VE1000_randls_67_rotated.json,2183444,2603873,30,Woman
103,132622,DepthScenes,duration_manipulation_targetAtFixation,jsons/v1_VE1000_randls_67_rotated.json,http://54.235.29.9/FacialAge/BNav_EC2/DepthDuration/v2_depth_duration_MTurk/v2_DepthDuration_HTML.html#111,111,1364,768,1364,768,8-22-2022,5-1-52,104,depth_duration_stimuli/002323_2014-06-28_20-01-54_260595134347_rgbf000051-resize_4/002323_2014-06-28_20-01-54_260595134347_rgbf000051-resize_4-target.png,1000,3.7310000000000003,3,10999,998,feet,jsons/v1_VE1000_randls_67_rotated.json,2183444,2603873,30,Woman
104,132622,DepthScenes,duration_manipulation_targetAtFixation,jsons/v1_VE1000_randls_67_rotated.json,http://54.235.29.9/FacialAge/BNav_EC2/DepthDuration/v2_depth_duration_MTurk/v2_DepthDuration_HTML.html#111,111,1364,768,1364,768,8-22-2022,5-1-52,105,depth_duration_stimuli/000917_2014-06-09_22-45-29_260595134347_rgbf000149-resize_3/000917_2014-06-09_22-45-29_260595134347_rgbf000149-resize_3-target.png,1000,4.1865,2,9098,984,feet,jsons/v1_VE1000_randls_67_rotated.json,2183444,2603873,30,Woman
105,132622,DepthScenes,duration_manipulation_targetAtFixation,jsons/v1_VE1000_randls_67_rotated.json,http://54.235.29.9/FacialAge/BNav_EC2/DepthDuration/v2_depth_duration_MTurk/v2_DepthDuration_HTML.html#111,111,1364,768,1364,768,8-22-2022,5-1-52,106,depth_duration_stimuli/002678_2014-06-13_16-15-32_094959634447_rgbf000151-resize_6/002678_2014-06-13_16-15-32_094959634447_rgbf000151-resize_6-target.png,1000,2.1830000000000003,2,10547,1088,feet,jsons/v1_VE1000_randls_67_rotated.json,2183444,2603873,30,Woman
106,132622,DepthScenes,duration_manipulation_targetAtFixation,jsons/v1_VE1000_randls_67_rotated.json,http://54.235.29.9/FacialAge/BNav_EC2/DepthDuration/v2_depth_duration_MTurk/v2_DepthDuration_HTML.html#111,111,1364,768,1364,768,8-22-2022,5-1-52,107,depth_duration_stimuli/000368_2014-06-09_15-53-01_260595134347_rgbf000155-resize_2/000368_2014-06-09_15-53-01_260595134347_rgbf000155-resize_2-target.png,1000,2.4859999999999998,2,9399,788,feet,jsons/v1_VE1000_randls_67_rotated.json,2183444,2603873,30,Woman
107,132622,DepthScenes,duration_manipulation_targetAtFixation,jsons/v1_VE1000_randls_67_rotated.json,http://54.235.29.9/FacialAge/BNav_EC2/DepthDuration/v2_depth_duration_MTurk/v2_DepthDuration_HTML.html#111,111,1364,768,1364,768,8-22-2022,5-1-52,108,depth_duration_stimuli/001032_2014-06-08_13-23-17_260595134347_rgbf000021-resize_3/001032_2014-06-08_13-23-17_260595134347_rgbf000021-resize_3-target.png,1000,3.2725,4,18109,1000,feet,jsons/v1_VE1000_randls_67_rotated.json,2183444,2603873,30,Woman
108,132622,DepthScenes,duration_manipulation_targetAtFixation,jsons/v1_VE1000_randls_67_rotated.json,http://54.235.29.9/FacialAge/BNav_EC2/DepthDuration/v2_depth_duration_MTurk/v2_DepthDuration_HTML.html#111,111,1364,768,1364,768,8-22-2022,5-1-52,109,depth_duration_stimuli/001059_2014-06-08_21-53-27_260595134347_rgbf000061-resize_4/001059_2014-06-08_21-53-27_260595134347_rgbf000061-resize_4-target.png,1000,2.4185,3,10368,998,feet,jsons/v1_VE1000_randls_67_rotated.json,2183444,2603873,30,Woman
109,132622,DepthScenes,duration_manipulation_targetAtFixation,jsons/v1_VE1000_randls_67_rotated.json,http://54.235.29.9/FacialAge/BNav_EC2/DepthDuration/v2_depth_duration_MTurk/v2_DepthDuration_HTML.html#111,111,1364,768,1364,768,8-22-2022,5-1-52,110,depth_duration_stimuli/003228_2014-05-14_13-42-35_094959634447_rgbf000101-resize_1/003228_2014-05-14_13-42-35_094959634447_rgbf000101-resize_1-target.png,1000,1.9680000000000002,3,12460,1223,feet,jsons/v1_VE1000_randls_67_rotated.json,2183444,2603873,30,Woman
110,132622,DepthScenes,duration_manipulation_targetAtFixation,jsons/v1_VE1000_randls_67_rotated.json,http://54.235.29.9/FacialAge/BNav_EC2/DepthDuration/v2_depth_duration_MTurk/v2_DepthDuration_HTML.html#111,111,1364,768,1364,768,8-22-2022,5-1-52,111,depth_duration_stimuli/002600_2014-06-24_14-27-04_094959634447_rgbf000074-resize_2/002600_2014-06-24_14-27-04_094959634447_rgbf000074-resize_2-target.png,1000,2.7575,2,7226,1036,feet,jsons/v1_VE1000_randls_67_rotated.json,2183444,2603873,30,Woman
111,132622,DepthScenes,duration_manipulation_targetAtFixation,jsons/v1_VE1000_randls_67_rotated.json,http://54.235.29.9/FacialAge/BNav_EC2/DepthDuration/v2_depth_duration_MTurk/v2_DepthDuration_HTML.html#111,111,1364,768,1364,768,8-22-2022,5-1-52,112,depth_duration_stimuli/000943_2014-06-09_19-31-07_260595134347_rgbf000128-resize_1/000943_2014-06-09_19-31-07_260595134347_rgbf000128-resize_1-target.png,1000,1.9765,3,11839,1115,feet,jsons/v1_VE1000_randls_67_rotated.json,2183444,2603873,30,Woman
112,132622,DepthScenes,duration_manipulation_targetAtFixation,jsons/v1_VE1000_randls_67_rotated.json,http://54.235.29.9/FacialAge/BNav_EC2/DepthDuration/v2_depth_duration_MTurk/v2_DepthDuration_HTML.html#111,111,1364,768,1364,768,8-22-2022,5-1-52,113,depth_duration_stimuli/003070_2014-06-15_14-58-27_094959634447_rgbf000150-resize_3/003070_2014-06-15_14-58-27_094959634447_rgbf000150-resize_3-target.png,1000,2.9415,2,10507,1076,feet,jsons/v1_VE1000_randls_67_rotated.json,2183444,2603873,30,Woman
113,132622,DepthScenes,duration_manipulation_targetAtFixation,jsons/v1_VE1000_randls_67_rotated.json,http://54.235.29.9/FacialAge/BNav_EC2/DepthDuration/v2_depth_duration_MTurk/v2_DepthDuration_HTML.html#111,111,1364,768,1364,768,8-22-2022,5-1-52,114,depth_duration_stimuli/002660_2014-06-13_15-44-18_094959634447_rgbf001878-resize_2/002660_2014-06-13_15-44-18_094959634447_rgbf001878-resize_2-target.png,1000,3.576,2,21074,998,feet,jsons/v1_VE1000_randls_67_rotated.json,2183444,2603873,30,Woman
114,132622,DepthScenes,duration_manipulation_targetAtFixation,jsons/v1_VE1000_randls_67_rotated.json,http://54.235.29.9/FacialAge/BNav_EC2/DepthDuration/v2_depth_duration_MTurk/v2_DepthDuration_HTML.html#111,111,1364,768,1364,768,8-22-2022,5-1-52,115,depth_duration_stimuli/002153_2014-06-25_21-27-18_260595134347_rgbf000038-resize_5/002153_2014-06-25_21-27-18_260595134347_rgbf000038-resize_5-target.png,1000,2.505,3,12915,1137,feet,jsons/v1_VE1000_randls_67_rotated.json,2183444,2603873,30,Woman
115,132622,DepthScenes,duration_manipulation_targetAtFixation,jsons/v1_VE1000_randls_67_rotated.json,http://54.235.29.9/FacialAge/BNav_EC2/DepthDuration/v2_depth_duration_MTurk/v2_DepthDuration_HTML.html#111,111,1364,768,1364,768,8-22-2022,5-1-52,116,depth_duration_stimuli/000109_2014-05-14_23-41-52_260595134347_rgbf000035-resize_9/000109_2014-05-14_23-41-52_260595134347_rgbf000035-resize_9-target.png,1000,1.3545,2,10056,994,feet,jsons/v1_VE1000_randls_67_rotated.json,2183444,2603873,30,Woman
116,132622,DepthScenes,duration_manipulation_targetAtFixation,jsons/v1_VE1000_randls_67_rotated.json,http://54.235.29.9/FacialAge/BNav_EC2/DepthDuration/v2_depth_duration_MTurk/v2_DepthDuration_HTML.html#111,111,1364,768,1364,768,8-22-2022,5-1-52,117,depth_duration_stimuli/000470_2014-06-09_19-42-40_260595134347_rgbf000094-resize_1/000470_2014-06-09_19-42-40_260595134347_rgbf000094-resize_1-target.png,1000,1.831,3,12156,1029,feet,jsons/v1_VE1000_randls_67_rotated.json,2183444,2603873,30,Woman
117,132622,DepthScenes,duration_manipulation_targetAtFixation,jsons/v1_VE1000_randls_67_rotated.json,http://54.235.29.9/FacialAge/BNav_EC2/DepthDuration/v2_depth_duration_MTurk/v2_DepthDuration_HTML.html#111,111,1364,768,1364,768,8-22-2022,5-1-52,118,depth_duration_stimuli/003048_2014-06-15_13-49-43_094959634447_rgbf000150-resize_1/003048_2014-06-15_13-49-43_094959634447_rgbf000150-resize_1-target.png,1000,4.0035,2,9145,1005,feet,jsons/v1_VE1000_randls_67_rotated.json,2183444,2603873,30,Woman
118,132622,DepthScenes,duration_manipulation_targetAtFixation,jsons/v1_VE1000_randls_67_rotated.json,http://54.235.29.9/FacialAge/BNav_EC2/DepthDuration/v2_depth_duration_MTurk/v2_DepthDuration_HTML.html#111,111,1364,768,1364,768,8-22-2022,5-1-52,119,depth_duration_stimuli/002043_2014-06-24_20-29-38_260595134347_rgbf000039-resize_4/002043_2014-06-24_20-29-38_260595134347_rgbf000039-resize_4-target.png,1000,2.8435,3,12503,1625,feet,jsons/v1_VE1000_randls_67_rotated.json,2183444,2603873,30,Woman
119,132622,DepthScenes,duration_manipulation_targetAtFixation,jsons/v1_VE1000_randls_67_rotated.json,http://54.235.29.9/FacialAge/BNav_EC2/DepthDuration/v2_depth_duration_MTurk/v2_DepthDuration_HTML.html#111,111,1364,768,1364,768,8-22-2022,5-1-52,120,depth_duration_stimuli/000787_2014-06-08_22-33-53_260595134347_rgbf000175-resize_1/000787_2014-06-08_22-33-53_260595134347_rgbf000175-resize-original.jpg,1000,4.784,2,15986,1077,feet,jsons/v1_VE1000_randls_67_rotated.json,2183444,2603873,30,Woman
120,132622,DepthScenes,duration_manipulation_targetAtFixation,jsons/v1_VE1000_randls_67_rotated.json,http://54.235.29.9/FacialAge/BNav_EC2/DepthDuration/v2_depth_duration_MTurk/v2_DepthDuration_HTML.html#111,111,1364,768,1364,768,8-22-2022,5-1-52,121,depth_duration_stimuli/003010_2014-06-15_12-54-35_094959634447_rgbf000112-resize_0/003010_2014-06-15_12-54-35_094959634447_rgbf000112-resize_0-target.png,1000,3.1185,3,7049,1318,feet,jsons/v1_VE1000_randls_67_rotated.json,2183444,2603873,30,Woman
121,132622,DepthScenes,duration_manipulation_targetAtFixation,jsons/v1_VE1000_randls_67_rotated.json,http://54.235.29.9/FacialAge/BNav_EC2/DepthDuration/v2_depth_duration_MTurk/v2_DepthDuration_HTML.html#111,111,1364,768,1364,768,8-22-2022,5-1-52,122,depth_duration_stimuli/001810_2014-06-26_20-51-35_260595134347_rgbf000040-resize_3/001810_2014-06-26_20-51-35_260595134347_rgbf000040-resize_3-target.png,1000,2.2525,3,8142,1106,feet,jsons/v1_VE1000_randls_67_rotated.json,2183444,2603873,30,Woman
122,132622,DepthScenes,duration_manipulation_targetAtFixation,jsons/v1_VE1000_randls_67_rotated.json,http://54.235.29.9/FacialAge/BNav_EC2/DepthDuration/v2_depth_duration_MTurk/v2_DepthDuration_HTML.html#111,111,1364,768,1364,768,8-22-2022,5-1-52,123,depth_duration_stimuli/001828_2014-06-26_21-40-03_260595134347_rgbf000024-resize_0/001828_2014-06-26_21-40-03_260595134347_rgbf000024-resize_0-target.png,1000,4.8260000000000005,5,14586,877,feet,jsons/v1_VE1000_randls_67_rotated.json,2183444,2603873,30,Woman
123,132622,DepthScenes,duration_manipulation_targetAtFixation,jsons/v1_VE1000_randls_67_rotated.json,http://54.235.29.9/FacialAge/BNav_EC2/DepthDuration/v2_depth_duration_MTurk/v2_DepthDuration_HTML.html#111,111,1364,768,1364,768,8-22-2022,5-1-52,124,depth_duration_stimuli/000009_2014-05-26_14-32-05_260595134347_rgbf000034-resize_3/000009_2014-05-26_14-32-05_260595134347_rgbf000034-resize_3-target.png,1000,3.8715,3,5920,1094,feet,jsons/v1_VE1000_randls_67_rotated.json,2183444,2603873,30,Woman
124,132622,DepthScenes,duration_manipulation_targetAtFixation,jsons/v1_VE1000_randls_67_rotated.json,http://54.235.29.9/FacialAge/BNav_EC2/DepthDuration/v2_depth_duration_MTurk/v2_DepthDuration_HTML.html#111,111,1364,768,1364,768,8-22-2022,5-1-52,125,depth_duration_stimuli/003587_2014-05-23_16-48-02_094959634447_rgbf002384-resize_2/003587_2014-05-23_16-48-02_094959634447_rgbf002384-resize_2-target.png,1000,1.357,1,10562,1092,feet,jsons/v1_VE1000_randls_67_rotated.json,2183444,2603873,30,Woman
125,132622,DepthScenes,duration_manipulation_targetAtFixation,jsons/v1_VE1000_randls_67_rotated.json,http://54.235.29.9/FacialAge/BNav_EC2/DepthDuration/v2_depth_duration_MTurk/v2_DepthDuration_HTML.html#111,111,1364,768,1364,768,8-22-2022,5-1-52,126,depth_duration_stimuli/001167_2014-06-17_15-38-07_260595134347_rgbf000108-resize_0/001167_2014-06-17_15-38-07_260595134347_rgbf000108-resize_0-target.png,1000,1.8505,2,9843,999,feet,jsons/v1_VE1000_randls_67_rotated.json,2183444,2603873,30,Woman
126,132622,DepthScenes,duration_manipulation_targetAtFixation,jsons/v1_VE1000_randls_67_rotated.json,http://54.235.29.9/FacialAge/BNav_EC2/DepthDuration/v2_depth_duration_MTurk/v2_DepthDuration_HTML.html#111,111,1364,768,1364,768,8-22-2022,5-1-52,127,depth_duration_stimuli/003081_2014-06-15_15-19-16_094959634447_rgbf000150-resize_1/003081_2014-06-15_15-19-16_094959634447_rgbf000150-resize_1-target.png,1000,3.9125,2,7998,1224,feet,jsons/v1_VE1000_randls_67_rotated.json,2183444,2603873,30,Woman
127,132622,DepthScenes,duration_manipulation_targetAtFixation,jsons/v1_VE1000_randls_67_rotated.json,http://54.235.29.9/FacialAge/BNav_EC2/DepthDuration/v2_depth_duration_MTurk/v2_DepthDuration_HTML.html#111,111,1364,768,1364,768,8-22-2022,5-1-52,128,depth_duration_stimuli/001417_2014-06-19_16-25-36_260595134347_rgbf000115-resize_5/001417_2014-06-19_16-25-36_260595134347_rgbf000115-resize_5-target.png,1000,4.6255,2,19215,901,feet,jsons/v1_VE1000_randls_67_rotated.json,2183444,2603873,30,Woman
128,132622,DepthScenes,duration_manipulation_targetAtFixation,jsons/v1_VE1000_randls_67_rotated.json,http://54.235.29.9/FacialAge/BNav_EC2/DepthDuration/v2_depth_duration_MTurk/v2_DepthDuration_HTML.html#111,111,1364,768,1364,768,8-22-2022,5-1-52,129,depth_duration_stimuli/000854_2014-06-09_19-43-13_260595134347_rgbf000066-resize_0/000854_2014-06-09_19-43-13_260595134347_rgbf000066-resize_0-target.png,1000,3.068,3,11499,882,feet,jsons/v1_VE1000_randls_67_rotated.json,2183444,2603873,30,Woman
129,132622,DepthScenes,duration_manipulation_targetAtFixation,jsons/v1_VE1000_randls_67_rotated.json,http://54.235.29.9/FacialAge/BNav_EC2/DepthDuration/v2_depth_duration_MTurk/v2_DepthDuration_HTML.html#111,111,1364,768,1364,768,8-22-2022,5-1-52,130,depth_duration_stimuli/000758_2014-06-08_22-05-08_260595134347_rgbf000085-resize_0/000758_2014-06-08_22-05-08_260595134347_rgbf000085-resize_0-target.png,1000,3.3810000000000002,2,5904,2,feet,jsons/v1_VE1000_randls_67_rotated.json,2183444,2603873,30,Woman
130,132622,DepthScenes,duration_manipulation_targetAtFixation,jsons/v1_VE1000_randls_67_rotated.json,http://54.235.29.9/FacialAge/BNav_EC2/DepthDuration/v2_depth_duration_MTurk/v2_DepthDuration_HTML.html#111,111,1364,768,1364,768,8-22-2022,5-1-52,131,depth_duration_stimuli/002414_2014-06-28_20-24-58_260595134347_rgbf000067-resize_4/002414_2014-06-28_20-24-58_260595134347_rgbf000067-resize_4-target.png,1000,4.363,3,12529,900,feet,jsons/v1_VE1000_randls_67_rotated.json,2183444,2603873,30,Woman
131,132622,DepthScenes,duration_manipulation_targetAtFixation,jsons/v1_VE1000_randls_67_rotated.json,http://54.235.29.9/FacialAge/BNav_EC2/DepthDuration/v2_depth_duration_MTurk/v2_DepthDuration_HTML.html#111,111,1364,768,1364,768,8-22-2022,5-1-52,132,depth_duration_stimuli/000773_2014-06-08_22-24-54_260595134347_rgbf000093-resize_1/000773_2014-06-08_22-24-54_260595134347_rgbf000093-resize_1-target.png,1000,4.973,4,7108,848,feet,jsons/v1_VE1000_randls_67_rotated.json,2183444,2603873,30,Woman
132,132622,DepthScenes,duration_manipulation_targetAtFixation,jsons/v1_VE1000_randls_67_rotated.json,http://54.235.29.9/FacialAge/BNav_EC2/DepthDuration/v2_depth_duration_MTurk/v2_DepthDuration_HTML.html#111,111,1364,768,1364,768,8-22-2022,5-1-52,133,depth_duration_stimuli/003495_2014-05-21_16-01-51_094959634447_rgbf000100-resize_3/003495_2014-05-21_16-01-51_094959634447_rgbf000100-resize_3-target.png,1000,1.6255,1,13783,736,feet,jsons/v1_VE1000_randls_67_rotated.json,2183444,2603873,30,Woman
133,132622,DepthScenes,duration_manipulation_targetAtFixation,jsons/v1_VE1000_randls_67_rotated.json,http://54.235.29.9/FacialAge/BNav_EC2/DepthDuration/v2_depth_duration_MTurk/v2_DepthDuration_HTML.html#111,111,1364,768,1364,768,8-22-2022,5-1-52,134,depth_duration_stimuli/001244_2014-06-17_16-47-45_260595134347_rgbf000030-resize_4/001244_2014-06-17_16-47-45_260595134347_rgbf000030-resize_4-target.png,1000,2.0425,1,5841,943,feet,jsons/v1_VE1000_randls_67_rotated.json,2183444,2603873,30,Woman
134,132622,DepthScenes,duration_manipulation_targetAtFixation,jsons/v1_VE1000_randls_67_rotated.json,http://54.235.29.9/FacialAge/BNav_EC2/DepthDuration/v2_depth_duration_MTurk/v2_DepthDuration_HTML.html#111,111,1364,768,1364,768,8-22-2022,5-1-52,135,depth_duration_stimuli/000375_2014-06-08_11-17-29_260595134347_rgbf000133-resize_2/000375_2014-06-08_11-17-29_260595134347_rgbf000133-resize-original.jpg,1000,4.718,4,9937,1326,feet,jsons/v1_VE1000_randls_67_rotated.json,2183444,2603873,30,Woman
135,132622,DepthScenes,duration_manipulation_targetAtFixation,jsons/v1_VE1000_randls_67_rotated.json,http://54.235.29.9/FacialAge/BNav_EC2/DepthDuration/v2_depth_duration_MTurk/v2_DepthDuration_HTML.html#111,111,1364,768,1364,768,8-22-2022,5-1-52,136,depth_duration_stimuli/001650_2014-06-20_12-09-00_260595134347_rgbf000087-resize_3/001650_2014-06-20_12-09-00_260595134347_rgbf000087-resize_3-target.png,1000,1.9505,2,10679,1033,feet,jsons/v1_VE1000_randls_67_rotated.json,2183444,2603873,30,Woman
136,132622,DepthScenes,duration_manipulation_targetAtFixation,jsons/v1_VE1000_randls_67_rotated.json,http://54.235.29.9/FacialAge/BNav_EC2/DepthDuration/v2_depth_duration_MTurk/v2_DepthDuration_HTML.html#111,111,1364,768,1364,768,8-22-2022,5-1-52,137,depth_duration_stimuli/000682_2014-06-08_23-14-58_260595134347_rgbf000041-resize_5/000682_2014-06-08_23-14-58_260595134347_rgbf000041-resize_5-target.png,1000,2.7239999999999998,2,19832,1050,feet,jsons/v1_VE1000_randls_67_rotated.json,2183444,2603873,30,Woman
137,132622,DepthScenes,duration_manipulation_targetAtFixation,jsons/v1_VE1000_randls_67_rotated.json,http://54.235.29.9/FacialAge/BNav_EC2/DepthDuration/v2_depth_duration_MTurk/v2_DepthDuration_HTML.html#111,111,1364,768,1364,768,8-22-2022,5-1-52,138,depth_duration_stimuli/000502_2014-06-08_23-02-32_260595134347_rgbf000063-resize_4/000502_2014-06-08_23-02-32_260595134347_rgbf000063-resize_4-target.png,1000,2.431,1,16763,1000,feet,jsons/v1_VE1000_randls_67_rotated.json,2183444,2603873,30,Woman
138,132622,DepthScenes,duration_manipulation_targetAtFixation,jsons/v1_VE1000_randls_67_rotated.json,http://54.235.29.9/FacialAge/BNav_EC2/DepthDuration/v2_depth_duration_MTurk/v2_DepthDuration_HTML.html#111,111,1364,768,1364,768,8-22-2022,5-1-52,139,depth_duration_stimuli/001199_2014-06-17_16-03-48_260595134347_rgbf000077-resize_0/001199_2014-06-17_16-03-48_260595134347_rgbf000077-resize_0-target.png,1000,3.4375,2,5666,990,feet,jsons/v1_VE1000_randls_67_rotated.json,2183444,2603873,30,Woman
139,132622,DepthScenes,duration_manipulation_targetAtFixation,jsons/v1_VE1000_randls_67_rotated.json,http://54.235.29.9/FacialAge/BNav_EC2/DepthDuration/v2_depth_duration_MTurk/v2_DepthDuration_HTML.html#111,111,1364,768,1364,768,8-22-2022,5-1-52,140,depth_duration_stimuli/000137_2014-05-20_17-04-49_260595134347_rgbf000120-resize_1/000137_2014-05-20_17-04-49_260595134347_rgbf000120-resize_1-target.png,1000,3.786,2,10710,1647,feet,jsons/v1_VE1000_randls_67_rotated.json,2183444,2603873,30,Woman
140,132622,DepthScenes,duration_manipulation_targetAtFixation,jsons/v1_VE1000_randls_67_rotated.json,http://54.235.29.9/FacialAge/BNav_EC2/DepthDuration/v2_depth_duration_MTurk/v2_DepthDuration_HTML.html#111,111,1364,768,1364,768,8-22-2022,5-1-52,141,depth_duration_stimuli/000736_2014-06-08_18-24-15_260595134347_rgbf000206-resize_3/000736_2014-06-08_18-24-15_260595134347_rgbf000206-resize_3-target.png,1000,3.515,2,6667,974,feet,jsons/v1_VE1000_randls_67_rotated.json,2183444,2603873,30,Woman
141,132622,DepthScenes,duration_manipulation_targetAtFixation,jsons/v1_VE1000_randls_67_rotated.json,http://54.235.29.9/FacialAge/BNav_EC2/DepthDuration/v2_depth_duration_MTurk/v2_DepthDuration_HTML.html#111,111,1364,768,1364,768,8-22-2022,5-1-52,142,depth_duration_stimuli/002209_2014-06-28_18-36-10_260595134347_rgbf000051-resize_1/002209_2014-06-28_18-36-10_260595134347_rgbf000051-resize_1-target.png,1000,2.057,2,17819,983,feet,jsons/v1_VE1000_randls_67_rotated.json,2183444,2603873,30,Woman
142,132622,DepthScenes,duration_manipulation_targetAtFixation,jsons/v1_VE1000_randls_67_rotated.json,http://54.235.29.9/FacialAge/BNav_EC2/DepthDuration/v2_depth_duration_MTurk/v2_DepthDuration_HTML.html#111,111,1364,768,1364,768,8-22-2022,5-1-52,143,depth_duration_stimuli/002763_2014-06-22_19-13-10_094959634447_rgbf000075-resize_4/002763_2014-06-22_19-13-10_094959634447_rgbf000075-resize_4-target.png,1000,1.68375,2,8523,924,feet,jsons/v1_VE1000_randls_67_rotated.json,2183444,2603873,30,Woman
143,132622,DepthScenes,duration_manipulation_targetAtFixation,jsons/v1_VE1000_randls_67_rotated.json,http://54.235.29.9/FacialAge/BNav_EC2/DepthDuration/v2_depth_duration_MTurk/v2_DepthDuration_HTML.html#111,111,1364,768,1364,768,8-22-2022,5-1-52,144,depth_duration_stimuli/002340_2014-06-28_20-05-46_260595134347_rgbf000113-resize_0/002340_2014-06-28_20-05-46_260595134347_rgbf000113-resize_0-target.png,1000,2.4735,3,19684,971,feet,jsons/v1_VE1000_randls_67_rotated.json,2183444,2603873,30,Woman
144,132622,DepthScenes,duration_manipulation_targetAtFixation,jsons/v1_VE1000_randls_67_rotated.json,http://54.235.29.9/FacialAge/BNav_EC2/DepthDuration/v2_depth_duration_MTurk/v2_DepthDuration_HTML.html#111,111,1364,768,1364,768,8-22-2022,5-1-52,145,depth_duration_stimuli/001016_2014-06-09_16-16-10_260595134347_rgbf000112-resize_5/001016_2014-06-09_16-16-10_260595134347_rgbf000112-resize_5-target.png,1000,1.6565,2,14558,789,feet,jsons/v1_VE1000_randls_67_rotated.json,2183444,2603873,30,Woman
145,132622,DepthScenes,duration_manipulation_targetAtFixation,jsons/v1_VE1000_randls_67_rotated.json,http://54.235.29.9/FacialAge/BNav_EC2/DepthDuration/v2_depth_duration_MTurk/v2_DepthDuration_HTML.html#111,111,1364,768,1364,768,8-22-2022,5-1-52,146,depth_duration_stimuli/000483_2014-06-09_20-41-45_260595134347_rgbf000116-resize_4/000483_2014-06-09_20-41-45_260595134347_rgbf000116-resize_4-target.png,1000,1.337,3,14347,813,feet,jsons/v1_VE1000_randls_67_rotated.json,2183444,2603873,30,Woman
146,132622,DepthScenes,duration_manipulation_targetAtFixation,jsons/v1_VE1000_randls_67_rotated.json,http://54.235.29.9/FacialAge/BNav_EC2/DepthDuration/v2_depth_duration_MTurk/v2_DepthDuration_HTML.html#111,111,1364,768,1364,768,8-22-2022,5-1-52,147,depth_duration_stimuli/000469_2014-06-09_19-42-10_260595134347_rgbf000081-resize_1/000469_2014-06-09_19-42-10_260595134347_rgbf000081-resize_1-target.png,1000,1.652,3,16437,1100,feet,jsons/v1_VE1000_randls_67_rotated.json,2183444,2603873,30,Woman
147,132622,DepthScenes,duration_manipulation_targetAtFixation,jsons/v1_VE1000_randls_67_rotated.json,http://54.235.29.9/FacialAge/BNav_EC2/DepthDuration/v2_depth_duration_MTurk/v2_DepthDuration_HTML.html#111,111,1364,768,1364,768,8-22-2022,5-1-52,148,depth_duration_stimuli/000191_2014-05-12_17-07-38_260595134347_rgbf000199-resize_0/000191_2014-05-12_17-07-38_260595134347_rgbf000199-resize_0-target.png,1000,3.7995,2,10560,895,feet,jsons/v1_VE1000_randls_67_rotated.json,2183444,2603873,30,Woman
148,132622,DepthScenes,duration_manipulation_targetAtFixation,jsons/v1_VE1000_randls_67_rotated.json,http://54.235.29.9/FacialAge/BNav_EC2/DepthDuration/v2_depth_duration_MTurk/v2_DepthDuration_HTML.html#111,111,1364,768,1364,768,8-22-2022,5-1-52,149,depth_duration_stimuli/000493_2014-06-09_21-01-18_260595134347_rgbf000196-resize_3/000493_2014-06-09_21-01-18_260595134347_rgbf000196-resize_3-target.png,1000,3.44,2,17764,977,feet,jsons/v1_VE1000_randls_67_rotated.json,2183444,2603873,30,Woman
149,132622,DepthScenes,duration_manipulation_targetAtFixation,jsons/v1_VE1000_randls_67_rotated.json,http://54.235.29.9/FacialAge/BNav_EC2/DepthDuration/v2_depth_duration_MTurk/v2_DepthDuration_HTML.html#111,111,1364,768,1364,768,8-22-2022,5-1-52,150,depth_duration_stimuli/002199_2014-06-28_18-33-56_260595134347_rgbf000074-resize_0/002199_2014-06-28_18-33-56_260595134347_rgbf000074-resize_0-target.png,1000,1.996,3,9142,1078,feet,jsons/v1_VE1000_randls_67_rotated.json,2183444,2603873,30,Woman
150,132622,DepthScenes,duration_manipulation_targetAtFixation,jsons/v1_VE1000_randls_67_rotated.json,http://54.235.29.9/FacialAge/BNav_EC2/DepthDuration/v2_depth_duration_MTurk/v2_DepthDuration_HTML.html#111,111,1364,768,1364,768,8-22-2022,5-1-52,151,depth_duration_stimuli/001056_2014-06-08_18-46-44_260595134347_rgbf000068-resize_0/001056_2014-06-08_18-46-44_260595134347_rgbf000068-resize_0-target.png,1000,2.6625,2,15078,1110,feet,jsons/v1_VE1000_randls_67_rotated.json,2183444,2603873,30,Woman
151,132622,DepthScenes,duration_manipulation_targetAtFixation,jsons/v1_VE1000_randls_67_rotated.json,http://54.235.29.9/FacialAge/BNav_EC2/DepthDuration/v2_depth_duration_MTurk/v2_DepthDuration_HTML.html#111,111,1364,768,1364,768,8-22-2022,5-1-52,152,depth_duration_stimuli/000569_2014-06-09_22-51-47_260595134347_rgbf000141-resize_3/000569_2014-06-09_22-51-47_260595134347_rgbf000141-resize-original.jpg,1000,4.512,2,19691,1007,feet,jsons/v1_VE1000_randls_67_rotated.json,2183444,2603873,30,Woman
152,132622,DepthScenes,duration_manipulation_targetAtFixation,jsons/v1_VE1000_randls_67_rotated.json,http://54.235.29.9/FacialAge/BNav_EC2/DepthDuration/v2_depth_duration_MTurk/v2_DepthDuration_HTML.html#111,111,1364,768,1364,768,8-22-2022,5-1-52,153,depth_duration_stimuli/000742_2014-06-08_18-48-09_260595134347_rgbf000164-resize_4/000742_2014-06-08_18-48-09_260595134347_rgbf000164-resize_4-target.png,1000,4.632,3,10201,1269,feet,jsons/v1_VE1000_randls_67_rotated.json,2183444,2603873,30,Woman
153,132622,DepthScenes,duration_manipulation_targetAtFixation,jsons/v1_VE1000_randls_67_rotated.json,http://54.235.29.9/FacialAge/BNav_EC2/DepthDuration/v2_depth_duration_MTurk/v2_DepthDuration_HTML.html#111,111,1364,768,1364,768,8-22-2022,5-1-52,154,depth_duration_stimuli/001066_2014-06-08_22-03-20_260595134347_rgbf000066-resize_4/001066_2014-06-08_22-03-20_260595134347_rgbf000066-resize_4-target.png,1000,4.2330000000000005,3,13937,1175,feet,jsons/v1_VE1000_randls_67_rotated.json,2183444,2603873,30,Woman
154,132622,DepthScenes,duration_manipulation_targetAtFixation,jsons/v1_VE1000_randls_67_rotated.json,http://54.235.29.9/FacialAge/BNav_EC2/DepthDuration/v2_depth_duration_MTurk/v2_DepthDuration_HTML.html#111,111,1364,768,1364,768,8-22-2022,5-1-52,155,depth_duration_stimuli/001136_2014-06-17_15-19-41_260595134347_rgbf000076-resize_3/001136_2014-06-17_15-19-41_260595134347_rgbf000076-resize_3-target.png,1000,1.8655,3,8766,1795,feet,jsons/v1_VE1000_randls_67_rotated.json,2183444,2603873,30,Woman
155,132622,DepthScenes,duration_manipulation_targetAtFixation,jsons/v1_VE1000_randls_67_rotated.json,http://54.235.29.9/FacialAge/BNav_EC2/DepthDuration/v2_depth_duration_MTurk/v2_DepthDuration_HTML.html#111,111,1364,768,1364,768,8-22-2022,5-1-52,156,depth_duration_stimuli/001164_2014-06-17_15-35-46_260595134347_rgbf000085-resize_3/001164_2014-06-17_15-35-46_260595134347_rgbf000085-resize_3-target.png,1000,2.354,2,9562,723,feet,jsons/v1_VE1000_randls_67_rotated.json,2183444,2603873,30,Woman
156,132622,DepthScenes,duration_manipulation_targetAtFixation,jsons/v1_VE1000_randls_67_rotated.json,http://54.235.29.9/FacialAge/BNav_EC2/DepthDuration/v2_depth_duration_MTurk/v2_DepthDuration_HTML.html#111,111,1364,768,1364,768,8-22-2022,5-1-52,157,depth_duration_stimuli/001447_2014-06-19_17-00-32_260595134347_rgbf000082-resize_5/001447_2014-06-19_17-00-32_260595134347_rgbf000082-resize_5-target.png,1000,4.13775,3,12695,1032,feet,jsons/v1_VE1000_randls_67_rotated.json,2183444,2603873,30,Woman
157,132622,DepthScenes,duration_manipulation_targetAtFixation,jsons/v1_VE1000_randls_67_rotated.json,http://54.235.29.9/FacialAge/BNav_EC2/DepthDuration/v2_depth_duration_MTurk/v2_DepthDuration_HTML.html#111,111,1364,768,1364,768,8-22-2022,5-1-52,158,depth_duration_stimuli/000447_2014-06-08_16-15-46_260595134347_rgbf000130-resize_1/000447_2014-06-08_16-15-46_260595134347_rgbf000130-resize_1-target.png,1000,4.479,4,11987,1140,feet,jsons/v1_VE1000_randls_67_rotated.json,2183444,2603873,30,Woman
158,132622,DepthScenes,duration_manipulation_targetAtFixation,jsons/v1_VE1000_randls_67_rotated.json,http://54.235.29.9/FacialAge/BNav_EC2/DepthDuration/v2_depth_duration_MTurk/v2_DepthDuration_HTML.html#111,111,1364,768,1364,768,8-22-2022,5-1-52,159,depth_duration_stimuli/002467_2014-06-28_20-38-07_260595134347_rgbf000026-resize_2/002467_2014-06-28_20-38-07_260595134347_rgbf000026-resize_2-target.png,1000,4.742,3,17958,1032,feet,jsons/v1_VE1000_randls_67_rotated.json,2183444,2603873,30,Woman
159,132622,DepthScenes,duration_manipulation_targetAtFixation,jsons/v1_VE1000_randls_67_rotated.json,http://54.235.29.9/FacialAge/BNav_EC2/DepthDuration/v2_depth_duration_MTurk/v2_DepthDuration_HTML.html#111,111,1364,768,1364,768,8-22-2022,5-1-52,160,depth_duration_stimuli/002570_2014-06-24_13-59-54_094959634447_rgbf000059-resize_0/002570_2014-06-24_13-59-54_094959634447_rgbf000059-resize_0-target.png,1000,4.037,4,6785,1009,feet,jsons/v1_VE1000_randls_67_rotated.json,2183444,2603873,30,Woman
160,132622,DepthScenes,duration_manipulation_targetAtFixation,jsons/v1_VE1000_randls_67_rotated.json,http://54.235.29.9/FacialAge/BNav_EC2/DepthDuration/v2_depth_duration_MTurk/v2_DepthDuration_HTML.html#111,111,1364,768,1364,768,8-22-2022,5-1-52,161,depth_duration_stimuli/002344_2014-06-28_20-06-29_260595134347_rgbf000030-resize_1/002344_2014-06-28_20-06-29_260595134347_rgbf000030-resize_1-target.png,1000,1.5795,1,15021,997,feet,jsons/v1_VE1000_randls_67_rotated.json,2183444,2603873,30,Woman
161,132622,DepthScenes,duration_manipulation_targetAtFixation,jsons/v1_VE1000_randls_67_rotated.json,http://54.235.29.9/FacialAge/BNav_EC2/DepthDuration/v2_depth_duration_MTurk/v2_DepthDuration_HTML.html#111,111,1364,768,1364,768,8-22-2022,5-1-52,162,depth_duration_stimuli/002725_2014-06-22_11-47-51_094959634447_rgbf000070-resize_1/002725_2014-06-22_11-47-51_094959634447_rgbf000070-resize_1-target.png,1000,2.195,2,8445,1045,feet,jsons/v1_VE1000_randls_67_rotated.json,2183444,2603873,30,Woman
162,132622,DepthScenes,duration_manipulation_targetAtFixation,jsons/v1_VE1000_randls_67_rotated.json,http://54.235.29.9/FacialAge/BNav_EC2/DepthDuration/v2_depth_duration_MTurk/v2_DepthDuration_HTML.html#111,111,1364,768,1364,768,8-22-2022,5-1-52,163,depth_duration_stimuli/002805_2014-06-22_19-54-03_094959634447_rgbf000079-resize_1/002805_2014-06-22_19-54-03_094959634447_rgbf000079-resize_1-target.png,1000,3.1439999999999997,4,8973,726,feet,jsons/v1_VE1000_randls_67_rotated.json,2183444,2603873,30,Woman
163,132622,DepthScenes,duration_manipulation_targetAtFixation,jsons/v1_VE1000_randls_67_rotated.json,http://54.235.29.9/FacialAge/BNav_EC2/DepthDuration/v2_depth_duration_MTurk/v2_DepthDuration_HTML.html#111,111,1364,768,1364,768,8-22-2022,5-1-52,164,depth_duration_stimuli/000906_2014-06-08_13-35-43_260595134347_rgbf000155-resize_1/000906_2014-06-08_13-35-43_260595134347_rgbf000155-resize_1-target.png,1000,2.8489999999999998,2,15584,893,feet,jsons/v1_VE1000_randls_67_rotated.json,2183444,2603873,30,Woman
