,subjID,experimentName,versionName,sequenceName,url,selected_row,windowWidth,windowHeight,screenWidth,screenHeight,startDate,startTime,trial,stimulus,duration,actual_depth,depth_estimate,trial_RT,log_sceneDuration,unitSelection,seq_filepath,experimentTime,totalTime,age,gender
0,133074,DepthScenes,duration_manipulation_targetAtFixation,jsons/v1_VE1000_randls_62.json,http://54.235.29.9/FacialAge/BNav_EC2/DepthDuration/v2_depth_duration_MTurk/v2_DepthDuration_HTML.html#141,141,1364,768,1364,768,8-22-2022,8-0-32,1,depth_duration_stimuli/001555_2014-06-20_17-12-10_260595134347_rgbf000065-resize_4/001555_2014-06-20_17-12-10_260595134347_rgbf000065-resize_4-target.png,1000,1.633,2,5305,998,feet,jsons/v1_VE1000_randls_62.json,862707,1020460,30,Woman
1,133074,DepthScenes,duration_manipulation_targetAtFixation,jsons/v1_VE1000_randls_62.json,http://54.235.29.9/FacialAge/BNav_EC2/DepthDuration/v2_depth_duration_MTurk/v2_DepthDuration_HTML.html#141,141,1364,768,1364,768,8-22-2022,8-0-32,2,depth_duration_stimuli/000103_2014-05-14_22-01-17_260595134347_rgbf000152-resize_5/000103_2014-05-14_22-01-17_260595134347_rgbf000152-resize_5-target.png,1000,1.993,5,4894,994,feet,jsons/v1_VE1000_randls_62.json,862707,1020460,30,Woman
2,133074,DepthScenes,duration_manipulation_targetAtFixation,jsons/v1_VE1000_randls_62.json,http://54.235.29.9/FacialAge/BNav_EC2/DepthDuration/v2_depth_duration_MTurk/v2_DepthDuration_HTML.html#141,141,1364,768,1364,768,8-22-2022,8-0-32,3,depth_duration_stimuli/000522_2014-06-08_13-35-06_260595134347_rgbf000244-resize_1/000522_2014-06-08_13-35-06_260595134347_rgbf000244-resize_1-target.png,1000,2.3715,2,5100,999,feet,jsons/v1_VE1000_randls_62.json,862707,1020460,30,Woman
3,133074,DepthScenes,duration_manipulation_targetAtFixation,jsons/v1_VE1000_randls_62.json,http://54.235.29.9/FacialAge/BNav_EC2/DepthDuration/v2_depth_duration_MTurk/v2_DepthDuration_HTML.html#141,141,1364,768,1364,768,8-22-2022,8-0-32,4,depth_duration_stimuli/002949_2014-06-26_15-57-42_094959634447_rgbf000079-resize_1/002949_2014-06-26_15-57-42_094959634447_rgbf000079-resize_1-target.png,1000,1.8915,4,4384,1000,feet,jsons/v1_VE1000_randls_62.json,862707,1020460,30,Woman
4,133074,DepthScenes,duration_manipulation_targetAtFixation,jsons/v1_VE1000_randls_62.json,http://54.235.29.9/FacialAge/BNav_EC2/DepthDuration/v2_depth_duration_MTurk/v2_DepthDuration_HTML.html#141,141,1364,768,1364,768,8-22-2022,8-0-32,5,depth_duration_stimuli/001417_2014-06-19_16-25-36_260595134347_rgbf000115-resize_5/001417_2014-06-19_16-25-36_260595134347_rgbf000115-resize_5-target.png,1000,4.6255,5,19796,1002,feet,jsons/v1_VE1000_randls_62.json,862707,1020460,30,Woman
5,133074,DepthScenes,duration_manipulation_targetAtFixation,jsons/v1_VE1000_randls_62.json,http://54.235.29.9/FacialAge/BNav_EC2/DepthDuration/v2_depth_duration_MTurk/v2_DepthDuration_HTML.html#141,141,1364,768,1364,768,8-22-2022,8-0-32,6,depth_duration_stimuli/003081_2014-06-15_15-19-16_094959634447_rgbf000150-resize_1/003081_2014-06-15_15-19-16_094959634447_rgbf000150-resize_1-target.png,1000,3.9125,3,4072,1000,feet,jsons/v1_VE1000_randls_62.json,862707,1020460,30,Woman
6,133074,DepthScenes,duration_manipulation_targetAtFixation,jsons/v1_VE1000_randls_62.json,http://54.235.29.9/FacialAge/BNav_EC2/DepthDuration/v2_depth_duration_MTurk/v2_DepthDuration_HTML.html#141,141,1364,768,1364,768,8-22-2022,8-0-32,7,depth_duration_stimuli/003492_2014-05-21_15-50-55_094959634447_rgbf000828-resize_1/003492_2014-05-21_15-50-55_094959634447_rgbf000828-resize_1-target.png,1000,4.06875,5,33890,999,feet,jsons/v1_VE1000_randls_62.json,862707,1020460,30,Woman
7,133074,DepthScenes,duration_manipulation_targetAtFixation,jsons/v1_VE1000_randls_62.json,http://54.235.29.9/FacialAge/BNav_EC2/DepthDuration/v2_depth_duration_MTurk/v2_DepthDuration_HTML.html#141,141,1364,768,1364,768,8-22-2022,8-0-32,8,depth_duration_stimuli/002568_2014-06-24_13-59-21_094959634447_rgbf000062-resize_4/002568_2014-06-24_13-59-21_094959634447_rgbf000062-resize_4-target.png,1000,3.015,3,4023,1001,feet,jsons/v1_VE1000_randls_62.json,862707,1020460,30,Woman
8,133074,DepthScenes,duration_manipulation_targetAtFixation,jsons/v1_VE1000_randls_62.json,http://54.235.29.9/FacialAge/BNav_EC2/DepthDuration/v2_depth_duration_MTurk/v2_DepthDuration_HTML.html#141,141,1364,768,1364,768,8-22-2022,8-0-32,9,depth_duration_stimuli/002905_2014-06-03_18-04-43_094959634447_rgbf000151-resize_2/002905_2014-06-03_18-04-43_094959634447_rgbf000151-resize_2-target.png,1000,2.0295,3,5211,1001,feet,jsons/v1_VE1000_randls_62.json,862707,1020460,30,Woman
9,133074,DepthScenes,duration_manipulation_targetAtFixation,jsons/v1_VE1000_randls_62.json,http://54.235.29.9/FacialAge/BNav_EC2/DepthDuration/v2_depth_duration_MTurk/v2_DepthDuration_HTML.html#141,141,1364,768,1364,768,8-22-2022,8-0-32,10,depth_duration_stimuli/003423_2014-05-21_10-23-26_094959634447_rgbf002665-resize_2/003423_2014-05-21_10-23-26_094959634447_rgbf002665-resize_2-target.png,1000,3.2575,5,4732,996,feet,jsons/v1_VE1000_randls_62.json,862707,1020460,30,Woman
10,133074,DepthScenes,duration_manipulation_targetAtFixation,jsons/v1_VE1000_randls_62.json,http://54.235.29.9/FacialAge/BNav_EC2/DepthDuration/v2_depth_duration_MTurk/v2_DepthDuration_HTML.html#141,141,1364,768,1364,768,8-22-2022,8-0-32,11,depth_duration_stimuli/001092_2014-06-15_17-34-58_260595134347_rgbf000171-resize_3/001092_2014-06-15_17-34-58_260595134347_rgbf000171-resize_3-target.png,1000,2.6935,3,4542,999,feet,jsons/v1_VE1000_randls_62.json,862707,1020460,30,Woman
11,133074,DepthScenes,duration_manipulation_targetAtFixation,jsons/v1_VE1000_randls_62.json,http://54.235.29.9/FacialAge/BNav_EC2/DepthDuration/v2_depth_duration_MTurk/v2_DepthDuration_HTML.html#141,141,1364,768,1364,768,8-22-2022,8-0-32,12,depth_duration_stimuli/002545_2014-06-24_13-38-53_094959634447_rgbf000080-resize_4/002545_2014-06-24_13-38-53_094959634447_rgbf000080-resize_4-target.png,1000,1.9205,4,4105,998,feet,jsons/v1_VE1000_randls_62.json,862707,1020460,30,Woman
12,133074,DepthScenes,duration_manipulation_targetAtFixation,jsons/v1_VE1000_randls_62.json,http://54.235.29.9/FacialAge/BNav_EC2/DepthDuration/v2_depth_duration_MTurk/v2_DepthDuration_HTML.html#141,141,1364,768,1364,768,8-22-2022,8-0-32,13,depth_duration_stimuli/000569_2014-06-09_22-51-47_260595134347_rgbf000141-resize_3/000569_2014-06-09_22-51-47_260595134347_rgbf000141-resize-original.jpg,1000,4.512,0,4045,999,feet,jsons/v1_VE1000_randls_62.json,862707,1020460,30,Woman
13,133074,DepthScenes,duration_manipulation_targetAtFixation,jsons/v1_VE1000_randls_62.json,http://54.235.29.9/FacialAge/BNav_EC2/DepthDuration/v2_depth_duration_MTurk/v2_DepthDuration_HTML.html#141,141,1364,768,1364,768,8-22-2022,8-0-32,14,depth_duration_stimuli/000009_2014-05-26_14-32-05_260595134347_rgbf000034-resize_3/000009_2014-05-26_14-32-05_260595134347_rgbf000034-resize_3-target.png,1000,3.8715,5,4124,1000,feet,jsons/v1_VE1000_randls_62.json,862707,1020460,30,Woman
14,133074,DepthScenes,duration_manipulation_targetAtFixation,jsons/v1_VE1000_randls_62.json,http://54.235.29.9/FacialAge/BNav_EC2/DepthDuration/v2_depth_duration_MTurk/v2_DepthDuration_HTML.html#141,141,1364,768,1364,768,8-22-2022,8-0-32,15,depth_duration_stimuli/001828_2014-06-26_21-40-03_260595134347_rgbf000024-resize_0/001828_2014-06-26_21-40-03_260595134347_rgbf000024-resize_0-target.png,1000,4.8260000000000005,7,3821,996,feet,jsons/v1_VE1000_randls_62.json,862707,1020460,30,Woman
15,133074,DepthScenes,duration_manipulation_targetAtFixation,jsons/v1_VE1000_randls_62.json,http://54.235.29.9/FacialAge/BNav_EC2/DepthDuration/v2_depth_duration_MTurk/v2_DepthDuration_HTML.html#141,141,1364,768,1364,768,8-22-2022,8-0-32,16,depth_duration_stimuli/002039_2014-06-24_20-22-38_260595134347_rgbf000084-resize_1/002039_2014-06-24_20-22-38_260595134347_rgbf000084-resize_1-target.png,1000,4.408,5,29799,987,feet,jsons/v1_VE1000_randls_62.json,862707,1020460,30,Woman
16,133074,DepthScenes,duration_manipulation_targetAtFixation,jsons/v1_VE1000_randls_62.json,http://54.235.29.9/FacialAge/BNav_EC2/DepthDuration/v2_depth_duration_MTurk/v2_DepthDuration_HTML.html#141,141,1364,768,1364,768,8-22-2022,8-0-32,17,depth_duration_stimuli/002103_2014-06-25_20-00-40_260595134347_rgbf000049-resize_0/002103_2014-06-25_20-00-40_260595134347_rgbf000049-resize_0-target.png,1000,4.105,4,4256,1010,feet,jsons/v1_VE1000_randls_62.json,862707,1020460,30,Woman
17,133074,DepthScenes,duration_manipulation_targetAtFixation,jsons/v1_VE1000_randls_62.json,http://54.235.29.9/FacialAge/BNav_EC2/DepthDuration/v2_depth_duration_MTurk/v2_DepthDuration_HTML.html#141,141,1364,768,1364,768,8-22-2022,8-0-32,18,depth_duration_stimuli/000414_2014-06-04_19-49-13_260595134347_rgbf000044-resize_0/000414_2014-06-04_19-49-13_260595134347_rgbf000044-resize_0-target.png,1000,4.329,5,4763,999,feet,jsons/v1_VE1000_randls_62.json,862707,1020460,30,Woman
18,133074,DepthScenes,duration_manipulation_targetAtFixation,jsons/v1_VE1000_randls_62.json,http://54.235.29.9/FacialAge/BNav_EC2/DepthDuration/v2_depth_duration_MTurk/v2_DepthDuration_HTML.html#141,141,1364,768,1364,768,8-22-2022,8-0-32,19,depth_duration_stimuli/003129_2014-05-12_10-48-10_094959634447_rgbf000100-resize_0/003129_2014-05-12_10-48-10_094959634447_rgbf000100-resize_0-target.png,1000,4.9305,6,4357,999,feet,jsons/v1_VE1000_randls_62.json,862707,1020460,30,Woman
19,133074,DepthScenes,duration_manipulation_targetAtFixation,jsons/v1_VE1000_randls_62.json,http://54.235.29.9/FacialAge/BNav_EC2/DepthDuration/v2_depth_duration_MTurk/v2_DepthDuration_HTML.html#141,141,1364,768,1364,768,8-22-2022,8-0-32,20,depth_duration_stimuli/001066_2014-06-08_22-03-20_260595134347_rgbf000066-resize_4/001066_2014-06-08_22-03-20_260595134347_rgbf000066-resize_4-target.png,1000,4.2330000000000005,4,4342,995,feet,jsons/v1_VE1000_randls_62.json,862707,1020460,30,Woman
20,133074,DepthScenes,duration_manipulation_targetAtFixation,jsons/v1_VE1000_randls_62.json,http://54.235.29.9/FacialAge/BNav_EC2/DepthDuration/v2_depth_duration_MTurk/v2_DepthDuration_HTML.html#141,141,1364,768,1364,768,8-22-2022,8-0-32,21,depth_duration_stimuli/000742_2014-06-08_18-48-09_260595134347_rgbf000164-resize_4/000742_2014-06-08_18-48-09_260595134347_rgbf000164-resize_4-target.png,1000,4.632,6,4088,999,feet,jsons/v1_VE1000_randls_62.json,862707,1020460,30,Woman
21,133074,DepthScenes,duration_manipulation_targetAtFixation,jsons/v1_VE1000_randls_62.json,http://54.235.29.9/FacialAge/BNav_EC2/DepthDuration/v2_depth_duration_MTurk/v2_DepthDuration_HTML.html#141,141,1364,768,1364,768,8-22-2022,8-0-32,22,depth_duration_stimuli/002057_2014-06-24_21-00-13_260595134347_rgbf000120-resize_1/002057_2014-06-24_21-00-13_260595134347_rgbf000120-resize_1-target.png,1000,2.967,5,4298,998,feet,jsons/v1_VE1000_randls_62.json,862707,1020460,30,Woman
22,133074,DepthScenes,duration_manipulation_targetAtFixation,jsons/v1_VE1000_randls_62.json,http://54.235.29.9/FacialAge/BNav_EC2/DepthDuration/v2_depth_duration_MTurk/v2_DepthDuration_HTML.html#141,141,1364,768,1364,768,8-22-2022,8-0-32,23,depth_duration_stimuli/000709_2014-06-08_13-51-55_260595134347_rgbf000068-resize_3/000709_2014-06-08_13-51-55_260595134347_rgbf000068-resize_3-target.png,1000,1.8030000000000002,9,6283,986,feet,jsons/v1_VE1000_randls_62.json,862707,1020460,30,Woman
23,133074,DepthScenes,duration_manipulation_targetAtFixation,jsons/v1_VE1000_randls_62.json,http://54.235.29.9/FacialAge/BNav_EC2/DepthDuration/v2_depth_duration_MTurk/v2_DepthDuration_HTML.html#141,141,1364,768,1364,768,8-22-2022,8-0-32,24,depth_duration_stimuli/002549_2014-06-24_13-41-39_094959634447_rgbf000022-resize_3/002549_2014-06-24_13-41-39_094959634447_rgbf000022-resize_3-target.png,1000,1.476,4,4844,996,feet,jsons/v1_VE1000_randls_62.json,862707,1020460,30,Woman
24,133074,DepthScenes,duration_manipulation_targetAtFixation,jsons/v1_VE1000_randls_62.json,http://54.235.29.9/FacialAge/BNav_EC2/DepthDuration/v2_depth_duration_MTurk/v2_DepthDuration_HTML.html#141,141,1364,768,1364,768,8-22-2022,8-0-32,25,depth_duration_stimuli/002750_2014-06-22_19-08-03_094959634447_rgbf000094-resize_4/002750_2014-06-22_19-08-03_094959634447_rgbf000094-resize_4-target.png,1000,2.354,5,4250,1000,feet,jsons/v1_VE1000_randls_62.json,862707,1020460,30,Woman
25,133074,DepthScenes,duration_manipulation_targetAtFixation,jsons/v1_VE1000_randls_62.json,http://54.235.29.9/FacialAge/BNav_EC2/DepthDuration/v2_depth_duration_MTurk/v2_DepthDuration_HTML.html#141,141,1364,768,1364,768,8-22-2022,8-0-32,26,depth_duration_stimuli/000788_2014-06-08_22-34-36_260595134347_rgbf000131-resize_1/000788_2014-06-08_22-34-36_260595134347_rgbf000131-resize_1-target.png,1000,3.359,6,5715,1002,feet,jsons/v1_VE1000_randls_62.json,862707,1020460,30,Woman
26,133074,DepthScenes,duration_manipulation_targetAtFixation,jsons/v1_VE1000_randls_62.json,http://54.235.29.9/FacialAge/BNav_EC2/DepthDuration/v2_depth_duration_MTurk/v2_DepthDuration_HTML.html#141,141,1364,768,1364,768,8-22-2022,8-0-32,27,depth_duration_stimuli/001235_2014-06-17_16-37-36_260595134347_rgbf000084-resize_4/001235_2014-06-17_16-37-36_260595134347_rgbf000084-resize_4-target.png,1000,3.6605,3,3678,986,feet,jsons/v1_VE1000_randls_62.json,862707,1020460,30,Woman
27,133074,DepthScenes,duration_manipulation_targetAtFixation,jsons/v1_VE1000_randls_62.json,http://54.235.29.9/FacialAge/BNav_EC2/DepthDuration/v2_depth_duration_MTurk/v2_DepthDuration_HTML.html#141,141,1364,768,1364,768,8-22-2022,8-0-32,28,depth_duration_stimuli/002279_2014-06-28_18-55-32_260595134347_rgbf000040-resize_5/002279_2014-06-28_18-55-32_260595134347_rgbf000040-resize_5-target.png,1000,1.5043333333333,2,4265,998,feet,jsons/v1_VE1000_randls_62.json,862707,1020460,30,Woman
28,133074,DepthScenes,duration_manipulation_targetAtFixation,jsons/v1_VE1000_randls_62.json,http://54.235.29.9/FacialAge/BNav_EC2/DepthDuration/v2_depth_duration_MTurk/v2_DepthDuration_HTML.html#141,141,1364,768,1364,768,8-22-2022,8-0-32,29,depth_duration_stimuli/000635_2014-06-08_16-38-42_260595134347_rgbf000106-resize_1/000635_2014-06-08_16-38-42_260595134347_rgbf000106-resize_1-target.png,1000,2.074,2,3873,1000,feet,jsons/v1_VE1000_randls_62.json,862707,1020460,30,Woman
29,133074,DepthScenes,duration_manipulation_targetAtFixation,jsons/v1_VE1000_randls_62.json,http://54.235.29.9/FacialAge/BNav_EC2/DepthDuration/v2_depth_duration_MTurk/v2_DepthDuration_HTML.html#141,141,1364,768,1364,768,8-22-2022,8-0-32,30,depth_duration_stimuli/000375_2014-06-08_11-17-29_260595134347_rgbf000133-resize_2/000375_2014-06-08_11-17-29_260595134347_rgbf000133-resize-original.jpg,1000,4.718,0,3852,998,feet,jsons/v1_VE1000_randls_62.json,862707,1020460,30,Woman
30,133074,DepthScenes,duration_manipulation_targetAtFixation,jsons/v1_VE1000_randls_62.json,http://54.235.29.9/FacialAge/BNav_EC2/DepthDuration/v2_depth_duration_MTurk/v2_DepthDuration_HTML.html#141,141,1364,768,1364,768,8-22-2022,8-0-32,31,depth_duration_stimuli/001059_2014-06-08_21-53-27_260595134347_rgbf000061-resize_4/001059_2014-06-08_21-53-27_260595134347_rgbf000061-resize_4-target.png,1000,2.4185,3,4054,1002,feet,jsons/v1_VE1000_randls_62.json,862707,1020460,30,Woman
31,133074,DepthScenes,duration_manipulation_targetAtFixation,jsons/v1_VE1000_randls_62.json,http://54.235.29.9/FacialAge/BNav_EC2/DepthDuration/v2_depth_duration_MTurk/v2_DepthDuration_HTML.html#141,141,1364,768,1364,768,8-22-2022,8-0-32,32,depth_duration_stimuli/001032_2014-06-08_13-23-17_260595134347_rgbf000021-resize_3/001032_2014-06-08_13-23-17_260595134347_rgbf000021-resize_3-target.png,1000,3.2725,6,4345,999,feet,jsons/v1_VE1000_randls_62.json,862707,1020460,30,Woman
32,133074,DepthScenes,duration_manipulation_targetAtFixation,jsons/v1_VE1000_randls_62.json,http://54.235.29.9/FacialAge/BNav_EC2/DepthDuration/v2_depth_duration_MTurk/v2_DepthDuration_HTML.html#141,141,1364,768,1364,768,8-22-2022,8-0-32,33,depth_duration_stimuli/002570_2014-06-24_13-59-54_094959634447_rgbf000059-resize_0/002570_2014-06-24_13-59-54_094959634447_rgbf000059-resize_0-target.png,1000,4.037,7,4124,1010,feet,jsons/v1_VE1000_randls_62.json,862707,1020460,30,Woman
33,133074,DepthScenes,duration_manipulation_targetAtFixation,jsons/v1_VE1000_randls_62.json,http://54.235.29.9/FacialAge/BNav_EC2/DepthDuration/v2_depth_duration_MTurk/v2_DepthDuration_HTML.html#141,141,1364,768,1364,768,8-22-2022,8-0-32,34,depth_duration_stimuli/002467_2014-06-28_20-38-07_260595134347_rgbf000026-resize_2/002467_2014-06-28_20-38-07_260595134347_rgbf000026-resize_2-target.png,1000,4.742,9,4681,1014,feet,jsons/v1_VE1000_randls_62.json,862707,1020460,30,Woman
34,133074,DepthScenes,duration_manipulation_targetAtFixation,jsons/v1_VE1000_randls_62.json,http://54.235.29.9/FacialAge/BNav_EC2/DepthDuration/v2_depth_duration_MTurk/v2_DepthDuration_HTML.html#141,141,1364,768,1364,768,8-22-2022,8-0-32,35,depth_duration_stimuli/002784_2014-06-22_19-26-30_094959634447_rgbf000083-resize_3/002784_2014-06-22_19-26-30_094959634447_rgbf000083-resize_3-target.png,1000,1.8046666666667,3,4949,1003,feet,jsons/v1_VE1000_randls_62.json,862707,1020460,30,Woman
35,133074,DepthScenes,duration_manipulation_targetAtFixation,jsons/v1_VE1000_randls_62.json,http://54.235.29.9/FacialAge/BNav_EC2/DepthDuration/v2_depth_duration_MTurk/v2_DepthDuration_HTML.html#141,141,1364,768,1364,768,8-22-2022,8-0-32,36,depth_duration_stimuli/001100_2014-06-15_17-46-26_260595134347_rgbf000225-resize_2/001100_2014-06-15_17-46-26_260595134347_rgbf000225-resize_2-target.png,1000,2.24,5,5230,999,feet,jsons/v1_VE1000_randls_62.json,862707,1020460,30,Woman
36,133074,DepthScenes,duration_manipulation_targetAtFixation,jsons/v1_VE1000_randls_62.json,http://54.235.29.9/FacialAge/BNav_EC2/DepthDuration/v2_depth_duration_MTurk/v2_DepthDuration_HTML.html#141,141,1364,768,1364,768,8-22-2022,8-0-32,37,depth_duration_stimuli/000692_2014-06-08_13-09-42_260595134347_rgbf000199-resize_2/000692_2014-06-08_13-09-42_260595134347_rgbf000199-resize_2-target.png,1000,3.661,6,4537,1000,feet,jsons/v1_VE1000_randls_62.json,862707,1020460,30,Woman
37,133074,DepthScenes,duration_manipulation_targetAtFixation,jsons/v1_VE1000_randls_62.json,http://54.235.29.9/FacialAge/BNav_EC2/DepthDuration/v2_depth_duration_MTurk/v2_DepthDuration_HTML.html#141,141,1364,768,1364,768,8-22-2022,8-0-32,38,depth_duration_stimuli/001094_2014-06-15_17-36-00_260595134347_rgbf000205-resize_0/001094_2014-06-15_17-36-00_260595134347_rgbf000205-resize_0-target.png,1000,4.2175,9,4347,990,feet,jsons/v1_VE1000_randls_62.json,862707,1020460,30,Woman
38,133074,DepthScenes,duration_manipulation_targetAtFixation,jsons/v1_VE1000_randls_62.json,http://54.235.29.9/FacialAge/BNav_EC2/DepthDuration/v2_depth_duration_MTurk/v2_DepthDuration_HTML.html#141,141,1364,768,1364,768,8-22-2022,8-0-32,39,depth_duration_stimuli/002043_2014-06-24_20-29-38_260595134347_rgbf000039-resize_4/002043_2014-06-24_20-29-38_260595134347_rgbf000039-resize_4-target.png,1000,2.8435,4,4826,998,feet,jsons/v1_VE1000_randls_62.json,862707,1020460,30,Woman
39,133074,DepthScenes,duration_manipulation_targetAtFixation,jsons/v1_VE1000_randls_62.json,http://54.235.29.9/FacialAge/BNav_EC2/DepthDuration/v2_depth_duration_MTurk/v2_DepthDuration_HTML.html#141,141,1364,768,1364,768,8-22-2022,8-0-32,40,depth_duration_stimuli/003048_2014-06-15_13-49-43_094959634447_rgbf000150-resize_1/003048_2014-06-15_13-49-43_094959634447_rgbf000150-resize_1-target.png,1000,4.0035,8,3667,1012,feet,jsons/v1_VE1000_randls_62.json,862707,1020460,30,Woman
40,133074,DepthScenes,duration_manipulation_targetAtFixation,jsons/v1_VE1000_randls_62.json,http://54.235.29.9/FacialAge/BNav_EC2/DepthDuration/v2_depth_duration_MTurk/v2_DepthDuration_HTML.html#141,141,1364,768,1364,768,8-22-2022,8-0-32,41,depth_duration_stimuli/000739_2014-06-08_18-45-58_260595134347_rgbf000068-resize_1/000739_2014-06-08_18-45-58_260595134347_rgbf000068-resize_1-target.png,1000,3.534,7,4521,1011,feet,jsons/v1_VE1000_randls_62.json,862707,1020460,30,Woman
41,133074,DepthScenes,duration_manipulation_targetAtFixation,jsons/v1_VE1000_randls_62.json,http://54.235.29.9/FacialAge/BNav_EC2/DepthDuration/v2_depth_duration_MTurk/v2_DepthDuration_HTML.html#141,141,1364,768,1364,768,8-22-2022,8-0-32,42,depth_duration_stimuli/000734_2014-06-08_17-39-11_260595134347_rgbf000128-resize_2/000734_2014-06-08_17-39-11_260595134347_rgbf000128-resize_2-target.png,1000,4.098,4,3988,994,feet,jsons/v1_VE1000_randls_62.json,862707,1020460,30,Woman
42,133074,DepthScenes,duration_manipulation_targetAtFixation,jsons/v1_VE1000_randls_62.json,http://54.235.29.9/FacialAge/BNav_EC2/DepthDuration/v2_depth_duration_MTurk/v2_DepthDuration_HTML.html#141,141,1364,768,1364,768,8-22-2022,8-0-32,43,depth_duration_stimuli/002988_2014-06-15_12-24-20_094959634447_rgbf000150-resize_1/002988_2014-06-15_12-24-20_094959634447_rgbf000150-resize_1-target.png,1000,4.7669999999999995,6,3916,994,feet,jsons/v1_VE1000_randls_62.json,862707,1020460,30,Woman
43,133074,DepthScenes,duration_manipulation_targetAtFixation,jsons/v1_VE1000_randls_62.json,http://54.235.29.9/FacialAge/BNav_EC2/DepthDuration/v2_depth_duration_MTurk/v2_DepthDuration_HTML.html#141,141,1364,768,1364,768,8-22-2022,8-0-32,44,depth_duration_stimuli/001052_2014-06-08_18-24-54_260595134347_rgbf000130-resize_1/001052_2014-06-08_18-24-54_260595134347_rgbf000130-resize_1-target.png,1000,4.1045,7,3910,997,feet,jsons/v1_VE1000_randls_62.json,862707,1020460,30,Woman
44,133074,DepthScenes,duration_manipulation_targetAtFixation,jsons/v1_VE1000_randls_62.json,http://54.235.29.9/FacialAge/BNav_EC2/DepthDuration/v2_depth_duration_MTurk/v2_DepthDuration_HTML.html#141,141,1364,768,1364,768,8-22-2022,8-0-32,45,depth_duration_stimuli/000787_2014-06-08_22-33-53_260595134347_rgbf000175-resize_1/000787_2014-06-08_22-33-53_260595134347_rgbf000175-resize-original.jpg,1000,4.784,0,4777,1003,feet,jsons/v1_VE1000_randls_62.json,862707,1020460,30,Woman
45,133074,DepthScenes,duration_manipulation_targetAtFixation,jsons/v1_VE1000_randls_62.json,http://54.235.29.9/FacialAge/BNav_EC2/DepthDuration/v2_depth_duration_MTurk/v2_DepthDuration_HTML.html#141,141,1364,768,1364,768,8-22-2022,8-0-32,46,depth_duration_stimuli/000447_2014-06-08_16-15-46_260595134347_rgbf000130-resize_1/000447_2014-06-08_16-15-46_260595134347_rgbf000130-resize_1-target.png,1000,4.479,4,4325,1000,feet,jsons/v1_VE1000_randls_62.json,862707,1020460,30,Woman
46,133074,DepthScenes,duration_manipulation_targetAtFixation,jsons/v1_VE1000_randls_62.json,http://54.235.29.9/FacialAge/BNav_EC2/DepthDuration/v2_depth_duration_MTurk/v2_DepthDuration_HTML.html#141,141,1364,768,1364,768,8-22-2022,8-0-32,47,depth_duration_stimuli/001447_2014-06-19_17-00-32_260595134347_rgbf000082-resize_5/001447_2014-06-19_17-00-32_260595134347_rgbf000082-resize_5-target.png,1000,4.13775,6,3867,987,feet,jsons/v1_VE1000_randls_62.json,862707,1020460,30,Woman
47,133074,DepthScenes,duration_manipulation_targetAtFixation,jsons/v1_VE1000_randls_62.json,http://54.235.29.9/FacialAge/BNav_EC2/DepthDuration/v2_depth_duration_MTurk/v2_DepthDuration_HTML.html#141,141,1364,768,1364,768,8-22-2022,8-0-32,48,depth_duration_stimuli/002725_2014-06-22_11-47-51_094959634447_rgbf000070-resize_1/002725_2014-06-22_11-47-51_094959634447_rgbf000070-resize_1-target.png,1000,2.195,4,4384,996,feet,jsons/v1_VE1000_randls_62.json,862707,1020460,30,Woman
48,133074,DepthScenes,duration_manipulation_targetAtFixation,jsons/v1_VE1000_randls_62.json,http://54.235.29.9/FacialAge/BNav_EC2/DepthDuration/v2_depth_duration_MTurk/v2_DepthDuration_HTML.html#141,141,1364,768,1364,768,8-22-2022,8-0-32,49,depth_duration_stimuli/002344_2014-06-28_20-06-29_260595134347_rgbf000030-resize_1/002344_2014-06-28_20-06-29_260595134347_rgbf000030-resize_1-target.png,1000,1.5795,5,4970,999,feet,jsons/v1_VE1000_randls_62.json,862707,1020460,30,Woman
49,133074,DepthScenes,duration_manipulation_targetAtFixation,jsons/v1_VE1000_randls_62.json,http://54.235.29.9/FacialAge/BNav_EC2/DepthDuration/v2_depth_duration_MTurk/v2_DepthDuration_HTML.html#141,141,1364,768,1364,768,8-22-2022,8-0-32,50,depth_duration_stimuli/002630_2014-06-24_14-47-50_094959634447_rgbf000055-resize_1/002630_2014-06-24_14-47-50_094959634447_rgbf000055-resize_1-target.png,1000,3.0095,4,4394,994,feet,jsons/v1_VE1000_randls_62.json,862707,1020460,30,Woman
50,133074,DepthScenes,duration_manipulation_targetAtFixation,jsons/v1_VE1000_randls_62.json,http://54.235.29.9/FacialAge/BNav_EC2/DepthDuration/v2_depth_duration_MTurk/v2_DepthDuration_HTML.html#141,141,1364,768,1364,768,8-22-2022,8-0-32,51,depth_duration_stimuli/002758_2014-06-22_19-11-20_094959634447_rgbf000128-resize_1/002758_2014-06-22_19-11-20_094959634447_rgbf000128-resize_1-target.png,1000,2.555,3,4590,996,feet,jsons/v1_VE1000_randls_62.json,862707,1020460,30,Woman
51,133074,DepthScenes,duration_manipulation_targetAtFixation,jsons/v1_VE1000_randls_62.json,http://54.235.29.9/FacialAge/BNav_EC2/DepthDuration/v2_depth_duration_MTurk/v2_DepthDuration_HTML.html#141,141,1364,768,1364,768,8-22-2022,8-0-32,52,depth_duration_stimuli/001199_2014-06-17_16-03-48_260595134347_rgbf000077-resize_0/001199_2014-06-17_16-03-48_260595134347_rgbf000077-resize_0-target.png,1000,3.4375,4,4793,1000,feet,jsons/v1_VE1000_randls_62.json,862707,1020460,30,Woman
52,133074,DepthScenes,duration_manipulation_targetAtFixation,jsons/v1_VE1000_randls_62.json,http://54.235.29.9/FacialAge/BNav_EC2/DepthDuration/v2_depth_duration_MTurk/v2_DepthDuration_HTML.html#141,141,1364,768,1364,768,8-22-2022,8-0-32,53,depth_duration_stimuli/000502_2014-06-08_23-02-32_260595134347_rgbf000063-resize_4/000502_2014-06-08_23-02-32_260595134347_rgbf000063-resize_4-target.png,1000,2.431,2,3857,995,feet,jsons/v1_VE1000_randls_62.json,862707,1020460,30,Woman
53,133074,DepthScenes,duration_manipulation_targetAtFixation,jsons/v1_VE1000_randls_62.json,http://54.235.29.9/FacialAge/BNav_EC2/DepthDuration/v2_depth_duration_MTurk/v2_DepthDuration_HTML.html#141,141,1364,768,1364,768,8-22-2022,8-0-32,54,depth_duration_stimuli/001164_2014-06-17_15-35-46_260595134347_rgbf000085-resize_3/001164_2014-06-17_15-35-46_260595134347_rgbf000085-resize_3-target.png,1000,2.354,3,4587,998,feet,jsons/v1_VE1000_randls_62.json,862707,1020460,30,Woman
54,133074,DepthScenes,duration_manipulation_targetAtFixation,jsons/v1_VE1000_randls_62.json,http://54.235.29.9/FacialAge/BNav_EC2/DepthDuration/v2_depth_duration_MTurk/v2_DepthDuration_HTML.html#141,141,1364,768,1364,768,8-22-2022,8-0-32,55,depth_duration_stimuli/001136_2014-06-17_15-19-41_260595134347_rgbf000076-resize_3/001136_2014-06-17_15-19-41_260595134347_rgbf000076-resize_3-target.png,1000,1.8655,6,3921,996,feet,jsons/v1_VE1000_randls_62.json,862707,1020460,30,Woman
55,133074,DepthScenes,duration_manipulation_targetAtFixation,jsons/v1_VE1000_randls_62.json,http://54.235.29.9/FacialAge/BNav_EC2/DepthDuration/v2_depth_duration_MTurk/v2_DepthDuration_HTML.html#141,141,1364,768,1364,768,8-22-2022,8-0-32,56,depth_duration_stimuli/002509_2014-06-24_13-19-22_094959634447_rgbf000077-resize_0/002509_2014-06-24_13-19-22_094959634447_rgbf000077-resize_0-target.png,1000,1.3065,3,4242,1018,feet,jsons/v1_VE1000_randls_62.json,862707,1020460,30,Woman
56,133074,DepthScenes,duration_manipulation_targetAtFixation,jsons/v1_VE1000_randls_62.json,http://54.235.29.9/FacialAge/BNav_EC2/DepthDuration/v2_depth_duration_MTurk/v2_DepthDuration_HTML.html#141,141,1364,768,1364,768,8-22-2022,8-0-32,57,depth_duration_stimuli/003338_2014-05-20_11-01-23_094959634447_rgbf000051-resize_6/003338_2014-05-20_11-01-23_094959634447_rgbf000051-resize_6-target.png,1000,1.693,4,3774,999,feet,jsons/v1_VE1000_randls_62.json,862707,1020460,30,Woman
57,133074,DepthScenes,duration_manipulation_targetAtFixation,jsons/v1_VE1000_randls_62.json,http://54.235.29.9/FacialAge/BNav_EC2/DepthDuration/v2_depth_duration_MTurk/v2_DepthDuration_HTML.html#141,141,1364,768,1364,768,8-22-2022,8-0-32,58,depth_duration_stimuli/002445_2014-06-28_20-32-16_260595134347_rgbf000029-resize_4/002445_2014-06-28_20-32-16_260595134347_rgbf000029-resize_4-target.png,1000,2.5315,4,4686,998,feet,jsons/v1_VE1000_randls_62.json,862707,1020460,30,Woman
58,133074,DepthScenes,duration_manipulation_targetAtFixation,jsons/v1_VE1000_randls_62.json,http://54.235.29.9/FacialAge/BNav_EC2/DepthDuration/v2_depth_duration_MTurk/v2_DepthDuration_HTML.html#141,141,1364,768,1364,768,8-22-2022,8-0-32,59,depth_duration_stimuli/000780_2014-06-08_22-28-29_260595134347_rgbf000126-resize_1/000780_2014-06-08_22-28-29_260595134347_rgbf000126-resize_1-target.png,1000,3.3825,5,4181,996,feet,jsons/v1_VE1000_randls_62.json,862707,1020460,30,Woman
59,133074,DepthScenes,duration_manipulation_targetAtFixation,jsons/v1_VE1000_randls_62.json,http://54.235.29.9/FacialAge/BNav_EC2/DepthDuration/v2_depth_duration_MTurk/v2_DepthDuration_HTML.html#141,141,1364,768,1364,768,8-22-2022,8-0-32,60,depth_duration_stimuli/001810_2014-06-26_20-51-35_260595134347_rgbf000040-resize_3/001810_2014-06-26_20-51-35_260595134347_rgbf000040-resize_3-target.png,1000,2.2525,6,4142,994,feet,jsons/v1_VE1000_randls_62.json,862707,1020460,30,Woman
60,133074,DepthScenes,duration_manipulation_targetAtFixation,jsons/v1_VE1000_randls_62.json,http://54.235.29.9/FacialAge/BNav_EC2/DepthDuration/v2_depth_duration_MTurk/v2_DepthDuration_HTML.html#141,141,1364,768,1364,768,8-22-2022,8-0-32,61,depth_duration_stimuli/003010_2014-06-15_12-54-35_094959634447_rgbf000112-resize_0/003010_2014-06-15_12-54-35_094959634447_rgbf000112-resize_0-target.png,1000,3.1185,9,4114,1000,feet,jsons/v1_VE1000_randls_62.json,862707,1020460,30,Woman
61,133074,DepthScenes,duration_manipulation_targetAtFixation,jsons/v1_VE1000_randls_62.json,http://54.235.29.9/FacialAge/BNav_EC2/DepthDuration/v2_depth_duration_MTurk/v2_DepthDuration_HTML.html#141,141,1364,768,1364,768,8-22-2022,8-0-32,62,depth_duration_stimuli/000368_2014-06-09_15-53-01_260595134347_rgbf000155-resize_2/000368_2014-06-09_15-53-01_260595134347_rgbf000155-resize_2-target.png,1000,2.4859999999999998,4,4026,996,feet,jsons/v1_VE1000_randls_62.json,862707,1020460,30,Woman
62,133074,DepthScenes,duration_manipulation_targetAtFixation,jsons/v1_VE1000_randls_62.json,http://54.235.29.9/FacialAge/BNav_EC2/DepthDuration/v2_depth_duration_MTurk/v2_DepthDuration_HTML.html#141,141,1364,768,1364,768,8-22-2022,8-0-32,63,depth_duration_stimuli/002678_2014-06-13_16-15-32_094959634447_rgbf000151-resize_6/002678_2014-06-13_16-15-32_094959634447_rgbf000151-resize_6-target.png,1000,2.1830000000000003,5,6067,1000,feet,jsons/v1_VE1000_randls_62.json,862707,1020460,30,Woman
63,133074,DepthScenes,duration_manipulation_targetAtFixation,jsons/v1_VE1000_randls_62.json,http://54.235.29.9/FacialAge/BNav_EC2/DepthDuration/v2_depth_duration_MTurk/v2_DepthDuration_HTML.html#141,141,1364,768,1364,768,8-22-2022,8-0-32,64,depth_duration_stimuli/000736_2014-06-08_18-24-15_260595134347_rgbf000206-resize_3/000736_2014-06-08_18-24-15_260595134347_rgbf000206-resize_3-target.png,1000,3.515,3,5198,984,feet,jsons/v1_VE1000_randls_62.json,862707,1020460,30,Woman
64,133074,DepthScenes,duration_manipulation_targetAtFixation,jsons/v1_VE1000_randls_62.json,http://54.235.29.9/FacialAge/BNav_EC2/DepthDuration/v2_depth_duration_MTurk/v2_DepthDuration_HTML.html#141,141,1364,768,1364,768,8-22-2022,8-0-32,65,depth_duration_stimuli/000137_2014-05-20_17-04-49_260595134347_rgbf000120-resize_1/000137_2014-05-20_17-04-49_260595134347_rgbf000120-resize_1-target.png,1000,3.786,4,4043,1001,feet,jsons/v1_VE1000_randls_62.json,862707,1020460,30,Woman
65,133074,DepthScenes,duration_manipulation_targetAtFixation,jsons/v1_VE1000_randls_62.json,http://54.235.29.9/FacialAge/BNav_EC2/DepthDuration/v2_depth_duration_MTurk/v2_DepthDuration_HTML.html#141,141,1364,768,1364,768,8-22-2022,8-0-32,66,depth_duration_stimuli/001222_2014-06-17_16-24-06_260595134347_rgbf000073-resize_0/001222_2014-06-17_16-24-06_260595134347_rgbf000073-resize-original.jpg,1000,1.4385,6,6135,999,feet,jsons/v1_VE1000_randls_62.json,862707,1020460,30,Woman
66,133074,DepthScenes,duration_manipulation_targetAtFixation,jsons/v1_VE1000_randls_62.json,http://54.235.29.9/FacialAge/BNav_EC2/DepthDuration/v2_depth_duration_MTurk/v2_DepthDuration_HTML.html#141,141,1364,768,1364,768,8-22-2022,8-0-32,67,depth_duration_stimuli/002763_2014-06-22_19-13-10_094959634447_rgbf000075-resize_4/002763_2014-06-22_19-13-10_094959634447_rgbf000075-resize_4-target.png,1000,1.68375,5,4353,1004,feet,jsons/v1_VE1000_randls_62.json,862707,1020460,30,Woman
67,133074,DepthScenes,duration_manipulation_targetAtFixation,jsons/v1_VE1000_randls_62.json,http://54.235.29.9/FacialAge/BNav_EC2/DepthDuration/v2_depth_duration_MTurk/v2_DepthDuration_HTML.html#141,141,1364,768,1364,768,8-22-2022,8-0-32,68,depth_duration_stimuli/002209_2014-06-28_18-36-10_260595134347_rgbf000051-resize_1/002209_2014-06-28_18-36-10_260595134347_rgbf000051-resize_1-target.png,1000,2.057,3,3837,1016,feet,jsons/v1_VE1000_randls_62.json,862707,1020460,30,Woman
68,133074,DepthScenes,duration_manipulation_targetAtFixation,jsons/v1_VE1000_randls_62.json,http://54.235.29.9/FacialAge/BNav_EC2/DepthDuration/v2_depth_duration_MTurk/v2_DepthDuration_HTML.html#141,141,1364,768,1364,768,8-22-2022,8-0-32,69,depth_duration_stimuli/000917_2014-06-09_22-45-29_260595134347_rgbf000149-resize_3/000917_2014-06-09_22-45-29_260595134347_rgbf000149-resize_3-target.png,1000,4.1865,4,4431,1001,feet,jsons/v1_VE1000_randls_62.json,862707,1020460,30,Woman
69,133074,DepthScenes,duration_manipulation_targetAtFixation,jsons/v1_VE1000_randls_62.json,http://54.235.29.9/FacialAge/BNav_EC2/DepthDuration/v2_depth_duration_MTurk/v2_DepthDuration_HTML.html#141,141,1364,768,1364,768,8-22-2022,8-0-32,70,depth_duration_stimuli/002323_2014-06-28_20-01-54_260595134347_rgbf000051-resize_4/002323_2014-06-28_20-01-54_260595134347_rgbf000051-resize_4-target.png,1000,3.7310000000000003,5,3836,998,feet,jsons/v1_VE1000_randls_62.json,862707,1020460,30,Woman
70,133074,DepthScenes,duration_manipulation_targetAtFixation,jsons/v1_VE1000_randls_62.json,http://54.235.29.9/FacialAge/BNav_EC2/DepthDuration/v2_depth_duration_MTurk/v2_DepthDuration_HTML.html#141,141,1364,768,1364,768,8-22-2022,8-0-32,71,depth_duration_stimuli/001133_2014-06-17_14-49-16_260595134347_rgbf000100-resize_0/001133_2014-06-17_14-49-16_260595134347_rgbf000100-resize_0-target.png,1000,4.2115,6,4600,999,feet,jsons/v1_VE1000_randls_62.json,862707,1020460,30,Woman
71,133074,DepthScenes,duration_manipulation_targetAtFixation,jsons/v1_VE1000_randls_62.json,http://54.235.29.9/FacialAge/BNav_EC2/DepthDuration/v2_depth_duration_MTurk/v2_DepthDuration_HTML.html#141,141,1364,768,1364,768,8-22-2022,8-0-32,72,depth_duration_stimuli/001132_2014-06-17_14-48-54_260595134347_rgbf000100-resize_2/001132_2014-06-17_14-48-54_260595134347_rgbf000100-resize_2-target.png,1000,3.753,5,3724,1012,feet,jsons/v1_VE1000_randls_62.json,862707,1020460,30,Woman
72,133074,DepthScenes,duration_manipulation_targetAtFixation,jsons/v1_VE1000_randls_62.json,http://54.235.29.9/FacialAge/BNav_EC2/DepthDuration/v2_depth_duration_MTurk/v2_DepthDuration_HTML.html#141,141,1364,768,1364,768,8-22-2022,8-0-32,73,depth_duration_stimuli/003070_2014-06-15_14-58-27_094959634447_rgbf000150-resize_3/003070_2014-06-15_14-58-27_094959634447_rgbf000150-resize_3-target.png,1000,2.9415,6,4188,987,feet,jsons/v1_VE1000_randls_62.json,862707,1020460,30,Woman
73,133074,DepthScenes,duration_manipulation_targetAtFixation,jsons/v1_VE1000_randls_62.json,http://54.235.29.9/FacialAge/BNav_EC2/DepthDuration/v2_depth_duration_MTurk/v2_DepthDuration_HTML.html#141,141,1364,768,1364,768,8-22-2022,8-0-32,74,depth_duration_stimuli/000943_2014-06-09_19-31-07_260595134347_rgbf000128-resize_1/000943_2014-06-09_19-31-07_260595134347_rgbf000128-resize_1-target.png,1000,1.9765,5,9622,996,feet,jsons/v1_VE1000_randls_62.json,862707,1020460,30,Woman
74,133074,DepthScenes,duration_manipulation_targetAtFixation,jsons/v1_VE1000_randls_62.json,http://54.235.29.9/FacialAge/BNav_EC2/DepthDuration/v2_depth_duration_MTurk/v2_DepthDuration_HTML.html#141,141,1364,768,1364,768,8-22-2022,8-0-32,75,depth_duration_stimuli/000493_2014-06-09_21-01-18_260595134347_rgbf000196-resize_3/000493_2014-06-09_21-01-18_260595134347_rgbf000196-resize_3-target.png,1000,3.44,6,4072,985,feet,jsons/v1_VE1000_randls_62.json,862707,1020460,30,Woman
75,133074,DepthScenes,duration_manipulation_targetAtFixation,jsons/v1_VE1000_randls_62.json,http://54.235.29.9/FacialAge/BNav_EC2/DepthDuration/v2_depth_duration_MTurk/v2_DepthDuration_HTML.html#141,141,1364,768,1364,768,8-22-2022,8-0-32,76,depth_duration_stimuli/000191_2014-05-12_17-07-38_260595134347_rgbf000199-resize_0/000191_2014-05-12_17-07-38_260595134347_rgbf000199-resize_0-target.png,1000,3.7995,5,4098,997,feet,jsons/v1_VE1000_randls_62.json,862707,1020460,30,Woman
76,133074,DepthScenes,duration_manipulation_targetAtFixation,jsons/v1_VE1000_randls_62.json,http://54.235.29.9/FacialAge/BNav_EC2/DepthDuration/v2_depth_duration_MTurk/v2_DepthDuration_HTML.html#141,141,1364,768,1364,768,8-22-2022,8-0-32,77,depth_duration_stimuli/002964_2014-06-08_17-46-11_094959634447_rgbf000091-resize_4/002964_2014-06-08_17-46-11_094959634447_rgbf000091-resize_4-target.png,1000,1.6909999999999998,4,4092,1000,feet,jsons/v1_VE1000_randls_62.json,862707,1020460,30,Woman
77,133074,DepthScenes,duration_manipulation_targetAtFixation,jsons/v1_VE1000_randls_62.json,http://54.235.29.9/FacialAge/BNav_EC2/DepthDuration/v2_depth_duration_MTurk/v2_DepthDuration_HTML.html#141,141,1364,768,1364,768,8-22-2022,8-0-32,78,depth_duration_stimuli/002136_2014-06-25_21-18-03_260595134347_rgbf000109-resize_3/002136_2014-06-25_21-18-03_260595134347_rgbf000109-resize_3-target.png,1000,1.9569999999999999,5,4371,1002,feet,jsons/v1_VE1000_randls_62.json,862707,1020460,30,Woman
78,133074,DepthScenes,duration_manipulation_targetAtFixation,jsons/v1_VE1000_randls_62.json,http://54.235.29.9/FacialAge/BNav_EC2/DepthDuration/v2_depth_duration_MTurk/v2_DepthDuration_HTML.html#141,141,1364,768,1364,768,8-22-2022,8-0-32,79,depth_duration_stimuli/001570_2014-06-20_17-21-09_260595134347_rgbf000135-resize_4/001570_2014-06-20_17-21-09_260595134347_rgbf000135-resize_4-target.png,1000,4.467,4,4281,1000,feet,jsons/v1_VE1000_randls_62.json,862707,1020460,30,Woman
79,133074,DepthScenes,duration_manipulation_targetAtFixation,jsons/v1_VE1000_randls_62.json,http://54.235.29.9/FacialAge/BNav_EC2/DepthDuration/v2_depth_duration_MTurk/v2_DepthDuration_HTML.html#141,141,1364,768,1364,768,8-22-2022,8-0-32,80,depth_duration_stimuli/001392_2014-06-19_16-07-59_260595134347_rgbf000046-resize_1/001392_2014-06-19_16-07-59_260595134347_rgbf000046-resize_1-target.png,1000,4.135,9,5699,1003,feet,jsons/v1_VE1000_randls_62.json,862707,1020460,30,Woman
80,133074,DepthScenes,duration_manipulation_targetAtFixation,jsons/v1_VE1000_randls_62.json,http://54.235.29.9/FacialAge/BNav_EC2/DepthDuration/v2_depth_duration_MTurk/v2_DepthDuration_HTML.html#141,141,1364,768,1364,768,8-22-2022,8-0-32,81,depth_duration_stimuli/000506_2014-06-08_23-21-00_260595134347_rgbf000070-resize_7/000506_2014-06-08_23-21-00_260595134347_rgbf000070-resize_7-target.png,1000,4.0585,4,3992,999,feet,jsons/v1_VE1000_randls_62.json,862707,1020460,30,Woman
81,133074,DepthScenes,duration_manipulation_targetAtFixation,jsons/v1_VE1000_randls_62.json,http://54.235.29.9/FacialAge/BNav_EC2/DepthDuration/v2_depth_duration_MTurk/v2_DepthDuration_HTML.html#141,141,1364,768,1364,768,8-22-2022,8-0-32,82,depth_duration_stimuli/003079_2014-06-15_15-18-20_094959634447_rgbf000152-resize_8/003079_2014-06-15_15-18-20_094959634447_rgbf000152-resize_8-target.png,1000,2.8775,6,5301,997,feet,jsons/v1_VE1000_randls_62.json,862707,1020460,30,Woman
82,133074,DepthScenes,duration_manipulation_targetAtFixation,jsons/v1_VE1000_randls_62.json,http://54.235.29.9/FacialAge/BNav_EC2/DepthDuration/v2_depth_duration_MTurk/v2_DepthDuration_HTML.html#141,141,1364,768,1364,768,8-22-2022,8-0-32,83,depth_duration_stimuli/003292_2014-05-14_21-53-49_094959634447_rgbf000100-resize_2/003292_2014-05-14_21-53-49_094959634447_rgbf000100-resize_2-target.png,1000,3.4815,4,5041,990,feet,jsons/v1_VE1000_randls_62.json,862707,1020460,30,Woman
83,133074,DepthScenes,duration_manipulation_targetAtFixation,jsons/v1_VE1000_randls_62.json,http://54.235.29.9/FacialAge/BNav_EC2/DepthDuration/v2_depth_duration_MTurk/v2_DepthDuration_HTML.html#141,141,1364,768,1364,768,8-22-2022,8-0-32,84,depth_duration_stimuli/002639_2014-06-24_14-51-37_094959634447_rgbf000074-resize_4/002639_2014-06-24_14-51-37_094959634447_rgbf000074-resize_4-target.png,1000,4.0375,5,4392,996,feet,jsons/v1_VE1000_randls_62.json,862707,1020460,30,Woman
84,133074,DepthScenes,duration_manipulation_targetAtFixation,jsons/v1_VE1000_randls_62.json,http://54.235.29.9/FacialAge/BNav_EC2/DepthDuration/v2_depth_duration_MTurk/v2_DepthDuration_HTML.html#141,141,1364,768,1364,768,8-22-2022,8-0-32,85,depth_duration_stimuli/001167_2014-06-17_15-38-07_260595134347_rgbf000108-resize_0/001167_2014-06-17_15-38-07_260595134347_rgbf000108-resize_0-target.png,1000,1.8505,4,4099,998,feet,jsons/v1_VE1000_randls_62.json,862707,1020460,30,Woman
85,133074,DepthScenes,duration_manipulation_targetAtFixation,jsons/v1_VE1000_randls_62.json,http://54.235.29.9/FacialAge/BNav_EC2/DepthDuration/v2_depth_duration_MTurk/v2_DepthDuration_HTML.html#141,141,1364,768,1364,768,8-22-2022,8-0-32,86,depth_duration_stimuli/003587_2014-05-23_16-48-02_094959634447_rgbf002384-resize_2/003587_2014-05-23_16-48-02_094959634447_rgbf002384-resize_2-target.png,1000,1.357,3,4180,986,feet,jsons/v1_VE1000_randls_62.json,862707,1020460,30,Woman
86,133074,DepthScenes,duration_manipulation_targetAtFixation,jsons/v1_VE1000_randls_62.json,http://54.235.29.9/FacialAge/BNav_EC2/DepthDuration/v2_depth_duration_MTurk/v2_DepthDuration_HTML.html#141,141,1364,768,1364,768,8-22-2022,8-0-32,87,depth_duration_stimuli/000470_2014-06-09_19-42-40_260595134347_rgbf000094-resize_1/000470_2014-06-09_19-42-40_260595134347_rgbf000094-resize_1-target.png,1000,1.831,2,4418,1005,feet,jsons/v1_VE1000_randls_62.json,862707,1020460,30,Woman
87,133074,DepthScenes,duration_manipulation_targetAtFixation,jsons/v1_VE1000_randls_62.json,http://54.235.29.9/FacialAge/BNav_EC2/DepthDuration/v2_depth_duration_MTurk/v2_DepthDuration_HTML.html#141,141,1364,768,1364,768,8-22-2022,8-0-32,88,depth_duration_stimuli/000109_2014-05-14_23-41-52_260595134347_rgbf000035-resize_9/000109_2014-05-14_23-41-52_260595134347_rgbf000035-resize_9-target.png,1000,1.3545,4,4537,1011,feet,jsons/v1_VE1000_randls_62.json,862707,1020460,30,Woman
88,133074,DepthScenes,duration_manipulation_targetAtFixation,jsons/v1_VE1000_randls_62.json,http://54.235.29.9/FacialAge/BNav_EC2/DepthDuration/v2_depth_duration_MTurk/v2_DepthDuration_HTML.html#141,141,1364,768,1364,768,8-22-2022,8-0-32,89,depth_duration_stimuli/003621_2014-05-23_18-06-08_094959634447_rgbf000101-resize_1/003621_2014-05-23_18-06-08_094959634447_rgbf000101-resize_1-target.png,1000,3.9835,6,4138,998,feet,jsons/v1_VE1000_randls_62.json,862707,1020460,30,Woman
89,133074,DepthScenes,duration_manipulation_targetAtFixation,jsons/v1_VE1000_randls_62.json,http://54.235.29.9/FacialAge/BNav_EC2/DepthDuration/v2_depth_duration_MTurk/v2_DepthDuration_HTML.html#141,141,1364,768,1364,768,8-22-2022,8-0-32,90,depth_duration_stimuli/001584_2014-06-20_11-07-43_260595134347_rgbf000002-resize_1/001584_2014-06-20_11-07-43_260595134347_rgbf000002-resize_1-target.png,1000,3.53,5,4081,1022,feet,jsons/v1_VE1000_randls_62.json,862707,1020460,30,Woman
90,133074,DepthScenes,duration_manipulation_targetAtFixation,jsons/v1_VE1000_randls_62.json,http://54.235.29.9/FacialAge/BNav_EC2/DepthDuration/v2_depth_duration_MTurk/v2_DepthDuration_HTML.html#141,141,1364,768,1364,768,8-22-2022,8-0-32,91,depth_duration_stimuli/002788_2014-06-22_19-36-03_094959634447_rgbf000088-resize_2/002788_2014-06-22_19-36-03_094959634447_rgbf000088-resize_2-target.png,1000,1.6465,4,4174,1008,feet,jsons/v1_VE1000_randls_62.json,862707,1020460,30,Woman
91,133074,DepthScenes,duration_manipulation_targetAtFixation,jsons/v1_VE1000_randls_62.json,http://54.235.29.9/FacialAge/BNav_EC2/DepthDuration/v2_depth_duration_MTurk/v2_DepthDuration_HTML.html#141,141,1364,768,1364,768,8-22-2022,8-0-32,92,depth_duration_stimuli/000749_2014-06-08_21-55-06_260595134347_rgbf000070-resize_2/000749_2014-06-08_21-55-06_260595134347_rgbf000070-resize_2-target.png,1000,2.331,6,4323,996,feet,jsons/v1_VE1000_randls_62.json,862707,1020460,30,Woman
92,133074,DepthScenes,duration_manipulation_targetAtFixation,jsons/v1_VE1000_randls_62.json,http://54.235.29.9/FacialAge/BNav_EC2/DepthDuration/v2_depth_duration_MTurk/v2_DepthDuration_HTML.html#141,141,1364,768,1364,768,8-22-2022,8-0-32,93,depth_duration_stimuli/000469_2014-06-09_19-42-10_260595134347_rgbf000081-resize_1/000469_2014-06-09_19-42-10_260595134347_rgbf000081-resize_1-target.png,1000,1.652,2,3579,999,feet,jsons/v1_VE1000_randls_62.json,862707,1020460,30,Woman
93,133074,DepthScenes,duration_manipulation_targetAtFixation,jsons/v1_VE1000_randls_62.json,http://54.235.29.9/FacialAge/BNav_EC2/DepthDuration/v2_depth_duration_MTurk/v2_DepthDuration_HTML.html#141,141,1364,768,1364,768,8-22-2022,8-0-32,94,depth_duration_stimuli/000483_2014-06-09_20-41-45_260595134347_rgbf000116-resize_4/000483_2014-06-09_20-41-45_260595134347_rgbf000116-resize_4-target.png,1000,1.337,3,4154,998,feet,jsons/v1_VE1000_randls_62.json,862707,1020460,30,Woman
94,133074,DepthScenes,duration_manipulation_targetAtFixation,jsons/v1_VE1000_randls_62.json,http://54.235.29.9/FacialAge/BNav_EC2/DepthDuration/v2_depth_duration_MTurk/v2_DepthDuration_HTML.html#141,141,1364,768,1364,768,8-22-2022,8-0-32,95,depth_duration_stimuli/001110_2014-06-15_17-25-28_260595134347_rgbf000150-resize_1/001110_2014-06-15_17-25-28_260595134347_rgbf000150-resize_1-target.png,1000,1.7115,5,3682,1005,feet,jsons/v1_VE1000_randls_62.json,862707,1020460,30,Woman
95,133074,DepthScenes,duration_manipulation_targetAtFixation,jsons/v1_VE1000_randls_62.json,http://54.235.29.9/FacialAge/BNav_EC2/DepthDuration/v2_depth_duration_MTurk/v2_DepthDuration_HTML.html#141,141,1364,768,1364,768,8-22-2022,8-0-32,96,depth_duration_stimuli/000927_2014-06-09_16-32-30_260595134347_rgbf000123-resize_3/000927_2014-06-09_16-32-30_260595134347_rgbf000123-resize_3-target.png,1000,2.6785,6,5914,1030,feet,jsons/v1_VE1000_randls_62.json,862707,1020460,30,Woman
96,133074,DepthScenes,duration_manipulation_targetAtFixation,jsons/v1_VE1000_randls_62.json,http://54.235.29.9/FacialAge/BNav_EC2/DepthDuration/v2_depth_duration_MTurk/v2_DepthDuration_HTML.html#141,141,1364,768,1364,768,8-22-2022,8-0-32,97,depth_duration_stimuli/001055_2014-06-08_18-45-35_260595134347_rgbf000111-resize_4/001055_2014-06-08_18-45-35_260595134347_rgbf000111-resize_4-target.png,1000,2.4290000000000003,7,4303,995,feet,jsons/v1_VE1000_randls_62.json,862707,1020460,30,Woman
97,133074,DepthScenes,duration_manipulation_targetAtFixation,jsons/v1_VE1000_randls_62.json,http://54.235.29.9/FacialAge/BNav_EC2/DepthDuration/v2_depth_duration_MTurk/v2_DepthDuration_HTML.html#141,141,1364,768,1364,768,8-22-2022,8-0-32,98,depth_duration_stimuli/000549_2014-06-08_22-10-24_260595134347_rgbf000247-resize_3/000549_2014-06-08_22-10-24_260595134347_rgbf000247-resize_3-target.png,1000,1.841,3,3808,997,feet,jsons/v1_VE1000_randls_62.json,862707,1020460,30,Woman
98,133074,DepthScenes,duration_manipulation_targetAtFixation,jsons/v1_VE1000_randls_62.json,http://54.235.29.9/FacialAge/BNav_EC2/DepthDuration/v2_depth_duration_MTurk/v2_DepthDuration_HTML.html#141,141,1364,768,1364,768,8-22-2022,8-0-32,99,depth_duration_stimuli/001540_2014-06-20_17-01-05_260595134347_rgbf000086-resize_2/001540_2014-06-20_17-01-05_260595134347_rgbf000086-resize-original.jpg,1000,1.459,6,5002,999,feet,jsons/v1_VE1000_randls_62.json,862707,1020460,30,Woman
99,133074,DepthScenes,duration_manipulation_targetAtFixation,jsons/v1_VE1000_randls_62.json,http://54.235.29.9/FacialAge/BNav_EC2/DepthDuration/v2_depth_duration_MTurk/v2_DepthDuration_HTML.html#141,141,1364,768,1364,768,8-22-2022,8-0-32,100,depth_duration_stimuli/000773_2014-06-08_22-24-54_260595134347_rgbf000093-resize_1/000773_2014-06-08_22-24-54_260595134347_rgbf000093-resize_1-target.png,1000,4.973,6,4145,989,feet,jsons/v1_VE1000_randls_62.json,862707,1020460,30,Woman
100,133074,DepthScenes,duration_manipulation_targetAtFixation,jsons/v1_VE1000_randls_62.json,http://54.235.29.9/FacialAge/BNav_EC2/DepthDuration/v2_depth_duration_MTurk/v2_DepthDuration_HTML.html#141,141,1364,768,1364,768,8-22-2022,8-0-32,101,depth_duration_stimuli/002414_2014-06-28_20-24-58_260595134347_rgbf000067-resize_4/002414_2014-06-28_20-24-58_260595134347_rgbf000067-resize_4-target.png,1000,4.363,9,4018,1008,feet,jsons/v1_VE1000_randls_62.json,862707,1020460,30,Woman
101,133074,DepthScenes,duration_manipulation_targetAtFixation,jsons/v1_VE1000_randls_62.json,http://54.235.29.9/FacialAge/BNav_EC2/DepthDuration/v2_depth_duration_MTurk/v2_DepthDuration_HTML.html#141,141,1364,768,1364,768,8-22-2022,8-0-32,102,depth_duration_stimuli/003534_2014-05-22_15-06-10_094959634447_rgbf000102-resize_4/003534_2014-05-22_15-06-10_094959634447_rgbf000102-resize_4-target.png,1000,1.426,5,3518,1008,feet,jsons/v1_VE1000_randls_62.json,862707,1020460,30,Woman
102,133074,DepthScenes,duration_manipulation_targetAtFixation,jsons/v1_VE1000_randls_62.json,http://54.235.29.9/FacialAge/BNav_EC2/DepthDuration/v2_depth_duration_MTurk/v2_DepthDuration_HTML.html#141,141,1364,768,1364,768,8-22-2022,8-0-32,103,depth_duration_stimuli/002637_2014-06-24_14-51-13_094959634447_rgbf000066-resize_4/002637_2014-06-24_14-51-13_094959634447_rgbf000066-resize_4-target.png,1000,1.9955,3,3702,996,feet,jsons/v1_VE1000_randls_62.json,862707,1020460,30,Woman
103,133074,DepthScenes,duration_manipulation_targetAtFixation,jsons/v1_VE1000_randls_62.json,http://54.235.29.9/FacialAge/BNav_EC2/DepthDuration/v2_depth_duration_MTurk/v2_DepthDuration_HTML.html#141,141,1364,768,1364,768,8-22-2022,8-0-32,104,depth_duration_stimuli/002748_2014-06-22_19-07-22_094959634447_rgbf000078-resize_1/002748_2014-06-22_19-07-22_094959634447_rgbf000078-resize_1-target.png,1000,4.6705,8,4579,1011,feet,jsons/v1_VE1000_randls_62.json,862707,1020460,30,Woman
104,133074,DepthScenes,duration_manipulation_targetAtFixation,jsons/v1_VE1000_randls_62.json,http://54.235.29.9/FacialAge/BNav_EC2/DepthDuration/v2_depth_duration_MTurk/v2_DepthDuration_HTML.html#141,141,1364,768,1364,768,8-22-2022,8-0-32,105,depth_duration_stimuli/002995_2014-06-15_12-31-26_094959634447_rgbf000150-resize_1/002995_2014-06-15_12-31-26_094959634447_rgbf000150-resize_1-target.png,1000,3.8360000000000003,5,3737,1002,feet,jsons/v1_VE1000_randls_62.json,862707,1020460,30,Woman
105,133074,DepthScenes,duration_manipulation_targetAtFixation,jsons/v1_VE1000_randls_62.json,http://54.235.29.9/FacialAge/BNav_EC2/DepthDuration/v2_depth_duration_MTurk/v2_DepthDuration_HTML.html#141,141,1364,768,1364,768,8-22-2022,8-0-32,106,depth_duration_stimuli/001056_2014-06-08_18-46-44_260595134347_rgbf000068-resize_0/001056_2014-06-08_18-46-44_260595134347_rgbf000068-resize_0-target.png,1000,2.6625,6,4016,996,feet,jsons/v1_VE1000_randls_62.json,862707,1020460,30,Woman
106,133074,DepthScenes,duration_manipulation_targetAtFixation,jsons/v1_VE1000_randls_62.json,http://54.235.29.9/FacialAge/BNav_EC2/DepthDuration/v2_depth_duration_MTurk/v2_DepthDuration_HTML.html#141,141,1364,768,1364,768,8-22-2022,8-0-32,107,depth_duration_stimuli/002199_2014-06-28_18-33-56_260595134347_rgbf000074-resize_0/002199_2014-06-28_18-33-56_260595134347_rgbf000074-resize_0-target.png,1000,1.996,9,4374,996,feet,jsons/v1_VE1000_randls_62.json,862707,1020460,30,Woman
107,133074,DepthScenes,duration_manipulation_targetAtFixation,jsons/v1_VE1000_randls_62.json,http://54.235.29.9/FacialAge/BNav_EC2/DepthDuration/v2_depth_duration_MTurk/v2_DepthDuration_HTML.html#141,141,1364,768,1364,768,8-22-2022,8-0-32,108,depth_duration_stimuli/001029_2014-06-08_13-17-57_260595134347_rgbf000065-resize_1/001029_2014-06-08_13-17-57_260595134347_rgbf000065-resize_1-target.png,1000,3.0835,4,4000,1002,feet,jsons/v1_VE1000_randls_62.json,862707,1020460,30,Woman
108,133074,DepthScenes,duration_manipulation_targetAtFixation,jsons/v1_VE1000_randls_62.json,http://54.235.29.9/FacialAge/BNav_EC2/DepthDuration/v2_depth_duration_MTurk/v2_DepthDuration_HTML.html#141,141,1364,768,1364,768,8-22-2022,8-0-32,109,depth_duration_stimuli/000677_2014-06-08_23-10-32_260595134347_rgbf000158-resize_6/000677_2014-06-08_23-10-32_260595134347_rgbf000158-resize_6-target.png,1000,3.556,3,3922,1013,feet,jsons/v1_VE1000_randls_62.json,862707,1020460,30,Woman
109,133074,DepthScenes,duration_manipulation_targetAtFixation,jsons/v1_VE1000_randls_62.json,http://54.235.29.9/FacialAge/BNav_EC2/DepthDuration/v2_depth_duration_MTurk/v2_DepthDuration_HTML.html#141,141,1364,768,1364,768,8-22-2022,8-0-32,110,depth_duration_stimuli/002272_2014-06-28_18-53-56_260595134347_rgbf000067-resize_2/002272_2014-06-28_18-53-56_260595134347_rgbf000067-resize_2-target.png,1000,1.138,0,3669,994,feet,jsons/v1_VE1000_randls_62.json,862707,1020460,30,Woman
110,133074,DepthScenes,duration_manipulation_targetAtFixation,jsons/v1_VE1000_randls_62.json,http://54.235.29.9/FacialAge/BNav_EC2/DepthDuration/v2_depth_duration_MTurk/v2_DepthDuration_HTML.html#141,141,1364,768,1364,768,8-22-2022,8-0-32,111,depth_duration_stimuli/001571_2014-06-20_17-21-32_260595134347_rgbf000089-resize_1/001571_2014-06-20_17-21-32_260595134347_rgbf000089-resize_1-target.png,1000,1.86,3,4053,1000,feet,jsons/v1_VE1000_randls_62.json,862707,1020460,30,Woman
111,133074,DepthScenes,duration_manipulation_targetAtFixation,jsons/v1_VE1000_randls_62.json,http://54.235.29.9/FacialAge/BNav_EC2/DepthDuration/v2_depth_duration_MTurk/v2_DepthDuration_HTML.html#141,141,1364,768,1364,768,8-22-2022,8-0-32,112,depth_duration_stimuli/002989_2014-06-15_12-25-03_094959634447_rgbf000150-resize_3/002989_2014-06-15_12-25-03_094959634447_rgbf000150-resize_3-target.png,1000,4.1975,4,4257,989,feet,jsons/v1_VE1000_randls_62.json,862707,1020460,30,Woman
112,133074,DepthScenes,duration_manipulation_targetAtFixation,jsons/v1_VE1000_randls_62.json,http://54.235.29.9/FacialAge/BNav_EC2/DepthDuration/v2_depth_duration_MTurk/v2_DepthDuration_HTML.html#141,141,1364,768,1364,768,8-22-2022,8-0-32,113,depth_duration_stimuli/000866_2014-06-09_20-45-42_260595134347_rgbf000139-resize_1/000866_2014-06-09_20-45-42_260595134347_rgbf000139-resize_1-target.png,1000,3.2155,4,3750,1014,feet,jsons/v1_VE1000_randls_62.json,862707,1020460,30,Woman
113,133074,DepthScenes,duration_manipulation_targetAtFixation,jsons/v1_VE1000_randls_62.json,http://54.235.29.9/FacialAge/BNav_EC2/DepthDuration/v2_depth_duration_MTurk/v2_DepthDuration_HTML.html#141,141,1364,768,1364,768,8-22-2022,8-0-32,114,depth_duration_stimuli/002600_2014-06-24_14-27-04_094959634447_rgbf000074-resize_2/002600_2014-06-24_14-27-04_094959634447_rgbf000074-resize_2-target.png,1000,2.7575,5,4600,1003,feet,jsons/v1_VE1000_randls_62.json,862707,1020460,30,Woman
114,133074,DepthScenes,duration_manipulation_targetAtFixation,jsons/v1_VE1000_randls_62.json,http://54.235.29.9/FacialAge/BNav_EC2/DepthDuration/v2_depth_duration_MTurk/v2_DepthDuration_HTML.html#141,141,1364,768,1364,768,8-22-2022,8-0-32,115,depth_duration_stimuli/003228_2014-05-14_13-42-35_094959634447_rgbf000101-resize_1/003228_2014-05-14_13-42-35_094959634447_rgbf000101-resize_1-target.png,1000,1.9680000000000002,4,3662,1000,feet,jsons/v1_VE1000_randls_62.json,862707,1020460,30,Woman
115,133074,DepthScenes,duration_manipulation_targetAtFixation,jsons/v1_VE1000_randls_62.json,http://54.235.29.9/FacialAge/BNav_EC2/DepthDuration/v2_depth_duration_MTurk/v2_DepthDuration_HTML.html#141,141,1364,768,1364,768,8-22-2022,8-0-32,116,depth_duration_stimuli/001170_2014-06-17_15-43-44_260595134347_rgbf000096-resize_6/001170_2014-06-17_15-43-44_260595134347_rgbf000096-resize-original.jpg,1000,1.1909999999999998,0,4309,985,feet,jsons/v1_VE1000_randls_62.json,862707,1020460,30,Woman
116,133074,DepthScenes,duration_manipulation_targetAtFixation,jsons/v1_VE1000_randls_62.json,http://54.235.29.9/FacialAge/BNav_EC2/DepthDuration/v2_depth_duration_MTurk/v2_DepthDuration_HTML.html#141,141,1364,768,1364,768,8-22-2022,8-0-32,117,depth_duration_stimuli/001244_2014-06-17_16-47-45_260595134347_rgbf000030-resize_4/001244_2014-06-17_16-47-45_260595134347_rgbf000030-resize_4-target.png,1000,2.0425,3,4482,1016,feet,jsons/v1_VE1000_randls_62.json,862707,1020460,30,Woman
117,133074,DepthScenes,duration_manipulation_targetAtFixation,jsons/v1_VE1000_randls_62.json,http://54.235.29.9/FacialAge/BNav_EC2/DepthDuration/v2_depth_duration_MTurk/v2_DepthDuration_HTML.html#141,141,1364,768,1364,768,8-22-2022,8-0-32,118,depth_duration_stimuli/003495_2014-05-21_16-01-51_094959634447_rgbf000100-resize_3/003495_2014-05-21_16-01-51_094959634447_rgbf000100-resize_3-target.png,1000,1.6255,2,4159,997,feet,jsons/v1_VE1000_randls_62.json,862707,1020460,30,Woman
118,133074,DepthScenes,duration_manipulation_targetAtFixation,jsons/v1_VE1000_randls_62.json,http://54.235.29.9/FacialAge/BNav_EC2/DepthDuration/v2_depth_duration_MTurk/v2_DepthDuration_HTML.html#141,141,1364,768,1364,768,8-22-2022,8-0-32,119,depth_duration_stimuli/000906_2014-06-08_13-35-43_260595134347_rgbf000155-resize_1/000906_2014-06-08_13-35-43_260595134347_rgbf000155-resize_1-target.png,1000,2.8489999999999998,5,4354,1000,feet,jsons/v1_VE1000_randls_62.json,862707,1020460,30,Woman
119,133074,DepthScenes,duration_manipulation_targetAtFixation,jsons/v1_VE1000_randls_62.json,http://54.235.29.9/FacialAge/BNav_EC2/DepthDuration/v2_depth_duration_MTurk/v2_DepthDuration_HTML.html#141,141,1364,768,1364,768,8-22-2022,8-0-32,120,depth_duration_stimuli/002805_2014-06-22_19-54-03_094959634447_rgbf000079-resize_1/002805_2014-06-22_19-54-03_094959634447_rgbf000079-resize_1-target.png,1000,3.1439999999999997,7,4121,1002,feet,jsons/v1_VE1000_randls_62.json,862707,1020460,30,Woman
120,133074,DepthScenes,duration_manipulation_targetAtFixation,jsons/v1_VE1000_randls_62.json,http://54.235.29.9/FacialAge/BNav_EC2/DepthDuration/v2_depth_duration_MTurk/v2_DepthDuration_HTML.html#141,141,1364,768,1364,768,8-22-2022,8-0-32,121,depth_duration_stimuli/000642_2014-06-08_16-59-25_260595134347_rgbf000098-resize_2/000642_2014-06-08_16-59-25_260595134347_rgbf000098-resize_2-target.png,1000,2.8815,4,4508,1007,feet,jsons/v1_VE1000_randls_62.json,862707,1020460,30,Woman
121,133074,DepthScenes,duration_manipulation_targetAtFixation,jsons/v1_VE1000_randls_62.json,http://54.235.29.9/FacialAge/BNav_EC2/DepthDuration/v2_depth_duration_MTurk/v2_DepthDuration_HTML.html#141,141,1364,768,1364,768,8-22-2022,8-0-32,122,depth_duration_stimuli/002425_2014-06-28_20-27-29_260595134347_rgbf000031-resize_8/002425_2014-06-28_20-27-29_260595134347_rgbf000031-resize_8-target.png,1000,3.8960000000000004,5,3712,969,feet,jsons/v1_VE1000_randls_62.json,862707,1020460,30,Woman
122,133074,DepthScenes,duration_manipulation_targetAtFixation,jsons/v1_VE1000_randls_62.json,http://54.235.29.9/FacialAge/BNav_EC2/DepthDuration/v2_depth_duration_MTurk/v2_DepthDuration_HTML.html#141,141,1364,768,1364,768,8-22-2022,8-0-32,123,depth_duration_stimuli/002375_2014-06-28_20-13-44_260595134347_rgbf000032-resize_1/002375_2014-06-28_20-13-44_260595134347_rgbf000032-resize_1-target.png,1000,4.0175,3,3649,1013,feet,jsons/v1_VE1000_randls_62.json,862707,1020460,30,Woman
123,133074,DepthScenes,duration_manipulation_targetAtFixation,jsons/v1_VE1000_randls_62.json,http://54.235.29.9/FacialAge/BNav_EC2/DepthDuration/v2_depth_duration_MTurk/v2_DepthDuration_HTML.html#141,141,1364,768,1364,768,8-22-2022,8-0-32,124,depth_duration_stimuli/002657_2014-06-13_15-29-54_094959634447_rgbf000150-resize_1/002657_2014-06-13_15-29-54_094959634447_rgbf000150-resize_1-target.png,1000,4.919,8,4373,994,feet,jsons/v1_VE1000_randls_62.json,862707,1020460,30,Woman
124,133074,DepthScenes,duration_manipulation_targetAtFixation,jsons/v1_VE1000_randls_62.json,http://54.235.29.9/FacialAge/BNav_EC2/DepthDuration/v2_depth_duration_MTurk/v2_DepthDuration_HTML.html#141,141,1364,768,1364,768,8-22-2022,8-0-32,125,depth_duration_stimuli/001011_2014-06-08_23-18-54_260595134347_rgbf000044-resize_4/001011_2014-06-08_23-18-54_260595134347_rgbf000044-resize_4-target.png,1000,2.4730000000000003,3,4443,999,feet,jsons/v1_VE1000_randls_62.json,862707,1020460,30,Woman
125,133074,DepthScenes,duration_manipulation_targetAtFixation,jsons/v1_VE1000_randls_62.json,http://54.235.29.9/FacialAge/BNav_EC2/DepthDuration/v2_depth_duration_MTurk/v2_DepthDuration_HTML.html#141,141,1364,768,1364,768,8-22-2022,8-0-32,126,depth_duration_stimuli/002875_2014-06-01_15-19-00_094959634447_rgbf000151-resize_1/002875_2014-06-01_15-19-00_094959634447_rgbf000151-resize_1-target.png,1000,1.9675,4,3833,999,feet,jsons/v1_VE1000_randls_62.json,862707,1020460,30,Woman
126,133074,DepthScenes,duration_manipulation_targetAtFixation,jsons/v1_VE1000_randls_62.json,http://54.235.29.9/FacialAge/BNav_EC2/DepthDuration/v2_depth_duration_MTurk/v2_DepthDuration_HTML.html#141,141,1364,768,1364,768,8-22-2022,8-0-32,127,depth_duration_stimuli/002153_2014-06-25_21-27-18_260595134347_rgbf000038-resize_5/002153_2014-06-25_21-27-18_260595134347_rgbf000038-resize_5-target.png,1000,2.505,5,4130,999,feet,jsons/v1_VE1000_randls_62.json,862707,1020460,30,Woman
127,133074,DepthScenes,duration_manipulation_targetAtFixation,jsons/v1_VE1000_randls_62.json,http://54.235.29.9/FacialAge/BNav_EC2/DepthDuration/v2_depth_duration_MTurk/v2_DepthDuration_HTML.html#141,141,1364,768,1364,768,8-22-2022,8-0-32,128,depth_duration_stimuli/002660_2014-06-13_15-44-18_094959634447_rgbf001878-resize_2/002660_2014-06-13_15-44-18_094959634447_rgbf001878-resize_2-target.png,1000,3.576,6,3618,1000,feet,jsons/v1_VE1000_randls_62.json,862707,1020460,30,Woman
128,133074,DepthScenes,duration_manipulation_targetAtFixation,jsons/v1_VE1000_randls_62.json,http://54.235.29.9/FacialAge/BNav_EC2/DepthDuration/v2_depth_duration_MTurk/v2_DepthDuration_HTML.html#141,141,1364,768,1364,768,8-22-2022,8-0-32,129,depth_duration_stimuli/002663_2014-06-13_15-50-26_094959634447_rgbf000075-resize_1/002663_2014-06-13_15-50-26_094959634447_rgbf000075-resize_1-target.png,1000,4.7495,2,4138,998,feet,jsons/v1_VE1000_randls_62.json,862707,1020460,30,Woman
129,133074,DepthScenes,duration_manipulation_targetAtFixation,jsons/v1_VE1000_randls_62.json,http://54.235.29.9/FacialAge/BNav_EC2/DepthDuration/v2_depth_duration_MTurk/v2_DepthDuration_HTML.html#141,141,1364,768,1364,768,8-22-2022,8-0-32,130,depth_duration_stimuli/000409_2014-06-04_19-23-33_260595134347_rgbf000067-resize_0/000409_2014-06-04_19-23-33_260595134347_rgbf000067-resize_0-target.png,1000,3.7335,3,6357,1000,feet,jsons/v1_VE1000_randls_62.json,862707,1020460,30,Woman
130,133074,DepthScenes,duration_manipulation_targetAtFixation,jsons/v1_VE1000_randls_62.json,http://54.235.29.9/FacialAge/BNav_EC2/DepthDuration/v2_depth_duration_MTurk/v2_DepthDuration_HTML.html#141,141,1364,768,1364,768,8-22-2022,8-0-32,131,depth_duration_stimuli/002213_2014-06-28_18-37-58_260595134347_rgbf000055-resize_1/002213_2014-06-28_18-37-58_260595134347_rgbf000055-resize_1-target.png,1000,3.62,8,4599,997,feet,jsons/v1_VE1000_randls_62.json,862707,1020460,30,Woman
131,133074,DepthScenes,duration_manipulation_targetAtFixation,jsons/v1_VE1000_randls_62.json,http://54.235.29.9/FacialAge/BNav_EC2/DepthDuration/v2_depth_duration_MTurk/v2_DepthDuration_HTML.html#141,141,1364,768,1364,768,8-22-2022,8-0-32,132,depth_duration_stimuli/000691_2014-06-08_13-08-50_260595134347_rgbf000132-resize_3/000691_2014-06-08_13-08-50_260595134347_rgbf000132-resize_3-target.png,1000,4.1530000000000005,7,4980,965,feet,jsons/v1_VE1000_randls_62.json,862707,1020460,30,Woman
132,133074,DepthScenes,duration_manipulation_targetAtFixation,jsons/v1_VE1000_randls_62.json,http://54.235.29.9/FacialAge/BNav_EC2/DepthDuration/v2_depth_duration_MTurk/v2_DepthDuration_HTML.html#141,141,1364,768,1364,768,8-22-2022,8-0-32,133,depth_duration_stimuli/001150_2014-06-17_15-27-34_260595134347_rgbf000108-resize_2/001150_2014-06-17_15-27-34_260595134347_rgbf000108-resize_2-target.png,1000,4.0325,4,3972,955,feet,jsons/v1_VE1000_randls_62.json,862707,1020460,30,Woman
133,133074,DepthScenes,duration_manipulation_targetAtFixation,jsons/v1_VE1000_randls_62.json,http://54.235.29.9/FacialAge/BNav_EC2/DepthDuration/v2_depth_duration_MTurk/v2_DepthDuration_HTML.html#141,141,1364,768,1364,768,8-22-2022,8-0-32,134,depth_duration_stimuli/000665_2014-06-09_20-42-35_260595134347_rgbf000110-resize_1/000665_2014-06-09_20-42-35_260595134347_rgbf000110-resize_1-target.png,1000,3.057,5,4627,1006,feet,jsons/v1_VE1000_randls_62.json,862707,1020460,30,Woman
134,133074,DepthScenes,duration_manipulation_targetAtFixation,jsons/v1_VE1000_randls_62.json,http://54.235.29.9/FacialAge/BNav_EC2/DepthDuration/v2_depth_duration_MTurk/v2_DepthDuration_HTML.html#141,141,1364,768,1364,768,8-22-2022,8-0-32,135,depth_duration_stimuli/002072_2014-06-24_21-48-06_260595134347_rgbf000115-resize_0/002072_2014-06-24_21-48-06_260595134347_rgbf000115-resize-original.jpg,1000,4.702,0,3817,997,feet,jsons/v1_VE1000_randls_62.json,862707,1020460,30,Woman
135,133074,DepthScenes,duration_manipulation_targetAtFixation,jsons/v1_VE1000_randls_62.json,http://54.235.29.9/FacialAge/BNav_EC2/DepthDuration/v2_depth_duration_MTurk/v2_DepthDuration_HTML.html#141,141,1364,768,1364,768,8-22-2022,8-0-32,136,depth_duration_stimuli/000436_2014-06-09_22-25-11_260595134347_rgbf000137-resize_1/000436_2014-06-09_22-25-11_260595134347_rgbf000137-resize_1-target.png,1000,4.0705,6,4538,1012,feet,jsons/v1_VE1000_randls_62.json,862707,1020460,30,Woman
136,133074,DepthScenes,duration_manipulation_targetAtFixation,jsons/v1_VE1000_randls_62.json,http://54.235.29.9/FacialAge/BNav_EC2/DepthDuration/v2_depth_duration_MTurk/v2_DepthDuration_HTML.html#141,141,1364,768,1364,768,8-22-2022,8-0-32,137,depth_duration_stimuli/002444_2014-06-28_20-32-08_260595134347_rgbf000027-resize_0/002444_2014-06-28_20-32-08_260595134347_rgbf000027-resize_0-target.png,1000,4.388999999999999,4,3757,998,feet,jsons/v1_VE1000_randls_62.json,862707,1020460,30,Woman
137,133074,DepthScenes,duration_manipulation_targetAtFixation,jsons/v1_VE1000_randls_62.json,http://54.235.29.9/FacialAge/BNav_EC2/DepthDuration/v2_depth_duration_MTurk/v2_DepthDuration_HTML.html#141,141,1364,768,1364,768,8-22-2022,8-0-32,138,depth_duration_stimuli/001808_2014-06-26_20-50-58_260595134347_rgbf000029-resize_1/001808_2014-06-26_20-50-58_260595134347_rgbf000029-resize_1-target.png,1000,4.249,4,3468,998,feet,jsons/v1_VE1000_randls_62.json,862707,1020460,30,Woman
138,133074,DepthScenes,duration_manipulation_targetAtFixation,jsons/v1_VE1000_randls_62.json,http://54.235.29.9/FacialAge/BNav_EC2/DepthDuration/v2_depth_duration_MTurk/v2_DepthDuration_HTML.html#141,141,1364,768,1364,768,8-22-2022,8-0-32,139,depth_duration_stimuli/001815_2014-06-26_20-52-55_260595134347_rgbf000020-resize_0/001815_2014-06-26_20-52-55_260595134347_rgbf000020-resize_0-target.png,1000,3.3865,5,3482,999,feet,jsons/v1_VE1000_randls_62.json,862707,1020460,30,Woman
139,133074,DepthScenes,duration_manipulation_targetAtFixation,jsons/v1_VE1000_randls_62.json,http://54.235.29.9/FacialAge/BNav_EC2/DepthDuration/v2_depth_duration_MTurk/v2_DepthDuration_HTML.html#141,141,1364,768,1364,768,8-22-2022,8-0-32,140,depth_duration_stimuli/001806_2014-06-26_20-50-20_260595134347_rgbf000091-resize_1/001806_2014-06-26_20-50-20_260595134347_rgbf000091-resize_1-target.png,1000,2.7305,6,4523,998,feet,jsons/v1_VE1000_randls_62.json,862707,1020460,30,Woman
140,133074,DepthScenes,duration_manipulation_targetAtFixation,jsons/v1_VE1000_randls_62.json,http://54.235.29.9/FacialAge/BNav_EC2/DepthDuration/v2_depth_duration_MTurk/v2_DepthDuration_HTML.html#141,141,1364,768,1364,768,8-22-2022,8-0-32,141,depth_duration_stimuli/001617_2014-06-20_11-35-32_260595134347_rgbf000066-resize_1/001617_2014-06-20_11-35-32_260595134347_rgbf000066-resize_1-target.png,1000,3.7910000000000004,3,3922,1043,feet,jsons/v1_VE1000_randls_62.json,862707,1020460,30,Woman
141,133074,DepthScenes,duration_manipulation_targetAtFixation,jsons/v1_VE1000_randls_62.json,http://54.235.29.9/FacialAge/BNav_EC2/DepthDuration/v2_depth_duration_MTurk/v2_DepthDuration_HTML.html#141,141,1364,768,1364,768,8-22-2022,8-0-32,142,depth_duration_stimuli/000682_2014-06-08_23-14-58_260595134347_rgbf000041-resize_5/000682_2014-06-08_23-14-58_260595134347_rgbf000041-resize_5-target.png,1000,2.7239999999999998,2,4613,1000,feet,jsons/v1_VE1000_randls_62.json,862707,1020460,30,Woman
142,133074,DepthScenes,duration_manipulation_targetAtFixation,jsons/v1_VE1000_randls_62.json,http://54.235.29.9/FacialAge/BNav_EC2/DepthDuration/v2_depth_duration_MTurk/v2_DepthDuration_HTML.html#141,141,1364,768,1364,768,8-22-2022,8-0-32,143,depth_duration_stimuli/001650_2014-06-20_12-09-00_260595134347_rgbf000087-resize_3/001650_2014-06-20_12-09-00_260595134347_rgbf000087-resize_3-target.png,1000,1.9505,6,3570,1050,feet,jsons/v1_VE1000_randls_62.json,862707,1020460,30,Woman
143,133074,DepthScenes,duration_manipulation_targetAtFixation,jsons/v1_VE1000_randls_62.json,http://54.235.29.9/FacialAge/BNav_EC2/DepthDuration/v2_depth_duration_MTurk/v2_DepthDuration_HTML.html#141,141,1364,768,1364,768,8-22-2022,8-0-32,144,depth_duration_stimuli/000758_2014-06-08_22-05-08_260595134347_rgbf000085-resize_0/000758_2014-06-08_22-05-08_260595134347_rgbf000085-resize_0-target.png,1000,3.3810000000000002,4,4018,999,feet,jsons/v1_VE1000_randls_62.json,862707,1020460,30,Woman
144,133074,DepthScenes,duration_manipulation_targetAtFixation,jsons/v1_VE1000_randls_62.json,http://54.235.29.9/FacialAge/BNav_EC2/DepthDuration/v2_depth_duration_MTurk/v2_DepthDuration_HTML.html#141,141,1364,768,1364,768,8-22-2022,8-0-32,145,depth_duration_stimuli/000854_2014-06-09_19-43-13_260595134347_rgbf000066-resize_0/000854_2014-06-09_19-43-13_260595134347_rgbf000066-resize_0-target.png,1000,3.068,5,3888,1003,feet,jsons/v1_VE1000_randls_62.json,862707,1020460,30,Woman
145,133074,DepthScenes,duration_manipulation_targetAtFixation,jsons/v1_VE1000_randls_62.json,http://54.235.29.9/FacialAge/BNav_EC2/DepthDuration/v2_depth_duration_MTurk/v2_DepthDuration_HTML.html#141,141,1364,768,1364,768,8-22-2022,8-0-32,146,depth_duration_stimuli/001498_2014-06-19_17-45-14_260595134347_rgbf000129-resize_4/001498_2014-06-19_17-45-14_260595134347_rgbf000129-resize-original.jpg,1000,1.4075,0,4148,1000,feet,jsons/v1_VE1000_randls_62.json,862707,1020460,30,Woman
146,133074,DepthScenes,duration_manipulation_targetAtFixation,jsons/v1_VE1000_randls_62.json,http://54.235.29.9/FacialAge/BNav_EC2/DepthDuration/v2_depth_duration_MTurk/v2_DepthDuration_HTML.html#141,141,1364,768,1364,768,8-22-2022,8-0-32,147,depth_duration_stimuli/001016_2014-06-09_16-16-10_260595134347_rgbf000112-resize_5/001016_2014-06-09_16-16-10_260595134347_rgbf000112-resize_5-target.png,1000,1.6565,6,5453,997,feet,jsons/v1_VE1000_randls_62.json,862707,1020460,30,Woman
147,133074,DepthScenes,duration_manipulation_targetAtFixation,jsons/v1_VE1000_randls_62.json,http://54.235.29.9/FacialAge/BNav_EC2/DepthDuration/v2_depth_duration_MTurk/v2_DepthDuration_HTML.html#141,141,1364,768,1364,768,8-22-2022,8-0-32,148,depth_duration_stimuli/002340_2014-06-28_20-05-46_260595134347_rgbf000113-resize_0/002340_2014-06-28_20-05-46_260595134347_rgbf000113-resize_0-target.png,1000,2.4735,0,3970,912,feet,jsons/v1_VE1000_randls_62.json,862707,1020460,30,Woman
148,133074,DepthScenes,duration_manipulation_targetAtFixation,jsons/v1_VE1000_randls_62.json,http://54.235.29.9/FacialAge/BNav_EC2/DepthDuration/v2_depth_duration_MTurk/v2_DepthDuration_HTML.html#141,141,1364,768,1364,768,8-22-2022,8-0-32,149,depth_duration_stimuli/000929_2014-06-09_16-33-19_260595134347_rgbf000139-resize_0/000929_2014-06-09_16-33-19_260595134347_rgbf000139-resize_0-target.png,1000,2.8680000000000003,5,3953,999,feet,jsons/v1_VE1000_randls_62.json,862707,1020460,30,Woman
149,133074,DepthScenes,duration_manipulation_targetAtFixation,jsons/v1_VE1000_randls_62.json,http://54.235.29.9/FacialAge/BNav_EC2/DepthDuration/v2_depth_duration_MTurk/v2_DepthDuration_HTML.html#141,141,1364,768,1364,768,8-22-2022,8-0-32,150,depth_duration_stimuli/000457_2014-06-08_16-52-43_260595134347_rgbf000199-resize_1/000457_2014-06-08_16-52-43_260595134347_rgbf000199-resize_1-target.png,1000,3.6489999999999996,6,3868,1008,feet,jsons/v1_VE1000_randls_62.json,862707,1020460,30,Woman
150,133074,DepthScenes,duration_manipulation_targetAtFixation,jsons/v1_VE1000_randls_62.json,http://54.235.29.9/FacialAge/BNav_EC2/DepthDuration/v2_depth_duration_MTurk/v2_DepthDuration_HTML.html#141,141,1364,768,1364,768,8-22-2022,8-0-32,151,depth_duration_stimuli/001158_2014-06-17_15-32-16_260595134347_rgbf000138-resize_2/001158_2014-06-17_15-32-16_260595134347_rgbf000138-resize_2-target.png,1000,4.5315,5,3616,1001,feet,jsons/v1_VE1000_randls_62.json,862707,1020460,30,Woman
151,133074,DepthScenes,duration_manipulation_targetAtFixation,jsons/v1_VE1000_randls_62.json,http://54.235.29.9/FacialAge/BNav_EC2/DepthDuration/v2_depth_duration_MTurk/v2_DepthDuration_HTML.html#141,141,1364,768,1364,768,8-22-2022,8-0-32,152,depth_duration_stimuli/000556_2014-06-09_22-42-56_260595134347_rgbf000214-resize_1/000556_2014-06-09_22-42-56_260595134347_rgbf000214-resize_1-target.png,1000,4.8415,4,3662,1000,feet,jsons/v1_VE1000_randls_62.json,862707,1020460,30,Woman
152,133074,DepthScenes,duration_manipulation_targetAtFixation,jsons/v1_VE1000_randls_62.json,http://54.235.29.9/FacialAge/BNav_EC2/DepthDuration/v2_depth_duration_MTurk/v2_DepthDuration_HTML.html#141,141,1364,768,1364,768,8-22-2022,8-0-32,153,depth_duration_stimuli/000486_2014-06-09_20-47-20_260595134347_rgbf000143-resize_2/000486_2014-06-09_20-47-20_260595134347_rgbf000143-resize_2-target.png,1000,4.8325,6,4212,979,feet,jsons/v1_VE1000_randls_62.json,862707,1020460,30,Woman
153,133074,DepthScenes,duration_manipulation_targetAtFixation,jsons/v1_VE1000_randls_62.json,http://54.235.29.9/FacialAge/BNav_EC2/DepthDuration/v2_depth_duration_MTurk/v2_DepthDuration_HTML.html#141,141,1364,768,1364,768,8-22-2022,8-0-32,154,depth_duration_stimuli/003083_2014-06-15_15-21-03_094959634447_rgbf000063-resize_1/003083_2014-06-15_15-21-03_094959634447_rgbf000063-resize_1-target.png,1000,4.1405,4,3853,1006,feet,jsons/v1_VE1000_randls_62.json,862707,1020460,30,Woman
154,133074,DepthScenes,duration_manipulation_targetAtFixation,jsons/v1_VE1000_randls_62.json,http://54.235.29.9/FacialAge/BNav_EC2/DepthDuration/v2_depth_duration_MTurk/v2_DepthDuration_HTML.html#141,141,1364,768,1364,768,8-22-2022,8-0-32,155,depth_duration_stimuli/001449_2014-06-19_17-01-27_260595134347_rgbf000116-resize_2/001449_2014-06-19_17-01-27_260595134347_rgbf000116-resize_2-target.png,1000,3.452,3,4717,1000,feet,jsons/v1_VE1000_randls_62.json,862707,1020460,30,Woman
155,133074,DepthScenes,duration_manipulation_targetAtFixation,jsons/v1_VE1000_randls_62.json,http://54.235.29.9/FacialAge/BNav_EC2/DepthDuration/v2_depth_duration_MTurk/v2_DepthDuration_HTML.html#141,141,1364,768,1364,768,8-22-2022,8-0-32,156,depth_duration_stimuli/001450_2014-06-19_17-02-03_260595134347_rgbf000203-resize_4/001450_2014-06-19_17-02-03_260595134347_rgbf000203-resize_4-target.png,1000,4.0106666666667,5,3773,985,feet,jsons/v1_VE1000_randls_62.json,862707,1020460,30,Woman
156,133074,DepthScenes,duration_manipulation_targetAtFixation,jsons/v1_VE1000_randls_62.json,http://54.235.29.9/FacialAge/BNav_EC2/DepthDuration/v2_depth_duration_MTurk/v2_DepthDuration_HTML.html#141,141,1364,768,1364,768,8-22-2022,8-0-32,157,depth_duration_stimuli/001175_2014-06-17_15-45-55_260595134347_rgbf000129-resize_4/001175_2014-06-17_15-45-55_260595134347_rgbf000129-resize_4-target.png,1000,4.255,6,4209,997,feet,jsons/v1_VE1000_randls_62.json,862707,1020460,30,Woman
157,133074,DepthScenes,duration_manipulation_targetAtFixation,jsons/v1_VE1000_randls_62.json,http://54.235.29.9/FacialAge/BNav_EC2/DepthDuration/v2_depth_duration_MTurk/v2_DepthDuration_HTML.html#141,141,1364,768,1364,768,8-22-2022,8-0-32,158,depth_duration_stimuli/003490_2014-05-21_15-50-11_094959634447_rgbf000101-resize_3/003490_2014-05-21_15-50-11_094959634447_rgbf000101-resize_3-target.png,1000,3.6445,4,3459,1014,feet,jsons/v1_VE1000_randls_62.json,862707,1020460,30,Woman
158,133074,DepthScenes,duration_manipulation_targetAtFixation,jsons/v1_VE1000_randls_62.json,http://54.235.29.9/FacialAge/BNav_EC2/DepthDuration/v2_depth_duration_MTurk/v2_DepthDuration_HTML.html#141,141,1364,768,1364,768,8-22-2022,8-0-32,159,depth_duration_stimuli/002118_2014-06-25_20-32-08_260595134347_rgbf000078-resize_1/002118_2014-06-25_20-32-08_260595134347_rgbf000078-resize_1-target.png,1000,2.6460000000000004,5,4275,1009,feet,jsons/v1_VE1000_randls_62.json,862707,1020460,30,Woman
159,133074,DepthScenes,duration_manipulation_targetAtFixation,jsons/v1_VE1000_randls_62.json,http://54.235.29.9/FacialAge/BNav_EC2/DepthDuration/v2_depth_duration_MTurk/v2_DepthDuration_HTML.html#141,141,1364,768,1364,768,8-22-2022,8-0-32,160,depth_duration_stimuli/001516_2014-06-20_16-25-09_260595134347_rgbf000076-resize_2/001516_2014-06-20_16-25-09_260595134347_rgbf000076-resize_2-target.png,1000,1.7445,3,3796,995,feet,jsons/v1_VE1000_randls_62.json,862707,1020460,30,Woman
160,133074,DepthScenes,duration_manipulation_targetAtFixation,jsons/v1_VE1000_randls_62.json,http://54.235.29.9/FacialAge/BNav_EC2/DepthDuration/v2_depth_duration_MTurk/v2_DepthDuration_HTML.html#141,141,1364,768,1364,768,8-22-2022,8-0-32,161,depth_duration_stimuli/000878_2014-06-08_22-52-45_260595134347_rgbf000045-resize_2/000878_2014-06-08_22-52-45_260595134347_rgbf000045-resize_2-target.png,1000,2.092,6,3561,1012,feet,jsons/v1_VE1000_randls_62.json,862707,1020460,30,Woman
161,133074,DepthScenes,duration_manipulation_targetAtFixation,jsons/v1_VE1000_randls_62.json,http://54.235.29.9/FacialAge/BNav_EC2/DepthDuration/v2_depth_duration_MTurk/v2_DepthDuration_HTML.html#141,141,1364,768,1364,768,8-22-2022,8-0-32,162,depth_duration_stimuli/002953_2014-06-08_17-32-18_094959634447_rgbf000059-resize_5/002953_2014-06-08_17-32-18_094959634447_rgbf000059-resize_5-target.png,1000,1.551,5,3571,997,feet,jsons/v1_VE1000_randls_62.json,862707,1020460,30,Woman
162,133074,DepthScenes,duration_manipulation_targetAtFixation,jsons/v1_VE1000_randls_62.json,http://54.235.29.9/FacialAge/BNav_EC2/DepthDuration/v2_depth_duration_MTurk/v2_DepthDuration_HTML.html#141,141,1364,768,1364,768,8-22-2022,8-0-32,163,depth_duration_stimuli/000810_2014-06-08_17-20-01_260595134347_rgbf000105-resize_0/000810_2014-06-08_17-20-01_260595134347_rgbf000105-resize_0-target.png,1000,1.4865,4,4395,998,feet,jsons/v1_VE1000_randls_62.json,862707,1020460,30,Woman
163,133074,DepthScenes,duration_manipulation_targetAtFixation,jsons/v1_VE1000_randls_62.json,http://54.235.29.9/FacialAge/BNav_EC2/DepthDuration/v2_depth_duration_MTurk/v2_DepthDuration_HTML.html#141,141,1364,768,1364,768,8-22-2022,8-0-32,164,depth_duration_stimuli/001214_2014-06-17_16-13-55_260595134347_rgbf000111-resize_0/001214_2014-06-17_16-13-55_260595134347_rgbf000111-resize_0-target.png,1000,2.6505,5,3718,1008,feet,jsons/v1_VE1000_randls_62.json,862707,1020460,30,Woman
