,subjID,experimentName,versionName,sequenceName,url,selected_row,windowWidth,windowHeight,screenWidth,screenHeight,startDate,startTime,trial,stimulus,duration,actual_depth,depth_estimate,trial_RT,log_sceneDuration,unitSelection,seq_filepath,experimentTime,totalTime,age,gender
0,133305,DepthScenes,duration_manipulation_targetAtFixation,jsons/v1_VE1000_randls_44_rotated.json,http://54.235.29.9/FacialAge/BNav_EC2/DepthDuration/v2_depth_duration_MTurk/v2_DepthDuration_HTML.html#362,362,1536,714,1536,864,9-3-2022,8-11-45,1,depth_duration_stimuli/001392_2014-06-19_16-07-59_260595134347_rgbf000046-resize_1/001392_2014-06-19_16-07-59_260595134347_rgbf000046-resize_1-target.png,1000,4.135,10.5,5092,1000,feet,jsons/v1_VE1000_randls_44_rotated.json,779870,1073214,29,Woman
1,133305,DepthScenes,duration_manipulation_targetAtFixation,jsons/v1_VE1000_randls_44_rotated.json,http://54.235.29.9/FacialAge/BNav_EC2/DepthDuration/v2_depth_duration_MTurk/v2_DepthDuration_HTML.html#362,362,1536,714,1536,864,9-3-2022,8-11-45,2,depth_duration_stimuli/001570_2014-06-20_17-21-09_260595134347_rgbf000135-resize_4/001570_2014-06-20_17-21-09_260595134347_rgbf000135-resize_4-target.png,1000,4.467,12.0,6329,997,feet,jsons/v1_VE1000_randls_44_rotated.json,779870,1073214,29,Woman
2,133305,DepthScenes,duration_manipulation_targetAtFixation,jsons/v1_VE1000_randls_44_rotated.json,http://54.235.29.9/FacialAge/BNav_EC2/DepthDuration/v2_depth_duration_MTurk/v2_DepthDuration_HTML.html#362,362,1536,714,1536,864,9-3-2022,8-11-45,3,depth_duration_stimuli/002660_2014-06-13_15-44-18_094959634447_rgbf001878-resize_2/002660_2014-06-13_15-44-18_094959634447_rgbf001878-resize_2-target.png,1000,3.576,7.5,4867,997,feet,jsons/v1_VE1000_randls_44_rotated.json,779870,1073214,29,Woman
3,133305,DepthScenes,duration_manipulation_targetAtFixation,jsons/v1_VE1000_randls_44_rotated.json,http://54.235.29.9/FacialAge/BNav_EC2/DepthDuration/v2_depth_duration_MTurk/v2_DepthDuration_HTML.html#362,362,1536,714,1536,864,9-3-2022,8-11-45,4,depth_duration_stimuli/002153_2014-06-25_21-27-18_260595134347_rgbf000038-resize_5/002153_2014-06-25_21-27-18_260595134347_rgbf000038-resize_5-target.png,1000,2.505,4.0,3540,993,feet,jsons/v1_VE1000_randls_44_rotated.json,779870,1073214,29,Woman
4,133305,DepthScenes,duration_manipulation_targetAtFixation,jsons/v1_VE1000_randls_44_rotated.json,http://54.235.29.9/FacialAge/BNav_EC2/DepthDuration/v2_depth_duration_MTurk/v2_DepthDuration_HTML.html#362,362,1536,714,1536,864,9-3-2022,8-11-45,5,depth_duration_stimuli/002678_2014-06-13_16-15-32_094959634447_rgbf000151-resize_6/002678_2014-06-13_16-15-32_094959634447_rgbf000151-resize_6-target.png,1000,2.1830000000000003,4.5,5142,981,feet,jsons/v1_VE1000_randls_44_rotated.json,779870,1073214,29,Woman
5,133305,DepthScenes,duration_manipulation_targetAtFixation,jsons/v1_VE1000_randls_44_rotated.json,http://54.235.29.9/FacialAge/BNav_EC2/DepthDuration/v2_depth_duration_MTurk/v2_DepthDuration_HTML.html#362,362,1536,714,1536,864,9-3-2022,8-11-45,6,depth_duration_stimuli/000368_2014-06-09_15-53-01_260595134347_rgbf000155-resize_2/000368_2014-06-09_15-53-01_260595134347_rgbf000155-resize_2-target.png,1000,2.4859999999999998,3.5,3973,1000,feet,jsons/v1_VE1000_randls_44_rotated.json,779870,1073214,29,Woman
6,133305,DepthScenes,duration_manipulation_targetAtFixation,jsons/v1_VE1000_randls_44_rotated.json,http://54.235.29.9/FacialAge/BNav_EC2/DepthDuration/v2_depth_duration_MTurk/v2_DepthDuration_HTML.html#362,362,1536,714,1536,864,9-3-2022,8-11-45,7,depth_duration_stimuli/003079_2014-06-15_15-18-20_094959634447_rgbf000152-resize_8/003079_2014-06-15_15-18-20_094959634447_rgbf000152-resize_8-target.png,1000,2.8775,8.5,4055,1006,feet,jsons/v1_VE1000_randls_44_rotated.json,779870,1073214,29,Woman
7,133305,DepthScenes,duration_manipulation_targetAtFixation,jsons/v1_VE1000_randls_44_rotated.json,http://54.235.29.9/FacialAge/BNav_EC2/DepthDuration/v2_depth_duration_MTurk/v2_DepthDuration_HTML.html#362,362,1536,714,1536,864,9-3-2022,8-11-45,8,depth_duration_stimuli/000506_2014-06-08_23-21-00_260595134347_rgbf000070-resize_7/000506_2014-06-08_23-21-00_260595134347_rgbf000070-resize_7-target.png,1000,4.0585,9.0,8496,1002,feet,jsons/v1_VE1000_randls_44_rotated.json,779870,1073214,29,Woman
8,133305,DepthScenes,duration_manipulation_targetAtFixation,jsons/v1_VE1000_randls_44_rotated.json,http://54.235.29.9/FacialAge/BNav_EC2/DepthDuration/v2_depth_duration_MTurk/v2_DepthDuration_HTML.html#362,362,1536,714,1536,864,9-3-2022,8-11-45,9,depth_duration_stimuli/003083_2014-06-15_15-21-03_094959634447_rgbf000063-resize_1/003083_2014-06-15_15-21-03_094959634447_rgbf000063-resize_1-target.png,1000,4.1405,11.0,3717,1002,feet,jsons/v1_VE1000_randls_44_rotated.json,779870,1073214,29,Woman
9,133305,DepthScenes,duration_manipulation_targetAtFixation,jsons/v1_VE1000_randls_44_rotated.json,http://54.235.29.9/FacialAge/BNav_EC2/DepthDuration/v2_depth_duration_MTurk/v2_DepthDuration_HTML.html#362,362,1536,714,1536,864,9-3-2022,8-11-45,10,depth_duration_stimuli/000486_2014-06-09_20-47-20_260595134347_rgbf000143-resize_2/000486_2014-06-09_20-47-20_260595134347_rgbf000143-resize_2-target.png,1000,4.8325,7.5,5627,1004,feet,jsons/v1_VE1000_randls_44_rotated.json,779870,1073214,29,Woman
10,133305,DepthScenes,duration_manipulation_targetAtFixation,jsons/v1_VE1000_randls_44_rotated.json,http://54.235.29.9/FacialAge/BNav_EC2/DepthDuration/v2_depth_duration_MTurk/v2_DepthDuration_HTML.html#362,362,1536,714,1536,864,9-3-2022,8-11-45,11,depth_duration_stimuli/003228_2014-05-14_13-42-35_094959634447_rgbf000101-resize_1/003228_2014-05-14_13-42-35_094959634447_rgbf000101-resize_1-target.png,1000,1.9680000000000002,3.2,4820,1006,feet,jsons/v1_VE1000_randls_44_rotated.json,779870,1073214,29,Woman
11,133305,DepthScenes,duration_manipulation_targetAtFixation,jsons/v1_VE1000_randls_44_rotated.json,http://54.235.29.9/FacialAge/BNav_EC2/DepthDuration/v2_depth_duration_MTurk/v2_DepthDuration_HTML.html#362,362,1536,714,1536,864,9-3-2022,8-11-45,12,depth_duration_stimuli/002600_2014-06-24_14-27-04_094959634447_rgbf000074-resize_2/002600_2014-06-24_14-27-04_094959634447_rgbf000074-resize_2-target.png,1000,2.7575,5.0,3649,1005,feet,jsons/v1_VE1000_randls_44_rotated.json,779870,1073214,29,Woman
12,133305,DepthScenes,duration_manipulation_targetAtFixation,jsons/v1_VE1000_randls_44_rotated.json,http://54.235.29.9/FacialAge/BNav_EC2/DepthDuration/v2_depth_duration_MTurk/v2_DepthDuration_HTML.html#362,362,1536,714,1536,864,9-3-2022,8-11-45,13,depth_duration_stimuli/000103_2014-05-14_22-01-17_260595134347_rgbf000152-resize_5/000103_2014-05-14_22-01-17_260595134347_rgbf000152-resize_5-target.png,1000,1.993,5.2,4549,1001,feet,jsons/v1_VE1000_randls_44_rotated.json,779870,1073214,29,Woman
13,133305,DepthScenes,duration_manipulation_targetAtFixation,jsons/v1_VE1000_randls_44_rotated.json,http://54.235.29.9/FacialAge/BNav_EC2/DepthDuration/v2_depth_duration_MTurk/v2_DepthDuration_HTML.html#362,362,1536,714,1536,864,9-3-2022,8-11-45,14,depth_duration_stimuli/001555_2014-06-20_17-12-10_260595134347_rgbf000065-resize_4/001555_2014-06-20_17-12-10_260595134347_rgbf000065-resize_4-target.png,1000,1.633,3.0,4661,995,feet,jsons/v1_VE1000_randls_44_rotated.json,779870,1073214,29,Woman
14,133305,DepthScenes,duration_manipulation_targetAtFixation,jsons/v1_VE1000_randls_44_rotated.json,http://54.235.29.9/FacialAge/BNav_EC2/DepthDuration/v2_depth_duration_MTurk/v2_DepthDuration_HTML.html#362,362,1536,714,1536,864,9-3-2022,8-11-45,15,depth_duration_stimuli/002639_2014-06-24_14-51-37_094959634447_rgbf000074-resize_4/002639_2014-06-24_14-51-37_094959634447_rgbf000074-resize_4-target.png,1000,4.0375,10.5,5242,1001,feet,jsons/v1_VE1000_randls_44_rotated.json,779870,1073214,29,Woman
15,133305,DepthScenes,duration_manipulation_targetAtFixation,jsons/v1_VE1000_randls_44_rotated.json,http://54.235.29.9/FacialAge/BNav_EC2/DepthDuration/v2_depth_duration_MTurk/v2_DepthDuration_HTML.html#362,362,1536,714,1536,864,9-3-2022,8-11-45,16,depth_duration_stimuli/003292_2014-05-14_21-53-49_094959634447_rgbf000100-resize_2/003292_2014-05-14_21-53-49_094959634447_rgbf000100-resize_2-target.png,1000,3.4815,6.5,5094,1007,feet,jsons/v1_VE1000_randls_44_rotated.json,779870,1073214,29,Woman
16,133305,DepthScenes,duration_manipulation_targetAtFixation,jsons/v1_VE1000_randls_44_rotated.json,http://54.235.29.9/FacialAge/BNav_EC2/DepthDuration/v2_depth_duration_MTurk/v2_DepthDuration_HTML.html#362,362,1536,714,1536,864,9-3-2022,8-11-45,17,depth_duration_stimuli/002995_2014-06-15_12-31-26_094959634447_rgbf000150-resize_1/002995_2014-06-15_12-31-26_094959634447_rgbf000150-resize_1-target.png,1000,3.8360000000000003,10.0,4185,1008,feet,jsons/v1_VE1000_randls_44_rotated.json,779870,1073214,29,Woman
17,133305,DepthScenes,duration_manipulation_targetAtFixation,jsons/v1_VE1000_randls_44_rotated.json,http://54.235.29.9/FacialAge/BNav_EC2/DepthDuration/v2_depth_duration_MTurk/v2_DepthDuration_HTML.html#362,362,1536,714,1536,864,9-3-2022,8-11-45,18,depth_duration_stimuli/002748_2014-06-22_19-07-22_094959634447_rgbf000078-resize_1/002748_2014-06-22_19-07-22_094959634447_rgbf000078-resize_1-target.png,1000,4.6705,14.0,3539,1003,feet,jsons/v1_VE1000_randls_44_rotated.json,779870,1073214,29,Woman
18,133305,DepthScenes,duration_manipulation_targetAtFixation,jsons/v1_VE1000_randls_44_rotated.json,http://54.235.29.9/FacialAge/BNav_EC2/DepthDuration/v2_depth_duration_MTurk/v2_DepthDuration_HTML.html#362,362,1536,714,1536,864,9-3-2022,8-11-45,19,depth_duration_stimuli/001498_2014-06-19_17-45-14_260595134347_rgbf000129-resize_4/001498_2014-06-19_17-45-14_260595134347_rgbf000129-resize-original.jpg,1000,1.4075,0.0,3387,1002,feet,jsons/v1_VE1000_randls_44_rotated.json,779870,1073214,29,Woman
19,133305,DepthScenes,duration_manipulation_targetAtFixation,jsons/v1_VE1000_randls_44_rotated.json,http://54.235.29.9/FacialAge/BNav_EC2/DepthDuration/v2_depth_duration_MTurk/v2_DepthDuration_HTML.html#362,362,1536,714,1536,864,9-3-2022,8-11-45,20,depth_duration_stimuli/002568_2014-06-24_13-59-21_094959634447_rgbf000062-resize_4/002568_2014-06-24_13-59-21_094959634447_rgbf000062-resize_4-target.png,1000,3.015,5.5,7830,1000,feet,jsons/v1_VE1000_randls_44_rotated.json,779870,1073214,29,Woman
20,133305,DepthScenes,duration_manipulation_targetAtFixation,jsons/v1_VE1000_randls_44_rotated.json,http://54.235.29.9/FacialAge/BNav_EC2/DepthDuration/v2_depth_duration_MTurk/v2_DepthDuration_HTML.html#362,362,1536,714,1536,864,9-3-2022,8-11-45,21,depth_duration_stimuli/003492_2014-05-21_15-50-55_094959634447_rgbf000828-resize_1/003492_2014-05-21_15-50-55_094959634447_rgbf000828-resize_1-target.png,1000,4.06875,9.0,4799,995,feet,jsons/v1_VE1000_randls_44_rotated.json,779870,1073214,29,Woman
21,133305,DepthScenes,duration_manipulation_targetAtFixation,jsons/v1_VE1000_randls_44_rotated.json,http://54.235.29.9/FacialAge/BNav_EC2/DepthDuration/v2_depth_duration_MTurk/v2_DepthDuration_HTML.html#362,362,1536,714,1536,864,9-3-2022,8-11-45,22,depth_duration_stimuli/000854_2014-06-09_19-43-13_260595134347_rgbf000066-resize_0/000854_2014-06-09_19-43-13_260595134347_rgbf000066-resize_0-target.png,1000,3.068,3.5,5714,1007,feet,jsons/v1_VE1000_randls_44_rotated.json,779870,1073214,29,Woman
22,133305,DepthScenes,duration_manipulation_targetAtFixation,jsons/v1_VE1000_randls_44_rotated.json,http://54.235.29.9/FacialAge/BNav_EC2/DepthDuration/v2_depth_duration_MTurk/v2_DepthDuration_HTML.html#362,362,1536,714,1536,864,9-3-2022,8-11-45,23,depth_duration_stimuli/000758_2014-06-08_22-05-08_260595134347_rgbf000085-resize_0/000758_2014-06-08_22-05-08_260595134347_rgbf000085-resize_0-target.png,1000,3.3810000000000002,10.5,4351,1006,feet,jsons/v1_VE1000_randls_44_rotated.json,779870,1073214,29,Woman
23,133305,DepthScenes,duration_manipulation_targetAtFixation,jsons/v1_VE1000_randls_44_rotated.json,http://54.235.29.9/FacialAge/BNav_EC2/DepthDuration/v2_depth_duration_MTurk/v2_DepthDuration_HTML.html#362,362,1536,714,1536,864,9-3-2022,8-11-45,24,depth_duration_stimuli/001235_2014-06-17_16-37-36_260595134347_rgbf000084-resize_4/001235_2014-06-17_16-37-36_260595134347_rgbf000084-resize_4-target.png,1000,3.6605,8.0,3713,1006,feet,jsons/v1_VE1000_randls_44_rotated.json,779870,1073214,29,Woman
24,133305,DepthScenes,duration_manipulation_targetAtFixation,jsons/v1_VE1000_randls_44_rotated.json,http://54.235.29.9/FacialAge/BNav_EC2/DepthDuration/v2_depth_duration_MTurk/v2_DepthDuration_HTML.html#362,362,1536,714,1536,864,9-3-2022,8-11-45,25,depth_duration_stimuli/000788_2014-06-08_22-34-36_260595134347_rgbf000131-resize_1/000788_2014-06-08_22-34-36_260595134347_rgbf000131-resize_1-target.png,1000,3.359,6.5,4163,1014,feet,jsons/v1_VE1000_randls_44_rotated.json,779870,1073214,29,Woman
25,133305,DepthScenes,duration_manipulation_targetAtFixation,jsons/v1_VE1000_randls_44_rotated.json,http://54.235.29.9/FacialAge/BNav_EC2/DepthDuration/v2_depth_duration_MTurk/v2_DepthDuration_HTML.html#362,362,1536,714,1536,864,9-3-2022,8-11-45,26,depth_duration_stimuli/000709_2014-06-08_13-51-55_260595134347_rgbf000068-resize_3/000709_2014-06-08_13-51-55_260595134347_rgbf000068-resize_3-target.png,1000,1.8030000000000002,4.0,4740,1005,feet,jsons/v1_VE1000_randls_44_rotated.json,779870,1073214,29,Woman
26,133305,DepthScenes,duration_manipulation_targetAtFixation,jsons/v1_VE1000_randls_44_rotated.json,http://54.235.29.9/FacialAge/BNav_EC2/DepthDuration/v2_depth_duration_MTurk/v2_DepthDuration_HTML.html#362,362,1536,714,1536,864,9-3-2022,8-11-45,27,depth_duration_stimuli/002057_2014-06-24_21-00-13_260595134347_rgbf000120-resize_1/002057_2014-06-24_21-00-13_260595134347_rgbf000120-resize_1-target.png,1000,2.967,0.0,8133,1000,feet,jsons/v1_VE1000_randls_44_rotated.json,779870,1073214,29,Woman
27,133305,DepthScenes,duration_manipulation_targetAtFixation,jsons/v1_VE1000_randls_44_rotated.json,http://54.235.29.9/FacialAge/BNav_EC2/DepthDuration/v2_depth_duration_MTurk/v2_DepthDuration_HTML.html#362,362,1536,714,1536,864,9-3-2022,8-11-45,28,depth_duration_stimuli/000191_2014-05-12_17-07-38_260595134347_rgbf000199-resize_0/000191_2014-05-12_17-07-38_260595134347_rgbf000199-resize_0-target.png,1000,3.7995,8.0,3383,991,feet,jsons/v1_VE1000_randls_44_rotated.json,779870,1073214,29,Woman
28,133305,DepthScenes,duration_manipulation_targetAtFixation,jsons/v1_VE1000_randls_44_rotated.json,http://54.235.29.9/FacialAge/BNav_EC2/DepthDuration/v2_depth_duration_MTurk/v2_DepthDuration_HTML.html#362,362,1536,714,1536,864,9-3-2022,8-11-45,29,depth_duration_stimuli/000493_2014-06-09_21-01-18_260595134347_rgbf000196-resize_3/000493_2014-06-09_21-01-18_260595134347_rgbf000196-resize_3-target.png,1000,3.44,6.0,4070,989,feet,jsons/v1_VE1000_randls_44_rotated.json,779870,1073214,29,Woman
29,133305,DepthScenes,duration_manipulation_targetAtFixation,jsons/v1_VE1000_randls_44_rotated.json,http://54.235.29.9/FacialAge/BNav_EC2/DepthDuration/v2_depth_duration_MTurk/v2_DepthDuration_HTML.html#362,362,1536,714,1536,864,9-3-2022,8-11-45,30,depth_duration_stimuli/002072_2014-06-24_21-48-06_260595134347_rgbf000115-resize_0/002072_2014-06-24_21-48-06_260595134347_rgbf000115-resize-original.jpg,1000,4.702,0.0,2928,1005,feet,jsons/v1_VE1000_randls_44_rotated.json,779870,1073214,29,Woman
30,133305,DepthScenes,duration_manipulation_targetAtFixation,jsons/v1_VE1000_randls_44_rotated.json,http://54.235.29.9/FacialAge/BNav_EC2/DepthDuration/v2_depth_duration_MTurk/v2_DepthDuration_HTML.html#362,362,1536,714,1536,864,9-3-2022,8-11-45,31,depth_duration_stimuli/001450_2014-06-19_17-02-03_260595134347_rgbf000203-resize_4/001450_2014-06-19_17-02-03_260595134347_rgbf000203-resize_4-target.png,1000,4.0106666666667,12.0,3741,1005,feet,jsons/v1_VE1000_randls_44_rotated.json,779870,1073214,29,Woman
31,133305,DepthScenes,duration_manipulation_targetAtFixation,jsons/v1_VE1000_randls_44_rotated.json,http://54.235.29.9/FacialAge/BNav_EC2/DepthDuration/v2_depth_duration_MTurk/v2_DepthDuration_HTML.html#362,362,1536,714,1536,864,9-3-2022,8-11-45,32,depth_duration_stimuli/001449_2014-06-19_17-01-27_260595134347_rgbf000116-resize_2/001449_2014-06-19_17-01-27_260595134347_rgbf000116-resize_2-target.png,1000,3.452,6.0,3206,1005,feet,jsons/v1_VE1000_randls_44_rotated.json,779870,1073214,29,Woman
32,133305,DepthScenes,duration_manipulation_targetAtFixation,jsons/v1_VE1000_randls_44_rotated.json,http://54.235.29.9/FacialAge/BNav_EC2/DepthDuration/v2_depth_duration_MTurk/v2_DepthDuration_HTML.html#362,362,1536,714,1536,864,9-3-2022,8-11-45,33,depth_duration_stimuli/000549_2014-06-08_22-10-24_260595134347_rgbf000247-resize_3/000549_2014-06-08_22-10-24_260595134347_rgbf000247-resize_3-target.png,1000,1.841,2.5,3651,996,feet,jsons/v1_VE1000_randls_44_rotated.json,779870,1073214,29,Woman
33,133305,DepthScenes,duration_manipulation_targetAtFixation,jsons/v1_VE1000_randls_44_rotated.json,http://54.235.29.9/FacialAge/BNav_EC2/DepthDuration/v2_depth_duration_MTurk/v2_DepthDuration_HTML.html#362,362,1536,714,1536,864,9-3-2022,8-11-45,34,depth_duration_stimuli/001055_2014-06-08_18-45-35_260595134347_rgbf000111-resize_4/001055_2014-06-08_18-45-35_260595134347_rgbf000111-resize_4-target.png,1000,2.4290000000000003,5.5,5283,1012,feet,jsons/v1_VE1000_randls_44_rotated.json,779870,1073214,29,Woman
34,133305,DepthScenes,duration_manipulation_targetAtFixation,jsons/v1_VE1000_randls_44_rotated.json,http://54.235.29.9/FacialAge/BNav_EC2/DepthDuration/v2_depth_duration_MTurk/v2_DepthDuration_HTML.html#362,362,1536,714,1536,864,9-3-2022,8-11-45,35,depth_duration_stimuli/002875_2014-06-01_15-19-00_094959634447_rgbf000151-resize_1/002875_2014-06-01_15-19-00_094959634447_rgbf000151-resize_1-target.png,1000,1.9675,4.0,4714,1004,feet,jsons/v1_VE1000_randls_44_rotated.json,779870,1073214,29,Woman
35,133305,DepthScenes,duration_manipulation_targetAtFixation,jsons/v1_VE1000_randls_44_rotated.json,http://54.235.29.9/FacialAge/BNav_EC2/DepthDuration/v2_depth_duration_MTurk/v2_DepthDuration_HTML.html#362,362,1536,714,1536,864,9-3-2022,8-11-45,36,depth_duration_stimuli/001011_2014-06-08_23-18-54_260595134347_rgbf000044-resize_4/001011_2014-06-08_23-18-54_260595134347_rgbf000044-resize_4-target.png,1000,2.4730000000000003,5.0,3573,991,feet,jsons/v1_VE1000_randls_44_rotated.json,779870,1073214,29,Woman
36,133305,DepthScenes,duration_manipulation_targetAtFixation,jsons/v1_VE1000_randls_44_rotated.json,http://54.235.29.9/FacialAge/BNav_EC2/DepthDuration/v2_depth_duration_MTurk/v2_DepthDuration_HTML.html#362,362,1536,714,1536,864,9-3-2022,8-11-45,37,depth_duration_stimuli/002136_2014-06-25_21-18-03_260595134347_rgbf000109-resize_3/002136_2014-06-25_21-18-03_260595134347_rgbf000109-resize_3-target.png,1000,1.9569999999999999,4.75,5319,996,feet,jsons/v1_VE1000_randls_44_rotated.json,779870,1073214,29,Woman
37,133305,DepthScenes,duration_manipulation_targetAtFixation,jsons/v1_VE1000_randls_44_rotated.json,http://54.235.29.9/FacialAge/BNav_EC2/DepthDuration/v2_depth_duration_MTurk/v2_DepthDuration_HTML.html#362,362,1536,714,1536,864,9-3-2022,8-11-45,38,depth_duration_stimuli/002964_2014-06-08_17-46-11_094959634447_rgbf000091-resize_4/002964_2014-06-08_17-46-11_094959634447_rgbf000091-resize_4-target.png,1000,1.6909999999999998,3.0,4229,1010,feet,jsons/v1_VE1000_randls_44_rotated.json,779870,1073214,29,Woman
38,133305,DepthScenes,duration_manipulation_targetAtFixation,jsons/v1_VE1000_randls_44_rotated.json,http://54.235.29.9/FacialAge/BNav_EC2/DepthDuration/v2_depth_duration_MTurk/v2_DepthDuration_HTML.html#362,362,1536,714,1536,864,9-3-2022,8-11-45,39,depth_duration_stimuli/001032_2014-06-08_13-23-17_260595134347_rgbf000021-resize_3/001032_2014-06-08_13-23-17_260595134347_rgbf000021-resize_3-target.png,1000,3.2725,8.0,3345,998,feet,jsons/v1_VE1000_randls_44_rotated.json,779870,1073214,29,Woman
39,133305,DepthScenes,duration_manipulation_targetAtFixation,jsons/v1_VE1000_randls_44_rotated.json,http://54.235.29.9/FacialAge/BNav_EC2/DepthDuration/v2_depth_duration_MTurk/v2_DepthDuration_HTML.html#362,362,1536,714,1536,864,9-3-2022,8-11-45,40,depth_duration_stimuli/001059_2014-06-08_21-53-27_260595134347_rgbf000061-resize_4/001059_2014-06-08_21-53-27_260595134347_rgbf000061-resize_4-target.png,1000,2.4185,6.0,3320,994,feet,jsons/v1_VE1000_randls_44_rotated.json,779870,1073214,29,Woman
40,133305,DepthScenes,duration_manipulation_targetAtFixation,jsons/v1_VE1000_randls_44_rotated.json,http://54.235.29.9/FacialAge/BNav_EC2/DepthDuration/v2_depth_duration_MTurk/v2_DepthDuration_HTML.html#362,362,1536,714,1536,864,9-3-2022,8-11-45,41,depth_duration_stimuli/000677_2014-06-08_23-10-32_260595134347_rgbf000158-resize_6/000677_2014-06-08_23-10-32_260595134347_rgbf000158-resize_6-target.png,1000,3.556,7.0,3438,1003,feet,jsons/v1_VE1000_randls_44_rotated.json,779870,1073214,29,Woman
41,133305,DepthScenes,duration_manipulation_targetAtFixation,jsons/v1_VE1000_randls_44_rotated.json,http://54.235.29.9/FacialAge/BNav_EC2/DepthDuration/v2_depth_duration_MTurk/v2_DepthDuration_HTML.html#362,362,1536,714,1536,864,9-3-2022,8-11-45,42,depth_duration_stimuli/001029_2014-06-08_13-17-57_260595134347_rgbf000065-resize_1/001029_2014-06-08_13-17-57_260595134347_rgbf000065-resize_1-target.png,1000,3.0835,6.5,3938,1007,feet,jsons/v1_VE1000_randls_44_rotated.json,779870,1073214,29,Woman
42,133305,DepthScenes,duration_manipulation_targetAtFixation,jsons/v1_VE1000_randls_44_rotated.json,http://54.235.29.9/FacialAge/BNav_EC2/DepthDuration/v2_depth_duration_MTurk/v2_DepthDuration_HTML.html#362,362,1536,714,1536,864,9-3-2022,8-11-45,43,depth_duration_stimuli/002444_2014-06-28_20-32-08_260595134347_rgbf000027-resize_0/002444_2014-06-28_20-32-08_260595134347_rgbf000027-resize_0-target.png,1000,4.388999999999999,12.5,5018,1000,feet,jsons/v1_VE1000_randls_44_rotated.json,779870,1073214,29,Woman
43,133305,DepthScenes,duration_manipulation_targetAtFixation,jsons/v1_VE1000_randls_44_rotated.json,http://54.235.29.9/FacialAge/BNav_EC2/DepthDuration/v2_depth_duration_MTurk/v2_DepthDuration_HTML.html#362,362,1536,714,1536,864,9-3-2022,8-11-45,44,depth_duration_stimuli/000436_2014-06-09_22-25-11_260595134347_rgbf000137-resize_1/000436_2014-06-09_22-25-11_260595134347_rgbf000137-resize_1-target.png,1000,4.0705,12.0,5416,1007,feet,jsons/v1_VE1000_randls_44_rotated.json,779870,1073214,29,Woman
44,133305,DepthScenes,duration_manipulation_targetAtFixation,jsons/v1_VE1000_randls_44_rotated.json,http://54.235.29.9/FacialAge/BNav_EC2/DepthDuration/v2_depth_duration_MTurk/v2_DepthDuration_HTML.html#362,362,1536,714,1536,864,9-3-2022,8-11-45,45,depth_duration_stimuli/002209_2014-06-28_18-36-10_260595134347_rgbf000051-resize_1/002209_2014-06-28_18-36-10_260595134347_rgbf000051-resize_1-target.png,1000,2.057,3.5,3753,1009,feet,jsons/v1_VE1000_randls_44_rotated.json,779870,1073214,29,Woman
45,133305,DepthScenes,duration_manipulation_targetAtFixation,jsons/v1_VE1000_randls_44_rotated.json,http://54.235.29.9/FacialAge/BNav_EC2/DepthDuration/v2_depth_duration_MTurk/v2_DepthDuration_HTML.html#362,362,1536,714,1536,864,9-3-2022,8-11-45,46,depth_duration_stimuli/002763_2014-06-22_19-13-10_094959634447_rgbf000075-resize_4/002763_2014-06-22_19-13-10_094959634447_rgbf000075-resize_4-target.png,1000,1.68375,3.5,5088,1010,feet,jsons/v1_VE1000_randls_44_rotated.json,779870,1073214,29,Woman
46,133305,DepthScenes,duration_manipulation_targetAtFixation,jsons/v1_VE1000_randls_44_rotated.json,http://54.235.29.9/FacialAge/BNav_EC2/DepthDuration/v2_depth_duration_MTurk/v2_DepthDuration_HTML.html#362,362,1536,714,1536,864,9-3-2022,8-11-45,47,depth_duration_stimuli/003129_2014-05-12_10-48-10_094959634447_rgbf000100-resize_0/003129_2014-05-12_10-48-10_094959634447_rgbf000100-resize_0-target.png,1000,4.9305,11.0,3800,1016,feet,jsons/v1_VE1000_randls_44_rotated.json,779870,1073214,29,Woman
47,133305,DepthScenes,duration_manipulation_targetAtFixation,jsons/v1_VE1000_randls_44_rotated.json,http://54.235.29.9/FacialAge/BNav_EC2/DepthDuration/v2_depth_duration_MTurk/v2_DepthDuration_HTML.html#362,362,1536,714,1536,864,9-3-2022,8-11-45,48,depth_duration_stimuli/000414_2014-06-04_19-49-13_260595134347_rgbf000044-resize_0/000414_2014-06-04_19-49-13_260595134347_rgbf000044-resize_0-target.png,1000,4.329,12.0,3983,990,feet,jsons/v1_VE1000_randls_44_rotated.json,779870,1073214,29,Woman
48,133305,DepthScenes,duration_manipulation_targetAtFixation,jsons/v1_VE1000_randls_44_rotated.json,http://54.235.29.9/FacialAge/BNav_EC2/DepthDuration/v2_depth_duration_MTurk/v2_DepthDuration_HTML.html#362,362,1536,714,1536,864,9-3-2022,8-11-45,49,depth_duration_stimuli/001170_2014-06-17_15-43-44_260595134347_rgbf000096-resize_6/001170_2014-06-17_15-43-44_260595134347_rgbf000096-resize-original.jpg,1000,1.1909999999999998,0.0,4058,1003,feet,jsons/v1_VE1000_randls_44_rotated.json,779870,1073214,29,Woman
49,133305,DepthScenes,duration_manipulation_targetAtFixation,jsons/v1_VE1000_randls_44_rotated.json,http://54.235.29.9/FacialAge/BNav_EC2/DepthDuration/v2_depth_duration_MTurk/v2_DepthDuration_HTML.html#362,362,1536,714,1536,864,9-3-2022,8-11-45,50,depth_duration_stimuli/002805_2014-06-22_19-54-03_094959634447_rgbf000079-resize_1/002805_2014-06-22_19-54-03_094959634447_rgbf000079-resize_1-target.png,1000,3.1439999999999997,9.0,3211,993,feet,jsons/v1_VE1000_randls_44_rotated.json,779870,1073214,29,Woman
50,133305,DepthScenes,duration_manipulation_targetAtFixation,jsons/v1_VE1000_randls_44_rotated.json,http://54.235.29.9/FacialAge/BNav_EC2/DepthDuration/v2_depth_duration_MTurk/v2_DepthDuration_HTML.html#362,362,1536,714,1536,864,9-3-2022,8-11-45,51,depth_duration_stimuli/000906_2014-06-08_13-35-43_260595134347_rgbf000155-resize_1/000906_2014-06-08_13-35-43_260595134347_rgbf000155-resize_1-target.png,1000,2.8489999999999998,7.0,4028,1000,feet,jsons/v1_VE1000_randls_44_rotated.json,779870,1073214,29,Woman
51,133305,DepthScenes,duration_manipulation_targetAtFixation,jsons/v1_VE1000_randls_44_rotated.json,http://54.235.29.9/FacialAge/BNav_EC2/DepthDuration/v2_depth_duration_MTurk/v2_DepthDuration_HTML.html#362,362,1536,714,1536,864,9-3-2022,8-11-45,52,depth_duration_stimuli/003495_2014-05-21_16-01-51_094959634447_rgbf000100-resize_3/003495_2014-05-21_16-01-51_094959634447_rgbf000100-resize_3-target.png,1000,1.6255,3.0,3436,1005,feet,jsons/v1_VE1000_randls_44_rotated.json,779870,1073214,29,Woman
52,133305,DepthScenes,duration_manipulation_targetAtFixation,jsons/v1_VE1000_randls_44_rotated.json,http://54.235.29.9/FacialAge/BNav_EC2/DepthDuration/v2_depth_duration_MTurk/v2_DepthDuration_HTML.html#362,362,1536,714,1536,864,9-3-2022,8-11-45,53,depth_duration_stimuli/001244_2014-06-17_16-47-45_260595134347_rgbf000030-resize_4/001244_2014-06-17_16-47-45_260595134347_rgbf000030-resize_4-target.png,1000,2.0425,4.0,3482,1009,feet,jsons/v1_VE1000_randls_44_rotated.json,779870,1073214,29,Woman
53,133305,DepthScenes,duration_manipulation_targetAtFixation,jsons/v1_VE1000_randls_44_rotated.json,http://54.235.29.9/FacialAge/BNav_EC2/DepthDuration/v2_depth_duration_MTurk/v2_DepthDuration_HTML.html#362,362,1536,714,1536,864,9-3-2022,8-11-45,54,depth_duration_stimuli/000749_2014-06-08_21-55-06_260595134347_rgbf000070-resize_2/000749_2014-06-08_21-55-06_260595134347_rgbf000070-resize_2-target.png,1000,2.331,5.5,3771,1004,feet,jsons/v1_VE1000_randls_44_rotated.json,779870,1073214,29,Woman
54,133305,DepthScenes,duration_manipulation_targetAtFixation,jsons/v1_VE1000_randls_44_rotated.json,http://54.235.29.9/FacialAge/BNav_EC2/DepthDuration/v2_depth_duration_MTurk/v2_DepthDuration_HTML.html#362,362,1536,714,1536,864,9-3-2022,8-11-45,55,depth_duration_stimuli/002788_2014-06-22_19-36-03_094959634447_rgbf000088-resize_2/002788_2014-06-22_19-36-03_094959634447_rgbf000088-resize_2-target.png,1000,1.6465,6.0,3284,1011,feet,jsons/v1_VE1000_randls_44_rotated.json,779870,1073214,29,Woman
55,133305,DepthScenes,duration_manipulation_targetAtFixation,jsons/v1_VE1000_randls_44_rotated.json,http://54.235.29.9/FacialAge/BNav_EC2/DepthDuration/v2_depth_duration_MTurk/v2_DepthDuration_HTML.html#362,362,1536,714,1536,864,9-3-2022,8-11-45,56,depth_duration_stimuli/001571_2014-06-20_17-21-32_260595134347_rgbf000089-resize_1/001571_2014-06-20_17-21-32_260595134347_rgbf000089-resize_1-target.png,1000,1.86,3.5,5511,988,feet,jsons/v1_VE1000_randls_44_rotated.json,779870,1073214,29,Woman
56,133305,DepthScenes,duration_manipulation_targetAtFixation,jsons/v1_VE1000_randls_44_rotated.json,http://54.235.29.9/FacialAge/BNav_EC2/DepthDuration/v2_depth_duration_MTurk/v2_DepthDuration_HTML.html#362,362,1536,714,1536,864,9-3-2022,8-11-45,57,depth_duration_stimuli/002272_2014-06-28_18-53-56_260595134347_rgbf000067-resize_2/002272_2014-06-28_18-53-56_260595134347_rgbf000067-resize_2-target.png,1000,1.138,3.0,3620,989,feet,jsons/v1_VE1000_randls_44_rotated.json,779870,1073214,29,Woman
57,133305,DepthScenes,duration_manipulation_targetAtFixation,jsons/v1_VE1000_randls_44_rotated.json,http://54.235.29.9/FacialAge/BNav_EC2/DepthDuration/v2_depth_duration_MTurk/v2_DepthDuration_HTML.html#362,362,1536,714,1536,864,9-3-2022,8-11-45,58,depth_duration_stimuli/003010_2014-06-15_12-54-35_094959634447_rgbf000112-resize_0/003010_2014-06-15_12-54-35_094959634447_rgbf000112-resize_0-target.png,1000,3.1185,9.0,3377,995,feet,jsons/v1_VE1000_randls_44_rotated.json,779870,1073214,29,Woman
58,133305,DepthScenes,duration_manipulation_targetAtFixation,jsons/v1_VE1000_randls_44_rotated.json,http://54.235.29.9/FacialAge/BNav_EC2/DepthDuration/v2_depth_duration_MTurk/v2_DepthDuration_HTML.html#362,362,1536,714,1536,864,9-3-2022,8-11-45,59,depth_duration_stimuli/001810_2014-06-26_20-51-35_260595134347_rgbf000040-resize_3/001810_2014-06-26_20-51-35_260595134347_rgbf000040-resize_3-target.png,1000,2.2525,4.5,6846,1001,feet,jsons/v1_VE1000_randls_44_rotated.json,779870,1073214,29,Woman
59,133305,DepthScenes,duration_manipulation_targetAtFixation,jsons/v1_VE1000_randls_44_rotated.json,http://54.235.29.9/FacialAge/BNav_EC2/DepthDuration/v2_depth_duration_MTurk/v2_DepthDuration_HTML.html#362,362,1536,714,1536,864,9-3-2022,8-11-45,60,depth_duration_stimuli/000742_2014-06-08_18-48-09_260595134347_rgbf000164-resize_4/000742_2014-06-08_18-48-09_260595134347_rgbf000164-resize_4-target.png,1000,4.632,13.0,3507,992,feet,jsons/v1_VE1000_randls_44_rotated.json,779870,1073214,29,Woman
60,133305,DepthScenes,duration_manipulation_targetAtFixation,jsons/v1_VE1000_randls_44_rotated.json,http://54.235.29.9/FacialAge/BNav_EC2/DepthDuration/v2_depth_duration_MTurk/v2_DepthDuration_HTML.html#362,362,1536,714,1536,864,9-3-2022,8-11-45,61,depth_duration_stimuli/001066_2014-06-08_22-03-20_260595134347_rgbf000066-resize_4/001066_2014-06-08_22-03-20_260595134347_rgbf000066-resize_4-target.png,1000,4.2330000000000005,16.0,4015,1005,feet,jsons/v1_VE1000_randls_44_rotated.json,779870,1073214,29,Woman
61,133305,DepthScenes,duration_manipulation_targetAtFixation,jsons/v1_VE1000_randls_44_rotated.json,http://54.235.29.9/FacialAge/BNav_EC2/DepthDuration/v2_depth_duration_MTurk/v2_DepthDuration_HTML.html#362,362,1536,714,1536,864,9-3-2022,8-11-45,62,depth_duration_stimuli/003423_2014-05-21_10-23-26_094959634447_rgbf002665-resize_2/003423_2014-05-21_10-23-26_094959634447_rgbf002665-resize_2-target.png,1000,3.2575,12.0,3739,1007,feet,jsons/v1_VE1000_randls_44_rotated.json,779870,1073214,29,Woman
62,133305,DepthScenes,duration_manipulation_targetAtFixation,jsons/v1_VE1000_randls_44_rotated.json,http://54.235.29.9/FacialAge/BNav_EC2/DepthDuration/v2_depth_duration_MTurk/v2_DepthDuration_HTML.html#362,362,1536,714,1536,864,9-3-2022,8-11-45,63,depth_duration_stimuli/002905_2014-06-03_18-04-43_094959634447_rgbf000151-resize_2/002905_2014-06-03_18-04-43_094959634447_rgbf000151-resize_2-target.png,1000,2.0295,4.5,5714,1010,feet,jsons/v1_VE1000_randls_44_rotated.json,779870,1073214,29,Woman
63,133305,DepthScenes,duration_manipulation_targetAtFixation,jsons/v1_VE1000_randls_44_rotated.json,http://54.235.29.9/FacialAge/BNav_EC2/DepthDuration/v2_depth_duration_MTurk/v2_DepthDuration_HTML.html#362,362,1536,714,1536,864,9-3-2022,8-11-45,64,depth_duration_stimuli/002199_2014-06-28_18-33-56_260595134347_rgbf000074-resize_0/002199_2014-06-28_18-33-56_260595134347_rgbf000074-resize_0-target.png,1000,1.996,2.5,4231,996,feet,jsons/v1_VE1000_randls_44_rotated.json,779870,1073214,29,Woman
64,133305,DepthScenes,duration_manipulation_targetAtFixation,jsons/v1_VE1000_randls_44_rotated.json,http://54.235.29.9/FacialAge/BNav_EC2/DepthDuration/v2_depth_duration_MTurk/v2_DepthDuration_HTML.html#362,362,1536,714,1536,864,9-3-2022,8-11-45,65,depth_duration_stimuli/001056_2014-06-08_18-46-44_260595134347_rgbf000068-resize_0/001056_2014-06-08_18-46-44_260595134347_rgbf000068-resize_0-target.png,1000,2.6625,7.0,3159,996,feet,jsons/v1_VE1000_randls_44_rotated.json,779870,1073214,29,Woman
65,133305,DepthScenes,duration_manipulation_targetAtFixation,jsons/v1_VE1000_randls_44_rotated.json,http://54.235.29.9/FacialAge/BNav_EC2/DepthDuration/v2_depth_duration_MTurk/v2_DepthDuration_HTML.html#362,362,1536,714,1536,864,9-3-2022,8-11-45,66,depth_duration_stimuli/001540_2014-06-20_17-01-05_260595134347_rgbf000086-resize_2/001540_2014-06-20_17-01-05_260595134347_rgbf000086-resize-original.jpg,1000,1.459,0.0,3187,1005,feet,jsons/v1_VE1000_randls_44_rotated.json,779870,1073214,29,Woman
66,133305,DepthScenes,duration_manipulation_targetAtFixation,jsons/v1_VE1000_randls_44_rotated.json,http://54.235.29.9/FacialAge/BNav_EC2/DepthDuration/v2_depth_duration_MTurk/v2_DepthDuration_HTML.html#362,362,1536,714,1536,864,9-3-2022,8-11-45,67,depth_duration_stimuli/002545_2014-06-24_13-38-53_094959634447_rgbf000080-resize_4/002545_2014-06-24_13-38-53_094959634447_rgbf000080-resize_4-target.png,1000,1.9205,5.75,4401,1005,feet,jsons/v1_VE1000_randls_44_rotated.json,779870,1073214,29,Woman
67,133305,DepthScenes,duration_manipulation_targetAtFixation,jsons/v1_VE1000_randls_44_rotated.json,http://54.235.29.9/FacialAge/BNav_EC2/DepthDuration/v2_depth_duration_MTurk/v2_DepthDuration_HTML.html#362,362,1536,714,1536,864,9-3-2022,8-11-45,68,depth_duration_stimuli/001092_2014-06-15_17-34-58_260595134347_rgbf000171-resize_3/001092_2014-06-15_17-34-58_260595134347_rgbf000171-resize_3-target.png,1000,2.6935,5.0,3303,1006,feet,jsons/v1_VE1000_randls_44_rotated.json,779870,1073214,29,Woman
68,133305,DepthScenes,duration_manipulation_targetAtFixation,jsons/v1_VE1000_randls_44_rotated.json,http://54.235.29.9/FacialAge/BNav_EC2/DepthDuration/v2_depth_duration_MTurk/v2_DepthDuration_HTML.html#362,362,1536,714,1536,864,9-3-2022,8-11-45,69,depth_duration_stimuli/000483_2014-06-09_20-41-45_260595134347_rgbf000116-resize_4/000483_2014-06-09_20-41-45_260595134347_rgbf000116-resize_4-target.png,1000,1.337,4.0,3808,991,feet,jsons/v1_VE1000_randls_44_rotated.json,779870,1073214,29,Woman
69,133305,DepthScenes,duration_manipulation_targetAtFixation,jsons/v1_VE1000_randls_44_rotated.json,http://54.235.29.9/FacialAge/BNav_EC2/DepthDuration/v2_depth_duration_MTurk/v2_DepthDuration_HTML.html#362,362,1536,714,1536,864,9-3-2022,8-11-45,70,depth_duration_stimuli/000469_2014-06-09_19-42-10_260595134347_rgbf000081-resize_1/000469_2014-06-09_19-42-10_260595134347_rgbf000081-resize_1-target.png,1000,1.652,4.0,3253,994,feet,jsons/v1_VE1000_randls_44_rotated.json,779870,1073214,29,Woman
70,133305,DepthScenes,duration_manipulation_targetAtFixation,jsons/v1_VE1000_randls_44_rotated.json,http://54.235.29.9/FacialAge/BNav_EC2/DepthDuration/v2_depth_duration_MTurk/v2_DepthDuration_HTML.html#362,362,1536,714,1536,864,9-3-2022,8-11-45,71,depth_duration_stimuli/001815_2014-06-26_20-52-55_260595134347_rgbf000020-resize_0/001815_2014-06-26_20-52-55_260595134347_rgbf000020-resize_0-target.png,1000,3.3865,12.0,3611,998,feet,jsons/v1_VE1000_randls_44_rotated.json,779870,1073214,29,Woman
71,133305,DepthScenes,duration_manipulation_targetAtFixation,jsons/v1_VE1000_randls_44_rotated.json,http://54.235.29.9/FacialAge/BNav_EC2/DepthDuration/v2_depth_duration_MTurk/v2_DepthDuration_HTML.html#362,362,1536,714,1536,864,9-3-2022,8-11-45,72,depth_duration_stimuli/001808_2014-06-26_20-50-58_260595134347_rgbf000029-resize_1/001808_2014-06-26_20-50-58_260595134347_rgbf000029-resize_1-target.png,1000,4.249,12.0,6353,1006,feet,jsons/v1_VE1000_randls_44_rotated.json,779870,1073214,29,Woman
72,133305,DepthScenes,duration_manipulation_targetAtFixation,jsons/v1_VE1000_randls_44_rotated.json,http://54.235.29.9/FacialAge/BNav_EC2/DepthDuration/v2_depth_duration_MTurk/v2_DepthDuration_HTML.html#362,362,1536,714,1536,864,9-3-2022,8-11-45,73,depth_duration_stimuli/003587_2014-05-23_16-48-02_094959634447_rgbf002384-resize_2/003587_2014-05-23_16-48-02_094959634447_rgbf002384-resize_2-target.png,1000,1.357,2.0,5103,1003,feet,jsons/v1_VE1000_randls_44_rotated.json,779870,1073214,29,Woman
73,133305,DepthScenes,duration_manipulation_targetAtFixation,jsons/v1_VE1000_randls_44_rotated.json,http://54.235.29.9/FacialAge/BNav_EC2/DepthDuration/v2_depth_duration_MTurk/v2_DepthDuration_HTML.html#362,362,1536,714,1536,864,9-3-2022,8-11-45,74,depth_duration_stimuli/001167_2014-06-17_15-38-07_260595134347_rgbf000108-resize_0/001167_2014-06-17_15-38-07_260595134347_rgbf000108-resize_0-target.png,1000,1.8505,3.0,3357,1006,feet,jsons/v1_VE1000_randls_44_rotated.json,779870,1073214,29,Woman
74,133305,DepthScenes,duration_manipulation_targetAtFixation,jsons/v1_VE1000_randls_44_rotated.json,http://54.235.29.9/FacialAge/BNav_EC2/DepthDuration/v2_depth_duration_MTurk/v2_DepthDuration_HTML.html#362,362,1536,714,1536,864,9-3-2022,8-11-45,75,depth_duration_stimuli/003048_2014-06-15_13-49-43_094959634447_rgbf000150-resize_1/003048_2014-06-15_13-49-43_094959634447_rgbf000150-resize_1-target.png,1000,4.0035,7.0,3714,1005,feet,jsons/v1_VE1000_randls_44_rotated.json,779870,1073214,29,Woman
75,133305,DepthScenes,duration_manipulation_targetAtFixation,jsons/v1_VE1000_randls_44_rotated.json,http://54.235.29.9/FacialAge/BNav_EC2/DepthDuration/v2_depth_duration_MTurk/v2_DepthDuration_HTML.html#362,362,1536,714,1536,864,9-3-2022,8-11-45,76,depth_duration_stimuli/002043_2014-06-24_20-29-38_260595134347_rgbf000039-resize_4/002043_2014-06-24_20-29-38_260595134347_rgbf000039-resize_4-target.png,1000,2.8435,7.25,7033,1002,feet,jsons/v1_VE1000_randls_44_rotated.json,779870,1073214,29,Woman
76,133305,DepthScenes,duration_manipulation_targetAtFixation,jsons/v1_VE1000_randls_44_rotated.json,http://54.235.29.9/FacialAge/BNav_EC2/DepthDuration/v2_depth_duration_MTurk/v2_DepthDuration_HTML.html#362,362,1536,714,1536,864,9-3-2022,8-11-45,77,depth_duration_stimuli/000665_2014-06-09_20-42-35_260595134347_rgbf000110-resize_1/000665_2014-06-09_20-42-35_260595134347_rgbf000110-resize_1-target.png,1000,3.057,6.15,4820,1006,feet,jsons/v1_VE1000_randls_44_rotated.json,779870,1073214,29,Woman
77,133305,DepthScenes,duration_manipulation_targetAtFixation,jsons/v1_VE1000_randls_44_rotated.json,http://54.235.29.9/FacialAge/BNav_EC2/DepthDuration/v2_depth_duration_MTurk/v2_DepthDuration_HTML.html#362,362,1536,714,1536,864,9-3-2022,8-11-45,78,depth_duration_stimuli/001150_2014-06-17_15-27-34_260595134347_rgbf000108-resize_2/001150_2014-06-17_15-27-34_260595134347_rgbf000108-resize_2-target.png,1000,4.0325,8.0,4900,1002,feet,jsons/v1_VE1000_randls_44_rotated.json,779870,1073214,29,Woman
78,133305,DepthScenes,duration_manipulation_targetAtFixation,jsons/v1_VE1000_randls_44_rotated.json,http://54.235.29.9/FacialAge/BNav_EC2/DepthDuration/v2_depth_duration_MTurk/v2_DepthDuration_HTML.html#362,362,1536,714,1536,864,9-3-2022,8-11-45,79,depth_duration_stimuli/003338_2014-05-20_11-01-23_094959634447_rgbf000051-resize_6/003338_2014-05-20_11-01-23_094959634447_rgbf000051-resize_6-target.png,1000,1.693,3.0,4878,999,feet,jsons/v1_VE1000_randls_44_rotated.json,779870,1073214,29,Woman
79,133305,DepthScenes,duration_manipulation_targetAtFixation,jsons/v1_VE1000_randls_44_rotated.json,http://54.235.29.9/FacialAge/BNav_EC2/DepthDuration/v2_depth_duration_MTurk/v2_DepthDuration_HTML.html#362,362,1536,714,1536,864,9-3-2022,8-11-45,80,depth_duration_stimuli/002509_2014-06-24_13-19-22_094959634447_rgbf000077-resize_0/002509_2014-06-24_13-19-22_094959634447_rgbf000077-resize_0-target.png,1000,1.3065,2.75,4613,991,feet,jsons/v1_VE1000_randls_44_rotated.json,779870,1073214,29,Woman
80,133305,DepthScenes,duration_manipulation_targetAtFixation,jsons/v1_VE1000_randls_44_rotated.json,http://54.235.29.9/FacialAge/BNav_EC2/DepthDuration/v2_depth_duration_MTurk/v2_DepthDuration_HTML.html#362,362,1536,714,1536,864,9-3-2022,8-11-45,81,depth_duration_stimuli/001052_2014-06-08_18-24-54_260595134347_rgbf000130-resize_1/001052_2014-06-08_18-24-54_260595134347_rgbf000130-resize_1-target.png,1000,4.1045,8.0,3611,1006,feet,jsons/v1_VE1000_randls_44_rotated.json,779870,1073214,29,Woman
81,133305,DepthScenes,duration_manipulation_targetAtFixation,jsons/v1_VE1000_randls_44_rotated.json,http://54.235.29.9/FacialAge/BNav_EC2/DepthDuration/v2_depth_duration_MTurk/v2_DepthDuration_HTML.html#362,362,1536,714,1536,864,9-3-2022,8-11-45,82,depth_duration_stimuli/002988_2014-06-15_12-24-20_094959634447_rgbf000150-resize_1/002988_2014-06-15_12-24-20_094959634447_rgbf000150-resize_1-target.png,1000,4.7669999999999995,12.0,3706,1006,feet,jsons/v1_VE1000_randls_44_rotated.json,779870,1073214,29,Woman
82,133305,DepthScenes,duration_manipulation_targetAtFixation,jsons/v1_VE1000_randls_44_rotated.json,http://54.235.29.9/FacialAge/BNav_EC2/DepthDuration/v2_depth_duration_MTurk/v2_DepthDuration_HTML.html#362,362,1536,714,1536,864,9-3-2022,8-11-45,83,depth_duration_stimuli/001100_2014-06-15_17-46-26_260595134347_rgbf000225-resize_2/001100_2014-06-15_17-46-26_260595134347_rgbf000225-resize_2-target.png,1000,2.24,3.0,3435,1000,feet,jsons/v1_VE1000_randls_44_rotated.json,779870,1073214,29,Woman
83,133305,DepthScenes,duration_manipulation_targetAtFixation,jsons/v1_VE1000_randls_44_rotated.json,http://54.235.29.9/FacialAge/BNav_EC2/DepthDuration/v2_depth_duration_MTurk/v2_DepthDuration_HTML.html#362,362,1536,714,1536,864,9-3-2022,8-11-45,84,depth_duration_stimuli/002784_2014-06-22_19-26-30_094959634447_rgbf000083-resize_3/002784_2014-06-22_19-26-30_094959634447_rgbf000083-resize_3-target.png,1000,1.8046666666667,3.0,4114,992,feet,jsons/v1_VE1000_randls_44_rotated.json,779870,1073214,29,Woman
84,133305,DepthScenes,duration_manipulation_targetAtFixation,jsons/v1_VE1000_randls_44_rotated.json,http://54.235.29.9/FacialAge/BNav_EC2/DepthDuration/v2_depth_duration_MTurk/v2_DepthDuration_HTML.html#362,362,1536,714,1536,864,9-3-2022,8-11-45,85,depth_duration_stimuli/000137_2014-05-20_17-04-49_260595134347_rgbf000120-resize_1/000137_2014-05-20_17-04-49_260595134347_rgbf000120-resize_1-target.png,1000,3.786,9.0,3765,994,feet,jsons/v1_VE1000_randls_44_rotated.json,779870,1073214,29,Woman
85,133305,DepthScenes,duration_manipulation_targetAtFixation,jsons/v1_VE1000_randls_44_rotated.json,http://54.235.29.9/FacialAge/BNav_EC2/DepthDuration/v2_depth_duration_MTurk/v2_DepthDuration_HTML.html#362,362,1536,714,1536,864,9-3-2022,8-11-45,86,depth_duration_stimuli/000736_2014-06-08_18-24-15_260595134347_rgbf000206-resize_3/000736_2014-06-08_18-24-15_260595134347_rgbf000206-resize_3-target.png,1000,3.515,6.0,3293,1005,feet,jsons/v1_VE1000_randls_44_rotated.json,779870,1073214,29,Woman
86,133305,DepthScenes,duration_manipulation_targetAtFixation,jsons/v1_VE1000_randls_44_rotated.json,http://54.235.29.9/FacialAge/BNav_EC2/DepthDuration/v2_depth_duration_MTurk/v2_DepthDuration_HTML.html#362,362,1536,714,1536,864,9-3-2022,8-11-45,87,depth_duration_stimuli/002637_2014-06-24_14-51-13_094959634447_rgbf000066-resize_4/002637_2014-06-24_14-51-13_094959634447_rgbf000066-resize_4-target.png,1000,1.9955,5.75,4375,992,feet,jsons/v1_VE1000_randls_44_rotated.json,779870,1073214,29,Woman
87,133305,DepthScenes,duration_manipulation_targetAtFixation,jsons/v1_VE1000_randls_44_rotated.json,http://54.235.29.9/FacialAge/BNav_EC2/DepthDuration/v2_depth_duration_MTurk/v2_DepthDuration_HTML.html#362,362,1536,714,1536,864,9-3-2022,8-11-45,88,depth_duration_stimuli/003534_2014-05-22_15-06-10_094959634447_rgbf000102-resize_4/003534_2014-05-22_15-06-10_094959634447_rgbf000102-resize_4-target.png,1000,1.426,3.0,3849,986,feet,jsons/v1_VE1000_randls_44_rotated.json,779870,1073214,29,Woman
88,133305,DepthScenes,duration_manipulation_targetAtFixation,jsons/v1_VE1000_randls_44_rotated.json,http://54.235.29.9/FacialAge/BNav_EC2/DepthDuration/v2_depth_duration_MTurk/v2_DepthDuration_HTML.html#362,362,1536,714,1536,864,9-3-2022,8-11-45,89,depth_duration_stimuli/000556_2014-06-09_22-42-56_260595134347_rgbf000214-resize_1/000556_2014-06-09_22-42-56_260595134347_rgbf000214-resize_1-target.png,1000,4.8415,9.0,4074,989,feet,jsons/v1_VE1000_randls_44_rotated.json,779870,1073214,29,Woman
89,133305,DepthScenes,duration_manipulation_targetAtFixation,jsons/v1_VE1000_randls_44_rotated.json,http://54.235.29.9/FacialAge/BNav_EC2/DepthDuration/v2_depth_duration_MTurk/v2_DepthDuration_HTML.html#362,362,1536,714,1536,864,9-3-2022,8-11-45,90,depth_duration_stimuli/001158_2014-06-17_15-32-16_260595134347_rgbf000138-resize_2/001158_2014-06-17_15-32-16_260595134347_rgbf000138-resize_2-target.png,1000,4.5315,12.0,3458,1002,feet,jsons/v1_VE1000_randls_44_rotated.json,779870,1073214,29,Woman
90,133305,DepthScenes,duration_manipulation_targetAtFixation,jsons/v1_VE1000_randls_44_rotated.json,http://54.235.29.9/FacialAge/BNav_EC2/DepthDuration/v2_depth_duration_MTurk/v2_DepthDuration_HTML.html#362,362,1536,714,1536,864,9-3-2022,8-11-45,91,depth_duration_stimuli/002323_2014-06-28_20-01-54_260595134347_rgbf000051-resize_4/002323_2014-06-28_20-01-54_260595134347_rgbf000051-resize_4-target.png,1000,3.7310000000000003,13.0,3617,1006,feet,jsons/v1_VE1000_randls_44_rotated.json,779870,1073214,29,Woman
91,133305,DepthScenes,duration_manipulation_targetAtFixation,jsons/v1_VE1000_randls_44_rotated.json,http://54.235.29.9/FacialAge/BNav_EC2/DepthDuration/v2_depth_duration_MTurk/v2_DepthDuration_HTML.html#362,362,1536,714,1536,864,9-3-2022,8-11-45,92,depth_duration_stimuli/000917_2014-06-09_22-45-29_260595134347_rgbf000149-resize_3/000917_2014-06-09_22-45-29_260595134347_rgbf000149-resize_3-target.png,1000,4.1865,10.0,4873,997,feet,jsons/v1_VE1000_randls_44_rotated.json,779870,1073214,29,Woman
92,133305,DepthScenes,duration_manipulation_targetAtFixation,jsons/v1_VE1000_randls_44_rotated.json,http://54.235.29.9/FacialAge/BNav_EC2/DepthDuration/v2_depth_duration_MTurk/v2_DepthDuration_HTML.html#362,362,1536,714,1536,864,9-3-2022,8-11-45,93,depth_duration_stimuli/002750_2014-06-22_19-08-03_094959634447_rgbf000094-resize_4/002750_2014-06-22_19-08-03_094959634447_rgbf000094-resize_4-target.png,1000,2.354,6.0,3529,1008,feet,jsons/v1_VE1000_randls_44_rotated.json,779870,1073214,29,Woman
93,133305,DepthScenes,duration_manipulation_targetAtFixation,jsons/v1_VE1000_randls_44_rotated.json,http://54.235.29.9/FacialAge/BNav_EC2/DepthDuration/v2_depth_duration_MTurk/v2_DepthDuration_HTML.html#362,362,1536,714,1536,864,9-3-2022,8-11-45,94,depth_duration_stimuli/002549_2014-06-24_13-41-39_094959634447_rgbf000022-resize_3/002549_2014-06-24_13-41-39_094959634447_rgbf000022-resize_3-target.png,1000,1.476,4.5,3788,989,feet,jsons/v1_VE1000_randls_44_rotated.json,779870,1073214,29,Woman
94,133305,DepthScenes,duration_manipulation_targetAtFixation,jsons/v1_VE1000_randls_44_rotated.json,http://54.235.29.9/FacialAge/BNav_EC2/DepthDuration/v2_depth_duration_MTurk/v2_DepthDuration_HTML.html#362,362,1536,714,1536,864,9-3-2022,8-11-45,95,depth_duration_stimuli/001650_2014-06-20_12-09-00_260595134347_rgbf000087-resize_3/001650_2014-06-20_12-09-00_260595134347_rgbf000087-resize_3-target.png,1000,1.9505,3.0,4128,992,feet,jsons/v1_VE1000_randls_44_rotated.json,779870,1073214,29,Woman
95,133305,DepthScenes,duration_manipulation_targetAtFixation,jsons/v1_VE1000_randls_44_rotated.json,http://54.235.29.9/FacialAge/BNav_EC2/DepthDuration/v2_depth_duration_MTurk/v2_DepthDuration_HTML.html#362,362,1536,714,1536,864,9-3-2022,8-11-45,96,depth_duration_stimuli/000682_2014-06-08_23-14-58_260595134347_rgbf000041-resize_5/000682_2014-06-08_23-14-58_260595134347_rgbf000041-resize_5-target.png,1000,2.7239999999999998,5.5,4291,999,feet,jsons/v1_VE1000_randls_44_rotated.json,779870,1073214,29,Woman
96,133305,DepthScenes,duration_manipulation_targetAtFixation,jsons/v1_VE1000_randls_44_rotated.json,http://54.235.29.9/FacialAge/BNav_EC2/DepthDuration/v2_depth_duration_MTurk/v2_DepthDuration_HTML.html#362,362,1536,714,1536,864,9-3-2022,8-11-45,97,depth_duration_stimuli/001447_2014-06-19_17-00-32_260595134347_rgbf000082-resize_5/001447_2014-06-19_17-00-32_260595134347_rgbf000082-resize_5-target.png,1000,4.13775,6.5,4260,1005,feet,jsons/v1_VE1000_randls_44_rotated.json,779870,1073214,29,Woman
97,133305,DepthScenes,duration_manipulation_targetAtFixation,jsons/v1_VE1000_randls_44_rotated.json,http://54.235.29.9/FacialAge/BNav_EC2/DepthDuration/v2_depth_duration_MTurk/v2_DepthDuration_HTML.html#362,362,1536,714,1536,864,9-3-2022,8-11-45,98,depth_duration_stimuli/000447_2014-06-08_16-15-46_260595134347_rgbf000130-resize_1/000447_2014-06-08_16-15-46_260595134347_rgbf000130-resize_1-target.png,1000,4.479,14.0,3266,1004,feet,jsons/v1_VE1000_randls_44_rotated.json,779870,1073214,29,Woman
98,133305,DepthScenes,duration_manipulation_targetAtFixation,jsons/v1_VE1000_randls_44_rotated.json,http://54.235.29.9/FacialAge/BNav_EC2/DepthDuration/v2_depth_duration_MTurk/v2_DepthDuration_HTML.html#362,362,1536,714,1536,864,9-3-2022,8-11-45,99,depth_duration_stimuli/001222_2014-06-17_16-24-06_260595134347_rgbf000073-resize_0/001222_2014-06-17_16-24-06_260595134347_rgbf000073-resize-original.jpg,1000,1.4385,0.0,3251,991,feet,jsons/v1_VE1000_randls_44_rotated.json,779870,1073214,29,Woman
99,133305,DepthScenes,duration_manipulation_targetAtFixation,jsons/v1_VE1000_randls_44_rotated.json,http://54.235.29.9/FacialAge/BNav_EC2/DepthDuration/v2_depth_duration_MTurk/v2_DepthDuration_HTML.html#362,362,1536,714,1536,864,9-3-2022,8-11-45,100,depth_duration_stimuli/000866_2014-06-09_20-45-42_260595134347_rgbf000139-resize_1/000866_2014-06-09_20-45-42_260595134347_rgbf000139-resize_1-target.png,1000,3.2155,7.0,4943,997,feet,jsons/v1_VE1000_randls_44_rotated.json,779870,1073214,29,Woman
100,133305,DepthScenes,duration_manipulation_targetAtFixation,jsons/v1_VE1000_randls_44_rotated.json,http://54.235.29.9/FacialAge/BNav_EC2/DepthDuration/v2_depth_duration_MTurk/v2_DepthDuration_HTML.html#362,362,1536,714,1536,864,9-3-2022,8-11-45,101,depth_duration_stimuli/002989_2014-06-15_12-25-03_094959634447_rgbf000150-resize_3/002989_2014-06-15_12-25-03_094959634447_rgbf000150-resize_3-target.png,1000,4.1975,12.0,3634,996,feet,jsons/v1_VE1000_randls_44_rotated.json,779870,1073214,29,Woman
101,133305,DepthScenes,duration_manipulation_targetAtFixation,jsons/v1_VE1000_randls_44_rotated.json,http://54.235.29.9/FacialAge/BNav_EC2/DepthDuration/v2_depth_duration_MTurk/v2_DepthDuration_HTML.html#362,362,1536,714,1536,864,9-3-2022,8-11-45,102,depth_duration_stimuli/002949_2014-06-26_15-57-42_094959634447_rgbf000079-resize_1/002949_2014-06-26_15-57-42_094959634447_rgbf000079-resize_1-target.png,1000,1.8915,4.0,3248,1012,feet,jsons/v1_VE1000_randls_44_rotated.json,779870,1073214,29,Woman
102,133305,DepthScenes,duration_manipulation_targetAtFixation,jsons/v1_VE1000_randls_44_rotated.json,http://54.235.29.9/FacialAge/BNav_EC2/DepthDuration/v2_depth_duration_MTurk/v2_DepthDuration_HTML.html#362,362,1536,714,1536,864,9-3-2022,8-11-45,103,depth_duration_stimuli/000522_2014-06-08_13-35-06_260595134347_rgbf000244-resize_1/000522_2014-06-08_13-35-06_260595134347_rgbf000244-resize_1-target.png,1000,2.3715,2.5,4269,1009,feet,jsons/v1_VE1000_randls_44_rotated.json,779870,1073214,29,Woman
103,133305,DepthScenes,duration_manipulation_targetAtFixation,jsons/v1_VE1000_randls_44_rotated.json,http://54.235.29.9/FacialAge/BNav_EC2/DepthDuration/v2_depth_duration_MTurk/v2_DepthDuration_HTML.html#362,362,1536,714,1536,864,9-3-2022,8-11-45,104,depth_duration_stimuli/002344_2014-06-28_20-06-29_260595134347_rgbf000030-resize_1/002344_2014-06-28_20-06-29_260595134347_rgbf000030-resize_1-target.png,1000,1.5795,2.5,4397,996,feet,jsons/v1_VE1000_randls_44_rotated.json,779870,1073214,29,Woman
104,133305,DepthScenes,duration_manipulation_targetAtFixation,jsons/v1_VE1000_randls_44_rotated.json,http://54.235.29.9/FacialAge/BNav_EC2/DepthDuration/v2_depth_duration_MTurk/v2_DepthDuration_HTML.html#362,362,1536,714,1536,864,9-3-2022,8-11-45,105,depth_duration_stimuli/002725_2014-06-22_11-47-51_094959634447_rgbf000070-resize_1/002725_2014-06-22_11-47-51_094959634447_rgbf000070-resize_1-target.png,1000,2.195,4.5,4198,1014,feet,jsons/v1_VE1000_randls_44_rotated.json,779870,1073214,29,Woman
105,133305,DepthScenes,duration_manipulation_targetAtFixation,jsons/v1_VE1000_randls_44_rotated.json,http://54.235.29.9/FacialAge/BNav_EC2/DepthDuration/v2_depth_duration_MTurk/v2_DepthDuration_HTML.html#362,362,1536,714,1536,864,9-3-2022,8-11-45,106,depth_duration_stimuli/000943_2014-06-09_19-31-07_260595134347_rgbf000128-resize_1/000943_2014-06-09_19-31-07_260595134347_rgbf000128-resize_1-target.png,1000,1.9765,4.0,3833,994,feet,jsons/v1_VE1000_randls_44_rotated.json,779870,1073214,29,Woman
106,133305,DepthScenes,duration_manipulation_targetAtFixation,jsons/v1_VE1000_randls_44_rotated.json,http://54.235.29.9/FacialAge/BNav_EC2/DepthDuration/v2_depth_duration_MTurk/v2_DepthDuration_HTML.html#362,362,1536,714,1536,864,9-3-2022,8-11-45,107,depth_duration_stimuli/003070_2014-06-15_14-58-27_094959634447_rgbf000150-resize_3/003070_2014-06-15_14-58-27_094959634447_rgbf000150-resize_3-target.png,1000,2.9415,7.0,3871,999,feet,jsons/v1_VE1000_randls_44_rotated.json,779870,1073214,29,Woman
107,133305,DepthScenes,duration_manipulation_targetAtFixation,jsons/v1_VE1000_randls_44_rotated.json,http://54.235.29.9/FacialAge/BNav_EC2/DepthDuration/v2_depth_duration_MTurk/v2_DepthDuration_HTML.html#362,362,1536,714,1536,864,9-3-2022,8-11-45,108,depth_duration_stimuli/002758_2014-06-22_19-11-20_094959634447_rgbf000128-resize_1/002758_2014-06-22_19-11-20_094959634447_rgbf000128-resize_1-target.png,1000,2.555,5.5,3877,988,feet,jsons/v1_VE1000_randls_44_rotated.json,779870,1073214,29,Woman
108,133305,DepthScenes,duration_manipulation_targetAtFixation,jsons/v1_VE1000_randls_44_rotated.json,http://54.235.29.9/FacialAge/BNav_EC2/DepthDuration/v2_depth_duration_MTurk/v2_DepthDuration_HTML.html#362,362,1536,714,1536,864,9-3-2022,8-11-45,109,depth_duration_stimuli/002630_2014-06-24_14-47-50_094959634447_rgbf000055-resize_1/002630_2014-06-24_14-47-50_094959634447_rgbf000055-resize_1-target.png,1000,3.0095,10.0,4103,1007,feet,jsons/v1_VE1000_randls_44_rotated.json,779870,1073214,29,Woman
109,133305,DepthScenes,duration_manipulation_targetAtFixation,jsons/v1_VE1000_randls_44_rotated.json,http://54.235.29.9/FacialAge/BNav_EC2/DepthDuration/v2_depth_duration_MTurk/v2_DepthDuration_HTML.html#362,362,1536,714,1536,864,9-3-2022,8-11-45,110,depth_duration_stimuli/002340_2014-06-28_20-05-46_260595134347_rgbf000113-resize_0/002340_2014-06-28_20-05-46_260595134347_rgbf000113-resize_0-target.png,1000,2.4735,7.0,3667,996,feet,jsons/v1_VE1000_randls_44_rotated.json,779870,1073214,29,Woman
110,133305,DepthScenes,duration_manipulation_targetAtFixation,jsons/v1_VE1000_randls_44_rotated.json,http://54.235.29.9/FacialAge/BNav_EC2/DepthDuration/v2_depth_duration_MTurk/v2_DepthDuration_HTML.html#362,362,1536,714,1536,864,9-3-2022,8-11-45,111,depth_duration_stimuli/001016_2014-06-09_16-16-10_260595134347_rgbf000112-resize_5/001016_2014-06-09_16-16-10_260595134347_rgbf000112-resize_5-target.png,1000,1.6565,5.0,3407,994,feet,jsons/v1_VE1000_randls_44_rotated.json,779870,1073214,29,Woman
111,133305,DepthScenes,duration_manipulation_targetAtFixation,jsons/v1_VE1000_randls_44_rotated.json,http://54.235.29.9/FacialAge/BNav_EC2/DepthDuration/v2_depth_duration_MTurk/v2_DepthDuration_HTML.html#362,362,1536,714,1536,864,9-3-2022,8-11-45,112,depth_duration_stimuli/001584_2014-06-20_11-07-43_260595134347_rgbf000002-resize_1/001584_2014-06-20_11-07-43_260595134347_rgbf000002-resize_1-target.png,1000,3.53,7.0,3883,1009,feet,jsons/v1_VE1000_randls_44_rotated.json,779870,1073214,29,Woman
112,133305,DepthScenes,duration_manipulation_targetAtFixation,jsons/v1_VE1000_randls_44_rotated.json,http://54.235.29.9/FacialAge/BNav_EC2/DepthDuration/v2_depth_duration_MTurk/v2_DepthDuration_HTML.html#362,362,1536,714,1536,864,9-3-2022,8-11-45,113,depth_duration_stimuli/003621_2014-05-23_18-06-08_094959634447_rgbf000101-resize_1/003621_2014-05-23_18-06-08_094959634447_rgbf000101-resize_1-target.png,1000,3.9835,10.0,3819,1008,feet,jsons/v1_VE1000_randls_44_rotated.json,779870,1073214,29,Woman
113,133305,DepthScenes,duration_manipulation_targetAtFixation,jsons/v1_VE1000_randls_44_rotated.json,http://54.235.29.9/FacialAge/BNav_EC2/DepthDuration/v2_depth_duration_MTurk/v2_DepthDuration_HTML.html#362,362,1536,714,1536,864,9-3-2022,8-11-45,114,depth_duration_stimuli/001617_2014-06-20_11-35-32_260595134347_rgbf000066-resize_1/001617_2014-06-20_11-35-32_260595134347_rgbf000066-resize_1-target.png,1000,3.7910000000000004,9.0,3535,1007,feet,jsons/v1_VE1000_randls_44_rotated.json,779870,1073214,29,Woman
114,133305,DepthScenes,duration_manipulation_targetAtFixation,jsons/v1_VE1000_randls_44_rotated.json,http://54.235.29.9/FacialAge/BNav_EC2/DepthDuration/v2_depth_duration_MTurk/v2_DepthDuration_HTML.html#362,362,1536,714,1536,864,9-3-2022,8-11-45,115,depth_duration_stimuli/001806_2014-06-26_20-50-20_260595134347_rgbf000091-resize_1/001806_2014-06-26_20-50-20_260595134347_rgbf000091-resize_1-target.png,1000,2.7305,4.0,3608,1004,feet,jsons/v1_VE1000_randls_44_rotated.json,779870,1073214,29,Woman
115,133305,DepthScenes,duration_manipulation_targetAtFixation,jsons/v1_VE1000_randls_44_rotated.json,http://54.235.29.9/FacialAge/BNav_EC2/DepthDuration/v2_depth_duration_MTurk/v2_DepthDuration_HTML.html#362,362,1536,714,1536,864,9-3-2022,8-11-45,116,depth_duration_stimuli/000502_2014-06-08_23-02-32_260595134347_rgbf000063-resize_4/000502_2014-06-08_23-02-32_260595134347_rgbf000063-resize_4-target.png,1000,2.431,4.5,4109,1008,feet,jsons/v1_VE1000_randls_44_rotated.json,779870,1073214,29,Woman
116,133305,DepthScenes,duration_manipulation_targetAtFixation,jsons/v1_VE1000_randls_44_rotated.json,http://54.235.29.9/FacialAge/BNav_EC2/DepthDuration/v2_depth_duration_MTurk/v2_DepthDuration_HTML.html#362,362,1536,714,1536,864,9-3-2022,8-11-45,117,depth_duration_stimuli/001199_2014-06-17_16-03-48_260595134347_rgbf000077-resize_0/001199_2014-06-17_16-03-48_260595134347_rgbf000077-resize_0-target.png,1000,3.4375,14.0,3785,1002,feet,jsons/v1_VE1000_randls_44_rotated.json,779870,1073214,29,Woman
117,133305,DepthScenes,duration_manipulation_targetAtFixation,jsons/v1_VE1000_randls_44_rotated.json,http://54.235.29.9/FacialAge/BNav_EC2/DepthDuration/v2_depth_duration_MTurk/v2_DepthDuration_HTML.html#362,362,1536,714,1536,864,9-3-2022,8-11-45,118,depth_duration_stimuli/002953_2014-06-08_17-32-18_094959634447_rgbf000059-resize_5/002953_2014-06-08_17-32-18_094959634447_rgbf000059-resize_5-target.png,1000,1.551,3.0,4859,1015,feet,jsons/v1_VE1000_randls_44_rotated.json,779870,1073214,29,Woman
118,133305,DepthScenes,duration_manipulation_targetAtFixation,jsons/v1_VE1000_randls_44_rotated.json,http://54.235.29.9/FacialAge/BNav_EC2/DepthDuration/v2_depth_duration_MTurk/v2_DepthDuration_HTML.html#362,362,1536,714,1536,864,9-3-2022,8-11-45,119,depth_duration_stimuli/000878_2014-06-08_22-52-45_260595134347_rgbf000045-resize_2/000878_2014-06-08_22-52-45_260595134347_rgbf000045-resize_2-target.png,1000,2.092,5.0,3343,1007,feet,jsons/v1_VE1000_randls_44_rotated.json,779870,1073214,29,Woman
119,133305,DepthScenes,duration_manipulation_targetAtFixation,jsons/v1_VE1000_randls_44_rotated.json,http://54.235.29.9/FacialAge/BNav_EC2/DepthDuration/v2_depth_duration_MTurk/v2_DepthDuration_HTML.html#362,362,1536,714,1536,864,9-3-2022,8-11-45,120,depth_duration_stimuli/000787_2014-06-08_22-33-53_260595134347_rgbf000175-resize_1/000787_2014-06-08_22-33-53_260595134347_rgbf000175-resize-original.jpg,1000,4.784,0.0,3231,1009,feet,jsons/v1_VE1000_randls_44_rotated.json,779870,1073214,29,Woman
120,133305,DepthScenes,duration_manipulation_targetAtFixation,jsons/v1_VE1000_randls_44_rotated.json,http://54.235.29.9/FacialAge/BNav_EC2/DepthDuration/v2_depth_duration_MTurk/v2_DepthDuration_HTML.html#362,362,1536,714,1536,864,9-3-2022,8-11-45,121,depth_duration_stimuli/001136_2014-06-17_15-19-41_260595134347_rgbf000076-resize_3/001136_2014-06-17_15-19-41_260595134347_rgbf000076-resize_3-target.png,1000,1.8655,4.5,3875,990,feet,jsons/v1_VE1000_randls_44_rotated.json,779870,1073214,29,Woman
121,133305,DepthScenes,duration_manipulation_targetAtFixation,jsons/v1_VE1000_randls_44_rotated.json,http://54.235.29.9/FacialAge/BNav_EC2/DepthDuration/v2_depth_duration_MTurk/v2_DepthDuration_HTML.html#362,362,1536,714,1536,864,9-3-2022,8-11-45,122,depth_duration_stimuli/001164_2014-06-17_15-35-46_260595134347_rgbf000085-resize_3/001164_2014-06-17_15-35-46_260595134347_rgbf000085-resize_3-target.png,1000,2.354,5.0,3113,992,feet,jsons/v1_VE1000_randls_44_rotated.json,779870,1073214,29,Woman
122,133305,DepthScenes,duration_manipulation_targetAtFixation,jsons/v1_VE1000_randls_44_rotated.json,http://54.235.29.9/FacialAge/BNav_EC2/DepthDuration/v2_depth_duration_MTurk/v2_DepthDuration_HTML.html#362,362,1536,714,1536,864,9-3-2022,8-11-45,123,depth_duration_stimuli/000409_2014-06-04_19-23-33_260595134347_rgbf000067-resize_0/000409_2014-06-04_19-23-33_260595134347_rgbf000067-resize_0-target.png,1000,3.7335,7.0,3385,991,feet,jsons/v1_VE1000_randls_44_rotated.json,779870,1073214,29,Woman
123,133305,DepthScenes,duration_manipulation_targetAtFixation,jsons/v1_VE1000_randls_44_rotated.json,http://54.235.29.9/FacialAge/BNav_EC2/DepthDuration/v2_depth_duration_MTurk/v2_DepthDuration_HTML.html#362,362,1536,714,1536,864,9-3-2022,8-11-45,124,depth_duration_stimuli/002663_2014-06-13_15-50-26_094959634447_rgbf000075-resize_1/002663_2014-06-13_15-50-26_094959634447_rgbf000075-resize_1-target.png,1000,4.7495,13.0,3953,996,feet,jsons/v1_VE1000_randls_44_rotated.json,779870,1073214,29,Woman
124,133305,DepthScenes,duration_manipulation_targetAtFixation,jsons/v1_VE1000_randls_44_rotated.json,http://54.235.29.9/FacialAge/BNav_EC2/DepthDuration/v2_depth_duration_MTurk/v2_DepthDuration_HTML.html#362,362,1536,714,1536,864,9-3-2022,8-11-45,125,depth_duration_stimuli/003490_2014-05-21_15-50-11_094959634447_rgbf000101-resize_3/003490_2014-05-21_15-50-11_094959634447_rgbf000101-resize_3-target.png,1000,3.6445,12.0,4157,1007,feet,jsons/v1_VE1000_randls_44_rotated.json,779870,1073214,29,Woman
125,133305,DepthScenes,duration_manipulation_targetAtFixation,jsons/v1_VE1000_randls_44_rotated.json,http://54.235.29.9/FacialAge/BNav_EC2/DepthDuration/v2_depth_duration_MTurk/v2_DepthDuration_HTML.html#362,362,1536,714,1536,864,9-3-2022,8-11-45,126,depth_duration_stimuli/001175_2014-06-17_15-45-55_260595134347_rgbf000129-resize_4/001175_2014-06-17_15-45-55_260595134347_rgbf000129-resize_4-target.png,1000,4.255,13.0,5187,992,feet,jsons/v1_VE1000_randls_44_rotated.json,779870,1073214,29,Woman
126,133305,DepthScenes,duration_manipulation_targetAtFixation,jsons/v1_VE1000_randls_44_rotated.json,http://54.235.29.9/FacialAge/BNav_EC2/DepthDuration/v2_depth_duration_MTurk/v2_DepthDuration_HTML.html#362,362,1536,714,1536,864,9-3-2022,8-11-45,127,depth_duration_stimuli/000734_2014-06-08_17-39-11_260595134347_rgbf000128-resize_2/000734_2014-06-08_17-39-11_260595134347_rgbf000128-resize_2-target.png,1000,4.098,7.0,9060,1008,feet,jsons/v1_VE1000_randls_44_rotated.json,779870,1073214,29,Woman
127,133305,DepthScenes,duration_manipulation_targetAtFixation,jsons/v1_VE1000_randls_44_rotated.json,http://54.235.29.9/FacialAge/BNav_EC2/DepthDuration/v2_depth_duration_MTurk/v2_DepthDuration_HTML.html#362,362,1536,714,1536,864,9-3-2022,8-11-45,128,depth_duration_stimuli/000739_2014-06-08_18-45-58_260595134347_rgbf000068-resize_1/000739_2014-06-08_18-45-58_260595134347_rgbf000068-resize_1-target.png,1000,3.534,6.5,4883,1000,feet,jsons/v1_VE1000_randls_44_rotated.json,779870,1073214,29,Woman
128,133305,DepthScenes,duration_manipulation_targetAtFixation,jsons/v1_VE1000_randls_44_rotated.json,http://54.235.29.9/FacialAge/BNav_EC2/DepthDuration/v2_depth_duration_MTurk/v2_DepthDuration_HTML.html#362,362,1536,714,1536,864,9-3-2022,8-11-45,129,depth_duration_stimuli/002103_2014-06-25_20-00-40_260595134347_rgbf000049-resize_0/002103_2014-06-25_20-00-40_260595134347_rgbf000049-resize_0-target.png,1000,4.105,12.0,4460,1011,feet,jsons/v1_VE1000_randls_44_rotated.json,779870,1073214,29,Woman
129,133305,DepthScenes,duration_manipulation_targetAtFixation,jsons/v1_VE1000_randls_44_rotated.json,http://54.235.29.9/FacialAge/BNav_EC2/DepthDuration/v2_depth_duration_MTurk/v2_DepthDuration_HTML.html#362,362,1536,714,1536,864,9-3-2022,8-11-45,130,depth_duration_stimuli/002039_2014-06-24_20-22-38_260595134347_rgbf000084-resize_1/002039_2014-06-24_20-22-38_260595134347_rgbf000084-resize_1-target.png,1000,4.408,14.5,5798,1010,feet,jsons/v1_VE1000_randls_44_rotated.json,779870,1073214,29,Woman
130,133305,DepthScenes,duration_manipulation_targetAtFixation,jsons/v1_VE1000_randls_44_rotated.json,http://54.235.29.9/FacialAge/BNav_EC2/DepthDuration/v2_depth_duration_MTurk/v2_DepthDuration_HTML.html#362,362,1536,714,1536,864,9-3-2022,8-11-45,131,depth_duration_stimuli/000457_2014-06-08_16-52-43_260595134347_rgbf000199-resize_1/000457_2014-06-08_16-52-43_260595134347_rgbf000199-resize_1-target.png,1000,3.6489999999999996,6.0,3036,995,feet,jsons/v1_VE1000_randls_44_rotated.json,779870,1073214,29,Woman
131,133305,DepthScenes,duration_manipulation_targetAtFixation,jsons/v1_VE1000_randls_44_rotated.json,http://54.235.29.9/FacialAge/BNav_EC2/DepthDuration/v2_depth_duration_MTurk/v2_DepthDuration_HTML.html#362,362,1536,714,1536,864,9-3-2022,8-11-45,132,depth_duration_stimuli/000929_2014-06-09_16-33-19_260595134347_rgbf000139-resize_0/000929_2014-06-09_16-33-19_260595134347_rgbf000139-resize_0-target.png,1000,2.8680000000000003,6.5,3768,998,feet,jsons/v1_VE1000_randls_44_rotated.json,779870,1073214,29,Woman
132,133305,DepthScenes,duration_manipulation_targetAtFixation,jsons/v1_VE1000_randls_44_rotated.json,http://54.235.29.9/FacialAge/BNav_EC2/DepthDuration/v2_depth_duration_MTurk/v2_DepthDuration_HTML.html#362,362,1536,714,1536,864,9-3-2022,8-11-45,133,depth_duration_stimuli/000635_2014-06-08_16-38-42_260595134347_rgbf000106-resize_1/000635_2014-06-08_16-38-42_260595134347_rgbf000106-resize_1-target.png,1000,2.074,5.5,4591,989,feet,jsons/v1_VE1000_randls_44_rotated.json,779870,1073214,29,Woman
133,133305,DepthScenes,duration_manipulation_targetAtFixation,jsons/v1_VE1000_randls_44_rotated.json,http://54.235.29.9/FacialAge/BNav_EC2/DepthDuration/v2_depth_duration_MTurk/v2_DepthDuration_HTML.html#362,362,1536,714,1536,864,9-3-2022,8-11-45,134,depth_duration_stimuli/002279_2014-06-28_18-55-32_260595134347_rgbf000040-resize_5/002279_2014-06-28_18-55-32_260595134347_rgbf000040-resize_5-target.png,1000,1.5043333333333,3.0,3095,991,feet,jsons/v1_VE1000_randls_44_rotated.json,779870,1073214,29,Woman
134,133305,DepthScenes,duration_manipulation_targetAtFixation,jsons/v1_VE1000_randls_44_rotated.json,http://54.235.29.9/FacialAge/BNav_EC2/DepthDuration/v2_depth_duration_MTurk/v2_DepthDuration_HTML.html#362,362,1536,714,1536,864,9-3-2022,8-11-45,135,depth_duration_stimuli/000375_2014-06-08_11-17-29_260595134347_rgbf000133-resize_2/000375_2014-06-08_11-17-29_260595134347_rgbf000133-resize-original.jpg,1000,4.718,0.0,3055,1014,feet,jsons/v1_VE1000_randls_44_rotated.json,779870,1073214,29,Woman
135,133305,DepthScenes,duration_manipulation_targetAtFixation,jsons/v1_VE1000_randls_44_rotated.json,http://54.235.29.9/FacialAge/BNav_EC2/DepthDuration/v2_depth_duration_MTurk/v2_DepthDuration_HTML.html#362,362,1536,714,1536,864,9-3-2022,8-11-45,136,depth_duration_stimuli/003081_2014-06-15_15-19-16_094959634447_rgbf000150-resize_1/003081_2014-06-15_15-19-16_094959634447_rgbf000150-resize_1-target.png,1000,3.9125,8.0,3209,1002,feet,jsons/v1_VE1000_randls_44_rotated.json,779870,1073214,29,Woman
136,133305,DepthScenes,duration_manipulation_targetAtFixation,jsons/v1_VE1000_randls_44_rotated.json,http://54.235.29.9/FacialAge/BNav_EC2/DepthDuration/v2_depth_duration_MTurk/v2_DepthDuration_HTML.html#362,362,1536,714,1536,864,9-3-2022,8-11-45,137,depth_duration_stimuli/001417_2014-06-19_16-25-36_260595134347_rgbf000115-resize_5/001417_2014-06-19_16-25-36_260595134347_rgbf000115-resize_5-target.png,1000,4.6255,8.0,3157,1001,feet,jsons/v1_VE1000_randls_44_rotated.json,779870,1073214,29,Woman
137,133305,DepthScenes,duration_manipulation_targetAtFixation,jsons/v1_VE1000_randls_44_rotated.json,http://54.235.29.9/FacialAge/BNav_EC2/DepthDuration/v2_depth_duration_MTurk/v2_DepthDuration_HTML.html#362,362,1536,714,1536,864,9-3-2022,8-11-45,138,depth_duration_stimuli/001132_2014-06-17_14-48-54_260595134347_rgbf000100-resize_2/001132_2014-06-17_14-48-54_260595134347_rgbf000100-resize_2-target.png,1000,3.753,9.0,5348,985,feet,jsons/v1_VE1000_randls_44_rotated.json,779870,1073214,29,Woman
138,133305,DepthScenes,duration_manipulation_targetAtFixation,jsons/v1_VE1000_randls_44_rotated.json,http://54.235.29.9/FacialAge/BNav_EC2/DepthDuration/v2_depth_duration_MTurk/v2_DepthDuration_HTML.html#362,362,1536,714,1536,864,9-3-2022,8-11-45,139,depth_duration_stimuli/001133_2014-06-17_14-49-16_260595134347_rgbf000100-resize_0/001133_2014-06-17_14-49-16_260595134347_rgbf000100-resize_0-target.png,1000,4.2115,10.0,5404,1004,feet,jsons/v1_VE1000_randls_44_rotated.json,779870,1073214,29,Woman
139,133305,DepthScenes,duration_manipulation_targetAtFixation,jsons/v1_VE1000_randls_44_rotated.json,http://54.235.29.9/FacialAge/BNav_EC2/DepthDuration/v2_depth_duration_MTurk/v2_DepthDuration_HTML.html#362,362,1536,714,1536,864,9-3-2022,8-11-45,140,depth_duration_stimuli/002425_2014-06-28_20-27-29_260595134347_rgbf000031-resize_8/002425_2014-06-28_20-27-29_260595134347_rgbf000031-resize_8-target.png,1000,3.8960000000000004,8.0,4746,1012,feet,jsons/v1_VE1000_randls_44_rotated.json,779870,1073214,29,Woman
140,133305,DepthScenes,duration_manipulation_targetAtFixation,jsons/v1_VE1000_randls_44_rotated.json,http://54.235.29.9/FacialAge/BNav_EC2/DepthDuration/v2_depth_duration_MTurk/v2_DepthDuration_HTML.html#362,362,1536,714,1536,864,9-3-2022,8-11-45,141,depth_duration_stimuli/000642_2014-06-08_16-59-25_260595134347_rgbf000098-resize_2/000642_2014-06-08_16-59-25_260595134347_rgbf000098-resize_2-target.png,1000,2.8815,6.0,3897,1019,feet,jsons/v1_VE1000_randls_44_rotated.json,779870,1073214,29,Woman
141,133305,DepthScenes,duration_manipulation_targetAtFixation,jsons/v1_VE1000_randls_44_rotated.json,http://54.235.29.9/FacialAge/BNav_EC2/DepthDuration/v2_depth_duration_MTurk/v2_DepthDuration_HTML.html#362,362,1536,714,1536,864,9-3-2022,8-11-45,142,depth_duration_stimuli/000691_2014-06-08_13-08-50_260595134347_rgbf000132-resize_3/000691_2014-06-08_13-08-50_260595134347_rgbf000132-resize_3-target.png,1000,4.1530000000000005,7.0,3899,1005,feet,jsons/v1_VE1000_randls_44_rotated.json,779870,1073214,29,Woman
142,133305,DepthScenes,duration_manipulation_targetAtFixation,jsons/v1_VE1000_randls_44_rotated.json,http://54.235.29.9/FacialAge/BNav_EC2/DepthDuration/v2_depth_duration_MTurk/v2_DepthDuration_HTML.html#362,362,1536,714,1536,864,9-3-2022,8-11-45,143,depth_duration_stimuli/002213_2014-06-28_18-37-58_260595134347_rgbf000055-resize_1/002213_2014-06-28_18-37-58_260595134347_rgbf000055-resize_1-target.png,1000,3.62,10.0,3360,1020,feet,jsons/v1_VE1000_randls_44_rotated.json,779870,1073214,29,Woman
143,133305,DepthScenes,duration_manipulation_targetAtFixation,jsons/v1_VE1000_randls_44_rotated.json,http://54.235.29.9/FacialAge/BNav_EC2/DepthDuration/v2_depth_duration_MTurk/v2_DepthDuration_HTML.html#362,362,1536,714,1536,864,9-3-2022,8-11-45,144,depth_duration_stimuli/002657_2014-06-13_15-29-54_094959634447_rgbf000150-resize_1/002657_2014-06-13_15-29-54_094959634447_rgbf000150-resize_1-target.png,1000,4.919,9.0,4668,1006,feet,jsons/v1_VE1000_randls_44_rotated.json,779870,1073214,29,Woman
144,133305,DepthScenes,duration_manipulation_targetAtFixation,jsons/v1_VE1000_randls_44_rotated.json,http://54.235.29.9/FacialAge/BNav_EC2/DepthDuration/v2_depth_duration_MTurk/v2_DepthDuration_HTML.html#362,362,1536,714,1536,864,9-3-2022,8-11-45,145,depth_duration_stimuli/002375_2014-06-28_20-13-44_260595134347_rgbf000032-resize_1/002375_2014-06-28_20-13-44_260595134347_rgbf000032-resize_1-target.png,1000,4.0175,6.0,4147,986,feet,jsons/v1_VE1000_randls_44_rotated.json,779870,1073214,29,Woman
145,133305,DepthScenes,duration_manipulation_targetAtFixation,jsons/v1_VE1000_randls_44_rotated.json,http://54.235.29.9/FacialAge/BNav_EC2/DepthDuration/v2_depth_duration_MTurk/v2_DepthDuration_HTML.html#362,362,1536,714,1536,864,9-3-2022,8-11-45,146,depth_duration_stimuli/000109_2014-05-14_23-41-52_260595134347_rgbf000035-resize_9/000109_2014-05-14_23-41-52_260595134347_rgbf000035-resize_9-target.png,1000,1.3545,2.5,4222,992,feet,jsons/v1_VE1000_randls_44_rotated.json,779870,1073214,29,Woman
146,133305,DepthScenes,duration_manipulation_targetAtFixation,jsons/v1_VE1000_randls_44_rotated.json,http://54.235.29.9/FacialAge/BNav_EC2/DepthDuration/v2_depth_duration_MTurk/v2_DepthDuration_HTML.html#362,362,1536,714,1536,864,9-3-2022,8-11-45,147,depth_duration_stimuli/000470_2014-06-09_19-42-40_260595134347_rgbf000094-resize_1/000470_2014-06-09_19-42-40_260595134347_rgbf000094-resize_1-target.png,1000,1.831,4.0,3657,1004,feet,jsons/v1_VE1000_randls_44_rotated.json,779870,1073214,29,Woman
147,133305,DepthScenes,duration_manipulation_targetAtFixation,jsons/v1_VE1000_randls_44_rotated.json,http://54.235.29.9/FacialAge/BNav_EC2/DepthDuration/v2_depth_duration_MTurk/v2_DepthDuration_HTML.html#362,362,1536,714,1536,864,9-3-2022,8-11-45,148,depth_duration_stimuli/000780_2014-06-08_22-28-29_260595134347_rgbf000126-resize_1/000780_2014-06-08_22-28-29_260595134347_rgbf000126-resize_1-target.png,1000,3.3825,7.0,4092,999,feet,jsons/v1_VE1000_randls_44_rotated.json,779870,1073214,29,Woman
148,133305,DepthScenes,duration_manipulation_targetAtFixation,jsons/v1_VE1000_randls_44_rotated.json,http://54.235.29.9/FacialAge/BNav_EC2/DepthDuration/v2_depth_duration_MTurk/v2_DepthDuration_HTML.html#362,362,1536,714,1536,864,9-3-2022,8-11-45,149,depth_duration_stimuli/002445_2014-06-28_20-32-16_260595134347_rgbf000029-resize_4/002445_2014-06-28_20-32-16_260595134347_rgbf000029-resize_4-target.png,1000,2.5315,5.0,4039,1002,feet,jsons/v1_VE1000_randls_44_rotated.json,779870,1073214,29,Woman
149,133305,DepthScenes,duration_manipulation_targetAtFixation,jsons/v1_VE1000_randls_44_rotated.json,http://54.235.29.9/FacialAge/BNav_EC2/DepthDuration/v2_depth_duration_MTurk/v2_DepthDuration_HTML.html#362,362,1536,714,1536,864,9-3-2022,8-11-45,150,depth_duration_stimuli/001094_2014-06-15_17-36-00_260595134347_rgbf000205-resize_0/001094_2014-06-15_17-36-00_260595134347_rgbf000205-resize_0-target.png,1000,4.2175,10.0,6572,1004,feet,jsons/v1_VE1000_randls_44_rotated.json,779870,1073214,29,Woman
150,133305,DepthScenes,duration_manipulation_targetAtFixation,jsons/v1_VE1000_randls_44_rotated.json,http://54.235.29.9/FacialAge/BNav_EC2/DepthDuration/v2_depth_duration_MTurk/v2_DepthDuration_HTML.html#362,362,1536,714,1536,864,9-3-2022,8-11-45,151,depth_duration_stimuli/000692_2014-06-08_13-09-42_260595134347_rgbf000199-resize_2/000692_2014-06-08_13-09-42_260595134347_rgbf000199-resize_2-target.png,1000,3.661,14.0,3554,1019,feet,jsons/v1_VE1000_randls_44_rotated.json,779870,1073214,29,Woman
151,133305,DepthScenes,duration_manipulation_targetAtFixation,jsons/v1_VE1000_randls_44_rotated.json,http://54.235.29.9/FacialAge/BNav_EC2/DepthDuration/v2_depth_duration_MTurk/v2_DepthDuration_HTML.html#362,362,1536,714,1536,864,9-3-2022,8-11-45,152,depth_duration_stimuli/000569_2014-06-09_22-51-47_260595134347_rgbf000141-resize_3/000569_2014-06-09_22-51-47_260595134347_rgbf000141-resize-original.jpg,1000,4.512,0.0,3536,1000,feet,jsons/v1_VE1000_randls_44_rotated.json,779870,1073214,29,Woman
152,133305,DepthScenes,duration_manipulation_targetAtFixation,jsons/v1_VE1000_randls_44_rotated.json,http://54.235.29.9/FacialAge/BNav_EC2/DepthDuration/v2_depth_duration_MTurk/v2_DepthDuration_HTML.html#362,362,1536,714,1536,864,9-3-2022,8-11-45,153,depth_duration_stimuli/001214_2014-06-17_16-13-55_260595134347_rgbf000111-resize_0/001214_2014-06-17_16-13-55_260595134347_rgbf000111-resize_0-target.png,1000,2.6505,5.0,3191,997,feet,jsons/v1_VE1000_randls_44_rotated.json,779870,1073214,29,Woman
153,133305,DepthScenes,duration_manipulation_targetAtFixation,jsons/v1_VE1000_randls_44_rotated.json,http://54.235.29.9/FacialAge/BNav_EC2/DepthDuration/v2_depth_duration_MTurk/v2_DepthDuration_HTML.html#362,362,1536,714,1536,864,9-3-2022,8-11-45,154,depth_duration_stimuli/000810_2014-06-08_17-20-01_260595134347_rgbf000105-resize_0/000810_2014-06-08_17-20-01_260595134347_rgbf000105-resize_0-target.png,1000,1.4865,3.5,5353,997,feet,jsons/v1_VE1000_randls_44_rotated.json,779870,1073214,29,Woman
154,133305,DepthScenes,duration_manipulation_targetAtFixation,jsons/v1_VE1000_randls_44_rotated.json,http://54.235.29.9/FacialAge/BNav_EC2/DepthDuration/v2_depth_duration_MTurk/v2_DepthDuration_HTML.html#362,362,1536,714,1536,864,9-3-2022,8-11-45,155,depth_duration_stimuli/001516_2014-06-20_16-25-09_260595134347_rgbf000076-resize_2/001516_2014-06-20_16-25-09_260595134347_rgbf000076-resize_2-target.png,1000,1.7445,4.0,3242,1006,feet,jsons/v1_VE1000_randls_44_rotated.json,779870,1073214,29,Woman
155,133305,DepthScenes,duration_manipulation_targetAtFixation,jsons/v1_VE1000_randls_44_rotated.json,http://54.235.29.9/FacialAge/BNav_EC2/DepthDuration/v2_depth_duration_MTurk/v2_DepthDuration_HTML.html#362,362,1536,714,1536,864,9-3-2022,8-11-45,156,depth_duration_stimuli/002118_2014-06-25_20-32-08_260595134347_rgbf000078-resize_1/002118_2014-06-25_20-32-08_260595134347_rgbf000078-resize_1-target.png,1000,2.6460000000000004,6.5,4217,995,feet,jsons/v1_VE1000_randls_44_rotated.json,779870,1073214,29,Woman
156,133305,DepthScenes,duration_manipulation_targetAtFixation,jsons/v1_VE1000_randls_44_rotated.json,http://54.235.29.9/FacialAge/BNav_EC2/DepthDuration/v2_depth_duration_MTurk/v2_DepthDuration_HTML.html#362,362,1536,714,1536,864,9-3-2022,8-11-45,157,depth_duration_stimuli/002467_2014-06-28_20-38-07_260595134347_rgbf000026-resize_2/002467_2014-06-28_20-38-07_260595134347_rgbf000026-resize_2-target.png,1000,4.742,10.0,3309,1008,feet,jsons/v1_VE1000_randls_44_rotated.json,779870,1073214,29,Woman
157,133305,DepthScenes,duration_manipulation_targetAtFixation,jsons/v1_VE1000_randls_44_rotated.json,http://54.235.29.9/FacialAge/BNav_EC2/DepthDuration/v2_depth_duration_MTurk/v2_DepthDuration_HTML.html#362,362,1536,714,1536,864,9-3-2022,8-11-45,158,depth_duration_stimuli/002570_2014-06-24_13-59-54_094959634447_rgbf000059-resize_0/002570_2014-06-24_13-59-54_094959634447_rgbf000059-resize_0-target.png,1000,4.037,9.0,4260,990,feet,jsons/v1_VE1000_randls_44_rotated.json,779870,1073214,29,Woman
158,133305,DepthScenes,duration_manipulation_targetAtFixation,jsons/v1_VE1000_randls_44_rotated.json,http://54.235.29.9/FacialAge/BNav_EC2/DepthDuration/v2_depth_duration_MTurk/v2_DepthDuration_HTML.html#362,362,1536,714,1536,864,9-3-2022,8-11-45,159,depth_duration_stimuli/001828_2014-06-26_21-40-03_260595134347_rgbf000024-resize_0/001828_2014-06-26_21-40-03_260595134347_rgbf000024-resize_0-target.png,1000,4.8260000000000005,10.5,5334,1002,feet,jsons/v1_VE1000_randls_44_rotated.json,779870,1073214,29,Woman
159,133305,DepthScenes,duration_manipulation_targetAtFixation,jsons/v1_VE1000_randls_44_rotated.json,http://54.235.29.9/FacialAge/BNav_EC2/DepthDuration/v2_depth_duration_MTurk/v2_DepthDuration_HTML.html#362,362,1536,714,1536,864,9-3-2022,8-11-45,160,depth_duration_stimuli/000009_2014-05-26_14-32-05_260595134347_rgbf000034-resize_3/000009_2014-05-26_14-32-05_260595134347_rgbf000034-resize_3-target.png,1000,3.8715,12.0,5862,1004,feet,jsons/v1_VE1000_randls_44_rotated.json,779870,1073214,29,Woman
160,133305,DepthScenes,duration_manipulation_targetAtFixation,jsons/v1_VE1000_randls_44_rotated.json,http://54.235.29.9/FacialAge/BNav_EC2/DepthDuration/v2_depth_duration_MTurk/v2_DepthDuration_HTML.html#362,362,1536,714,1536,864,9-3-2022,8-11-45,161,depth_duration_stimuli/002414_2014-06-28_20-24-58_260595134347_rgbf000067-resize_4/002414_2014-06-28_20-24-58_260595134347_rgbf000067-resize_4-target.png,1000,4.363,14.0,3372,992,feet,jsons/v1_VE1000_randls_44_rotated.json,779870,1073214,29,Woman
161,133305,DepthScenes,duration_manipulation_targetAtFixation,jsons/v1_VE1000_randls_44_rotated.json,http://54.235.29.9/FacialAge/BNav_EC2/DepthDuration/v2_depth_duration_MTurk/v2_DepthDuration_HTML.html#362,362,1536,714,1536,864,9-3-2022,8-11-45,162,depth_duration_stimuli/000773_2014-06-08_22-24-54_260595134347_rgbf000093-resize_1/000773_2014-06-08_22-24-54_260595134347_rgbf000093-resize_1-target.png,1000,4.973,12.0,5239,1005,feet,jsons/v1_VE1000_randls_44_rotated.json,779870,1073214,29,Woman
162,133305,DepthScenes,duration_manipulation_targetAtFixation,jsons/v1_VE1000_randls_44_rotated.json,http://54.235.29.9/FacialAge/BNav_EC2/DepthDuration/v2_depth_duration_MTurk/v2_DepthDuration_HTML.html#362,362,1536,714,1536,864,9-3-2022,8-11-45,163,depth_duration_stimuli/000927_2014-06-09_16-32-30_260595134347_rgbf000123-resize_3/000927_2014-06-09_16-32-30_260595134347_rgbf000123-resize_3-target.png,1000,2.6785,7.0,4521,996,feet,jsons/v1_VE1000_randls_44_rotated.json,779870,1073214,29,Woman
163,133305,DepthScenes,duration_manipulation_targetAtFixation,jsons/v1_VE1000_randls_44_rotated.json,http://54.235.29.9/FacialAge/BNav_EC2/DepthDuration/v2_depth_duration_MTurk/v2_DepthDuration_HTML.html#362,362,1536,714,1536,864,9-3-2022,8-11-45,164,depth_duration_stimuli/001110_2014-06-15_17-25-28_260595134347_rgbf000150-resize_1/001110_2014-06-15_17-25-28_260595134347_rgbf000150-resize_1-target.png,1000,1.7115,5.0,3152,990,feet,jsons/v1_VE1000_randls_44_rotated.json,779870,1073214,29,Woman
