,subjID,experimentName,versionName,sequenceName,url,selected_row,windowWidth,windowHeight,screenWidth,screenHeight,startDate,startTime,trial,stimulus,duration,actual_depth,depth_estimate,trial_RT,log_sceneDuration,unitSelection,seq_filepath,experimentTime,totalTime,age,gender
0,137165,DepthScenes,duration_manipulation_targetAtFixation,jsons/VE125_randls_41.json,http://54.235.29.9/FacialAge/BNav_EC2/DepthDuration/v2_depth_duration_MTurk/v2_DepthDuration_HTML.html#467,467,1600,789,1600,900,9-3-2022,6-12-56,1,depth_duration_stimuli/002213_2014-06-28_18-37-58_260595134347_rgbf000055-resize_1/002213_2014-06-28_18-37-58_260595134347_rgbf000055-resize_1-target.png,125,3.62,0,4050,125,meters,jsons/VE125_randls_41.json,869452,1483041,36,Woman
1,137165,DepthScenes,duration_manipulation_targetAtFixation,jsons/VE125_randls_41.json,http://54.235.29.9/FacialAge/BNav_EC2/DepthDuration/v2_depth_duration_MTurk/v2_DepthDuration_HTML.html#467,467,1600,789,1600,900,9-3-2022,6-12-56,2,depth_duration_stimuli/000691_2014-06-08_13-08-50_260595134347_rgbf000132-resize_3/000691_2014-06-08_13-08-50_260595134347_rgbf000132-resize_3-target.png,125,4.1530000000000005,10,4217,123,meters,jsons/VE125_randls_41.json,869452,1483041,36,Woman
2,137165,DepthScenes,duration_manipulation_targetAtFixation,jsons/VE125_randls_41.json,http://54.235.29.9/FacialAge/BNav_EC2/DepthDuration/v2_depth_duration_MTurk/v2_DepthDuration_HTML.html#467,467,1600,789,1600,900,9-3-2022,6-12-56,3,depth_duration_stimuli/001055_2014-06-08_18-45-35_260595134347_rgbf000111-resize_4/001055_2014-06-08_18-45-35_260595134347_rgbf000111-resize_4-target.png,125,2.4290000000000003,0,3506,124,meters,jsons/VE125_randls_41.json,869452,1483041,36,Woman
3,137165,DepthScenes,duration_manipulation_targetAtFixation,jsons/VE125_randls_41.json,http://54.235.29.9/FacialAge/BNav_EC2/DepthDuration/v2_depth_duration_MTurk/v2_DepthDuration_HTML.html#467,467,1600,789,1600,900,9-3-2022,6-12-56,4,depth_duration_stimuli/000549_2014-06-08_22-10-24_260595134347_rgbf000247-resize_3/000549_2014-06-08_22-10-24_260595134347_rgbf000247-resize_3-target.png,125,1.841,0,3099,125,meters,jsons/VE125_randls_41.json,869452,1483041,36,Woman
4,137165,DepthScenes,duration_manipulation_targetAtFixation,jsons/VE125_randls_41.json,http://54.235.29.9/FacialAge/BNav_EC2/DepthDuration/v2_depth_duration_MTurk/v2_DepthDuration_HTML.html#467,467,1600,789,1600,900,9-3-2022,6-12-56,5,depth_duration_stimuli/002509_2014-06-24_13-19-22_094959634447_rgbf000077-resize_0/002509_2014-06-24_13-19-22_094959634447_rgbf000077-resize_0-target.png,125,1.3065,11,5122,123,meters,jsons/VE125_randls_41.json,869452,1483041,36,Woman
5,137165,DepthScenes,duration_manipulation_targetAtFixation,jsons/VE125_randls_41.json,http://54.235.29.9/FacialAge/BNav_EC2/DepthDuration/v2_depth_duration_MTurk/v2_DepthDuration_HTML.html#467,467,1600,789,1600,900,9-3-2022,6-12-56,6,depth_duration_stimuli/003338_2014-05-20_11-01-23_094959634447_rgbf000051-resize_6/003338_2014-05-20_11-01-23_094959634447_rgbf000051-resize_6-target.png,125,1.693,10,4170,124,meters,jsons/VE125_randls_41.json,869452,1483041,36,Woman
6,137165,DepthScenes,duration_manipulation_targetAtFixation,jsons/VE125_randls_41.json,http://54.235.29.9/FacialAge/BNav_EC2/DepthDuration/v2_depth_duration_MTurk/v2_DepthDuration_HTML.html#467,467,1600,789,1600,900,9-3-2022,6-12-56,7,depth_duration_stimuli/001167_2014-06-17_15-38-07_260595134347_rgbf000108-resize_0/001167_2014-06-17_15-38-07_260595134347_rgbf000108-resize_0-target.png,125,1.8505,5,3450,123,meters,jsons/VE125_randls_41.json,869452,1483041,36,Woman
7,137165,DepthScenes,duration_manipulation_targetAtFixation,jsons/VE125_randls_41.json,http://54.235.29.9/FacialAge/BNav_EC2/DepthDuration/v2_depth_duration_MTurk/v2_DepthDuration_HTML.html#467,467,1600,789,1600,900,9-3-2022,6-12-56,8,depth_duration_stimuli/003587_2014-05-23_16-48-02_094959634447_rgbf002384-resize_2/003587_2014-05-23_16-48-02_094959634447_rgbf002384-resize_2-target.png,125,1.357,7,3979,124,meters,jsons/VE125_randls_41.json,869452,1483041,36,Woman
8,137165,DepthScenes,duration_manipulation_targetAtFixation,jsons/VE125_randls_41.json,http://54.235.29.9/FacialAge/BNav_EC2/DepthDuration/v2_depth_duration_MTurk/v2_DepthDuration_HTML.html#467,467,1600,789,1600,900,9-3-2022,6-12-56,9,depth_duration_stimuli/002445_2014-06-28_20-32-16_260595134347_rgbf000029-resize_4/002445_2014-06-28_20-32-16_260595134347_rgbf000029-resize_4-target.png,125,2.5315,0,3457,124,meters,jsons/VE125_randls_41.json,869452,1483041,36,Woman
9,137165,DepthScenes,duration_manipulation_targetAtFixation,jsons/VE125_randls_41.json,http://54.235.29.9/FacialAge/BNav_EC2/DepthDuration/v2_depth_duration_MTurk/v2_DepthDuration_HTML.html#467,467,1600,789,1600,900,9-3-2022,6-12-56,10,depth_duration_stimuli/000780_2014-06-08_22-28-29_260595134347_rgbf000126-resize_1/000780_2014-06-08_22-28-29_260595134347_rgbf000126-resize_1-target.png,125,3.3825,0,3147,124,meters,jsons/VE125_randls_41.json,869452,1483041,36,Woman
10,137165,DepthScenes,duration_manipulation_targetAtFixation,jsons/VE125_randls_41.json,http://54.235.29.9/FacialAge/BNav_EC2/DepthDuration/v2_depth_duration_MTurk/v2_DepthDuration_HTML.html#467,467,1600,789,1600,900,9-3-2022,6-12-56,11,depth_duration_stimuli/000929_2014-06-09_16-33-19_260595134347_rgbf000139-resize_0/000929_2014-06-09_16-33-19_260595134347_rgbf000139-resize_0-target.png,125,2.8680000000000003,0,2434,123,meters,jsons/VE125_randls_41.json,869452,1483041,36,Woman
11,137165,DepthScenes,duration_manipulation_targetAtFixation,jsons/VE125_randls_41.json,http://54.235.29.9/FacialAge/BNav_EC2/DepthDuration/v2_depth_duration_MTurk/v2_DepthDuration_HTML.html#467,467,1600,789,1600,900,9-3-2022,6-12-56,12,depth_duration_stimuli/000457_2014-06-08_16-52-43_260595134347_rgbf000199-resize_1/000457_2014-06-08_16-52-43_260595134347_rgbf000199-resize_1-target.png,125,3.6489999999999996,0,2875,124,meters,jsons/VE125_randls_41.json,869452,1483041,36,Woman
12,137165,DepthScenes,duration_manipulation_targetAtFixation,jsons/VE125_randls_41.json,http://54.235.29.9/FacialAge/BNav_EC2/DepthDuration/v2_depth_duration_MTurk/v2_DepthDuration_HTML.html#467,467,1600,789,1600,900,9-3-2022,6-12-56,13,depth_duration_stimuli/000569_2014-06-09_22-51-47_260595134347_rgbf000141-resize_3/000569_2014-06-09_22-51-47_260595134347_rgbf000141-resize-original.jpg,125,4.512,0,2939,124,meters,jsons/VE125_randls_41.json,869452,1483041,36,Woman
13,137165,DepthScenes,duration_manipulation_targetAtFixation,jsons/VE125_randls_41.json,http://54.235.29.9/FacialAge/BNav_EC2/DepthDuration/v2_depth_duration_MTurk/v2_DepthDuration_HTML.html#467,467,1600,789,1600,900,9-3-2022,6-12-56,14,depth_duration_stimuli/000447_2014-06-08_16-15-46_260595134347_rgbf000130-resize_1/000447_2014-06-08_16-15-46_260595134347_rgbf000130-resize_1-target.png,125,4.479,0,2483,124,meters,jsons/VE125_randls_41.json,869452,1483041,36,Woman
14,137165,DepthScenes,duration_manipulation_targetAtFixation,jsons/VE125_randls_41.json,http://54.235.29.9/FacialAge/BNav_EC2/DepthDuration/v2_depth_duration_MTurk/v2_DepthDuration_HTML.html#467,467,1600,789,1600,900,9-3-2022,6-12-56,15,depth_duration_stimuli/001447_2014-06-19_17-00-32_260595134347_rgbf000082-resize_5/001447_2014-06-19_17-00-32_260595134347_rgbf000082-resize_5-target.png,125,4.13775,0,2179,124,meters,jsons/VE125_randls_41.json,869452,1483041,36,Woman
15,137165,DepthScenes,duration_manipulation_targetAtFixation,jsons/VE125_randls_41.json,http://54.235.29.9/FacialAge/BNav_EC2/DepthDuration/v2_depth_duration_MTurk/v2_DepthDuration_HTML.html#467,467,1600,789,1600,900,9-3-2022,6-12-56,16,depth_duration_stimuli/002375_2014-06-28_20-13-44_260595134347_rgbf000032-resize_1/002375_2014-06-28_20-13-44_260595134347_rgbf000032-resize_1-target.png,125,4.0175,5,3595,124,meters,jsons/VE125_randls_41.json,869452,1483041,36,Woman
16,137165,DepthScenes,duration_manipulation_targetAtFixation,jsons/VE125_randls_41.json,http://54.235.29.9/FacialAge/BNav_EC2/DepthDuration/v2_depth_duration_MTurk/v2_DepthDuration_HTML.html#467,467,1600,789,1600,900,9-3-2022,6-12-56,17,depth_duration_stimuli/002657_2014-06-13_15-29-54_094959634447_rgbf000150-resize_1/002657_2014-06-13_15-29-54_094959634447_rgbf000150-resize_1-target.png,125,4.919,7,3513,123,meters,jsons/VE125_randls_41.json,869452,1483041,36,Woman
17,137165,DepthScenes,duration_manipulation_targetAtFixation,jsons/VE125_randls_41.json,http://54.235.29.9/FacialAge/BNav_EC2/DepthDuration/v2_depth_duration_MTurk/v2_DepthDuration_HTML.html#467,467,1600,789,1600,900,9-3-2022,6-12-56,18,depth_duration_stimuli/001016_2014-06-09_16-16-10_260595134347_rgbf000112-resize_5/001016_2014-06-09_16-16-10_260595134347_rgbf000112-resize_5-target.png,125,1.6565,8,3283,124,meters,jsons/VE125_randls_41.json,869452,1483041,36,Woman
18,137165,DepthScenes,duration_manipulation_targetAtFixation,jsons/VE125_randls_41.json,http://54.235.29.9/FacialAge/BNav_EC2/DepthDuration/v2_depth_duration_MTurk/v2_DepthDuration_HTML.html#467,467,1600,789,1600,900,9-3-2022,6-12-56,19,depth_duration_stimuli/002340_2014-06-28_20-05-46_260595134347_rgbf000113-resize_0/002340_2014-06-28_20-05-46_260595134347_rgbf000113-resize_0-target.png,125,2.4735,8,3160,124,meters,jsons/VE125_randls_41.json,869452,1483041,36,Woman
19,137165,DepthScenes,duration_manipulation_targetAtFixation,jsons/VE125_randls_41.json,http://54.235.29.9/FacialAge/BNav_EC2/DepthDuration/v2_depth_duration_MTurk/v2_DepthDuration_HTML.html#467,467,1600,789,1600,900,9-3-2022,6-12-56,20,depth_duration_stimuli/002788_2014-06-22_19-36-03_094959634447_rgbf000088-resize_2/002788_2014-06-22_19-36-03_094959634447_rgbf000088-resize_2-target.png,125,1.6465,0,50195,124,meters,jsons/VE125_randls_41.json,869452,1483041,36,Woman
20,137165,DepthScenes,duration_manipulation_targetAtFixation,jsons/VE125_randls_41.json,http://54.235.29.9/FacialAge/BNav_EC2/DepthDuration/v2_depth_duration_MTurk/v2_DepthDuration_HTML.html#467,467,1600,789,1600,900,9-3-2022,6-12-56,21,depth_duration_stimuli/000749_2014-06-08_21-55-06_260595134347_rgbf000070-resize_2/000749_2014-06-08_21-55-06_260595134347_rgbf000070-resize_2-target.png,125,2.331,0,3011,125,meters,jsons/VE125_randls_41.json,869452,1483041,36,Woman
21,137165,DepthScenes,duration_manipulation_targetAtFixation,jsons/VE125_randls_41.json,http://54.235.29.9/FacialAge/BNav_EC2/DepthDuration/v2_depth_duration_MTurk/v2_DepthDuration_HTML.html#467,467,1600,789,1600,900,9-3-2022,6-12-56,22,depth_duration_stimuli/000436_2014-06-09_22-25-11_260595134347_rgbf000137-resize_1/000436_2014-06-09_22-25-11_260595134347_rgbf000137-resize_1-target.png,125,4.0705,10,5275,124,meters,jsons/VE125_randls_41.json,869452,1483041,36,Woman
22,137165,DepthScenes,duration_manipulation_targetAtFixation,jsons/VE125_randls_41.json,http://54.235.29.9/FacialAge/BNav_EC2/DepthDuration/v2_depth_duration_MTurk/v2_DepthDuration_HTML.html#467,467,1600,789,1600,900,9-3-2022,6-12-56,23,depth_duration_stimuli/002444_2014-06-28_20-32-08_260595134347_rgbf000027-resize_0/002444_2014-06-28_20-32-08_260595134347_rgbf000027-resize_0-target.png,125,4.388999999999999,8,5115,124,meters,jsons/VE125_randls_41.json,869452,1483041,36,Woman
23,137165,DepthScenes,duration_manipulation_targetAtFixation,jsons/VE125_randls_41.json,http://54.235.29.9/FacialAge/BNav_EC2/DepthDuration/v2_depth_duration_MTurk/v2_DepthDuration_HTML.html#467,467,1600,789,1600,900,9-3-2022,6-12-56,24,depth_duration_stimuli/002600_2014-06-24_14-27-04_094959634447_rgbf000074-resize_2/002600_2014-06-24_14-27-04_094959634447_rgbf000074-resize_2-target.png,125,2.7575,0,29850,124,meters,jsons/VE125_randls_41.json,869452,1483041,36,Woman
24,137165,DepthScenes,duration_manipulation_targetAtFixation,jsons/VE125_randls_41.json,http://54.235.29.9/FacialAge/BNav_EC2/DepthDuration/v2_depth_duration_MTurk/v2_DepthDuration_HTML.html#467,467,1600,789,1600,900,9-3-2022,6-12-56,25,depth_duration_stimuli/003228_2014-05-14_13-42-35_094959634447_rgbf000101-resize_1/003228_2014-05-14_13-42-35_094959634447_rgbf000101-resize_1-target.png,125,1.9680000000000002,0,3754,123,meters,jsons/VE125_randls_41.json,869452,1483041,36,Woman
25,137165,DepthScenes,duration_manipulation_targetAtFixation,jsons/VE125_randls_41.json,http://54.235.29.9/FacialAge/BNav_EC2/DepthDuration/v2_depth_duration_MTurk/v2_DepthDuration_HTML.html#467,467,1600,789,1600,900,9-3-2022,6-12-56,26,depth_duration_stimuli/001175_2014-06-17_15-45-55_260595134347_rgbf000129-resize_4/001175_2014-06-17_15-45-55_260595134347_rgbf000129-resize_4-target.png,125,4.255,0,2314,124,meters,jsons/VE125_randls_41.json,869452,1483041,36,Woman
26,137165,DepthScenes,duration_manipulation_targetAtFixation,jsons/VE125_randls_41.json,http://54.235.29.9/FacialAge/BNav_EC2/DepthDuration/v2_depth_duration_MTurk/v2_DepthDuration_HTML.html#467,467,1600,789,1600,900,9-3-2022,6-12-56,27,depth_duration_stimuli/003490_2014-05-21_15-50-11_094959634447_rgbf000101-resize_3/003490_2014-05-21_15-50-11_094959634447_rgbf000101-resize_3-target.png,125,3.6445,0,2251,124,meters,jsons/VE125_randls_41.json,869452,1483041,36,Woman
27,137165,DepthScenes,duration_manipulation_targetAtFixation,jsons/VE125_randls_41.json,http://54.235.29.9/FacialAge/BNav_EC2/DepthDuration/v2_depth_duration_MTurk/v2_DepthDuration_HTML.html#467,467,1600,789,1600,900,9-3-2022,6-12-56,28,depth_duration_stimuli/001164_2014-06-17_15-35-46_260595134347_rgbf000085-resize_3/001164_2014-06-17_15-35-46_260595134347_rgbf000085-resize_3-target.png,125,2.354,5,3346,123,meters,jsons/VE125_randls_41.json,869452,1483041,36,Woman
28,137165,DepthScenes,duration_manipulation_targetAtFixation,jsons/VE125_randls_41.json,http://54.235.29.9/FacialAge/BNav_EC2/DepthDuration/v2_depth_duration_MTurk/v2_DepthDuration_HTML.html#467,467,1600,789,1600,900,9-3-2022,6-12-56,29,depth_duration_stimuli/001136_2014-06-17_15-19-41_260595134347_rgbf000076-resize_3/001136_2014-06-17_15-19-41_260595134347_rgbf000076-resize_3-target.png,125,1.8655,0,2936,123,meters,jsons/VE125_randls_41.json,869452,1483041,36,Woman
29,137165,DepthScenes,duration_manipulation_targetAtFixation,jsons/VE125_randls_41.json,http://54.235.29.9/FacialAge/BNav_EC2/DepthDuration/v2_depth_duration_MTurk/v2_DepthDuration_HTML.html#467,467,1600,789,1600,900,9-3-2022,6-12-56,30,depth_duration_stimuli/000375_2014-06-08_11-17-29_260595134347_rgbf000133-resize_2/000375_2014-06-08_11-17-29_260595134347_rgbf000133-resize-original.jpg,125,4.718,0,2604,125,meters,jsons/VE125_randls_41.json,869452,1483041,36,Woman
30,137165,DepthScenes,duration_manipulation_targetAtFixation,jsons/VE125_randls_41.json,http://54.235.29.9/FacialAge/BNav_EC2/DepthDuration/v2_depth_duration_MTurk/v2_DepthDuration_HTML.html#467,467,1600,789,1600,900,9-3-2022,6-12-56,31,depth_duration_stimuli/002748_2014-06-22_19-07-22_094959634447_rgbf000078-resize_1/002748_2014-06-22_19-07-22_094959634447_rgbf000078-resize_1-target.png,125,4.6705,8,3034,122,meters,jsons/VE125_randls_41.json,869452,1483041,36,Woman
31,137165,DepthScenes,duration_manipulation_targetAtFixation,jsons/VE125_randls_41.json,http://54.235.29.9/FacialAge/BNav_EC2/DepthDuration/v2_depth_duration_MTurk/v2_DepthDuration_HTML.html#467,467,1600,789,1600,900,9-3-2022,6-12-56,32,depth_duration_stimuli/002995_2014-06-15_12-31-26_094959634447_rgbf000150-resize_1/002995_2014-06-15_12-31-26_094959634447_rgbf000150-resize_1-target.png,125,3.8360000000000003,9,3114,123,meters,jsons/VE125_randls_41.json,869452,1483041,36,Woman
32,137165,DepthScenes,duration_manipulation_targetAtFixation,jsons/VE125_randls_41.json,http://54.235.29.9/FacialAge/BNav_EC2/DepthDuration/v2_depth_duration_MTurk/v2_DepthDuration_HTML.html#467,467,1600,789,1600,900,9-3-2022,6-12-56,33,depth_duration_stimuli/000810_2014-06-08_17-20-01_260595134347_rgbf000105-resize_0/000810_2014-06-08_17-20-01_260595134347_rgbf000105-resize_0-target.png,125,1.4865,7,4427,122,meters,jsons/VE125_randls_41.json,869452,1483041,36,Woman
33,137165,DepthScenes,duration_manipulation_targetAtFixation,jsons/VE125_randls_41.json,http://54.235.29.9/FacialAge/BNav_EC2/DepthDuration/v2_depth_duration_MTurk/v2_DepthDuration_HTML.html#467,467,1600,789,1600,900,9-3-2022,6-12-56,34,depth_duration_stimuli/001214_2014-06-17_16-13-55_260595134347_rgbf000111-resize_0/001214_2014-06-17_16-13-55_260595134347_rgbf000111-resize_0-target.png,125,2.6505,5,4491,124,meters,jsons/VE125_randls_41.json,869452,1483041,36,Woman
34,137165,DepthScenes,duration_manipulation_targetAtFixation,jsons/VE125_randls_41.json,http://54.235.29.9/FacialAge/BNav_EC2/DepthDuration/v2_depth_duration_MTurk/v2_DepthDuration_HTML.html#467,467,1600,789,1600,900,9-3-2022,6-12-56,35,depth_duration_stimuli/001150_2014-06-17_15-27-34_260595134347_rgbf000108-resize_2/001150_2014-06-17_15-27-34_260595134347_rgbf000108-resize_2-target.png,125,4.0325,5,4627,123,meters,jsons/VE125_randls_41.json,869452,1483041,36,Woman
35,137165,DepthScenes,duration_manipulation_targetAtFixation,jsons/VE125_randls_41.json,http://54.235.29.9/FacialAge/BNav_EC2/DepthDuration/v2_depth_duration_MTurk/v2_DepthDuration_HTML.html#467,467,1600,789,1600,900,9-3-2022,6-12-56,36,depth_duration_stimuli/000665_2014-06-09_20-42-35_260595134347_rgbf000110-resize_1/000665_2014-06-09_20-42-35_260595134347_rgbf000110-resize_1-target.png,125,3.057,0,2955,125,meters,jsons/VE125_randls_41.json,869452,1483041,36,Woman
36,137165,DepthScenes,duration_manipulation_targetAtFixation,jsons/VE125_randls_41.json,http://54.235.29.9/FacialAge/BNav_EC2/DepthDuration/v2_depth_duration_MTurk/v2_DepthDuration_HTML.html#467,467,1600,789,1600,900,9-3-2022,6-12-56,37,depth_duration_stimuli/003292_2014-05-14_21-53-49_094959634447_rgbf000100-resize_2/003292_2014-05-14_21-53-49_094959634447_rgbf000100-resize_2-target.png,125,3.4815,0,108226,124,meters,jsons/VE125_randls_41.json,869452,1483041,36,Woman
37,137165,DepthScenes,duration_manipulation_targetAtFixation,jsons/VE125_randls_41.json,http://54.235.29.9/FacialAge/BNav_EC2/DepthDuration/v2_depth_duration_MTurk/v2_DepthDuration_HTML.html#467,467,1600,789,1600,900,9-3-2022,6-12-56,38,depth_duration_stimuli/002639_2014-06-24_14-51-37_094959634447_rgbf000074-resize_4/002639_2014-06-24_14-51-37_094959634447_rgbf000074-resize_4-target.png,125,4.0375,5,23900,124,meters,jsons/VE125_randls_41.json,869452,1483041,36,Woman
38,137165,DepthScenes,duration_manipulation_targetAtFixation,jsons/VE125_randls_41.json,http://54.235.29.9/FacialAge/BNav_EC2/DepthDuration/v2_depth_duration_MTurk/v2_DepthDuration_HTML.html#467,467,1600,789,1600,900,9-3-2022,6-12-56,39,depth_duration_stimuli/001555_2014-06-20_17-12-10_260595134347_rgbf000065-resize_4/001555_2014-06-20_17-12-10_260595134347_rgbf000065-resize_4-target.png,125,1.633,5,3409,123,meters,jsons/VE125_randls_41.json,869452,1483041,36,Woman
39,137165,DepthScenes,duration_manipulation_targetAtFixation,jsons/VE125_randls_41.json,http://54.235.29.9/FacialAge/BNav_EC2/DepthDuration/v2_depth_duration_MTurk/v2_DepthDuration_HTML.html#467,467,1600,789,1600,900,9-3-2022,6-12-56,40,depth_duration_stimuli/000103_2014-05-14_22-01-17_260595134347_rgbf000152-resize_5/000103_2014-05-14_22-01-17_260595134347_rgbf000152-resize_5-target.png,125,1.993,0,3067,124,meters,jsons/VE125_randls_41.json,869452,1483041,36,Woman
40,137165,DepthScenes,duration_manipulation_targetAtFixation,jsons/VE125_randls_41.json,http://54.235.29.9/FacialAge/BNav_EC2/DepthDuration/v2_depth_duration_MTurk/v2_DepthDuration_HTML.html#467,467,1600,789,1600,900,9-3-2022,6-12-56,41,depth_duration_stimuli/001158_2014-06-17_15-32-16_260595134347_rgbf000138-resize_2/001158_2014-06-17_15-32-16_260595134347_rgbf000138-resize_2-target.png,125,4.5315,0,2899,125,meters,jsons/VE125_randls_41.json,869452,1483041,36,Woman
41,137165,DepthScenes,duration_manipulation_targetAtFixation,jsons/VE125_randls_41.json,http://54.235.29.9/FacialAge/BNav_EC2/DepthDuration/v2_depth_duration_MTurk/v2_DepthDuration_HTML.html#467,467,1600,789,1600,900,9-3-2022,6-12-56,42,depth_duration_stimuli/000556_2014-06-09_22-42-56_260595134347_rgbf000214-resize_1/000556_2014-06-09_22-42-56_260595134347_rgbf000214-resize_1-target.png,125,4.8415,10,4906,122,meters,jsons/VE125_randls_41.json,869452,1483041,36,Woman
42,137165,DepthScenes,duration_manipulation_targetAtFixation,jsons/VE125_randls_41.json,http://54.235.29.9/FacialAge/BNav_EC2/DepthDuration/v2_depth_duration_MTurk/v2_DepthDuration_HTML.html#467,467,1600,789,1600,900,9-3-2022,6-12-56,43,depth_duration_stimuli/002905_2014-06-03_18-04-43_094959634447_rgbf000151-resize_2/002905_2014-06-03_18-04-43_094959634447_rgbf000151-resize_2-target.png,125,2.0295,0,2938,123,meters,jsons/VE125_randls_41.json,869452,1483041,36,Woman
43,137165,DepthScenes,duration_manipulation_targetAtFixation,jsons/VE125_randls_41.json,http://54.235.29.9/FacialAge/BNav_EC2/DepthDuration/v2_depth_duration_MTurk/v2_DepthDuration_HTML.html#467,467,1600,789,1600,900,9-3-2022,6-12-56,44,depth_duration_stimuli/003423_2014-05-21_10-23-26_094959634447_rgbf002665-resize_2/003423_2014-05-21_10-23-26_094959634447_rgbf002665-resize_2-target.png,125,3.2575,10,3042,124,meters,jsons/VE125_randls_41.json,869452,1483041,36,Woman
44,137165,DepthScenes,duration_manipulation_targetAtFixation,jsons/VE125_randls_41.json,http://54.235.29.9/FacialAge/BNav_EC2/DepthDuration/v2_depth_duration_MTurk/v2_DepthDuration_HTML.html#467,467,1600,789,1600,900,9-3-2022,6-12-56,45,depth_duration_stimuli/000787_2014-06-08_22-33-53_260595134347_rgbf000175-resize_1/000787_2014-06-08_22-33-53_260595134347_rgbf000175-resize-original.jpg,125,4.784,0,2842,124,meters,jsons/VE125_randls_41.json,869452,1483041,36,Woman
45,137165,DepthScenes,duration_manipulation_targetAtFixation,jsons/VE125_randls_41.json,http://54.235.29.9/FacialAge/BNav_EC2/DepthDuration/v2_depth_duration_MTurk/v2_DepthDuration_HTML.html#467,467,1600,789,1600,900,9-3-2022,6-12-56,46,depth_duration_stimuli/001570_2014-06-20_17-21-09_260595134347_rgbf000135-resize_4/001570_2014-06-20_17-21-09_260595134347_rgbf000135-resize_4-target.png,125,4.467,0,2155,122,meters,jsons/VE125_randls_41.json,869452,1483041,36,Woman
46,137165,DepthScenes,duration_manipulation_targetAtFixation,jsons/VE125_randls_41.json,http://54.235.29.9/FacialAge/BNav_EC2/DepthDuration/v2_depth_duration_MTurk/v2_DepthDuration_HTML.html#467,467,1600,789,1600,900,9-3-2022,6-12-56,47,depth_duration_stimuli/001392_2014-06-19_16-07-59_260595134347_rgbf000046-resize_1/001392_2014-06-19_16-07-59_260595134347_rgbf000046-resize_1-target.png,125,4.135,0,2370,123,meters,jsons/VE125_randls_41.json,869452,1483041,36,Woman
47,137165,DepthScenes,duration_manipulation_targetAtFixation,jsons/VE125_randls_41.json,http://54.235.29.9/FacialAge/BNav_EC2/DepthDuration/v2_depth_duration_MTurk/v2_DepthDuration_HTML.html#467,467,1600,789,1600,900,9-3-2022,6-12-56,48,depth_duration_stimuli/001806_2014-06-26_20-50-20_260595134347_rgbf000091-resize_1/001806_2014-06-26_20-50-20_260595134347_rgbf000091-resize_1-target.png,125,2.7305,8,5619,124,meters,jsons/VE125_randls_41.json,869452,1483041,36,Woman
48,137165,DepthScenes,duration_manipulation_targetAtFixation,jsons/VE125_randls_41.json,http://54.235.29.9/FacialAge/BNav_EC2/DepthDuration/v2_depth_duration_MTurk/v2_DepthDuration_HTML.html#467,467,1600,789,1600,900,9-3-2022,6-12-56,49,depth_duration_stimuli/001617_2014-06-20_11-35-32_260595134347_rgbf000066-resize_1/001617_2014-06-20_11-35-32_260595134347_rgbf000066-resize_1-target.png,125,3.7910000000000004,1,6330,124,meters,jsons/VE125_randls_41.json,869452,1483041,36,Woman
49,137165,DepthScenes,duration_manipulation_targetAtFixation,jsons/VE125_randls_41.json,http://54.235.29.9/FacialAge/BNav_EC2/DepthDuration/v2_depth_duration_MTurk/v2_DepthDuration_HTML.html#467,467,1600,789,1600,900,9-3-2022,6-12-56,50,depth_duration_stimuli/000470_2014-06-09_19-42-40_260595134347_rgbf000094-resize_1/000470_2014-06-09_19-42-40_260595134347_rgbf000094-resize_1-target.png,125,1.831,0,3066,123,meters,jsons/VE125_randls_41.json,869452,1483041,36,Woman
50,137165,DepthScenes,duration_manipulation_targetAtFixation,jsons/VE125_randls_41.json,http://54.235.29.9/FacialAge/BNav_EC2/DepthDuration/v2_depth_duration_MTurk/v2_DepthDuration_HTML.html#467,467,1600,789,1600,900,9-3-2022,6-12-56,51,depth_duration_stimuli/000109_2014-05-14_23-41-52_260595134347_rgbf000035-resize_9/000109_2014-05-14_23-41-52_260595134347_rgbf000035-resize_9-target.png,125,1.3545,0,2361,124,meters,jsons/VE125_randls_41.json,869452,1483041,36,Woman
51,137165,DepthScenes,duration_manipulation_targetAtFixation,jsons/VE125_randls_41.json,http://54.235.29.9/FacialAge/BNav_EC2/DepthDuration/v2_depth_duration_MTurk/v2_DepthDuration_HTML.html#467,467,1600,789,1600,900,9-3-2022,6-12-56,52,depth_duration_stimuli/002663_2014-06-13_15-50-26_094959634447_rgbf000075-resize_1/002663_2014-06-13_15-50-26_094959634447_rgbf000075-resize_1-target.png,125,4.7495,0,2098,124,meters,jsons/VE125_randls_41.json,869452,1483041,36,Woman
52,137165,DepthScenes,duration_manipulation_targetAtFixation,jsons/VE125_randls_41.json,http://54.235.29.9/FacialAge/BNav_EC2/DepthDuration/v2_depth_duration_MTurk/v2_DepthDuration_HTML.html#467,467,1600,789,1600,900,9-3-2022,6-12-56,53,depth_duration_stimuli/000409_2014-06-04_19-23-33_260595134347_rgbf000067-resize_0/000409_2014-06-04_19-23-33_260595134347_rgbf000067-resize_0-target.png,125,3.7335,0,3265,122,meters,jsons/VE125_randls_41.json,869452,1483041,36,Woman
53,137165,DepthScenes,duration_manipulation_targetAtFixation,jsons/VE125_randls_41.json,http://54.235.29.9/FacialAge/BNav_EC2/DepthDuration/v2_depth_duration_MTurk/v2_DepthDuration_HTML.html#467,467,1600,789,1600,900,9-3-2022,6-12-56,54,depth_duration_stimuli/002118_2014-06-25_20-32-08_260595134347_rgbf000078-resize_1/002118_2014-06-25_20-32-08_260595134347_rgbf000078-resize_1-target.png,125,2.6460000000000004,0,3395,124,meters,jsons/VE125_randls_41.json,869452,1483041,36,Woman
54,137165,DepthScenes,duration_manipulation_targetAtFixation,jsons/VE125_randls_41.json,http://54.235.29.9/FacialAge/BNav_EC2/DepthDuration/v2_depth_duration_MTurk/v2_DepthDuration_HTML.html#467,467,1600,789,1600,900,9-3-2022,6-12-56,55,depth_duration_stimuli/001516_2014-06-20_16-25-09_260595134347_rgbf000076-resize_2/001516_2014-06-20_16-25-09_260595134347_rgbf000076-resize_2-target.png,125,1.7445,0,2114,121,meters,jsons/VE125_randls_41.json,869452,1483041,36,Woman
55,137165,DepthScenes,duration_manipulation_targetAtFixation,jsons/VE125_randls_41.json,http://54.235.29.9/FacialAge/BNav_EC2/DepthDuration/v2_depth_duration_MTurk/v2_DepthDuration_HTML.html#467,467,1600,789,1600,900,9-3-2022,6-12-56,56,depth_duration_stimuli/002039_2014-06-24_20-22-38_260595134347_rgbf000084-resize_1/002039_2014-06-24_20-22-38_260595134347_rgbf000084-resize_1-target.png,125,4.408,0,2233,123,meters,jsons/VE125_randls_41.json,869452,1483041,36,Woman
56,137165,DepthScenes,duration_manipulation_targetAtFixation,jsons/VE125_randls_41.json,http://54.235.29.9/FacialAge/BNav_EC2/DepthDuration/v2_depth_duration_MTurk/v2_DepthDuration_HTML.html#467,467,1600,789,1600,900,9-3-2022,6-12-56,57,depth_duration_stimuli/002103_2014-06-25_20-00-40_260595134347_rgbf000049-resize_0/002103_2014-06-25_20-00-40_260595134347_rgbf000049-resize_0-target.png,125,4.105,0,3930,123,meters,jsons/VE125_randls_41.json,869452,1483041,36,Woman
57,137165,DepthScenes,duration_manipulation_targetAtFixation,jsons/VE125_randls_41.json,http://54.235.29.9/FacialAge/BNav_EC2/DepthDuration/v2_depth_duration_MTurk/v2_DepthDuration_HTML.html#467,467,1600,789,1600,900,9-3-2022,6-12-56,58,depth_duration_stimuli/001066_2014-06-08_22-03-20_260595134347_rgbf000066-resize_4/001066_2014-06-08_22-03-20_260595134347_rgbf000066-resize_4-target.png,125,4.2330000000000005,5,3289,124,meters,jsons/VE125_randls_41.json,869452,1483041,36,Woman
58,137165,DepthScenes,duration_manipulation_targetAtFixation,jsons/VE125_randls_41.json,http://54.235.29.9/FacialAge/BNav_EC2/DepthDuration/v2_depth_duration_MTurk/v2_DepthDuration_HTML.html#467,467,1600,789,1600,900,9-3-2022,6-12-56,59,depth_duration_stimuli/000742_2014-06-08_18-48-09_260595134347_rgbf000164-resize_4/000742_2014-06-08_18-48-09_260595134347_rgbf000164-resize_4-target.png,125,4.632,6,3378,124,meters,jsons/VE125_randls_41.json,869452,1483041,36,Woman
59,137165,DepthScenes,duration_manipulation_targetAtFixation,jsons/VE125_randls_41.json,http://54.235.29.9/FacialAge/BNav_EC2/DepthDuration/v2_depth_duration_MTurk/v2_DepthDuration_HTML.html#467,467,1600,789,1600,900,9-3-2022,6-12-56,60,depth_duration_stimuli/000493_2014-06-09_21-01-18_260595134347_rgbf000196-resize_3/000493_2014-06-09_21-01-18_260595134347_rgbf000196-resize_3-target.png,125,3.44,0,3337,125,meters,jsons/VE125_randls_41.json,869452,1483041,36,Woman
60,137165,DepthScenes,duration_manipulation_targetAtFixation,jsons/VE125_randls_41.json,http://54.235.29.9/FacialAge/BNav_EC2/DepthDuration/v2_depth_duration_MTurk/v2_DepthDuration_HTML.html#467,467,1600,789,1600,900,9-3-2022,6-12-56,61,depth_duration_stimuli/000191_2014-05-12_17-07-38_260595134347_rgbf000199-resize_0/000191_2014-05-12_17-07-38_260595134347_rgbf000199-resize_0-target.png,125,3.7995,0,2067,124,meters,jsons/VE125_randls_41.json,869452,1483041,36,Woman
61,137165,DepthScenes,duration_manipulation_targetAtFixation,jsons/VE125_randls_41.json,http://54.235.29.9/FacialAge/BNav_EC2/DepthDuration/v2_depth_duration_MTurk/v2_DepthDuration_HTML.html#467,467,1600,789,1600,900,9-3-2022,6-12-56,62,depth_duration_stimuli/002279_2014-06-28_18-55-32_260595134347_rgbf000040-resize_5/002279_2014-06-28_18-55-32_260595134347_rgbf000040-resize_5-target.png,125,1.5043333333333,0,2450,123,meters,jsons/VE125_randls_41.json,869452,1483041,36,Woman
62,137165,DepthScenes,duration_manipulation_targetAtFixation,jsons/VE125_randls_41.json,http://54.235.29.9/FacialAge/BNav_EC2/DepthDuration/v2_depth_duration_MTurk/v2_DepthDuration_HTML.html#467,467,1600,789,1600,900,9-3-2022,6-12-56,63,depth_duration_stimuli/000635_2014-06-08_16-38-42_260595134347_rgbf000106-resize_1/000635_2014-06-08_16-38-42_260595134347_rgbf000106-resize_1-target.png,125,2.074,0,17339,124,meters,jsons/VE125_randls_41.json,869452,1483041,36,Woman
63,137165,DepthScenes,duration_manipulation_targetAtFixation,jsons/VE125_randls_41.json,http://54.235.29.9/FacialAge/BNav_EC2/DepthDuration/v2_depth_duration_MTurk/v2_DepthDuration_HTML.html#467,467,1600,789,1600,900,9-3-2022,6-12-56,64,depth_duration_stimuli/000009_2014-05-26_14-32-05_260595134347_rgbf000034-resize_3/000009_2014-05-26_14-32-05_260595134347_rgbf000034-resize_3-target.png,125,3.8715,0,2459,125,meters,jsons/VE125_randls_41.json,869452,1483041,36,Woman
64,137165,DepthScenes,duration_manipulation_targetAtFixation,jsons/VE125_randls_41.json,http://54.235.29.9/FacialAge/BNav_EC2/DepthDuration/v2_depth_duration_MTurk/v2_DepthDuration_HTML.html#467,467,1600,789,1600,900,9-3-2022,6-12-56,65,depth_duration_stimuli/001828_2014-06-26_21-40-03_260595134347_rgbf000024-resize_0/001828_2014-06-26_21-40-03_260595134347_rgbf000024-resize_0-target.png,125,4.8260000000000005,0,2203,130,meters,jsons/VE125_randls_41.json,869452,1483041,36,Woman
65,137165,DepthScenes,duration_manipulation_targetAtFixation,jsons/VE125_randls_41.json,http://54.235.29.9/FacialAge/BNav_EC2/DepthDuration/v2_depth_duration_MTurk/v2_DepthDuration_HTML.html#467,467,1600,789,1600,900,9-3-2022,6-12-56,66,depth_duration_stimuli/001222_2014-06-17_16-24-06_260595134347_rgbf000073-resize_0/001222_2014-06-17_16-24-06_260595134347_rgbf000073-resize-original.jpg,125,1.4385,0,4571,125,meters,jsons/VE125_randls_41.json,869452,1483041,36,Woman
66,137165,DepthScenes,duration_manipulation_targetAtFixation,jsons/VE125_randls_41.json,http://54.235.29.9/FacialAge/BNav_EC2/DepthDuration/v2_depth_duration_MTurk/v2_DepthDuration_HTML.html#467,467,1600,789,1600,900,9-3-2022,6-12-56,67,depth_duration_stimuli/000736_2014-06-08_18-24-15_260595134347_rgbf000206-resize_3/000736_2014-06-08_18-24-15_260595134347_rgbf000206-resize_3-target.png,125,3.515,3,5273,122,meters,jsons/VE125_randls_41.json,869452,1483041,36,Woman
67,137165,DepthScenes,duration_manipulation_targetAtFixation,jsons/VE125_randls_41.json,http://54.235.29.9/FacialAge/BNav_EC2/DepthDuration/v2_depth_duration_MTurk/v2_DepthDuration_HTML.html#467,467,1600,789,1600,900,9-3-2022,6-12-56,68,depth_duration_stimuli/000137_2014-05-20_17-04-49_260595134347_rgbf000120-resize_1/000137_2014-05-20_17-04-49_260595134347_rgbf000120-resize_1-target.png,125,3.786,0,2731,123,meters,jsons/VE125_randls_41.json,869452,1483041,36,Woman
68,137165,DepthScenes,duration_manipulation_targetAtFixation,jsons/VE125_randls_41.json,http://54.235.29.9/FacialAge/BNav_EC2/DepthDuration/v2_depth_duration_MTurk/v2_DepthDuration_HTML.html#467,467,1600,789,1600,900,9-3-2022,6-12-56,69,depth_duration_stimuli/001810_2014-06-26_20-51-35_260595134347_rgbf000040-resize_3/001810_2014-06-26_20-51-35_260595134347_rgbf000040-resize_3-target.png,125,2.2525,0,1985,125,meters,jsons/VE125_randls_41.json,869452,1483041,36,Woman
69,137165,DepthScenes,duration_manipulation_targetAtFixation,jsons/VE125_randls_41.json,http://54.235.29.9/FacialAge/BNav_EC2/DepthDuration/v2_depth_duration_MTurk/v2_DepthDuration_HTML.html#467,467,1600,789,1600,900,9-3-2022,6-12-56,70,depth_duration_stimuli/003010_2014-06-15_12-54-35_094959634447_rgbf000112-resize_0/003010_2014-06-15_12-54-35_094959634447_rgbf000112-resize_0-target.png,125,3.1185,0,1946,124,meters,jsons/VE125_randls_41.json,869452,1483041,36,Woman
70,137165,DepthScenes,duration_manipulation_targetAtFixation,jsons/VE125_randls_41.json,http://54.235.29.9/FacialAge/BNav_EC2/DepthDuration/v2_depth_duration_MTurk/v2_DepthDuration_HTML.html#467,467,1600,789,1600,900,9-3-2022,6-12-56,71,depth_duration_stimuli/002057_2014-06-24_21-00-13_260595134347_rgbf000120-resize_1/002057_2014-06-24_21-00-13_260595134347_rgbf000120-resize_1-target.png,125,2.967,5,2883,124,meters,jsons/VE125_randls_41.json,869452,1483041,36,Woman
71,137165,DepthScenes,duration_manipulation_targetAtFixation,jsons/VE125_randls_41.json,http://54.235.29.9/FacialAge/BNav_EC2/DepthDuration/v2_depth_duration_MTurk/v2_DepthDuration_HTML.html#467,467,1600,789,1600,900,9-3-2022,6-12-56,72,depth_duration_stimuli/000709_2014-06-08_13-51-55_260595134347_rgbf000068-resize_3/000709_2014-06-08_13-51-55_260595134347_rgbf000068-resize_3-target.png,125,1.8030000000000002,6,2601,123,meters,jsons/VE125_randls_41.json,869452,1483041,36,Woman
72,137165,DepthScenes,duration_manipulation_targetAtFixation,jsons/VE125_randls_41.json,http://54.235.29.9/FacialAge/BNav_EC2/DepthDuration/v2_depth_duration_MTurk/v2_DepthDuration_HTML.html#467,467,1600,789,1600,900,9-3-2022,6-12-56,73,depth_duration_stimuli/000788_2014-06-08_22-34-36_260595134347_rgbf000131-resize_1/000788_2014-06-08_22-34-36_260595134347_rgbf000131-resize_1-target.png,125,3.359,2,3130,124,meters,jsons/VE125_randls_41.json,869452,1483041,36,Woman
73,137165,DepthScenes,duration_manipulation_targetAtFixation,jsons/VE125_randls_41.json,http://54.235.29.9/FacialAge/BNav_EC2/DepthDuration/v2_depth_duration_MTurk/v2_DepthDuration_HTML.html#467,467,1600,789,1600,900,9-3-2022,6-12-56,74,depth_duration_stimuli/001235_2014-06-17_16-37-36_260595134347_rgbf000084-resize_4/001235_2014-06-17_16-37-36_260595134347_rgbf000084-resize_4-target.png,125,3.6605,0,2644,125,meters,jsons/VE125_randls_41.json,869452,1483041,36,Woman
74,137165,DepthScenes,duration_manipulation_targetAtFixation,jsons/VE125_randls_41.json,http://54.235.29.9/FacialAge/BNav_EC2/DepthDuration/v2_depth_duration_MTurk/v2_DepthDuration_HTML.html#467,467,1600,789,1600,900,9-3-2022,6-12-56,75,depth_duration_stimuli/002784_2014-06-22_19-26-30_094959634447_rgbf000083-resize_3/002784_2014-06-22_19-26-30_094959634447_rgbf000083-resize_3-target.png,125,1.8046666666667,0,2016,123,meters,jsons/VE125_randls_41.json,869452,1483041,36,Woman
75,137165,DepthScenes,duration_manipulation_targetAtFixation,jsons/VE125_randls_41.json,http://54.235.29.9/FacialAge/BNav_EC2/DepthDuration/v2_depth_duration_MTurk/v2_DepthDuration_HTML.html#467,467,1600,789,1600,900,9-3-2022,6-12-56,76,depth_duration_stimuli/001100_2014-06-15_17-46-26_260595134347_rgbf000225-resize_2/001100_2014-06-15_17-46-26_260595134347_rgbf000225-resize_2-target.png,125,2.24,0,1874,123,meters,jsons/VE125_randls_41.json,869452,1483041,36,Woman
76,137165,DepthScenes,duration_manipulation_targetAtFixation,jsons/VE125_randls_41.json,http://54.235.29.9/FacialAge/BNav_EC2/DepthDuration/v2_depth_duration_MTurk/v2_DepthDuration_HTML.html#467,467,1600,789,1600,900,9-3-2022,6-12-56,77,depth_duration_stimuli/002043_2014-06-24_20-29-38_260595134347_rgbf000039-resize_4/002043_2014-06-24_20-29-38_260595134347_rgbf000039-resize_4-target.png,125,2.8435,0,1777,123,meters,jsons/VE125_randls_41.json,869452,1483041,36,Woman
77,137165,DepthScenes,duration_manipulation_targetAtFixation,jsons/VE125_randls_41.json,http://54.235.29.9/FacialAge/BNav_EC2/DepthDuration/v2_depth_duration_MTurk/v2_DepthDuration_HTML.html#467,467,1600,789,1600,900,9-3-2022,6-12-56,78,depth_duration_stimuli/003048_2014-06-15_13-49-43_094959634447_rgbf000150-resize_1/003048_2014-06-15_13-49-43_094959634447_rgbf000150-resize_1-target.png,125,4.0035,0,1899,124,meters,jsons/VE125_randls_41.json,869452,1483041,36,Woman
78,137165,DepthScenes,duration_manipulation_targetAtFixation,jsons/VE125_randls_41.json,http://54.235.29.9/FacialAge/BNav_EC2/DepthDuration/v2_depth_duration_MTurk/v2_DepthDuration_HTML.html#467,467,1600,789,1600,900,9-3-2022,6-12-56,79,depth_duration_stimuli/000906_2014-06-08_13-35-43_260595134347_rgbf000155-resize_1/000906_2014-06-08_13-35-43_260595134347_rgbf000155-resize_1-target.png,125,2.8489999999999998,4,3139,125,meters,jsons/VE125_randls_41.json,869452,1483041,36,Woman
79,137165,DepthScenes,duration_manipulation_targetAtFixation,jsons/VE125_randls_41.json,http://54.235.29.9/FacialAge/BNav_EC2/DepthDuration/v2_depth_duration_MTurk/v2_DepthDuration_HTML.html#467,467,1600,789,1600,900,9-3-2022,6-12-56,80,depth_duration_stimuli/002805_2014-06-22_19-54-03_094959634447_rgbf000079-resize_1/002805_2014-06-22_19-54-03_094959634447_rgbf000079-resize_1-target.png,125,3.1439999999999997,8,5115,124,meters,jsons/VE125_randls_41.json,869452,1483041,36,Woman
80,137165,DepthScenes,duration_manipulation_targetAtFixation,jsons/VE125_randls_41.json,http://54.235.29.9/FacialAge/BNav_EC2/DepthDuration/v2_depth_duration_MTurk/v2_DepthDuration_HTML.html#467,467,1600,789,1600,900,9-3-2022,6-12-56,81,depth_duration_stimuli/000773_2014-06-08_22-24-54_260595134347_rgbf000093-resize_1/000773_2014-06-08_22-24-54_260595134347_rgbf000093-resize_1-target.png,125,4.973,0,2330,124,meters,jsons/VE125_randls_41.json,869452,1483041,36,Woman
81,137165,DepthScenes,duration_manipulation_targetAtFixation,jsons/VE125_randls_41.json,http://54.235.29.9/FacialAge/BNav_EC2/DepthDuration/v2_depth_duration_MTurk/v2_DepthDuration_HTML.html#467,467,1600,789,1600,900,9-3-2022,6-12-56,82,depth_duration_stimuli/002414_2014-06-28_20-24-58_260595134347_rgbf000067-resize_4/002414_2014-06-28_20-24-58_260595134347_rgbf000067-resize_4-target.png,125,4.363,5,4002,124,meters,jsons/VE125_randls_41.json,869452,1483041,36,Woman
82,137165,DepthScenes,duration_manipulation_targetAtFixation,jsons/VE125_randls_41.json,http://54.235.29.9/FacialAge/BNav_EC2/DepthDuration/v2_depth_duration_MTurk/v2_DepthDuration_HTML.html#467,467,1600,789,1600,900,9-3-2022,6-12-56,83,depth_duration_stimuli/003492_2014-05-21_15-50-55_094959634447_rgbf000828-resize_1/003492_2014-05-21_15-50-55_094959634447_rgbf000828-resize_1-target.png,125,4.06875,0,3043,126,meters,jsons/VE125_randls_41.json,869452,1483041,36,Woman
83,137165,DepthScenes,duration_manipulation_targetAtFixation,jsons/VE125_randls_41.json,http://54.235.29.9/FacialAge/BNav_EC2/DepthDuration/v2_depth_duration_MTurk/v2_DepthDuration_HTML.html#467,467,1600,789,1600,900,9-3-2022,6-12-56,84,depth_duration_stimuli/002568_2014-06-24_13-59-21_094959634447_rgbf000062-resize_4/002568_2014-06-24_13-59-21_094959634447_rgbf000062-resize_4-target.png,125,3.015,0,1859,123,meters,jsons/VE125_randls_41.json,869452,1483041,36,Woman
84,137165,DepthScenes,duration_manipulation_targetAtFixation,jsons/VE125_randls_41.json,http://54.235.29.9/FacialAge/BNav_EC2/DepthDuration/v2_depth_duration_MTurk/v2_DepthDuration_HTML.html#467,467,1600,789,1600,900,9-3-2022,6-12-56,85,depth_duration_stimuli/000642_2014-06-08_16-59-25_260595134347_rgbf000098-resize_2/000642_2014-06-08_16-59-25_260595134347_rgbf000098-resize_2-target.png,125,2.8815,0,1936,122,meters,jsons/VE125_randls_41.json,869452,1483041,36,Woman
85,137165,DepthScenes,duration_manipulation_targetAtFixation,jsons/VE125_randls_41.json,http://54.235.29.9/FacialAge/BNav_EC2/DepthDuration/v2_depth_duration_MTurk/v2_DepthDuration_HTML.html#467,467,1600,789,1600,900,9-3-2022,6-12-56,86,depth_duration_stimuli/002425_2014-06-28_20-27-29_260595134347_rgbf000031-resize_8/002425_2014-06-28_20-27-29_260595134347_rgbf000031-resize_8-target.png,125,3.8960000000000004,0,1810,124,meters,jsons/VE125_randls_41.json,869452,1483041,36,Woman
86,137165,DepthScenes,duration_manipulation_targetAtFixation,jsons/VE125_randls_41.json,http://54.235.29.9/FacialAge/BNav_EC2/DepthDuration/v2_depth_duration_MTurk/v2_DepthDuration_HTML.html#467,467,1600,789,1600,900,9-3-2022,6-12-56,87,depth_duration_stimuli/001244_2014-06-17_16-47-45_260595134347_rgbf000030-resize_4/001244_2014-06-17_16-47-45_260595134347_rgbf000030-resize_4-target.png,125,2.0425,0,1844,124,meters,jsons/VE125_randls_41.json,869452,1483041,36,Woman
87,137165,DepthScenes,duration_manipulation_targetAtFixation,jsons/VE125_randls_41.json,http://54.235.29.9/FacialAge/BNav_EC2/DepthDuration/v2_depth_duration_MTurk/v2_DepthDuration_HTML.html#467,467,1600,789,1600,900,9-3-2022,6-12-56,88,depth_duration_stimuli/003495_2014-05-21_16-01-51_094959634447_rgbf000100-resize_3/003495_2014-05-21_16-01-51_094959634447_rgbf000100-resize_3-target.png,125,1.6255,0,1864,124,meters,jsons/VE125_randls_41.json,869452,1483041,36,Woman
88,137165,DepthScenes,duration_manipulation_targetAtFixation,jsons/VE125_randls_41.json,http://54.235.29.9/FacialAge/BNav_EC2/DepthDuration/v2_depth_duration_MTurk/v2_DepthDuration_HTML.html#467,467,1600,789,1600,900,9-3-2022,6-12-56,89,depth_duration_stimuli/001110_2014-06-15_17-25-28_260595134347_rgbf000150-resize_1/001110_2014-06-15_17-25-28_260595134347_rgbf000150-resize_1-target.png,125,1.7115,0,2508,124,meters,jsons/VE125_randls_41.json,869452,1483041,36,Woman
89,137165,DepthScenes,duration_manipulation_targetAtFixation,jsons/VE125_randls_41.json,http://54.235.29.9/FacialAge/BNav_EC2/DepthDuration/v2_depth_duration_MTurk/v2_DepthDuration_HTML.html#467,467,1600,789,1600,900,9-3-2022,6-12-56,90,depth_duration_stimuli/000927_2014-06-09_16-32-30_260595134347_rgbf000123-resize_3/000927_2014-06-09_16-32-30_260595134347_rgbf000123-resize_3-target.png,125,2.6785,2,3210,123,meters,jsons/VE125_randls_41.json,869452,1483041,36,Woman
90,137165,DepthScenes,duration_manipulation_targetAtFixation,jsons/VE125_randls_41.json,http://54.235.29.9/FacialAge/BNav_EC2/DepthDuration/v2_depth_duration_MTurk/v2_DepthDuration_HTML.html#467,467,1600,789,1600,900,9-3-2022,6-12-56,91,depth_duration_stimuli/000414_2014-06-04_19-49-13_260595134347_rgbf000044-resize_0/000414_2014-06-04_19-49-13_260595134347_rgbf000044-resize_0-target.png,125,4.329,0,2618,124,meters,jsons/VE125_randls_41.json,869452,1483041,36,Woman
91,137165,DepthScenes,duration_manipulation_targetAtFixation,jsons/VE125_randls_41.json,http://54.235.29.9/FacialAge/BNav_EC2/DepthDuration/v2_depth_duration_MTurk/v2_DepthDuration_HTML.html#467,467,1600,789,1600,900,9-3-2022,6-12-56,92,depth_duration_stimuli/003129_2014-05-12_10-48-10_094959634447_rgbf000100-resize_0/003129_2014-05-12_10-48-10_094959634447_rgbf000100-resize_0-target.png,125,4.9305,0,5156,125,meters,jsons/VE125_randls_41.json,869452,1483041,36,Woman
92,137165,DepthScenes,duration_manipulation_targetAtFixation,jsons/VE125_randls_41.json,http://54.235.29.9/FacialAge/BNav_EC2/DepthDuration/v2_depth_duration_MTurk/v2_DepthDuration_HTML.html#467,467,1600,789,1600,900,9-3-2022,6-12-56,93,depth_duration_stimuli/000522_2014-06-08_13-35-06_260595134347_rgbf000244-resize_1/000522_2014-06-08_13-35-06_260595134347_rgbf000244-resize_1-target.png,125,2.3715,0,2321,123,meters,jsons/VE125_randls_41.json,869452,1483041,36,Woman
93,137165,DepthScenes,duration_manipulation_targetAtFixation,jsons/VE125_randls_41.json,http://54.235.29.9/FacialAge/BNav_EC2/DepthDuration/v2_depth_duration_MTurk/v2_DepthDuration_HTML.html#467,467,1600,789,1600,900,9-3-2022,6-12-56,94,depth_duration_stimuli/002949_2014-06-26_15-57-42_094959634447_rgbf000079-resize_1/002949_2014-06-26_15-57-42_094959634447_rgbf000079-resize_1-target.png,125,1.8915,0,2314,123,meters,jsons/VE125_randls_41.json,869452,1483041,36,Woman
94,137165,DepthScenes,duration_manipulation_targetAtFixation,jsons/VE125_randls_41.json,http://54.235.29.9/FacialAge/BNav_EC2/DepthDuration/v2_depth_duration_MTurk/v2_DepthDuration_HTML.html#467,467,1600,789,1600,900,9-3-2022,6-12-56,95,depth_duration_stimuli/000917_2014-06-09_22-45-29_260595134347_rgbf000149-resize_3/000917_2014-06-09_22-45-29_260595134347_rgbf000149-resize_3-target.png,125,4.1865,0,2132,124,meters,jsons/VE125_randls_41.json,869452,1483041,36,Woman
95,137165,DepthScenes,duration_manipulation_targetAtFixation,jsons/VE125_randls_41.json,http://54.235.29.9/FacialAge/BNav_EC2/DepthDuration/v2_depth_duration_MTurk/v2_DepthDuration_HTML.html#467,467,1600,789,1600,900,9-3-2022,6-12-56,96,depth_duration_stimuli/002323_2014-06-28_20-01-54_260595134347_rgbf000051-resize_4/002323_2014-06-28_20-01-54_260595134347_rgbf000051-resize_4-target.png,125,3.7310000000000003,0,1968,122,meters,jsons/VE125_randls_41.json,869452,1483041,36,Woman
96,137165,DepthScenes,duration_manipulation_targetAtFixation,jsons/VE125_randls_41.json,http://54.235.29.9/FacialAge/BNav_EC2/DepthDuration/v2_depth_duration_MTurk/v2_DepthDuration_HTML.html#467,467,1600,789,1600,900,9-3-2022,6-12-56,97,depth_duration_stimuli/001011_2014-06-08_23-18-54_260595134347_rgbf000044-resize_4/001011_2014-06-08_23-18-54_260595134347_rgbf000044-resize_4-target.png,125,2.4730000000000003,0,1988,126,meters,jsons/VE125_randls_41.json,869452,1483041,36,Woman
97,137165,DepthScenes,duration_manipulation_targetAtFixation,jsons/VE125_randls_41.json,http://54.235.29.9/FacialAge/BNav_EC2/DepthDuration/v2_depth_duration_MTurk/v2_DepthDuration_HTML.html#467,467,1600,789,1600,900,9-3-2022,6-12-56,98,depth_duration_stimuli/002875_2014-06-01_15-19-00_094959634447_rgbf000151-resize_1/002875_2014-06-01_15-19-00_094959634447_rgbf000151-resize_1-target.png,125,1.9675,0,2403,126,meters,jsons/VE125_randls_41.json,869452,1483041,36,Woman
98,137165,DepthScenes,duration_manipulation_targetAtFixation,jsons/VE125_randls_41.json,http://54.235.29.9/FacialAge/BNav_EC2/DepthDuration/v2_depth_duration_MTurk/v2_DepthDuration_HTML.html#467,467,1600,789,1600,900,9-3-2022,6-12-56,99,depth_duration_stimuli/001540_2014-06-20_17-01-05_260595134347_rgbf000086-resize_2/001540_2014-06-20_17-01-05_260595134347_rgbf000086-resize-original.jpg,125,1.459,0,2065,122,meters,jsons/VE125_randls_41.json,869452,1483041,36,Woman
99,137165,DepthScenes,duration_manipulation_targetAtFixation,jsons/VE125_randls_41.json,http://54.235.29.9/FacialAge/BNav_EC2/DepthDuration/v2_depth_duration_MTurk/v2_DepthDuration_HTML.html#467,467,1600,789,1600,900,9-3-2022,6-12-56,100,depth_duration_stimuli/002630_2014-06-24_14-47-50_094959634447_rgbf000055-resize_1/002630_2014-06-24_14-47-50_094959634447_rgbf000055-resize_1-target.png,125,3.0095,0,39164,125,meters,jsons/VE125_randls_41.json,869452,1483041,36,Woman
100,137165,DepthScenes,duration_manipulation_targetAtFixation,jsons/VE125_randls_41.json,http://54.235.29.9/FacialAge/BNav_EC2/DepthDuration/v2_depth_duration_MTurk/v2_DepthDuration_HTML.html#467,467,1600,789,1600,900,9-3-2022,6-12-56,101,depth_duration_stimuli/002758_2014-06-22_19-11-20_094959634447_rgbf000128-resize_1/002758_2014-06-22_19-11-20_094959634447_rgbf000128-resize_1-target.png,125,2.555,0,2265,124,meters,jsons/VE125_randls_41.json,869452,1483041,36,Woman
101,137165,DepthScenes,duration_manipulation_targetAtFixation,jsons/VE125_randls_41.json,http://54.235.29.9/FacialAge/BNav_EC2/DepthDuration/v2_depth_duration_MTurk/v2_DepthDuration_HTML.html#467,467,1600,789,1600,900,9-3-2022,6-12-56,102,depth_duration_stimuli/002763_2014-06-22_19-13-10_094959634447_rgbf000075-resize_4/002763_2014-06-22_19-13-10_094959634447_rgbf000075-resize_4-target.png,125,1.68375,0,2067,123,meters,jsons/VE125_randls_41.json,869452,1483041,36,Woman
102,137165,DepthScenes,duration_manipulation_targetAtFixation,jsons/VE125_randls_41.json,http://54.235.29.9/FacialAge/BNav_EC2/DepthDuration/v2_depth_duration_MTurk/v2_DepthDuration_HTML.html#467,467,1600,789,1600,900,9-3-2022,6-12-56,103,depth_duration_stimuli/002209_2014-06-28_18-36-10_260595134347_rgbf000051-resize_1/002209_2014-06-28_18-36-10_260595134347_rgbf000051-resize_1-target.png,125,2.057,0,2012,126,meters,jsons/VE125_randls_41.json,869452,1483041,36,Woman
103,137165,DepthScenes,duration_manipulation_targetAtFixation,jsons/VE125_randls_41.json,http://54.235.29.9/FacialAge/BNav_EC2/DepthDuration/v2_depth_duration_MTurk/v2_DepthDuration_HTML.html#467,467,1600,789,1600,900,9-3-2022,6-12-56,104,depth_duration_stimuli/002570_2014-06-24_13-59-54_094959634447_rgbf000059-resize_0/002570_2014-06-24_13-59-54_094959634447_rgbf000059-resize_0-target.png,125,4.037,0,15817,124,meters,jsons/VE125_randls_41.json,869452,1483041,36,Woman
104,137165,DepthScenes,duration_manipulation_targetAtFixation,jsons/VE125_randls_41.json,http://54.235.29.9/FacialAge/BNav_EC2/DepthDuration/v2_depth_duration_MTurk/v2_DepthDuration_HTML.html#467,467,1600,789,1600,900,9-3-2022,6-12-56,105,depth_duration_stimuli/002467_2014-06-28_20-38-07_260595134347_rgbf000026-resize_2/002467_2014-06-28_20-38-07_260595134347_rgbf000026-resize_2-target.png,125,4.742,0,3707,125,meters,jsons/VE125_randls_41.json,869452,1483041,36,Woman
105,137165,DepthScenes,duration_manipulation_targetAtFixation,jsons/VE125_randls_41.json,http://54.235.29.9/FacialAge/BNav_EC2/DepthDuration/v2_depth_duration_MTurk/v2_DepthDuration_HTML.html#467,467,1600,789,1600,900,9-3-2022,6-12-56,106,depth_duration_stimuli/001808_2014-06-26_20-50-58_260595134347_rgbf000029-resize_1/001808_2014-06-26_20-50-58_260595134347_rgbf000029-resize_1-target.png,125,4.249,4,4147,124,meters,jsons/VE125_randls_41.json,869452,1483041,36,Woman
106,137165,DepthScenes,duration_manipulation_targetAtFixation,jsons/VE125_randls_41.json,http://54.235.29.9/FacialAge/BNav_EC2/DepthDuration/v2_depth_duration_MTurk/v2_DepthDuration_HTML.html#467,467,1600,789,1600,900,9-3-2022,6-12-56,107,depth_duration_stimuli/001815_2014-06-26_20-52-55_260595134347_rgbf000020-resize_0/001815_2014-06-26_20-52-55_260595134347_rgbf000020-resize_0-target.png,125,3.3865,3,3194,123,meters,jsons/VE125_randls_41.json,869452,1483041,36,Woman
107,137165,DepthScenes,duration_manipulation_targetAtFixation,jsons/VE125_randls_41.json,http://54.235.29.9/FacialAge/BNav_EC2/DepthDuration/v2_depth_duration_MTurk/v2_DepthDuration_HTML.html#467,467,1600,789,1600,900,9-3-2022,6-12-56,108,depth_duration_stimuli/002964_2014-06-08_17-46-11_094959634447_rgbf000091-resize_4/002964_2014-06-08_17-46-11_094959634447_rgbf000091-resize_4-target.png,125,1.6909999999999998,2,4163,124,meters,jsons/VE125_randls_41.json,869452,1483041,36,Woman
108,137165,DepthScenes,duration_manipulation_targetAtFixation,jsons/VE125_randls_41.json,http://54.235.29.9/FacialAge/BNav_EC2/DepthDuration/v2_depth_duration_MTurk/v2_DepthDuration_HTML.html#467,467,1600,789,1600,900,9-3-2022,6-12-56,109,depth_duration_stimuli/002136_2014-06-25_21-18-03_260595134347_rgbf000109-resize_3/002136_2014-06-25_21-18-03_260595134347_rgbf000109-resize_3-target.png,125,1.9569999999999999,4,35623,119,meters,jsons/VE125_randls_41.json,869452,1483041,36,Woman
109,137165,DepthScenes,duration_manipulation_targetAtFixation,jsons/VE125_randls_41.json,http://54.235.29.9/FacialAge/BNav_EC2/DepthDuration/v2_depth_duration_MTurk/v2_DepthDuration_HTML.html#467,467,1600,789,1600,900,9-3-2022,6-12-56,110,depth_duration_stimuli/003534_2014-05-22_15-06-10_094959634447_rgbf000102-resize_4/003534_2014-05-22_15-06-10_094959634447_rgbf000102-resize_4-target.png,125,1.426,2,5346,124,meters,jsons/VE125_randls_41.json,869452,1483041,36,Woman
110,137165,DepthScenes,duration_manipulation_targetAtFixation,jsons/VE125_randls_41.json,http://54.235.29.9/FacialAge/BNav_EC2/DepthDuration/v2_depth_duration_MTurk/v2_DepthDuration_HTML.html#467,467,1600,789,1600,900,9-3-2022,6-12-56,111,depth_duration_stimuli/002637_2014-06-24_14-51-13_094959634447_rgbf000066-resize_4/002637_2014-06-24_14-51-13_094959634447_rgbf000066-resize_4-target.png,125,1.9955,2,3698,121,meters,jsons/VE125_randls_41.json,869452,1483041,36,Woman
111,137165,DepthScenes,duration_manipulation_targetAtFixation,jsons/VE125_randls_41.json,http://54.235.29.9/FacialAge/BNav_EC2/DepthDuration/v2_depth_duration_MTurk/v2_DepthDuration_HTML.html#467,467,1600,789,1600,900,9-3-2022,6-12-56,112,depth_duration_stimuli/000739_2014-06-08_18-45-58_260595134347_rgbf000068-resize_1/000739_2014-06-08_18-45-58_260595134347_rgbf000068-resize_1-target.png,125,3.534,0,3216,118,meters,jsons/VE125_randls_41.json,869452,1483041,36,Woman
112,137165,DepthScenes,duration_manipulation_targetAtFixation,jsons/VE125_randls_41.json,http://54.235.29.9/FacialAge/BNav_EC2/DepthDuration/v2_depth_duration_MTurk/v2_DepthDuration_HTML.html#467,467,1600,789,1600,900,9-3-2022,6-12-56,113,depth_duration_stimuli/000734_2014-06-08_17-39-11_260595134347_rgbf000128-resize_2/000734_2014-06-08_17-39-11_260595134347_rgbf000128-resize_2-target.png,125,4.098,0,2578,124,meters,jsons/VE125_randls_41.json,869452,1483041,36,Woman
113,137165,DepthScenes,duration_manipulation_targetAtFixation,jsons/VE125_randls_41.json,http://54.235.29.9/FacialAge/BNav_EC2/DepthDuration/v2_depth_duration_MTurk/v2_DepthDuration_HTML.html#467,467,1600,789,1600,900,9-3-2022,6-12-56,114,depth_duration_stimuli/001133_2014-06-17_14-49-16_260595134347_rgbf000100-resize_0/001133_2014-06-17_14-49-16_260595134347_rgbf000100-resize_0-target.png,125,4.2115,0,2042,124,meters,jsons/VE125_randls_41.json,869452,1483041,36,Woman
114,137165,DepthScenes,duration_manipulation_targetAtFixation,jsons/VE125_randls_41.json,http://54.235.29.9/FacialAge/BNav_EC2/DepthDuration/v2_depth_duration_MTurk/v2_DepthDuration_HTML.html#467,467,1600,789,1600,900,9-3-2022,6-12-56,115,depth_duration_stimuli/001132_2014-06-17_14-48-54_260595134347_rgbf000100-resize_2/001132_2014-06-17_14-48-54_260595134347_rgbf000100-resize_2-target.png,125,3.753,0,1979,125,meters,jsons/VE125_randls_41.json,869452,1483041,36,Woman
115,137165,DepthScenes,duration_manipulation_targetAtFixation,jsons/VE125_randls_41.json,http://54.235.29.9/FacialAge/BNav_EC2/DepthDuration/v2_depth_duration_MTurk/v2_DepthDuration_HTML.html#467,467,1600,789,1600,900,9-3-2022,6-12-56,116,depth_duration_stimuli/001170_2014-06-17_15-43-44_260595134347_rgbf000096-resize_6/001170_2014-06-17_15-43-44_260595134347_rgbf000096-resize-original.jpg,125,1.1909999999999998,0,2194,121,meters,jsons/VE125_randls_41.json,869452,1483041,36,Woman
116,137165,DepthScenes,duration_manipulation_targetAtFixation,jsons/VE125_randls_41.json,http://54.235.29.9/FacialAge/BNav_EC2/DepthDuration/v2_depth_duration_MTurk/v2_DepthDuration_HTML.html#467,467,1600,789,1600,900,9-3-2022,6-12-56,117,depth_duration_stimuli/001449_2014-06-19_17-01-27_260595134347_rgbf000116-resize_2/001449_2014-06-19_17-01-27_260595134347_rgbf000116-resize_2-target.png,125,3.452,4,3593,124,meters,jsons/VE125_randls_41.json,869452,1483041,36,Woman
117,137165,DepthScenes,duration_manipulation_targetAtFixation,jsons/VE125_randls_41.json,http://54.235.29.9/FacialAge/BNav_EC2/DepthDuration/v2_depth_duration_MTurk/v2_DepthDuration_HTML.html#467,467,1600,789,1600,900,9-3-2022,6-12-56,118,depth_duration_stimuli/001450_2014-06-19_17-02-03_260595134347_rgbf000203-resize_4/001450_2014-06-19_17-02-03_260595134347_rgbf000203-resize_4-target.png,125,4.0106666666667,5,4498,122,meters,jsons/VE125_randls_41.json,869452,1483041,36,Woman
118,137165,DepthScenes,duration_manipulation_targetAtFixation,jsons/VE125_randls_41.json,http://54.235.29.9/FacialAge/BNav_EC2/DepthDuration/v2_depth_duration_MTurk/v2_DepthDuration_HTML.html#467,467,1600,789,1600,900,9-3-2022,6-12-56,119,depth_duration_stimuli/000758_2014-06-08_22-05-08_260595134347_rgbf000085-resize_0/000758_2014-06-08_22-05-08_260595134347_rgbf000085-resize_0-target.png,125,3.3810000000000002,5,4394,120,meters,jsons/VE125_randls_41.json,869452,1483041,36,Woman
119,137165,DepthScenes,duration_manipulation_targetAtFixation,jsons/VE125_randls_41.json,http://54.235.29.9/FacialAge/BNav_EC2/DepthDuration/v2_depth_duration_MTurk/v2_DepthDuration_HTML.html#467,467,1600,789,1600,900,9-3-2022,6-12-56,120,depth_duration_stimuli/000854_2014-06-09_19-43-13_260595134347_rgbf000066-resize_0/000854_2014-06-09_19-43-13_260595134347_rgbf000066-resize_0-target.png,125,3.068,4,2826,125,meters,jsons/VE125_randls_41.json,869452,1483041,36,Woman
120,137165,DepthScenes,duration_manipulation_targetAtFixation,jsons/VE125_randls_41.json,http://54.235.29.9/FacialAge/BNav_EC2/DepthDuration/v2_depth_duration_MTurk/v2_DepthDuration_HTML.html#467,467,1600,789,1600,900,9-3-2022,6-12-56,121,depth_duration_stimuli/001199_2014-06-17_16-03-48_260595134347_rgbf000077-resize_0/001199_2014-06-17_16-03-48_260595134347_rgbf000077-resize_0-target.png,125,3.4375,0,4266,124,meters,jsons/VE125_randls_41.json,869452,1483041,36,Woman
121,137165,DepthScenes,duration_manipulation_targetAtFixation,jsons/VE125_randls_41.json,http://54.235.29.9/FacialAge/BNav_EC2/DepthDuration/v2_depth_duration_MTurk/v2_DepthDuration_HTML.html#467,467,1600,789,1600,900,9-3-2022,6-12-56,122,depth_duration_stimuli/000502_2014-06-08_23-02-32_260595134347_rgbf000063-resize_4/000502_2014-06-08_23-02-32_260595134347_rgbf000063-resize_4-target.png,125,2.431,0,2587,124,meters,jsons/VE125_randls_41.json,869452,1483041,36,Woman
122,137165,DepthScenes,duration_manipulation_targetAtFixation,jsons/VE125_randls_41.json,http://54.235.29.9/FacialAge/BNav_EC2/DepthDuration/v2_depth_duration_MTurk/v2_DepthDuration_HTML.html#467,467,1600,789,1600,900,9-3-2022,6-12-56,123,depth_duration_stimuli/000486_2014-06-09_20-47-20_260595134347_rgbf000143-resize_2/000486_2014-06-09_20-47-20_260595134347_rgbf000143-resize_2-target.png,125,4.8325,0,2434,121,meters,jsons/VE125_randls_41.json,869452,1483041,36,Woman
123,137165,DepthScenes,duration_manipulation_targetAtFixation,jsons/VE125_randls_41.json,http://54.235.29.9/FacialAge/BNav_EC2/DepthDuration/v2_depth_duration_MTurk/v2_DepthDuration_HTML.html#467,467,1600,789,1600,900,9-3-2022,6-12-56,124,depth_duration_stimuli/003083_2014-06-15_15-21-03_094959634447_rgbf000063-resize_1/003083_2014-06-15_15-21-03_094959634447_rgbf000063-resize_1-target.png,125,4.1405,0,2000,122,meters,jsons/VE125_randls_41.json,869452,1483041,36,Woman
124,137165,DepthScenes,duration_manipulation_targetAtFixation,jsons/VE125_randls_41.json,http://54.235.29.9/FacialAge/BNav_EC2/DepthDuration/v2_depth_duration_MTurk/v2_DepthDuration_HTML.html#467,467,1600,789,1600,900,9-3-2022,6-12-56,125,depth_duration_stimuli/002272_2014-06-28_18-53-56_260595134347_rgbf000067-resize_2/002272_2014-06-28_18-53-56_260595134347_rgbf000067-resize_2-target.png,125,1.138,0,2066,123,meters,jsons/VE125_randls_41.json,869452,1483041,36,Woman
125,137165,DepthScenes,duration_manipulation_targetAtFixation,jsons/VE125_randls_41.json,http://54.235.29.9/FacialAge/BNav_EC2/DepthDuration/v2_depth_duration_MTurk/v2_DepthDuration_HTML.html#467,467,1600,789,1600,900,9-3-2022,6-12-56,126,depth_duration_stimuli/001571_2014-06-20_17-21-32_260595134347_rgbf000089-resize_1/001571_2014-06-20_17-21-32_260595134347_rgbf000089-resize_1-target.png,125,1.86,0,2163,124,meters,jsons/VE125_randls_41.json,869452,1483041,36,Woman
126,137165,DepthScenes,duration_manipulation_targetAtFixation,jsons/VE125_randls_41.json,http://54.235.29.9/FacialAge/BNav_EC2/DepthDuration/v2_depth_duration_MTurk/v2_DepthDuration_HTML.html#467,467,1600,789,1600,900,9-3-2022,6-12-56,127,depth_duration_stimuli/000506_2014-06-08_23-21-00_260595134347_rgbf000070-resize_7/000506_2014-06-08_23-21-00_260595134347_rgbf000070-resize_7-target.png,125,4.0585,0,2475,123,meters,jsons/VE125_randls_41.json,869452,1483041,36,Woman
127,137165,DepthScenes,duration_manipulation_targetAtFixation,jsons/VE125_randls_41.json,http://54.235.29.9/FacialAge/BNav_EC2/DepthDuration/v2_depth_duration_MTurk/v2_DepthDuration_HTML.html#467,467,1600,789,1600,900,9-3-2022,6-12-56,128,depth_duration_stimuli/003079_2014-06-15_15-18-20_094959634447_rgbf000152-resize_8/003079_2014-06-15_15-18-20_094959634447_rgbf000152-resize_8-target.png,125,2.8775,4,4211,123,meters,jsons/VE125_randls_41.json,869452,1483041,36,Woman
128,137165,DepthScenes,duration_manipulation_targetAtFixation,jsons/VE125_randls_41.json,http://54.235.29.9/FacialAge/BNav_EC2/DepthDuration/v2_depth_duration_MTurk/v2_DepthDuration_HTML.html#467,467,1600,789,1600,900,9-3-2022,6-12-56,129,depth_duration_stimuli/003070_2014-06-15_14-58-27_094959634447_rgbf000150-resize_3/003070_2014-06-15_14-58-27_094959634447_rgbf000150-resize_3-target.png,125,2.9415,0,2514,124,meters,jsons/VE125_randls_41.json,869452,1483041,36,Woman
129,137165,DepthScenes,duration_manipulation_targetAtFixation,jsons/VE125_randls_41.json,http://54.235.29.9/FacialAge/BNav_EC2/DepthDuration/v2_depth_duration_MTurk/v2_DepthDuration_HTML.html#467,467,1600,789,1600,900,9-3-2022,6-12-56,130,depth_duration_stimuli/000943_2014-06-09_19-31-07_260595134347_rgbf000128-resize_1/000943_2014-06-09_19-31-07_260595134347_rgbf000128-resize_1-target.png,125,1.9765,5,4675,126,meters,jsons/VE125_randls_41.json,869452,1483041,36,Woman
130,137165,DepthScenes,duration_manipulation_targetAtFixation,jsons/VE125_randls_41.json,http://54.235.29.9/FacialAge/BNav_EC2/DepthDuration/v2_depth_duration_MTurk/v2_DepthDuration_HTML.html#467,467,1600,789,1600,900,9-3-2022,6-12-56,131,depth_duration_stimuli/003621_2014-05-23_18-06-08_094959634447_rgbf000101-resize_1/003621_2014-05-23_18-06-08_094959634447_rgbf000101-resize_1-target.png,125,3.9835,6,3778,123,meters,jsons/VE125_randls_41.json,869452,1483041,36,Woman
131,137165,DepthScenes,duration_manipulation_targetAtFixation,jsons/VE125_randls_41.json,http://54.235.29.9/FacialAge/BNav_EC2/DepthDuration/v2_depth_duration_MTurk/v2_DepthDuration_HTML.html#467,467,1600,789,1600,900,9-3-2022,6-12-56,132,depth_duration_stimuli/001584_2014-06-20_11-07-43_260595134347_rgbf000002-resize_1/001584_2014-06-20_11-07-43_260595134347_rgbf000002-resize_1-target.png,125,3.53,0,3386,125,meters,jsons/VE125_randls_41.json,869452,1483041,36,Woman
132,137165,DepthScenes,duration_manipulation_targetAtFixation,jsons/VE125_randls_41.json,http://54.235.29.9/FacialAge/BNav_EC2/DepthDuration/v2_depth_duration_MTurk/v2_DepthDuration_HTML.html#467,467,1600,789,1600,900,9-3-2022,6-12-56,133,depth_duration_stimuli/000692_2014-06-08_13-09-42_260595134347_rgbf000199-resize_2/000692_2014-06-08_13-09-42_260595134347_rgbf000199-resize_2-target.png,125,3.661,6,4002,121,meters,jsons/VE125_randls_41.json,869452,1483041,36,Woman
133,137165,DepthScenes,duration_manipulation_targetAtFixation,jsons/VE125_randls_41.json,http://54.235.29.9/FacialAge/BNav_EC2/DepthDuration/v2_depth_duration_MTurk/v2_DepthDuration_HTML.html#467,467,1600,789,1600,900,9-3-2022,6-12-56,134,depth_duration_stimuli/001094_2014-06-15_17-36-00_260595134347_rgbf000205-resize_0/001094_2014-06-15_17-36-00_260595134347_rgbf000205-resize_0-target.png,125,4.2175,7,3603,124,meters,jsons/VE125_randls_41.json,869452,1483041,36,Woman
134,137165,DepthScenes,duration_manipulation_targetAtFixation,jsons/VE125_randls_41.json,http://54.235.29.9/FacialAge/BNav_EC2/DepthDuration/v2_depth_duration_MTurk/v2_DepthDuration_HTML.html#467,467,1600,789,1600,900,9-3-2022,6-12-56,135,depth_duration_stimuli/002072_2014-06-24_21-48-06_260595134347_rgbf000115-resize_0/002072_2014-06-24_21-48-06_260595134347_rgbf000115-resize-original.jpg,125,4.702,0,2385,122,meters,jsons/VE125_randls_41.json,869452,1483041,36,Woman
135,137165,DepthScenes,duration_manipulation_targetAtFixation,jsons/VE125_randls_41.json,http://54.235.29.9/FacialAge/BNav_EC2/DepthDuration/v2_depth_duration_MTurk/v2_DepthDuration_HTML.html#467,467,1600,789,1600,900,9-3-2022,6-12-56,136,depth_duration_stimuli/002153_2014-06-25_21-27-18_260595134347_rgbf000038-resize_5/002153_2014-06-25_21-27-18_260595134347_rgbf000038-resize_5-target.png,125,2.505,4,3058,122,meters,jsons/VE125_randls_41.json,869452,1483041,36,Woman
136,137165,DepthScenes,duration_manipulation_targetAtFixation,jsons/VE125_randls_41.json,http://54.235.29.9/FacialAge/BNav_EC2/DepthDuration/v2_depth_duration_MTurk/v2_DepthDuration_HTML.html#467,467,1600,789,1600,900,9-3-2022,6-12-56,137,depth_duration_stimuli/002660_2014-06-13_15-44-18_094959634447_rgbf001878-resize_2/002660_2014-06-13_15-44-18_094959634447_rgbf001878-resize_2-target.png,125,3.576,0,2762,122,meters,jsons/VE125_randls_41.json,869452,1483041,36,Woman
137,137165,DepthScenes,duration_manipulation_targetAtFixation,jsons/VE125_randls_41.json,http://54.235.29.9/FacialAge/BNav_EC2/DepthDuration/v2_depth_duration_MTurk/v2_DepthDuration_HTML.html#467,467,1600,789,1600,900,9-3-2022,6-12-56,138,depth_duration_stimuli/000368_2014-06-09_15-53-01_260595134347_rgbf000155-resize_2/000368_2014-06-09_15-53-01_260595134347_rgbf000155-resize_2-target.png,125,2.4859999999999998,0,2395,123,meters,jsons/VE125_randls_41.json,869452,1483041,36,Woman
138,137165,DepthScenes,duration_manipulation_targetAtFixation,jsons/VE125_randls_41.json,http://54.235.29.9/FacialAge/BNav_EC2/DepthDuration/v2_depth_duration_MTurk/v2_DepthDuration_HTML.html#467,467,1600,789,1600,900,9-3-2022,6-12-56,139,depth_duration_stimuli/002678_2014-06-13_16-15-32_094959634447_rgbf000151-resize_6/002678_2014-06-13_16-15-32_094959634447_rgbf000151-resize_6-target.png,125,2.1830000000000003,0,1827,124,meters,jsons/VE125_randls_41.json,869452,1483041,36,Woman
139,137165,DepthScenes,duration_manipulation_targetAtFixation,jsons/VE125_randls_41.json,http://54.235.29.9/FacialAge/BNav_EC2/DepthDuration/v2_depth_duration_MTurk/v2_DepthDuration_HTML.html#467,467,1600,789,1600,900,9-3-2022,6-12-56,140,depth_duration_stimuli/002988_2014-06-15_12-24-20_094959634447_rgbf000150-resize_1/002988_2014-06-15_12-24-20_094959634447_rgbf000150-resize_1-target.png,125,4.7669999999999995,0,1963,124,meters,jsons/VE125_randls_41.json,869452,1483041,36,Woman
140,137165,DepthScenes,duration_manipulation_targetAtFixation,jsons/VE125_randls_41.json,http://54.235.29.9/FacialAge/BNav_EC2/DepthDuration/v2_depth_duration_MTurk/v2_DepthDuration_HTML.html#467,467,1600,789,1600,900,9-3-2022,6-12-56,141,depth_duration_stimuli/001052_2014-06-08_18-24-54_260595134347_rgbf000130-resize_1/001052_2014-06-08_18-24-54_260595134347_rgbf000130-resize_1-target.png,125,4.1045,0,2004,125,meters,jsons/VE125_randls_41.json,869452,1483041,36,Woman
141,137165,DepthScenes,duration_manipulation_targetAtFixation,jsons/VE125_randls_41.json,http://54.235.29.9/FacialAge/BNav_EC2/DepthDuration/v2_depth_duration_MTurk/v2_DepthDuration_HTML.html#467,467,1600,789,1600,900,9-3-2022,6-12-56,142,depth_duration_stimuli/001029_2014-06-08_13-17-57_260595134347_rgbf000065-resize_1/001029_2014-06-08_13-17-57_260595134347_rgbf000065-resize_1-target.png,125,3.0835,0,1850,123,meters,jsons/VE125_randls_41.json,869452,1483041,36,Woman
142,137165,DepthScenes,duration_manipulation_targetAtFixation,jsons/VE125_randls_41.json,http://54.235.29.9/FacialAge/BNav_EC2/DepthDuration/v2_depth_duration_MTurk/v2_DepthDuration_HTML.html#467,467,1600,789,1600,900,9-3-2022,6-12-56,143,depth_duration_stimuli/000677_2014-06-08_23-10-32_260595134347_rgbf000158-resize_6/000677_2014-06-08_23-10-32_260595134347_rgbf000158-resize_6-target.png,125,3.556,0,1891,123,meters,jsons/VE125_randls_41.json,869452,1483041,36,Woman
143,137165,DepthScenes,duration_manipulation_targetAtFixation,jsons/VE125_randls_41.json,http://54.235.29.9/FacialAge/BNav_EC2/DepthDuration/v2_depth_duration_MTurk/v2_DepthDuration_HTML.html#467,467,1600,789,1600,900,9-3-2022,6-12-56,144,depth_duration_stimuli/000878_2014-06-08_22-52-45_260595134347_rgbf000045-resize_2/000878_2014-06-08_22-52-45_260595134347_rgbf000045-resize_2-target.png,125,2.092,6,4889,122,meters,jsons/VE125_randls_41.json,869452,1483041,36,Woman
144,137165,DepthScenes,duration_manipulation_targetAtFixation,jsons/VE125_randls_41.json,http://54.235.29.9/FacialAge/BNav_EC2/DepthDuration/v2_depth_duration_MTurk/v2_DepthDuration_HTML.html#467,467,1600,789,1600,900,9-3-2022,6-12-56,145,depth_duration_stimuli/002953_2014-06-08_17-32-18_094959634447_rgbf000059-resize_5/002953_2014-06-08_17-32-18_094959634447_rgbf000059-resize_5-target.png,125,1.551,3,2811,125,meters,jsons/VE125_randls_41.json,869452,1483041,36,Woman
145,137165,DepthScenes,duration_manipulation_targetAtFixation,jsons/VE125_randls_41.json,http://54.235.29.9/FacialAge/BNav_EC2/DepthDuration/v2_depth_duration_MTurk/v2_DepthDuration_HTML.html#467,467,1600,789,1600,900,9-3-2022,6-12-56,146,depth_duration_stimuli/001498_2014-06-19_17-45-14_260595134347_rgbf000129-resize_4/001498_2014-06-19_17-45-14_260595134347_rgbf000129-resize-original.jpg,125,1.4075,0,3035,128,meters,jsons/VE125_randls_41.json,869452,1483041,36,Woman
146,137165,DepthScenes,duration_manipulation_targetAtFixation,jsons/VE125_randls_41.json,http://54.235.29.9/FacialAge/BNav_EC2/DepthDuration/v2_depth_duration_MTurk/v2_DepthDuration_HTML.html#467,467,1600,789,1600,900,9-3-2022,6-12-56,147,depth_duration_stimuli/001059_2014-06-08_21-53-27_260595134347_rgbf000061-resize_4/001059_2014-06-08_21-53-27_260595134347_rgbf000061-resize_4-target.png,125,2.4185,4,2577,121,meters,jsons/VE125_randls_41.json,869452,1483041,36,Woman
147,137165,DepthScenes,duration_manipulation_targetAtFixation,jsons/VE125_randls_41.json,http://54.235.29.9/FacialAge/BNav_EC2/DepthDuration/v2_depth_duration_MTurk/v2_DepthDuration_HTML.html#467,467,1600,789,1600,900,9-3-2022,6-12-56,148,depth_duration_stimuli/001032_2014-06-08_13-23-17_260595134347_rgbf000021-resize_3/001032_2014-06-08_13-23-17_260595134347_rgbf000021-resize_3-target.png,125,3.2725,4,2643,124,meters,jsons/VE125_randls_41.json,869452,1483041,36,Woman
148,137165,DepthScenes,duration_manipulation_targetAtFixation,jsons/VE125_randls_41.json,http://54.235.29.9/FacialAge/BNav_EC2/DepthDuration/v2_depth_duration_MTurk/v2_DepthDuration_HTML.html#467,467,1600,789,1600,900,9-3-2022,6-12-56,149,depth_duration_stimuli/001092_2014-06-15_17-34-58_260595134347_rgbf000171-resize_3/001092_2014-06-15_17-34-58_260595134347_rgbf000171-resize_3-target.png,125,2.6935,5,2819,124,meters,jsons/VE125_randls_41.json,869452,1483041,36,Woman
149,137165,DepthScenes,duration_manipulation_targetAtFixation,jsons/VE125_randls_41.json,http://54.235.29.9/FacialAge/BNav_EC2/DepthDuration/v2_depth_duration_MTurk/v2_DepthDuration_HTML.html#467,467,1600,789,1600,900,9-3-2022,6-12-56,150,depth_duration_stimuli/002545_2014-06-24_13-38-53_094959634447_rgbf000080-resize_4/002545_2014-06-24_13-38-53_094959634447_rgbf000080-resize_4-target.png,125,1.9205,4,2370,125,meters,jsons/VE125_randls_41.json,869452,1483041,36,Woman
150,137165,DepthScenes,duration_manipulation_targetAtFixation,jsons/VE125_randls_41.json,http://54.235.29.9/FacialAge/BNav_EC2/DepthDuration/v2_depth_duration_MTurk/v2_DepthDuration_HTML.html#467,467,1600,789,1600,900,9-3-2022,6-12-56,151,depth_duration_stimuli/000682_2014-06-08_23-14-58_260595134347_rgbf000041-resize_5/000682_2014-06-08_23-14-58_260595134347_rgbf000041-resize_5-target.png,125,2.7239999999999998,4,3347,124,meters,jsons/VE125_randls_41.json,869452,1483041,36,Woman
151,137165,DepthScenes,duration_manipulation_targetAtFixation,jsons/VE125_randls_41.json,http://54.235.29.9/FacialAge/BNav_EC2/DepthDuration/v2_depth_duration_MTurk/v2_DepthDuration_HTML.html#467,467,1600,789,1600,900,9-3-2022,6-12-56,152,depth_duration_stimuli/001650_2014-06-20_12-09-00_260595134347_rgbf000087-resize_3/001650_2014-06-20_12-09-00_260595134347_rgbf000087-resize_3-target.png,125,1.9505,0,2282,123,meters,jsons/VE125_randls_41.json,869452,1483041,36,Woman
152,137165,DepthScenes,duration_manipulation_targetAtFixation,jsons/VE125_randls_41.json,http://54.235.29.9/FacialAge/BNav_EC2/DepthDuration/v2_depth_duration_MTurk/v2_DepthDuration_HTML.html#467,467,1600,789,1600,900,9-3-2022,6-12-56,153,depth_duration_stimuli/000469_2014-06-09_19-42-10_260595134347_rgbf000081-resize_1/000469_2014-06-09_19-42-10_260595134347_rgbf000081-resize_1-target.png,125,1.652,2,2753,121,meters,jsons/VE125_randls_41.json,869452,1483041,36,Woman
153,137165,DepthScenes,duration_manipulation_targetAtFixation,jsons/VE125_randls_41.json,http://54.235.29.9/FacialAge/BNav_EC2/DepthDuration/v2_depth_duration_MTurk/v2_DepthDuration_HTML.html#467,467,1600,789,1600,900,9-3-2022,6-12-56,154,depth_duration_stimuli/000483_2014-06-09_20-41-45_260595134347_rgbf000116-resize_4/000483_2014-06-09_20-41-45_260595134347_rgbf000116-resize_4-target.png,125,1.337,2,2433,122,meters,jsons/VE125_randls_41.json,869452,1483041,36,Woman
154,137165,DepthScenes,duration_manipulation_targetAtFixation,jsons/VE125_randls_41.json,http://54.235.29.9/FacialAge/BNav_EC2/DepthDuration/v2_depth_duration_MTurk/v2_DepthDuration_HTML.html#467,467,1600,789,1600,900,9-3-2022,6-12-56,155,depth_duration_stimuli/002549_2014-06-24_13-41-39_094959634447_rgbf000022-resize_3/002549_2014-06-24_13-41-39_094959634447_rgbf000022-resize_3-target.png,125,1.476,0,2339,124,meters,jsons/VE125_randls_41.json,869452,1483041,36,Woman
155,137165,DepthScenes,duration_manipulation_targetAtFixation,jsons/VE125_randls_41.json,http://54.235.29.9/FacialAge/BNav_EC2/DepthDuration/v2_depth_duration_MTurk/v2_DepthDuration_HTML.html#467,467,1600,789,1600,900,9-3-2022,6-12-56,156,depth_duration_stimuli/002750_2014-06-22_19-08-03_094959634447_rgbf000094-resize_4/002750_2014-06-22_19-08-03_094959634447_rgbf000094-resize_4-target.png,125,2.354,0,2010,122,meters,jsons/VE125_randls_41.json,869452,1483041,36,Woman
156,137165,DepthScenes,duration_manipulation_targetAtFixation,jsons/VE125_randls_41.json,http://54.235.29.9/FacialAge/BNav_EC2/DepthDuration/v2_depth_duration_MTurk/v2_DepthDuration_HTML.html#467,467,1600,789,1600,900,9-3-2022,6-12-56,157,depth_duration_stimuli/002725_2014-06-22_11-47-51_094959634447_rgbf000070-resize_1/002725_2014-06-22_11-47-51_094959634447_rgbf000070-resize_1-target.png,125,2.195,0,1963,124,meters,jsons/VE125_randls_41.json,869452,1483041,36,Woman
157,137165,DepthScenes,duration_manipulation_targetAtFixation,jsons/VE125_randls_41.json,http://54.235.29.9/FacialAge/BNav_EC2/DepthDuration/v2_depth_duration_MTurk/v2_DepthDuration_HTML.html#467,467,1600,789,1600,900,9-3-2022,6-12-56,158,depth_duration_stimuli/002344_2014-06-28_20-06-29_260595134347_rgbf000030-resize_1/002344_2014-06-28_20-06-29_260595134347_rgbf000030-resize_1-target.png,125,1.5795,0,2287,120,meters,jsons/VE125_randls_41.json,869452,1483041,36,Woman
158,137165,DepthScenes,duration_manipulation_targetAtFixation,jsons/VE125_randls_41.json,http://54.235.29.9/FacialAge/BNav_EC2/DepthDuration/v2_depth_duration_MTurk/v2_DepthDuration_HTML.html#467,467,1600,789,1600,900,9-3-2022,6-12-56,159,depth_duration_stimuli/002989_2014-06-15_12-25-03_094959634447_rgbf000150-resize_3/002989_2014-06-15_12-25-03_094959634447_rgbf000150-resize_3-target.png,125,4.1975,5,2875,123,meters,jsons/VE125_randls_41.json,869452,1483041,36,Woman
159,137165,DepthScenes,duration_manipulation_targetAtFixation,jsons/VE125_randls_41.json,http://54.235.29.9/FacialAge/BNav_EC2/DepthDuration/v2_depth_duration_MTurk/v2_DepthDuration_HTML.html#467,467,1600,789,1600,900,9-3-2022,6-12-56,160,depth_duration_stimuli/000866_2014-06-09_20-45-42_260595134347_rgbf000139-resize_1/000866_2014-06-09_20-45-42_260595134347_rgbf000139-resize_1-target.png,125,3.2155,0,2144,122,meters,jsons/VE125_randls_41.json,869452,1483041,36,Woman
160,137165,DepthScenes,duration_manipulation_targetAtFixation,jsons/VE125_randls_41.json,http://54.235.29.9/FacialAge/BNav_EC2/DepthDuration/v2_depth_duration_MTurk/v2_DepthDuration_HTML.html#467,467,1600,789,1600,900,9-3-2022,6-12-56,161,depth_duration_stimuli/001056_2014-06-08_18-46-44_260595134347_rgbf000068-resize_0/001056_2014-06-08_18-46-44_260595134347_rgbf000068-resize_0-target.png,125,2.6625,5,2915,125,meters,jsons/VE125_randls_41.json,869452,1483041,36,Woman
161,137165,DepthScenes,duration_manipulation_targetAtFixation,jsons/VE125_randls_41.json,http://54.235.29.9/FacialAge/BNav_EC2/DepthDuration/v2_depth_duration_MTurk/v2_DepthDuration_HTML.html#467,467,1600,789,1600,900,9-3-2022,6-12-56,162,depth_duration_stimuli/002199_2014-06-28_18-33-56_260595134347_rgbf000074-resize_0/002199_2014-06-28_18-33-56_260595134347_rgbf000074-resize_0-target.png,125,1.996,4,2075,126,meters,jsons/VE125_randls_41.json,869452,1483041,36,Woman
162,137165,DepthScenes,duration_manipulation_targetAtFixation,jsons/VE125_randls_41.json,http://54.235.29.9/FacialAge/BNav_EC2/DepthDuration/v2_depth_duration_MTurk/v2_DepthDuration_HTML.html#467,467,1600,789,1600,900,9-3-2022,6-12-56,163,depth_duration_stimuli/001417_2014-06-19_16-25-36_260595134347_rgbf000115-resize_5/001417_2014-06-19_16-25-36_260595134347_rgbf000115-resize_5-target.png,125,4.6255,0,2145,123,meters,jsons/VE125_randls_41.json,869452,1483041,36,Woman
163,137165,DepthScenes,duration_manipulation_targetAtFixation,jsons/VE125_randls_41.json,http://54.235.29.9/FacialAge/BNav_EC2/DepthDuration/v2_depth_duration_MTurk/v2_DepthDuration_HTML.html#467,467,1600,789,1600,900,9-3-2022,6-12-56,164,depth_duration_stimuli/003081_2014-06-15_15-19-16_094959634447_rgbf000150-resize_1/003081_2014-06-15_15-19-16_094959634447_rgbf000150-resize_1-target.png,125,3.9125,0,2035,123,meters,jsons/VE125_randls_41.json,869452,1483041,36,Woman
