,subjID,experimentName,versionName,sequenceName,url,selected_row,windowWidth,windowHeight,screenWidth,screenHeight,startDate,startTime,trial,stimulus,duration,actual_depth,depth_estimate,trial_RT,log_sceneDuration,unitSelection,seq_filepath,experimentTime,totalTime,age,gender
0,138058,DepthScenes,duration_manipulation_targetAtFixation,jsons/VE125_randls_45_rotated.json,http://54.235.29.9/FacialAge/BNav_EC2/DepthDuration/v2_depth_duration_MTurk/v2_DepthDuration_HTML.html#294,294,1366,657,1366,768,8-29-2022,10-41-12,1,depth_duration_stimuli/000943_2014-06-09_19-31-07_260595134347_rgbf000128-resize_1/000943_2014-06-09_19-31-07_260595134347_rgbf000128-resize_1-target.png,125,1.9765,1,3889,123,meters,jsons/VE125_randls_45_rotated.json,580792,1797598,32,Woman
1,138058,DepthScenes,duration_manipulation_targetAtFixation,jsons/VE125_randls_45_rotated.json,http://54.235.29.9/FacialAge/BNav_EC2/DepthDuration/v2_depth_duration_MTurk/v2_DepthDuration_HTML.html#294,294,1366,657,1366,768,8-29-2022,10-41-12,2,depth_duration_stimuli/003070_2014-06-15_14-58-27_094959634447_rgbf000150-resize_3/003070_2014-06-15_14-58-27_094959634447_rgbf000150-resize_3-target.png,125,2.9415,1,2113,126,meters,jsons/VE125_randls_45_rotated.json,580792,1797598,32,Woman
2,138058,DepthScenes,duration_manipulation_targetAtFixation,jsons/VE125_randls_45_rotated.json,http://54.235.29.9/FacialAge/BNav_EC2/DepthDuration/v2_depth_duration_MTurk/v2_DepthDuration_HTML.html#294,294,1366,657,1366,768,8-29-2022,10-41-12,3,depth_duration_stimuli/001571_2014-06-20_17-21-32_260595134347_rgbf000089-resize_1/001571_2014-06-20_17-21-32_260595134347_rgbf000089-resize_1-target.png,125,1.86,1,2472,155,meters,jsons/VE125_randls_45_rotated.json,580792,1797598,32,Woman
3,138058,DepthScenes,duration_manipulation_targetAtFixation,jsons/VE125_randls_45_rotated.json,http://54.235.29.9/FacialAge/BNav_EC2/DepthDuration/v2_depth_duration_MTurk/v2_DepthDuration_HTML.html#294,294,1366,657,1366,768,8-29-2022,10-41-12,4,depth_duration_stimuli/002272_2014-06-28_18-53-56_260595134347_rgbf000067-resize_2/002272_2014-06-28_18-53-56_260595134347_rgbf000067-resize_2-target.png,125,1.138,1,2403,126,meters,jsons/VE125_randls_45_rotated.json,580792,1797598,32,Woman
4,138058,DepthScenes,duration_manipulation_targetAtFixation,jsons/VE125_randls_45_rotated.json,http://54.235.29.9/FacialAge/BNav_EC2/DepthDuration/v2_depth_duration_MTurk/v2_DepthDuration_HTML.html#294,294,1366,657,1366,768,8-29-2022,10-41-12,5,depth_duration_stimuli/002995_2014-06-15_12-31-26_094959634447_rgbf000150-resize_1/002995_2014-06-15_12-31-26_094959634447_rgbf000150-resize_1-target.png,125,3.8360000000000003,2,2619,124,meters,jsons/VE125_randls_45_rotated.json,580792,1797598,32,Woman
5,138058,DepthScenes,duration_manipulation_targetAtFixation,jsons/VE125_randls_45_rotated.json,http://54.235.29.9/FacialAge/BNav_EC2/DepthDuration/v2_depth_duration_MTurk/v2_DepthDuration_HTML.html#294,294,1366,657,1366,768,8-29-2022,10-41-12,6,depth_duration_stimuli/002748_2014-06-22_19-07-22_094959634447_rgbf000078-resize_1/002748_2014-06-22_19-07-22_094959634447_rgbf000078-resize_1-target.png,125,4.6705,2,3970,110,meters,jsons/VE125_randls_45_rotated.json,580792,1797598,32,Woman
6,138058,DepthScenes,duration_manipulation_targetAtFixation,jsons/VE125_randls_45_rotated.json,http://54.235.29.9/FacialAge/BNav_EC2/DepthDuration/v2_depth_duration_MTurk/v2_DepthDuration_HTML.html#294,294,1366,657,1366,768,8-29-2022,10-41-12,7,depth_duration_stimuli/000780_2014-06-08_22-28-29_260595134347_rgbf000126-resize_1/000780_2014-06-08_22-28-29_260595134347_rgbf000126-resize_1-target.png,125,3.3825,1,2182,89,meters,jsons/VE125_randls_45_rotated.json,580792,1797598,32,Woman
7,138058,DepthScenes,duration_manipulation_targetAtFixation,jsons/VE125_randls_45_rotated.json,http://54.235.29.9/FacialAge/BNav_EC2/DepthDuration/v2_depth_duration_MTurk/v2_DepthDuration_HTML.html#294,294,1366,657,1366,768,8-29-2022,10-41-12,8,depth_duration_stimuli/002445_2014-06-28_20-32-16_260595134347_rgbf000029-resize_4/002445_2014-06-28_20-32-16_260595134347_rgbf000029-resize_4-target.png,125,2.5315,1,2306,117,meters,jsons/VE125_randls_45_rotated.json,580792,1797598,32,Woman
8,138058,DepthScenes,duration_manipulation_targetAtFixation,jsons/VE125_randls_45_rotated.json,http://54.235.29.9/FacialAge/BNav_EC2/DepthDuration/v2_depth_duration_MTurk/v2_DepthDuration_HTML.html#294,294,1366,657,1366,768,8-29-2022,10-41-12,9,depth_duration_stimuli/001828_2014-06-26_21-40-03_260595134347_rgbf000024-resize_0/001828_2014-06-26_21-40-03_260595134347_rgbf000024-resize_0-target.png,125,4.8260000000000005,1,2344,115,meters,jsons/VE125_randls_45_rotated.json,580792,1797598,32,Woman
9,138058,DepthScenes,duration_manipulation_targetAtFixation,jsons/VE125_randls_45_rotated.json,http://54.235.29.9/FacialAge/BNav_EC2/DepthDuration/v2_depth_duration_MTurk/v2_DepthDuration_HTML.html#294,294,1366,657,1366,768,8-29-2022,10-41-12,10,depth_duration_stimuli/000009_2014-05-26_14-32-05_260595134347_rgbf000034-resize_3/000009_2014-05-26_14-32-05_260595134347_rgbf000034-resize_3-target.png,125,3.8715,2,2268,127,meters,jsons/VE125_randls_45_rotated.json,580792,1797598,32,Woman
10,138058,DepthScenes,duration_manipulation_targetAtFixation,jsons/VE125_randls_45_rotated.json,http://54.235.29.9/FacialAge/BNav_EC2/DepthDuration/v2_depth_duration_MTurk/v2_DepthDuration_HTML.html#294,294,1366,657,1366,768,8-29-2022,10-41-12,11,depth_duration_stimuli/001584_2014-06-20_11-07-43_260595134347_rgbf000002-resize_1/001584_2014-06-20_11-07-43_260595134347_rgbf000002-resize_1-target.png,125,3.53,1,2526,112,meters,jsons/VE125_randls_45_rotated.json,580792,1797598,32,Woman
11,138058,DepthScenes,duration_manipulation_targetAtFixation,jsons/VE125_randls_45_rotated.json,http://54.235.29.9/FacialAge/BNav_EC2/DepthDuration/v2_depth_duration_MTurk/v2_DepthDuration_HTML.html#294,294,1366,657,1366,768,8-29-2022,10-41-12,12,depth_duration_stimuli/003621_2014-05-23_18-06-08_094959634447_rgbf000101-resize_1/003621_2014-05-23_18-06-08_094959634447_rgbf000101-resize_1-target.png,125,3.9835,1,2149,125,meters,jsons/VE125_randls_45_rotated.json,580792,1797598,32,Woman
12,138058,DepthScenes,duration_manipulation_targetAtFixation,jsons/VE125_randls_45_rotated.json,http://54.235.29.9/FacialAge/BNav_EC2/DepthDuration/v2_depth_duration_MTurk/v2_DepthDuration_HTML.html#294,294,1366,657,1366,768,8-29-2022,10-41-12,13,depth_duration_stimuli/002678_2014-06-13_16-15-32_094959634447_rgbf000151-resize_6/002678_2014-06-13_16-15-32_094959634447_rgbf000151-resize_6-target.png,125,2.1830000000000003,1,2319,124,meters,jsons/VE125_randls_45_rotated.json,580792,1797598,32,Woman
13,138058,DepthScenes,duration_manipulation_targetAtFixation,jsons/VE125_randls_45_rotated.json,http://54.235.29.9/FacialAge/BNav_EC2/DepthDuration/v2_depth_duration_MTurk/v2_DepthDuration_HTML.html#294,294,1366,657,1366,768,8-29-2022,10-41-12,14,depth_duration_stimuli/000368_2014-06-09_15-53-01_260595134347_rgbf000155-resize_2/000368_2014-06-09_15-53-01_260595134347_rgbf000155-resize_2-target.png,125,2.4859999999999998,1,2638,70,meters,jsons/VE125_randls_45_rotated.json,580792,1797598,32,Woman
14,138058,DepthScenes,duration_manipulation_targetAtFixation,jsons/VE125_randls_45_rotated.json,http://54.235.29.9/FacialAge/BNav_EC2/DepthDuration/v2_depth_duration_MTurk/v2_DepthDuration_HTML.html#294,294,1366,657,1366,768,8-29-2022,10-41-12,15,depth_duration_stimuli/001136_2014-06-17_15-19-41_260595134347_rgbf000076-resize_3/001136_2014-06-17_15-19-41_260595134347_rgbf000076-resize_3-target.png,125,1.8655,1,2264,124,meters,jsons/VE125_randls_45_rotated.json,580792,1797598,32,Woman
15,138058,DepthScenes,duration_manipulation_targetAtFixation,jsons/VE125_randls_45_rotated.json,http://54.235.29.9/FacialAge/BNav_EC2/DepthDuration/v2_depth_duration_MTurk/v2_DepthDuration_HTML.html#294,294,1366,657,1366,768,8-29-2022,10-41-12,16,depth_duration_stimuli/001164_2014-06-17_15-35-46_260595134347_rgbf000085-resize_3/001164_2014-06-17_15-35-46_260595134347_rgbf000085-resize_3-target.png,125,2.354,1,2129,130,meters,jsons/VE125_randls_45_rotated.json,580792,1797598,32,Woman
16,138058,DepthScenes,duration_manipulation_targetAtFixation,jsons/VE125_randls_45_rotated.json,http://54.235.29.9/FacialAge/BNav_EC2/DepthDuration/v2_depth_duration_MTurk/v2_DepthDuration_HTML.html#294,294,1366,657,1366,768,8-29-2022,10-41-12,17,depth_duration_stimuli/003079_2014-06-15_15-18-20_094959634447_rgbf000152-resize_8/003079_2014-06-15_15-18-20_094959634447_rgbf000152-resize_8-target.png,125,2.8775,2,8003,124,meters,jsons/VE125_randls_45_rotated.json,580792,1797598,32,Woman
17,138058,DepthScenes,duration_manipulation_targetAtFixation,jsons/VE125_randls_45_rotated.json,http://54.235.29.9/FacialAge/BNav_EC2/DepthDuration/v2_depth_duration_MTurk/v2_DepthDuration_HTML.html#294,294,1366,657,1366,768,8-29-2022,10-41-12,18,depth_duration_stimuli/000506_2014-06-08_23-21-00_260595134347_rgbf000070-resize_7/000506_2014-06-08_23-21-00_260595134347_rgbf000070-resize_7-target.png,125,4.0585,2,2593,120,meters,jsons/VE125_randls_45_rotated.json,580792,1797598,32,Woman
18,138058,DepthScenes,duration_manipulation_targetAtFixation,jsons/VE125_randls_45_rotated.json,http://54.235.29.9/FacialAge/BNav_EC2/DepthDuration/v2_depth_duration_MTurk/v2_DepthDuration_HTML.html#294,294,1366,657,1366,768,8-29-2022,10-41-12,19,depth_duration_stimuli/001498_2014-06-19_17-45-14_260595134347_rgbf000129-resize_4/001498_2014-06-19_17-45-14_260595134347_rgbf000129-resize-original.jpg,125,1.4075,0,3597,133,meters,jsons/VE125_randls_45_rotated.json,580792,1797598,32,Woman
19,138058,DepthScenes,duration_manipulation_targetAtFixation,jsons/VE125_randls_45_rotated.json,http://54.235.29.9/FacialAge/BNav_EC2/DepthDuration/v2_depth_duration_MTurk/v2_DepthDuration_HTML.html#294,294,1366,657,1366,768,8-29-2022,10-41-12,20,depth_duration_stimuli/000742_2014-06-08_18-48-09_260595134347_rgbf000164-resize_4/000742_2014-06-08_18-48-09_260595134347_rgbf000164-resize_4-target.png,125,4.632,1,3049,127,meters,jsons/VE125_randls_45_rotated.json,580792,1797598,32,Woman
20,138058,DepthScenes,duration_manipulation_targetAtFixation,jsons/VE125_randls_45_rotated.json,http://54.235.29.9/FacialAge/BNav_EC2/DepthDuration/v2_depth_duration_MTurk/v2_DepthDuration_HTML.html#294,294,1366,657,1366,768,8-29-2022,10-41-12,21,depth_duration_stimuli/001066_2014-06-08_22-03-20_260595134347_rgbf000066-resize_4/001066_2014-06-08_22-03-20_260595134347_rgbf000066-resize_4-target.png,125,4.2330000000000005,1,2727,127,meters,jsons/VE125_randls_45_rotated.json,580792,1797598,32,Woman
21,138058,DepthScenes,duration_manipulation_targetAtFixation,jsons/VE125_randls_45_rotated.json,http://54.235.29.9/FacialAge/BNav_EC2/DepthDuration/v2_depth_duration_MTurk/v2_DepthDuration_HTML.html#294,294,1366,657,1366,768,8-29-2022,10-41-12,22,depth_duration_stimuli/000665_2014-06-09_20-42-35_260595134347_rgbf000110-resize_1/000665_2014-06-09_20-42-35_260595134347_rgbf000110-resize_1-target.png,125,3.057,1,1981,118,meters,jsons/VE125_randls_45_rotated.json,580792,1797598,32,Woman
22,138058,DepthScenes,duration_manipulation_targetAtFixation,jsons/VE125_randls_45_rotated.json,http://54.235.29.9/FacialAge/BNav_EC2/DepthDuration/v2_depth_duration_MTurk/v2_DepthDuration_HTML.html#294,294,1366,657,1366,768,8-29-2022,10-41-12,23,depth_duration_stimuli/001150_2014-06-17_15-27-34_260595134347_rgbf000108-resize_2/001150_2014-06-17_15-27-34_260595134347_rgbf000108-resize_2-target.png,125,4.0325,1,2233,98,meters,jsons/VE125_randls_45_rotated.json,580792,1797598,32,Woman
23,138058,DepthScenes,duration_manipulation_targetAtFixation,jsons/VE125_randls_45_rotated.json,http://54.235.29.9/FacialAge/BNav_EC2/DepthDuration/v2_depth_duration_MTurk/v2_DepthDuration_HTML.html#294,294,1366,657,1366,768,8-29-2022,10-41-12,24,depth_duration_stimuli/000866_2014-06-09_20-45-42_260595134347_rgbf000139-resize_1/000866_2014-06-09_20-45-42_260595134347_rgbf000139-resize_1-target.png,125,3.2155,1,2212,116,meters,jsons/VE125_randls_45_rotated.json,580792,1797598,32,Woman
24,138058,DepthScenes,duration_manipulation_targetAtFixation,jsons/VE125_randls_45_rotated.json,http://54.235.29.9/FacialAge/BNav_EC2/DepthDuration/v2_depth_duration_MTurk/v2_DepthDuration_HTML.html#294,294,1366,657,1366,768,8-29-2022,10-41-12,25,depth_duration_stimuli/002989_2014-06-15_12-25-03_094959634447_rgbf000150-resize_3/002989_2014-06-15_12-25-03_094959634447_rgbf000150-resize_3-target.png,125,4.1975,2,2423,115,meters,jsons/VE125_randls_45_rotated.json,580792,1797598,32,Woman
25,138058,DepthScenes,duration_manipulation_targetAtFixation,jsons/VE125_randls_45_rotated.json,http://54.235.29.9/FacialAge/BNav_EC2/DepthDuration/v2_depth_duration_MTurk/v2_DepthDuration_HTML.html#294,294,1366,657,1366,768,8-29-2022,10-41-12,26,depth_duration_stimuli/000677_2014-06-08_23-10-32_260595134347_rgbf000158-resize_6/000677_2014-06-08_23-10-32_260595134347_rgbf000158-resize_6-target.png,125,3.556,2,2322,127,meters,jsons/VE125_randls_45_rotated.json,580792,1797598,32,Woman
26,138058,DepthScenes,duration_manipulation_targetAtFixation,jsons/VE125_randls_45_rotated.json,http://54.235.29.9/FacialAge/BNav_EC2/DepthDuration/v2_depth_duration_MTurk/v2_DepthDuration_HTML.html#294,294,1366,657,1366,768,8-29-2022,10-41-12,27,depth_duration_stimuli/001029_2014-06-08_13-17-57_260595134347_rgbf000065-resize_1/001029_2014-06-08_13-17-57_260595134347_rgbf000065-resize_1-target.png,125,3.0835,2,2326,115,meters,jsons/VE125_randls_45_rotated.json,580792,1797598,32,Woman
27,138058,DepthScenes,duration_manipulation_targetAtFixation,jsons/VE125_randls_45_rotated.json,http://54.235.29.9/FacialAge/BNav_EC2/DepthDuration/v2_depth_duration_MTurk/v2_DepthDuration_HTML.html#294,294,1366,657,1366,768,8-29-2022,10-41-12,28,depth_duration_stimuli/003423_2014-05-21_10-23-26_094959634447_rgbf002665-resize_2/003423_2014-05-21_10-23-26_094959634447_rgbf002665-resize_2-target.png,125,3.2575,2,2087,110,meters,jsons/VE125_randls_45_rotated.json,580792,1797598,32,Woman
28,138058,DepthScenes,duration_manipulation_targetAtFixation,jsons/VE125_randls_45_rotated.json,http://54.235.29.9/FacialAge/BNav_EC2/DepthDuration/v2_depth_duration_MTurk/v2_DepthDuration_HTML.html#294,294,1366,657,1366,768,8-29-2022,10-41-12,29,depth_duration_stimuli/002905_2014-06-03_18-04-43_094959634447_rgbf000151-resize_2/002905_2014-06-03_18-04-43_094959634447_rgbf000151-resize_2-target.png,125,2.0295,2,2561,112,meters,jsons/VE125_randls_45_rotated.json,580792,1797598,32,Woman
29,138058,DepthScenes,duration_manipulation_targetAtFixation,jsons/VE125_randls_45_rotated.json,http://54.235.29.9/FacialAge/BNav_EC2/DepthDuration/v2_depth_duration_MTurk/v2_DepthDuration_HTML.html#294,294,1366,657,1366,768,8-29-2022,10-41-12,30,depth_duration_stimuli/002072_2014-06-24_21-48-06_260595134347_rgbf000115-resize_0/002072_2014-06-24_21-48-06_260595134347_rgbf000115-resize-original.jpg,125,4.702,0,3245,126,meters,jsons/VE125_randls_45_rotated.json,580792,1797598,32,Woman
30,138058,DepthScenes,duration_manipulation_targetAtFixation,jsons/VE125_randls_45_rotated.json,http://54.235.29.9/FacialAge/BNav_EC2/DepthDuration/v2_depth_duration_MTurk/v2_DepthDuration_HTML.html#294,294,1366,657,1366,768,8-29-2022,10-41-12,31,depth_duration_stimuli/002953_2014-06-08_17-32-18_094959634447_rgbf000059-resize_5/002953_2014-06-08_17-32-18_094959634447_rgbf000059-resize_5-target.png,125,1.551,1,3213,117,meters,jsons/VE125_randls_45_rotated.json,580792,1797598,32,Woman
31,138058,DepthScenes,duration_manipulation_targetAtFixation,jsons/VE125_randls_45_rotated.json,http://54.235.29.9/FacialAge/BNav_EC2/DepthDuration/v2_depth_duration_MTurk/v2_DepthDuration_HTML.html#294,294,1366,657,1366,768,8-29-2022,10-41-12,32,depth_duration_stimuli/000878_2014-06-08_22-52-45_260595134347_rgbf000045-resize_2/000878_2014-06-08_22-52-45_260595134347_rgbf000045-resize_2-target.png,125,2.092,2,2318,124,meters,jsons/VE125_randls_45_rotated.json,580792,1797598,32,Woman
32,138058,DepthScenes,duration_manipulation_targetAtFixation,jsons/VE125_randls_45_rotated.json,http://54.235.29.9/FacialAge/BNav_EC2/DepthDuration/v2_depth_duration_MTurk/v2_DepthDuration_HTML.html#294,294,1366,657,1366,768,8-29-2022,10-41-12,33,depth_duration_stimuli/001094_2014-06-15_17-36-00_260595134347_rgbf000205-resize_0/001094_2014-06-15_17-36-00_260595134347_rgbf000205-resize_0-target.png,125,4.2175,1,2076,113,meters,jsons/VE125_randls_45_rotated.json,580792,1797598,32,Woman
33,138058,DepthScenes,duration_manipulation_targetAtFixation,jsons/VE125_randls_45_rotated.json,http://54.235.29.9/FacialAge/BNav_EC2/DepthDuration/v2_depth_duration_MTurk/v2_DepthDuration_HTML.html#294,294,1366,657,1366,768,8-29-2022,10-41-12,34,depth_duration_stimuli/000692_2014-06-08_13-09-42_260595134347_rgbf000199-resize_2/000692_2014-06-08_13-09-42_260595134347_rgbf000199-resize_2-target.png,125,3.661,2,28579,125,meters,jsons/VE125_randls_45_rotated.json,580792,1797598,32,Woman
34,138058,DepthScenes,duration_manipulation_targetAtFixation,jsons/VE125_randls_45_rotated.json,http://54.235.29.9/FacialAge/BNav_EC2/DepthDuration/v2_depth_duration_MTurk/v2_DepthDuration_HTML.html#294,294,1366,657,1366,768,8-29-2022,10-41-12,35,depth_duration_stimuli/002545_2014-06-24_13-38-53_094959634447_rgbf000080-resize_4/002545_2014-06-24_13-38-53_094959634447_rgbf000080-resize_4-target.png,125,1.9205,1,2396,122,meters,jsons/VE125_randls_45_rotated.json,580792,1797598,32,Woman
35,138058,DepthScenes,duration_manipulation_targetAtFixation,jsons/VE125_randls_45_rotated.json,http://54.235.29.9/FacialAge/BNav_EC2/DepthDuration/v2_depth_duration_MTurk/v2_DepthDuration_HTML.html#294,294,1366,657,1366,768,8-29-2022,10-41-12,36,depth_duration_stimuli/001092_2014-06-15_17-34-58_260595134347_rgbf000171-resize_3/001092_2014-06-15_17-34-58_260595134347_rgbf000171-resize_3-target.png,125,2.6935,1,2675,125,meters,jsons/VE125_randls_45_rotated.json,580792,1797598,32,Woman
36,138058,DepthScenes,duration_manipulation_targetAtFixation,jsons/VE125_randls_45_rotated.json,http://54.235.29.9/FacialAge/BNav_EC2/DepthDuration/v2_depth_duration_MTurk/v2_DepthDuration_HTML.html#294,294,1366,657,1366,768,8-29-2022,10-41-12,37,depth_duration_stimuli/001447_2014-06-19_17-00-32_260595134347_rgbf000082-resize_5/001447_2014-06-19_17-00-32_260595134347_rgbf000082-resize_5-target.png,125,4.13775,1,2598,125,meters,jsons/VE125_randls_45_rotated.json,580792,1797598,32,Woman
37,138058,DepthScenes,duration_manipulation_targetAtFixation,jsons/VE125_randls_45_rotated.json,http://54.235.29.9/FacialAge/BNav_EC2/DepthDuration/v2_depth_duration_MTurk/v2_DepthDuration_HTML.html#294,294,1366,657,1366,768,8-29-2022,10-41-12,38,depth_duration_stimuli/000447_2014-06-08_16-15-46_260595134347_rgbf000130-resize_1/000447_2014-06-08_16-15-46_260595134347_rgbf000130-resize_1-target.png,125,4.479,1,2687,125,meters,jsons/VE125_randls_45_rotated.json,580792,1797598,32,Woman
38,138058,DepthScenes,duration_manipulation_targetAtFixation,jsons/VE125_randls_45_rotated.json,http://54.235.29.9/FacialAge/BNav_EC2/DepthDuration/v2_depth_duration_MTurk/v2_DepthDuration_HTML.html#294,294,1366,657,1366,768,8-29-2022,10-41-12,39,depth_duration_stimuli/002660_2014-06-13_15-44-18_094959634447_rgbf001878-resize_2/002660_2014-06-13_15-44-18_094959634447_rgbf001878-resize_2-target.png,125,3.576,1,2046,125,meters,jsons/VE125_randls_45_rotated.json,580792,1797598,32,Woman
39,138058,DepthScenes,duration_manipulation_targetAtFixation,jsons/VE125_randls_45_rotated.json,http://54.235.29.9/FacialAge/BNav_EC2/DepthDuration/v2_depth_duration_MTurk/v2_DepthDuration_HTML.html#294,294,1366,657,1366,768,8-29-2022,10-41-12,40,depth_duration_stimuli/002153_2014-06-25_21-27-18_260595134347_rgbf000038-resize_5/002153_2014-06-25_21-27-18_260595134347_rgbf000038-resize_5-target.png,125,2.505,1,2460,115,meters,jsons/VE125_randls_45_rotated.json,580792,1797598,32,Woman
40,138058,DepthScenes,duration_manipulation_targetAtFixation,jsons/VE125_randls_45_rotated.json,http://54.235.29.9/FacialAge/BNav_EC2/DepthDuration/v2_depth_duration_MTurk/v2_DepthDuration_HTML.html#294,294,1366,657,1366,768,8-29-2022,10-41-12,41,depth_duration_stimuli/000635_2014-06-08_16-38-42_260595134347_rgbf000106-resize_1/000635_2014-06-08_16-38-42_260595134347_rgbf000106-resize_1-target.png,125,2.074,1,2171,114,meters,jsons/VE125_randls_45_rotated.json,580792,1797598,32,Woman
41,138058,DepthScenes,duration_manipulation_targetAtFixation,jsons/VE125_randls_45_rotated.json,http://54.235.29.9/FacialAge/BNav_EC2/DepthDuration/v2_depth_duration_MTurk/v2_DepthDuration_HTML.html#294,294,1366,657,1366,768,8-29-2022,10-41-12,42,depth_duration_stimuli/002279_2014-06-28_18-55-32_260595134347_rgbf000040-resize_5/002279_2014-06-28_18-55-32_260595134347_rgbf000040-resize_5-target.png,125,1.5043333333333,1,2090,125,meters,jsons/VE125_randls_45_rotated.json,580792,1797598,32,Woman
42,138058,DepthScenes,duration_manipulation_targetAtFixation,jsons/VE125_randls_45_rotated.json,http://54.235.29.9/FacialAge/BNav_EC2/DepthDuration/v2_depth_duration_MTurk/v2_DepthDuration_HTML.html#294,294,1366,657,1366,768,8-29-2022,10-41-12,43,depth_duration_stimuli/003587_2014-05-23_16-48-02_094959634447_rgbf002384-resize_2/003587_2014-05-23_16-48-02_094959634447_rgbf002384-resize_2-target.png,125,1.357,1,2075,124,meters,jsons/VE125_randls_45_rotated.json,580792,1797598,32,Woman
43,138058,DepthScenes,duration_manipulation_targetAtFixation,jsons/VE125_randls_45_rotated.json,http://54.235.29.9/FacialAge/BNav_EC2/DepthDuration/v2_depth_duration_MTurk/v2_DepthDuration_HTML.html#294,294,1366,657,1366,768,8-29-2022,10-41-12,44,depth_duration_stimuli/001167_2014-06-17_15-38-07_260595134347_rgbf000108-resize_0/001167_2014-06-17_15-38-07_260595134347_rgbf000108-resize_0-target.png,125,1.8505,1,2010,126,meters,jsons/VE125_randls_45_rotated.json,580792,1797598,32,Woman
44,138058,DepthScenes,duration_manipulation_targetAtFixation,jsons/VE125_randls_45_rotated.json,http://54.235.29.9/FacialAge/BNav_EC2/DepthDuration/v2_depth_duration_MTurk/v2_DepthDuration_HTML.html#294,294,1366,657,1366,768,8-29-2022,10-41-12,45,depth_duration_stimuli/002199_2014-06-28_18-33-56_260595134347_rgbf000074-resize_0/002199_2014-06-28_18-33-56_260595134347_rgbf000074-resize_0-target.png,125,1.996,1,2118,121,meters,jsons/VE125_randls_45_rotated.json,580792,1797598,32,Woman
45,138058,DepthScenes,duration_manipulation_targetAtFixation,jsons/VE125_randls_45_rotated.json,http://54.235.29.9/FacialAge/BNav_EC2/DepthDuration/v2_depth_duration_MTurk/v2_DepthDuration_HTML.html#294,294,1366,657,1366,768,8-29-2022,10-41-12,46,depth_duration_stimuli/001056_2014-06-08_18-46-44_260595134347_rgbf000068-resize_0/001056_2014-06-08_18-46-44_260595134347_rgbf000068-resize_0-target.png,125,2.6625,2,2356,122,meters,jsons/VE125_randls_45_rotated.json,580792,1797598,32,Woman
46,138058,DepthScenes,duration_manipulation_targetAtFixation,jsons/VE125_randls_45_rotated.json,http://54.235.29.9/FacialAge/BNav_EC2/DepthDuration/v2_depth_duration_MTurk/v2_DepthDuration_HTML.html#294,294,1366,657,1366,768,8-29-2022,10-41-12,47,depth_duration_stimuli/002136_2014-06-25_21-18-03_260595134347_rgbf000109-resize_3/002136_2014-06-25_21-18-03_260595134347_rgbf000109-resize_3-target.png,125,1.9569999999999999,1,2200,126,meters,jsons/VE125_randls_45_rotated.json,580792,1797598,32,Woman
47,138058,DepthScenes,duration_manipulation_targetAtFixation,jsons/VE125_randls_45_rotated.json,http://54.235.29.9/FacialAge/BNav_EC2/DepthDuration/v2_depth_duration_MTurk/v2_DepthDuration_HTML.html#294,294,1366,657,1366,768,8-29-2022,10-41-12,48,depth_duration_stimuli/002964_2014-06-08_17-46-11_094959634447_rgbf000091-resize_4/002964_2014-06-08_17-46-11_094959634447_rgbf000091-resize_4-target.png,125,1.6909999999999998,1,1912,116,meters,jsons/VE125_randls_45_rotated.json,580792,1797598,32,Woman
48,138058,DepthScenes,duration_manipulation_targetAtFixation,jsons/VE125_randls_45_rotated.json,http://54.235.29.9/FacialAge/BNav_EC2/DepthDuration/v2_depth_duration_MTurk/v2_DepthDuration_HTML.html#294,294,1366,657,1366,768,8-29-2022,10-41-12,49,depth_duration_stimuli/001170_2014-06-17_15-43-44_260595134347_rgbf000096-resize_6/001170_2014-06-17_15-43-44_260595134347_rgbf000096-resize-original.jpg,125,1.1909999999999998,0,3544,125,meters,jsons/VE125_randls_45_rotated.json,580792,1797598,32,Woman
49,138058,DepthScenes,duration_manipulation_targetAtFixation,jsons/VE125_randls_45_rotated.json,http://54.235.29.9/FacialAge/BNav_EC2/DepthDuration/v2_depth_duration_MTurk/v2_DepthDuration_HTML.html#294,294,1366,657,1366,768,8-29-2022,10-41-12,50,depth_duration_stimuli/000483_2014-06-09_20-41-45_260595134347_rgbf000116-resize_4/000483_2014-06-09_20-41-45_260595134347_rgbf000116-resize_4-target.png,125,1.337,1,2349,126,meters,jsons/VE125_randls_45_rotated.json,580792,1797598,32,Woman
50,138058,DepthScenes,duration_manipulation_targetAtFixation,jsons/VE125_randls_45_rotated.json,http://54.235.29.9/FacialAge/BNav_EC2/DepthDuration/v2_depth_duration_MTurk/v2_DepthDuration_HTML.html#294,294,1366,657,1366,768,8-29-2022,10-41-12,51,depth_duration_stimuli/000469_2014-06-09_19-42-10_260595134347_rgbf000081-resize_1/000469_2014-06-09_19-42-10_260595134347_rgbf000081-resize_1-target.png,125,1.652,1,2309,124,meters,jsons/VE125_randls_45_rotated.json,580792,1797598,32,Woman
51,138058,DepthScenes,duration_manipulation_targetAtFixation,jsons/VE125_randls_45_rotated.json,http://54.235.29.9/FacialAge/BNav_EC2/DepthDuration/v2_depth_duration_MTurk/v2_DepthDuration_HTML.html#294,294,1366,657,1366,768,8-29-2022,10-41-12,52,depth_duration_stimuli/000549_2014-06-08_22-10-24_260595134347_rgbf000247-resize_3/000549_2014-06-08_22-10-24_260595134347_rgbf000247-resize_3-target.png,125,1.841,1,3750,123,meters,jsons/VE125_randls_45_rotated.json,580792,1797598,32,Woman
52,138058,DepthScenes,duration_manipulation_targetAtFixation,jsons/VE125_randls_45_rotated.json,http://54.235.29.9/FacialAge/BNav_EC2/DepthDuration/v2_depth_duration_MTurk/v2_DepthDuration_HTML.html#294,294,1366,657,1366,768,8-29-2022,10-41-12,53,depth_duration_stimuli/001055_2014-06-08_18-45-35_260595134347_rgbf000111-resize_4/001055_2014-06-08_18-45-35_260595134347_rgbf000111-resize_4-target.png,125,2.4290000000000003,2,2366,118,meters,jsons/VE125_randls_45_rotated.json,580792,1797598,32,Woman
53,138058,DepthScenes,duration_manipulation_targetAtFixation,jsons/VE125_randls_45_rotated.json,http://54.235.29.9/FacialAge/BNav_EC2/DepthDuration/v2_depth_duration_MTurk/v2_DepthDuration_HTML.html#294,294,1366,657,1366,768,8-29-2022,10-41-12,54,depth_duration_stimuli/002323_2014-06-28_20-01-54_260595134347_rgbf000051-resize_4/002323_2014-06-28_20-01-54_260595134347_rgbf000051-resize_4-target.png,125,3.7310000000000003,2,2302,129,meters,jsons/VE125_randls_45_rotated.json,580792,1797598,32,Woman
54,138058,DepthScenes,duration_manipulation_targetAtFixation,jsons/VE125_randls_45_rotated.json,http://54.235.29.9/FacialAge/BNav_EC2/DepthDuration/v2_depth_duration_MTurk/v2_DepthDuration_HTML.html#294,294,1366,657,1366,768,8-29-2022,10-41-12,55,depth_duration_stimuli/000917_2014-06-09_22-45-29_260595134347_rgbf000149-resize_3/000917_2014-06-09_22-45-29_260595134347_rgbf000149-resize_3-target.png,125,4.1865,2,3010,123,meters,jsons/VE125_randls_45_rotated.json,580792,1797598,32,Woman
55,138058,DepthScenes,duration_manipulation_targetAtFixation,jsons/VE125_randls_45_rotated.json,http://54.235.29.9/FacialAge/BNav_EC2/DepthDuration/v2_depth_duration_MTurk/v2_DepthDuration_HTML.html#294,294,1366,657,1366,768,8-29-2022,10-41-12,56,depth_duration_stimuli/002758_2014-06-22_19-11-20_094959634447_rgbf000128-resize_1/002758_2014-06-22_19-11-20_094959634447_rgbf000128-resize_1-target.png,125,2.555,1,3364,125,meters,jsons/VE125_randls_45_rotated.json,580792,1797598,32,Woman
56,138058,DepthScenes,duration_manipulation_targetAtFixation,jsons/VE125_randls_45_rotated.json,http://54.235.29.9/FacialAge/BNav_EC2/DepthDuration/v2_depth_duration_MTurk/v2_DepthDuration_HTML.html#294,294,1366,657,1366,768,8-29-2022,10-41-12,57,depth_duration_stimuli/002630_2014-06-24_14-47-50_094959634447_rgbf000055-resize_1/002630_2014-06-24_14-47-50_094959634447_rgbf000055-resize_1-target.png,125,3.0095,1,2649,126,meters,jsons/VE125_randls_45_rotated.json,580792,1797598,32,Woman
57,138058,DepthScenes,duration_manipulation_targetAtFixation,jsons/VE125_randls_45_rotated.json,http://54.235.29.9/FacialAge/BNav_EC2/DepthDuration/v2_depth_duration_MTurk/v2_DepthDuration_HTML.html#294,294,1366,657,1366,768,8-29-2022,10-41-12,58,depth_duration_stimuli/002340_2014-06-28_20-05-46_260595134347_rgbf000113-resize_0/002340_2014-06-28_20-05-46_260595134347_rgbf000113-resize_0-target.png,125,2.4735,1,2588,125,meters,jsons/VE125_randls_45_rotated.json,580792,1797598,32,Woman
58,138058,DepthScenes,duration_manipulation_targetAtFixation,jsons/VE125_randls_45_rotated.json,http://54.235.29.9/FacialAge/BNav_EC2/DepthDuration/v2_depth_duration_MTurk/v2_DepthDuration_HTML.html#294,294,1366,657,1366,768,8-29-2022,10-41-12,59,depth_duration_stimuli/001016_2014-06-09_16-16-10_260595134347_rgbf000112-resize_5/001016_2014-06-09_16-16-10_260595134347_rgbf000112-resize_5-target.png,125,1.6565,1,2619,126,meters,jsons/VE125_randls_45_rotated.json,580792,1797598,32,Woman
59,138058,DepthScenes,duration_manipulation_targetAtFixation,jsons/VE125_randls_45_rotated.json,http://54.235.29.9/FacialAge/BNav_EC2/DepthDuration/v2_depth_duration_MTurk/v2_DepthDuration_HTML.html#294,294,1366,657,1366,768,8-29-2022,10-41-12,60,depth_duration_stimuli/000502_2014-06-08_23-02-32_260595134347_rgbf000063-resize_4/000502_2014-06-08_23-02-32_260595134347_rgbf000063-resize_4-target.png,125,2.431,1,2338,110,meters,jsons/VE125_randls_45_rotated.json,580792,1797598,32,Woman
60,138058,DepthScenes,duration_manipulation_targetAtFixation,jsons/VE125_randls_45_rotated.json,http://54.235.29.9/FacialAge/BNav_EC2/DepthDuration/v2_depth_duration_MTurk/v2_DepthDuration_HTML.html#294,294,1366,657,1366,768,8-29-2022,10-41-12,61,depth_duration_stimuli/001199_2014-06-17_16-03-48_260595134347_rgbf000077-resize_0/001199_2014-06-17_16-03-48_260595134347_rgbf000077-resize_0-target.png,125,3.4375,2,2377,187,meters,jsons/VE125_randls_45_rotated.json,580792,1797598,32,Woman
61,138058,DepthScenes,duration_manipulation_targetAtFixation,jsons/VE125_randls_45_rotated.json,http://54.235.29.9/FacialAge/BNav_EC2/DepthDuration/v2_depth_duration_MTurk/v2_DepthDuration_HTML.html#294,294,1366,657,1366,768,8-29-2022,10-41-12,62,depth_duration_stimuli/003490_2014-05-21_15-50-11_094959634447_rgbf000101-resize_3/003490_2014-05-21_15-50-11_094959634447_rgbf000101-resize_3-target.png,125,3.6445,3,3101,123,meters,jsons/VE125_randls_45_rotated.json,580792,1797598,32,Woman
62,138058,DepthScenes,duration_manipulation_targetAtFixation,jsons/VE125_randls_45_rotated.json,http://54.235.29.9/FacialAge/BNav_EC2/DepthDuration/v2_depth_duration_MTurk/v2_DepthDuration_HTML.html#294,294,1366,657,1366,768,8-29-2022,10-41-12,63,depth_duration_stimuli/001175_2014-06-17_15-45-55_260595134347_rgbf000129-resize_4/001175_2014-06-17_15-45-55_260595134347_rgbf000129-resize_4-target.png,125,4.255,2,3334,127,meters,jsons/VE125_randls_45_rotated.json,580792,1797598,32,Woman
63,138058,DepthScenes,duration_manipulation_targetAtFixation,jsons/VE125_randls_45_rotated.json,http://54.235.29.9/FacialAge/BNav_EC2/DepthDuration/v2_depth_duration_MTurk/v2_DepthDuration_HTML.html#294,294,1366,657,1366,768,8-29-2022,10-41-12,64,depth_duration_stimuli/000191_2014-05-12_17-07-38_260595134347_rgbf000199-resize_0/000191_2014-05-12_17-07-38_260595134347_rgbf000199-resize_0-target.png,125,3.7995,2,2926,68,meters,jsons/VE125_randls_45_rotated.json,580792,1797598,32,Woman
64,138058,DepthScenes,duration_manipulation_targetAtFixation,jsons/VE125_randls_45_rotated.json,http://54.235.29.9/FacialAge/BNav_EC2/DepthDuration/v2_depth_duration_MTurk/v2_DepthDuration_HTML.html#294,294,1366,657,1366,768,8-29-2022,10-41-12,65,depth_duration_stimuli/000493_2014-06-09_21-01-18_260595134347_rgbf000196-resize_3/000493_2014-06-09_21-01-18_260595134347_rgbf000196-resize_3-target.png,125,3.44,2,2473,121,meters,jsons/VE125_randls_45_rotated.json,580792,1797598,32,Woman
65,138058,DepthScenes,duration_manipulation_targetAtFixation,jsons/VE125_randls_45_rotated.json,http://54.235.29.9/FacialAge/BNav_EC2/DepthDuration/v2_depth_duration_MTurk/v2_DepthDuration_HTML.html#294,294,1366,657,1366,768,8-29-2022,10-41-12,66,depth_duration_stimuli/001540_2014-06-20_17-01-05_260595134347_rgbf000086-resize_2/001540_2014-06-20_17-01-05_260595134347_rgbf000086-resize-original.jpg,125,1.459,0,6411,119,meters,jsons/VE125_randls_45_rotated.json,580792,1797598,32,Woman
66,138058,DepthScenes,duration_manipulation_targetAtFixation,jsons/VE125_randls_45_rotated.json,http://54.235.29.9/FacialAge/BNav_EC2/DepthDuration/v2_depth_duration_MTurk/v2_DepthDuration_HTML.html#294,294,1366,657,1366,768,8-29-2022,10-41-12,67,depth_duration_stimuli/001392_2014-06-19_16-07-59_260595134347_rgbf000046-resize_1/001392_2014-06-19_16-07-59_260595134347_rgbf000046-resize_1-target.png,125,4.135,3,3601,135,meters,jsons/VE125_randls_45_rotated.json,580792,1797598,32,Woman
67,138058,DepthScenes,duration_manipulation_targetAtFixation,jsons/VE125_randls_45_rotated.json,http://54.235.29.9/FacialAge/BNav_EC2/DepthDuration/v2_depth_duration_MTurk/v2_DepthDuration_HTML.html#294,294,1366,657,1366,768,8-29-2022,10-41-12,68,depth_duration_stimuli/001570_2014-06-20_17-21-09_260595134347_rgbf000135-resize_4/001570_2014-06-20_17-21-09_260595134347_rgbf000135-resize_4-target.png,125,4.467,2,2388,146,meters,jsons/VE125_randls_45_rotated.json,580792,1797598,32,Woman
68,138058,DepthScenes,duration_manipulation_targetAtFixation,jsons/VE125_randls_45_rotated.json,http://54.235.29.9/FacialAge/BNav_EC2/DepthDuration/v2_depth_duration_MTurk/v2_DepthDuration_HTML.html#294,294,1366,657,1366,768,8-29-2022,10-41-12,69,depth_duration_stimuli/000734_2014-06-08_17-39-11_260595134347_rgbf000128-resize_2/000734_2014-06-08_17-39-11_260595134347_rgbf000128-resize_2-target.png,125,4.098,2,2638,126,meters,jsons/VE125_randls_45_rotated.json,580792,1797598,32,Woman
69,138058,DepthScenes,duration_manipulation_targetAtFixation,jsons/VE125_randls_45_rotated.json,http://54.235.29.9/FacialAge/BNav_EC2/DepthDuration/v2_depth_duration_MTurk/v2_DepthDuration_HTML.html#294,294,1366,657,1366,768,8-29-2022,10-41-12,70,depth_duration_stimuli/000739_2014-06-08_18-45-58_260595134347_rgbf000068-resize_1/000739_2014-06-08_18-45-58_260595134347_rgbf000068-resize_1-target.png,125,3.534,2,2480,124,meters,jsons/VE125_randls_45_rotated.json,580792,1797598,32,Woman
70,138058,DepthScenes,duration_manipulation_targetAtFixation,jsons/VE125_randls_45_rotated.json,http://54.235.29.9/FacialAge/BNav_EC2/DepthDuration/v2_depth_duration_MTurk/v2_DepthDuration_HTML.html#294,294,1366,657,1366,768,8-29-2022,10-41-12,71,depth_duration_stimuli/003338_2014-05-20_11-01-23_094959634447_rgbf000051-resize_6/003338_2014-05-20_11-01-23_094959634447_rgbf000051-resize_6-target.png,125,1.693,1,3846,124,meters,jsons/VE125_randls_45_rotated.json,580792,1797598,32,Woman
71,138058,DepthScenes,duration_manipulation_targetAtFixation,jsons/VE125_randls_45_rotated.json,http://54.235.29.9/FacialAge/BNav_EC2/DepthDuration/v2_depth_duration_MTurk/v2_DepthDuration_HTML.html#294,294,1366,657,1366,768,8-29-2022,10-41-12,72,depth_duration_stimuli/002509_2014-06-24_13-19-22_094959634447_rgbf000077-resize_0/002509_2014-06-24_13-19-22_094959634447_rgbf000077-resize_0-target.png,125,1.3065,2,3058,122,meters,jsons/VE125_randls_45_rotated.json,580792,1797598,32,Woman
72,138058,DepthScenes,duration_manipulation_targetAtFixation,jsons/VE125_randls_45_rotated.json,http://54.235.29.9/FacialAge/BNav_EC2/DepthDuration/v2_depth_duration_MTurk/v2_DepthDuration_HTML.html#294,294,1366,657,1366,768,8-29-2022,10-41-12,73,depth_duration_stimuli/001100_2014-06-15_17-46-26_260595134347_rgbf000225-resize_2/001100_2014-06-15_17-46-26_260595134347_rgbf000225-resize_2-target.png,125,2.24,1,2218,124,meters,jsons/VE125_randls_45_rotated.json,580792,1797598,32,Woman
73,138058,DepthScenes,duration_manipulation_targetAtFixation,jsons/VE125_randls_45_rotated.json,http://54.235.29.9/FacialAge/BNav_EC2/DepthDuration/v2_depth_duration_MTurk/v2_DepthDuration_HTML.html#294,294,1366,657,1366,768,8-29-2022,10-41-12,74,depth_duration_stimuli/002784_2014-06-22_19-26-30_094959634447_rgbf000083-resize_3/002784_2014-06-22_19-26-30_094959634447_rgbf000083-resize_3-target.png,125,1.8046666666667,2,7538,121,meters,jsons/VE125_randls_45_rotated.json,580792,1797598,32,Woman
74,138058,DepthScenes,duration_manipulation_targetAtFixation,jsons/VE125_randls_45_rotated.json,http://54.235.29.9/FacialAge/BNav_EC2/DepthDuration/v2_depth_duration_MTurk/v2_DepthDuration_HTML.html#294,294,1366,657,1366,768,8-29-2022,10-41-12,75,depth_duration_stimuli/003010_2014-06-15_12-54-35_094959634447_rgbf000112-resize_0/003010_2014-06-15_12-54-35_094959634447_rgbf000112-resize_0-target.png,125,3.1185,2,2438,125,meters,jsons/VE125_randls_45_rotated.json,580792,1797598,32,Woman
75,138058,DepthScenes,duration_manipulation_targetAtFixation,jsons/VE125_randls_45_rotated.json,http://54.235.29.9/FacialAge/BNav_EC2/DepthDuration/v2_depth_duration_MTurk/v2_DepthDuration_HTML.html#294,294,1366,657,1366,768,8-29-2022,10-41-12,76,depth_duration_stimuli/001810_2014-06-26_20-51-35_260595134347_rgbf000040-resize_3/001810_2014-06-26_20-51-35_260595134347_rgbf000040-resize_3-target.png,125,2.2525,2,2250,126,meters,jsons/VE125_randls_45_rotated.json,580792,1797598,32,Woman
76,138058,DepthScenes,duration_manipulation_targetAtFixation,jsons/VE125_randls_45_rotated.json,http://54.235.29.9/FacialAge/BNav_EC2/DepthDuration/v2_depth_duration_MTurk/v2_DepthDuration_HTML.html#294,294,1366,657,1366,768,8-29-2022,10-41-12,77,depth_duration_stimuli/002657_2014-06-13_15-29-54_094959634447_rgbf000150-resize_1/002657_2014-06-13_15-29-54_094959634447_rgbf000150-resize_1-target.png,125,4.919,3,2436,120,meters,jsons/VE125_randls_45_rotated.json,580792,1797598,32,Woman
77,138058,DepthScenes,duration_manipulation_targetAtFixation,jsons/VE125_randls_45_rotated.json,http://54.235.29.9/FacialAge/BNav_EC2/DepthDuration/v2_depth_duration_MTurk/v2_DepthDuration_HTML.html#294,294,1366,657,1366,768,8-29-2022,10-41-12,78,depth_duration_stimuli/002375_2014-06-28_20-13-44_260595134347_rgbf000032-resize_1/002375_2014-06-28_20-13-44_260595134347_rgbf000032-resize_1-target.png,125,4.0175,3,2435,111,meters,jsons/VE125_randls_45_rotated.json,580792,1797598,32,Woman
78,138058,DepthScenes,duration_manipulation_targetAtFixation,jsons/VE125_randls_45_rotated.json,http://54.235.29.9/FacialAge/BNav_EC2/DepthDuration/v2_depth_duration_MTurk/v2_DepthDuration_HTML.html#294,294,1366,657,1366,768,8-29-2022,10-41-12,79,depth_duration_stimuli/003081_2014-06-15_15-19-16_094959634447_rgbf000150-resize_1/003081_2014-06-15_15-19-16_094959634447_rgbf000150-resize_1-target.png,125,3.9125,3,2296,109,meters,jsons/VE125_randls_45_rotated.json,580792,1797598,32,Woman
79,138058,DepthScenes,duration_manipulation_targetAtFixation,jsons/VE125_randls_45_rotated.json,http://54.235.29.9/FacialAge/BNav_EC2/DepthDuration/v2_depth_duration_MTurk/v2_DepthDuration_HTML.html#294,294,1366,657,1366,768,8-29-2022,10-41-12,80,depth_duration_stimuli/001417_2014-06-19_16-25-36_260595134347_rgbf000115-resize_5/001417_2014-06-19_16-25-36_260595134347_rgbf000115-resize_5-target.png,125,4.6255,2,2491,122,meters,jsons/VE125_randls_45_rotated.json,580792,1797598,32,Woman
80,138058,DepthScenes,duration_manipulation_targetAtFixation,jsons/VE125_randls_45_rotated.json,http://54.235.29.9/FacialAge/BNav_EC2/DepthDuration/v2_depth_duration_MTurk/v2_DepthDuration_HTML.html#294,294,1366,657,1366,768,8-29-2022,10-41-12,81,depth_duration_stimuli/000409_2014-06-04_19-23-33_260595134347_rgbf000067-resize_0/000409_2014-06-04_19-23-33_260595134347_rgbf000067-resize_0-target.png,125,3.7335,3,2695,7,meters,jsons/VE125_randls_45_rotated.json,580792,1797598,32,Woman
81,138058,DepthScenes,duration_manipulation_targetAtFixation,jsons/VE125_randls_45_rotated.json,http://54.235.29.9/FacialAge/BNav_EC2/DepthDuration/v2_depth_duration_MTurk/v2_DepthDuration_HTML.html#294,294,1366,657,1366,768,8-29-2022,10-41-12,82,depth_duration_stimuli/002663_2014-06-13_15-50-26_094959634447_rgbf000075-resize_1/002663_2014-06-13_15-50-26_094959634447_rgbf000075-resize_1-target.png,125,4.7495,3,2428,126,meters,jsons/VE125_randls_45_rotated.json,580792,1797598,32,Woman
82,138058,DepthScenes,duration_manipulation_targetAtFixation,jsons/VE125_randls_45_rotated.json,http://54.235.29.9/FacialAge/BNav_EC2/DepthDuration/v2_depth_duration_MTurk/v2_DepthDuration_HTML.html#294,294,1366,657,1366,768,8-29-2022,10-41-12,83,depth_duration_stimuli/000109_2014-05-14_23-41-52_260595134347_rgbf000035-resize_9/000109_2014-05-14_23-41-52_260595134347_rgbf000035-resize_9-target.png,125,1.3545,2,2795,124,meters,jsons/VE125_randls_45_rotated.json,580792,1797598,32,Woman
83,138058,DepthScenes,duration_manipulation_targetAtFixation,jsons/VE125_randls_45_rotated.json,http://54.235.29.9/FacialAge/BNav_EC2/DepthDuration/v2_depth_duration_MTurk/v2_DepthDuration_HTML.html#294,294,1366,657,1366,768,8-29-2022,10-41-12,84,depth_duration_stimuli/000470_2014-06-09_19-42-40_260595134347_rgbf000094-resize_1/000470_2014-06-09_19-42-40_260595134347_rgbf000094-resize_1-target.png,125,1.831,1,2100,118,meters,jsons/VE125_randls_45_rotated.json,580792,1797598,32,Woman
84,138058,DepthScenes,duration_manipulation_targetAtFixation,jsons/VE125_randls_45_rotated.json,http://54.235.29.9/FacialAge/BNav_EC2/DepthDuration/v2_depth_duration_MTurk/v2_DepthDuration_HTML.html#294,294,1366,657,1366,768,8-29-2022,10-41-12,85,depth_duration_stimuli/000854_2014-06-09_19-43-13_260595134347_rgbf000066-resize_0/000854_2014-06-09_19-43-13_260595134347_rgbf000066-resize_0-target.png,125,3.068,1,2100,125,meters,jsons/VE125_randls_45_rotated.json,580792,1797598,32,Woman
85,138058,DepthScenes,duration_manipulation_targetAtFixation,jsons/VE125_randls_45_rotated.json,http://54.235.29.9/FacialAge/BNav_EC2/DepthDuration/v2_depth_duration_MTurk/v2_DepthDuration_HTML.html#294,294,1366,657,1366,768,8-29-2022,10-41-12,86,depth_duration_stimuli/000758_2014-06-08_22-05-08_260595134347_rgbf000085-resize_0/000758_2014-06-08_22-05-08_260595134347_rgbf000085-resize_0-target.png,125,3.3810000000000002,1,4059,126,meters,jsons/VE125_randls_45_rotated.json,580792,1797598,32,Woman
86,138058,DepthScenes,duration_manipulation_targetAtFixation,jsons/VE125_randls_45_rotated.json,http://54.235.29.9/FacialAge/BNav_EC2/DepthDuration/v2_depth_duration_MTurk/v2_DepthDuration_HTML.html#294,294,1366,657,1366,768,8-29-2022,10-41-12,87,depth_duration_stimuli/002750_2014-06-22_19-08-03_094959634447_rgbf000094-resize_4/002750_2014-06-22_19-08-03_094959634447_rgbf000094-resize_4-target.png,125,2.354,2,2601,125,meters,jsons/VE125_randls_45_rotated.json,580792,1797598,32,Woman
87,138058,DepthScenes,duration_manipulation_targetAtFixation,jsons/VE125_randls_45_rotated.json,http://54.235.29.9/FacialAge/BNav_EC2/DepthDuration/v2_depth_duration_MTurk/v2_DepthDuration_HTML.html#294,294,1366,657,1366,768,8-29-2022,10-41-12,88,depth_duration_stimuli/002549_2014-06-24_13-41-39_094959634447_rgbf000022-resize_3/002549_2014-06-24_13-41-39_094959634447_rgbf000022-resize_3-target.png,125,1.476,2,2451,115,meters,jsons/VE125_randls_45_rotated.json,580792,1797598,32,Woman
88,138058,DepthScenes,duration_manipulation_targetAtFixation,jsons/VE125_randls_45_rotated.json,http://54.235.29.9/FacialAge/BNav_EC2/DepthDuration/v2_depth_duration_MTurk/v2_DepthDuration_HTML.html#294,294,1366,657,1366,768,8-29-2022,10-41-12,89,depth_duration_stimuli/002103_2014-06-25_20-00-40_260595134347_rgbf000049-resize_0/002103_2014-06-25_20-00-40_260595134347_rgbf000049-resize_0-target.png,125,4.105,2,2345,123,meters,jsons/VE125_randls_45_rotated.json,580792,1797598,32,Woman
89,138058,DepthScenes,duration_manipulation_targetAtFixation,jsons/VE125_randls_45_rotated.json,http://54.235.29.9/FacialAge/BNav_EC2/DepthDuration/v2_depth_duration_MTurk/v2_DepthDuration_HTML.html#294,294,1366,657,1366,768,8-29-2022,10-41-12,90,depth_duration_stimuli/002039_2014-06-24_20-22-38_260595134347_rgbf000084-resize_1/002039_2014-06-24_20-22-38_260595134347_rgbf000084-resize_1-target.png,125,4.408,2,2663,123,meters,jsons/VE125_randls_45_rotated.json,580792,1797598,32,Woman
90,138058,DepthScenes,duration_manipulation_targetAtFixation,jsons/VE125_randls_45_rotated.json,http://54.235.29.9/FacialAge/BNav_EC2/DepthDuration/v2_depth_duration_MTurk/v2_DepthDuration_HTML.html#294,294,1366,657,1366,768,8-29-2022,10-41-12,91,depth_duration_stimuli/002875_2014-06-01_15-19-00_094959634447_rgbf000151-resize_1/002875_2014-06-01_15-19-00_094959634447_rgbf000151-resize_1-target.png,125,1.9675,2,2638,115,meters,jsons/VE125_randls_45_rotated.json,580792,1797598,32,Woman
91,138058,DepthScenes,duration_manipulation_targetAtFixation,jsons/VE125_randls_45_rotated.json,http://54.235.29.9/FacialAge/BNav_EC2/DepthDuration/v2_depth_duration_MTurk/v2_DepthDuration_HTML.html#294,294,1366,657,1366,768,8-29-2022,10-41-12,92,depth_duration_stimuli/001011_2014-06-08_23-18-54_260595134347_rgbf000044-resize_4/001011_2014-06-08_23-18-54_260595134347_rgbf000044-resize_4-target.png,125,2.4730000000000003,2,3867,132,meters,jsons/VE125_randls_45_rotated.json,580792,1797598,32,Woman
92,138058,DepthScenes,duration_manipulation_targetAtFixation,jsons/VE125_randls_45_rotated.json,http://54.235.29.9/FacialAge/BNav_EC2/DepthDuration/v2_depth_duration_MTurk/v2_DepthDuration_HTML.html#294,294,1366,657,1366,768,8-29-2022,10-41-12,93,depth_duration_stimuli/001235_2014-06-17_16-37-36_260595134347_rgbf000084-resize_4/001235_2014-06-17_16-37-36_260595134347_rgbf000084-resize_4-target.png,125,3.6605,2,2846,124,meters,jsons/VE125_randls_45_rotated.json,580792,1797598,32,Woman
93,138058,DepthScenes,duration_manipulation_targetAtFixation,jsons/VE125_randls_45_rotated.json,http://54.235.29.9/FacialAge/BNav_EC2/DepthDuration/v2_depth_duration_MTurk/v2_DepthDuration_HTML.html#294,294,1366,657,1366,768,8-29-2022,10-41-12,94,depth_duration_stimuli/000788_2014-06-08_22-34-36_260595134347_rgbf000131-resize_1/000788_2014-06-08_22-34-36_260595134347_rgbf000131-resize_1-target.png,125,3.359,2,2225,125,meters,jsons/VE125_randls_45_rotated.json,580792,1797598,32,Woman
94,138058,DepthScenes,duration_manipulation_targetAtFixation,jsons/VE125_randls_45_rotated.json,http://54.235.29.9/FacialAge/BNav_EC2/DepthDuration/v2_depth_duration_MTurk/v2_DepthDuration_HTML.html#294,294,1366,657,1366,768,8-29-2022,10-41-12,95,depth_duration_stimuli/000457_2014-06-08_16-52-43_260595134347_rgbf000199-resize_1/000457_2014-06-08_16-52-43_260595134347_rgbf000199-resize_1-target.png,125,3.6489999999999996,1,2441,122,meters,jsons/VE125_randls_45_rotated.json,580792,1797598,32,Woman
95,138058,DepthScenes,duration_manipulation_targetAtFixation,jsons/VE125_randls_45_rotated.json,http://54.235.29.9/FacialAge/BNav_EC2/DepthDuration/v2_depth_duration_MTurk/v2_DepthDuration_HTML.html#294,294,1366,657,1366,768,8-29-2022,10-41-12,96,depth_duration_stimuli/000929_2014-06-09_16-33-19_260595134347_rgbf000139-resize_0/000929_2014-06-09_16-33-19_260595134347_rgbf000139-resize_0-target.png,125,2.8680000000000003,2,3253,122,meters,jsons/VE125_randls_45_rotated.json,580792,1797598,32,Woman
96,138058,DepthScenes,duration_manipulation_targetAtFixation,jsons/VE125_randls_45_rotated.json,http://54.235.29.9/FacialAge/BNav_EC2/DepthDuration/v2_depth_duration_MTurk/v2_DepthDuration_HTML.html#294,294,1366,657,1366,768,8-29-2022,10-41-12,97,depth_duration_stimuli/000691_2014-06-08_13-08-50_260595134347_rgbf000132-resize_3/000691_2014-06-08_13-08-50_260595134347_rgbf000132-resize_3-target.png,125,4.1530000000000005,2,2543,130,meters,jsons/VE125_randls_45_rotated.json,580792,1797598,32,Woman
97,138058,DepthScenes,duration_manipulation_targetAtFixation,jsons/VE125_randls_45_rotated.json,http://54.235.29.9/FacialAge/BNav_EC2/DepthDuration/v2_depth_duration_MTurk/v2_DepthDuration_HTML.html#294,294,1366,657,1366,768,8-29-2022,10-41-12,98,depth_duration_stimuli/002213_2014-06-28_18-37-58_260595134347_rgbf000055-resize_1/002213_2014-06-28_18-37-58_260595134347_rgbf000055-resize_1-target.png,125,3.62,2,1933,70,meters,jsons/VE125_randls_45_rotated.json,580792,1797598,32,Woman
98,138058,DepthScenes,duration_manipulation_targetAtFixation,jsons/VE125_randls_45_rotated.json,http://54.235.29.9/FacialAge/BNav_EC2/DepthDuration/v2_depth_duration_MTurk/v2_DepthDuration_HTML.html#294,294,1366,657,1366,768,8-29-2022,10-41-12,99,depth_duration_stimuli/001222_2014-06-17_16-24-06_260595134347_rgbf000073-resize_0/001222_2014-06-17_16-24-06_260595134347_rgbf000073-resize-original.jpg,125,1.4385,0,3059,117,meters,jsons/VE125_randls_45_rotated.json,580792,1797598,32,Woman
99,138058,DepthScenes,duration_manipulation_targetAtFixation,jsons/VE125_randls_45_rotated.json,http://54.235.29.9/FacialAge/BNav_EC2/DepthDuration/v2_depth_duration_MTurk/v2_DepthDuration_HTML.html#294,294,1366,657,1366,768,8-29-2022,10-41-12,100,depth_duration_stimuli/003048_2014-06-15_13-49-43_094959634447_rgbf000150-resize_1/003048_2014-06-15_13-49-43_094959634447_rgbf000150-resize_1-target.png,125,4.0035,1,1958,123,meters,jsons/VE125_randls_45_rotated.json,580792,1797598,32,Woman
100,138058,DepthScenes,duration_manipulation_targetAtFixation,jsons/VE125_randls_45_rotated.json,http://54.235.29.9/FacialAge/BNav_EC2/DepthDuration/v2_depth_duration_MTurk/v2_DepthDuration_HTML.html#294,294,1366,657,1366,768,8-29-2022,10-41-12,101,depth_duration_stimuli/002043_2014-06-24_20-29-38_260595134347_rgbf000039-resize_4/002043_2014-06-24_20-29-38_260595134347_rgbf000039-resize_4-target.png,125,2.8435,1,2352,128,meters,jsons/VE125_randls_45_rotated.json,580792,1797598,32,Woman
101,138058,DepthScenes,duration_manipulation_targetAtFixation,jsons/VE125_randls_45_rotated.json,http://54.235.29.9/FacialAge/BNav_EC2/DepthDuration/v2_depth_duration_MTurk/v2_DepthDuration_HTML.html#294,294,1366,657,1366,768,8-29-2022,10-41-12,102,depth_duration_stimuli/001132_2014-06-17_14-48-54_260595134347_rgbf000100-resize_2/001132_2014-06-17_14-48-54_260595134347_rgbf000100-resize_2-target.png,125,3.753,2,2729,86,meters,jsons/VE125_randls_45_rotated.json,580792,1797598,32,Woman
102,138058,DepthScenes,duration_manipulation_targetAtFixation,jsons/VE125_randls_45_rotated.json,http://54.235.29.9/FacialAge/BNav_EC2/DepthDuration/v2_depth_duration_MTurk/v2_DepthDuration_HTML.html#294,294,1366,657,1366,768,8-29-2022,10-41-12,103,depth_duration_stimuli/001133_2014-06-17_14-49-16_260595134347_rgbf000100-resize_0/001133_2014-06-17_14-49-16_260595134347_rgbf000100-resize_0-target.png,125,4.2115,2,2285,122,meters,jsons/VE125_randls_45_rotated.json,580792,1797598,32,Woman
103,138058,DepthScenes,duration_manipulation_targetAtFixation,jsons/VE125_randls_45_rotated.json,http://54.235.29.9/FacialAge/BNav_EC2/DepthDuration/v2_depth_duration_MTurk/v2_DepthDuration_HTML.html#294,294,1366,657,1366,768,8-29-2022,10-41-12,104,depth_duration_stimuli/001650_2014-06-20_12-09-00_260595134347_rgbf000087-resize_3/001650_2014-06-20_12-09-00_260595134347_rgbf000087-resize_3-target.png,125,1.9505,1,4735,110,meters,jsons/VE125_randls_45_rotated.json,580792,1797598,32,Woman
104,138058,DepthScenes,duration_manipulation_targetAtFixation,jsons/VE125_randls_45_rotated.json,http://54.235.29.9/FacialAge/BNav_EC2/DepthDuration/v2_depth_duration_MTurk/v2_DepthDuration_HTML.html#294,294,1366,657,1366,768,8-29-2022,10-41-12,105,depth_duration_stimuli/000682_2014-06-08_23-14-58_260595134347_rgbf000041-resize_5/000682_2014-06-08_23-14-58_260595134347_rgbf000041-resize_5-target.png,125,2.7239999999999998,2,2536,125,meters,jsons/VE125_randls_45_rotated.json,580792,1797598,32,Woman
105,138058,DepthScenes,duration_manipulation_targetAtFixation,jsons/VE125_randls_45_rotated.json,http://54.235.29.9/FacialAge/BNav_EC2/DepthDuration/v2_depth_duration_MTurk/v2_DepthDuration_HTML.html#294,294,1366,657,1366,768,8-29-2022,10-41-12,106,depth_duration_stimuli/001214_2014-06-17_16-13-55_260595134347_rgbf000111-resize_0/001214_2014-06-17_16-13-55_260595134347_rgbf000111-resize_0-target.png,125,2.6505,1,2062,121,meters,jsons/VE125_randls_45_rotated.json,580792,1797598,32,Woman
106,138058,DepthScenes,duration_manipulation_targetAtFixation,jsons/VE125_randls_45_rotated.json,http://54.235.29.9/FacialAge/BNav_EC2/DepthDuration/v2_depth_duration_MTurk/v2_DepthDuration_HTML.html#294,294,1366,657,1366,768,8-29-2022,10-41-12,107,depth_duration_stimuli/000810_2014-06-08_17-20-01_260595134347_rgbf000105-resize_0/000810_2014-06-08_17-20-01_260595134347_rgbf000105-resize_0-target.png,125,1.4865,1,2252,123,meters,jsons/VE125_randls_45_rotated.json,580792,1797598,32,Woman
107,138058,DepthScenes,duration_manipulation_targetAtFixation,jsons/VE125_randls_45_rotated.json,http://54.235.29.9/FacialAge/BNav_EC2/DepthDuration/v2_depth_duration_MTurk/v2_DepthDuration_HTML.html#294,294,1366,657,1366,768,8-29-2022,10-41-12,108,depth_duration_stimuli/002444_2014-06-28_20-32-08_260595134347_rgbf000027-resize_0/002444_2014-06-28_20-32-08_260595134347_rgbf000027-resize_0-target.png,125,4.388999999999999,2,2371,137,meters,jsons/VE125_randls_45_rotated.json,580792,1797598,32,Woman
108,138058,DepthScenes,duration_manipulation_targetAtFixation,jsons/VE125_randls_45_rotated.json,http://54.235.29.9/FacialAge/BNav_EC2/DepthDuration/v2_depth_duration_MTurk/v2_DepthDuration_HTML.html#294,294,1366,657,1366,768,8-29-2022,10-41-12,109,depth_duration_stimuli/000436_2014-06-09_22-25-11_260595134347_rgbf000137-resize_1/000436_2014-06-09_22-25-11_260595134347_rgbf000137-resize_1-target.png,125,4.0705,2,2117,134,meters,jsons/VE125_randls_45_rotated.json,580792,1797598,32,Woman
109,138058,DepthScenes,duration_manipulation_targetAtFixation,jsons/VE125_randls_45_rotated.json,http://54.235.29.9/FacialAge/BNav_EC2/DepthDuration/v2_depth_duration_MTurk/v2_DepthDuration_HTML.html#294,294,1366,657,1366,768,8-29-2022,10-41-12,110,depth_duration_stimuli/002209_2014-06-28_18-36-10_260595134347_rgbf000051-resize_1/002209_2014-06-28_18-36-10_260595134347_rgbf000051-resize_1-target.png,125,2.057,1,2412,140,meters,jsons/VE125_randls_45_rotated.json,580792,1797598,32,Woman
110,138058,DepthScenes,duration_manipulation_targetAtFixation,jsons/VE125_randls_45_rotated.json,http://54.235.29.9/FacialAge/BNav_EC2/DepthDuration/v2_depth_duration_MTurk/v2_DepthDuration_HTML.html#294,294,1366,657,1366,768,8-29-2022,10-41-12,111,depth_duration_stimuli/002763_2014-06-22_19-13-10_094959634447_rgbf000075-resize_4/002763_2014-06-22_19-13-10_094959634447_rgbf000075-resize_4-target.png,125,1.68375,1,2487,132,meters,jsons/VE125_randls_45_rotated.json,580792,1797598,32,Woman
111,138058,DepthScenes,duration_manipulation_targetAtFixation,jsons/VE125_randls_45_rotated.json,http://54.235.29.9/FacialAge/BNav_EC2/DepthDuration/v2_depth_duration_MTurk/v2_DepthDuration_HTML.html#294,294,1366,657,1366,768,8-29-2022,10-41-12,112,depth_duration_stimuli/000749_2014-06-08_21-55-06_260595134347_rgbf000070-resize_2/000749_2014-06-08_21-55-06_260595134347_rgbf000070-resize_2-target.png,125,2.331,2,3446,138,meters,jsons/VE125_randls_45_rotated.json,580792,1797598,32,Woman
112,138058,DepthScenes,duration_manipulation_targetAtFixation,jsons/VE125_randls_45_rotated.json,http://54.235.29.9/FacialAge/BNav_EC2/DepthDuration/v2_depth_duration_MTurk/v2_DepthDuration_HTML.html#294,294,1366,657,1366,768,8-29-2022,10-41-12,113,depth_duration_stimuli/002788_2014-06-22_19-36-03_094959634447_rgbf000088-resize_2/002788_2014-06-22_19-36-03_094959634447_rgbf000088-resize_2-target.png,125,1.6465,2,2498,126,meters,jsons/VE125_randls_45_rotated.json,580792,1797598,32,Woman
113,138058,DepthScenes,duration_manipulation_targetAtFixation,jsons/VE125_randls_45_rotated.json,http://54.235.29.9/FacialAge/BNav_EC2/DepthDuration/v2_depth_duration_MTurk/v2_DepthDuration_HTML.html#294,294,1366,657,1366,768,8-29-2022,10-41-12,114,depth_duration_stimuli/003495_2014-05-21_16-01-51_094959634447_rgbf000100-resize_3/003495_2014-05-21_16-01-51_094959634447_rgbf000100-resize_3-target.png,125,1.6255,2,4490,124,meters,jsons/VE125_randls_45_rotated.json,580792,1797598,32,Woman
114,138058,DepthScenes,duration_manipulation_targetAtFixation,jsons/VE125_randls_45_rotated.json,http://54.235.29.9/FacialAge/BNav_EC2/DepthDuration/v2_depth_duration_MTurk/v2_DepthDuration_HTML.html#294,294,1366,657,1366,768,8-29-2022,10-41-12,115,depth_duration_stimuli/001244_2014-06-17_16-47-45_260595134347_rgbf000030-resize_4/001244_2014-06-17_16-47-45_260595134347_rgbf000030-resize_4-target.png,125,2.0425,2,2187,127,meters,jsons/VE125_randls_45_rotated.json,580792,1797598,32,Woman
115,138058,DepthScenes,duration_manipulation_targetAtFixation,jsons/VE125_randls_45_rotated.json,http://54.235.29.9/FacialAge/BNav_EC2/DepthDuration/v2_depth_duration_MTurk/v2_DepthDuration_HTML.html#294,294,1366,657,1366,768,8-29-2022,10-41-12,116,depth_duration_stimuli/003083_2014-06-15_15-21-03_094959634447_rgbf000063-resize_1/003083_2014-06-15_15-21-03_094959634447_rgbf000063-resize_1-target.png,125,4.1405,2,2362,114,meters,jsons/VE125_randls_45_rotated.json,580792,1797598,32,Woman
116,138058,DepthScenes,duration_manipulation_targetAtFixation,jsons/VE125_randls_45_rotated.json,http://54.235.29.9/FacialAge/BNav_EC2/DepthDuration/v2_depth_duration_MTurk/v2_DepthDuration_HTML.html#294,294,1366,657,1366,768,8-29-2022,10-41-12,117,depth_duration_stimuli/000486_2014-06-09_20-47-20_260595134347_rgbf000143-resize_2/000486_2014-06-09_20-47-20_260595134347_rgbf000143-resize_2-target.png,125,4.8325,1,2545,125,meters,jsons/VE125_randls_45_rotated.json,580792,1797598,32,Woman
117,138058,DepthScenes,duration_manipulation_targetAtFixation,jsons/VE125_randls_45_rotated.json,http://54.235.29.9/FacialAge/BNav_EC2/DepthDuration/v2_depth_duration_MTurk/v2_DepthDuration_HTML.html#294,294,1366,657,1366,768,8-29-2022,10-41-12,118,depth_duration_stimuli/002344_2014-06-28_20-06-29_260595134347_rgbf000030-resize_1/002344_2014-06-28_20-06-29_260595134347_rgbf000030-resize_1-target.png,125,1.5795,2,2766,126,meters,jsons/VE125_randls_45_rotated.json,580792,1797598,32,Woman
118,138058,DepthScenes,duration_manipulation_targetAtFixation,jsons/VE125_randls_45_rotated.json,http://54.235.29.9/FacialAge/BNav_EC2/DepthDuration/v2_depth_duration_MTurk/v2_DepthDuration_HTML.html#294,294,1366,657,1366,768,8-29-2022,10-41-12,119,depth_duration_stimuli/002725_2014-06-22_11-47-51_094959634447_rgbf000070-resize_1/002725_2014-06-22_11-47-51_094959634447_rgbf000070-resize_1-target.png,125,2.195,2,2038,124,meters,jsons/VE125_randls_45_rotated.json,580792,1797598,32,Woman
119,138058,DepthScenes,duration_manipulation_targetAtFixation,jsons/VE125_randls_45_rotated.json,http://54.235.29.9/FacialAge/BNav_EC2/DepthDuration/v2_depth_duration_MTurk/v2_DepthDuration_HTML.html#294,294,1366,657,1366,768,8-29-2022,10-41-12,120,depth_duration_stimuli/000787_2014-06-08_22-33-53_260595134347_rgbf000175-resize_1/000787_2014-06-08_22-33-53_260595134347_rgbf000175-resize-original.jpg,125,4.784,0,3203,123,meters,jsons/VE125_randls_45_rotated.json,580792,1797598,32,Woman
120,138058,DepthScenes,duration_manipulation_targetAtFixation,jsons/VE125_randls_45_rotated.json,http://54.235.29.9/FacialAge/BNav_EC2/DepthDuration/v2_depth_duration_MTurk/v2_DepthDuration_HTML.html#294,294,1366,657,1366,768,8-29-2022,10-41-12,121,depth_duration_stimuli/001617_2014-06-20_11-35-32_260595134347_rgbf000066-resize_1/001617_2014-06-20_11-35-32_260595134347_rgbf000066-resize_1-target.png,125,3.7910000000000004,1,2672,117,meters,jsons/VE125_randls_45_rotated.json,580792,1797598,32,Woman
121,138058,DepthScenes,duration_manipulation_targetAtFixation,jsons/VE125_randls_45_rotated.json,http://54.235.29.9/FacialAge/BNav_EC2/DepthDuration/v2_depth_duration_MTurk/v2_DepthDuration_HTML.html#294,294,1366,657,1366,768,8-29-2022,10-41-12,122,depth_duration_stimuli/001806_2014-06-26_20-50-20_260595134347_rgbf000091-resize_1/001806_2014-06-26_20-50-20_260595134347_rgbf000091-resize_1-target.png,125,2.7305,2,2529,111,meters,jsons/VE125_randls_45_rotated.json,580792,1797598,32,Woman
122,138058,DepthScenes,duration_manipulation_targetAtFixation,jsons/VE125_randls_45_rotated.json,http://54.235.29.9/FacialAge/BNav_EC2/DepthDuration/v2_depth_duration_MTurk/v2_DepthDuration_HTML.html#294,294,1366,657,1366,768,8-29-2022,10-41-12,123,depth_duration_stimuli/001032_2014-06-08_13-23-17_260595134347_rgbf000021-resize_3/001032_2014-06-08_13-23-17_260595134347_rgbf000021-resize_3-target.png,125,3.2725,1,2247,128,meters,jsons/VE125_randls_45_rotated.json,580792,1797598,32,Woman
123,138058,DepthScenes,duration_manipulation_targetAtFixation,jsons/VE125_randls_45_rotated.json,http://54.235.29.9/FacialAge/BNav_EC2/DepthDuration/v2_depth_duration_MTurk/v2_DepthDuration_HTML.html#294,294,1366,657,1366,768,8-29-2022,10-41-12,124,depth_duration_stimuli/001059_2014-06-08_21-53-27_260595134347_rgbf000061-resize_4/001059_2014-06-08_21-53-27_260595134347_rgbf000061-resize_4-target.png,125,2.4185,2,2742,121,meters,jsons/VE125_randls_45_rotated.json,580792,1797598,32,Woman
124,138058,DepthScenes,duration_manipulation_targetAtFixation,jsons/VE125_randls_45_rotated.json,http://54.235.29.9/FacialAge/BNav_EC2/DepthDuration/v2_depth_duration_MTurk/v2_DepthDuration_HTML.html#294,294,1366,657,1366,768,8-29-2022,10-41-12,125,depth_duration_stimuli/002949_2014-06-26_15-57-42_094959634447_rgbf000079-resize_1/002949_2014-06-26_15-57-42_094959634447_rgbf000079-resize_1-target.png,125,1.8915,1,2267,122,meters,jsons/VE125_randls_45_rotated.json,580792,1797598,32,Woman
125,138058,DepthScenes,duration_manipulation_targetAtFixation,jsons/VE125_randls_45_rotated.json,http://54.235.29.9/FacialAge/BNav_EC2/DepthDuration/v2_depth_duration_MTurk/v2_DepthDuration_HTML.html#294,294,1366,657,1366,768,8-29-2022,10-41-12,126,depth_duration_stimuli/000522_2014-06-08_13-35-06_260595134347_rgbf000244-resize_1/000522_2014-06-08_13-35-06_260595134347_rgbf000244-resize_1-target.png,125,2.3715,1,2072,117,meters,jsons/VE125_randls_45_rotated.json,580792,1797598,32,Woman
126,138058,DepthScenes,duration_manipulation_targetAtFixation,jsons/VE125_randls_45_rotated.json,http://54.235.29.9/FacialAge/BNav_EC2/DepthDuration/v2_depth_duration_MTurk/v2_DepthDuration_HTML.html#294,294,1366,657,1366,768,8-29-2022,10-41-12,127,depth_duration_stimuli/000103_2014-05-14_22-01-17_260595134347_rgbf000152-resize_5/000103_2014-05-14_22-01-17_260595134347_rgbf000152-resize_5-target.png,125,1.993,3,3135,125,meters,jsons/VE125_randls_45_rotated.json,580792,1797598,32,Woman
127,138058,DepthScenes,duration_manipulation_targetAtFixation,jsons/VE125_randls_45_rotated.json,http://54.235.29.9/FacialAge/BNav_EC2/DepthDuration/v2_depth_duration_MTurk/v2_DepthDuration_HTML.html#294,294,1366,657,1366,768,8-29-2022,10-41-12,128,depth_duration_stimuli/001555_2014-06-20_17-12-10_260595134347_rgbf000065-resize_4/001555_2014-06-20_17-12-10_260595134347_rgbf000065-resize_4-target.png,125,1.633,2,2124,123,meters,jsons/VE125_randls_45_rotated.json,580792,1797598,32,Woman
128,138058,DepthScenes,duration_manipulation_targetAtFixation,jsons/VE125_randls_45_rotated.json,http://54.235.29.9/FacialAge/BNav_EC2/DepthDuration/v2_depth_duration_MTurk/v2_DepthDuration_HTML.html#294,294,1366,657,1366,768,8-29-2022,10-41-12,129,depth_duration_stimuli/000137_2014-05-20_17-04-49_260595134347_rgbf000120-resize_1/000137_2014-05-20_17-04-49_260595134347_rgbf000120-resize_1-target.png,125,3.786,1,2619,125,meters,jsons/VE125_randls_45_rotated.json,580792,1797598,32,Woman
129,138058,DepthScenes,duration_manipulation_targetAtFixation,jsons/VE125_randls_45_rotated.json,http://54.235.29.9/FacialAge/BNav_EC2/DepthDuration/v2_depth_duration_MTurk/v2_DepthDuration_HTML.html#294,294,1366,657,1366,768,8-29-2022,10-41-12,130,depth_duration_stimuli/000736_2014-06-08_18-24-15_260595134347_rgbf000206-resize_3/000736_2014-06-08_18-24-15_260595134347_rgbf000206-resize_3-target.png,125,3.515,2,2141,124,meters,jsons/VE125_randls_45_rotated.json,580792,1797598,32,Woman
130,138058,DepthScenes,duration_manipulation_targetAtFixation,jsons/VE125_randls_45_rotated.json,http://54.235.29.9/FacialAge/BNav_EC2/DepthDuration/v2_depth_duration_MTurk/v2_DepthDuration_HTML.html#294,294,1366,657,1366,768,8-29-2022,10-41-12,131,depth_duration_stimuli/003228_2014-05-14_13-42-35_094959634447_rgbf000101-resize_1/003228_2014-05-14_13-42-35_094959634447_rgbf000101-resize_1-target.png,125,1.9680000000000002,2,3496,117,meters,jsons/VE125_randls_45_rotated.json,580792,1797598,32,Woman
131,138058,DepthScenes,duration_manipulation_targetAtFixation,jsons/VE125_randls_45_rotated.json,http://54.235.29.9/FacialAge/BNav_EC2/DepthDuration/v2_depth_duration_MTurk/v2_DepthDuration_HTML.html#294,294,1366,657,1366,768,8-29-2022,10-41-12,132,depth_duration_stimuli/002600_2014-06-24_14-27-04_094959634447_rgbf000074-resize_2/002600_2014-06-24_14-27-04_094959634447_rgbf000074-resize_2-target.png,125,2.7575,0,2811,110,meters,jsons/VE125_randls_45_rotated.json,580792,1797598,32,Woman
132,138058,DepthScenes,duration_manipulation_targetAtFixation,jsons/VE125_randls_45_rotated.json,http://54.235.29.9/FacialAge/BNav_EC2/DepthDuration/v2_depth_duration_MTurk/v2_DepthDuration_HTML.html#294,294,1366,657,1366,768,8-29-2022,10-41-12,133,depth_duration_stimuli/002637_2014-06-24_14-51-13_094959634447_rgbf000066-resize_4/002637_2014-06-24_14-51-13_094959634447_rgbf000066-resize_4-target.png,125,1.9955,2,2938,124,meters,jsons/VE125_randls_45_rotated.json,580792,1797598,32,Woman
133,138058,DepthScenes,duration_manipulation_targetAtFixation,jsons/VE125_randls_45_rotated.json,http://54.235.29.9/FacialAge/BNav_EC2/DepthDuration/v2_depth_duration_MTurk/v2_DepthDuration_HTML.html#294,294,1366,657,1366,768,8-29-2022,10-41-12,134,depth_duration_stimuli/003534_2014-05-22_15-06-10_094959634447_rgbf000102-resize_4/003534_2014-05-22_15-06-10_094959634447_rgbf000102-resize_4-target.png,125,1.426,2,2987,138,meters,jsons/VE125_randls_45_rotated.json,580792,1797598,32,Woman
134,138058,DepthScenes,duration_manipulation_targetAtFixation,jsons/VE125_randls_45_rotated.json,http://54.235.29.9/FacialAge/BNav_EC2/DepthDuration/v2_depth_duration_MTurk/v2_DepthDuration_HTML.html#294,294,1366,657,1366,768,8-29-2022,10-41-12,135,depth_duration_stimuli/000375_2014-06-08_11-17-29_260595134347_rgbf000133-resize_2/000375_2014-06-08_11-17-29_260595134347_rgbf000133-resize-original.jpg,125,4.718,0,3062,122,meters,jsons/VE125_randls_45_rotated.json,580792,1797598,32,Woman
135,138058,DepthScenes,duration_manipulation_targetAtFixation,jsons/VE125_randls_45_rotated.json,http://54.235.29.9/FacialAge/BNav_EC2/DepthDuration/v2_depth_duration_MTurk/v2_DepthDuration_HTML.html#294,294,1366,657,1366,768,8-29-2022,10-41-12,136,depth_duration_stimuli/001516_2014-06-20_16-25-09_260595134347_rgbf000076-resize_2/001516_2014-06-20_16-25-09_260595134347_rgbf000076-resize_2-target.png,125,1.7445,1,7208,122,meters,jsons/VE125_randls_45_rotated.json,580792,1797598,32,Woman
136,138058,DepthScenes,duration_manipulation_targetAtFixation,jsons/VE125_randls_45_rotated.json,http://54.235.29.9/FacialAge/BNav_EC2/DepthDuration/v2_depth_duration_MTurk/v2_DepthDuration_HTML.html#294,294,1366,657,1366,768,8-29-2022,10-41-12,137,depth_duration_stimuli/002118_2014-06-25_20-32-08_260595134347_rgbf000078-resize_1/002118_2014-06-25_20-32-08_260595134347_rgbf000078-resize_1-target.png,125,2.6460000000000004,1,2281,79,meters,jsons/VE125_randls_45_rotated.json,580792,1797598,32,Woman
137,138058,DepthScenes,duration_manipulation_targetAtFixation,jsons/VE125_randls_45_rotated.json,http://54.235.29.9/FacialAge/BNav_EC2/DepthDuration/v2_depth_duration_MTurk/v2_DepthDuration_HTML.html#294,294,1366,657,1366,768,8-29-2022,10-41-12,138,depth_duration_stimuli/002568_2014-06-24_13-59-21_094959634447_rgbf000062-resize_4/002568_2014-06-24_13-59-21_094959634447_rgbf000062-resize_4-target.png,125,3.015,1,1865,125,meters,jsons/VE125_randls_45_rotated.json,580792,1797598,32,Woman
138,138058,DepthScenes,duration_manipulation_targetAtFixation,jsons/VE125_randls_45_rotated.json,http://54.235.29.9/FacialAge/BNav_EC2/DepthDuration/v2_depth_duration_MTurk/v2_DepthDuration_HTML.html#294,294,1366,657,1366,768,8-29-2022,10-41-12,139,depth_duration_stimuli/003492_2014-05-21_15-50-55_094959634447_rgbf000828-resize_1/003492_2014-05-21_15-50-55_094959634447_rgbf000828-resize_1-target.png,125,4.06875,2,1947,114,meters,jsons/VE125_randls_45_rotated.json,580792,1797598,32,Woman
139,138058,DepthScenes,duration_manipulation_targetAtFixation,jsons/VE125_randls_45_rotated.json,http://54.235.29.9/FacialAge/BNav_EC2/DepthDuration/v2_depth_duration_MTurk/v2_DepthDuration_HTML.html#294,294,1366,657,1366,768,8-29-2022,10-41-12,140,depth_duration_stimuli/001052_2014-06-08_18-24-54_260595134347_rgbf000130-resize_1/001052_2014-06-08_18-24-54_260595134347_rgbf000130-resize_1-target.png,125,4.1045,2,2274,196,meters,jsons/VE125_randls_45_rotated.json,580792,1797598,32,Woman
140,138058,DepthScenes,duration_manipulation_targetAtFixation,jsons/VE125_randls_45_rotated.json,http://54.235.29.9/FacialAge/BNav_EC2/DepthDuration/v2_depth_duration_MTurk/v2_DepthDuration_HTML.html#294,294,1366,657,1366,768,8-29-2022,10-41-12,141,depth_duration_stimuli/002988_2014-06-15_12-24-20_094959634447_rgbf000150-resize_1/002988_2014-06-15_12-24-20_094959634447_rgbf000150-resize_1-target.png,125,4.7669999999999995,2,2166,123,meters,jsons/VE125_randls_45_rotated.json,580792,1797598,32,Woman
141,138058,DepthScenes,duration_manipulation_targetAtFixation,jsons/VE125_randls_45_rotated.json,http://54.235.29.9/FacialAge/BNav_EC2/DepthDuration/v2_depth_duration_MTurk/v2_DepthDuration_HTML.html#294,294,1366,657,1366,768,8-29-2022,10-41-12,142,depth_duration_stimuli/003129_2014-05-12_10-48-10_094959634447_rgbf000100-resize_0/003129_2014-05-12_10-48-10_094959634447_rgbf000100-resize_0-target.png,125,4.9305,2,2698,104,meters,jsons/VE125_randls_45_rotated.json,580792,1797598,32,Woman
142,138058,DepthScenes,duration_manipulation_targetAtFixation,jsons/VE125_randls_45_rotated.json,http://54.235.29.9/FacialAge/BNav_EC2/DepthDuration/v2_depth_duration_MTurk/v2_DepthDuration_HTML.html#294,294,1366,657,1366,768,8-29-2022,10-41-12,143,depth_duration_stimuli/000414_2014-06-04_19-49-13_260595134347_rgbf000044-resize_0/000414_2014-06-04_19-49-13_260595134347_rgbf000044-resize_0-target.png,125,4.329,3,2839,125,meters,jsons/VE125_randls_45_rotated.json,580792,1797598,32,Woman
143,138058,DepthScenes,duration_manipulation_targetAtFixation,jsons/VE125_randls_45_rotated.json,http://54.235.29.9/FacialAge/BNav_EC2/DepthDuration/v2_depth_duration_MTurk/v2_DepthDuration_HTML.html#294,294,1366,657,1366,768,8-29-2022,10-41-12,144,depth_duration_stimuli/002414_2014-06-28_20-24-58_260595134347_rgbf000067-resize_4/002414_2014-06-28_20-24-58_260595134347_rgbf000067-resize_4-target.png,125,4.363,3,2983,112,meters,jsons/VE125_randls_45_rotated.json,580792,1797598,32,Woman
144,138058,DepthScenes,duration_manipulation_targetAtFixation,jsons/VE125_randls_45_rotated.json,http://54.235.29.9/FacialAge/BNav_EC2/DepthDuration/v2_depth_duration_MTurk/v2_DepthDuration_HTML.html#294,294,1366,657,1366,768,8-29-2022,10-41-12,145,depth_duration_stimuli/000773_2014-06-08_22-24-54_260595134347_rgbf000093-resize_1/000773_2014-06-08_22-24-54_260595134347_rgbf000093-resize_1-target.png,125,4.973,3,2433,139,meters,jsons/VE125_randls_45_rotated.json,580792,1797598,32,Woman
145,138058,DepthScenes,duration_manipulation_targetAtFixation,jsons/VE125_randls_45_rotated.json,http://54.235.29.9/FacialAge/BNav_EC2/DepthDuration/v2_depth_duration_MTurk/v2_DepthDuration_HTML.html#294,294,1366,657,1366,768,8-29-2022,10-41-12,146,depth_duration_stimuli/000709_2014-06-08_13-51-55_260595134347_rgbf000068-resize_3/000709_2014-06-08_13-51-55_260595134347_rgbf000068-resize_3-target.png,125,1.8030000000000002,0,3063,124,meters,jsons/VE125_randls_45_rotated.json,580792,1797598,32,Woman
146,138058,DepthScenes,duration_manipulation_targetAtFixation,jsons/VE125_randls_45_rotated.json,http://54.235.29.9/FacialAge/BNav_EC2/DepthDuration/v2_depth_duration_MTurk/v2_DepthDuration_HTML.html#294,294,1366,657,1366,768,8-29-2022,10-41-12,147,depth_duration_stimuli/002057_2014-06-24_21-00-13_260595134347_rgbf000120-resize_1/002057_2014-06-24_21-00-13_260595134347_rgbf000120-resize_1-target.png,125,2.967,3,2850,125,meters,jsons/VE125_randls_45_rotated.json,580792,1797598,32,Woman
147,138058,DepthScenes,duration_manipulation_targetAtFixation,jsons/VE125_randls_45_rotated.json,http://54.235.29.9/FacialAge/BNav_EC2/DepthDuration/v2_depth_duration_MTurk/v2_DepthDuration_HTML.html#294,294,1366,657,1366,768,8-29-2022,10-41-12,148,depth_duration_stimuli/002467_2014-06-28_20-38-07_260595134347_rgbf000026-resize_2/002467_2014-06-28_20-38-07_260595134347_rgbf000026-resize_2-target.png,125,4.742,2,1977,125,meters,jsons/VE125_randls_45_rotated.json,580792,1797598,32,Woman
148,138058,DepthScenes,duration_manipulation_targetAtFixation,jsons/VE125_randls_45_rotated.json,http://54.235.29.9/FacialAge/BNav_EC2/DepthDuration/v2_depth_duration_MTurk/v2_DepthDuration_HTML.html#294,294,1366,657,1366,768,8-29-2022,10-41-12,149,depth_duration_stimuli/002570_2014-06-24_13-59-54_094959634447_rgbf000059-resize_0/002570_2014-06-24_13-59-54_094959634447_rgbf000059-resize_0-target.png,125,4.037,2,2201,130,meters,jsons/VE125_randls_45_rotated.json,580792,1797598,32,Woman
149,138058,DepthScenes,duration_manipulation_targetAtFixation,jsons/VE125_randls_45_rotated.json,http://54.235.29.9/FacialAge/BNav_EC2/DepthDuration/v2_depth_duration_MTurk/v2_DepthDuration_HTML.html#294,294,1366,657,1366,768,8-29-2022,10-41-12,150,depth_duration_stimuli/002639_2014-06-24_14-51-37_094959634447_rgbf000074-resize_4/002639_2014-06-24_14-51-37_094959634447_rgbf000074-resize_4-target.png,125,4.0375,2,2320,101,meters,jsons/VE125_randls_45_rotated.json,580792,1797598,32,Woman
150,138058,DepthScenes,duration_manipulation_targetAtFixation,jsons/VE125_randls_45_rotated.json,http://54.235.29.9/FacialAge/BNav_EC2/DepthDuration/v2_depth_duration_MTurk/v2_DepthDuration_HTML.html#294,294,1366,657,1366,768,8-29-2022,10-41-12,151,depth_duration_stimuli/003292_2014-05-14_21-53-49_094959634447_rgbf000100-resize_2/003292_2014-05-14_21-53-49_094959634447_rgbf000100-resize_2-target.png,125,3.4815,2,1916,126,meters,jsons/VE125_randls_45_rotated.json,580792,1797598,32,Woman
151,138058,DepthScenes,duration_manipulation_targetAtFixation,jsons/VE125_randls_45_rotated.json,http://54.235.29.9/FacialAge/BNav_EC2/DepthDuration/v2_depth_duration_MTurk/v2_DepthDuration_HTML.html#294,294,1366,657,1366,768,8-29-2022,10-41-12,152,depth_duration_stimuli/000569_2014-06-09_22-51-47_260595134347_rgbf000141-resize_3/000569_2014-06-09_22-51-47_260595134347_rgbf000141-resize-original.jpg,125,4.512,1,31540,155,meters,jsons/VE125_randls_45_rotated.json,580792,1797598,32,Woman
152,138058,DepthScenes,duration_manipulation_targetAtFixation,jsons/VE125_randls_45_rotated.json,http://54.235.29.9/FacialAge/BNav_EC2/DepthDuration/v2_depth_duration_MTurk/v2_DepthDuration_HTML.html#294,294,1366,657,1366,768,8-29-2022,10-41-12,153,depth_duration_stimuli/002425_2014-06-28_20-27-29_260595134347_rgbf000031-resize_8/002425_2014-06-28_20-27-29_260595134347_rgbf000031-resize_8-target.png,125,3.8960000000000004,2,2834,132,meters,jsons/VE125_randls_45_rotated.json,580792,1797598,32,Woman
153,138058,DepthScenes,duration_manipulation_targetAtFixation,jsons/VE125_randls_45_rotated.json,http://54.235.29.9/FacialAge/BNav_EC2/DepthDuration/v2_depth_duration_MTurk/v2_DepthDuration_HTML.html#294,294,1366,657,1366,768,8-29-2022,10-41-12,154,depth_duration_stimuli/000642_2014-06-08_16-59-25_260595134347_rgbf000098-resize_2/000642_2014-06-08_16-59-25_260595134347_rgbf000098-resize_2-target.png,125,2.8815,2,2644,124,meters,jsons/VE125_randls_45_rotated.json,580792,1797598,32,Woman
154,138058,DepthScenes,duration_manipulation_targetAtFixation,jsons/VE125_randls_45_rotated.json,http://54.235.29.9/FacialAge/BNav_EC2/DepthDuration/v2_depth_duration_MTurk/v2_DepthDuration_HTML.html#294,294,1366,657,1366,768,8-29-2022,10-41-12,155,depth_duration_stimuli/001450_2014-06-19_17-02-03_260595134347_rgbf000203-resize_4/001450_2014-06-19_17-02-03_260595134347_rgbf000203-resize_4-target.png,125,4.0106666666667,2,2351,130,meters,jsons/VE125_randls_45_rotated.json,580792,1797598,32,Woman
155,138058,DepthScenes,duration_manipulation_targetAtFixation,jsons/VE125_randls_45_rotated.json,http://54.235.29.9/FacialAge/BNav_EC2/DepthDuration/v2_depth_duration_MTurk/v2_DepthDuration_HTML.html#294,294,1366,657,1366,768,8-29-2022,10-41-12,156,depth_duration_stimuli/001449_2014-06-19_17-01-27_260595134347_rgbf000116-resize_2/001449_2014-06-19_17-01-27_260595134347_rgbf000116-resize_2-target.png,125,3.452,2,2105,168,meters,jsons/VE125_randls_45_rotated.json,580792,1797598,32,Woman
156,138058,DepthScenes,duration_manipulation_targetAtFixation,jsons/VE125_randls_45_rotated.json,http://54.235.29.9/FacialAge/BNav_EC2/DepthDuration/v2_depth_duration_MTurk/v2_DepthDuration_HTML.html#294,294,1366,657,1366,768,8-29-2022,10-41-12,157,depth_duration_stimuli/001815_2014-06-26_20-52-55_260595134347_rgbf000020-resize_0/001815_2014-06-26_20-52-55_260595134347_rgbf000020-resize_0-target.png,125,3.3865,3,2017,143,meters,jsons/VE125_randls_45_rotated.json,580792,1797598,32,Woman
157,138058,DepthScenes,duration_manipulation_targetAtFixation,jsons/VE125_randls_45_rotated.json,http://54.235.29.9/FacialAge/BNav_EC2/DepthDuration/v2_depth_duration_MTurk/v2_DepthDuration_HTML.html#294,294,1366,657,1366,768,8-29-2022,10-41-12,158,depth_duration_stimuli/001808_2014-06-26_20-50-58_260595134347_rgbf000029-resize_1/001808_2014-06-26_20-50-58_260595134347_rgbf000029-resize_1-target.png,125,4.249,2,1895,109,meters,jsons/VE125_randls_45_rotated.json,580792,1797598,32,Woman
158,138058,DepthScenes,duration_manipulation_targetAtFixation,jsons/VE125_randls_45_rotated.json,http://54.235.29.9/FacialAge/BNav_EC2/DepthDuration/v2_depth_duration_MTurk/v2_DepthDuration_HTML.html#294,294,1366,657,1366,768,8-29-2022,10-41-12,159,depth_duration_stimuli/002805_2014-06-22_19-54-03_094959634447_rgbf000079-resize_1/002805_2014-06-22_19-54-03_094959634447_rgbf000079-resize_1-target.png,125,3.1439999999999997,3,4753,128,meters,jsons/VE125_randls_45_rotated.json,580792,1797598,32,Woman
159,138058,DepthScenes,duration_manipulation_targetAtFixation,jsons/VE125_randls_45_rotated.json,http://54.235.29.9/FacialAge/BNav_EC2/DepthDuration/v2_depth_duration_MTurk/v2_DepthDuration_HTML.html#294,294,1366,657,1366,768,8-29-2022,10-41-12,160,depth_duration_stimuli/000906_2014-06-08_13-35-43_260595134347_rgbf000155-resize_1/000906_2014-06-08_13-35-43_260595134347_rgbf000155-resize_1-target.png,125,2.8489999999999998,2,2378,127,meters,jsons/VE125_randls_45_rotated.json,580792,1797598,32,Woman
160,138058,DepthScenes,duration_manipulation_targetAtFixation,jsons/VE125_randls_45_rotated.json,http://54.235.29.9/FacialAge/BNav_EC2/DepthDuration/v2_depth_duration_MTurk/v2_DepthDuration_HTML.html#294,294,1366,657,1366,768,8-29-2022,10-41-12,161,depth_duration_stimuli/000927_2014-06-09_16-32-30_260595134347_rgbf000123-resize_3/000927_2014-06-09_16-32-30_260595134347_rgbf000123-resize_3-target.png,125,2.6785,2,2626,126,meters,jsons/VE125_randls_45_rotated.json,580792,1797598,32,Woman
161,138058,DepthScenes,duration_manipulation_targetAtFixation,jsons/VE125_randls_45_rotated.json,http://54.235.29.9/FacialAge/BNav_EC2/DepthDuration/v2_depth_duration_MTurk/v2_DepthDuration_HTML.html#294,294,1366,657,1366,768,8-29-2022,10-41-12,162,depth_duration_stimuli/001110_2014-06-15_17-25-28_260595134347_rgbf000150-resize_1/001110_2014-06-15_17-25-28_260595134347_rgbf000150-resize_1-target.png,125,1.7115,2,2395,139,meters,jsons/VE125_randls_45_rotated.json,580792,1797598,32,Woman
162,138058,DepthScenes,duration_manipulation_targetAtFixation,jsons/VE125_randls_45_rotated.json,http://54.235.29.9/FacialAge/BNav_EC2/DepthDuration/v2_depth_duration_MTurk/v2_DepthDuration_HTML.html#294,294,1366,657,1366,768,8-29-2022,10-41-12,163,depth_duration_stimuli/000556_2014-06-09_22-42-56_260595134347_rgbf000214-resize_1/000556_2014-06-09_22-42-56_260595134347_rgbf000214-resize_1-target.png,125,4.8415,1,2164,124,meters,jsons/VE125_randls_45_rotated.json,580792,1797598,32,Woman
163,138058,DepthScenes,duration_manipulation_targetAtFixation,jsons/VE125_randls_45_rotated.json,http://54.235.29.9/FacialAge/BNav_EC2/DepthDuration/v2_depth_duration_MTurk/v2_DepthDuration_HTML.html#294,294,1366,657,1366,768,8-29-2022,10-41-12,164,depth_duration_stimuli/001158_2014-06-17_15-32-16_260595134347_rgbf000138-resize_2/001158_2014-06-17_15-32-16_260595134347_rgbf000138-resize_2-target.png,125,4.5315,2,2064,187,meters,jsons/VE125_randls_45_rotated.json,580792,1797598,32,Woman
