,subjID,experimentName,versionName,sequenceName,url,selected_row,windowWidth,windowHeight,screenWidth,screenHeight,startDate,startTime,trial,stimulus,duration,actual_depth,depth_estimate,trial_RT,log_sceneDuration,unitSelection,seq_filepath,experimentTime,totalTime,age,gender
0,138483,DepthScenes,duration_manipulation_targetAtFixation,jsons/VE125_randls_40_rotated.json,http://54.235.29.9/FacialAge/BNav_EC2/DepthDuration/v2_depth_duration_MTurk/v2_DepthDuration_HTML.html#222,222,1366,625,1366,768,9-3-2022,9-27-13,1,depth_duration_stimuli/001094_2014-06-15_17-36-00_260595134347_rgbf000205-resize_0/001094_2014-06-15_17-36-00_260595134347_rgbf000205-resize_0-target.png,125,4.2175,2,3236,125,feet,jsons/VE125_randls_40_rotated.json,710232,825772,48,Woman
1,138483,DepthScenes,duration_manipulation_targetAtFixation,jsons/VE125_randls_40_rotated.json,http://54.235.29.9/FacialAge/BNav_EC2/DepthDuration/v2_depth_duration_MTurk/v2_DepthDuration_HTML.html#222,222,1366,625,1366,768,9-3-2022,9-27-13,2,depth_duration_stimuli/000692_2014-06-08_13-09-42_260595134347_rgbf000199-resize_2/000692_2014-06-08_13-09-42_260595134347_rgbf000199-resize_2-target.png,125,3.661,2,2620,117,feet,jsons/VE125_randls_40_rotated.json,710232,825772,48,Woman
2,138483,DepthScenes,duration_manipulation_targetAtFixation,jsons/VE125_randls_40_rotated.json,http://54.235.29.9/FacialAge/BNav_EC2/DepthDuration/v2_depth_duration_MTurk/v2_DepthDuration_HTML.html#222,222,1366,625,1366,768,9-3-2022,9-27-13,3,depth_duration_stimuli/003423_2014-05-21_10-23-26_094959634447_rgbf002665-resize_2/003423_2014-05-21_10-23-26_094959634447_rgbf002665-resize_2-target.png,125,3.2575,2,2281,125,feet,jsons/VE125_randls_40_rotated.json,710232,825772,48,Woman
3,138483,DepthScenes,duration_manipulation_targetAtFixation,jsons/VE125_randls_40_rotated.json,http://54.235.29.9/FacialAge/BNav_EC2/DepthDuration/v2_depth_duration_MTurk/v2_DepthDuration_HTML.html#222,222,1366,625,1366,768,9-3-2022,9-27-13,4,depth_duration_stimuli/002905_2014-06-03_18-04-43_094959634447_rgbf000151-resize_2/002905_2014-06-03_18-04-43_094959634447_rgbf000151-resize_2-target.png,125,2.0295,2,2475,136,feet,jsons/VE125_randls_40_rotated.json,710232,825772,48,Woman
4,138483,DepthScenes,duration_manipulation_targetAtFixation,jsons/VE125_randls_40_rotated.json,http://54.235.29.9/FacialAge/BNav_EC2/DepthDuration/v2_depth_duration_MTurk/v2_DepthDuration_HTML.html#222,222,1366,625,1366,768,9-3-2022,9-27-13,5,depth_duration_stimuli/001100_2014-06-15_17-46-26_260595134347_rgbf000225-resize_2/001100_2014-06-15_17-46-26_260595134347_rgbf000225-resize_2-target.png,125,2.24,2,2701,119,feet,jsons/VE125_randls_40_rotated.json,710232,825772,48,Woman
5,138483,DepthScenes,duration_manipulation_targetAtFixation,jsons/VE125_randls_40_rotated.json,http://54.235.29.9/FacialAge/BNav_EC2/DepthDuration/v2_depth_duration_MTurk/v2_DepthDuration_HTML.html#222,222,1366,625,1366,768,9-3-2022,9-27-13,6,depth_duration_stimuli/002784_2014-06-22_19-26-30_094959634447_rgbf000083-resize_3/002784_2014-06-22_19-26-30_094959634447_rgbf000083-resize_3-target.png,125,1.8046666666667,4,3360,122,feet,jsons/VE125_randls_40_rotated.json,710232,825772,48,Woman
6,138483,DepthScenes,duration_manipulation_targetAtFixation,jsons/VE125_randls_40_rotated.json,http://54.235.29.9/FacialAge/BNav_EC2/DepthDuration/v2_depth_duration_MTurk/v2_DepthDuration_HTML.html#222,222,1366,625,1366,768,9-3-2022,9-27-13,7,depth_duration_stimuli/000709_2014-06-08_13-51-55_260595134347_rgbf000068-resize_3/000709_2014-06-08_13-51-55_260595134347_rgbf000068-resize_3-target.png,125,1.8030000000000002,4,3875,126,feet,jsons/VE125_randls_40_rotated.json,710232,825772,48,Woman
7,138483,DepthScenes,duration_manipulation_targetAtFixation,jsons/VE125_randls_40_rotated.json,http://54.235.29.9/FacialAge/BNav_EC2/DepthDuration/v2_depth_duration_MTurk/v2_DepthDuration_HTML.html#222,222,1366,625,1366,768,9-3-2022,9-27-13,8,depth_duration_stimuli/002057_2014-06-24_21-00-13_260595134347_rgbf000120-resize_1/002057_2014-06-24_21-00-13_260595134347_rgbf000120-resize_1-target.png,125,2.967,4,2635,125,feet,jsons/VE125_randls_40_rotated.json,710232,825772,48,Woman
8,138483,DepthScenes,duration_manipulation_targetAtFixation,jsons/VE125_randls_40_rotated.json,http://54.235.29.9/FacialAge/BNav_EC2/DepthDuration/v2_depth_duration_MTurk/v2_DepthDuration_HTML.html#222,222,1366,625,1366,768,9-3-2022,9-27-13,9,depth_duration_stimuli/003079_2014-06-15_15-18-20_094959634447_rgbf000152-resize_8/003079_2014-06-15_15-18-20_094959634447_rgbf000152-resize_8-target.png,125,2.8775,2,2504,126,feet,jsons/VE125_randls_40_rotated.json,710232,825772,48,Woman
9,138483,DepthScenes,duration_manipulation_targetAtFixation,jsons/VE125_randls_40_rotated.json,http://54.235.29.9/FacialAge/BNav_EC2/DepthDuration/v2_depth_duration_MTurk/v2_DepthDuration_HTML.html#222,222,1366,625,1366,768,9-3-2022,9-27-13,10,depth_duration_stimuli/000506_2014-06-08_23-21-00_260595134347_rgbf000070-resize_7/000506_2014-06-08_23-21-00_260595134347_rgbf000070-resize_7-target.png,125,4.0585,2,2356,123,feet,jsons/VE125_randls_40_rotated.json,710232,825772,48,Woman
10,138483,DepthScenes,duration_manipulation_targetAtFixation,jsons/VE125_randls_40_rotated.json,http://54.235.29.9/FacialAge/BNav_EC2/DepthDuration/v2_depth_duration_MTurk/v2_DepthDuration_HTML.html#222,222,1366,625,1366,768,9-3-2022,9-27-13,11,depth_duration_stimuli/002444_2014-06-28_20-32-08_260595134347_rgbf000027-resize_0/002444_2014-06-28_20-32-08_260595134347_rgbf000027-resize_0-target.png,125,4.388999999999999,2,2536,123,feet,jsons/VE125_randls_40_rotated.json,710232,825772,48,Woman
11,138483,DepthScenes,duration_manipulation_targetAtFixation,jsons/VE125_randls_40_rotated.json,http://54.235.29.9/FacialAge/BNav_EC2/DepthDuration/v2_depth_duration_MTurk/v2_DepthDuration_HTML.html#222,222,1366,625,1366,768,9-3-2022,9-27-13,12,depth_duration_stimuli/000436_2014-06-09_22-25-11_260595134347_rgbf000137-resize_1/000436_2014-06-09_22-25-11_260595134347_rgbf000137-resize_1-target.png,125,4.0705,2,2484,124,feet,jsons/VE125_randls_40_rotated.json,710232,825772,48,Woman
12,138483,DepthScenes,duration_manipulation_targetAtFixation,jsons/VE125_randls_40_rotated.json,http://54.235.29.9/FacialAge/BNav_EC2/DepthDuration/v2_depth_duration_MTurk/v2_DepthDuration_HTML.html#222,222,1366,625,1366,768,9-3-2022,9-27-13,13,depth_duration_stimuli/002953_2014-06-08_17-32-18_094959634447_rgbf000059-resize_5/002953_2014-06-08_17-32-18_094959634447_rgbf000059-resize_5-target.png,125,1.551,2,2330,124,feet,jsons/VE125_randls_40_rotated.json,710232,825772,48,Woman
13,138483,DepthScenes,duration_manipulation_targetAtFixation,jsons/VE125_randls_40_rotated.json,http://54.235.29.9/FacialAge/BNav_EC2/DepthDuration/v2_depth_duration_MTurk/v2_DepthDuration_HTML.html#222,222,1366,625,1366,768,9-3-2022,9-27-13,14,depth_duration_stimuli/000878_2014-06-08_22-52-45_260595134347_rgbf000045-resize_2/000878_2014-06-08_22-52-45_260595134347_rgbf000045-resize_2-target.png,125,2.092,2,2208,135,feet,jsons/VE125_randls_40_rotated.json,710232,825772,48,Woman
14,138483,DepthScenes,duration_manipulation_targetAtFixation,jsons/VE125_randls_40_rotated.json,http://54.235.29.9/FacialAge/BNav_EC2/DepthDuration/v2_depth_duration_MTurk/v2_DepthDuration_HTML.html#222,222,1366,625,1366,768,9-3-2022,9-27-13,15,depth_duration_stimuli/000691_2014-06-08_13-08-50_260595134347_rgbf000132-resize_3/000691_2014-06-08_13-08-50_260595134347_rgbf000132-resize_3-target.png,125,4.1530000000000005,2,2331,131,feet,jsons/VE125_randls_40_rotated.json,710232,825772,48,Woman
15,138483,DepthScenes,duration_manipulation_targetAtFixation,jsons/VE125_randls_40_rotated.json,http://54.235.29.9/FacialAge/BNav_EC2/DepthDuration/v2_depth_duration_MTurk/v2_DepthDuration_HTML.html#222,222,1366,625,1366,768,9-3-2022,9-27-13,16,depth_duration_stimuli/002213_2014-06-28_18-37-58_260595134347_rgbf000055-resize_1/002213_2014-06-28_18-37-58_260595134347_rgbf000055-resize_1-target.png,125,3.62,2,2231,113,feet,jsons/VE125_randls_40_rotated.json,710232,825772,48,Woman
16,138483,DepthScenes,duration_manipulation_targetAtFixation,jsons/VE125_randls_40_rotated.json,http://54.235.29.9/FacialAge/BNav_EC2/DepthDuration/v2_depth_duration_MTurk/v2_DepthDuration_HTML.html#222,222,1366,625,1366,768,9-3-2022,9-27-13,17,depth_duration_stimuli/001617_2014-06-20_11-35-32_260595134347_rgbf000066-resize_1/001617_2014-06-20_11-35-32_260595134347_rgbf000066-resize_1-target.png,125,3.7910000000000004,2,2594,127,feet,jsons/VE125_randls_40_rotated.json,710232,825772,48,Woman
17,138483,DepthScenes,duration_manipulation_targetAtFixation,jsons/VE125_randls_40_rotated.json,http://54.235.29.9/FacialAge/BNav_EC2/DepthDuration/v2_depth_duration_MTurk/v2_DepthDuration_HTML.html#222,222,1366,625,1366,768,9-3-2022,9-27-13,18,depth_duration_stimuli/001806_2014-06-26_20-50-20_260595134347_rgbf000091-resize_1/001806_2014-06-26_20-50-20_260595134347_rgbf000091-resize_1-target.png,125,2.7305,2,5733,125,feet,jsons/VE125_randls_40_rotated.json,710232,825772,48,Woman
18,138483,DepthScenes,duration_manipulation_targetAtFixation,jsons/VE125_randls_40_rotated.json,http://54.235.29.9/FacialAge/BNav_EC2/DepthDuration/v2_depth_duration_MTurk/v2_DepthDuration_HTML.html#222,222,1366,625,1366,768,9-3-2022,9-27-13,19,depth_duration_stimuli/001498_2014-06-19_17-45-14_260595134347_rgbf000129-resize_4/001498_2014-06-19_17-45-14_260595134347_rgbf000129-resize-original.jpg,125,1.4075,2,2064,126,feet,jsons/VE125_randls_40_rotated.json,710232,825772,48,Woman
19,138483,DepthScenes,duration_manipulation_targetAtFixation,jsons/VE125_randls_40_rotated.json,http://54.235.29.9/FacialAge/BNav_EC2/DepthDuration/v2_depth_duration_MTurk/v2_DepthDuration_HTML.html#222,222,1366,625,1366,768,9-3-2022,9-27-13,20,depth_duration_stimuli/000502_2014-06-08_23-02-32_260595134347_rgbf000063-resize_4/000502_2014-06-08_23-02-32_260595134347_rgbf000063-resize_4-target.png,125,2.431,2,2162,122,feet,jsons/VE125_randls_40_rotated.json,710232,825772,48,Woman
20,138483,DepthScenes,duration_manipulation_targetAtFixation,jsons/VE125_randls_40_rotated.json,http://54.235.29.9/FacialAge/BNav_EC2/DepthDuration/v2_depth_duration_MTurk/v2_DepthDuration_HTML.html#222,222,1366,625,1366,768,9-3-2022,9-27-13,21,depth_duration_stimuli/001199_2014-06-17_16-03-48_260595134347_rgbf000077-resize_0/001199_2014-06-17_16-03-48_260595134347_rgbf000077-resize_0-target.png,125,3.4375,3,2679,120,feet,jsons/VE125_randls_40_rotated.json,710232,825772,48,Woman
21,138483,DepthScenes,duration_manipulation_targetAtFixation,jsons/VE125_randls_40_rotated.json,http://54.235.29.9/FacialAge/BNav_EC2/DepthDuration/v2_depth_duration_MTurk/v2_DepthDuration_HTML.html#222,222,1366,625,1366,768,9-3-2022,9-27-13,22,depth_duration_stimuli/002660_2014-06-13_15-44-18_094959634447_rgbf001878-resize_2/002660_2014-06-13_15-44-18_094959634447_rgbf001878-resize_2-target.png,125,3.576,3,2159,132,feet,jsons/VE125_randls_40_rotated.json,710232,825772,48,Woman
22,138483,DepthScenes,duration_manipulation_targetAtFixation,jsons/VE125_randls_40_rotated.json,http://54.235.29.9/FacialAge/BNav_EC2/DepthDuration/v2_depth_duration_MTurk/v2_DepthDuration_HTML.html#222,222,1366,625,1366,768,9-3-2022,9-27-13,23,depth_duration_stimuli/002153_2014-06-25_21-27-18_260595134347_rgbf000038-resize_5/002153_2014-06-25_21-27-18_260595134347_rgbf000038-resize_5-target.png,125,2.505,3,2075,126,feet,jsons/VE125_randls_40_rotated.json,710232,825772,48,Woman
23,138483,DepthScenes,duration_manipulation_targetAtFixation,jsons/VE125_randls_40_rotated.json,http://54.235.29.9/FacialAge/BNav_EC2/DepthDuration/v2_depth_duration_MTurk/v2_DepthDuration_HTML.html#222,222,1366,625,1366,768,9-3-2022,9-27-13,24,depth_duration_stimuli/003338_2014-05-20_11-01-23_094959634447_rgbf000051-resize_6/003338_2014-05-20_11-01-23_094959634447_rgbf000051-resize_6-target.png,125,1.693,3,2077,131,feet,jsons/VE125_randls_40_rotated.json,710232,825772,48,Woman
24,138483,DepthScenes,duration_manipulation_targetAtFixation,jsons/VE125_randls_40_rotated.json,http://54.235.29.9/FacialAge/BNav_EC2/DepthDuration/v2_depth_duration_MTurk/v2_DepthDuration_HTML.html#222,222,1366,625,1366,768,9-3-2022,9-27-13,25,depth_duration_stimuli/002509_2014-06-24_13-19-22_094959634447_rgbf000077-resize_0/002509_2014-06-24_13-19-22_094959634447_rgbf000077-resize_0-target.png,125,1.3065,2,2420,127,feet,jsons/VE125_randls_40_rotated.json,710232,825772,48,Woman
25,138483,DepthScenes,duration_manipulation_targetAtFixation,jsons/VE125_randls_40_rotated.json,http://54.235.29.9/FacialAge/BNav_EC2/DepthDuration/v2_depth_duration_MTurk/v2_DepthDuration_HTML.html#222,222,1366,625,1366,768,9-3-2022,9-27-13,26,depth_duration_stimuli/002545_2014-06-24_13-38-53_094959634447_rgbf000080-resize_4/002545_2014-06-24_13-38-53_094959634447_rgbf000080-resize_4-target.png,125,1.9205,3,2070,134,feet,jsons/VE125_randls_40_rotated.json,710232,825772,48,Woman
26,138483,DepthScenes,duration_manipulation_targetAtFixation,jsons/VE125_randls_40_rotated.json,http://54.235.29.9/FacialAge/BNav_EC2/DepthDuration/v2_depth_duration_MTurk/v2_DepthDuration_HTML.html#222,222,1366,625,1366,768,9-3-2022,9-27-13,27,depth_duration_stimuli/001092_2014-06-15_17-34-58_260595134347_rgbf000171-resize_3/001092_2014-06-15_17-34-58_260595134347_rgbf000171-resize_3-target.png,125,2.6935,3,2153,123,feet,jsons/VE125_randls_40_rotated.json,710232,825772,48,Woman
27,138483,DepthScenes,duration_manipulation_targetAtFixation,jsons/VE125_randls_40_rotated.json,http://54.235.29.9/FacialAge/BNav_EC2/DepthDuration/v2_depth_duration_MTurk/v2_DepthDuration_HTML.html#222,222,1366,625,1366,768,9-3-2022,9-27-13,28,depth_duration_stimuli/002199_2014-06-28_18-33-56_260595134347_rgbf000074-resize_0/002199_2014-06-28_18-33-56_260595134347_rgbf000074-resize_0-target.png,125,1.996,2,2086,123,feet,jsons/VE125_randls_40_rotated.json,710232,825772,48,Woman
28,138483,DepthScenes,duration_manipulation_targetAtFixation,jsons/VE125_randls_40_rotated.json,http://54.235.29.9/FacialAge/BNav_EC2/DepthDuration/v2_depth_duration_MTurk/v2_DepthDuration_HTML.html#222,222,1366,625,1366,768,9-3-2022,9-27-13,29,depth_duration_stimuli/001056_2014-06-08_18-46-44_260595134347_rgbf000068-resize_0/001056_2014-06-08_18-46-44_260595134347_rgbf000068-resize_0-target.png,125,2.6625,3,2165,125,feet,jsons/VE125_randls_40_rotated.json,710232,825772,48,Woman
29,138483,DepthScenes,duration_manipulation_targetAtFixation,jsons/VE125_randls_40_rotated.json,http://54.235.29.9/FacialAge/BNav_EC2/DepthDuration/v2_depth_duration_MTurk/v2_DepthDuration_HTML.html#222,222,1366,625,1366,768,9-3-2022,9-27-13,30,depth_duration_stimuli/002072_2014-06-24_21-48-06_260595134347_rgbf000115-resize_0/002072_2014-06-24_21-48-06_260595134347_rgbf000115-resize-original.jpg,125,4.702,2,2068,120,feet,jsons/VE125_randls_40_rotated.json,710232,825772,48,Woman
30,138483,DepthScenes,duration_manipulation_targetAtFixation,jsons/VE125_randls_40_rotated.json,http://54.235.29.9/FacialAge/BNav_EC2/DepthDuration/v2_depth_duration_MTurk/v2_DepthDuration_HTML.html#222,222,1366,625,1366,768,9-3-2022,9-27-13,31,depth_duration_stimuli/002637_2014-06-24_14-51-13_094959634447_rgbf000066-resize_4/002637_2014-06-24_14-51-13_094959634447_rgbf000066-resize_4-target.png,125,1.9955,3,2417,124,feet,jsons/VE125_randls_40_rotated.json,710232,825772,48,Woman
31,138483,DepthScenes,duration_manipulation_targetAtFixation,jsons/VE125_randls_40_rotated.json,http://54.235.29.9/FacialAge/BNav_EC2/DepthDuration/v2_depth_duration_MTurk/v2_DepthDuration_HTML.html#222,222,1366,625,1366,768,9-3-2022,9-27-13,32,depth_duration_stimuli/003534_2014-05-22_15-06-10_094959634447_rgbf000102-resize_4/003534_2014-05-22_15-06-10_094959634447_rgbf000102-resize_4-target.png,125,1.426,2,2640,134,feet,jsons/VE125_randls_40_rotated.json,710232,825772,48,Woman
32,138483,DepthScenes,duration_manipulation_targetAtFixation,jsons/VE125_randls_40_rotated.json,http://54.235.29.9/FacialAge/BNav_EC2/DepthDuration/v2_depth_duration_MTurk/v2_DepthDuration_HTML.html#222,222,1366,625,1366,768,9-3-2022,9-27-13,33,depth_duration_stimuli/003495_2014-05-21_16-01-51_094959634447_rgbf000100-resize_3/003495_2014-05-21_16-01-51_094959634447_rgbf000100-resize_3-target.png,125,1.6255,3,2226,124,feet,jsons/VE125_randls_40_rotated.json,710232,825772,48,Woman
33,138483,DepthScenes,duration_manipulation_targetAtFixation,jsons/VE125_randls_40_rotated.json,http://54.235.29.9/FacialAge/BNav_EC2/DepthDuration/v2_depth_duration_MTurk/v2_DepthDuration_HTML.html#222,222,1366,625,1366,768,9-3-2022,9-27-13,34,depth_duration_stimuli/001244_2014-06-17_16-47-45_260595134347_rgbf000030-resize_4/001244_2014-06-17_16-47-45_260595134347_rgbf000030-resize_4-target.png,125,2.0425,2,2610,123,feet,jsons/VE125_randls_40_rotated.json,710232,825772,48,Woman
34,138483,DepthScenes,duration_manipulation_targetAtFixation,jsons/VE125_randls_40_rotated.json,http://54.235.29.9/FacialAge/BNav_EC2/DepthDuration/v2_depth_duration_MTurk/v2_DepthDuration_HTML.html#222,222,1366,625,1366,768,9-3-2022,9-27-13,35,depth_duration_stimuli/002103_2014-06-25_20-00-40_260595134347_rgbf000049-resize_0/002103_2014-06-25_20-00-40_260595134347_rgbf000049-resize_0-target.png,125,4.105,3,2430,116,feet,jsons/VE125_randls_40_rotated.json,710232,825772,48,Woman
35,138483,DepthScenes,duration_manipulation_targetAtFixation,jsons/VE125_randls_40_rotated.json,http://54.235.29.9/FacialAge/BNav_EC2/DepthDuration/v2_depth_duration_MTurk/v2_DepthDuration_HTML.html#222,222,1366,625,1366,768,9-3-2022,9-27-13,36,depth_duration_stimuli/002039_2014-06-24_20-22-38_260595134347_rgbf000084-resize_1/002039_2014-06-24_20-22-38_260595134347_rgbf000084-resize_1-target.png,125,4.408,2,2173,134,feet,jsons/VE125_randls_40_rotated.json,710232,825772,48,Woman
36,138483,DepthScenes,duration_manipulation_targetAtFixation,jsons/VE125_randls_40_rotated.json,http://54.235.29.9/FacialAge/BNav_EC2/DepthDuration/v2_depth_duration_MTurk/v2_DepthDuration_HTML.html#222,222,1366,625,1366,768,9-3-2022,9-27-13,37,depth_duration_stimuli/000780_2014-06-08_22-28-29_260595134347_rgbf000126-resize_1/000780_2014-06-08_22-28-29_260595134347_rgbf000126-resize_1-target.png,125,3.3825,3,2198,119,feet,jsons/VE125_randls_40_rotated.json,710232,825772,48,Woman
37,138483,DepthScenes,duration_manipulation_targetAtFixation,jsons/VE125_randls_40_rotated.json,http://54.235.29.9/FacialAge/BNav_EC2/DepthDuration/v2_depth_duration_MTurk/v2_DepthDuration_HTML.html#222,222,1366,625,1366,768,9-3-2022,9-27-13,38,depth_duration_stimuli/002445_2014-06-28_20-32-16_260595134347_rgbf000029-resize_4/002445_2014-06-28_20-32-16_260595134347_rgbf000029-resize_4-target.png,125,2.5315,2,2218,135,feet,jsons/VE125_randls_40_rotated.json,710232,825772,48,Woman
38,138483,DepthScenes,duration_manipulation_targetAtFixation,jsons/VE125_randls_40_rotated.json,http://54.235.29.9/FacialAge/BNav_EC2/DepthDuration/v2_depth_duration_MTurk/v2_DepthDuration_HTML.html#222,222,1366,625,1366,768,9-3-2022,9-27-13,39,depth_duration_stimuli/002805_2014-06-22_19-54-03_094959634447_rgbf000079-resize_1/002805_2014-06-22_19-54-03_094959634447_rgbf000079-resize_1-target.png,125,3.1439999999999997,3,2122,116,feet,jsons/VE125_randls_40_rotated.json,710232,825772,48,Woman
39,138483,DepthScenes,duration_manipulation_targetAtFixation,jsons/VE125_randls_40_rotated.json,http://54.235.29.9/FacialAge/BNav_EC2/DepthDuration/v2_depth_duration_MTurk/v2_DepthDuration_HTML.html#222,222,1366,625,1366,768,9-3-2022,9-27-13,40,depth_duration_stimuli/000906_2014-06-08_13-35-43_260595134347_rgbf000155-resize_1/000906_2014-06-08_13-35-43_260595134347_rgbf000155-resize_1-target.png,125,2.8489999999999998,2,2033,127,feet,jsons/VE125_randls_40_rotated.json,710232,825772,48,Woman
40,138483,DepthScenes,duration_manipulation_targetAtFixation,jsons/VE125_randls_40_rotated.json,http://54.235.29.9/FacialAge/BNav_EC2/DepthDuration/v2_depth_duration_MTurk/v2_DepthDuration_HTML.html#222,222,1366,625,1366,768,9-3-2022,9-27-13,41,depth_duration_stimuli/003081_2014-06-15_15-19-16_094959634447_rgbf000150-resize_1/003081_2014-06-15_15-19-16_094959634447_rgbf000150-resize_1-target.png,125,3.9125,3,1991,125,feet,jsons/VE125_randls_40_rotated.json,710232,825772,48,Woman
41,138483,DepthScenes,duration_manipulation_targetAtFixation,jsons/VE125_randls_40_rotated.json,http://54.235.29.9/FacialAge/BNav_EC2/DepthDuration/v2_depth_duration_MTurk/v2_DepthDuration_HTML.html#222,222,1366,625,1366,768,9-3-2022,9-27-13,42,depth_duration_stimuli/001417_2014-06-19_16-25-36_260595134347_rgbf000115-resize_5/001417_2014-06-19_16-25-36_260595134347_rgbf000115-resize_5-target.png,125,4.6255,2,2989,124,feet,jsons/VE125_randls_40_rotated.json,710232,825772,48,Woman
42,138483,DepthScenes,duration_manipulation_targetAtFixation,jsons/VE125_randls_40_rotated.json,http://54.235.29.9/FacialAge/BNav_EC2/DepthDuration/v2_depth_duration_MTurk/v2_DepthDuration_HTML.html#222,222,1366,625,1366,768,9-3-2022,9-27-13,43,depth_duration_stimuli/000943_2014-06-09_19-31-07_260595134347_rgbf000128-resize_1/000943_2014-06-09_19-31-07_260595134347_rgbf000128-resize_1-target.png,125,1.9765,3,2338,137,feet,jsons/VE125_randls_40_rotated.json,710232,825772,48,Woman
43,138483,DepthScenes,duration_manipulation_targetAtFixation,jsons/VE125_randls_40_rotated.json,http://54.235.29.9/FacialAge/BNav_EC2/DepthDuration/v2_depth_duration_MTurk/v2_DepthDuration_HTML.html#222,222,1366,625,1366,768,9-3-2022,9-27-13,44,depth_duration_stimuli/003070_2014-06-15_14-58-27_094959634447_rgbf000150-resize_3/003070_2014-06-15_14-58-27_094959634447_rgbf000150-resize_3-target.png,125,2.9415,2,3093,121,feet,jsons/VE125_randls_40_rotated.json,710232,825772,48,Woman
44,138483,DepthScenes,duration_manipulation_targetAtFixation,jsons/VE125_randls_40_rotated.json,http://54.235.29.9/FacialAge/BNav_EC2/DepthDuration/v2_depth_duration_MTurk/v2_DepthDuration_HTML.html#222,222,1366,625,1366,768,9-3-2022,9-27-13,45,depth_duration_stimuli/002949_2014-06-26_15-57-42_094959634447_rgbf000079-resize_1/002949_2014-06-26_15-57-42_094959634447_rgbf000079-resize_1-target.png,125,1.8915,3,2384,111,feet,jsons/VE125_randls_40_rotated.json,710232,825772,48,Woman
45,138483,DepthScenes,duration_manipulation_targetAtFixation,jsons/VE125_randls_40_rotated.json,http://54.235.29.9/FacialAge/BNav_EC2/DepthDuration/v2_depth_duration_MTurk/v2_DepthDuration_HTML.html#222,222,1366,625,1366,768,9-3-2022,9-27-13,46,depth_duration_stimuli/000522_2014-06-08_13-35-06_260595134347_rgbf000244-resize_1/000522_2014-06-08_13-35-06_260595134347_rgbf000244-resize_1-target.png,125,2.3715,2,2923,128,feet,jsons/VE125_randls_40_rotated.json,710232,825772,48,Woman
46,138483,DepthScenes,duration_manipulation_targetAtFixation,jsons/VE125_randls_40_rotated.json,http://54.235.29.9/FacialAge/BNav_EC2/DepthDuration/v2_depth_duration_MTurk/v2_DepthDuration_HTML.html#222,222,1366,625,1366,768,9-3-2022,9-27-13,47,depth_duration_stimuli/000927_2014-06-09_16-32-30_260595134347_rgbf000123-resize_3/000927_2014-06-09_16-32-30_260595134347_rgbf000123-resize_3-target.png,125,2.6785,3,2450,116,feet,jsons/VE125_randls_40_rotated.json,710232,825772,48,Woman
47,138483,DepthScenes,duration_manipulation_targetAtFixation,jsons/VE125_randls_40_rotated.json,http://54.235.29.9/FacialAge/BNav_EC2/DepthDuration/v2_depth_duration_MTurk/v2_DepthDuration_HTML.html#222,222,1366,625,1366,768,9-3-2022,9-27-13,48,depth_duration_stimuli/001110_2014-06-15_17-25-28_260595134347_rgbf000150-resize_1/001110_2014-06-15_17-25-28_260595134347_rgbf000150-resize_1-target.png,125,1.7115,0,3183,115,feet,jsons/VE125_randls_40_rotated.json,710232,825772,48,Woman
48,138483,DepthScenes,duration_manipulation_targetAtFixation,jsons/VE125_randls_40_rotated.json,http://54.235.29.9/FacialAge/BNav_EC2/DepthDuration/v2_depth_duration_MTurk/v2_DepthDuration_HTML.html#222,222,1366,625,1366,768,9-3-2022,9-27-13,49,depth_duration_stimuli/001170_2014-06-17_15-43-44_260595134347_rgbf000096-resize_6/001170_2014-06-17_15-43-44_260595134347_rgbf000096-resize-original.jpg,125,1.1909999999999998,2,3124,125,feet,jsons/VE125_randls_40_rotated.json,710232,825772,48,Woman
49,138483,DepthScenes,duration_manipulation_targetAtFixation,jsons/VE125_randls_40_rotated.json,http://54.235.29.9/FacialAge/BNav_EC2/DepthDuration/v2_depth_duration_MTurk/v2_DepthDuration_HTML.html#222,222,1366,625,1366,768,9-3-2022,9-27-13,50,depth_duration_stimuli/002750_2014-06-22_19-08-03_094959634447_rgbf000094-resize_4/002750_2014-06-22_19-08-03_094959634447_rgbf000094-resize_4-target.png,125,2.354,2,2439,115,feet,jsons/VE125_randls_40_rotated.json,710232,825772,48,Woman
50,138483,DepthScenes,duration_manipulation_targetAtFixation,jsons/VE125_randls_40_rotated.json,http://54.235.29.9/FacialAge/BNav_EC2/DepthDuration/v2_depth_duration_MTurk/v2_DepthDuration_HTML.html#222,222,1366,625,1366,768,9-3-2022,9-27-13,51,depth_duration_stimuli/002549_2014-06-24_13-41-39_094959634447_rgbf000022-resize_3/002549_2014-06-24_13-41-39_094959634447_rgbf000022-resize_3-target.png,125,1.476,0,2765,124,feet,jsons/VE125_randls_40_rotated.json,710232,825772,48,Woman
51,138483,DepthScenes,duration_manipulation_targetAtFixation,jsons/VE125_randls_40_rotated.json,http://54.235.29.9/FacialAge/BNav_EC2/DepthDuration/v2_depth_duration_MTurk/v2_DepthDuration_HTML.html#222,222,1366,625,1366,768,9-3-2022,9-27-13,52,depth_duration_stimuli/002467_2014-06-28_20-38-07_260595134347_rgbf000026-resize_2/002467_2014-06-28_20-38-07_260595134347_rgbf000026-resize_2-target.png,125,4.742,2,2351,114,feet,jsons/VE125_randls_40_rotated.json,710232,825772,48,Woman
52,138483,DepthScenes,duration_manipulation_targetAtFixation,jsons/VE125_randls_40_rotated.json,http://54.235.29.9/FacialAge/BNav_EC2/DepthDuration/v2_depth_duration_MTurk/v2_DepthDuration_HTML.html#222,222,1366,625,1366,768,9-3-2022,9-27-13,53,depth_duration_stimuli/002570_2014-06-24_13-59-54_094959634447_rgbf000059-resize_0/002570_2014-06-24_13-59-54_094959634447_rgbf000059-resize_0-target.png,125,4.037,2,2425,115,feet,jsons/VE125_randls_40_rotated.json,710232,825772,48,Woman
53,138483,DepthScenes,duration_manipulation_targetAtFixation,jsons/VE125_randls_40_rotated.json,http://54.235.29.9/FacialAge/BNav_EC2/DepthDuration/v2_depth_duration_MTurk/v2_DepthDuration_HTML.html#222,222,1366,625,1366,768,9-3-2022,9-27-13,54,depth_duration_stimuli/000742_2014-06-08_18-48-09_260595134347_rgbf000164-resize_4/000742_2014-06-08_18-48-09_260595134347_rgbf000164-resize_4-target.png,125,4.632,2,2147,118,feet,jsons/VE125_randls_40_rotated.json,710232,825772,48,Woman
54,138483,DepthScenes,duration_manipulation_targetAtFixation,jsons/VE125_randls_40_rotated.json,http://54.235.29.9/FacialAge/BNav_EC2/DepthDuration/v2_depth_duration_MTurk/v2_DepthDuration_HTML.html#222,222,1366,625,1366,768,9-3-2022,9-27-13,55,depth_duration_stimuli/001066_2014-06-08_22-03-20_260595134347_rgbf000066-resize_4/001066_2014-06-08_22-03-20_260595134347_rgbf000066-resize_4-target.png,125,4.2330000000000005,2,2054,125,feet,jsons/VE125_randls_40_rotated.json,710232,825772,48,Woman
55,138483,DepthScenes,duration_manipulation_targetAtFixation,jsons/VE125_randls_40_rotated.json,http://54.235.29.9/FacialAge/BNav_EC2/DepthDuration/v2_depth_duration_MTurk/v2_DepthDuration_HTML.html#222,222,1366,625,1366,768,9-3-2022,9-27-13,56,depth_duration_stimuli/000749_2014-06-08_21-55-06_260595134347_rgbf000070-resize_2/000749_2014-06-08_21-55-06_260595134347_rgbf000070-resize_2-target.png,125,2.331,2,2113,124,feet,jsons/VE125_randls_40_rotated.json,710232,825772,48,Woman
56,138483,DepthScenes,duration_manipulation_targetAtFixation,jsons/VE125_randls_40_rotated.json,http://54.235.29.9/FacialAge/BNav_EC2/DepthDuration/v2_depth_duration_MTurk/v2_DepthDuration_HTML.html#222,222,1366,625,1366,768,9-3-2022,9-27-13,57,depth_duration_stimuli/002788_2014-06-22_19-36-03_094959634447_rgbf000088-resize_2/002788_2014-06-22_19-36-03_094959634447_rgbf000088-resize_2-target.png,125,1.6465,2,2338,126,feet,jsons/VE125_randls_40_rotated.json,710232,825772,48,Woman
57,138483,DepthScenes,duration_manipulation_targetAtFixation,jsons/VE125_randls_40_rotated.json,http://54.235.29.9/FacialAge/BNav_EC2/DepthDuration/v2_depth_duration_MTurk/v2_DepthDuration_HTML.html#222,222,1366,625,1366,768,9-3-2022,9-27-13,58,depth_duration_stimuli/001132_2014-06-17_14-48-54_260595134347_rgbf000100-resize_2/001132_2014-06-17_14-48-54_260595134347_rgbf000100-resize_2-target.png,125,3.753,2,2388,115,feet,jsons/VE125_randls_40_rotated.json,710232,825772,48,Woman
58,138483,DepthScenes,duration_manipulation_targetAtFixation,jsons/VE125_randls_40_rotated.json,http://54.235.29.9/FacialAge/BNav_EC2/DepthDuration/v2_depth_duration_MTurk/v2_DepthDuration_HTML.html#222,222,1366,625,1366,768,9-3-2022,9-27-13,59,depth_duration_stimuli/001133_2014-06-17_14-49-16_260595134347_rgbf000100-resize_0/001133_2014-06-17_14-49-16_260595134347_rgbf000100-resize_0-target.png,125,4.2115,2,2436,125,feet,jsons/VE125_randls_40_rotated.json,710232,825772,48,Woman
59,138483,DepthScenes,duration_manipulation_targetAtFixation,jsons/VE125_randls_40_rotated.json,http://54.235.29.9/FacialAge/BNav_EC2/DepthDuration/v2_depth_duration_MTurk/v2_DepthDuration_HTML.html#222,222,1366,625,1366,768,9-3-2022,9-27-13,60,depth_duration_stimuli/000137_2014-05-20_17-04-49_260595134347_rgbf000120-resize_1/000137_2014-05-20_17-04-49_260595134347_rgbf000120-resize_1-target.png,125,3.786,2,2559,112,feet,jsons/VE125_randls_40_rotated.json,710232,825772,48,Woman
60,138483,DepthScenes,duration_manipulation_targetAtFixation,jsons/VE125_randls_40_rotated.json,http://54.235.29.9/FacialAge/BNav_EC2/DepthDuration/v2_depth_duration_MTurk/v2_DepthDuration_HTML.html#222,222,1366,625,1366,768,9-3-2022,9-27-13,61,depth_duration_stimuli/000736_2014-06-08_18-24-15_260595134347_rgbf000206-resize_3/000736_2014-06-08_18-24-15_260595134347_rgbf000206-resize_3-target.png,125,3.515,2,2785,127,feet,jsons/VE125_randls_40_rotated.json,710232,825772,48,Woman
61,138483,DepthScenes,duration_manipulation_targetAtFixation,jsons/VE125_randls_40_rotated.json,http://54.235.29.9/FacialAge/BNav_EC2/DepthDuration/v2_depth_duration_MTurk/v2_DepthDuration_HTML.html#222,222,1366,625,1366,768,9-3-2022,9-27-13,62,depth_duration_stimuli/002678_2014-06-13_16-15-32_094959634447_rgbf000151-resize_6/002678_2014-06-13_16-15-32_094959634447_rgbf000151-resize_6-target.png,125,2.1830000000000003,2,2579,134,feet,jsons/VE125_randls_40_rotated.json,710232,825772,48,Woman
62,138483,DepthScenes,duration_manipulation_targetAtFixation,jsons/VE125_randls_40_rotated.json,http://54.235.29.9/FacialAge/BNav_EC2/DepthDuration/v2_depth_duration_MTurk/v2_DepthDuration_HTML.html#222,222,1366,625,1366,768,9-3-2022,9-27-13,63,depth_duration_stimuli/000368_2014-06-09_15-53-01_260595134347_rgbf000155-resize_2/000368_2014-06-09_15-53-01_260595134347_rgbf000155-resize_2-target.png,125,2.4859999999999998,2,5199,111,feet,jsons/VE125_randls_40_rotated.json,710232,825772,48,Woman
63,138483,DepthScenes,duration_manipulation_targetAtFixation,jsons/VE125_randls_40_rotated.json,http://54.235.29.9/FacialAge/BNav_EC2/DepthDuration/v2_depth_duration_MTurk/v2_DepthDuration_HTML.html#222,222,1366,625,1366,768,9-3-2022,9-27-13,64,depth_duration_stimuli/002425_2014-06-28_20-27-29_260595134347_rgbf000031-resize_8/002425_2014-06-28_20-27-29_260595134347_rgbf000031-resize_8-target.png,125,3.8960000000000004,2,2429,116,feet,jsons/VE125_randls_40_rotated.json,710232,825772,48,Woman
64,138483,DepthScenes,duration_manipulation_targetAtFixation,jsons/VE125_randls_40_rotated.json,http://54.235.29.9/FacialAge/BNav_EC2/DepthDuration/v2_depth_duration_MTurk/v2_DepthDuration_HTML.html#222,222,1366,625,1366,768,9-3-2022,9-27-13,65,depth_duration_stimuli/000642_2014-06-08_16-59-25_260595134347_rgbf000098-resize_2/000642_2014-06-08_16-59-25_260595134347_rgbf000098-resize_2-target.png,125,2.8815,2,2450,131,feet,jsons/VE125_randls_40_rotated.json,710232,825772,48,Woman
65,138483,DepthScenes,duration_manipulation_targetAtFixation,jsons/VE125_randls_40_rotated.json,http://54.235.29.9/FacialAge/BNav_EC2/DepthDuration/v2_depth_duration_MTurk/v2_DepthDuration_HTML.html#222,222,1366,625,1366,768,9-3-2022,9-27-13,66,depth_duration_stimuli/001540_2014-06-20_17-01-05_260595134347_rgbf000086-resize_2/001540_2014-06-20_17-01-05_260595134347_rgbf000086-resize-original.jpg,125,1.459,2,2139,124,feet,jsons/VE125_randls_40_rotated.json,710232,825772,48,Woman
66,138483,DepthScenes,duration_manipulation_targetAtFixation,jsons/VE125_randls_40_rotated.json,http://54.235.29.9/FacialAge/BNav_EC2/DepthDuration/v2_depth_duration_MTurk/v2_DepthDuration_HTML.html#222,222,1366,625,1366,768,9-3-2022,9-27-13,67,depth_duration_stimuli/000457_2014-06-08_16-52-43_260595134347_rgbf000199-resize_1/000457_2014-06-08_16-52-43_260595134347_rgbf000199-resize_1-target.png,125,3.6489999999999996,2,2460,119,feet,jsons/VE125_randls_40_rotated.json,710232,825772,48,Woman
67,138483,DepthScenes,duration_manipulation_targetAtFixation,jsons/VE125_randls_40_rotated.json,http://54.235.29.9/FacialAge/BNav_EC2/DepthDuration/v2_depth_duration_MTurk/v2_DepthDuration_HTML.html#222,222,1366,625,1366,768,9-3-2022,9-27-13,68,depth_duration_stimuli/000929_2014-06-09_16-33-19_260595134347_rgbf000139-resize_0/000929_2014-06-09_16-33-19_260595134347_rgbf000139-resize_0-target.png,125,2.8680000000000003,2,2252,126,feet,jsons/VE125_randls_40_rotated.json,710232,825772,48,Woman
68,138483,DepthScenes,duration_manipulation_targetAtFixation,jsons/VE125_randls_40_rotated.json,http://54.235.29.9/FacialAge/BNav_EC2/DepthDuration/v2_depth_duration_MTurk/v2_DepthDuration_HTML.html#222,222,1366,625,1366,768,9-3-2022,9-27-13,69,depth_duration_stimuli/002136_2014-06-25_21-18-03_260595134347_rgbf000109-resize_3/002136_2014-06-25_21-18-03_260595134347_rgbf000109-resize_3-target.png,125,1.9569999999999999,2,2667,125,feet,jsons/VE125_randls_40_rotated.json,710232,825772,48,Woman
69,138483,DepthScenes,duration_manipulation_targetAtFixation,jsons/VE125_randls_40_rotated.json,http://54.235.29.9/FacialAge/BNav_EC2/DepthDuration/v2_depth_duration_MTurk/v2_DepthDuration_HTML.html#222,222,1366,625,1366,768,9-3-2022,9-27-13,70,depth_duration_stimuli/002964_2014-06-08_17-46-11_094959634447_rgbf000091-resize_4/002964_2014-06-08_17-46-11_094959634447_rgbf000091-resize_4-target.png,125,1.6909999999999998,2,2475,125,feet,jsons/VE125_randls_40_rotated.json,710232,825772,48,Woman
70,138483,DepthScenes,duration_manipulation_targetAtFixation,jsons/VE125_randls_40_rotated.json,http://54.235.29.9/FacialAge/BNav_EC2/DepthDuration/v2_depth_duration_MTurk/v2_DepthDuration_HTML.html#222,222,1366,625,1366,768,9-3-2022,9-27-13,71,depth_duration_stimuli/003587_2014-05-23_16-48-02_094959634447_rgbf002384-resize_2/003587_2014-05-23_16-48-02_094959634447_rgbf002384-resize_2-target.png,125,1.357,2,30889,113,feet,jsons/VE125_randls_40_rotated.json,710232,825772,48,Woman
71,138483,DepthScenes,duration_manipulation_targetAtFixation,jsons/VE125_randls_40_rotated.json,http://54.235.29.9/FacialAge/BNav_EC2/DepthDuration/v2_depth_duration_MTurk/v2_DepthDuration_HTML.html#222,222,1366,625,1366,768,9-3-2022,9-27-13,72,depth_duration_stimuli/001167_2014-06-17_15-38-07_260595134347_rgbf000108-resize_0/001167_2014-06-17_15-38-07_260595134347_rgbf000108-resize_0-target.png,125,1.8505,2,4482,115,feet,jsons/VE125_randls_40_rotated.json,710232,825772,48,Woman
72,138483,DepthScenes,duration_manipulation_targetAtFixation,jsons/VE125_randls_40_rotated.json,http://54.235.29.9/FacialAge/BNav_EC2/DepthDuration/v2_depth_duration_MTurk/v2_DepthDuration_HTML.html#222,222,1366,625,1366,768,9-3-2022,9-27-13,73,depth_duration_stimuli/002568_2014-06-24_13-59-21_094959634447_rgbf000062-resize_4/002568_2014-06-24_13-59-21_094959634447_rgbf000062-resize_4-target.png,125,3.015,2,3371,124,feet,jsons/VE125_randls_40_rotated.json,710232,825772,48,Woman
73,138483,DepthScenes,duration_manipulation_targetAtFixation,jsons/VE125_randls_40_rotated.json,http://54.235.29.9/FacialAge/BNav_EC2/DepthDuration/v2_depth_duration_MTurk/v2_DepthDuration_HTML.html#222,222,1366,625,1366,768,9-3-2022,9-27-13,74,depth_duration_stimuli/003492_2014-05-21_15-50-55_094959634447_rgbf000828-resize_1/003492_2014-05-21_15-50-55_094959634447_rgbf000828-resize_1-target.png,125,4.06875,2,4036,125,feet,jsons/VE125_randls_40_rotated.json,710232,825772,48,Woman
74,138483,DepthScenes,duration_manipulation_targetAtFixation,jsons/VE125_randls_40_rotated.json,http://54.235.29.9/FacialAge/BNav_EC2/DepthDuration/v2_depth_duration_MTurk/v2_DepthDuration_HTML.html#222,222,1366,625,1366,768,9-3-2022,9-27-13,75,depth_duration_stimuli/001032_2014-06-08_13-23-17_260595134347_rgbf000021-resize_3/001032_2014-06-08_13-23-17_260595134347_rgbf000021-resize_3-target.png,125,3.2725,2,10329,130,feet,jsons/VE125_randls_40_rotated.json,710232,825772,48,Woman
75,138483,DepthScenes,duration_manipulation_targetAtFixation,jsons/VE125_randls_40_rotated.json,http://54.235.29.9/FacialAge/BNav_EC2/DepthDuration/v2_depth_duration_MTurk/v2_DepthDuration_HTML.html#222,222,1366,625,1366,768,9-3-2022,9-27-13,76,depth_duration_stimuli/001059_2014-06-08_21-53-27_260595134347_rgbf000061-resize_4/001059_2014-06-08_21-53-27_260595134347_rgbf000061-resize_4-target.png,125,2.4185,2,2626,125,feet,jsons/VE125_randls_40_rotated.json,710232,825772,48,Woman
76,138483,DepthScenes,duration_manipulation_targetAtFixation,jsons/VE125_randls_40_rotated.json,http://54.235.29.9/FacialAge/BNav_EC2/DepthDuration/v2_depth_duration_MTurk/v2_DepthDuration_HTML.html#222,222,1366,625,1366,768,9-3-2022,9-27-13,77,depth_duration_stimuli/002340_2014-06-28_20-05-46_260595134347_rgbf000113-resize_0/002340_2014-06-28_20-05-46_260595134347_rgbf000113-resize_0-target.png,125,2.4735,2,2595,131,feet,jsons/VE125_randls_40_rotated.json,710232,825772,48,Woman
77,138483,DepthScenes,duration_manipulation_targetAtFixation,jsons/VE125_randls_40_rotated.json,http://54.235.29.9/FacialAge/BNav_EC2/DepthDuration/v2_depth_duration_MTurk/v2_DepthDuration_HTML.html#222,222,1366,625,1366,768,9-3-2022,9-27-13,78,depth_duration_stimuli/001016_2014-06-09_16-16-10_260595134347_rgbf000112-resize_5/001016_2014-06-09_16-16-10_260595134347_rgbf000112-resize_5-target.png,125,1.6565,2,9847,112,feet,jsons/VE125_randls_40_rotated.json,710232,825772,48,Woman
78,138483,DepthScenes,duration_manipulation_targetAtFixation,jsons/VE125_randls_40_rotated.json,http://54.235.29.9/FacialAge/BNav_EC2/DepthDuration/v2_depth_duration_MTurk/v2_DepthDuration_HTML.html#222,222,1366,625,1366,768,9-3-2022,9-27-13,79,depth_duration_stimuli/003010_2014-06-15_12-54-35_094959634447_rgbf000112-resize_0/003010_2014-06-15_12-54-35_094959634447_rgbf000112-resize_0-target.png,125,3.1185,2,2859,126,feet,jsons/VE125_randls_40_rotated.json,710232,825772,48,Woman
79,138483,DepthScenes,duration_manipulation_targetAtFixation,jsons/VE125_randls_40_rotated.json,http://54.235.29.9/FacialAge/BNav_EC2/DepthDuration/v2_depth_duration_MTurk/v2_DepthDuration_HTML.html#222,222,1366,625,1366,768,9-3-2022,9-27-13,80,depth_duration_stimuli/001810_2014-06-26_20-51-35_260595134347_rgbf000040-resize_3/001810_2014-06-26_20-51-35_260595134347_rgbf000040-resize_3-target.png,125,2.2525,2,2427,134,feet,jsons/VE125_randls_40_rotated.json,710232,825772,48,Woman
80,138483,DepthScenes,duration_manipulation_targetAtFixation,jsons/VE125_randls_40_rotated.json,http://54.235.29.9/FacialAge/BNav_EC2/DepthDuration/v2_depth_duration_MTurk/v2_DepthDuration_HTML.html#222,222,1366,625,1366,768,9-3-2022,9-27-13,81,depth_duration_stimuli/000734_2014-06-08_17-39-11_260595134347_rgbf000128-resize_2/000734_2014-06-08_17-39-11_260595134347_rgbf000128-resize_2-target.png,125,4.098,2,3242,124,feet,jsons/VE125_randls_40_rotated.json,710232,825772,48,Woman
81,138483,DepthScenes,duration_manipulation_targetAtFixation,jsons/VE125_randls_40_rotated.json,http://54.235.29.9/FacialAge/BNav_EC2/DepthDuration/v2_depth_duration_MTurk/v2_DepthDuration_HTML.html#222,222,1366,625,1366,768,9-3-2022,9-27-13,82,depth_duration_stimuli/000739_2014-06-08_18-45-58_260595134347_rgbf000068-resize_1/000739_2014-06-08_18-45-58_260595134347_rgbf000068-resize_1-target.png,125,3.534,2,2596,124,feet,jsons/VE125_randls_40_rotated.json,710232,825772,48,Woman
82,138483,DepthScenes,duration_manipulation_targetAtFixation,jsons/VE125_randls_40_rotated.json,http://54.235.29.9/FacialAge/BNav_EC2/DepthDuration/v2_depth_duration_MTurk/v2_DepthDuration_HTML.html#222,222,1366,625,1366,768,9-3-2022,9-27-13,83,depth_duration_stimuli/001235_2014-06-17_16-37-36_260595134347_rgbf000084-resize_4/001235_2014-06-17_16-37-36_260595134347_rgbf000084-resize_4-target.png,125,3.6605,2,2752,121,feet,jsons/VE125_randls_40_rotated.json,710232,825772,48,Woman
83,138483,DepthScenes,duration_manipulation_targetAtFixation,jsons/VE125_randls_40_rotated.json,http://54.235.29.9/FacialAge/BNav_EC2/DepthDuration/v2_depth_duration_MTurk/v2_DepthDuration_HTML.html#222,222,1366,625,1366,768,9-3-2022,9-27-13,84,depth_duration_stimuli/000788_2014-06-08_22-34-36_260595134347_rgbf000131-resize_1/000788_2014-06-08_22-34-36_260595134347_rgbf000131-resize_1-target.png,125,3.359,2,2451,125,feet,jsons/VE125_randls_40_rotated.json,710232,825772,48,Woman
84,138483,DepthScenes,duration_manipulation_targetAtFixation,jsons/VE125_randls_40_rotated.json,http://54.235.29.9/FacialAge/BNav_EC2/DepthDuration/v2_depth_duration_MTurk/v2_DepthDuration_HTML.html#222,222,1366,625,1366,768,9-3-2022,9-27-13,85,depth_duration_stimuli/000549_2014-06-08_22-10-24_260595134347_rgbf000247-resize_3/000549_2014-06-08_22-10-24_260595134347_rgbf000247-resize_3-target.png,125,1.841,2,2476,125,feet,jsons/VE125_randls_40_rotated.json,710232,825772,48,Woman
85,138483,DepthScenes,duration_manipulation_targetAtFixation,jsons/VE125_randls_40_rotated.json,http://54.235.29.9/FacialAge/BNav_EC2/DepthDuration/v2_depth_duration_MTurk/v2_DepthDuration_HTML.html#222,222,1366,625,1366,768,9-3-2022,9-27-13,86,depth_duration_stimuli/001055_2014-06-08_18-45-35_260595134347_rgbf000111-resize_4/001055_2014-06-08_18-45-35_260595134347_rgbf000111-resize_4-target.png,125,2.4290000000000003,2,2330,125,feet,jsons/VE125_randls_40_rotated.json,710232,825772,48,Woman
86,138483,DepthScenes,duration_manipulation_targetAtFixation,jsons/VE125_randls_40_rotated.json,http://54.235.29.9/FacialAge/BNav_EC2/DepthDuration/v2_depth_duration_MTurk/v2_DepthDuration_HTML.html#222,222,1366,625,1366,768,9-3-2022,9-27-13,87,depth_duration_stimuli/003228_2014-05-14_13-42-35_094959634447_rgbf000101-resize_1/003228_2014-05-14_13-42-35_094959634447_rgbf000101-resize_1-target.png,125,1.9680000000000002,2,2294,120,feet,jsons/VE125_randls_40_rotated.json,710232,825772,48,Woman
87,138483,DepthScenes,duration_manipulation_targetAtFixation,jsons/VE125_randls_40_rotated.json,http://54.235.29.9/FacialAge/BNav_EC2/DepthDuration/v2_depth_duration_MTurk/v2_DepthDuration_HTML.html#222,222,1366,625,1366,768,9-3-2022,9-27-13,88,depth_duration_stimuli/002600_2014-06-24_14-27-04_094959634447_rgbf000074-resize_2/002600_2014-06-24_14-27-04_094959634447_rgbf000074-resize_2-target.png,125,2.7575,2,2362,117,feet,jsons/VE125_randls_40_rotated.json,710232,825772,48,Woman
88,138483,DepthScenes,duration_manipulation_targetAtFixation,jsons/VE125_randls_40_rotated.json,http://54.235.29.9/FacialAge/BNav_EC2/DepthDuration/v2_depth_duration_MTurk/v2_DepthDuration_HTML.html#222,222,1366,625,1366,768,9-3-2022,9-27-13,89,depth_duration_stimuli/001052_2014-06-08_18-24-54_260595134347_rgbf000130-resize_1/001052_2014-06-08_18-24-54_260595134347_rgbf000130-resize_1-target.png,125,4.1045,2,2193,122,feet,jsons/VE125_randls_40_rotated.json,710232,825772,48,Woman
89,138483,DepthScenes,duration_manipulation_targetAtFixation,jsons/VE125_randls_40_rotated.json,http://54.235.29.9/FacialAge/BNav_EC2/DepthDuration/v2_depth_duration_MTurk/v2_DepthDuration_HTML.html#222,222,1366,625,1366,768,9-3-2022,9-27-13,90,depth_duration_stimuli/002988_2014-06-15_12-24-20_094959634447_rgbf000150-resize_1/002988_2014-06-15_12-24-20_094959634447_rgbf000150-resize_1-target.png,125,4.7669999999999995,2,2908,124,feet,jsons/VE125_randls_40_rotated.json,710232,825772,48,Woman
90,138483,DepthScenes,duration_manipulation_targetAtFixation,jsons/VE125_randls_40_rotated.json,http://54.235.29.9/FacialAge/BNav_EC2/DepthDuration/v2_depth_duration_MTurk/v2_DepthDuration_HTML.html#222,222,1366,625,1366,768,9-3-2022,9-27-13,91,depth_duration_stimuli/001214_2014-06-17_16-13-55_260595134347_rgbf000111-resize_0/001214_2014-06-17_16-13-55_260595134347_rgbf000111-resize_0-target.png,125,2.6505,2,2403,124,feet,jsons/VE125_randls_40_rotated.json,710232,825772,48,Woman
91,138483,DepthScenes,duration_manipulation_targetAtFixation,jsons/VE125_randls_40_rotated.json,http://54.235.29.9/FacialAge/BNav_EC2/DepthDuration/v2_depth_duration_MTurk/v2_DepthDuration_HTML.html#222,222,1366,625,1366,768,9-3-2022,9-27-13,92,depth_duration_stimuli/000810_2014-06-08_17-20-01_260595134347_rgbf000105-resize_0/000810_2014-06-08_17-20-01_260595134347_rgbf000105-resize_0-target.png,125,1.4865,2,2753,123,feet,jsons/VE125_randls_40_rotated.json,710232,825772,48,Woman
92,138483,DepthScenes,duration_manipulation_targetAtFixation,jsons/VE125_randls_40_rotated.json,http://54.235.29.9/FacialAge/BNav_EC2/DepthDuration/v2_depth_duration_MTurk/v2_DepthDuration_HTML.html#222,222,1366,625,1366,768,9-3-2022,9-27-13,93,depth_duration_stimuli/002758_2014-06-22_19-11-20_094959634447_rgbf000128-resize_1/002758_2014-06-22_19-11-20_094959634447_rgbf000128-resize_1-target.png,125,2.555,2,2363,126,feet,jsons/VE125_randls_40_rotated.json,710232,825772,48,Woman
93,138483,DepthScenes,duration_manipulation_targetAtFixation,jsons/VE125_randls_40_rotated.json,http://54.235.29.9/FacialAge/BNav_EC2/DepthDuration/v2_depth_duration_MTurk/v2_DepthDuration_HTML.html#222,222,1366,625,1366,768,9-3-2022,9-27-13,94,depth_duration_stimuli/002630_2014-06-24_14-47-50_094959634447_rgbf000055-resize_1/002630_2014-06-24_14-47-50_094959634447_rgbf000055-resize_1-target.png,125,3.0095,2,2419,124,feet,jsons/VE125_randls_40_rotated.json,710232,825772,48,Woman
94,138483,DepthScenes,duration_manipulation_targetAtFixation,jsons/VE125_randls_40_rotated.json,http://54.235.29.9/FacialAge/BNav_EC2/DepthDuration/v2_depth_duration_MTurk/v2_DepthDuration_HTML.html#222,222,1366,625,1366,768,9-3-2022,9-27-13,95,depth_duration_stimuli/000665_2014-06-09_20-42-35_260595134347_rgbf000110-resize_1/000665_2014-06-09_20-42-35_260595134347_rgbf000110-resize_1-target.png,125,3.057,2,2194,125,feet,jsons/VE125_randls_40_rotated.json,710232,825772,48,Woman
95,138483,DepthScenes,duration_manipulation_targetAtFixation,jsons/VE125_randls_40_rotated.json,http://54.235.29.9/FacialAge/BNav_EC2/DepthDuration/v2_depth_duration_MTurk/v2_DepthDuration_HTML.html#222,222,1366,625,1366,768,9-3-2022,9-27-13,96,depth_duration_stimuli/001150_2014-06-17_15-27-34_260595134347_rgbf000108-resize_2/001150_2014-06-17_15-27-34_260595134347_rgbf000108-resize_2-target.png,125,4.0325,2,2408,121,feet,jsons/VE125_randls_40_rotated.json,710232,825772,48,Woman
96,138483,DepthScenes,duration_manipulation_targetAtFixation,jsons/VE125_randls_40_rotated.json,http://54.235.29.9/FacialAge/BNav_EC2/DepthDuration/v2_depth_duration_MTurk/v2_DepthDuration_HTML.html#222,222,1366,625,1366,768,9-3-2022,9-27-13,97,depth_duration_stimuli/000635_2014-06-08_16-38-42_260595134347_rgbf000106-resize_1/000635_2014-06-08_16-38-42_260595134347_rgbf000106-resize_1-target.png,125,2.074,2,2307,125,feet,jsons/VE125_randls_40_rotated.json,710232,825772,48,Woman
97,138483,DepthScenes,duration_manipulation_targetAtFixation,jsons/VE125_randls_40_rotated.json,http://54.235.29.9/FacialAge/BNav_EC2/DepthDuration/v2_depth_duration_MTurk/v2_DepthDuration_HTML.html#222,222,1366,625,1366,768,9-3-2022,9-27-13,98,depth_duration_stimuli/002279_2014-06-28_18-55-32_260595134347_rgbf000040-resize_5/002279_2014-06-28_18-55-32_260595134347_rgbf000040-resize_5-target.png,125,1.5043333333333,2,15004,124,feet,jsons/VE125_randls_40_rotated.json,710232,825772,48,Woman
98,138483,DepthScenes,duration_manipulation_targetAtFixation,jsons/VE125_randls_40_rotated.json,http://54.235.29.9/FacialAge/BNav_EC2/DepthDuration/v2_depth_duration_MTurk/v2_DepthDuration_HTML.html#222,222,1366,625,1366,768,9-3-2022,9-27-13,99,depth_duration_stimuli/001222_2014-06-17_16-24-06_260595134347_rgbf000073-resize_0/001222_2014-06-17_16-24-06_260595134347_rgbf000073-resize-original.jpg,125,1.4385,2,2744,130,feet,jsons/VE125_randls_40_rotated.json,710232,825772,48,Woman
99,138483,DepthScenes,duration_manipulation_targetAtFixation,jsons/VE125_randls_40_rotated.json,http://54.235.29.9/FacialAge/BNav_EC2/DepthDuration/v2_depth_duration_MTurk/v2_DepthDuration_HTML.html#222,222,1366,625,1366,768,9-3-2022,9-27-13,100,depth_duration_stimuli/001392_2014-06-19_16-07-59_260595134347_rgbf000046-resize_1/001392_2014-06-19_16-07-59_260595134347_rgbf000046-resize_1-target.png,125,4.135,2,2658,123,feet,jsons/VE125_randls_40_rotated.json,710232,825772,48,Woman
100,138483,DepthScenes,duration_manipulation_targetAtFixation,jsons/VE125_randls_40_rotated.json,http://54.235.29.9/FacialAge/BNav_EC2/DepthDuration/v2_depth_duration_MTurk/v2_DepthDuration_HTML.html#222,222,1366,625,1366,768,9-3-2022,9-27-13,101,depth_duration_stimuli/001570_2014-06-20_17-21-09_260595134347_rgbf000135-resize_4/001570_2014-06-20_17-21-09_260595134347_rgbf000135-resize_4-target.png,125,4.467,2,2273,125,feet,jsons/VE125_randls_40_rotated.json,710232,825772,48,Woman
101,138483,DepthScenes,duration_manipulation_targetAtFixation,jsons/VE125_randls_40_rotated.json,http://54.235.29.9/FacialAge/BNav_EC2/DepthDuration/v2_depth_duration_MTurk/v2_DepthDuration_HTML.html#222,222,1366,625,1366,768,9-3-2022,9-27-13,102,depth_duration_stimuli/001650_2014-06-20_12-09-00_260595134347_rgbf000087-resize_3/001650_2014-06-20_12-09-00_260595134347_rgbf000087-resize_3-target.png,125,1.9505,2,2405,124,feet,jsons/VE125_randls_40_rotated.json,710232,825772,48,Woman
102,138483,DepthScenes,duration_manipulation_targetAtFixation,jsons/VE125_randls_40_rotated.json,http://54.235.29.9/FacialAge/BNav_EC2/DepthDuration/v2_depth_duration_MTurk/v2_DepthDuration_HTML.html#222,222,1366,625,1366,768,9-3-2022,9-27-13,103,depth_duration_stimuli/000682_2014-06-08_23-14-58_260595134347_rgbf000041-resize_5/000682_2014-06-08_23-14-58_260595134347_rgbf000041-resize_5-target.png,125,2.7239999999999998,2,2252,125,feet,jsons/VE125_randls_40_rotated.json,710232,825772,48,Woman
103,138483,DepthScenes,duration_manipulation_targetAtFixation,jsons/VE125_randls_40_rotated.json,http://54.235.29.9/FacialAge/BNav_EC2/DepthDuration/v2_depth_duration_MTurk/v2_DepthDuration_HTML.html#222,222,1366,625,1366,768,9-3-2022,9-27-13,104,depth_duration_stimuli/002209_2014-06-28_18-36-10_260595134347_rgbf000051-resize_1/002209_2014-06-28_18-36-10_260595134347_rgbf000051-resize_1-target.png,125,2.057,2,12929,128,feet,jsons/VE125_randls_40_rotated.json,710232,825772,48,Woman
104,138483,DepthScenes,duration_manipulation_targetAtFixation,jsons/VE125_randls_40_rotated.json,http://54.235.29.9/FacialAge/BNav_EC2/DepthDuration/v2_depth_duration_MTurk/v2_DepthDuration_HTML.html#222,222,1366,625,1366,768,9-3-2022,9-27-13,105,depth_duration_stimuli/002763_2014-06-22_19-13-10_094959634447_rgbf000075-resize_4/002763_2014-06-22_19-13-10_094959634447_rgbf000075-resize_4-target.png,125,1.68375,2,2433,124,feet,jsons/VE125_randls_40_rotated.json,710232,825772,48,Woman
105,138483,DepthScenes,duration_manipulation_targetAtFixation,jsons/VE125_randls_40_rotated.json,http://54.235.29.9/FacialAge/BNav_EC2/DepthDuration/v2_depth_duration_MTurk/v2_DepthDuration_HTML.html#222,222,1366,625,1366,768,9-3-2022,9-27-13,106,depth_duration_stimuli/001571_2014-06-20_17-21-32_260595134347_rgbf000089-resize_1/001571_2014-06-20_17-21-32_260595134347_rgbf000089-resize_1-target.png,125,1.86,2,2585,130,feet,jsons/VE125_randls_40_rotated.json,710232,825772,48,Woman
106,138483,DepthScenes,duration_manipulation_targetAtFixation,jsons/VE125_randls_40_rotated.json,http://54.235.29.9/FacialAge/BNav_EC2/DepthDuration/v2_depth_duration_MTurk/v2_DepthDuration_HTML.html#222,222,1366,625,1366,768,9-3-2022,9-27-13,107,depth_duration_stimuli/002272_2014-06-28_18-53-56_260595134347_rgbf000067-resize_2/002272_2014-06-28_18-53-56_260595134347_rgbf000067-resize_2-target.png,125,1.138,2,10798,122,feet,jsons/VE125_randls_40_rotated.json,710232,825772,48,Woman
107,138483,DepthScenes,duration_manipulation_targetAtFixation,jsons/VE125_randls_40_rotated.json,http://54.235.29.9/FacialAge/BNav_EC2/DepthDuration/v2_depth_duration_MTurk/v2_DepthDuration_HTML.html#222,222,1366,625,1366,768,9-3-2022,9-27-13,108,depth_duration_stimuli/003048_2014-06-15_13-49-43_094959634447_rgbf000150-resize_1/003048_2014-06-15_13-49-43_094959634447_rgbf000150-resize_1-target.png,125,4.0035,2,8944,113,feet,jsons/VE125_randls_40_rotated.json,710232,825772,48,Woman
108,138483,DepthScenes,duration_manipulation_targetAtFixation,jsons/VE125_randls_40_rotated.json,http://54.235.29.9/FacialAge/BNav_EC2/DepthDuration/v2_depth_duration_MTurk/v2_DepthDuration_HTML.html#222,222,1366,625,1366,768,9-3-2022,9-27-13,109,depth_duration_stimuli/002043_2014-06-24_20-29-38_260595134347_rgbf000039-resize_4/002043_2014-06-24_20-29-38_260595134347_rgbf000039-resize_4-target.png,125,2.8435,2,2347,126,feet,jsons/VE125_randls_40_rotated.json,710232,825772,48,Woman
109,138483,DepthScenes,duration_manipulation_targetAtFixation,jsons/VE125_randls_40_rotated.json,http://54.235.29.9/FacialAge/BNav_EC2/DepthDuration/v2_depth_duration_MTurk/v2_DepthDuration_HTML.html#222,222,1366,625,1366,768,9-3-2022,9-27-13,110,depth_duration_stimuli/003129_2014-05-12_10-48-10_094959634447_rgbf000100-resize_0/003129_2014-05-12_10-48-10_094959634447_rgbf000100-resize_0-target.png,125,4.9305,2,2243,124,feet,jsons/VE125_randls_40_rotated.json,710232,825772,48,Woman
110,138483,DepthScenes,duration_manipulation_targetAtFixation,jsons/VE125_randls_40_rotated.json,http://54.235.29.9/FacialAge/BNav_EC2/DepthDuration/v2_depth_duration_MTurk/v2_DepthDuration_HTML.html#222,222,1366,625,1366,768,9-3-2022,9-27-13,111,depth_duration_stimuli/000414_2014-06-04_19-49-13_260595134347_rgbf000044-resize_0/000414_2014-06-04_19-49-13_260595134347_rgbf000044-resize_0-target.png,125,4.329,2,2419,126,feet,jsons/VE125_randls_40_rotated.json,710232,825772,48,Woman
111,138483,DepthScenes,duration_manipulation_targetAtFixation,jsons/VE125_randls_40_rotated.json,http://54.235.29.9/FacialAge/BNav_EC2/DepthDuration/v2_depth_duration_MTurk/v2_DepthDuration_HTML.html#222,222,1366,625,1366,768,9-3-2022,9-27-13,112,depth_duration_stimuli/002344_2014-06-28_20-06-29_260595134347_rgbf000030-resize_1/002344_2014-06-28_20-06-29_260595134347_rgbf000030-resize_1-target.png,125,1.5795,2,2771,131,feet,jsons/VE125_randls_40_rotated.json,710232,825772,48,Woman
112,138483,DepthScenes,duration_manipulation_targetAtFixation,jsons/VE125_randls_40_rotated.json,http://54.235.29.9/FacialAge/BNav_EC2/DepthDuration/v2_depth_duration_MTurk/v2_DepthDuration_HTML.html#222,222,1366,625,1366,768,9-3-2022,9-27-13,113,depth_duration_stimuli/002725_2014-06-22_11-47-51_094959634447_rgbf000070-resize_1/002725_2014-06-22_11-47-51_094959634447_rgbf000070-resize_1-target.png,125,2.195,2,2483,124,feet,jsons/VE125_randls_40_rotated.json,710232,825772,48,Woman
113,138483,DepthScenes,duration_manipulation_targetAtFixation,jsons/VE125_randls_40_rotated.json,http://54.235.29.9/FacialAge/BNav_EC2/DepthDuration/v2_depth_duration_MTurk/v2_DepthDuration_HTML.html#222,222,1366,625,1366,768,9-3-2022,9-27-13,114,depth_duration_stimuli/000556_2014-06-09_22-42-56_260595134347_rgbf000214-resize_1/000556_2014-06-09_22-42-56_260595134347_rgbf000214-resize_1-target.png,125,4.8415,2,12231,134,feet,jsons/VE125_randls_40_rotated.json,710232,825772,48,Woman
114,138483,DepthScenes,duration_manipulation_targetAtFixation,jsons/VE125_randls_40_rotated.json,http://54.235.29.9/FacialAge/BNav_EC2/DepthDuration/v2_depth_duration_MTurk/v2_DepthDuration_HTML.html#222,222,1366,625,1366,768,9-3-2022,9-27-13,115,depth_duration_stimuli/001158_2014-06-17_15-32-16_260595134347_rgbf000138-resize_2/001158_2014-06-17_15-32-16_260595134347_rgbf000138-resize_2-target.png,125,4.5315,2,2164,125,feet,jsons/VE125_randls_40_rotated.json,710232,825772,48,Woman
115,138483,DepthScenes,duration_manipulation_targetAtFixation,jsons/VE125_randls_40_rotated.json,http://54.235.29.9/FacialAge/BNav_EC2/DepthDuration/v2_depth_duration_MTurk/v2_DepthDuration_HTML.html#222,222,1366,625,1366,768,9-3-2022,9-27-13,116,depth_duration_stimuli/000103_2014-05-14_22-01-17_260595134347_rgbf000152-resize_5/000103_2014-05-14_22-01-17_260595134347_rgbf000152-resize_5-target.png,125,1.993,2,2283,126,feet,jsons/VE125_randls_40_rotated.json,710232,825772,48,Woman
116,138483,DepthScenes,duration_manipulation_targetAtFixation,jsons/VE125_randls_40_rotated.json,http://54.235.29.9/FacialAge/BNav_EC2/DepthDuration/v2_depth_duration_MTurk/v2_DepthDuration_HTML.html#222,222,1366,625,1366,768,9-3-2022,9-27-13,117,depth_duration_stimuli/001555_2014-06-20_17-12-10_260595134347_rgbf000065-resize_4/001555_2014-06-20_17-12-10_260595134347_rgbf000065-resize_4-target.png,125,1.633,2,2410,125,feet,jsons/VE125_randls_40_rotated.json,710232,825772,48,Woman
117,138483,DepthScenes,duration_manipulation_targetAtFixation,jsons/VE125_randls_40_rotated.json,http://54.235.29.9/FacialAge/BNav_EC2/DepthDuration/v2_depth_duration_MTurk/v2_DepthDuration_HTML.html#222,222,1366,625,1366,768,9-3-2022,9-27-13,118,depth_duration_stimuli/001136_2014-06-17_15-19-41_260595134347_rgbf000076-resize_3/001136_2014-06-17_15-19-41_260595134347_rgbf000076-resize_3-target.png,125,1.8655,2,2260,126,feet,jsons/VE125_randls_40_rotated.json,710232,825772,48,Woman
118,138483,DepthScenes,duration_manipulation_targetAtFixation,jsons/VE125_randls_40_rotated.json,http://54.235.29.9/FacialAge/BNav_EC2/DepthDuration/v2_depth_duration_MTurk/v2_DepthDuration_HTML.html#222,222,1366,625,1366,768,9-3-2022,9-27-13,119,depth_duration_stimuli/001164_2014-06-17_15-35-46_260595134347_rgbf000085-resize_3/001164_2014-06-17_15-35-46_260595134347_rgbf000085-resize_3-target.png,125,2.354,2,2276,124,feet,jsons/VE125_randls_40_rotated.json,710232,825772,48,Woman
119,138483,DepthScenes,duration_manipulation_targetAtFixation,jsons/VE125_randls_40_rotated.json,http://54.235.29.9/FacialAge/BNav_EC2/DepthDuration/v2_depth_duration_MTurk/v2_DepthDuration_HTML.html#222,222,1366,625,1366,768,9-3-2022,9-27-13,120,depth_duration_stimuli/000787_2014-06-08_22-33-53_260595134347_rgbf000175-resize_1/000787_2014-06-08_22-33-53_260595134347_rgbf000175-resize-original.jpg,125,4.784,2,2235,124,feet,jsons/VE125_randls_40_rotated.json,710232,825772,48,Woman
120,138483,DepthScenes,duration_manipulation_targetAtFixation,jsons/VE125_randls_40_rotated.json,http://54.235.29.9/FacialAge/BNav_EC2/DepthDuration/v2_depth_duration_MTurk/v2_DepthDuration_HTML.html#222,222,1366,625,1366,768,9-3-2022,9-27-13,121,depth_duration_stimuli/001447_2014-06-19_17-00-32_260595134347_rgbf000082-resize_5/001447_2014-06-19_17-00-32_260595134347_rgbf000082-resize_5-target.png,125,4.13775,2,2472,123,feet,jsons/VE125_randls_40_rotated.json,710232,825772,48,Woman
121,138483,DepthScenes,duration_manipulation_targetAtFixation,jsons/VE125_randls_40_rotated.json,http://54.235.29.9/FacialAge/BNav_EC2/DepthDuration/v2_depth_duration_MTurk/v2_DepthDuration_HTML.html#222,222,1366,625,1366,768,9-3-2022,9-27-13,122,depth_duration_stimuli/000447_2014-06-08_16-15-46_260595134347_rgbf000130-resize_1/000447_2014-06-08_16-15-46_260595134347_rgbf000130-resize_1-target.png,125,4.479,2,15820,137,feet,jsons/VE125_randls_40_rotated.json,710232,825772,48,Woman
122,138483,DepthScenes,duration_manipulation_targetAtFixation,jsons/VE125_randls_40_rotated.json,http://54.235.29.9/FacialAge/BNav_EC2/DepthDuration/v2_depth_duration_MTurk/v2_DepthDuration_HTML.html#222,222,1366,625,1366,768,9-3-2022,9-27-13,123,depth_duration_stimuli/001815_2014-06-26_20-52-55_260595134347_rgbf000020-resize_0/001815_2014-06-26_20-52-55_260595134347_rgbf000020-resize_0-target.png,125,3.3865,2,2652,125,feet,jsons/VE125_randls_40_rotated.json,710232,825772,48,Woman
123,138483,DepthScenes,duration_manipulation_targetAtFixation,jsons/VE125_randls_40_rotated.json,http://54.235.29.9/FacialAge/BNav_EC2/DepthDuration/v2_depth_duration_MTurk/v2_DepthDuration_HTML.html#222,222,1366,625,1366,768,9-3-2022,9-27-13,124,depth_duration_stimuli/001808_2014-06-26_20-50-58_260595134347_rgbf000029-resize_1/001808_2014-06-26_20-50-58_260595134347_rgbf000029-resize_1-target.png,125,4.249,2,4182,120,feet,jsons/VE125_randls_40_rotated.json,710232,825772,48,Woman
124,138483,DepthScenes,duration_manipulation_targetAtFixation,jsons/VE125_randls_40_rotated.json,http://54.235.29.9/FacialAge/BNav_EC2/DepthDuration/v2_depth_duration_MTurk/v2_DepthDuration_HTML.html#222,222,1366,625,1366,768,9-3-2022,9-27-13,125,depth_duration_stimuli/000866_2014-06-09_20-45-42_260595134347_rgbf000139-resize_1/000866_2014-06-09_20-45-42_260595134347_rgbf000139-resize_1-target.png,125,3.2155,2,6673,125,feet,jsons/VE125_randls_40_rotated.json,710232,825772,48,Woman
125,138483,DepthScenes,duration_manipulation_targetAtFixation,jsons/VE125_randls_40_rotated.json,http://54.235.29.9/FacialAge/BNav_EC2/DepthDuration/v2_depth_duration_MTurk/v2_DepthDuration_HTML.html#222,222,1366,625,1366,768,9-3-2022,9-27-13,126,depth_duration_stimuli/002989_2014-06-15_12-25-03_094959634447_rgbf000150-resize_3/002989_2014-06-15_12-25-03_094959634447_rgbf000150-resize_3-target.png,125,4.1975,2,2110,124,feet,jsons/VE125_randls_40_rotated.json,710232,825772,48,Woman
126,138483,DepthScenes,duration_manipulation_targetAtFixation,jsons/VE125_randls_40_rotated.json,http://54.235.29.9/FacialAge/BNav_EC2/DepthDuration/v2_depth_duration_MTurk/v2_DepthDuration_HTML.html#222,222,1366,625,1366,768,9-3-2022,9-27-13,127,depth_duration_stimuli/003490_2014-05-21_15-50-11_094959634447_rgbf000101-resize_3/003490_2014-05-21_15-50-11_094959634447_rgbf000101-resize_3-target.png,125,3.6445,2,2259,125,feet,jsons/VE125_randls_40_rotated.json,710232,825772,48,Woman
127,138483,DepthScenes,duration_manipulation_targetAtFixation,jsons/VE125_randls_40_rotated.json,http://54.235.29.9/FacialAge/BNav_EC2/DepthDuration/v2_depth_duration_MTurk/v2_DepthDuration_HTML.html#222,222,1366,625,1366,768,9-3-2022,9-27-13,128,depth_duration_stimuli/001175_2014-06-17_15-45-55_260595134347_rgbf000129-resize_4/001175_2014-06-17_15-45-55_260595134347_rgbf000129-resize_4-target.png,125,4.255,2,2451,125,feet,jsons/VE125_randls_40_rotated.json,710232,825772,48,Woman
128,138483,DepthScenes,duration_manipulation_targetAtFixation,jsons/VE125_randls_40_rotated.json,http://54.235.29.9/FacialAge/BNav_EC2/DepthDuration/v2_depth_duration_MTurk/v2_DepthDuration_HTML.html#222,222,1366,625,1366,768,9-3-2022,9-27-13,129,depth_duration_stimuli/001516_2014-06-20_16-25-09_260595134347_rgbf000076-resize_2/001516_2014-06-20_16-25-09_260595134347_rgbf000076-resize_2-target.png,125,1.7445,2,2315,126,feet,jsons/VE125_randls_40_rotated.json,710232,825772,48,Woman
129,138483,DepthScenes,duration_manipulation_targetAtFixation,jsons/VE125_randls_40_rotated.json,http://54.235.29.9/FacialAge/BNav_EC2/DepthDuration/v2_depth_duration_MTurk/v2_DepthDuration_HTML.html#222,222,1366,625,1366,768,9-3-2022,9-27-13,130,depth_duration_stimuli/002118_2014-06-25_20-32-08_260595134347_rgbf000078-resize_1/002118_2014-06-25_20-32-08_260595134347_rgbf000078-resize_1-target.png,125,2.6460000000000004,2,2540,125,feet,jsons/VE125_randls_40_rotated.json,710232,825772,48,Woman
130,138483,DepthScenes,duration_manipulation_targetAtFixation,jsons/VE125_randls_40_rotated.json,http://54.235.29.9/FacialAge/BNav_EC2/DepthDuration/v2_depth_duration_MTurk/v2_DepthDuration_HTML.html#222,222,1366,625,1366,768,9-3-2022,9-27-13,131,depth_duration_stimuli/000677_2014-06-08_23-10-32_260595134347_rgbf000158-resize_6/000677_2014-06-08_23-10-32_260595134347_rgbf000158-resize_6-target.png,125,3.556,2,29498,130,feet,jsons/VE125_randls_40_rotated.json,710232,825772,48,Woman
131,138483,DepthScenes,duration_manipulation_targetAtFixation,jsons/VE125_randls_40_rotated.json,http://54.235.29.9/FacialAge/BNav_EC2/DepthDuration/v2_depth_duration_MTurk/v2_DepthDuration_HTML.html#222,222,1366,625,1366,768,9-3-2022,9-27-13,132,depth_duration_stimuli/001029_2014-06-08_13-17-57_260595134347_rgbf000065-resize_1/001029_2014-06-08_13-17-57_260595134347_rgbf000065-resize_1-target.png,125,3.0835,2,8463,120,feet,jsons/VE125_randls_40_rotated.json,710232,825772,48,Woman
132,138483,DepthScenes,duration_manipulation_targetAtFixation,jsons/VE125_randls_40_rotated.json,http://54.235.29.9/FacialAge/BNav_EC2/DepthDuration/v2_depth_duration_MTurk/v2_DepthDuration_HTML.html#222,222,1366,625,1366,768,9-3-2022,9-27-13,133,depth_duration_stimuli/001584_2014-06-20_11-07-43_260595134347_rgbf000002-resize_1/001584_2014-06-20_11-07-43_260595134347_rgbf000002-resize_1-target.png,125,3.53,2,2311,123,feet,jsons/VE125_randls_40_rotated.json,710232,825772,48,Woman
133,138483,DepthScenes,duration_manipulation_targetAtFixation,jsons/VE125_randls_40_rotated.json,http://54.235.29.9/FacialAge/BNav_EC2/DepthDuration/v2_depth_duration_MTurk/v2_DepthDuration_HTML.html#222,222,1366,625,1366,768,9-3-2022,9-27-13,134,depth_duration_stimuli/003621_2014-05-23_18-06-08_094959634447_rgbf000101-resize_1/003621_2014-05-23_18-06-08_094959634447_rgbf000101-resize_1-target.png,125,3.9835,2,2228,126,feet,jsons/VE125_randls_40_rotated.json,710232,825772,48,Woman
134,138483,DepthScenes,duration_manipulation_targetAtFixation,jsons/VE125_randls_40_rotated.json,http://54.235.29.9/FacialAge/BNav_EC2/DepthDuration/v2_depth_duration_MTurk/v2_DepthDuration_HTML.html#222,222,1366,625,1366,768,9-3-2022,9-27-13,135,depth_duration_stimuli/000375_2014-06-08_11-17-29_260595134347_rgbf000133-resize_2/000375_2014-06-08_11-17-29_260595134347_rgbf000133-resize-original.jpg,125,4.718,2,2402,126,feet,jsons/VE125_randls_40_rotated.json,710232,825772,48,Woman
135,138483,DepthScenes,duration_manipulation_targetAtFixation,jsons/VE125_randls_40_rotated.json,http://54.235.29.9/FacialAge/BNav_EC2/DepthDuration/v2_depth_duration_MTurk/v2_DepthDuration_HTML.html#222,222,1366,625,1366,768,9-3-2022,9-27-13,136,depth_duration_stimuli/002639_2014-06-24_14-51-37_094959634447_rgbf000074-resize_4/002639_2014-06-24_14-51-37_094959634447_rgbf000074-resize_4-target.png,125,4.0375,2,2163,125,feet,jsons/VE125_randls_40_rotated.json,710232,825772,48,Woman
136,138483,DepthScenes,duration_manipulation_targetAtFixation,jsons/VE125_randls_40_rotated.json,http://54.235.29.9/FacialAge/BNav_EC2/DepthDuration/v2_depth_duration_MTurk/v2_DepthDuration_HTML.html#222,222,1366,625,1366,768,9-3-2022,9-27-13,137,depth_duration_stimuli/003292_2014-05-14_21-53-49_094959634447_rgbf000100-resize_2/003292_2014-05-14_21-53-49_094959634447_rgbf000100-resize_2-target.png,125,3.4815,2,2267,126,feet,jsons/VE125_randls_40_rotated.json,710232,825772,48,Woman
137,138483,DepthScenes,duration_manipulation_targetAtFixation,jsons/VE125_randls_40_rotated.json,http://54.235.29.9/FacialAge/BNav_EC2/DepthDuration/v2_depth_duration_MTurk/v2_DepthDuration_HTML.html#222,222,1366,625,1366,768,9-3-2022,9-27-13,138,depth_duration_stimuli/000854_2014-06-09_19-43-13_260595134347_rgbf000066-resize_0/000854_2014-06-09_19-43-13_260595134347_rgbf000066-resize_0-target.png,125,3.068,2,2474,124,feet,jsons/VE125_randls_40_rotated.json,710232,825772,48,Woman
138,138483,DepthScenes,duration_manipulation_targetAtFixation,jsons/VE125_randls_40_rotated.json,http://54.235.29.9/FacialAge/BNav_EC2/DepthDuration/v2_depth_duration_MTurk/v2_DepthDuration_HTML.html#222,222,1366,625,1366,768,9-3-2022,9-27-13,139,depth_duration_stimuli/000758_2014-06-08_22-05-08_260595134347_rgbf000085-resize_0/000758_2014-06-08_22-05-08_260595134347_rgbf000085-resize_0-target.png,125,3.3810000000000002,2,11061,137,feet,jsons/VE125_randls_40_rotated.json,710232,825772,48,Woman
139,138483,DepthScenes,duration_manipulation_targetAtFixation,jsons/VE125_randls_40_rotated.json,http://54.235.29.9/FacialAge/BNav_EC2/DepthDuration/v2_depth_duration_MTurk/v2_DepthDuration_HTML.html#222,222,1366,625,1366,768,9-3-2022,9-27-13,140,depth_duration_stimuli/000409_2014-06-04_19-23-33_260595134347_rgbf000067-resize_0/000409_2014-06-04_19-23-33_260595134347_rgbf000067-resize_0-target.png,125,3.7335,2,2437,120,feet,jsons/VE125_randls_40_rotated.json,710232,825772,48,Woman
140,138483,DepthScenes,duration_manipulation_targetAtFixation,jsons/VE125_randls_40_rotated.json,http://54.235.29.9/FacialAge/BNav_EC2/DepthDuration/v2_depth_duration_MTurk/v2_DepthDuration_HTML.html#222,222,1366,625,1366,768,9-3-2022,9-27-13,141,depth_duration_stimuli/002663_2014-06-13_15-50-26_094959634447_rgbf000075-resize_1/002663_2014-06-13_15-50-26_094959634447_rgbf000075-resize_1-target.png,125,4.7495,2,2307,126,feet,jsons/VE125_randls_40_rotated.json,710232,825772,48,Woman
141,138483,DepthScenes,duration_manipulation_targetAtFixation,jsons/VE125_randls_40_rotated.json,http://54.235.29.9/FacialAge/BNav_EC2/DepthDuration/v2_depth_duration_MTurk/v2_DepthDuration_HTML.html#222,222,1366,625,1366,768,9-3-2022,9-27-13,142,depth_duration_stimuli/002323_2014-06-28_20-01-54_260595134347_rgbf000051-resize_4/002323_2014-06-28_20-01-54_260595134347_rgbf000051-resize_4-target.png,125,3.7310000000000003,2,2420,125,feet,jsons/VE125_randls_40_rotated.json,710232,825772,48,Woman
142,138483,DepthScenes,duration_manipulation_targetAtFixation,jsons/VE125_randls_40_rotated.json,http://54.235.29.9/FacialAge/BNav_EC2/DepthDuration/v2_depth_duration_MTurk/v2_DepthDuration_HTML.html#222,222,1366,625,1366,768,9-3-2022,9-27-13,143,depth_duration_stimuli/000917_2014-06-09_22-45-29_260595134347_rgbf000149-resize_3/000917_2014-06-09_22-45-29_260595134347_rgbf000149-resize_3-target.png,125,4.1865,2,2275,127,feet,jsons/VE125_randls_40_rotated.json,710232,825772,48,Woman
143,138483,DepthScenes,duration_manipulation_targetAtFixation,jsons/VE125_randls_40_rotated.json,http://54.235.29.9/FacialAge/BNav_EC2/DepthDuration/v2_depth_duration_MTurk/v2_DepthDuration_HTML.html#222,222,1366,625,1366,768,9-3-2022,9-27-13,144,depth_duration_stimuli/002995_2014-06-15_12-31-26_094959634447_rgbf000150-resize_1/002995_2014-06-15_12-31-26_094959634447_rgbf000150-resize_1-target.png,125,3.8360000000000003,2,2299,133,feet,jsons/VE125_randls_40_rotated.json,710232,825772,48,Woman
144,138483,DepthScenes,duration_manipulation_targetAtFixation,jsons/VE125_randls_40_rotated.json,http://54.235.29.9/FacialAge/BNav_EC2/DepthDuration/v2_depth_duration_MTurk/v2_DepthDuration_HTML.html#222,222,1366,625,1366,768,9-3-2022,9-27-13,145,depth_duration_stimuli/002748_2014-06-22_19-07-22_094959634447_rgbf000078-resize_1/002748_2014-06-22_19-07-22_094959634447_rgbf000078-resize_1-target.png,125,4.6705,2,2346,124,feet,jsons/VE125_randls_40_rotated.json,710232,825772,48,Woman
145,138483,DepthScenes,duration_manipulation_targetAtFixation,jsons/VE125_randls_40_rotated.json,http://54.235.29.9/FacialAge/BNav_EC2/DepthDuration/v2_depth_duration_MTurk/v2_DepthDuration_HTML.html#222,222,1366,625,1366,768,9-3-2022,9-27-13,146,depth_duration_stimuli/002414_2014-06-28_20-24-58_260595134347_rgbf000067-resize_4/002414_2014-06-28_20-24-58_260595134347_rgbf000067-resize_4-target.png,125,4.363,2,2281,124,feet,jsons/VE125_randls_40_rotated.json,710232,825772,48,Woman
146,138483,DepthScenes,duration_manipulation_targetAtFixation,jsons/VE125_randls_40_rotated.json,http://54.235.29.9/FacialAge/BNav_EC2/DepthDuration/v2_depth_duration_MTurk/v2_DepthDuration_HTML.html#222,222,1366,625,1366,768,9-3-2022,9-27-13,147,depth_duration_stimuli/000773_2014-06-08_22-24-54_260595134347_rgbf000093-resize_1/000773_2014-06-08_22-24-54_260595134347_rgbf000093-resize_1-target.png,125,4.973,2,2396,125,feet,jsons/VE125_randls_40_rotated.json,710232,825772,48,Woman
147,138483,DepthScenes,duration_manipulation_targetAtFixation,jsons/VE125_randls_40_rotated.json,http://54.235.29.9/FacialAge/BNav_EC2/DepthDuration/v2_depth_duration_MTurk/v2_DepthDuration_HTML.html#222,222,1366,625,1366,768,9-3-2022,9-27-13,148,depth_duration_stimuli/001450_2014-06-19_17-02-03_260595134347_rgbf000203-resize_4/001450_2014-06-19_17-02-03_260595134347_rgbf000203-resize_4-target.png,125,4.0106666666667,2,3640,122,feet,jsons/VE125_randls_40_rotated.json,710232,825772,48,Woman
148,138483,DepthScenes,duration_manipulation_targetAtFixation,jsons/VE125_randls_40_rotated.json,http://54.235.29.9/FacialAge/BNav_EC2/DepthDuration/v2_depth_duration_MTurk/v2_DepthDuration_HTML.html#222,222,1366,625,1366,768,9-3-2022,9-27-13,149,depth_duration_stimuli/001449_2014-06-19_17-01-27_260595134347_rgbf000116-resize_2/001449_2014-06-19_17-01-27_260595134347_rgbf000116-resize_2-target.png,125,3.452,2,5956,124,feet,jsons/VE125_randls_40_rotated.json,710232,825772,48,Woman
149,138483,DepthScenes,duration_manipulation_targetAtFixation,jsons/VE125_randls_40_rotated.json,http://54.235.29.9/FacialAge/BNav_EC2/DepthDuration/v2_depth_duration_MTurk/v2_DepthDuration_HTML.html#222,222,1366,625,1366,768,9-3-2022,9-27-13,150,depth_duration_stimuli/002657_2014-06-13_15-29-54_094959634447_rgbf000150-resize_1/002657_2014-06-13_15-29-54_094959634447_rgbf000150-resize_1-target.png,125,4.919,2,2259,125,feet,jsons/VE125_randls_40_rotated.json,710232,825772,48,Woman
150,138483,DepthScenes,duration_manipulation_targetAtFixation,jsons/VE125_randls_40_rotated.json,http://54.235.29.9/FacialAge/BNav_EC2/DepthDuration/v2_depth_duration_MTurk/v2_DepthDuration_HTML.html#222,222,1366,625,1366,768,9-3-2022,9-27-13,151,depth_duration_stimuli/002375_2014-06-28_20-13-44_260595134347_rgbf000032-resize_1/002375_2014-06-28_20-13-44_260595134347_rgbf000032-resize_1-target.png,125,4.0175,2,2132,125,feet,jsons/VE125_randls_40_rotated.json,710232,825772,48,Woman
151,138483,DepthScenes,duration_manipulation_targetAtFixation,jsons/VE125_randls_40_rotated.json,http://54.235.29.9/FacialAge/BNav_EC2/DepthDuration/v2_depth_duration_MTurk/v2_DepthDuration_HTML.html#222,222,1366,625,1366,768,9-3-2022,9-27-13,152,depth_duration_stimuli/000569_2014-06-09_22-51-47_260595134347_rgbf000141-resize_3/000569_2014-06-09_22-51-47_260595134347_rgbf000141-resize-original.jpg,125,4.512,2,2306,125,feet,jsons/VE125_randls_40_rotated.json,710232,825772,48,Woman
152,138483,DepthScenes,duration_manipulation_targetAtFixation,jsons/VE125_randls_40_rotated.json,http://54.235.29.9/FacialAge/BNav_EC2/DepthDuration/v2_depth_duration_MTurk/v2_DepthDuration_HTML.html#222,222,1366,625,1366,768,9-3-2022,9-27-13,153,depth_duration_stimuli/002875_2014-06-01_15-19-00_094959634447_rgbf000151-resize_1/002875_2014-06-01_15-19-00_094959634447_rgbf000151-resize_1-target.png,125,1.9675,2,2333,124,feet,jsons/VE125_randls_40_rotated.json,710232,825772,48,Woman
153,138483,DepthScenes,duration_manipulation_targetAtFixation,jsons/VE125_randls_40_rotated.json,http://54.235.29.9/FacialAge/BNav_EC2/DepthDuration/v2_depth_duration_MTurk/v2_DepthDuration_HTML.html#222,222,1366,625,1366,768,9-3-2022,9-27-13,154,depth_duration_stimuli/001011_2014-06-08_23-18-54_260595134347_rgbf000044-resize_4/001011_2014-06-08_23-18-54_260595134347_rgbf000044-resize_4-target.png,125,2.4730000000000003,2,2114,125,feet,jsons/VE125_randls_40_rotated.json,710232,825772,48,Woman
154,138483,DepthScenes,duration_manipulation_targetAtFixation,jsons/VE125_randls_40_rotated.json,http://54.235.29.9/FacialAge/BNav_EC2/DepthDuration/v2_depth_duration_MTurk/v2_DepthDuration_HTML.html#222,222,1366,625,1366,768,9-3-2022,9-27-13,155,depth_duration_stimuli/001828_2014-06-26_21-40-03_260595134347_rgbf000024-resize_0/001828_2014-06-26_21-40-03_260595134347_rgbf000024-resize_0-target.png,125,4.8260000000000005,2,31300,125,feet,jsons/VE125_randls_40_rotated.json,710232,825772,48,Woman
155,138483,DepthScenes,duration_manipulation_targetAtFixation,jsons/VE125_randls_40_rotated.json,http://54.235.29.9/FacialAge/BNav_EC2/DepthDuration/v2_depth_duration_MTurk/v2_DepthDuration_HTML.html#222,222,1366,625,1366,768,9-3-2022,9-27-13,156,depth_duration_stimuli/000009_2014-05-26_14-32-05_260595134347_rgbf000034-resize_3/000009_2014-05-26_14-32-05_260595134347_rgbf000034-resize_3-target.png,125,3.8715,4,6352,122,feet,jsons/VE125_randls_40_rotated.json,710232,825772,48,Woman
156,138483,DepthScenes,duration_manipulation_targetAtFixation,jsons/VE125_randls_40_rotated.json,http://54.235.29.9/FacialAge/BNav_EC2/DepthDuration/v2_depth_duration_MTurk/v2_DepthDuration_HTML.html#222,222,1366,625,1366,768,9-3-2022,9-27-13,157,depth_duration_stimuli/000483_2014-06-09_20-41-45_260595134347_rgbf000116-resize_4/000483_2014-06-09_20-41-45_260595134347_rgbf000116-resize_4-target.png,125,1.337,5,4866,124,feet,jsons/VE125_randls_40_rotated.json,710232,825772,48,Woman
157,138483,DepthScenes,duration_manipulation_targetAtFixation,jsons/VE125_randls_40_rotated.json,http://54.235.29.9/FacialAge/BNav_EC2/DepthDuration/v2_depth_duration_MTurk/v2_DepthDuration_HTML.html#222,222,1366,625,1366,768,9-3-2022,9-27-13,158,depth_duration_stimuli/000469_2014-06-09_19-42-10_260595134347_rgbf000081-resize_1/000469_2014-06-09_19-42-10_260595134347_rgbf000081-resize_1-target.png,125,1.652,2,4499,126,feet,jsons/VE125_randls_40_rotated.json,710232,825772,48,Woman
158,138483,DepthScenes,duration_manipulation_targetAtFixation,jsons/VE125_randls_40_rotated.json,http://54.235.29.9/FacialAge/BNav_EC2/DepthDuration/v2_depth_duration_MTurk/v2_DepthDuration_HTML.html#222,222,1366,625,1366,768,9-3-2022,9-27-13,159,depth_duration_stimuli/000109_2014-05-14_23-41-52_260595134347_rgbf000035-resize_9/000109_2014-05-14_23-41-52_260595134347_rgbf000035-resize_9-target.png,125,1.3545,3,5739,126,feet,jsons/VE125_randls_40_rotated.json,710232,825772,48,Woman
159,138483,DepthScenes,duration_manipulation_targetAtFixation,jsons/VE125_randls_40_rotated.json,http://54.235.29.9/FacialAge/BNav_EC2/DepthDuration/v2_depth_duration_MTurk/v2_DepthDuration_HTML.html#222,222,1366,625,1366,768,9-3-2022,9-27-13,160,depth_duration_stimuli/000470_2014-06-09_19-42-40_260595134347_rgbf000094-resize_1/000470_2014-06-09_19-42-40_260595134347_rgbf000094-resize_1-target.png,125,1.831,2,21049,113,feet,jsons/VE125_randls_40_rotated.json,710232,825772,48,Woman
160,138483,DepthScenes,duration_manipulation_targetAtFixation,jsons/VE125_randls_40_rotated.json,http://54.235.29.9/FacialAge/BNav_EC2/DepthDuration/v2_depth_duration_MTurk/v2_DepthDuration_HTML.html#222,222,1366,625,1366,768,9-3-2022,9-27-13,161,depth_duration_stimuli/003083_2014-06-15_15-21-03_094959634447_rgbf000063-resize_1/003083_2014-06-15_15-21-03_094959634447_rgbf000063-resize_1-target.png,125,4.1405,3,2719,119,feet,jsons/VE125_randls_40_rotated.json,710232,825772,48,Woman
161,138483,DepthScenes,duration_manipulation_targetAtFixation,jsons/VE125_randls_40_rotated.json,http://54.235.29.9/FacialAge/BNav_EC2/DepthDuration/v2_depth_duration_MTurk/v2_DepthDuration_HTML.html#222,222,1366,625,1366,768,9-3-2022,9-27-13,162,depth_duration_stimuli/000486_2014-06-09_20-47-20_260595134347_rgbf000143-resize_2/000486_2014-06-09_20-47-20_260595134347_rgbf000143-resize_2-target.png,125,4.8325,2,2779,128,feet,jsons/VE125_randls_40_rotated.json,710232,825772,48,Woman
162,138483,DepthScenes,duration_manipulation_targetAtFixation,jsons/VE125_randls_40_rotated.json,http://54.235.29.9/FacialAge/BNav_EC2/DepthDuration/v2_depth_duration_MTurk/v2_DepthDuration_HTML.html#222,222,1366,625,1366,768,9-3-2022,9-27-13,163,depth_duration_stimuli/000191_2014-05-12_17-07-38_260595134347_rgbf000199-resize_0/000191_2014-05-12_17-07-38_260595134347_rgbf000199-resize_0-target.png,125,3.7995,5,2882,123,feet,jsons/VE125_randls_40_rotated.json,710232,825772,48,Woman
163,138483,DepthScenes,duration_manipulation_targetAtFixation,jsons/VE125_randls_40_rotated.json,http://54.235.29.9/FacialAge/BNav_EC2/DepthDuration/v2_depth_duration_MTurk/v2_DepthDuration_HTML.html#222,222,1366,625,1366,768,9-3-2022,9-27-13,164,depth_duration_stimuli/000493_2014-06-09_21-01-18_260595134347_rgbf000196-resize_3/000493_2014-06-09_21-01-18_260595134347_rgbf000196-resize_3-target.png,125,3.44,1,2755,124,feet,jsons/VE125_randls_40_rotated.json,710232,825772,48,Woman
