,subjID,experimentName,versionName,sequenceName,url,selected_row,windowWidth,windowHeight,screenWidth,screenHeight,startDate,startTime,trial,stimulus,duration,actual_depth,depth_estimate,trial_RT,log_sceneDuration,unitSelection,seq_filepath,experimentTime,totalTime,age,gender
0,138760,DepthScenes,duration_manipulation_targetAtFixation,jsons/v1_VE250_randls_55.json,http://54.235.29.9/FacialAge/BNav_EC2/DepthDuration/v2_depth_duration_MTurk/v2_DepthDuration_HTML.html#16,16,1680,907,1680,1050,8-20-2022,8-11-7,1,depth_duration_stimuli/001167_2014-06-17_15-38-07_260595134347_rgbf000108-resize_0/001167_2014-06-17_15-38-07_260595134347_rgbf000108-resize_0-target.png,250,1.8505,1,4211,255,feet,jsons/v1_VE250_randls_55.json,526679,1289361,35,Man
1,138760,DepthScenes,duration_manipulation_targetAtFixation,jsons/v1_VE250_randls_55.json,http://54.235.29.9/FacialAge/BNav_EC2/DepthDuration/v2_depth_duration_MTurk/v2_DepthDuration_HTML.html#16,16,1680,907,1680,1050,8-20-2022,8-11-7,2,depth_duration_stimuli/003587_2014-05-23_16-48-02_094959634447_rgbf002384-resize_2/003587_2014-05-23_16-48-02_094959634447_rgbf002384-resize_2-target.png,250,1.357,1,3010,266,feet,jsons/v1_VE250_randls_55.json,526679,1289361,35,Man
2,138760,DepthScenes,duration_manipulation_targetAtFixation,jsons/v1_VE250_randls_55.json,http://54.235.29.9/FacialAge/BNav_EC2/DepthDuration/v2_depth_duration_MTurk/v2_DepthDuration_HTML.html#16,16,1680,907,1680,1050,8-20-2022,8-11-7,3,depth_duration_stimuli/000447_2014-06-08_16-15-46_260595134347_rgbf000130-resize_1/000447_2014-06-08_16-15-46_260595134347_rgbf000130-resize_1-target.png,250,4.479,5,2788,259,feet,jsons/v1_VE250_randls_55.json,526679,1289361,35,Man
3,138760,DepthScenes,duration_manipulation_targetAtFixation,jsons/v1_VE250_randls_55.json,http://54.235.29.9/FacialAge/BNav_EC2/DepthDuration/v2_depth_duration_MTurk/v2_DepthDuration_HTML.html#16,16,1680,907,1680,1050,8-20-2022,8-11-7,4,depth_duration_stimuli/001447_2014-06-19_17-00-32_260595134347_rgbf000082-resize_5/001447_2014-06-19_17-00-32_260595134347_rgbf000082-resize_5-target.png,250,4.13775,3,3656,257,feet,jsons/v1_VE250_randls_55.json,526679,1289361,35,Man
4,138760,DepthScenes,duration_manipulation_targetAtFixation,jsons/v1_VE250_randls_55.json,http://54.235.29.9/FacialAge/BNav_EC2/DepthDuration/v2_depth_duration_MTurk/v2_DepthDuration_HTML.html#16,16,1680,907,1680,1050,8-20-2022,8-11-7,5,depth_duration_stimuli/002375_2014-06-28_20-13-44_260595134347_rgbf000032-resize_1/002375_2014-06-28_20-13-44_260595134347_rgbf000032-resize_1-target.png,250,4.0175,3,2384,251,feet,jsons/v1_VE250_randls_55.json,526679,1289361,35,Man
5,138760,DepthScenes,duration_manipulation_targetAtFixation,jsons/v1_VE250_randls_55.json,http://54.235.29.9/FacialAge/BNav_EC2/DepthDuration/v2_depth_duration_MTurk/v2_DepthDuration_HTML.html#16,16,1680,907,1680,1050,8-20-2022,8-11-7,6,depth_duration_stimuli/002657_2014-06-13_15-29-54_094959634447_rgbf000150-resize_1/002657_2014-06-13_15-29-54_094959634447_rgbf000150-resize_1-target.png,250,4.919,4,1828,250,feet,jsons/v1_VE250_randls_55.json,526679,1289361,35,Man
6,138760,DepthScenes,duration_manipulation_targetAtFixation,jsons/v1_VE250_randls_55.json,http://54.235.29.9/FacialAge/BNav_EC2/DepthDuration/v2_depth_duration_MTurk/v2_DepthDuration_HTML.html#16,16,1680,907,1680,1050,8-20-2022,8-11-7,7,depth_duration_stimuli/002630_2014-06-24_14-47-50_094959634447_rgbf000055-resize_1/002630_2014-06-24_14-47-50_094959634447_rgbf000055-resize_1-target.png,250,3.0095,5,2340,253,feet,jsons/v1_VE250_randls_55.json,526679,1289361,35,Man
7,138760,DepthScenes,duration_manipulation_targetAtFixation,jsons/v1_VE250_randls_55.json,http://54.235.29.9/FacialAge/BNav_EC2/DepthDuration/v2_depth_duration_MTurk/v2_DepthDuration_HTML.html#16,16,1680,907,1680,1050,8-20-2022,8-11-7,8,depth_duration_stimuli/002758_2014-06-22_19-11-20_094959634447_rgbf000128-resize_1/002758_2014-06-22_19-11-20_094959634447_rgbf000128-resize_1-target.png,250,2.555,2,2019,249,feet,jsons/v1_VE250_randls_55.json,526679,1289361,35,Man
8,138760,DepthScenes,duration_manipulation_targetAtFixation,jsons/v1_VE250_randls_55.json,http://54.235.29.9/FacialAge/BNav_EC2/DepthDuration/v2_depth_duration_MTurk/v2_DepthDuration_HTML.html#16,16,1680,907,1680,1050,8-20-2022,8-11-7,9,depth_duration_stimuli/000810_2014-06-08_17-20-01_260595134347_rgbf000105-resize_0/000810_2014-06-08_17-20-01_260595134347_rgbf000105-resize_0-target.png,250,1.4865,2,1906,254,feet,jsons/v1_VE250_randls_55.json,526679,1289361,35,Man
9,138760,DepthScenes,duration_manipulation_targetAtFixation,jsons/v1_VE250_randls_55.json,http://54.235.29.9/FacialAge/BNav_EC2/DepthDuration/v2_depth_duration_MTurk/v2_DepthDuration_HTML.html#16,16,1680,907,1680,1050,8-20-2022,8-11-7,10,depth_duration_stimuli/001214_2014-06-17_16-13-55_260595134347_rgbf000111-resize_0/001214_2014-06-17_16-13-55_260595134347_rgbf000111-resize_0-target.png,250,2.6505,3,3218,250,feet,jsons/v1_VE250_randls_55.json,526679,1289361,35,Man
10,138760,DepthScenes,duration_manipulation_targetAtFixation,jsons/v1_VE250_randls_55.json,http://54.235.29.9/FacialAge/BNav_EC2/DepthDuration/v2_depth_duration_MTurk/v2_DepthDuration_HTML.html#16,16,1680,907,1680,1050,8-20-2022,8-11-7,11,depth_duration_stimuli/003534_2014-05-22_15-06-10_094959634447_rgbf000102-resize_4/003534_2014-05-22_15-06-10_094959634447_rgbf000102-resize_4-target.png,250,1.426,1,1680,247,feet,jsons/v1_VE250_randls_55.json,526679,1289361,35,Man
11,138760,DepthScenes,duration_manipulation_targetAtFixation,jsons/v1_VE250_randls_55.json,http://54.235.29.9/FacialAge/BNav_EC2/DepthDuration/v2_depth_duration_MTurk/v2_DepthDuration_HTML.html#16,16,1680,907,1680,1050,8-20-2022,8-11-7,12,depth_duration_stimuli/002637_2014-06-24_14-51-13_094959634447_rgbf000066-resize_4/002637_2014-06-24_14-51-13_094959634447_rgbf000066-resize_4-target.png,250,1.9955,3,2627,250,feet,jsons/v1_VE250_randls_55.json,526679,1289361,35,Man
12,138760,DepthScenes,duration_manipulation_targetAtFixation,jsons/v1_VE250_randls_55.json,http://54.235.29.9/FacialAge/BNav_EC2/DepthDuration/v2_depth_duration_MTurk/v2_DepthDuration_HTML.html#16,16,1680,907,1680,1050,8-20-2022,8-11-7,13,depth_duration_stimuli/000569_2014-06-09_22-51-47_260595134347_rgbf000141-resize_3/000569_2014-06-09_22-51-47_260595134347_rgbf000141-resize-original.jpg,250,4.512,0,3218,251,feet,jsons/v1_VE250_randls_55.json,526679,1289361,35,Man
13,138760,DepthScenes,duration_manipulation_targetAtFixation,jsons/v1_VE250_randls_55.json,http://54.235.29.9/FacialAge/BNav_EC2/DepthDuration/v2_depth_duration_MTurk/v2_DepthDuration_HTML.html#16,16,1680,907,1680,1050,8-20-2022,8-11-7,14,depth_duration_stimuli/000436_2014-06-09_22-25-11_260595134347_rgbf000137-resize_1/000436_2014-06-09_22-25-11_260595134347_rgbf000137-resize_1-target.png,250,4.0705,5,2333,250,feet,jsons/v1_VE250_randls_55.json,526679,1289361,35,Man
14,138760,DepthScenes,duration_manipulation_targetAtFixation,jsons/v1_VE250_randls_55.json,http://54.235.29.9/FacialAge/BNav_EC2/DepthDuration/v2_depth_duration_MTurk/v2_DepthDuration_HTML.html#16,16,1680,907,1680,1050,8-20-2022,8-11-7,15,depth_duration_stimuli/002444_2014-06-28_20-32-08_260595134347_rgbf000027-resize_0/002444_2014-06-28_20-32-08_260595134347_rgbf000027-resize_0-target.png,250,4.388999999999999,4,2402,250,feet,jsons/v1_VE250_randls_55.json,526679,1289361,35,Man
15,138760,DepthScenes,duration_manipulation_targetAtFixation,jsons/v1_VE250_randls_55.json,http://54.235.29.9/FacialAge/BNav_EC2/DepthDuration/v2_depth_duration_MTurk/v2_DepthDuration_HTML.html#16,16,1680,907,1680,1050,8-20-2022,8-11-7,16,depth_duration_stimuli/002600_2014-06-24_14-27-04_094959634447_rgbf000074-resize_2/002600_2014-06-24_14-27-04_094959634447_rgbf000074-resize_2-target.png,250,2.7575,3,2236,262,feet,jsons/v1_VE250_randls_55.json,526679,1289361,35,Man
16,138760,DepthScenes,duration_manipulation_targetAtFixation,jsons/v1_VE250_randls_55.json,http://54.235.29.9/FacialAge/BNav_EC2/DepthDuration/v2_depth_duration_MTurk/v2_DepthDuration_HTML.html#16,16,1680,907,1680,1050,8-20-2022,8-11-7,17,depth_duration_stimuli/003228_2014-05-14_13-42-35_094959634447_rgbf000101-resize_1/003228_2014-05-14_13-42-35_094959634447_rgbf000101-resize_1-target.png,250,1.9680000000000002,2,2939,263,feet,jsons/v1_VE250_randls_55.json,526679,1289361,35,Man
17,138760,DepthScenes,duration_manipulation_targetAtFixation,jsons/v1_VE250_randls_55.json,http://54.235.29.9/FacialAge/BNav_EC2/DepthDuration/v2_depth_duration_MTurk/v2_DepthDuration_HTML.html#16,16,1680,907,1680,1050,8-20-2022,8-11-7,18,depth_duration_stimuli/000758_2014-06-08_22-05-08_260595134347_rgbf000085-resize_0/000758_2014-06-08_22-05-08_260595134347_rgbf000085-resize_0-target.png,250,3.3810000000000002,4,5063,249,feet,jsons/v1_VE250_randls_55.json,526679,1289361,35,Man
18,138760,DepthScenes,duration_manipulation_targetAtFixation,jsons/v1_VE250_randls_55.json,http://54.235.29.9/FacialAge/BNav_EC2/DepthDuration/v2_depth_duration_MTurk/v2_DepthDuration_HTML.html#16,16,1680,907,1680,1050,8-20-2022,8-11-7,19,depth_duration_stimuli/000854_2014-06-09_19-43-13_260595134347_rgbf000066-resize_0/000854_2014-06-09_19-43-13_260595134347_rgbf000066-resize_0-target.png,250,3.068,2,3100,250,feet,jsons/v1_VE250_randls_55.json,526679,1289361,35,Man
19,138760,DepthScenes,duration_manipulation_targetAtFixation,jsons/v1_VE250_randls_55.json,http://54.235.29.9/FacialAge/BNav_EC2/DepthDuration/v2_depth_duration_MTurk/v2_DepthDuration_HTML.html#16,16,1680,907,1680,1050,8-20-2022,8-11-7,20,depth_duration_stimuli/001199_2014-06-17_16-03-48_260595134347_rgbf000077-resize_0/001199_2014-06-17_16-03-48_260595134347_rgbf000077-resize_0-target.png,250,3.4375,5,1852,250,feet,jsons/v1_VE250_randls_55.json,526679,1289361,35,Man
20,138760,DepthScenes,duration_manipulation_targetAtFixation,jsons/v1_VE250_randls_55.json,http://54.235.29.9/FacialAge/BNav_EC2/DepthDuration/v2_depth_duration_MTurk/v2_DepthDuration_HTML.html#16,16,1680,907,1680,1050,8-20-2022,8-11-7,21,depth_duration_stimuli/000502_2014-06-08_23-02-32_260595134347_rgbf000063-resize_4/000502_2014-06-08_23-02-32_260595134347_rgbf000063-resize_4-target.png,250,2.431,3,2651,266,feet,jsons/v1_VE250_randls_55.json,526679,1289361,35,Man
21,138760,DepthScenes,duration_manipulation_targetAtFixation,jsons/v1_VE250_randls_55.json,http://54.235.29.9/FacialAge/BNav_EC2/DepthDuration/v2_depth_duration_MTurk/v2_DepthDuration_HTML.html#16,16,1680,907,1680,1050,8-20-2022,8-11-7,22,depth_duration_stimuli/000692_2014-06-08_13-09-42_260595134347_rgbf000199-resize_2/000692_2014-06-08_13-09-42_260595134347_rgbf000199-resize_2-target.png,250,3.661,6,2175,248,feet,jsons/v1_VE250_randls_55.json,526679,1289361,35,Man
22,138760,DepthScenes,duration_manipulation_targetAtFixation,jsons/v1_VE250_randls_55.json,http://54.235.29.9/FacialAge/BNav_EC2/DepthDuration/v2_depth_duration_MTurk/v2_DepthDuration_HTML.html#16,16,1680,907,1680,1050,8-20-2022,8-11-7,23,depth_duration_stimuli/001094_2014-06-15_17-36-00_260595134347_rgbf000205-resize_0/001094_2014-06-15_17-36-00_260595134347_rgbf000205-resize_0-target.png,250,4.2175,5,2611,254,feet,jsons/v1_VE250_randls_55.json,526679,1289361,35,Man
23,138760,DepthScenes,duration_manipulation_targetAtFixation,jsons/v1_VE250_randls_55.json,http://54.235.29.9/FacialAge/BNav_EC2/DepthDuration/v2_depth_duration_MTurk/v2_DepthDuration_HTML.html#16,16,1680,907,1680,1050,8-20-2022,8-11-7,24,depth_duration_stimuli/000917_2014-06-09_22-45-29_260595134347_rgbf000149-resize_3/000917_2014-06-09_22-45-29_260595134347_rgbf000149-resize_3-target.png,250,4.1865,5,4157,247,feet,jsons/v1_VE250_randls_55.json,526679,1289361,35,Man
24,138760,DepthScenes,duration_manipulation_targetAtFixation,jsons/v1_VE250_randls_55.json,http://54.235.29.9/FacialAge/BNav_EC2/DepthDuration/v2_depth_duration_MTurk/v2_DepthDuration_HTML.html#16,16,1680,907,1680,1050,8-20-2022,8-11-7,25,depth_duration_stimuli/002323_2014-06-28_20-01-54_260595134347_rgbf000051-resize_4/002323_2014-06-28_20-01-54_260595134347_rgbf000051-resize_4-target.png,250,3.7310000000000003,4,4946,250,feet,jsons/v1_VE250_randls_55.json,526679,1289361,35,Man
25,138760,DepthScenes,duration_manipulation_targetAtFixation,jsons/v1_VE250_randls_55.json,http://54.235.29.9/FacialAge/BNav_EC2/DepthDuration/v2_depth_duration_MTurk/v2_DepthDuration_HTML.html#16,16,1680,907,1680,1050,8-20-2022,8-11-7,26,depth_duration_stimuli/002509_2014-06-24_13-19-22_094959634447_rgbf000077-resize_0/002509_2014-06-24_13-19-22_094959634447_rgbf000077-resize_0-target.png,250,1.3065,1,1693,249,feet,jsons/v1_VE250_randls_55.json,526679,1289361,35,Man
26,138760,DepthScenes,duration_manipulation_targetAtFixation,jsons/v1_VE250_randls_55.json,http://54.235.29.9/FacialAge/BNav_EC2/DepthDuration/v2_depth_duration_MTurk/v2_DepthDuration_HTML.html#16,16,1680,907,1680,1050,8-20-2022,8-11-7,27,depth_duration_stimuli/003338_2014-05-20_11-01-23_094959634447_rgbf000051-resize_6/003338_2014-05-20_11-01-23_094959634447_rgbf000051-resize_6-target.png,250,1.693,1,2942,252,feet,jsons/v1_VE250_randls_55.json,526679,1289361,35,Man
27,138760,DepthScenes,duration_manipulation_targetAtFixation,jsons/v1_VE250_randls_55.json,http://54.235.29.9/FacialAge/BNav_EC2/DepthDuration/v2_depth_duration_MTurk/v2_DepthDuration_HTML.html#16,16,1680,907,1680,1050,8-20-2022,8-11-7,28,depth_duration_stimuli/002057_2014-06-24_21-00-13_260595134347_rgbf000120-resize_1/002057_2014-06-24_21-00-13_260595134347_rgbf000120-resize_1-target.png,250,2.967,5,5251,263,feet,jsons/v1_VE250_randls_55.json,526679,1289361,35,Man
28,138760,DepthScenes,duration_manipulation_targetAtFixation,jsons/v1_VE250_randls_55.json,http://54.235.29.9/FacialAge/BNav_EC2/DepthDuration/v2_depth_duration_MTurk/v2_DepthDuration_HTML.html#16,16,1680,907,1680,1050,8-20-2022,8-11-7,29,depth_duration_stimuli/000709_2014-06-08_13-51-55_260595134347_rgbf000068-resize_3/000709_2014-06-08_13-51-55_260595134347_rgbf000068-resize_3-target.png,250,1.8030000000000002,2,2369,250,feet,jsons/v1_VE250_randls_55.json,526679,1289361,35,Man
29,138760,DepthScenes,duration_manipulation_targetAtFixation,jsons/v1_VE250_randls_55.json,http://54.235.29.9/FacialAge/BNav_EC2/DepthDuration/v2_depth_duration_MTurk/v2_DepthDuration_HTML.html#16,16,1680,907,1680,1050,8-20-2022,8-11-7,30,depth_duration_stimuli/000375_2014-06-08_11-17-29_260595134347_rgbf000133-resize_2/000375_2014-06-08_11-17-29_260595134347_rgbf000133-resize-original.jpg,250,4.718,0,3171,251,feet,jsons/v1_VE250_randls_55.json,526679,1289361,35,Man
30,138760,DepthScenes,duration_manipulation_targetAtFixation,jsons/v1_VE250_randls_55.json,http://54.235.29.9/FacialAge/BNav_EC2/DepthDuration/v2_depth_duration_MTurk/v2_DepthDuration_HTML.html#16,16,1680,907,1680,1050,8-20-2022,8-11-7,31,depth_duration_stimuli/000682_2014-06-08_23-14-58_260595134347_rgbf000041-resize_5/000682_2014-06-08_23-14-58_260595134347_rgbf000041-resize_5-target.png,250,2.7239999999999998,3,2722,250,feet,jsons/v1_VE250_randls_55.json,526679,1289361,35,Man
31,138760,DepthScenes,duration_manipulation_targetAtFixation,jsons/v1_VE250_randls_55.json,http://54.235.29.9/FacialAge/BNav_EC2/DepthDuration/v2_depth_duration_MTurk/v2_DepthDuration_HTML.html#16,16,1680,907,1680,1050,8-20-2022,8-11-7,32,depth_duration_stimuli/001650_2014-06-20_12-09-00_260595134347_rgbf000087-resize_3/001650_2014-06-20_12-09-00_260595134347_rgbf000087-resize_3-target.png,250,1.9505,1,1835,259,feet,jsons/v1_VE250_randls_55.json,526679,1289361,35,Man
32,138760,DepthScenes,duration_manipulation_targetAtFixation,jsons/v1_VE250_randls_55.json,http://54.235.29.9/FacialAge/BNav_EC2/DepthDuration/v2_depth_duration_MTurk/v2_DepthDuration_HTML.html#16,16,1680,907,1680,1050,8-20-2022,8-11-7,33,depth_duration_stimuli/001164_2014-06-17_15-35-46_260595134347_rgbf000085-resize_3/001164_2014-06-17_15-35-46_260595134347_rgbf000085-resize_3-target.png,250,2.354,2,1760,250,feet,jsons/v1_VE250_randls_55.json,526679,1289361,35,Man
33,138760,DepthScenes,duration_manipulation_targetAtFixation,jsons/v1_VE250_randls_55.json,http://54.235.29.9/FacialAge/BNav_EC2/DepthDuration/v2_depth_duration_MTurk/v2_DepthDuration_HTML.html#16,16,1680,907,1680,1050,8-20-2022,8-11-7,34,depth_duration_stimuli/001136_2014-06-17_15-19-41_260595134347_rgbf000076-resize_3/001136_2014-06-17_15-19-41_260595134347_rgbf000076-resize_3-target.png,250,1.8655,2,1643,263,feet,jsons/v1_VE250_randls_55.json,526679,1289361,35,Man
34,138760,DepthScenes,duration_manipulation_targetAtFixation,jsons/v1_VE250_randls_55.json,http://54.235.29.9/FacialAge/BNav_EC2/DepthDuration/v2_depth_duration_MTurk/v2_DepthDuration_HTML.html#16,16,1680,907,1680,1050,8-20-2022,8-11-7,35,depth_duration_stimuli/001808_2014-06-26_20-50-58_260595134347_rgbf000029-resize_1/001808_2014-06-26_20-50-58_260595134347_rgbf000029-resize_1-target.png,250,4.249,4,2859,257,feet,jsons/v1_VE250_randls_55.json,526679,1289361,35,Man
35,138760,DepthScenes,duration_manipulation_targetAtFixation,jsons/v1_VE250_randls_55.json,http://54.235.29.9/FacialAge/BNav_EC2/DepthDuration/v2_depth_duration_MTurk/v2_DepthDuration_HTML.html#16,16,1680,907,1680,1050,8-20-2022,8-11-7,36,depth_duration_stimuli/001815_2014-06-26_20-52-55_260595134347_rgbf000020-resize_0/001815_2014-06-26_20-52-55_260595134347_rgbf000020-resize_0-target.png,250,3.3865,4,3559,246,feet,jsons/v1_VE250_randls_55.json,526679,1289361,35,Man
36,138760,DepthScenes,duration_manipulation_targetAtFixation,jsons/v1_VE250_randls_55.json,http://54.235.29.9/FacialAge/BNav_EC2/DepthDuration/v2_depth_duration_MTurk/v2_DepthDuration_HTML.html#16,16,1680,907,1680,1050,8-20-2022,8-11-7,37,depth_duration_stimuli/001570_2014-06-20_17-21-09_260595134347_rgbf000135-resize_4/001570_2014-06-20_17-21-09_260595134347_rgbf000135-resize_4-target.png,250,4.467,5,2916,250,feet,jsons/v1_VE250_randls_55.json,526679,1289361,35,Man
37,138760,DepthScenes,duration_manipulation_targetAtFixation,jsons/v1_VE250_randls_55.json,http://54.235.29.9/FacialAge/BNav_EC2/DepthDuration/v2_depth_duration_MTurk/v2_DepthDuration_HTML.html#16,16,1680,907,1680,1050,8-20-2022,8-11-7,38,depth_duration_stimuli/001392_2014-06-19_16-07-59_260595134347_rgbf000046-resize_1/001392_2014-06-19_16-07-59_260595134347_rgbf000046-resize_1-target.png,250,4.135,4,2291,252,feet,jsons/v1_VE250_randls_55.json,526679,1289361,35,Man
38,138760,DepthScenes,duration_manipulation_targetAtFixation,jsons/v1_VE250_randls_55.json,http://54.235.29.9/FacialAge/BNav_EC2/DepthDuration/v2_depth_duration_MTurk/v2_DepthDuration_HTML.html#16,16,1680,907,1680,1050,8-20-2022,8-11-7,39,depth_duration_stimuli/001016_2014-06-09_16-16-10_260595134347_rgbf000112-resize_5/001016_2014-06-09_16-16-10_260595134347_rgbf000112-resize_5-target.png,250,1.6565,2,2030,251,feet,jsons/v1_VE250_randls_55.json,526679,1289361,35,Man
39,138760,DepthScenes,duration_manipulation_targetAtFixation,jsons/v1_VE250_randls_55.json,http://54.235.29.9/FacialAge/BNav_EC2/DepthDuration/v2_depth_duration_MTurk/v2_DepthDuration_HTML.html#16,16,1680,907,1680,1050,8-20-2022,8-11-7,40,depth_duration_stimuli/002340_2014-06-28_20-05-46_260595134347_rgbf000113-resize_0/002340_2014-06-28_20-05-46_260595134347_rgbf000113-resize_0-target.png,250,2.4735,3,2226,264,feet,jsons/v1_VE250_randls_55.json,526679,1289361,35,Man
40,138760,DepthScenes,duration_manipulation_targetAtFixation,jsons/v1_VE250_randls_55.json,http://54.235.29.9/FacialAge/BNav_EC2/DepthDuration/v2_depth_duration_MTurk/v2_DepthDuration_HTML.html#16,16,1680,907,1680,1050,8-20-2022,8-11-7,41,depth_duration_stimuli/002043_2014-06-24_20-29-38_260595134347_rgbf000039-resize_4/002043_2014-06-24_20-29-38_260595134347_rgbf000039-resize_4-target.png,250,2.8435,5,3354,246,feet,jsons/v1_VE250_randls_55.json,526679,1289361,35,Man
41,138760,DepthScenes,duration_manipulation_targetAtFixation,jsons/v1_VE250_randls_55.json,http://54.235.29.9/FacialAge/BNav_EC2/DepthDuration/v2_depth_duration_MTurk/v2_DepthDuration_HTML.html#16,16,1680,907,1680,1050,8-20-2022,8-11-7,42,depth_duration_stimuli/003048_2014-06-15_13-49-43_094959634447_rgbf000150-resize_1/003048_2014-06-15_13-49-43_094959634447_rgbf000150-resize_1-target.png,250,4.0035,5,3200,248,feet,jsons/v1_VE250_randls_55.json,526679,1289361,35,Man
42,138760,DepthScenes,duration_manipulation_targetAtFixation,jsons/v1_VE250_randls_55.json,http://54.235.29.9/FacialAge/BNav_EC2/DepthDuration/v2_depth_duration_MTurk/v2_DepthDuration_HTML.html#16,16,1680,907,1680,1050,8-20-2022,8-11-7,43,depth_duration_stimuli/000414_2014-06-04_19-49-13_260595134347_rgbf000044-resize_0/000414_2014-06-04_19-49-13_260595134347_rgbf000044-resize_0-target.png,250,4.329,7,2459,254,feet,jsons/v1_VE250_randls_55.json,526679,1289361,35,Man
43,138760,DepthScenes,duration_manipulation_targetAtFixation,jsons/v1_VE250_randls_55.json,http://54.235.29.9/FacialAge/BNav_EC2/DepthDuration/v2_depth_duration_MTurk/v2_DepthDuration_HTML.html#16,16,1680,907,1680,1050,8-20-2022,8-11-7,44,depth_duration_stimuli/003129_2014-05-12_10-48-10_094959634447_rgbf000100-resize_0/003129_2014-05-12_10-48-10_094959634447_rgbf000100-resize_0-target.png,250,4.9305,5,2147,257,feet,jsons/v1_VE250_randls_55.json,526679,1289361,35,Man
44,138760,DepthScenes,duration_manipulation_targetAtFixation,jsons/v1_VE250_randls_55.json,http://54.235.29.9/FacialAge/BNav_EC2/DepthDuration/v2_depth_duration_MTurk/v2_DepthDuration_HTML.html#16,16,1680,907,1680,1050,8-20-2022,8-11-7,45,depth_duration_stimuli/000787_2014-06-08_22-33-53_260595134347_rgbf000175-resize_1/000787_2014-06-08_22-33-53_260595134347_rgbf000175-resize-original.jpg,250,4.784,0,2835,264,feet,jsons/v1_VE250_randls_55.json,526679,1289361,35,Man
45,138760,DepthScenes,duration_manipulation_targetAtFixation,jsons/v1_VE250_randls_55.json,http://54.235.29.9/FacialAge/BNav_EC2/DepthDuration/v2_depth_duration_MTurk/v2_DepthDuration_HTML.html#16,16,1680,907,1680,1050,8-20-2022,8-11-7,46,depth_duration_stimuli/002663_2014-06-13_15-50-26_094959634447_rgbf000075-resize_1/002663_2014-06-13_15-50-26_094959634447_rgbf000075-resize_1-target.png,250,4.7495,5,2667,264,feet,jsons/v1_VE250_randls_55.json,526679,1289361,35,Man
46,138760,DepthScenes,duration_manipulation_targetAtFixation,jsons/v1_VE250_randls_55.json,http://54.235.29.9/FacialAge/BNav_EC2/DepthDuration/v2_depth_duration_MTurk/v2_DepthDuration_HTML.html#16,16,1680,907,1680,1050,8-20-2022,8-11-7,47,depth_duration_stimuli/000409_2014-06-04_19-23-33_260595134347_rgbf000067-resize_0/000409_2014-06-04_19-23-33_260595134347_rgbf000067-resize_0-target.png,250,3.7335,3,1694,247,feet,jsons/v1_VE250_randls_55.json,526679,1289361,35,Man
47,138760,DepthScenes,duration_manipulation_targetAtFixation,jsons/v1_VE250_randls_55.json,http://54.235.29.9/FacialAge/BNav_EC2/DepthDuration/v2_depth_duration_MTurk/v2_DepthDuration_HTML.html#16,16,1680,907,1680,1050,8-20-2022,8-11-7,48,depth_duration_stimuli/001133_2014-06-17_14-49-16_260595134347_rgbf000100-resize_0/001133_2014-06-17_14-49-16_260595134347_rgbf000100-resize_0-target.png,250,4.2115,6,2660,265,feet,jsons/v1_VE250_randls_55.json,526679,1289361,35,Man
48,138760,DepthScenes,duration_manipulation_targetAtFixation,jsons/v1_VE250_randls_55.json,http://54.235.29.9/FacialAge/BNav_EC2/DepthDuration/v2_depth_duration_MTurk/v2_DepthDuration_HTML.html#16,16,1680,907,1680,1050,8-20-2022,8-11-7,49,depth_duration_stimuli/001132_2014-06-17_14-48-54_260595134347_rgbf000100-resize_2/001132_2014-06-17_14-48-54_260595134347_rgbf000100-resize_2-target.png,250,3.753,4,4055,247,feet,jsons/v1_VE250_randls_55.json,526679,1289361,35,Man
49,138760,DepthScenes,duration_manipulation_targetAtFixation,jsons/v1_VE250_randls_55.json,http://54.235.29.9/FacialAge/BNav_EC2/DepthDuration/v2_depth_duration_MTurk/v2_DepthDuration_HTML.html#16,16,1680,907,1680,1050,8-20-2022,8-11-7,50,depth_duration_stimuli/001066_2014-06-08_22-03-20_260595134347_rgbf000066-resize_4/001066_2014-06-08_22-03-20_260595134347_rgbf000066-resize_4-target.png,250,4.2330000000000005,4,2394,250,feet,jsons/v1_VE250_randls_55.json,526679,1289361,35,Man
50,138760,DepthScenes,duration_manipulation_targetAtFixation,jsons/v1_VE250_randls_55.json,http://54.235.29.9/FacialAge/BNav_EC2/DepthDuration/v2_depth_duration_MTurk/v2_DepthDuration_HTML.html#16,16,1680,907,1680,1050,8-20-2022,8-11-7,51,depth_duration_stimuli/000742_2014-06-08_18-48-09_260595134347_rgbf000164-resize_4/000742_2014-06-08_18-48-09_260595134347_rgbf000164-resize_4-target.png,250,4.632,3,4155,260,feet,jsons/v1_VE250_randls_55.json,526679,1289361,35,Man
51,138760,DepthScenes,duration_manipulation_targetAtFixation,jsons/v1_VE250_randls_55.json,http://54.235.29.9/FacialAge/BNav_EC2/DepthDuration/v2_depth_duration_MTurk/v2_DepthDuration_HTML.html#16,16,1680,907,1680,1050,8-20-2022,8-11-7,52,depth_duration_stimuli/001417_2014-06-19_16-25-36_260595134347_rgbf000115-resize_5/001417_2014-06-19_16-25-36_260595134347_rgbf000115-resize_5-target.png,250,4.6255,5,2658,247,feet,jsons/v1_VE250_randls_55.json,526679,1289361,35,Man
52,138760,DepthScenes,duration_manipulation_targetAtFixation,jsons/v1_VE250_randls_55.json,http://54.235.29.9/FacialAge/BNav_EC2/DepthDuration/v2_depth_duration_MTurk/v2_DepthDuration_HTML.html#16,16,1680,907,1680,1050,8-20-2022,8-11-7,53,depth_duration_stimuli/003081_2014-06-15_15-19-16_094959634447_rgbf000150-resize_1/003081_2014-06-15_15-19-16_094959634447_rgbf000150-resize_1-target.png,250,3.9125,4,1763,258,feet,jsons/v1_VE250_randls_55.json,526679,1289361,35,Man
53,138760,DepthScenes,duration_manipulation_targetAtFixation,jsons/v1_VE250_randls_55.json,http://54.235.29.9/FacialAge/BNav_EC2/DepthDuration/v2_depth_duration_MTurk/v2_DepthDuration_HTML.html#16,16,1680,907,1680,1050,8-20-2022,8-11-7,54,depth_duration_stimuli/001055_2014-06-08_18-45-35_260595134347_rgbf000111-resize_4/001055_2014-06-08_18-45-35_260595134347_rgbf000111-resize_4-target.png,250,2.4290000000000003,3,1866,247,feet,jsons/v1_VE250_randls_55.json,526679,1289361,35,Man
54,138760,DepthScenes,duration_manipulation_targetAtFixation,jsons/v1_VE250_randls_55.json,http://54.235.29.9/FacialAge/BNav_EC2/DepthDuration/v2_depth_duration_MTurk/v2_DepthDuration_HTML.html#16,16,1680,907,1680,1050,8-20-2022,8-11-7,55,depth_duration_stimuli/000549_2014-06-08_22-10-24_260595134347_rgbf000247-resize_3/000549_2014-06-08_22-10-24_260595134347_rgbf000247-resize_3-target.png,250,1.841,1,1652,254,feet,jsons/v1_VE250_randls_55.json,526679,1289361,35,Man
55,138760,DepthScenes,duration_manipulation_targetAtFixation,jsons/v1_VE250_randls_55.json,http://54.235.29.9/FacialAge/BNav_EC2/DepthDuration/v2_depth_duration_MTurk/v2_DepthDuration_HTML.html#16,16,1680,907,1680,1050,8-20-2022,8-11-7,56,depth_duration_stimuli/002748_2014-06-22_19-07-22_094959634447_rgbf000078-resize_1/002748_2014-06-22_19-07-22_094959634447_rgbf000078-resize_1-target.png,250,4.6705,7,3673,249,feet,jsons/v1_VE250_randls_55.json,526679,1289361,35,Man
56,138760,DepthScenes,duration_manipulation_targetAtFixation,jsons/v1_VE250_randls_55.json,http://54.235.29.9/FacialAge/BNav_EC2/DepthDuration/v2_depth_duration_MTurk/v2_DepthDuration_HTML.html#16,16,1680,907,1680,1050,8-20-2022,8-11-7,57,depth_duration_stimuli/002995_2014-06-15_12-31-26_094959634447_rgbf000150-resize_1/002995_2014-06-15_12-31-26_094959634447_rgbf000150-resize_1-target.png,250,3.8360000000000003,3,3051,251,feet,jsons/v1_VE250_randls_55.json,526679,1289361,35,Man
57,138760,DepthScenes,duration_manipulation_targetAtFixation,jsons/v1_VE250_randls_55.json,http://54.235.29.9/FacialAge/BNav_EC2/DepthDuration/v2_depth_duration_MTurk/v2_DepthDuration_HTML.html#16,16,1680,907,1680,1050,8-20-2022,8-11-7,58,depth_duration_stimuli/003492_2014-05-21_15-50-55_094959634447_rgbf000828-resize_1/003492_2014-05-21_15-50-55_094959634447_rgbf000828-resize_1-target.png,250,4.06875,3,4318,248,feet,jsons/v1_VE250_randls_55.json,526679,1289361,35,Man
58,138760,DepthScenes,duration_manipulation_targetAtFixation,jsons/v1_VE250_randls_55.json,http://54.235.29.9/FacialAge/BNav_EC2/DepthDuration/v2_depth_duration_MTurk/v2_DepthDuration_HTML.html#16,16,1680,907,1680,1050,8-20-2022,8-11-7,59,depth_duration_stimuli/002568_2014-06-24_13-59-21_094959634447_rgbf000062-resize_4/002568_2014-06-24_13-59-21_094959634447_rgbf000062-resize_4-target.png,250,3.015,3,1809,246,feet,jsons/v1_VE250_randls_55.json,526679,1289361,35,Man
59,138760,DepthScenes,duration_manipulation_targetAtFixation,jsons/v1_VE250_randls_55.json,http://54.235.29.9/FacialAge/BNav_EC2/DepthDuration/v2_depth_duration_MTurk/v2_DepthDuration_HTML.html#16,16,1680,907,1680,1050,8-20-2022,8-11-7,60,depth_duration_stimuli/000486_2014-06-09_20-47-20_260595134347_rgbf000143-resize_2/000486_2014-06-09_20-47-20_260595134347_rgbf000143-resize_2-target.png,250,4.8325,3,4086,247,feet,jsons/v1_VE250_randls_55.json,526679,1289361,35,Man
60,138760,DepthScenes,duration_manipulation_targetAtFixation,jsons/v1_VE250_randls_55.json,http://54.235.29.9/FacialAge/BNav_EC2/DepthDuration/v2_depth_duration_MTurk/v2_DepthDuration_HTML.html#16,16,1680,907,1680,1050,8-20-2022,8-11-7,61,depth_duration_stimuli/003083_2014-06-15_15-21-03_094959634447_rgbf000063-resize_1/003083_2014-06-15_15-21-03_094959634447_rgbf000063-resize_1-target.png,250,4.1405,4,2860,251,feet,jsons/v1_VE250_randls_55.json,526679,1289361,35,Man
61,138760,DepthScenes,duration_manipulation_targetAtFixation,jsons/v1_VE250_randls_55.json,http://54.235.29.9/FacialAge/BNav_EC2/DepthDuration/v2_depth_duration_MTurk/v2_DepthDuration_HTML.html#16,16,1680,907,1680,1050,8-20-2022,8-11-7,62,depth_duration_stimuli/001555_2014-06-20_17-12-10_260595134347_rgbf000065-resize_4/001555_2014-06-20_17-12-10_260595134347_rgbf000065-resize_4-target.png,250,1.633,1,1777,249,feet,jsons/v1_VE250_randls_55.json,526679,1289361,35,Man
62,138760,DepthScenes,duration_manipulation_targetAtFixation,jsons/v1_VE250_randls_55.json,http://54.235.29.9/FacialAge/BNav_EC2/DepthDuration/v2_depth_duration_MTurk/v2_DepthDuration_HTML.html#16,16,1680,907,1680,1050,8-20-2022,8-11-7,63,depth_duration_stimuli/000103_2014-05-14_22-01-17_260595134347_rgbf000152-resize_5/000103_2014-05-14_22-01-17_260595134347_rgbf000152-resize_5-target.png,250,1.993,2,1827,251,feet,jsons/v1_VE250_randls_55.json,526679,1289361,35,Man
63,138760,DepthScenes,duration_manipulation_targetAtFixation,jsons/v1_VE250_randls_55.json,http://54.235.29.9/FacialAge/BNav_EC2/DepthDuration/v2_depth_duration_MTurk/v2_DepthDuration_HTML.html#16,16,1680,907,1680,1050,8-20-2022,8-11-7,64,depth_duration_stimuli/001175_2014-06-17_15-45-55_260595134347_rgbf000129-resize_4/001175_2014-06-17_15-45-55_260595134347_rgbf000129-resize_4-target.png,250,4.255,5,2506,252,feet,jsons/v1_VE250_randls_55.json,526679,1289361,35,Man
64,138760,DepthScenes,duration_manipulation_targetAtFixation,jsons/v1_VE250_randls_55.json,http://54.235.29.9/FacialAge/BNav_EC2/DepthDuration/v2_depth_duration_MTurk/v2_DepthDuration_HTML.html#16,16,1680,907,1680,1050,8-20-2022,8-11-7,65,depth_duration_stimuli/003490_2014-05-21_15-50-11_094959634447_rgbf000101-resize_3/003490_2014-05-21_15-50-11_094959634447_rgbf000101-resize_3-target.png,250,3.6445,5,2205,248,feet,jsons/v1_VE250_randls_55.json,526679,1289361,35,Man
65,138760,DepthScenes,duration_manipulation_targetAtFixation,jsons/v1_VE250_randls_55.json,http://54.235.29.9/FacialAge/BNav_EC2/DepthDuration/v2_depth_duration_MTurk/v2_DepthDuration_HTML.html#16,16,1680,907,1680,1050,8-20-2022,8-11-7,66,depth_duration_stimuli/001222_2014-06-17_16-24-06_260595134347_rgbf000073-resize_0/001222_2014-06-17_16-24-06_260595134347_rgbf000073-resize-original.jpg,250,1.4385,0,2938,264,feet,jsons/v1_VE250_randls_55.json,526679,1289361,35,Man
66,138760,DepthScenes,duration_manipulation_targetAtFixation,jsons/v1_VE250_randls_55.json,http://54.235.29.9/FacialAge/BNav_EC2/DepthDuration/v2_depth_duration_MTurk/v2_DepthDuration_HTML.html#16,16,1680,907,1680,1050,8-20-2022,8-11-7,67,depth_duration_stimuli/002445_2014-06-28_20-32-16_260595134347_rgbf000029-resize_4/002445_2014-06-28_20-32-16_260595134347_rgbf000029-resize_4-target.png,250,2.5315,1,1575,237,feet,jsons/v1_VE250_randls_55.json,526679,1289361,35,Man
67,138760,DepthScenes,duration_manipulation_targetAtFixation,jsons/v1_VE250_randls_55.json,http://54.235.29.9/FacialAge/BNav_EC2/DepthDuration/v2_depth_duration_MTurk/v2_DepthDuration_HTML.html#16,16,1680,907,1680,1050,8-20-2022,8-11-7,68,depth_duration_stimuli/000780_2014-06-08_22-28-29_260595134347_rgbf000126-resize_1/000780_2014-06-08_22-28-29_260595134347_rgbf000126-resize_1-target.png,250,3.3825,4,2827,259,feet,jsons/v1_VE250_randls_55.json,526679,1289361,35,Man
68,138760,DepthScenes,duration_manipulation_targetAtFixation,jsons/v1_VE250_randls_55.json,http://54.235.29.9/FacialAge/BNav_EC2/DepthDuration/v2_depth_duration_MTurk/v2_DepthDuration_HTML.html#16,16,1680,907,1680,1050,8-20-2022,8-11-7,69,depth_duration_stimuli/001244_2014-06-17_16-47-45_260595134347_rgbf000030-resize_4/001244_2014-06-17_16-47-45_260595134347_rgbf000030-resize_4-target.png,250,2.0425,2,2262,248,feet,jsons/v1_VE250_randls_55.json,526679,1289361,35,Man
69,138760,DepthScenes,duration_manipulation_targetAtFixation,jsons/v1_VE250_randls_55.json,http://54.235.29.9/FacialAge/BNav_EC2/DepthDuration/v2_depth_duration_MTurk/v2_DepthDuration_HTML.html#16,16,1680,907,1680,1050,8-20-2022,8-11-7,70,depth_duration_stimuli/003495_2014-05-21_16-01-51_094959634447_rgbf000100-resize_3/003495_2014-05-21_16-01-51_094959634447_rgbf000100-resize_3-target.png,250,1.6255,1,1939,260,feet,jsons/v1_VE250_randls_55.json,526679,1289361,35,Man
70,138760,DepthScenes,duration_manipulation_targetAtFixation,jsons/v1_VE250_randls_55.json,http://54.235.29.9/FacialAge/BNav_EC2/DepthDuration/v2_depth_duration_MTurk/v2_DepthDuration_HTML.html#16,16,1680,907,1680,1050,8-20-2022,8-11-7,71,depth_duration_stimuli/002272_2014-06-28_18-53-56_260595134347_rgbf000067-resize_2/002272_2014-06-28_18-53-56_260595134347_rgbf000067-resize_2-target.png,250,1.138,1,1604,254,feet,jsons/v1_VE250_randls_55.json,526679,1289361,35,Man
71,138760,DepthScenes,duration_manipulation_targetAtFixation,jsons/v1_VE250_randls_55.json,http://54.235.29.9/FacialAge/BNav_EC2/DepthDuration/v2_depth_duration_MTurk/v2_DepthDuration_HTML.html#16,16,1680,907,1680,1050,8-20-2022,8-11-7,72,depth_duration_stimuli/001571_2014-06-20_17-21-32_260595134347_rgbf000089-resize_1/001571_2014-06-20_17-21-32_260595134347_rgbf000089-resize_1-target.png,250,1.86,1,1888,249,feet,jsons/v1_VE250_randls_55.json,526679,1289361,35,Man
72,138760,DepthScenes,duration_manipulation_targetAtFixation,jsons/v1_VE250_randls_55.json,http://54.235.29.9/FacialAge/BNav_EC2/DepthDuration/v2_depth_duration_MTurk/v2_DepthDuration_HTML.html#16,16,1680,907,1680,1050,8-20-2022,8-11-7,73,depth_duration_stimuli/000493_2014-06-09_21-01-18_260595134347_rgbf000196-resize_3/000493_2014-06-09_21-01-18_260595134347_rgbf000196-resize_3-target.png,250,3.44,2,1691,251,feet,jsons/v1_VE250_randls_55.json,526679,1289361,35,Man
73,138760,DepthScenes,duration_manipulation_targetAtFixation,jsons/v1_VE250_randls_55.json,http://54.235.29.9/FacialAge/BNav_EC2/DepthDuration/v2_depth_duration_MTurk/v2_DepthDuration_HTML.html#16,16,1680,907,1680,1050,8-20-2022,8-11-7,74,depth_duration_stimuli/000191_2014-05-12_17-07-38_260595134347_rgbf000199-resize_0/000191_2014-05-12_17-07-38_260595134347_rgbf000199-resize_0-target.png,250,3.7995,6,2663,248,feet,jsons/v1_VE250_randls_55.json,526679,1289361,35,Man
74,138760,DepthScenes,duration_manipulation_targetAtFixation,jsons/v1_VE250_randls_55.json,http://54.235.29.9/FacialAge/BNav_EC2/DepthDuration/v2_depth_duration_MTurk/v2_DepthDuration_HTML.html#16,16,1680,907,1680,1050,8-20-2022,8-11-7,75,depth_duration_stimuli/002788_2014-06-22_19-36-03_094959634447_rgbf000088-resize_2/002788_2014-06-22_19-36-03_094959634447_rgbf000088-resize_2-target.png,250,1.6465,3,1648,246,feet,jsons/v1_VE250_randls_55.json,526679,1289361,35,Man
75,138760,DepthScenes,duration_manipulation_targetAtFixation,jsons/v1_VE250_randls_55.json,http://54.235.29.9/FacialAge/BNav_EC2/DepthDuration/v2_depth_duration_MTurk/v2_DepthDuration_HTML.html#16,16,1680,907,1680,1050,8-20-2022,8-11-7,76,depth_duration_stimuli/000749_2014-06-08_21-55-06_260595134347_rgbf000070-resize_2/000749_2014-06-08_21-55-06_260595134347_rgbf000070-resize_2-target.png,250,2.331,3,1835,250,feet,jsons/v1_VE250_randls_55.json,526679,1289361,35,Man
76,138760,DepthScenes,duration_manipulation_targetAtFixation,jsons/v1_VE250_randls_55.json,http://54.235.29.9/FacialAge/BNav_EC2/DepthDuration/v2_depth_duration_MTurk/v2_DepthDuration_HTML.html#16,16,1680,907,1680,1050,8-20-2022,8-11-7,77,depth_duration_stimuli/000009_2014-05-26_14-32-05_260595134347_rgbf000034-resize_3/000009_2014-05-26_14-32-05_260595134347_rgbf000034-resize_3-target.png,250,3.8715,6,3453,247,feet,jsons/v1_VE250_randls_55.json,526679,1289361,35,Man
77,138760,DepthScenes,duration_manipulation_targetAtFixation,jsons/v1_VE250_randls_55.json,http://54.235.29.9/FacialAge/BNav_EC2/DepthDuration/v2_depth_duration_MTurk/v2_DepthDuration_HTML.html#16,16,1680,907,1680,1050,8-20-2022,8-11-7,78,depth_duration_stimuli/001828_2014-06-26_21-40-03_260595134347_rgbf000024-resize_0/001828_2014-06-26_21-40-03_260595134347_rgbf000024-resize_0-target.png,250,4.8260000000000005,5,3110,248,feet,jsons/v1_VE250_randls_55.json,526679,1289361,35,Man
78,138760,DepthScenes,duration_manipulation_targetAtFixation,jsons/v1_VE250_randls_55.json,http://54.235.29.9/FacialAge/BNav_EC2/DepthDuration/v2_depth_duration_MTurk/v2_DepthDuration_HTML.html#16,16,1680,907,1680,1050,8-20-2022,8-11-7,79,depth_duration_stimuli/003292_2014-05-14_21-53-49_094959634447_rgbf000100-resize_2/003292_2014-05-14_21-53-49_094959634447_rgbf000100-resize_2-target.png,250,3.4815,3,1756,249,feet,jsons/v1_VE250_randls_55.json,526679,1289361,35,Man
79,138760,DepthScenes,duration_manipulation_targetAtFixation,jsons/v1_VE250_randls_55.json,http://54.235.29.9/FacialAge/BNav_EC2/DepthDuration/v2_depth_duration_MTurk/v2_DepthDuration_HTML.html#16,16,1680,907,1680,1050,8-20-2022,8-11-7,80,depth_duration_stimuli/002639_2014-06-24_14-51-37_094959634447_rgbf000074-resize_4/002639_2014-06-24_14-51-37_094959634447_rgbf000074-resize_4-target.png,250,4.0375,4,2085,248,feet,jsons/v1_VE250_randls_55.json,526679,1289361,35,Man
80,138760,DepthScenes,duration_manipulation_targetAtFixation,jsons/v1_VE250_randls_55.json,http://54.235.29.9/FacialAge/BNav_EC2/DepthDuration/v2_depth_duration_MTurk/v2_DepthDuration_HTML.html#16,16,1680,907,1680,1050,8-20-2022,8-11-7,81,depth_duration_stimuli/002964_2014-06-08_17-46-11_094959634447_rgbf000091-resize_4/002964_2014-06-08_17-46-11_094959634447_rgbf000091-resize_4-target.png,250,1.6909999999999998,2,1613,251,feet,jsons/v1_VE250_randls_55.json,526679,1289361,35,Man
81,138760,DepthScenes,duration_manipulation_targetAtFixation,jsons/v1_VE250_randls_55.json,http://54.235.29.9/FacialAge/BNav_EC2/DepthDuration/v2_depth_duration_MTurk/v2_DepthDuration_HTML.html#16,16,1680,907,1680,1050,8-20-2022,8-11-7,82,depth_duration_stimuli/002136_2014-06-25_21-18-03_260595134347_rgbf000109-resize_3/002136_2014-06-25_21-18-03_260595134347_rgbf000109-resize_3-target.png,250,1.9569999999999999,2,1906,259,feet,jsons/v1_VE250_randls_55.json,526679,1289361,35,Man
82,138760,DepthScenes,duration_manipulation_targetAtFixation,jsons/v1_VE250_randls_55.json,http://54.235.29.9/FacialAge/BNav_EC2/DepthDuration/v2_depth_duration_MTurk/v2_DepthDuration_HTML.html#16,16,1680,907,1680,1050,8-20-2022,8-11-7,83,depth_duration_stimuli/002549_2014-06-24_13-41-39_094959634447_rgbf000022-resize_3/002549_2014-06-24_13-41-39_094959634447_rgbf000022-resize_3-target.png,250,1.476,1,2435,252,feet,jsons/v1_VE250_randls_55.json,526679,1289361,35,Man
83,138760,DepthScenes,duration_manipulation_targetAtFixation,jsons/v1_VE250_randls_55.json,http://54.235.29.9/FacialAge/BNav_EC2/DepthDuration/v2_depth_duration_MTurk/v2_DepthDuration_HTML.html#16,16,1680,907,1680,1050,8-20-2022,8-11-7,84,depth_duration_stimuli/002750_2014-06-22_19-08-03_094959634447_rgbf000094-resize_4/002750_2014-06-22_19-08-03_094959634447_rgbf000094-resize_4-target.png,250,2.354,3,2250,263,feet,jsons/v1_VE250_randls_55.json,526679,1289361,35,Man
84,138760,DepthScenes,duration_manipulation_targetAtFixation,jsons/v1_VE250_randls_55.json,http://54.235.29.9/FacialAge/BNav_EC2/DepthDuration/v2_depth_duration_MTurk/v2_DepthDuration_HTML.html#16,16,1680,907,1680,1050,8-20-2022,8-11-7,85,depth_duration_stimuli/000736_2014-06-08_18-24-15_260595134347_rgbf000206-resize_3/000736_2014-06-08_18-24-15_260595134347_rgbf000206-resize_3-target.png,250,3.515,3,1747,265,feet,jsons/v1_VE250_randls_55.json,526679,1289361,35,Man
85,138760,DepthScenes,duration_manipulation_targetAtFixation,jsons/v1_VE250_randls_55.json,http://54.235.29.9/FacialAge/BNav_EC2/DepthDuration/v2_depth_duration_MTurk/v2_DepthDuration_HTML.html#16,16,1680,907,1680,1050,8-20-2022,8-11-7,86,depth_duration_stimuli/000137_2014-05-20_17-04-49_260595134347_rgbf000120-resize_1/000137_2014-05-20_17-04-49_260595134347_rgbf000120-resize_1-target.png,250,3.786,4,2972,256,feet,jsons/v1_VE250_randls_55.json,526679,1289361,35,Man
86,138760,DepthScenes,duration_manipulation_targetAtFixation,jsons/v1_VE250_randls_55.json,http://54.235.29.9/FacialAge/BNav_EC2/DepthDuration/v2_depth_duration_MTurk/v2_DepthDuration_HTML.html#16,16,1680,907,1680,1050,8-20-2022,8-11-7,87,depth_duration_stimuli/001110_2014-06-15_17-25-28_260595134347_rgbf000150-resize_1/001110_2014-06-15_17-25-28_260595134347_rgbf000150-resize_1-target.png,250,1.7115,21,1670,250,feet,jsons/v1_VE250_randls_55.json,526679,1289361,35,Man
87,138760,DepthScenes,duration_manipulation_targetAtFixation,jsons/v1_VE250_randls_55.json,http://54.235.29.9/FacialAge/BNav_EC2/DepthDuration/v2_depth_duration_MTurk/v2_DepthDuration_HTML.html#16,16,1680,907,1680,1050,8-20-2022,8-11-7,88,depth_duration_stimuli/000927_2014-06-09_16-32-30_260595134347_rgbf000123-resize_3/000927_2014-06-09_16-32-30_260595134347_rgbf000123-resize_3-target.png,250,2.6785,1,3612,250,feet,jsons/v1_VE250_randls_55.json,526679,1289361,35,Man
88,138760,DepthScenes,duration_manipulation_targetAtFixation,jsons/v1_VE250_randls_55.json,http://54.235.29.9/FacialAge/BNav_EC2/DepthDuration/v2_depth_duration_MTurk/v2_DepthDuration_HTML.html#16,16,1680,907,1680,1050,8-20-2022,8-11-7,89,depth_duration_stimuli/000739_2014-06-08_18-45-58_260595134347_rgbf000068-resize_1/000739_2014-06-08_18-45-58_260595134347_rgbf000068-resize_1-target.png,250,3.534,2,2059,251,feet,jsons/v1_VE250_randls_55.json,526679,1289361,35,Man
89,138760,DepthScenes,duration_manipulation_targetAtFixation,jsons/v1_VE250_randls_55.json,http://54.235.29.9/FacialAge/BNav_EC2/DepthDuration/v2_depth_duration_MTurk/v2_DepthDuration_HTML.html#16,16,1680,907,1680,1050,8-20-2022,8-11-7,90,depth_duration_stimuli/000734_2014-06-08_17-39-11_260595134347_rgbf000128-resize_2/000734_2014-06-08_17-39-11_260595134347_rgbf000128-resize_2-target.png,250,4.098,3,5292,258,feet,jsons/v1_VE250_randls_55.json,526679,1289361,35,Man
90,138760,DepthScenes,duration_manipulation_targetAtFixation,jsons/v1_VE250_randls_55.json,http://54.235.29.9/FacialAge/BNav_EC2/DepthDuration/v2_depth_duration_MTurk/v2_DepthDuration_HTML.html#16,16,1680,907,1680,1050,8-20-2022,8-11-7,91,depth_duration_stimuli/001092_2014-06-15_17-34-58_260595134347_rgbf000171-resize_3/001092_2014-06-15_17-34-58_260595134347_rgbf000171-resize_3-target.png,250,2.6935,2,2803,251,feet,jsons/v1_VE250_randls_55.json,526679,1289361,35,Man
91,138760,DepthScenes,duration_manipulation_targetAtFixation,jsons/v1_VE250_randls_55.json,http://54.235.29.9/FacialAge/BNav_EC2/DepthDuration/v2_depth_duration_MTurk/v2_DepthDuration_HTML.html#16,16,1680,907,1680,1050,8-20-2022,8-11-7,92,depth_duration_stimuli/002545_2014-06-24_13-38-53_094959634447_rgbf000080-resize_4/002545_2014-06-24_13-38-53_094959634447_rgbf000080-resize_4-target.png,250,1.9205,2,5328,248,feet,jsons/v1_VE250_randls_55.json,526679,1289361,35,Man
92,138760,DepthScenes,duration_manipulation_targetAtFixation,jsons/v1_VE250_randls_55.json,http://54.235.29.9/FacialAge/BNav_EC2/DepthDuration/v2_depth_duration_MTurk/v2_DepthDuration_HTML.html#16,16,1680,907,1680,1050,8-20-2022,8-11-7,93,depth_duration_stimuli/001449_2014-06-19_17-01-27_260595134347_rgbf000116-resize_2/001449_2014-06-19_17-01-27_260595134347_rgbf000116-resize_2-target.png,250,3.452,2,5576,248,feet,jsons/v1_VE250_randls_55.json,526679,1289361,35,Man
93,138760,DepthScenes,duration_manipulation_targetAtFixation,jsons/v1_VE250_randls_55.json,http://54.235.29.9/FacialAge/BNav_EC2/DepthDuration/v2_depth_duration_MTurk/v2_DepthDuration_HTML.html#16,16,1680,907,1680,1050,8-20-2022,8-11-7,94,depth_duration_stimuli/001450_2014-06-19_17-02-03_260595134347_rgbf000203-resize_4/001450_2014-06-19_17-02-03_260595134347_rgbf000203-resize_4-target.png,250,4.0106666666667,3,3379,251,feet,jsons/v1_VE250_randls_55.json,526679,1289361,35,Man
94,138760,DepthScenes,duration_manipulation_targetAtFixation,jsons/v1_VE250_randls_55.json,http://54.235.29.9/FacialAge/BNav_EC2/DepthDuration/v2_depth_duration_MTurk/v2_DepthDuration_HTML.html#16,16,1680,907,1680,1050,8-20-2022,8-11-7,95,depth_duration_stimuli/001150_2014-06-17_15-27-34_260595134347_rgbf000108-resize_2/001150_2014-06-17_15-27-34_260595134347_rgbf000108-resize_2-target.png,250,4.0325,3,2531,249,feet,jsons/v1_VE250_randls_55.json,526679,1289361,35,Man
95,138760,DepthScenes,duration_manipulation_targetAtFixation,jsons/v1_VE250_randls_55.json,http://54.235.29.9/FacialAge/BNav_EC2/DepthDuration/v2_depth_duration_MTurk/v2_DepthDuration_HTML.html#16,16,1680,907,1680,1050,8-20-2022,8-11-7,96,depth_duration_stimuli/000665_2014-06-09_20-42-35_260595134347_rgbf000110-resize_1/000665_2014-06-09_20-42-35_260595134347_rgbf000110-resize_1-target.png,250,3.057,2,3619,265,feet,jsons/v1_VE250_randls_55.json,526679,1289361,35,Man
96,138760,DepthScenes,duration_manipulation_targetAtFixation,jsons/v1_VE250_randls_55.json,http://54.235.29.9/FacialAge/BNav_EC2/DepthDuration/v2_depth_duration_MTurk/v2_DepthDuration_HTML.html#16,16,1680,907,1680,1050,8-20-2022,8-11-7,97,depth_duration_stimuli/000906_2014-06-08_13-35-43_260595134347_rgbf000155-resize_1/000906_2014-06-08_13-35-43_260595134347_rgbf000155-resize_1-target.png,250,2.8489999999999998,4,1638,248,feet,jsons/v1_VE250_randls_55.json,526679,1289361,35,Man
97,138760,DepthScenes,duration_manipulation_targetAtFixation,jsons/v1_VE250_randls_55.json,http://54.235.29.9/FacialAge/BNav_EC2/DepthDuration/v2_depth_duration_MTurk/v2_DepthDuration_HTML.html#16,16,1680,907,1680,1050,8-20-2022,8-11-7,98,depth_duration_stimuli/002805_2014-06-22_19-54-03_094959634447_rgbf000079-resize_1/002805_2014-06-22_19-54-03_094959634447_rgbf000079-resize_1-target.png,250,3.1439999999999997,4,2471,248,feet,jsons/v1_VE250_randls_55.json,526679,1289361,35,Man
98,138760,DepthScenes,duration_manipulation_targetAtFixation,jsons/v1_VE250_randls_55.json,http://54.235.29.9/FacialAge/BNav_EC2/DepthDuration/v2_depth_duration_MTurk/v2_DepthDuration_HTML.html#16,16,1680,907,1680,1050,8-20-2022,8-11-7,99,depth_duration_stimuli/001540_2014-06-20_17-01-05_260595134347_rgbf000086-resize_2/001540_2014-06-20_17-01-05_260595134347_rgbf000086-resize-original.jpg,250,1.459,0,3371,250,feet,jsons/v1_VE250_randls_55.json,526679,1289361,35,Man
99,138760,DepthScenes,duration_manipulation_targetAtFixation,jsons/v1_VE250_randls_55.json,http://54.235.29.9/FacialAge/BNav_EC2/DepthDuration/v2_depth_duration_MTurk/v2_DepthDuration_HTML.html#16,16,1680,907,1680,1050,8-20-2022,8-11-7,100,depth_duration_stimuli/000469_2014-06-09_19-42-10_260595134347_rgbf000081-resize_1/000469_2014-06-09_19-42-10_260595134347_rgbf000081-resize_1-target.png,250,1.652,1,1835,250,feet,jsons/v1_VE250_randls_55.json,526679,1289361,35,Man
100,138760,DepthScenes,duration_manipulation_targetAtFixation,jsons/v1_VE250_randls_55.json,http://54.235.29.9/FacialAge/BNav_EC2/DepthDuration/v2_depth_duration_MTurk/v2_DepthDuration_HTML.html#16,16,1680,907,1680,1050,8-20-2022,8-11-7,101,depth_duration_stimuli/000483_2014-06-09_20-41-45_260595134347_rgbf000116-resize_4/000483_2014-06-09_20-41-45_260595134347_rgbf000116-resize_4-target.png,250,1.337,1,1635,248,feet,jsons/v1_VE250_randls_55.json,526679,1289361,35,Man
101,138760,DepthScenes,duration_manipulation_targetAtFixation,jsons/v1_VE250_randls_55.json,http://54.235.29.9/FacialAge/BNav_EC2/DepthDuration/v2_depth_duration_MTurk/v2_DepthDuration_HTML.html#16,16,1680,907,1680,1050,8-20-2022,8-11-7,102,depth_duration_stimuli/002118_2014-06-25_20-32-08_260595134347_rgbf000078-resize_1/002118_2014-06-25_20-32-08_260595134347_rgbf000078-resize_1-target.png,250,2.6460000000000004,4,2155,253,feet,jsons/v1_VE250_randls_55.json,526679,1289361,35,Man
102,138760,DepthScenes,duration_manipulation_targetAtFixation,jsons/v1_VE250_randls_55.json,http://54.235.29.9/FacialAge/BNav_EC2/DepthDuration/v2_depth_duration_MTurk/v2_DepthDuration_HTML.html#16,16,1680,907,1680,1050,8-20-2022,8-11-7,103,depth_duration_stimuli/001516_2014-06-20_16-25-09_260595134347_rgbf000076-resize_2/001516_2014-06-20_16-25-09_260595134347_rgbf000076-resize_2-target.png,250,1.7445,3,1819,250,feet,jsons/v1_VE250_randls_55.json,526679,1289361,35,Man
103,138760,DepthScenes,duration_manipulation_targetAtFixation,jsons/v1_VE250_randls_55.json,http://54.235.29.9/FacialAge/BNav_EC2/DepthDuration/v2_depth_duration_MTurk/v2_DepthDuration_HTML.html#16,16,1680,907,1680,1050,8-20-2022,8-11-7,104,depth_duration_stimuli/000773_2014-06-08_22-24-54_260595134347_rgbf000093-resize_1/000773_2014-06-08_22-24-54_260595134347_rgbf000093-resize_1-target.png,250,4.973,6,2734,246,feet,jsons/v1_VE250_randls_55.json,526679,1289361,35,Man
104,138760,DepthScenes,duration_manipulation_targetAtFixation,jsons/v1_VE250_randls_55.json,http://54.235.29.9/FacialAge/BNav_EC2/DepthDuration/v2_depth_duration_MTurk/v2_DepthDuration_HTML.html#16,16,1680,907,1680,1050,8-20-2022,8-11-7,105,depth_duration_stimuli/002414_2014-06-28_20-24-58_260595134347_rgbf000067-resize_4/002414_2014-06-28_20-24-58_260595134347_rgbf000067-resize_4-target.png,250,4.363,7,2356,250,feet,jsons/v1_VE250_randls_55.json,526679,1289361,35,Man
105,138760,DepthScenes,duration_manipulation_targetAtFixation,jsons/v1_VE250_randls_55.json,http://54.235.29.9/FacialAge/BNav_EC2/DepthDuration/v2_depth_duration_MTurk/v2_DepthDuration_HTML.html#16,16,1680,907,1680,1050,8-20-2022,8-11-7,106,depth_duration_stimuli/002725_2014-06-22_11-47-51_094959634447_rgbf000070-resize_1/002725_2014-06-22_11-47-51_094959634447_rgbf000070-resize_1-target.png,250,2.195,3,1763,258,feet,jsons/v1_VE250_randls_55.json,526679,1289361,35,Man
106,138760,DepthScenes,duration_manipulation_targetAtFixation,jsons/v1_VE250_randls_55.json,http://54.235.29.9/FacialAge/BNav_EC2/DepthDuration/v2_depth_duration_MTurk/v2_DepthDuration_HTML.html#16,16,1680,907,1680,1050,8-20-2022,8-11-7,107,depth_duration_stimuli/002344_2014-06-28_20-06-29_260595134347_rgbf000030-resize_1/002344_2014-06-28_20-06-29_260595134347_rgbf000030-resize_1-target.png,250,1.5795,2,3697,239,feet,jsons/v1_VE250_randls_55.json,526679,1289361,35,Man
107,138760,DepthScenes,duration_manipulation_targetAtFixation,jsons/v1_VE250_randls_55.json,http://54.235.29.9/FacialAge/BNav_EC2/DepthDuration/v2_depth_duration_MTurk/v2_DepthDuration_HTML.html#16,16,1680,907,1680,1050,8-20-2022,8-11-7,108,depth_duration_stimuli/000470_2014-06-09_19-42-40_260595134347_rgbf000094-resize_1/000470_2014-06-09_19-42-40_260595134347_rgbf000094-resize_1-target.png,250,1.831,3,2179,264,feet,jsons/v1_VE250_randls_55.json,526679,1289361,35,Man
108,138760,DepthScenes,duration_manipulation_targetAtFixation,jsons/v1_VE250_randls_55.json,http://54.235.29.9/FacialAge/BNav_EC2/DepthDuration/v2_depth_duration_MTurk/v2_DepthDuration_HTML.html#16,16,1680,907,1680,1050,8-20-2022,8-11-7,109,depth_duration_stimuli/000109_2014-05-14_23-41-52_260595134347_rgbf000035-resize_9/000109_2014-05-14_23-41-52_260595134347_rgbf000035-resize_9-target.png,250,1.3545,1,2004,249,feet,jsons/v1_VE250_randls_55.json,526679,1289361,35,Man
109,138760,DepthScenes,duration_manipulation_targetAtFixation,jsons/v1_VE250_randls_55.json,http://54.235.29.9/FacialAge/BNav_EC2/DepthDuration/v2_depth_duration_MTurk/v2_DepthDuration_HTML.html#16,16,1680,907,1680,1050,8-20-2022,8-11-7,110,depth_duration_stimuli/002570_2014-06-24_13-59-54_094959634447_rgbf000059-resize_0/002570_2014-06-24_13-59-54_094959634447_rgbf000059-resize_0-target.png,250,4.037,5,1997,244,feet,jsons/v1_VE250_randls_55.json,526679,1289361,35,Man
110,138760,DepthScenes,duration_manipulation_targetAtFixation,jsons/v1_VE250_randls_55.json,http://54.235.29.9/FacialAge/BNav_EC2/DepthDuration/v2_depth_duration_MTurk/v2_DepthDuration_HTML.html#16,16,1680,907,1680,1050,8-20-2022,8-11-7,111,depth_duration_stimuli/002467_2014-06-28_20-38-07_260595134347_rgbf000026-resize_2/002467_2014-06-28_20-38-07_260595134347_rgbf000026-resize_2-target.png,250,4.742,5,5100,264,feet,jsons/v1_VE250_randls_55.json,526679,1289361,35,Man
111,138760,DepthScenes,duration_manipulation_targetAtFixation,jsons/v1_VE250_randls_55.json,http://54.235.29.9/FacialAge/BNav_EC2/DepthDuration/v2_depth_duration_MTurk/v2_DepthDuration_HTML.html#16,16,1680,907,1680,1050,8-20-2022,8-11-7,112,depth_duration_stimuli/002784_2014-06-22_19-26-30_094959634447_rgbf000083-resize_3/002784_2014-06-22_19-26-30_094959634447_rgbf000083-resize_3-target.png,250,1.8046666666667,2,1769,247,feet,jsons/v1_VE250_randls_55.json,526679,1289361,35,Man
112,138760,DepthScenes,duration_manipulation_targetAtFixation,jsons/v1_VE250_randls_55.json,http://54.235.29.9/FacialAge/BNav_EC2/DepthDuration/v2_depth_duration_MTurk/v2_DepthDuration_HTML.html#16,16,1680,907,1680,1050,8-20-2022,8-11-7,113,depth_duration_stimuli/001100_2014-06-15_17-46-26_260595134347_rgbf000225-resize_2/001100_2014-06-15_17-46-26_260595134347_rgbf000225-resize_2-target.png,250,2.24,2,2840,247,feet,jsons/v1_VE250_randls_55.json,526679,1289361,35,Man
113,138760,DepthScenes,duration_manipulation_targetAtFixation,jsons/v1_VE250_randls_55.json,http://54.235.29.9/FacialAge/BNav_EC2/DepthDuration/v2_depth_duration_MTurk/v2_DepthDuration_HTML.html#16,16,1680,907,1680,1050,8-20-2022,8-11-7,114,depth_duration_stimuli/000368_2014-06-09_15-53-01_260595134347_rgbf000155-resize_2/000368_2014-06-09_15-53-01_260595134347_rgbf000155-resize_2-target.png,250,2.4859999999999998,2,1732,255,feet,jsons/v1_VE250_randls_55.json,526679,1289361,35,Man
114,138760,DepthScenes,duration_manipulation_targetAtFixation,jsons/v1_VE250_randls_55.json,http://54.235.29.9/FacialAge/BNav_EC2/DepthDuration/v2_depth_duration_MTurk/v2_DepthDuration_HTML.html#16,16,1680,907,1680,1050,8-20-2022,8-11-7,115,depth_duration_stimuli/002678_2014-06-13_16-15-32_094959634447_rgbf000151-resize_6/002678_2014-06-13_16-15-32_094959634447_rgbf000151-resize_6-target.png,250,2.1830000000000003,3,4003,251,feet,jsons/v1_VE250_randls_55.json,526679,1289361,35,Man
115,138760,DepthScenes,duration_manipulation_targetAtFixation,jsons/v1_VE250_randls_55.json,http://54.235.29.9/FacialAge/BNav_EC2/DepthDuration/v2_depth_duration_MTurk/v2_DepthDuration_HTML.html#16,16,1680,907,1680,1050,8-20-2022,8-11-7,116,depth_duration_stimuli/001170_2014-06-17_15-43-44_260595134347_rgbf000096-resize_6/001170_2014-06-17_15-43-44_260595134347_rgbf000096-resize-original.jpg,250,1.1909999999999998,0,2587,251,feet,jsons/v1_VE250_randls_55.json,526679,1289361,35,Man
116,138760,DepthScenes,duration_manipulation_targetAtFixation,jsons/v1_VE250_randls_55.json,http://54.235.29.9/FacialAge/BNav_EC2/DepthDuration/v2_depth_duration_MTurk/v2_DepthDuration_HTML.html#16,16,1680,907,1680,1050,8-20-2022,8-11-7,117,depth_duration_stimuli/002039_2014-06-24_20-22-38_260595134347_rgbf000084-resize_1/002039_2014-06-24_20-22-38_260595134347_rgbf000084-resize_1-target.png,250,4.408,4,2046,251,feet,jsons/v1_VE250_randls_55.json,526679,1289361,35,Man
117,138760,DepthScenes,duration_manipulation_targetAtFixation,jsons/v1_VE250_randls_55.json,http://54.235.29.9/FacialAge/BNav_EC2/DepthDuration/v2_depth_duration_MTurk/v2_DepthDuration_HTML.html#16,16,1680,907,1680,1050,8-20-2022,8-11-7,118,depth_duration_stimuli/002103_2014-06-25_20-00-40_260595134347_rgbf000049-resize_0/002103_2014-06-25_20-00-40_260595134347_rgbf000049-resize_0-target.png,250,4.105,6,2155,251,feet,jsons/v1_VE250_randls_55.json,526679,1289361,35,Man
118,138760,DepthScenes,duration_manipulation_targetAtFixation,jsons/v1_VE250_randls_55.json,http://54.235.29.9/FacialAge/BNav_EC2/DepthDuration/v2_depth_duration_MTurk/v2_DepthDuration_HTML.html#16,16,1680,907,1680,1050,8-20-2022,8-11-7,119,depth_duration_stimuli/000788_2014-06-08_22-34-36_260595134347_rgbf000131-resize_1/000788_2014-06-08_22-34-36_260595134347_rgbf000131-resize_1-target.png,250,3.359,4,3691,253,feet,jsons/v1_VE250_randls_55.json,526679,1289361,35,Man
119,138760,DepthScenes,duration_manipulation_targetAtFixation,jsons/v1_VE250_randls_55.json,http://54.235.29.9/FacialAge/BNav_EC2/DepthDuration/v2_depth_duration_MTurk/v2_DepthDuration_HTML.html#16,16,1680,907,1680,1050,8-20-2022,8-11-7,120,depth_duration_stimuli/001235_2014-06-17_16-37-36_260595134347_rgbf000084-resize_4/001235_2014-06-17_16-37-36_260595134347_rgbf000084-resize_4-target.png,250,3.6605,3,1704,247,feet,jsons/v1_VE250_randls_55.json,526679,1289361,35,Man
120,138760,DepthScenes,duration_manipulation_targetAtFixation,jsons/v1_VE250_randls_55.json,http://54.235.29.9/FacialAge/BNav_EC2/DepthDuration/v2_depth_duration_MTurk/v2_DepthDuration_HTML.html#16,16,1680,907,1680,1050,8-20-2022,8-11-7,121,depth_duration_stimuli/000506_2014-06-08_23-21-00_260595134347_rgbf000070-resize_7/000506_2014-06-08_23-21-00_260595134347_rgbf000070-resize_7-target.png,250,4.0585,5,1765,253,feet,jsons/v1_VE250_randls_55.json,526679,1289361,35,Man
121,138760,DepthScenes,duration_manipulation_targetAtFixation,jsons/v1_VE250_randls_55.json,http://54.235.29.9/FacialAge/BNav_EC2/DepthDuration/v2_depth_duration_MTurk/v2_DepthDuration_HTML.html#16,16,1680,907,1680,1050,8-20-2022,8-11-7,122,depth_duration_stimuli/003079_2014-06-15_15-18-20_094959634447_rgbf000152-resize_8/003079_2014-06-15_15-18-20_094959634447_rgbf000152-resize_8-target.png,250,2.8775,5,2941,250,feet,jsons/v1_VE250_randls_55.json,526679,1289361,35,Man
122,138760,DepthScenes,duration_manipulation_targetAtFixation,jsons/v1_VE250_randls_55.json,http://54.235.29.9/FacialAge/BNav_EC2/DepthDuration/v2_depth_duration_MTurk/v2_DepthDuration_HTML.html#16,16,1680,907,1680,1050,8-20-2022,8-11-7,123,depth_duration_stimuli/002153_2014-06-25_21-27-18_260595134347_rgbf000038-resize_5/002153_2014-06-25_21-27-18_260595134347_rgbf000038-resize_5-target.png,250,2.505,2,1643,260,feet,jsons/v1_VE250_randls_55.json,526679,1289361,35,Man
123,138760,DepthScenes,duration_manipulation_targetAtFixation,jsons/v1_VE250_randls_55.json,http://54.235.29.9/FacialAge/BNav_EC2/DepthDuration/v2_depth_duration_MTurk/v2_DepthDuration_HTML.html#16,16,1680,907,1680,1050,8-20-2022,8-11-7,124,depth_duration_stimuli/002660_2014-06-13_15-44-18_094959634447_rgbf001878-resize_2/002660_2014-06-13_15-44-18_094959634447_rgbf001878-resize_2-target.png,250,3.576,4,1579,251,feet,jsons/v1_VE250_randls_55.json,526679,1289361,35,Man
124,138760,DepthScenes,duration_manipulation_targetAtFixation,jsons/v1_VE250_randls_55.json,http://54.235.29.9/FacialAge/BNav_EC2/DepthDuration/v2_depth_duration_MTurk/v2_DepthDuration_HTML.html#16,16,1680,907,1680,1050,8-20-2022,8-11-7,125,depth_duration_stimuli/000642_2014-06-08_16-59-25_260595134347_rgbf000098-resize_2/000642_2014-06-08_16-59-25_260595134347_rgbf000098-resize_2-target.png,250,2.8815,3,2019,256,feet,jsons/v1_VE250_randls_55.json,526679,1289361,35,Man
125,138760,DepthScenes,duration_manipulation_targetAtFixation,jsons/v1_VE250_randls_55.json,http://54.235.29.9/FacialAge/BNav_EC2/DepthDuration/v2_depth_duration_MTurk/v2_DepthDuration_HTML.html#16,16,1680,907,1680,1050,8-20-2022,8-11-7,126,depth_duration_stimuli/002425_2014-06-28_20-27-29_260595134347_rgbf000031-resize_8/002425_2014-06-28_20-27-29_260595134347_rgbf000031-resize_8-target.png,250,3.8960000000000004,4,6268,257,feet,jsons/v1_VE250_randls_55.json,526679,1289361,35,Man
126,138760,DepthScenes,duration_manipulation_targetAtFixation,jsons/v1_VE250_randls_55.json,http://54.235.29.9/FacialAge/BNav_EC2/DepthDuration/v2_depth_duration_MTurk/v2_DepthDuration_HTML.html#16,16,1680,907,1680,1050,8-20-2022,8-11-7,127,depth_duration_stimuli/001806_2014-06-26_20-50-20_260595134347_rgbf000091-resize_1/001806_2014-06-26_20-50-20_260595134347_rgbf000091-resize_1-target.png,250,2.7305,3,8515,252,feet,jsons/v1_VE250_randls_55.json,526679,1289361,35,Man
127,138760,DepthScenes,duration_manipulation_targetAtFixation,jsons/v1_VE250_randls_55.json,http://54.235.29.9/FacialAge/BNav_EC2/DepthDuration/v2_depth_duration_MTurk/v2_DepthDuration_HTML.html#16,16,1680,907,1680,1050,8-20-2022,8-11-7,128,depth_duration_stimuli/001617_2014-06-20_11-35-32_260595134347_rgbf000066-resize_1/001617_2014-06-20_11-35-32_260595134347_rgbf000066-resize_1-target.png,250,3.7910000000000004,4,2554,247,feet,jsons/v1_VE250_randls_55.json,526679,1289361,35,Man
128,138760,DepthScenes,duration_manipulation_targetAtFixation,jsons/v1_VE250_randls_55.json,http://54.235.29.9/FacialAge/BNav_EC2/DepthDuration/v2_depth_duration_MTurk/v2_DepthDuration_HTML.html#16,16,1680,907,1680,1050,8-20-2022,8-11-7,129,depth_duration_stimuli/001810_2014-06-26_20-51-35_260595134347_rgbf000040-resize_3/001810_2014-06-26_20-51-35_260595134347_rgbf000040-resize_3-target.png,250,2.2525,2,1900,264,feet,jsons/v1_VE250_randls_55.json,526679,1289361,35,Man
129,138760,DepthScenes,duration_manipulation_targetAtFixation,jsons/v1_VE250_randls_55.json,http://54.235.29.9/FacialAge/BNav_EC2/DepthDuration/v2_depth_duration_MTurk/v2_DepthDuration_HTML.html#16,16,1680,907,1680,1050,8-20-2022,8-11-7,130,depth_duration_stimuli/003010_2014-06-15_12-54-35_094959634447_rgbf000112-resize_0/003010_2014-06-15_12-54-35_094959634447_rgbf000112-resize_0-target.png,250,3.1185,5,2609,247,feet,jsons/v1_VE250_randls_55.json,526679,1289361,35,Man
130,138760,DepthScenes,duration_manipulation_targetAtFixation,jsons/v1_VE250_randls_55.json,http://54.235.29.9/FacialAge/BNav_EC2/DepthDuration/v2_depth_duration_MTurk/v2_DepthDuration_HTML.html#16,16,1680,907,1680,1050,8-20-2022,8-11-7,131,depth_duration_stimuli/000878_2014-06-08_22-52-45_260595134347_rgbf000045-resize_2/000878_2014-06-08_22-52-45_260595134347_rgbf000045-resize_2-target.png,250,2.092,3,2034,251,feet,jsons/v1_VE250_randls_55.json,526679,1289361,35,Man
131,138760,DepthScenes,duration_manipulation_targetAtFixation,jsons/v1_VE250_randls_55.json,http://54.235.29.9/FacialAge/BNav_EC2/DepthDuration/v2_depth_duration_MTurk/v2_DepthDuration_HTML.html#16,16,1680,907,1680,1050,8-20-2022,8-11-7,132,depth_duration_stimuli/002953_2014-06-08_17-32-18_094959634447_rgbf000059-resize_5/002953_2014-06-08_17-32-18_094959634447_rgbf000059-resize_5-target.png,250,1.551,1,1876,251,feet,jsons/v1_VE250_randls_55.json,526679,1289361,35,Man
132,138760,DepthScenes,duration_manipulation_targetAtFixation,jsons/v1_VE250_randls_55.json,http://54.235.29.9/FacialAge/BNav_EC2/DepthDuration/v2_depth_duration_MTurk/v2_DepthDuration_HTML.html#16,16,1680,907,1680,1050,8-20-2022,8-11-7,133,depth_duration_stimuli/001011_2014-06-08_23-18-54_260595134347_rgbf000044-resize_4/001011_2014-06-08_23-18-54_260595134347_rgbf000044-resize_4-target.png,250,2.4730000000000003,3,1834,250,feet,jsons/v1_VE250_randls_55.json,526679,1289361,35,Man
133,138760,DepthScenes,duration_manipulation_targetAtFixation,jsons/v1_VE250_randls_55.json,http://54.235.29.9/FacialAge/BNav_EC2/DepthDuration/v2_depth_duration_MTurk/v2_DepthDuration_HTML.html#16,16,1680,907,1680,1050,8-20-2022,8-11-7,134,depth_duration_stimuli/002875_2014-06-01_15-19-00_094959634447_rgbf000151-resize_1/002875_2014-06-01_15-19-00_094959634447_rgbf000151-resize_1-target.png,250,1.9675,3,4443,250,feet,jsons/v1_VE250_randls_55.json,526679,1289361,35,Man
134,138760,DepthScenes,duration_manipulation_targetAtFixation,jsons/v1_VE250_randls_55.json,http://54.235.29.9/FacialAge/BNav_EC2/DepthDuration/v2_depth_duration_MTurk/v2_DepthDuration_HTML.html#16,16,1680,907,1680,1050,8-20-2022,8-11-7,135,depth_duration_stimuli/002072_2014-06-24_21-48-06_260595134347_rgbf000115-resize_0/002072_2014-06-24_21-48-06_260595134347_rgbf000115-resize-original.jpg,250,4.702,0,4458,263,feet,jsons/v1_VE250_randls_55.json,526679,1289361,35,Man
135,138760,DepthScenes,duration_manipulation_targetAtFixation,jsons/v1_VE250_randls_55.json,http://54.235.29.9/FacialAge/BNav_EC2/DepthDuration/v2_depth_duration_MTurk/v2_DepthDuration_HTML.html#16,16,1680,907,1680,1050,8-20-2022,8-11-7,136,depth_duration_stimuli/002213_2014-06-28_18-37-58_260595134347_rgbf000055-resize_1/002213_2014-06-28_18-37-58_260595134347_rgbf000055-resize_1-target.png,250,3.62,6,3560,251,feet,jsons/v1_VE250_randls_55.json,526679,1289361,35,Man
136,138760,DepthScenes,duration_manipulation_targetAtFixation,jsons/v1_VE250_randls_55.json,http://54.235.29.9/FacialAge/BNav_EC2/DepthDuration/v2_depth_duration_MTurk/v2_DepthDuration_HTML.html#16,16,1680,907,1680,1050,8-20-2022,8-11-7,137,depth_duration_stimuli/000691_2014-06-08_13-08-50_260595134347_rgbf000132-resize_3/000691_2014-06-08_13-08-50_260595134347_rgbf000132-resize_3-target.png,250,4.1530000000000005,4,1962,263,feet,jsons/v1_VE250_randls_55.json,526679,1289361,35,Man
137,138760,DepthScenes,duration_manipulation_targetAtFixation,jsons/v1_VE250_randls_55.json,http://54.235.29.9/FacialAge/BNav_EC2/DepthDuration/v2_depth_duration_MTurk/v2_DepthDuration_HTML.html#16,16,1680,907,1680,1050,8-20-2022,8-11-7,138,depth_duration_stimuli/000929_2014-06-09_16-33-19_260595134347_rgbf000139-resize_0/000929_2014-06-09_16-33-19_260595134347_rgbf000139-resize_0-target.png,250,2.8680000000000003,3,2318,250,feet,jsons/v1_VE250_randls_55.json,526679,1289361,35,Man
138,138760,DepthScenes,duration_manipulation_targetAtFixation,jsons/v1_VE250_randls_55.json,http://54.235.29.9/FacialAge/BNav_EC2/DepthDuration/v2_depth_duration_MTurk/v2_DepthDuration_HTML.html#16,16,1680,907,1680,1050,8-20-2022,8-11-7,139,depth_duration_stimuli/000457_2014-06-08_16-52-43_260595134347_rgbf000199-resize_1/000457_2014-06-08_16-52-43_260595134347_rgbf000199-resize_1-target.png,250,3.6489999999999996,3,1798,246,feet,jsons/v1_VE250_randls_55.json,526679,1289361,35,Man
139,138760,DepthScenes,duration_manipulation_targetAtFixation,jsons/v1_VE250_randls_55.json,http://54.235.29.9/FacialAge/BNav_EC2/DepthDuration/v2_depth_duration_MTurk/v2_DepthDuration_HTML.html#16,16,1680,907,1680,1050,8-20-2022,8-11-7,140,depth_duration_stimuli/001158_2014-06-17_15-32-16_260595134347_rgbf000138-resize_2/001158_2014-06-17_15-32-16_260595134347_rgbf000138-resize_2-target.png,250,4.5315,6,2139,253,feet,jsons/v1_VE250_randls_55.json,526679,1289361,35,Man
140,138760,DepthScenes,duration_manipulation_targetAtFixation,jsons/v1_VE250_randls_55.json,http://54.235.29.9/FacialAge/BNav_EC2/DepthDuration/v2_depth_duration_MTurk/v2_DepthDuration_HTML.html#16,16,1680,907,1680,1050,8-20-2022,8-11-7,141,depth_duration_stimuli/000556_2014-06-09_22-42-56_260595134347_rgbf000214-resize_1/000556_2014-06-09_22-42-56_260595134347_rgbf000214-resize_1-target.png,250,4.8415,5,2125,247,feet,jsons/v1_VE250_randls_55.json,526679,1289361,35,Man
141,138760,DepthScenes,duration_manipulation_targetAtFixation,jsons/v1_VE250_randls_55.json,http://54.235.29.9/FacialAge/BNav_EC2/DepthDuration/v2_depth_duration_MTurk/v2_DepthDuration_HTML.html#16,16,1680,907,1680,1050,8-20-2022,8-11-7,142,depth_duration_stimuli/003621_2014-05-23_18-06-08_094959634447_rgbf000101-resize_1/003621_2014-05-23_18-06-08_094959634447_rgbf000101-resize_1-target.png,250,3.9835,5,4988,253,feet,jsons/v1_VE250_randls_55.json,526679,1289361,35,Man
142,138760,DepthScenes,duration_manipulation_targetAtFixation,jsons/v1_VE250_randls_55.json,http://54.235.29.9/FacialAge/BNav_EC2/DepthDuration/v2_depth_duration_MTurk/v2_DepthDuration_HTML.html#16,16,1680,907,1680,1050,8-20-2022,8-11-7,143,depth_duration_stimuli/001584_2014-06-20_11-07-43_260595134347_rgbf000002-resize_1/001584_2014-06-20_11-07-43_260595134347_rgbf000002-resize_1-target.png,250,3.53,4,2867,251,feet,jsons/v1_VE250_randls_55.json,526679,1289361,35,Man
143,138760,DepthScenes,duration_manipulation_targetAtFixation,jsons/v1_VE250_randls_55.json,http://54.235.29.9/FacialAge/BNav_EC2/DepthDuration/v2_depth_duration_MTurk/v2_DepthDuration_HTML.html#16,16,1680,907,1680,1050,8-20-2022,8-11-7,144,depth_duration_stimuli/002988_2014-06-15_12-24-20_094959634447_rgbf000150-resize_1/002988_2014-06-15_12-24-20_094959634447_rgbf000150-resize_1-target.png,250,4.7669999999999995,5,4039,247,feet,jsons/v1_VE250_randls_55.json,526679,1289361,35,Man
144,138760,DepthScenes,duration_manipulation_targetAtFixation,jsons/v1_VE250_randls_55.json,http://54.235.29.9/FacialAge/BNav_EC2/DepthDuration/v2_depth_duration_MTurk/v2_DepthDuration_HTML.html#16,16,1680,907,1680,1050,8-20-2022,8-11-7,145,depth_duration_stimuli/001052_2014-06-08_18-24-54_260595134347_rgbf000130-resize_1/001052_2014-06-08_18-24-54_260595134347_rgbf000130-resize_1-target.png,250,4.1045,5,5596,248,feet,jsons/v1_VE250_randls_55.json,526679,1289361,35,Man
145,138760,DepthScenes,duration_manipulation_targetAtFixation,jsons/v1_VE250_randls_55.json,http://54.235.29.9/FacialAge/BNav_EC2/DepthDuration/v2_depth_duration_MTurk/v2_DepthDuration_HTML.html#16,16,1680,907,1680,1050,8-20-2022,8-11-7,146,depth_duration_stimuli/001498_2014-06-19_17-45-14_260595134347_rgbf000129-resize_4/001498_2014-06-19_17-45-14_260595134347_rgbf000129-resize-original.jpg,250,1.4075,0,2453,249,feet,jsons/v1_VE250_randls_55.json,526679,1289361,35,Man
146,138760,DepthScenes,duration_manipulation_targetAtFixation,jsons/v1_VE250_randls_55.json,http://54.235.29.9/FacialAge/BNav_EC2/DepthDuration/v2_depth_duration_MTurk/v2_DepthDuration_HTML.html#16,16,1680,907,1680,1050,8-20-2022,8-11-7,147,depth_duration_stimuli/003070_2014-06-15_14-58-27_094959634447_rgbf000150-resize_3/003070_2014-06-15_14-58-27_094959634447_rgbf000150-resize_3-target.png,250,2.9415,3,3026,250,feet,jsons/v1_VE250_randls_55.json,526679,1289361,35,Man
147,138760,DepthScenes,duration_manipulation_targetAtFixation,jsons/v1_VE250_randls_55.json,http://54.235.29.9/FacialAge/BNav_EC2/DepthDuration/v2_depth_duration_MTurk/v2_DepthDuration_HTML.html#16,16,1680,907,1680,1050,8-20-2022,8-11-7,148,depth_duration_stimuli/000943_2014-06-09_19-31-07_260595134347_rgbf000128-resize_1/000943_2014-06-09_19-31-07_260595134347_rgbf000128-resize_1-target.png,250,1.9765,2,4699,254,feet,jsons/v1_VE250_randls_55.json,526679,1289361,35,Man
148,138760,DepthScenes,duration_manipulation_targetAtFixation,jsons/v1_VE250_randls_55.json,http://54.235.29.9/FacialAge/BNav_EC2/DepthDuration/v2_depth_duration_MTurk/v2_DepthDuration_HTML.html#16,16,1680,907,1680,1050,8-20-2022,8-11-7,149,depth_duration_stimuli/001056_2014-06-08_18-46-44_260595134347_rgbf000068-resize_0/001056_2014-06-08_18-46-44_260595134347_rgbf000068-resize_0-target.png,250,2.6625,3,3196,250,feet,jsons/v1_VE250_randls_55.json,526679,1289361,35,Man
149,138760,DepthScenes,duration_manipulation_targetAtFixation,jsons/v1_VE250_randls_55.json,http://54.235.29.9/FacialAge/BNav_EC2/DepthDuration/v2_depth_duration_MTurk/v2_DepthDuration_HTML.html#16,16,1680,907,1680,1050,8-20-2022,8-11-7,150,depth_duration_stimuli/002199_2014-06-28_18-33-56_260595134347_rgbf000074-resize_0/002199_2014-06-28_18-33-56_260595134347_rgbf000074-resize_0-target.png,250,1.996,1,1547,250,feet,jsons/v1_VE250_randls_55.json,526679,1289361,35,Man
150,138760,DepthScenes,duration_manipulation_targetAtFixation,jsons/v1_VE250_randls_55.json,http://54.235.29.9/FacialAge/BNav_EC2/DepthDuration/v2_depth_duration_MTurk/v2_DepthDuration_HTML.html#16,16,1680,907,1680,1050,8-20-2022,8-11-7,151,depth_duration_stimuli/002763_2014-06-22_19-13-10_094959634447_rgbf000075-resize_4/002763_2014-06-22_19-13-10_094959634447_rgbf000075-resize_4-target.png,250,1.68375,2,1979,262,feet,jsons/v1_VE250_randls_55.json,526679,1289361,35,Man
151,138760,DepthScenes,duration_manipulation_targetAtFixation,jsons/v1_VE250_randls_55.json,http://54.235.29.9/FacialAge/BNav_EC2/DepthDuration/v2_depth_duration_MTurk/v2_DepthDuration_HTML.html#16,16,1680,907,1680,1050,8-20-2022,8-11-7,152,depth_duration_stimuli/002209_2014-06-28_18-36-10_260595134347_rgbf000051-resize_1/002209_2014-06-28_18-36-10_260595134347_rgbf000051-resize_1-target.png,250,2.057,2,1707,252,feet,jsons/v1_VE250_randls_55.json,526679,1289361,35,Man
152,138760,DepthScenes,duration_manipulation_targetAtFixation,jsons/v1_VE250_randls_55.json,http://54.235.29.9/FacialAge/BNav_EC2/DepthDuration/v2_depth_duration_MTurk/v2_DepthDuration_HTML.html#16,16,1680,907,1680,1050,8-20-2022,8-11-7,153,depth_duration_stimuli/002279_2014-06-28_18-55-32_260595134347_rgbf000040-resize_5/002279_2014-06-28_18-55-32_260595134347_rgbf000040-resize_5-target.png,250,1.5043333333333,1,1827,264,feet,jsons/v1_VE250_randls_55.json,526679,1289361,35,Man
153,138760,DepthScenes,duration_manipulation_targetAtFixation,jsons/v1_VE250_randls_55.json,http://54.235.29.9/FacialAge/BNav_EC2/DepthDuration/v2_depth_duration_MTurk/v2_DepthDuration_HTML.html#16,16,1680,907,1680,1050,8-20-2022,8-11-7,154,depth_duration_stimuli/000635_2014-06-08_16-38-42_260595134347_rgbf000106-resize_1/000635_2014-06-08_16-38-42_260595134347_rgbf000106-resize_1-target.png,250,2.074,3,3547,251,feet,jsons/v1_VE250_randls_55.json,526679,1289361,35,Man
154,138760,DepthScenes,duration_manipulation_targetAtFixation,jsons/v1_VE250_randls_55.json,http://54.235.29.9/FacialAge/BNav_EC2/DepthDuration/v2_depth_duration_MTurk/v2_DepthDuration_HTML.html#16,16,1680,907,1680,1050,8-20-2022,8-11-7,155,depth_duration_stimuli/000522_2014-06-08_13-35-06_260595134347_rgbf000244-resize_1/000522_2014-06-08_13-35-06_260595134347_rgbf000244-resize_1-target.png,250,2.3715,1,1587,250,feet,jsons/v1_VE250_randls_55.json,526679,1289361,35,Man
155,138760,DepthScenes,duration_manipulation_targetAtFixation,jsons/v1_VE250_randls_55.json,http://54.235.29.9/FacialAge/BNav_EC2/DepthDuration/v2_depth_duration_MTurk/v2_DepthDuration_HTML.html#16,16,1680,907,1680,1050,8-20-2022,8-11-7,156,depth_duration_stimuli/002949_2014-06-26_15-57-42_094959634447_rgbf000079-resize_1/002949_2014-06-26_15-57-42_094959634447_rgbf000079-resize_1-target.png,250,1.8915,2,1852,260,feet,jsons/v1_VE250_randls_55.json,526679,1289361,35,Man
156,138760,DepthScenes,duration_manipulation_targetAtFixation,jsons/v1_VE250_randls_55.json,http://54.235.29.9/FacialAge/BNav_EC2/DepthDuration/v2_depth_duration_MTurk/v2_DepthDuration_HTML.html#16,16,1680,907,1680,1050,8-20-2022,8-11-7,157,depth_duration_stimuli/002989_2014-06-15_12-25-03_094959634447_rgbf000150-resize_3/002989_2014-06-15_12-25-03_094959634447_rgbf000150-resize_3-target.png,250,4.1975,4,1892,251,feet,jsons/v1_VE250_randls_55.json,526679,1289361,35,Man
157,138760,DepthScenes,duration_manipulation_targetAtFixation,jsons/v1_VE250_randls_55.json,http://54.235.29.9/FacialAge/BNav_EC2/DepthDuration/v2_depth_duration_MTurk/v2_DepthDuration_HTML.html#16,16,1680,907,1680,1050,8-20-2022,8-11-7,158,depth_duration_stimuli/000866_2014-06-09_20-45-42_260595134347_rgbf000139-resize_1/000866_2014-06-09_20-45-42_260595134347_rgbf000139-resize_1-target.png,250,3.2155,4,2882,265,feet,jsons/v1_VE250_randls_55.json,526679,1289361,35,Man
158,138760,DepthScenes,duration_manipulation_targetAtFixation,jsons/v1_VE250_randls_55.json,http://54.235.29.9/FacialAge/BNav_EC2/DepthDuration/v2_depth_duration_MTurk/v2_DepthDuration_HTML.html#16,16,1680,907,1680,1050,8-20-2022,8-11-7,159,depth_duration_stimuli/002905_2014-06-03_18-04-43_094959634447_rgbf000151-resize_2/002905_2014-06-03_18-04-43_094959634447_rgbf000151-resize_2-target.png,250,2.0295,3,2254,247,feet,jsons/v1_VE250_randls_55.json,526679,1289361,35,Man
159,138760,DepthScenes,duration_manipulation_targetAtFixation,jsons/v1_VE250_randls_55.json,http://54.235.29.9/FacialAge/BNav_EC2/DepthDuration/v2_depth_duration_MTurk/v2_DepthDuration_HTML.html#16,16,1680,907,1680,1050,8-20-2022,8-11-7,160,depth_duration_stimuli/003423_2014-05-21_10-23-26_094959634447_rgbf002665-resize_2/003423_2014-05-21_10-23-26_094959634447_rgbf002665-resize_2-target.png,250,3.2575,3,3947,264,feet,jsons/v1_VE250_randls_55.json,526679,1289361,35,Man
160,138760,DepthScenes,duration_manipulation_targetAtFixation,jsons/v1_VE250_randls_55.json,http://54.235.29.9/FacialAge/BNav_EC2/DepthDuration/v2_depth_duration_MTurk/v2_DepthDuration_HTML.html#16,16,1680,907,1680,1050,8-20-2022,8-11-7,161,depth_duration_stimuli/001059_2014-06-08_21-53-27_260595134347_rgbf000061-resize_4/001059_2014-06-08_21-53-27_260595134347_rgbf000061-resize_4-target.png,250,2.4185,3,1931,250,feet,jsons/v1_VE250_randls_55.json,526679,1289361,35,Man
161,138760,DepthScenes,duration_manipulation_targetAtFixation,jsons/v1_VE250_randls_55.json,http://54.235.29.9/FacialAge/BNav_EC2/DepthDuration/v2_depth_duration_MTurk/v2_DepthDuration_HTML.html#16,16,1680,907,1680,1050,8-20-2022,8-11-7,162,depth_duration_stimuli/001032_2014-06-08_13-23-17_260595134347_rgbf000021-resize_3/001032_2014-06-08_13-23-17_260595134347_rgbf000021-resize_3-target.png,250,3.2725,3,2661,249,feet,jsons/v1_VE250_randls_55.json,526679,1289361,35,Man
162,138760,DepthScenes,duration_manipulation_targetAtFixation,jsons/v1_VE250_randls_55.json,http://54.235.29.9/FacialAge/BNav_EC2/DepthDuration/v2_depth_duration_MTurk/v2_DepthDuration_HTML.html#16,16,1680,907,1680,1050,8-20-2022,8-11-7,163,depth_duration_stimuli/001029_2014-06-08_13-17-57_260595134347_rgbf000065-resize_1/001029_2014-06-08_13-17-57_260595134347_rgbf000065-resize_1-target.png,250,3.0835,2,1819,260,feet,jsons/v1_VE250_randls_55.json,526679,1289361,35,Man
163,138760,DepthScenes,duration_manipulation_targetAtFixation,jsons/v1_VE250_randls_55.json,http://54.235.29.9/FacialAge/BNav_EC2/DepthDuration/v2_depth_duration_MTurk/v2_DepthDuration_HTML.html#16,16,1680,907,1680,1050,8-20-2022,8-11-7,164,depth_duration_stimuli/000677_2014-06-08_23-10-32_260595134347_rgbf000158-resize_6/000677_2014-06-08_23-10-32_260595134347_rgbf000158-resize_6-target.png,250,3.556,3,1697,246,feet,jsons/v1_VE250_randls_55.json,526679,1289361,35,Man
