,subjID,experimentName,versionName,sequenceName,url,selected_row,windowWidth,windowHeight,screenWidth,screenHeight,startDate,startTime,trial,stimulus,duration,actual_depth,depth_estimate,trial_RT,log_sceneDuration,unitSelection,seq_filepath,experimentTime,totalTime,age,gender
0,138942,DepthScenes,duration_manipulation_targetAtFixation,jsons/v1_VE1000_randls_42.json,http://54.235.29.9/FacialAge/BNav_EC2/DepthDuration/v2_depth_duration_MTurk/v2_DepthDuration_HTML.html#134,134,1366,625,1366,768,8-22-2022,8-40-17,1,depth_duration_stimuli/000758_2014-06-08_22-05-08_260595134347_rgbf000085-resize_0/000758_2014-06-08_22-05-08_260595134347_rgbf000085-resize_0-target.png,1000,3.3810000000000002,3.0,4454,999,meters,jsons/v1_VE1000_randls_42.json,1719747,2262912,1972,Woman
1,138942,DepthScenes,duration_manipulation_targetAtFixation,jsons/v1_VE1000_randls_42.json,http://54.235.29.9/FacialAge/BNav_EC2/DepthDuration/v2_depth_duration_MTurk/v2_DepthDuration_HTML.html#134,134,1366,625,1366,768,8-22-2022,8-40-17,2,depth_duration_stimuli/000854_2014-06-09_19-43-13_260595134347_rgbf000066-resize_0/000854_2014-06-09_19-43-13_260595134347_rgbf000066-resize_0-target.png,1000,3.068,2.0,3505,999,meters,jsons/v1_VE1000_randls_42.json,1719747,2262912,1972,Woman
2,138942,DepthScenes,duration_manipulation_targetAtFixation,jsons/v1_VE1000_randls_42.json,http://54.235.29.9/FacialAge/BNav_EC2/DepthDuration/v2_depth_duration_MTurk/v2_DepthDuration_HTML.html#134,134,1366,625,1366,768,8-22-2022,8-40-17,3,depth_duration_stimuli/002600_2014-06-24_14-27-04_094959634447_rgbf000074-resize_2/002600_2014-06-24_14-27-04_094959634447_rgbf000074-resize_2-target.png,1000,2.7575,2.0,61283,999,meters,jsons/v1_VE1000_randls_42.json,1719747,2262912,1972,Woman
3,138942,DepthScenes,duration_manipulation_targetAtFixation,jsons/v1_VE1000_randls_42.json,http://54.235.29.9/FacialAge/BNav_EC2/DepthDuration/v2_depth_duration_MTurk/v2_DepthDuration_HTML.html#134,134,1366,625,1366,768,8-22-2022,8-40-17,4,depth_duration_stimuli/003228_2014-05-14_13-42-35_094959634447_rgbf000101-resize_1/003228_2014-05-14_13-42-35_094959634447_rgbf000101-resize_1-target.png,1000,1.9680000000000002,5.0,10226,1000,meters,jsons/v1_VE1000_randls_42.json,1719747,2262912,1972,Woman
4,138942,DepthScenes,duration_manipulation_targetAtFixation,jsons/v1_VE1000_randls_42.json,http://54.235.29.9/FacialAge/BNav_EC2/DepthDuration/v2_depth_duration_MTurk/v2_DepthDuration_HTML.html#134,134,1366,625,1366,768,8-22-2022,8-40-17,5,depth_duration_stimuli/000682_2014-06-08_23-14-58_260595134347_rgbf000041-resize_5/000682_2014-06-08_23-14-58_260595134347_rgbf000041-resize_5-target.png,1000,2.7239999999999998,3.0,20255,996,meters,jsons/v1_VE1000_randls_42.json,1719747,2262912,1972,Woman
5,138942,DepthScenes,duration_manipulation_targetAtFixation,jsons/v1_VE1000_randls_42.json,http://54.235.29.9/FacialAge/BNav_EC2/DepthDuration/v2_depth_duration_MTurk/v2_DepthDuration_HTML.html#134,134,1366,625,1366,768,8-22-2022,8-40-17,6,depth_duration_stimuli/001650_2014-06-20_12-09-00_260595134347_rgbf000087-resize_3/001650_2014-06-20_12-09-00_260595134347_rgbf000087-resize_3-target.png,1000,1.9505,3.0,55587,999,meters,jsons/v1_VE1000_randls_42.json,1719747,2262912,1972,Woman
6,138942,DepthScenes,duration_manipulation_targetAtFixation,jsons/v1_VE1000_randls_42.json,http://54.235.29.9/FacialAge/BNav_EC2/DepthDuration/v2_depth_duration_MTurk/v2_DepthDuration_HTML.html#134,134,1366,625,1366,768,8-22-2022,8-40-17,7,depth_duration_stimuli/002272_2014-06-28_18-53-56_260595134347_rgbf000067-resize_2/002272_2014-06-28_18-53-56_260595134347_rgbf000067-resize_2-target.png,1000,1.138,2.0,8940,1015,meters,jsons/v1_VE1000_randls_42.json,1719747,2262912,1972,Woman
7,138942,DepthScenes,duration_manipulation_targetAtFixation,jsons/v1_VE1000_randls_42.json,http://54.235.29.9/FacialAge/BNav_EC2/DepthDuration/v2_depth_duration_MTurk/v2_DepthDuration_HTML.html#134,134,1366,625,1366,768,8-22-2022,8-40-17,8,depth_duration_stimuli/001571_2014-06-20_17-21-32_260595134347_rgbf000089-resize_1/001571_2014-06-20_17-21-32_260595134347_rgbf000089-resize_1-target.png,1000,1.86,2.0,3465,988,meters,jsons/v1_VE1000_randls_42.json,1719747,2262912,1972,Woman
8,138942,DepthScenes,duration_manipulation_targetAtFixation,jsons/v1_VE1000_randls_42.json,http://54.235.29.9/FacialAge/BNav_EC2/DepthDuration/v2_depth_duration_MTurk/v2_DepthDuration_HTML.html#134,134,1366,625,1366,768,8-22-2022,8-40-17,9,depth_duration_stimuli/002375_2014-06-28_20-13-44_260595134347_rgbf000032-resize_1/002375_2014-06-28_20-13-44_260595134347_rgbf000032-resize_1-target.png,1000,4.0175,4.0,3410,996,meters,jsons/v1_VE1000_randls_42.json,1719747,2262912,1972,Woman
9,138942,DepthScenes,duration_manipulation_targetAtFixation,jsons/v1_VE1000_randls_42.json,http://54.235.29.9/FacialAge/BNav_EC2/DepthDuration/v2_depth_duration_MTurk/v2_DepthDuration_HTML.html#134,134,1366,625,1366,768,8-22-2022,8-40-17,10,depth_duration_stimuli/002657_2014-06-13_15-29-54_094959634447_rgbf000150-resize_1/002657_2014-06-13_15-29-54_094959634447_rgbf000150-resize_1-target.png,1000,4.919,3.0,5171,1010,meters,jsons/v1_VE1000_randls_42.json,1719747,2262912,1972,Woman
10,138942,DepthScenes,duration_manipulation_targetAtFixation,jsons/v1_VE1000_randls_42.json,http://54.235.29.9/FacialAge/BNav_EC2/DepthDuration/v2_depth_duration_MTurk/v2_DepthDuration_HTML.html#134,134,1366,625,1366,768,8-22-2022,8-40-17,11,depth_duration_stimuli/002989_2014-06-15_12-25-03_094959634447_rgbf000150-resize_3/002989_2014-06-15_12-25-03_094959634447_rgbf000150-resize_3-target.png,1000,4.1975,2.0,3155,1007,meters,jsons/v1_VE1000_randls_42.json,1719747,2262912,1972,Woman
11,138942,DepthScenes,duration_manipulation_targetAtFixation,jsons/v1_VE1000_randls_42.json,http://54.235.29.9/FacialAge/BNav_EC2/DepthDuration/v2_depth_duration_MTurk/v2_DepthDuration_HTML.html#134,134,1366,625,1366,768,8-22-2022,8-40-17,12,depth_duration_stimuli/000866_2014-06-09_20-45-42_260595134347_rgbf000139-resize_1/000866_2014-06-09_20-45-42_260595134347_rgbf000139-resize_1-target.png,1000,3.2155,4.0,3872,997,meters,jsons/v1_VE1000_randls_42.json,1719747,2262912,1972,Woman
12,138942,DepthScenes,duration_manipulation_targetAtFixation,jsons/v1_VE1000_randls_42.json,http://54.235.29.9/FacialAge/BNav_EC2/DepthDuration/v2_depth_duration_MTurk/v2_DepthDuration_HTML.html#134,134,1366,625,1366,768,8-22-2022,8-40-17,13,depth_duration_stimuli/000569_2014-06-09_22-51-47_260595134347_rgbf000141-resize_3/000569_2014-06-09_22-51-47_260595134347_rgbf000141-resize-original.jpg,1000,4.512,3.0,5563,999,meters,jsons/v1_VE1000_randls_42.json,1719747,2262912,1972,Woman
13,138942,DepthScenes,duration_manipulation_targetAtFixation,jsons/v1_VE1000_randls_42.json,http://54.235.29.9/FacialAge/BNav_EC2/DepthDuration/v2_depth_duration_MTurk/v2_DepthDuration_HTML.html#134,134,1366,625,1366,768,8-22-2022,8-40-17,14,depth_duration_stimuli/002057_2014-06-24_21-00-13_260595134347_rgbf000120-resize_1/002057_2014-06-24_21-00-13_260595134347_rgbf000120-resize_1-target.png,1000,2.967,10.0,28505,998,meters,jsons/v1_VE1000_randls_42.json,1719747,2262912,1972,Woman
14,138942,DepthScenes,duration_manipulation_targetAtFixation,jsons/v1_VE1000_randls_42.json,http://54.235.29.9/FacialAge/BNav_EC2/DepthDuration/v2_depth_duration_MTurk/v2_DepthDuration_HTML.html#134,134,1366,625,1366,768,8-22-2022,8-40-17,15,depth_duration_stimuli/000709_2014-06-08_13-51-55_260595134347_rgbf000068-resize_3/000709_2014-06-08_13-51-55_260595134347_rgbf000068-resize_3-target.png,1000,1.8030000000000002,0.0,17299,1000,meters,jsons/v1_VE1000_randls_42.json,1719747,2262912,1972,Woman
15,138942,DepthScenes,duration_manipulation_targetAtFixation,jsons/v1_VE1000_randls_42.json,http://54.235.29.9/FacialAge/BNav_EC2/DepthDuration/v2_depth_duration_MTurk/v2_DepthDuration_HTML.html#134,134,1366,625,1366,768,8-22-2022,8-40-17,16,depth_duration_stimuli/001555_2014-06-20_17-12-10_260595134347_rgbf000065-resize_4/001555_2014-06-20_17-12-10_260595134347_rgbf000065-resize_4-target.png,1000,1.633,3.0,9307,1012,meters,jsons/v1_VE1000_randls_42.json,1719747,2262912,1972,Woman
16,138942,DepthScenes,duration_manipulation_targetAtFixation,jsons/v1_VE1000_randls_42.json,http://54.235.29.9/FacialAge/BNav_EC2/DepthDuration/v2_depth_duration_MTurk/v2_DepthDuration_HTML.html#134,134,1366,625,1366,768,8-22-2022,8-40-17,17,depth_duration_stimuli/000103_2014-05-14_22-01-17_260595134347_rgbf000152-resize_5/000103_2014-05-14_22-01-17_260595134347_rgbf000152-resize_5-target.png,1000,1.993,2.0,9624,1001,meters,jsons/v1_VE1000_randls_42.json,1719747,2262912,1972,Woman
17,138942,DepthScenes,duration_manipulation_targetAtFixation,jsons/v1_VE1000_randls_42.json,http://54.235.29.9/FacialAge/BNav_EC2/DepthDuration/v2_depth_duration_MTurk/v2_DepthDuration_HTML.html#134,134,1366,625,1366,768,8-22-2022,8-40-17,18,depth_duration_stimuli/001164_2014-06-17_15-35-46_260595134347_rgbf000085-resize_3/001164_2014-06-17_15-35-46_260595134347_rgbf000085-resize_3-target.png,1000,2.354,2.0,38072,999,meters,jsons/v1_VE1000_randls_42.json,1719747,2262912,1972,Woman
18,138942,DepthScenes,duration_manipulation_targetAtFixation,jsons/v1_VE1000_randls_42.json,http://54.235.29.9/FacialAge/BNav_EC2/DepthDuration/v2_depth_duration_MTurk/v2_DepthDuration_HTML.html#134,134,1366,625,1366,768,8-22-2022,8-40-17,19,depth_duration_stimuli/001136_2014-06-17_15-19-41_260595134347_rgbf000076-resize_3/001136_2014-06-17_15-19-41_260595134347_rgbf000076-resize_3-target.png,1000,1.8655,4.0,3018,1000,meters,jsons/v1_VE1000_randls_42.json,1719747,2262912,1972,Woman
19,138942,DepthScenes,duration_manipulation_targetAtFixation,jsons/v1_VE1000_randls_42.json,http://54.235.29.9/FacialAge/BNav_EC2/DepthDuration/v2_depth_duration_MTurk/v2_DepthDuration_HTML.html#134,134,1366,625,1366,768,8-22-2022,8-40-17,20,depth_duration_stimuli/001158_2014-06-17_15-32-16_260595134347_rgbf000138-resize_2/001158_2014-06-17_15-32-16_260595134347_rgbf000138-resize_2-target.png,1000,4.5315,4.0,3599,995,meters,jsons/v1_VE1000_randls_42.json,1719747,2262912,1972,Woman
20,138942,DepthScenes,duration_manipulation_targetAtFixation,jsons/v1_VE1000_randls_42.json,http://54.235.29.9/FacialAge/BNav_EC2/DepthDuration/v2_depth_duration_MTurk/v2_DepthDuration_HTML.html#134,134,1366,625,1366,768,8-22-2022,8-40-17,21,depth_duration_stimuli/000556_2014-06-09_22-42-56_260595134347_rgbf000214-resize_1/000556_2014-06-09_22-42-56_260595134347_rgbf000214-resize_1-target.png,1000,4.8415,2.0,3002,999,meters,jsons/v1_VE1000_randls_42.json,1719747,2262912,1972,Woman
21,138942,DepthScenes,duration_manipulation_targetAtFixation,jsons/v1_VE1000_randls_42.json,http://54.235.29.9/FacialAge/BNav_EC2/DepthDuration/v2_depth_duration_MTurk/v2_DepthDuration_HTML.html#134,134,1366,625,1366,768,8-22-2022,8-40-17,22,depth_duration_stimuli/002509_2014-06-24_13-19-22_094959634447_rgbf000077-resize_0/002509_2014-06-24_13-19-22_094959634447_rgbf000077-resize_0-target.png,1000,1.3065,4.0,2896,1009,meters,jsons/v1_VE1000_randls_42.json,1719747,2262912,1972,Woman
22,138942,DepthScenes,duration_manipulation_targetAtFixation,jsons/v1_VE1000_randls_42.json,http://54.235.29.9/FacialAge/BNav_EC2/DepthDuration/v2_depth_duration_MTurk/v2_DepthDuration_HTML.html#134,134,1366,625,1366,768,8-22-2022,8-40-17,23,depth_duration_stimuli/003338_2014-05-20_11-01-23_094959634447_rgbf000051-resize_6/003338_2014-05-20_11-01-23_094959634447_rgbf000051-resize_6-target.png,1000,1.693,4.0,2887,986,meters,jsons/v1_VE1000_randls_42.json,1719747,2262912,1972,Woman
23,138942,DepthScenes,duration_manipulation_targetAtFixation,jsons/v1_VE1000_randls_42.json,http://54.235.29.9/FacialAge/BNav_EC2/DepthDuration/v2_depth_duration_MTurk/v2_DepthDuration_HTML.html#134,134,1366,625,1366,768,8-22-2022,8-40-17,24,depth_duration_stimuli/001244_2014-06-17_16-47-45_260595134347_rgbf000030-resize_4/001244_2014-06-17_16-47-45_260595134347_rgbf000030-resize_4-target.png,1000,2.0425,2.0,3027,1012,meters,jsons/v1_VE1000_randls_42.json,1719747,2262912,1972,Woman
24,138942,DepthScenes,duration_manipulation_targetAtFixation,jsons/v1_VE1000_randls_42.json,http://54.235.29.9/FacialAge/BNav_EC2/DepthDuration/v2_depth_duration_MTurk/v2_DepthDuration_HTML.html#134,134,1366,625,1366,768,8-22-2022,8-40-17,25,depth_duration_stimuli/003495_2014-05-21_16-01-51_094959634447_rgbf000100-resize_3/003495_2014-05-21_16-01-51_094959634447_rgbf000100-resize_3-target.png,1000,1.6255,2.0,64449,1006,meters,jsons/v1_VE1000_randls_42.json,1719747,2262912,1972,Woman
25,138942,DepthScenes,duration_manipulation_targetAtFixation,jsons/v1_VE1000_randls_42.json,http://54.235.29.9/FacialAge/BNav_EC2/DepthDuration/v2_depth_duration_MTurk/v2_DepthDuration_HTML.html#134,134,1366,625,1366,768,8-22-2022,8-40-17,26,depth_duration_stimuli/001066_2014-06-08_22-03-20_260595134347_rgbf000066-resize_4/001066_2014-06-08_22-03-20_260595134347_rgbf000066-resize_4-target.png,1000,4.2330000000000005,4.0,7388,999,meters,jsons/v1_VE1000_randls_42.json,1719747,2262912,1972,Woman
26,138942,DepthScenes,duration_manipulation_targetAtFixation,jsons/v1_VE1000_randls_42.json,http://54.235.29.9/FacialAge/BNav_EC2/DepthDuration/v2_depth_duration_MTurk/v2_DepthDuration_HTML.html#134,134,1366,625,1366,768,8-22-2022,8-40-17,27,depth_duration_stimuli/000742_2014-06-08_18-48-09_260595134347_rgbf000164-resize_4/000742_2014-06-08_18-48-09_260595134347_rgbf000164-resize_4-target.png,1000,4.632,2.0,4263,998,meters,jsons/v1_VE1000_randls_42.json,1719747,2262912,1972,Woman
27,138942,DepthScenes,duration_manipulation_targetAtFixation,jsons/v1_VE1000_randls_42.json,http://54.235.29.9/FacialAge/BNav_EC2/DepthDuration/v2_depth_duration_MTurk/v2_DepthDuration_HTML.html#134,134,1366,625,1366,768,8-22-2022,8-40-17,28,depth_duration_stimuli/002725_2014-06-22_11-47-51_094959634447_rgbf000070-resize_1/002725_2014-06-22_11-47-51_094959634447_rgbf000070-resize_1-target.png,1000,2.195,3.0,19199,1010,meters,jsons/v1_VE1000_randls_42.json,1719747,2262912,1972,Woman
28,138942,DepthScenes,duration_manipulation_targetAtFixation,jsons/v1_VE1000_randls_42.json,http://54.235.29.9/FacialAge/BNav_EC2/DepthDuration/v2_depth_duration_MTurk/v2_DepthDuration_HTML.html#134,134,1366,625,1366,768,8-22-2022,8-40-17,29,depth_duration_stimuli/002344_2014-06-28_20-06-29_260595134347_rgbf000030-resize_1/002344_2014-06-28_20-06-29_260595134347_rgbf000030-resize_1-target.png,1000,1.5795,2.0,3135,986,meters,jsons/v1_VE1000_randls_42.json,1719747,2262912,1972,Woman
29,138942,DepthScenes,duration_manipulation_targetAtFixation,jsons/v1_VE1000_randls_42.json,http://54.235.29.9/FacialAge/BNav_EC2/DepthDuration/v2_depth_duration_MTurk/v2_DepthDuration_HTML.html#134,134,1366,625,1366,768,8-22-2022,8-40-17,30,depth_duration_stimuli/000375_2014-06-08_11-17-29_260595134347_rgbf000133-resize_2/000375_2014-06-08_11-17-29_260595134347_rgbf000133-resize-original.jpg,1000,4.718,2.0,2962,1001,meters,jsons/v1_VE1000_randls_42.json,1719747,2262912,1972,Woman
30,138942,DepthScenes,duration_manipulation_targetAtFixation,jsons/v1_VE1000_randls_42.json,http://54.235.29.9/FacialAge/BNav_EC2/DepthDuration/v2_depth_duration_MTurk/v2_DepthDuration_HTML.html#134,134,1366,625,1366,768,8-22-2022,8-40-17,31,depth_duration_stimuli/000486_2014-06-09_20-47-20_260595134347_rgbf000143-resize_2/000486_2014-06-09_20-47-20_260595134347_rgbf000143-resize_2-target.png,1000,4.8325,3.0,3253,994,meters,jsons/v1_VE1000_randls_42.json,1719747,2262912,1972,Woman
31,138942,DepthScenes,duration_manipulation_targetAtFixation,jsons/v1_VE1000_randls_42.json,http://54.235.29.9/FacialAge/BNav_EC2/DepthDuration/v2_depth_duration_MTurk/v2_DepthDuration_HTML.html#134,134,1366,625,1366,768,8-22-2022,8-40-17,32,depth_duration_stimuli/003083_2014-06-15_15-21-03_094959634447_rgbf000063-resize_1/003083_2014-06-15_15-21-03_094959634447_rgbf000063-resize_1-target.png,1000,4.1405,2.0,3035,1012,meters,jsons/v1_VE1000_randls_42.json,1719747,2262912,1972,Woman
32,138942,DepthScenes,duration_manipulation_targetAtFixation,jsons/v1_VE1000_randls_42.json,http://54.235.29.9/FacialAge/BNav_EC2/DepthDuration/v2_depth_duration_MTurk/v2_DepthDuration_HTML.html#134,134,1366,625,1366,768,8-22-2022,8-40-17,33,depth_duration_stimuli/001417_2014-06-19_16-25-36_260595134347_rgbf000115-resize_5/001417_2014-06-19_16-25-36_260595134347_rgbf000115-resize_5-target.png,1000,4.6255,3.0,79043,991,meters,jsons/v1_VE1000_randls_42.json,1719747,2262912,1972,Woman
33,138942,DepthScenes,duration_manipulation_targetAtFixation,jsons/v1_VE1000_randls_42.json,http://54.235.29.9/FacialAge/BNav_EC2/DepthDuration/v2_depth_duration_MTurk/v2_DepthDuration_HTML.html#134,134,1366,625,1366,768,8-22-2022,8-40-17,34,depth_duration_stimuli/003081_2014-06-15_15-19-16_094959634447_rgbf000150-resize_1/003081_2014-06-15_15-19-16_094959634447_rgbf000150-resize_1-target.png,1000,3.9125,2.0,4273,1002,meters,jsons/v1_VE1000_randls_42.json,1719747,2262912,1972,Woman
34,138942,DepthScenes,duration_manipulation_targetAtFixation,jsons/v1_VE1000_randls_42.json,http://54.235.29.9/FacialAge/BNav_EC2/DepthDuration/v2_depth_duration_MTurk/v2_DepthDuration_HTML.html#134,134,1366,625,1366,768,8-22-2022,8-40-17,35,depth_duration_stimuli/000368_2014-06-09_15-53-01_260595134347_rgbf000155-resize_2/000368_2014-06-09_15-53-01_260595134347_rgbf000155-resize_2-target.png,1000,2.4859999999999998,2.0,3089,1000,meters,jsons/v1_VE1000_randls_42.json,1719747,2262912,1972,Woman
35,138942,DepthScenes,duration_manipulation_targetAtFixation,jsons/v1_VE1000_randls_42.json,http://54.235.29.9/FacialAge/BNav_EC2/DepthDuration/v2_depth_duration_MTurk/v2_DepthDuration_HTML.html#134,134,1366,625,1366,768,8-22-2022,8-40-17,36,depth_duration_stimuli/002678_2014-06-13_16-15-32_094959634447_rgbf000151-resize_6/002678_2014-06-13_16-15-32_094959634447_rgbf000151-resize_6-target.png,1000,2.1830000000000003,2.0,3514,1002,meters,jsons/v1_VE1000_randls_42.json,1719747,2262912,1972,Woman
36,138942,DepthScenes,duration_manipulation_targetAtFixation,jsons/v1_VE1000_randls_42.json,http://54.235.29.9/FacialAge/BNav_EC2/DepthDuration/v2_depth_duration_MTurk/v2_DepthDuration_HTML.html#134,134,1366,625,1366,768,8-22-2022,8-40-17,37,depth_duration_stimuli/002763_2014-06-22_19-13-10_094959634447_rgbf000075-resize_4/002763_2014-06-22_19-13-10_094959634447_rgbf000075-resize_4-target.png,1000,1.68375,2.0,2787,1002,meters,jsons/v1_VE1000_randls_42.json,1719747,2262912,1972,Woman
37,138942,DepthScenes,duration_manipulation_targetAtFixation,jsons/v1_VE1000_randls_42.json,http://54.235.29.9/FacialAge/BNav_EC2/DepthDuration/v2_depth_duration_MTurk/v2_DepthDuration_HTML.html#134,134,1366,625,1366,768,8-22-2022,8-40-17,38,depth_duration_stimuli/002209_2014-06-28_18-36-10_260595134347_rgbf000051-resize_1/002209_2014-06-28_18-36-10_260595134347_rgbf000051-resize_1-target.png,1000,2.057,2.0,2944,1011,meters,jsons/v1_VE1000_randls_42.json,1719747,2262912,1972,Woman
38,138942,DepthScenes,duration_manipulation_targetAtFixation,jsons/v1_VE1000_randls_42.json,http://54.235.29.9/FacialAge/BNav_EC2/DepthDuration/v2_depth_duration_MTurk/v2_DepthDuration_HTML.html#134,134,1366,625,1366,768,8-22-2022,8-40-17,39,depth_duration_stimuli/001055_2014-06-08_18-45-35_260595134347_rgbf000111-resize_4/001055_2014-06-08_18-45-35_260595134347_rgbf000111-resize_4-target.png,1000,2.4290000000000003,2.0,2892,1007,meters,jsons/v1_VE1000_randls_42.json,1719747,2262912,1972,Woman
39,138942,DepthScenes,duration_manipulation_targetAtFixation,jsons/v1_VE1000_randls_42.json,http://54.235.29.9/FacialAge/BNav_EC2/DepthDuration/v2_depth_duration_MTurk/v2_DepthDuration_HTML.html#134,134,1366,625,1366,768,8-22-2022,8-40-17,40,depth_duration_stimuli/000549_2014-06-08_22-10-24_260595134347_rgbf000247-resize_3/000549_2014-06-08_22-10-24_260595134347_rgbf000247-resize_3-target.png,1000,1.841,4.0,8001,999,meters,jsons/v1_VE1000_randls_42.json,1719747,2262912,1972,Woman
40,138942,DepthScenes,duration_manipulation_targetAtFixation,jsons/v1_VE1000_randls_42.json,http://54.235.29.9/FacialAge/BNav_EC2/DepthDuration/v2_depth_duration_MTurk/v2_DepthDuration_HTML.html#134,134,1366,625,1366,768,8-22-2022,8-40-17,41,depth_duration_stimuli/002748_2014-06-22_19-07-22_094959634447_rgbf000078-resize_1/002748_2014-06-22_19-07-22_094959634447_rgbf000078-resize_1-target.png,1000,4.6705,3.0,6858,1014,meters,jsons/v1_VE1000_randls_42.json,1719747,2262912,1972,Woman
41,138942,DepthScenes,duration_manipulation_targetAtFixation,jsons/v1_VE1000_randls_42.json,http://54.235.29.9/FacialAge/BNav_EC2/DepthDuration/v2_depth_duration_MTurk/v2_DepthDuration_HTML.html#134,134,1366,625,1366,768,8-22-2022,8-40-17,42,depth_duration_stimuli/002995_2014-06-15_12-31-26_094959634447_rgbf000150-resize_1/002995_2014-06-15_12-31-26_094959634447_rgbf000150-resize_1-target.png,1000,3.8360000000000003,3.0,10323,1013,meters,jsons/v1_VE1000_randls_42.json,1719747,2262912,1972,Woman
42,138942,DepthScenes,duration_manipulation_targetAtFixation,jsons/v1_VE1000_randls_42.json,http://54.235.29.9/FacialAge/BNav_EC2/DepthDuration/v2_depth_duration_MTurk/v2_DepthDuration_HTML.html#134,134,1366,625,1366,768,8-22-2022,8-40-17,43,depth_duration_stimuli/003534_2014-05-22_15-06-10_094959634447_rgbf000102-resize_4/003534_2014-05-22_15-06-10_094959634447_rgbf000102-resize_4-target.png,1000,1.426,3.0,4773,993,meters,jsons/v1_VE1000_randls_42.json,1719747,2262912,1972,Woman
43,138942,DepthScenes,duration_manipulation_targetAtFixation,jsons/v1_VE1000_randls_42.json,http://54.235.29.9/FacialAge/BNav_EC2/DepthDuration/v2_depth_duration_MTurk/v2_DepthDuration_HTML.html#134,134,1366,625,1366,768,8-22-2022,8-40-17,44,depth_duration_stimuli/002637_2014-06-24_14-51-13_094959634447_rgbf000066-resize_4/002637_2014-06-24_14-51-13_094959634447_rgbf000066-resize_4-target.png,1000,1.9955,2.0,4067,1000,meters,jsons/v1_VE1000_randls_42.json,1719747,2262912,1972,Woman
44,138942,DepthScenes,duration_manipulation_targetAtFixation,jsons/v1_VE1000_randls_42.json,http://54.235.29.9/FacialAge/BNav_EC2/DepthDuration/v2_depth_duration_MTurk/v2_DepthDuration_HTML.html#134,134,1366,625,1366,768,8-22-2022,8-40-17,45,depth_duration_stimuli/000787_2014-06-08_22-33-53_260595134347_rgbf000175-resize_1/000787_2014-06-08_22-33-53_260595134347_rgbf000175-resize-original.jpg,1000,4.784,2.0,7731,997,meters,jsons/v1_VE1000_randls_42.json,1719747,2262912,1972,Woman
45,138942,DepthScenes,duration_manipulation_targetAtFixation,jsons/v1_VE1000_randls_42.json,http://54.235.29.9/FacialAge/BNav_EC2/DepthDuration/v2_depth_duration_MTurk/v2_DepthDuration_HTML.html#134,134,1366,625,1366,768,8-22-2022,8-40-17,46,depth_duration_stimuli/000506_2014-06-08_23-21-00_260595134347_rgbf000070-resize_7/000506_2014-06-08_23-21-00_260595134347_rgbf000070-resize_7-target.png,1000,4.0585,2.0,4986,1010,meters,jsons/v1_VE1000_randls_42.json,1719747,2262912,1972,Woman
46,138942,DepthScenes,duration_manipulation_targetAtFixation,jsons/v1_VE1000_randls_42.json,http://54.235.29.9/FacialAge/BNav_EC2/DepthDuration/v2_depth_duration_MTurk/v2_DepthDuration_HTML.html#134,134,1366,625,1366,768,8-22-2022,8-40-17,47,depth_duration_stimuli/003079_2014-06-15_15-18-20_094959634447_rgbf000152-resize_8/003079_2014-06-15_15-18-20_094959634447_rgbf000152-resize_8-target.png,1000,2.8775,3.0,72093,987,meters,jsons/v1_VE1000_randls_42.json,1719747,2262912,1972,Woman
47,138942,DepthScenes,duration_manipulation_targetAtFixation,jsons/v1_VE1000_randls_42.json,http://54.235.29.9/FacialAge/BNav_EC2/DepthDuration/v2_depth_duration_MTurk/v2_DepthDuration_HTML.html#134,134,1366,625,1366,768,8-22-2022,8-40-17,48,depth_duration_stimuli/001110_2014-06-15_17-25-28_260595134347_rgbf000150-resize_1/001110_2014-06-15_17-25-28_260595134347_rgbf000150-resize_1-target.png,1000,1.7115,2.0,22218,997,meters,jsons/v1_VE1000_randls_42.json,1719747,2262912,1972,Woman
48,138942,DepthScenes,duration_manipulation_targetAtFixation,jsons/v1_VE1000_randls_42.json,http://54.235.29.9/FacialAge/BNav_EC2/DepthDuration/v2_depth_duration_MTurk/v2_DepthDuration_HTML.html#134,134,1366,625,1366,768,8-22-2022,8-40-17,49,depth_duration_stimuli/000927_2014-06-09_16-32-30_260595134347_rgbf000123-resize_3/000927_2014-06-09_16-32-30_260595134347_rgbf000123-resize_3-target.png,1000,2.6785,2.0,8104,1008,meters,jsons/v1_VE1000_randls_42.json,1719747,2262912,1972,Woman
49,138942,DepthScenes,duration_manipulation_targetAtFixation,jsons/v1_VE1000_randls_42.json,http://54.235.29.9/FacialAge/BNav_EC2/DepthDuration/v2_depth_duration_MTurk/v2_DepthDuration_HTML.html#134,134,1366,625,1366,768,8-22-2022,8-40-17,50,depth_duration_stimuli/000739_2014-06-08_18-45-58_260595134347_rgbf000068-resize_1/000739_2014-06-08_18-45-58_260595134347_rgbf000068-resize_1-target.png,1000,3.534,2.0,12786,1001,meters,jsons/v1_VE1000_randls_42.json,1719747,2262912,1972,Woman
50,138942,DepthScenes,duration_manipulation_targetAtFixation,jsons/v1_VE1000_randls_42.json,http://54.235.29.9/FacialAge/BNav_EC2/DepthDuration/v2_depth_duration_MTurk/v2_DepthDuration_HTML.html#134,134,1366,625,1366,768,8-22-2022,8-40-17,51,depth_duration_stimuli/000734_2014-06-08_17-39-11_260595134347_rgbf000128-resize_2/000734_2014-06-08_17-39-11_260595134347_rgbf000128-resize_2-target.png,1000,4.098,2.0,5317,995,meters,jsons/v1_VE1000_randls_42.json,1719747,2262912,1972,Woman
51,138942,DepthScenes,duration_manipulation_targetAtFixation,jsons/v1_VE1000_randls_42.json,http://54.235.29.9/FacialAge/BNav_EC2/DepthDuration/v2_depth_duration_MTurk/v2_DepthDuration_HTML.html#134,134,1366,625,1366,768,8-22-2022,8-40-17,52,depth_duration_stimuli/000642_2014-06-08_16-59-25_260595134347_rgbf000098-resize_2/000642_2014-06-08_16-59-25_260595134347_rgbf000098-resize_2-target.png,1000,2.8815,2.0,29055,993,meters,jsons/v1_VE1000_randls_42.json,1719747,2262912,1972,Woman
52,138942,DepthScenes,duration_manipulation_targetAtFixation,jsons/v1_VE1000_randls_42.json,http://54.235.29.9/FacialAge/BNav_EC2/DepthDuration/v2_depth_duration_MTurk/v2_DepthDuration_HTML.html#134,134,1366,625,1366,768,8-22-2022,8-40-17,53,depth_duration_stimuli/002425_2014-06-28_20-27-29_260595134347_rgbf000031-resize_8/002425_2014-06-28_20-27-29_260595134347_rgbf000031-resize_8-target.png,1000,3.8960000000000004,3.0,4498,999,meters,jsons/v1_VE1000_randls_42.json,1719747,2262912,1972,Woman
53,138942,DepthScenes,duration_manipulation_targetAtFixation,jsons/v1_VE1000_randls_42.json,http://54.235.29.9/FacialAge/BNav_EC2/DepthDuration/v2_depth_duration_MTurk/v2_DepthDuration_HTML.html#134,134,1366,625,1366,768,8-22-2022,8-40-17,54,depth_duration_stimuli/000878_2014-06-08_22-52-45_260595134347_rgbf000045-resize_2/000878_2014-06-08_22-52-45_260595134347_rgbf000045-resize_2-target.png,1000,2.092,2.0,11834,1010,meters,jsons/v1_VE1000_randls_42.json,1719747,2262912,1972,Woman
54,138942,DepthScenes,duration_manipulation_targetAtFixation,jsons/v1_VE1000_randls_42.json,http://54.235.29.9/FacialAge/BNav_EC2/DepthDuration/v2_depth_duration_MTurk/v2_DepthDuration_HTML.html#134,134,1366,625,1366,768,8-22-2022,8-40-17,55,depth_duration_stimuli/002953_2014-06-08_17-32-18_094959634447_rgbf000059-resize_5/002953_2014-06-08_17-32-18_094959634447_rgbf000059-resize_5-target.png,1000,1.551,2.0,16099,1014,meters,jsons/v1_VE1000_randls_42.json,1719747,2262912,1972,Woman
55,138942,DepthScenes,duration_manipulation_targetAtFixation,jsons/v1_VE1000_randls_42.json,http://54.235.29.9/FacialAge/BNav_EC2/DepthDuration/v2_depth_duration_MTurk/v2_DepthDuration_HTML.html#134,134,1366,625,1366,768,8-22-2022,8-40-17,56,depth_duration_stimuli/000692_2014-06-08_13-09-42_260595134347_rgbf000199-resize_2/000692_2014-06-08_13-09-42_260595134347_rgbf000199-resize_2-target.png,1000,3.661,2.0,8379,1005,meters,jsons/v1_VE1000_randls_42.json,1719747,2262912,1972,Woman
56,138942,DepthScenes,duration_manipulation_targetAtFixation,jsons/v1_VE1000_randls_42.json,http://54.235.29.9/FacialAge/BNav_EC2/DepthDuration/v2_depth_duration_MTurk/v2_DepthDuration_HTML.html#134,134,1366,625,1366,768,8-22-2022,8-40-17,57,depth_duration_stimuli/001094_2014-06-15_17-36-00_260595134347_rgbf000205-resize_0/001094_2014-06-15_17-36-00_260595134347_rgbf000205-resize_0-target.png,1000,4.2175,2.0,7644,1001,meters,jsons/v1_VE1000_randls_42.json,1719747,2262912,1972,Woman
57,138942,DepthScenes,duration_manipulation_targetAtFixation,jsons/v1_VE1000_randls_42.json,http://54.235.29.9/FacialAge/BNav_EC2/DepthDuration/v2_depth_duration_MTurk/v2_DepthDuration_HTML.html#134,134,1366,625,1366,768,8-22-2022,8-40-17,58,depth_duration_stimuli/002788_2014-06-22_19-36-03_094959634447_rgbf000088-resize_2/002788_2014-06-22_19-36-03_094959634447_rgbf000088-resize_2-target.png,1000,1.6465,4.0,4799,1018,meters,jsons/v1_VE1000_randls_42.json,1719747,2262912,1972,Woman
58,138942,DepthScenes,duration_manipulation_targetAtFixation,jsons/v1_VE1000_randls_42.json,http://54.235.29.9/FacialAge/BNav_EC2/DepthDuration/v2_depth_duration_MTurk/v2_DepthDuration_HTML.html#134,134,1366,625,1366,768,8-22-2022,8-40-17,59,depth_duration_stimuli/000749_2014-06-08_21-55-06_260595134347_rgbf000070-resize_2/000749_2014-06-08_21-55-06_260595134347_rgbf000070-resize_2-target.png,1000,2.331,3.0,4537,1000,meters,jsons/v1_VE1000_randls_42.json,1719747,2262912,1972,Woman
59,138942,DepthScenes,duration_manipulation_targetAtFixation,jsons/v1_VE1000_randls_42.json,http://54.235.29.9/FacialAge/BNav_EC2/DepthDuration/v2_depth_duration_MTurk/v2_DepthDuration_HTML.html#134,134,1366,625,1366,768,8-22-2022,8-40-17,60,depth_duration_stimuli/001167_2014-06-17_15-38-07_260595134347_rgbf000108-resize_0/001167_2014-06-17_15-38-07_260595134347_rgbf000108-resize_0-target.png,1000,1.8505,5.0,7673,1004,meters,jsons/v1_VE1000_randls_42.json,1719747,2262912,1972,Woman
60,138942,DepthScenes,duration_manipulation_targetAtFixation,jsons/v1_VE1000_randls_42.json,http://54.235.29.9/FacialAge/BNav_EC2/DepthDuration/v2_depth_duration_MTurk/v2_DepthDuration_HTML.html#134,134,1366,625,1366,768,8-22-2022,8-40-17,61,depth_duration_stimuli/003587_2014-05-23_16-48-02_094959634447_rgbf002384-resize_2/003587_2014-05-23_16-48-02_094959634447_rgbf002384-resize_2-target.png,1000,1.357,2.0,4826,1005,meters,jsons/v1_VE1000_randls_42.json,1719747,2262912,1972,Woman
61,138942,DepthScenes,duration_manipulation_targetAtFixation,jsons/v1_VE1000_randls_42.json,http://54.235.29.9/FacialAge/BNav_EC2/DepthDuration/v2_depth_duration_MTurk/v2_DepthDuration_HTML.html#134,134,1366,625,1366,768,8-22-2022,8-40-17,62,depth_duration_stimuli/001016_2014-06-09_16-16-10_260595134347_rgbf000112-resize_5/001016_2014-06-09_16-16-10_260595134347_rgbf000112-resize_5-target.png,1000,1.6565,2.0,3780,989,meters,jsons/v1_VE1000_randls_42.json,1719747,2262912,1972,Woman
62,138942,DepthScenes,duration_manipulation_targetAtFixation,jsons/v1_VE1000_randls_42.json,http://54.235.29.9/FacialAge/BNav_EC2/DepthDuration/v2_depth_duration_MTurk/v2_DepthDuration_HTML.html#134,134,1366,625,1366,768,8-22-2022,8-40-17,63,depth_duration_stimuli/002340_2014-06-28_20-05-46_260595134347_rgbf000113-resize_0/002340_2014-06-28_20-05-46_260595134347_rgbf000113-resize_0-target.png,1000,2.4735,2.0,3287,996,meters,jsons/v1_VE1000_randls_42.json,1719747,2262912,1972,Woman
63,138942,DepthScenes,duration_manipulation_targetAtFixation,jsons/v1_VE1000_randls_42.json,http://54.235.29.9/FacialAge/BNav_EC2/DepthDuration/v2_depth_duration_MTurk/v2_DepthDuration_HTML.html#134,134,1366,625,1366,768,8-22-2022,8-40-17,64,depth_duration_stimuli/001059_2014-06-08_21-53-27_260595134347_rgbf000061-resize_4/001059_2014-06-08_21-53-27_260595134347_rgbf000061-resize_4-target.png,1000,2.4185,2.0,65809,995,meters,jsons/v1_VE1000_randls_42.json,1719747,2262912,1972,Woman
64,138942,DepthScenes,duration_manipulation_targetAtFixation,jsons/v1_VE1000_randls_42.json,http://54.235.29.9/FacialAge/BNav_EC2/DepthDuration/v2_depth_duration_MTurk/v2_DepthDuration_HTML.html#134,134,1366,625,1366,768,8-22-2022,8-40-17,65,depth_duration_stimuli/001032_2014-06-08_13-23-17_260595134347_rgbf000021-resize_3/001032_2014-06-08_13-23-17_260595134347_rgbf000021-resize_3-target.png,1000,3.2725,2.0,14815,996,meters,jsons/v1_VE1000_randls_42.json,1719747,2262912,1972,Woman
65,138942,DepthScenes,duration_manipulation_targetAtFixation,jsons/v1_VE1000_randls_42.json,http://54.235.29.9/FacialAge/BNav_EC2/DepthDuration/v2_depth_duration_MTurk/v2_DepthDuration_HTML.html#134,134,1366,625,1366,768,8-22-2022,8-40-17,66,depth_duration_stimuli/001222_2014-06-17_16-24-06_260595134347_rgbf000073-resize_0/001222_2014-06-17_16-24-06_260595134347_rgbf000073-resize-original.jpg,1000,1.4385,3.0,4497,993,meters,jsons/v1_VE1000_randls_42.json,1719747,2262912,1972,Woman
66,138942,DepthScenes,duration_manipulation_targetAtFixation,jsons/v1_VE1000_randls_42.json,http://54.235.29.9/FacialAge/BNav_EC2/DepthDuration/v2_depth_duration_MTurk/v2_DepthDuration_HTML.html#134,134,1366,625,1366,768,8-22-2022,8-40-17,67,depth_duration_stimuli/002043_2014-06-24_20-29-38_260595134347_rgbf000039-resize_4/002043_2014-06-24_20-29-38_260595134347_rgbf000039-resize_4-target.png,1000,2.8435,3.0,11184,988,meters,jsons/v1_VE1000_randls_42.json,1719747,2262912,1972,Woman
67,138942,DepthScenes,duration_manipulation_targetAtFixation,jsons/v1_VE1000_randls_42.json,http://54.235.29.9/FacialAge/BNav_EC2/DepthDuration/v2_depth_duration_MTurk/v2_DepthDuration_HTML.html#134,134,1366,625,1366,768,8-22-2022,8-40-17,68,depth_duration_stimuli/003048_2014-06-15_13-49-43_094959634447_rgbf000150-resize_1/003048_2014-06-15_13-49-43_094959634447_rgbf000150-resize_1-target.png,1000,4.0035,2.0,6558,997,meters,jsons/v1_VE1000_randls_42.json,1719747,2262912,1972,Woman
68,138942,DepthScenes,duration_manipulation_targetAtFixation,jsons/v1_VE1000_randls_42.json,http://54.235.29.9/FacialAge/BNav_EC2/DepthDuration/v2_depth_duration_MTurk/v2_DepthDuration_HTML.html#134,134,1366,625,1366,768,8-22-2022,8-40-17,69,depth_duration_stimuli/002570_2014-06-24_13-59-54_094959634447_rgbf000059-resize_0/002570_2014-06-24_13-59-54_094959634447_rgbf000059-resize_0-target.png,1000,4.037,3.0,3216,1005,meters,jsons/v1_VE1000_randls_42.json,1719747,2262912,1972,Woman
69,138942,DepthScenes,duration_manipulation_targetAtFixation,jsons/v1_VE1000_randls_42.json,http://54.235.29.9/FacialAge/BNav_EC2/DepthDuration/v2_depth_duration_MTurk/v2_DepthDuration_HTML.html#134,134,1366,625,1366,768,8-22-2022,8-40-17,70,depth_duration_stimuli/002467_2014-06-28_20-38-07_260595134347_rgbf000026-resize_2/002467_2014-06-28_20-38-07_260595134347_rgbf000026-resize_2-target.png,1000,4.742,2.0,4708,1006,meters,jsons/v1_VE1000_randls_42.json,1719747,2262912,1972,Woman
70,138942,DepthScenes,duration_manipulation_targetAtFixation,jsons/v1_VE1000_randls_42.json,http://54.235.29.9/FacialAge/BNav_EC2/DepthDuration/v2_depth_duration_MTurk/v2_DepthDuration_HTML.html#134,134,1366,625,1366,768,8-22-2022,8-40-17,71,depth_duration_stimuli/002213_2014-06-28_18-37-58_260595134347_rgbf000055-resize_1/002213_2014-06-28_18-37-58_260595134347_rgbf000055-resize_1-target.png,1000,3.62,3.0,3784,995,meters,jsons/v1_VE1000_randls_42.json,1719747,2262912,1972,Woman
71,138942,DepthScenes,duration_manipulation_targetAtFixation,jsons/v1_VE1000_randls_42.json,http://54.235.29.9/FacialAge/BNav_EC2/DepthDuration/v2_depth_duration_MTurk/v2_DepthDuration_HTML.html#134,134,1366,625,1366,768,8-22-2022,8-40-17,72,depth_duration_stimuli/000691_2014-06-08_13-08-50_260595134347_rgbf000132-resize_3/000691_2014-06-08_13-08-50_260595134347_rgbf000132-resize_3-target.png,1000,4.1530000000000005,2.0,42619,984,meters,jsons/v1_VE1000_randls_42.json,1719747,2262912,1972,Woman
72,138942,DepthScenes,duration_manipulation_targetAtFixation,jsons/v1_VE1000_randls_42.json,http://54.235.29.9/FacialAge/BNav_EC2/DepthDuration/v2_depth_duration_MTurk/v2_DepthDuration_HTML.html#134,134,1366,625,1366,768,8-22-2022,8-40-17,73,depth_duration_stimuli/000522_2014-06-08_13-35-06_260595134347_rgbf000244-resize_1/000522_2014-06-08_13-35-06_260595134347_rgbf000244-resize_1-target.png,1000,2.3715,3.0,5098,990,meters,jsons/v1_VE1000_randls_42.json,1719747,2262912,1972,Woman
73,138942,DepthScenes,duration_manipulation_targetAtFixation,jsons/v1_VE1000_randls_42.json,http://54.235.29.9/FacialAge/BNav_EC2/DepthDuration/v2_depth_duration_MTurk/v2_DepthDuration_HTML.html#134,134,1366,625,1366,768,8-22-2022,8-40-17,74,depth_duration_stimuli/002949_2014-06-26_15-57-42_094959634447_rgbf000079-resize_1/002949_2014-06-26_15-57-42_094959634447_rgbf000079-resize_1-target.png,1000,1.8915,2.0,3176,997,meters,jsons/v1_VE1000_randls_42.json,1719747,2262912,1972,Woman
74,138942,DepthScenes,duration_manipulation_targetAtFixation,jsons/v1_VE1000_randls_42.json,http://54.235.29.9/FacialAge/BNav_EC2/DepthDuration/v2_depth_duration_MTurk/v2_DepthDuration_HTML.html#134,134,1366,625,1366,768,8-22-2022,8-40-17,75,depth_duration_stimuli/002663_2014-06-13_15-50-26_094959634447_rgbf000075-resize_1/002663_2014-06-13_15-50-26_094959634447_rgbf000075-resize_1-target.png,1000,4.7495,3.0,3201,1002,meters,jsons/v1_VE1000_randls_42.json,1719747,2262912,1972,Woman
75,138942,DepthScenes,duration_manipulation_targetAtFixation,jsons/v1_VE1000_randls_42.json,http://54.235.29.9/FacialAge/BNav_EC2/DepthDuration/v2_depth_duration_MTurk/v2_DepthDuration_HTML.html#134,134,1366,625,1366,768,8-22-2022,8-40-17,76,depth_duration_stimuli/000409_2014-06-04_19-23-33_260595134347_rgbf000067-resize_0/000409_2014-06-04_19-23-33_260595134347_rgbf000067-resize_0-target.png,1000,3.7335,2.0,3129,988,meters,jsons/v1_VE1000_randls_42.json,1719747,2262912,1972,Woman
76,138942,DepthScenes,duration_manipulation_targetAtFixation,jsons/v1_VE1000_randls_42.json,http://54.235.29.9/FacialAge/BNav_EC2/DepthDuration/v2_depth_duration_MTurk/v2_DepthDuration_HTML.html#134,134,1366,625,1366,768,8-22-2022,8-40-17,77,depth_duration_stimuli/000469_2014-06-09_19-42-10_260595134347_rgbf000081-resize_1/000469_2014-06-09_19-42-10_260595134347_rgbf000081-resize_1-target.png,1000,1.652,2.0,4253,996,meters,jsons/v1_VE1000_randls_42.json,1719747,2262912,1972,Woman
77,138942,DepthScenes,duration_manipulation_targetAtFixation,jsons/v1_VE1000_randls_42.json,http://54.235.29.9/FacialAge/BNav_EC2/DepthDuration/v2_depth_duration_MTurk/v2_DepthDuration_HTML.html#134,134,1366,625,1366,768,8-22-2022,8-40-17,78,depth_duration_stimuli/000483_2014-06-09_20-41-45_260595134347_rgbf000116-resize_4/000483_2014-06-09_20-41-45_260595134347_rgbf000116-resize_4-target.png,1000,1.337,3.0,3686,1007,meters,jsons/v1_VE1000_randls_42.json,1719747,2262912,1972,Woman
78,138942,DepthScenes,duration_manipulation_targetAtFixation,jsons/v1_VE1000_randls_42.json,http://54.235.29.9/FacialAge/BNav_EC2/DepthDuration/v2_depth_duration_MTurk/v2_DepthDuration_HTML.html#134,134,1366,625,1366,768,8-22-2022,8-40-17,79,depth_duration_stimuli/001449_2014-06-19_17-01-27_260595134347_rgbf000116-resize_2/001449_2014-06-19_17-01-27_260595134347_rgbf000116-resize_2-target.png,1000,3.452,2.0,4932,1005,meters,jsons/v1_VE1000_randls_42.json,1719747,2262912,1972,Woman
79,138942,DepthScenes,duration_manipulation_targetAtFixation,jsons/v1_VE1000_randls_42.json,http://54.235.29.9/FacialAge/BNav_EC2/DepthDuration/v2_depth_duration_MTurk/v2_DepthDuration_HTML.html#134,134,1366,625,1366,768,8-22-2022,8-40-17,80,depth_duration_stimuli/001450_2014-06-19_17-02-03_260595134347_rgbf000203-resize_4/001450_2014-06-19_17-02-03_260595134347_rgbf000203-resize_4-target.png,1000,4.0106666666667,3.0,3167,996,meters,jsons/v1_VE1000_randls_42.json,1719747,2262912,1972,Woman
80,138942,DepthScenes,duration_manipulation_targetAtFixation,jsons/v1_VE1000_randls_42.json,http://54.235.29.9/FacialAge/BNav_EC2/DepthDuration/v2_depth_duration_MTurk/v2_DepthDuration_HTML.html#134,134,1366,625,1366,768,8-22-2022,8-40-17,81,depth_duration_stimuli/002039_2014-06-24_20-22-38_260595134347_rgbf000084-resize_1/002039_2014-06-24_20-22-38_260595134347_rgbf000084-resize_1-target.png,1000,4.408,2.0,3491,991,meters,jsons/v1_VE1000_randls_42.json,1719747,2262912,1972,Woman
81,138942,DepthScenes,duration_manipulation_targetAtFixation,jsons/v1_VE1000_randls_42.json,http://54.235.29.9/FacialAge/BNav_EC2/DepthDuration/v2_depth_duration_MTurk/v2_DepthDuration_HTML.html#134,134,1366,625,1366,768,8-22-2022,8-40-17,82,depth_duration_stimuli/002103_2014-06-25_20-00-40_260595134347_rgbf000049-resize_0/002103_2014-06-25_20-00-40_260595134347_rgbf000049-resize_0-target.png,1000,4.105,2.0,36796,1000,meters,jsons/v1_VE1000_randls_42.json,1719747,2262912,1972,Woman
82,138942,DepthScenes,duration_manipulation_targetAtFixation,jsons/v1_VE1000_randls_42.json,http://54.235.29.9/FacialAge/BNav_EC2/DepthDuration/v2_depth_duration_MTurk/v2_DepthDuration_HTML.html#134,134,1366,625,1366,768,8-22-2022,8-40-17,83,depth_duration_stimuli/001570_2014-06-20_17-21-09_260595134347_rgbf000135-resize_4/001570_2014-06-20_17-21-09_260595134347_rgbf000135-resize_4-target.png,1000,4.467,2.0,9436,1000,meters,jsons/v1_VE1000_randls_42.json,1719747,2262912,1972,Woman
83,138942,DepthScenes,duration_manipulation_targetAtFixation,jsons/v1_VE1000_randls_42.json,http://54.235.29.9/FacialAge/BNav_EC2/DepthDuration/v2_depth_duration_MTurk/v2_DepthDuration_HTML.html#134,134,1366,625,1366,768,8-22-2022,8-40-17,84,depth_duration_stimuli/001392_2014-06-19_16-07-59_260595134347_rgbf000046-resize_1/001392_2014-06-19_16-07-59_260595134347_rgbf000046-resize_1-target.png,1000,4.135,3.0,3353,1005,meters,jsons/v1_VE1000_randls_42.json,1719747,2262912,1972,Woman
84,138942,DepthScenes,duration_manipulation_targetAtFixation,jsons/v1_VE1000_randls_42.json,http://54.235.29.9/FacialAge/BNav_EC2/DepthDuration/v2_depth_duration_MTurk/v2_DepthDuration_HTML.html#134,134,1366,625,1366,768,8-22-2022,8-40-17,85,depth_duration_stimuli/003621_2014-05-23_18-06-08_094959634447_rgbf000101-resize_1/003621_2014-05-23_18-06-08_094959634447_rgbf000101-resize_1-target.png,1000,3.9835,2.0,3065,1005,meters,jsons/v1_VE1000_randls_42.json,1719747,2262912,1972,Woman
85,138942,DepthScenes,duration_manipulation_targetAtFixation,jsons/v1_VE1000_randls_42.json,http://54.235.29.9/FacialAge/BNav_EC2/DepthDuration/v2_depth_duration_MTurk/v2_DepthDuration_HTML.html#134,134,1366,625,1366,768,8-22-2022,8-40-17,86,depth_duration_stimuli/001584_2014-06-20_11-07-43_260595134347_rgbf000002-resize_1/001584_2014-06-20_11-07-43_260595134347_rgbf000002-resize_1-target.png,1000,3.53,3.0,3521,1001,meters,jsons/v1_VE1000_randls_42.json,1719747,2262912,1972,Woman
86,138942,DepthScenes,duration_manipulation_targetAtFixation,jsons/v1_VE1000_randls_42.json,http://54.235.29.9/FacialAge/BNav_EC2/DepthDuration/v2_depth_duration_MTurk/v2_DepthDuration_HTML.html#134,134,1366,625,1366,768,8-22-2022,8-40-17,87,depth_duration_stimuli/000436_2014-06-09_22-25-11_260595134347_rgbf000137-resize_1/000436_2014-06-09_22-25-11_260595134347_rgbf000137-resize_1-target.png,1000,4.0705,2.0,3267,1001,meters,jsons/v1_VE1000_randls_42.json,1719747,2262912,1972,Woman
87,138942,DepthScenes,duration_manipulation_targetAtFixation,jsons/v1_VE1000_randls_42.json,http://54.235.29.9/FacialAge/BNav_EC2/DepthDuration/v2_depth_duration_MTurk/v2_DepthDuration_HTML.html#134,134,1366,625,1366,768,8-22-2022,8-40-17,88,depth_duration_stimuli/002444_2014-06-28_20-32-08_260595134347_rgbf000027-resize_0/002444_2014-06-28_20-32-08_260595134347_rgbf000027-resize_0-target.png,1000,4.388999999999999,3.0,3354,992,meters,jsons/v1_VE1000_randls_42.json,1719747,2262912,1972,Woman
88,138942,DepthScenes,duration_manipulation_targetAtFixation,jsons/v1_VE1000_randls_42.json,http://54.235.29.9/FacialAge/BNav_EC2/DepthDuration/v2_depth_duration_MTurk/v2_DepthDuration_HTML.html#134,134,1366,625,1366,768,8-22-2022,8-40-17,89,depth_duration_stimuli/003070_2014-06-15_14-58-27_094959634447_rgbf000150-resize_3/003070_2014-06-15_14-58-27_094959634447_rgbf000150-resize_3-target.png,1000,2.9415,2.0,5650,1004,meters,jsons/v1_VE1000_randls_42.json,1719747,2262912,1972,Woman
89,138942,DepthScenes,duration_manipulation_targetAtFixation,jsons/v1_VE1000_randls_42.json,http://54.235.29.9/FacialAge/BNav_EC2/DepthDuration/v2_depth_duration_MTurk/v2_DepthDuration_HTML.html#134,134,1366,625,1366,768,8-22-2022,8-40-17,90,depth_duration_stimuli/000943_2014-06-09_19-31-07_260595134347_rgbf000128-resize_1/000943_2014-06-09_19-31-07_260595134347_rgbf000128-resize_1-target.png,1000,1.9765,2.0,12437,995,meters,jsons/v1_VE1000_randls_42.json,1719747,2262912,1972,Woman
90,138942,DepthScenes,duration_manipulation_targetAtFixation,jsons/v1_VE1000_randls_42.json,http://54.235.29.9/FacialAge/BNav_EC2/DepthDuration/v2_depth_duration_MTurk/v2_DepthDuration_HTML.html#134,134,1366,625,1366,768,8-22-2022,8-40-17,91,depth_duration_stimuli/000470_2014-06-09_19-42-40_260595134347_rgbf000094-resize_1/000470_2014-06-09_19-42-40_260595134347_rgbf000094-resize_1-target.png,1000,1.831,2.0,6858,1003,meters,jsons/v1_VE1000_randls_42.json,1719747,2262912,1972,Woman
91,138942,DepthScenes,duration_manipulation_targetAtFixation,jsons/v1_VE1000_randls_42.json,http://54.235.29.9/FacialAge/BNav_EC2/DepthDuration/v2_depth_duration_MTurk/v2_DepthDuration_HTML.html#134,134,1366,625,1366,768,8-22-2022,8-40-17,92,depth_duration_stimuli/000109_2014-05-14_23-41-52_260595134347_rgbf000035-resize_9/000109_2014-05-14_23-41-52_260595134347_rgbf000035-resize_9-target.png,1000,1.3545,5.0,2825,1015,meters,jsons/v1_VE1000_randls_42.json,1719747,2262912,1972,Woman
92,138942,DepthScenes,duration_manipulation_targetAtFixation,jsons/v1_VE1000_randls_42.json,http://54.235.29.9/FacialAge/BNav_EC2/DepthDuration/v2_depth_duration_MTurk/v2_DepthDuration_HTML.html#134,134,1366,625,1366,768,8-22-2022,8-40-17,93,depth_duration_stimuli/002549_2014-06-24_13-41-39_094959634447_rgbf000022-resize_3/002549_2014-06-24_13-41-39_094959634447_rgbf000022-resize_3-target.png,1000,1.476,2.0,2946,1020,meters,jsons/v1_VE1000_randls_42.json,1719747,2262912,1972,Woman
93,138942,DepthScenes,duration_manipulation_targetAtFixation,jsons/v1_VE1000_randls_42.json,http://54.235.29.9/FacialAge/BNav_EC2/DepthDuration/v2_depth_duration_MTurk/v2_DepthDuration_HTML.html#134,134,1366,625,1366,768,8-22-2022,8-40-17,94,depth_duration_stimuli/002750_2014-06-22_19-08-03_094959634447_rgbf000094-resize_4/002750_2014-06-22_19-08-03_094959634447_rgbf000094-resize_4-target.png,1000,2.354,0.0,6511,986,meters,jsons/v1_VE1000_randls_42.json,1719747,2262912,1972,Woman
94,138942,DepthScenes,duration_manipulation_targetAtFixation,jsons/v1_VE1000_randls_42.json,http://54.235.29.9/FacialAge/BNav_EC2/DepthDuration/v2_depth_duration_MTurk/v2_DepthDuration_HTML.html#134,134,1366,625,1366,768,8-22-2022,8-40-17,95,depth_duration_stimuli/002905_2014-06-03_18-04-43_094959634447_rgbf000151-resize_2/002905_2014-06-03_18-04-43_094959634447_rgbf000151-resize_2-target.png,1000,2.0295,2.0,3866,997,meters,jsons/v1_VE1000_randls_42.json,1719747,2262912,1972,Woman
95,138942,DepthScenes,duration_manipulation_targetAtFixation,jsons/v1_VE1000_randls_42.json,http://54.235.29.9/FacialAge/BNav_EC2/DepthDuration/v2_depth_duration_MTurk/v2_DepthDuration_HTML.html#134,134,1366,625,1366,768,8-22-2022,8-40-17,96,depth_duration_stimuli/003423_2014-05-21_10-23-26_094959634447_rgbf002665-resize_2/003423_2014-05-21_10-23-26_094959634447_rgbf002665-resize_2-target.png,1000,3.2575,2.0,3590,1005,meters,jsons/v1_VE1000_randls_42.json,1719747,2262912,1972,Woman
96,138942,DepthScenes,duration_manipulation_targetAtFixation,jsons/v1_VE1000_randls_42.json,http://54.235.29.9/FacialAge/BNav_EC2/DepthDuration/v2_depth_duration_MTurk/v2_DepthDuration_HTML.html#134,134,1366,625,1366,768,8-22-2022,8-40-17,97,depth_duration_stimuli/000773_2014-06-08_22-24-54_260595134347_rgbf000093-resize_1/000773_2014-06-08_22-24-54_260595134347_rgbf000093-resize_1-target.png,1000,4.973,2.0,4149,1001,meters,jsons/v1_VE1000_randls_42.json,1719747,2262912,1972,Woman
97,138942,DepthScenes,duration_manipulation_targetAtFixation,jsons/v1_VE1000_randls_42.json,http://54.235.29.9/FacialAge/BNav_EC2/DepthDuration/v2_depth_duration_MTurk/v2_DepthDuration_HTML.html#134,134,1366,625,1366,768,8-22-2022,8-40-17,98,depth_duration_stimuli/002414_2014-06-28_20-24-58_260595134347_rgbf000067-resize_4/002414_2014-06-28_20-24-58_260595134347_rgbf000067-resize_4-target.png,1000,4.363,3.0,3043,998,meters,jsons/v1_VE1000_randls_42.json,1719747,2262912,1972,Woman
98,138942,DepthScenes,duration_manipulation_targetAtFixation,jsons/v1_VE1000_randls_42.json,http://54.235.29.9/FacialAge/BNav_EC2/DepthDuration/v2_depth_duration_MTurk/v2_DepthDuration_HTML.html#134,134,1366,625,1366,768,8-22-2022,8-40-17,99,depth_duration_stimuli/001540_2014-06-20_17-01-05_260595134347_rgbf000086-resize_2/001540_2014-06-20_17-01-05_260595134347_rgbf000086-resize-original.jpg,1000,1.459,2.0,2826,999,meters,jsons/v1_VE1000_randls_42.json,1719747,2262912,1972,Woman
99,138942,DepthScenes,duration_manipulation_targetAtFixation,jsons/v1_VE1000_randls_42.json,http://54.235.29.9/FacialAge/BNav_EC2/DepthDuration/v2_depth_duration_MTurk/v2_DepthDuration_HTML.html#134,134,1366,625,1366,768,8-22-2022,8-40-17,100,depth_duration_stimuli/002153_2014-06-25_21-27-18_260595134347_rgbf000038-resize_5/002153_2014-06-25_21-27-18_260595134347_rgbf000038-resize_5-target.png,1000,2.505,3.0,5964,1002,meters,jsons/v1_VE1000_randls_42.json,1719747,2262912,1972,Woman
100,138942,DepthScenes,duration_manipulation_targetAtFixation,jsons/v1_VE1000_randls_42.json,http://54.235.29.9/FacialAge/BNav_EC2/DepthDuration/v2_depth_duration_MTurk/v2_DepthDuration_HTML.html#134,134,1366,625,1366,768,8-22-2022,8-40-17,101,depth_duration_stimuli/002660_2014-06-13_15-44-18_094959634447_rgbf001878-resize_2/002660_2014-06-13_15-44-18_094959634447_rgbf001878-resize_2-target.png,1000,3.576,3.0,10687,978,meters,jsons/v1_VE1000_randls_42.json,1719747,2262912,1972,Woman
101,138942,DepthScenes,duration_manipulation_targetAtFixation,jsons/v1_VE1000_randls_42.json,http://54.235.29.9/FacialAge/BNav_EC2/DepthDuration/v2_depth_duration_MTurk/v2_DepthDuration_HTML.html#134,134,1366,625,1366,768,8-22-2022,8-40-17,102,depth_duration_stimuli/001029_2014-06-08_13-17-57_260595134347_rgbf000065-resize_1/001029_2014-06-08_13-17-57_260595134347_rgbf000065-resize_1-target.png,1000,3.0835,2.0,14887,1002,meters,jsons/v1_VE1000_randls_42.json,1719747,2262912,1972,Woman
102,138942,DepthScenes,duration_manipulation_targetAtFixation,jsons/v1_VE1000_randls_42.json,http://54.235.29.9/FacialAge/BNav_EC2/DepthDuration/v2_depth_duration_MTurk/v2_DepthDuration_HTML.html#134,134,1366,625,1366,768,8-22-2022,8-40-17,103,depth_duration_stimuli/000677_2014-06-08_23-10-32_260595134347_rgbf000158-resize_6/000677_2014-06-08_23-10-32_260595134347_rgbf000158-resize_6-target.png,1000,3.556,2.0,3216,1018,meters,jsons/v1_VE1000_randls_42.json,1719747,2262912,1972,Woman
103,138942,DepthScenes,duration_manipulation_targetAtFixation,jsons/v1_VE1000_randls_42.json,http://54.235.29.9/FacialAge/BNav_EC2/DepthDuration/v2_depth_duration_MTurk/v2_DepthDuration_HTML.html#134,134,1366,625,1366,768,8-22-2022,8-40-17,104,depth_duration_stimuli/001133_2014-06-17_14-49-16_260595134347_rgbf000100-resize_0/001133_2014-06-17_14-49-16_260595134347_rgbf000100-resize_0-target.png,1000,4.2115,3.0,3117,1004,meters,jsons/v1_VE1000_randls_42.json,1719747,2262912,1972,Woman
104,138942,DepthScenes,duration_manipulation_targetAtFixation,jsons/v1_VE1000_randls_42.json,http://54.235.29.9/FacialAge/BNav_EC2/DepthDuration/v2_depth_duration_MTurk/v2_DepthDuration_HTML.html#134,134,1366,625,1366,768,8-22-2022,8-40-17,105,depth_duration_stimuli/001132_2014-06-17_14-48-54_260595134347_rgbf000100-resize_2/001132_2014-06-17_14-48-54_260595134347_rgbf000100-resize_2-target.png,1000,3.753,2.0,3313,1007,meters,jsons/v1_VE1000_randls_42.json,1719747,2262912,1972,Woman
105,138942,DepthScenes,duration_manipulation_targetAtFixation,jsons/v1_VE1000_randls_42.json,http://54.235.29.9/FacialAge/BNav_EC2/DepthDuration/v2_depth_duration_MTurk/v2_DepthDuration_HTML.html#134,134,1366,625,1366,768,8-22-2022,8-40-17,106,depth_duration_stimuli/002964_2014-06-08_17-46-11_094959634447_rgbf000091-resize_4/002964_2014-06-08_17-46-11_094959634447_rgbf000091-resize_4-target.png,1000,1.6909999999999998,3.0,3058,1005,meters,jsons/v1_VE1000_randls_42.json,1719747,2262912,1972,Woman
106,138942,DepthScenes,duration_manipulation_targetAtFixation,jsons/v1_VE1000_randls_42.json,http://54.235.29.9/FacialAge/BNav_EC2/DepthDuration/v2_depth_duration_MTurk/v2_DepthDuration_HTML.html#134,134,1366,625,1366,768,8-22-2022,8-40-17,107,depth_duration_stimuli/002136_2014-06-25_21-18-03_260595134347_rgbf000109-resize_3/002136_2014-06-25_21-18-03_260595134347_rgbf000109-resize_3-target.png,1000,1.9569999999999999,2.0,2877,1001,meters,jsons/v1_VE1000_randls_42.json,1719747,2262912,1972,Woman
107,138942,DepthScenes,duration_manipulation_targetAtFixation,jsons/v1_VE1000_randls_42.json,http://54.235.29.9/FacialAge/BNav_EC2/DepthDuration/v2_depth_duration_MTurk/v2_DepthDuration_HTML.html#134,134,1366,625,1366,768,8-22-2022,8-40-17,108,depth_duration_stimuli/001808_2014-06-26_20-50-58_260595134347_rgbf000029-resize_1/001808_2014-06-26_20-50-58_260595134347_rgbf000029-resize_1-target.png,1000,4.249,3.0,3066,1004,meters,jsons/v1_VE1000_randls_42.json,1719747,2262912,1972,Woman
108,138942,DepthScenes,duration_manipulation_targetAtFixation,jsons/v1_VE1000_randls_42.json,http://54.235.29.9/FacialAge/BNav_EC2/DepthDuration/v2_depth_duration_MTurk/v2_DepthDuration_HTML.html#134,134,1366,625,1366,768,8-22-2022,8-40-17,109,depth_duration_stimuli/001815_2014-06-26_20-52-55_260595134347_rgbf000020-resize_0/001815_2014-06-26_20-52-55_260595134347_rgbf000020-resize_0-target.png,1000,3.3865,2.0,3546,1004,meters,jsons/v1_VE1000_randls_42.json,1719747,2262912,1972,Woman
109,138942,DepthScenes,duration_manipulation_targetAtFixation,jsons/v1_VE1000_randls_42.json,http://54.235.29.9/FacialAge/BNav_EC2/DepthDuration/v2_depth_duration_MTurk/v2_DepthDuration_HTML.html#134,134,1366,625,1366,768,8-22-2022,8-40-17,110,depth_duration_stimuli/000929_2014-06-09_16-33-19_260595134347_rgbf000139-resize_0/000929_2014-06-09_16-33-19_260595134347_rgbf000139-resize_0-target.png,1000,2.8680000000000003,2.0,7844,986,meters,jsons/v1_VE1000_randls_42.json,1719747,2262912,1972,Woman
110,138942,DepthScenes,duration_manipulation_targetAtFixation,jsons/v1_VE1000_randls_42.json,http://54.235.29.9/FacialAge/BNav_EC2/DepthDuration/v2_depth_duration_MTurk/v2_DepthDuration_HTML.html#134,134,1366,625,1366,768,8-22-2022,8-40-17,111,depth_duration_stimuli/000457_2014-06-08_16-52-43_260595134347_rgbf000199-resize_1/000457_2014-06-08_16-52-43_260595134347_rgbf000199-resize_1-target.png,1000,3.6489999999999996,2.0,3620,987,meters,jsons/v1_VE1000_randls_42.json,1719747,2262912,1972,Woman
111,138942,DepthScenes,duration_manipulation_targetAtFixation,jsons/v1_VE1000_randls_42.json,http://54.235.29.9/FacialAge/BNav_EC2/DepthDuration/v2_depth_duration_MTurk/v2_DepthDuration_HTML.html#134,134,1366,625,1366,768,8-22-2022,8-40-17,112,depth_duration_stimuli/000447_2014-06-08_16-15-46_260595134347_rgbf000130-resize_1/000447_2014-06-08_16-15-46_260595134347_rgbf000130-resize_1-target.png,1000,4.479,3.0,138506,1010,meters,jsons/v1_VE1000_randls_42.json,1719747,2262912,1972,Woman
112,138942,DepthScenes,duration_manipulation_targetAtFixation,jsons/v1_VE1000_randls_42.json,http://54.235.29.9/FacialAge/BNav_EC2/DepthDuration/v2_depth_duration_MTurk/v2_DepthDuration_HTML.html#134,134,1366,625,1366,768,8-22-2022,8-40-17,113,depth_duration_stimuli/001447_2014-06-19_17-00-32_260595134347_rgbf000082-resize_5/001447_2014-06-19_17-00-32_260595134347_rgbf000082-resize_5-target.png,1000,4.13775,2.0,3097,1001,meters,jsons/v1_VE1000_randls_42.json,1719747,2262912,1972,Woman
113,138942,DepthScenes,duration_manipulation_targetAtFixation,jsons/v1_VE1000_randls_42.json,http://54.235.29.9/FacialAge/BNav_EC2/DepthDuration/v2_depth_duration_MTurk/v2_DepthDuration_HTML.html#134,134,1366,625,1366,768,8-22-2022,8-40-17,114,depth_duration_stimuli/000493_2014-06-09_21-01-18_260595134347_rgbf000196-resize_3/000493_2014-06-09_21-01-18_260595134347_rgbf000196-resize_3-target.png,1000,3.44,3.0,3362,998,meters,jsons/v1_VE1000_randls_42.json,1719747,2262912,1972,Woman
114,138942,DepthScenes,duration_manipulation_targetAtFixation,jsons/v1_VE1000_randls_42.json,http://54.235.29.9/FacialAge/BNav_EC2/DepthDuration/v2_depth_duration_MTurk/v2_DepthDuration_HTML.html#134,134,1366,625,1366,768,8-22-2022,8-40-17,115,depth_duration_stimuli/000191_2014-05-12_17-07-38_260595134347_rgbf000199-resize_0/000191_2014-05-12_17-07-38_260595134347_rgbf000199-resize_0-target.png,1000,3.7995,2.0,2889,998,meters,jsons/v1_VE1000_randls_42.json,1719747,2262912,1972,Woman
115,138942,DepthScenes,duration_manipulation_targetAtFixation,jsons/v1_VE1000_randls_42.json,http://54.235.29.9/FacialAge/BNav_EC2/DepthDuration/v2_depth_duration_MTurk/v2_DepthDuration_HTML.html#134,134,1366,625,1366,768,8-22-2022,8-40-17,116,depth_duration_stimuli/001170_2014-06-17_15-43-44_260595134347_rgbf000096-resize_6/001170_2014-06-17_15-43-44_260595134347_rgbf000096-resize-original.jpg,1000,1.1909999999999998,3.0,3551,994,meters,jsons/v1_VE1000_randls_42.json,1719747,2262912,1972,Woman
116,138942,DepthScenes,duration_manipulation_targetAtFixation,jsons/v1_VE1000_randls_42.json,http://54.235.29.9/FacialAge/BNav_EC2/DepthDuration/v2_depth_duration_MTurk/v2_DepthDuration_HTML.html#134,134,1366,625,1366,768,8-22-2022,8-40-17,117,depth_duration_stimuli/002279_2014-06-28_18-55-32_260595134347_rgbf000040-resize_5/002279_2014-06-28_18-55-32_260595134347_rgbf000040-resize_5-target.png,1000,1.5043333333333,2.0,3499,1001,meters,jsons/v1_VE1000_randls_42.json,1719747,2262912,1972,Woman
117,138942,DepthScenes,duration_manipulation_targetAtFixation,jsons/v1_VE1000_randls_42.json,http://54.235.29.9/FacialAge/BNav_EC2/DepthDuration/v2_depth_duration_MTurk/v2_DepthDuration_HTML.html#134,134,1366,625,1366,768,8-22-2022,8-40-17,118,depth_duration_stimuli/000635_2014-06-08_16-38-42_260595134347_rgbf000106-resize_1/000635_2014-06-08_16-38-42_260595134347_rgbf000106-resize_1-target.png,1000,2.074,3.0,4777,999,meters,jsons/v1_VE1000_randls_42.json,1719747,2262912,1972,Woman
118,138942,DepthScenes,duration_manipulation_targetAtFixation,jsons/v1_VE1000_randls_42.json,http://54.235.29.9/FacialAge/BNav_EC2/DepthDuration/v2_depth_duration_MTurk/v2_DepthDuration_HTML.html#134,134,1366,625,1366,768,8-22-2022,8-40-17,119,depth_duration_stimuli/001175_2014-06-17_15-45-55_260595134347_rgbf000129-resize_4/001175_2014-06-17_15-45-55_260595134347_rgbf000129-resize_4-target.png,1000,4.255,2.0,6398,1029,meters,jsons/v1_VE1000_randls_42.json,1719747,2262912,1972,Woman
119,138942,DepthScenes,duration_manipulation_targetAtFixation,jsons/v1_VE1000_randls_42.json,http://54.235.29.9/FacialAge/BNav_EC2/DepthDuration/v2_depth_duration_MTurk/v2_DepthDuration_HTML.html#134,134,1366,625,1366,768,8-22-2022,8-40-17,120,depth_duration_stimuli/003490_2014-05-21_15-50-11_094959634447_rgbf000101-resize_3/003490_2014-05-21_15-50-11_094959634447_rgbf000101-resize_3-target.png,1000,3.6445,2.0,5318,977,meters,jsons/v1_VE1000_randls_42.json,1719747,2262912,1972,Woman
120,138942,DepthScenes,duration_manipulation_targetAtFixation,jsons/v1_VE1000_randls_42.json,http://54.235.29.9/FacialAge/BNav_EC2/DepthDuration/v2_depth_duration_MTurk/v2_DepthDuration_HTML.html#134,134,1366,625,1366,768,8-22-2022,8-40-17,121,depth_duration_stimuli/001150_2014-06-17_15-27-34_260595134347_rgbf000108-resize_2/001150_2014-06-17_15-27-34_260595134347_rgbf000108-resize_2-target.png,1000,4.0325,2.0,4620,995,meters,jsons/v1_VE1000_randls_42.json,1719747,2262912,1972,Woman
121,138942,DepthScenes,duration_manipulation_targetAtFixation,jsons/v1_VE1000_randls_42.json,http://54.235.29.9/FacialAge/BNav_EC2/DepthDuration/v2_depth_duration_MTurk/v2_DepthDuration_HTML.html#134,134,1366,625,1366,768,8-22-2022,8-40-17,122,depth_duration_stimuli/000665_2014-06-09_20-42-35_260595134347_rgbf000110-resize_1/000665_2014-06-09_20-42-35_260595134347_rgbf000110-resize_1-target.png,1000,3.057,3.0,4667,1004,meters,jsons/v1_VE1000_randls_42.json,1719747,2262912,1972,Woman
122,138942,DepthScenes,duration_manipulation_targetAtFixation,jsons/v1_VE1000_randls_42.json,http://54.235.29.9/FacialAge/BNav_EC2/DepthDuration/v2_depth_duration_MTurk/v2_DepthDuration_HTML.html#134,134,1366,625,1366,768,8-22-2022,8-40-17,123,depth_duration_stimuli/000810_2014-06-08_17-20-01_260595134347_rgbf000105-resize_0/000810_2014-06-08_17-20-01_260595134347_rgbf000105-resize_0-target.png,1000,1.4865,3.0,7931,1001,meters,jsons/v1_VE1000_randls_42.json,1719747,2262912,1972,Woman
123,138942,DepthScenes,duration_manipulation_targetAtFixation,jsons/v1_VE1000_randls_42.json,http://54.235.29.9/FacialAge/BNav_EC2/DepthDuration/v2_depth_duration_MTurk/v2_DepthDuration_HTML.html#134,134,1366,625,1366,768,8-22-2022,8-40-17,124,depth_duration_stimuli/001214_2014-06-17_16-13-55_260595134347_rgbf000111-resize_0/001214_2014-06-17_16-13-55_260595134347_rgbf000111-resize_0-target.png,1000,2.6505,3.0,23087,997,meters,jsons/v1_VE1000_randls_42.json,1719747,2262912,1972,Woman
124,138942,DepthScenes,duration_manipulation_targetAtFixation,jsons/v1_VE1000_randls_42.json,http://54.235.29.9/FacialAge/BNav_EC2/DepthDuration/v2_depth_duration_MTurk/v2_DepthDuration_HTML.html#134,134,1366,625,1366,768,8-22-2022,8-40-17,125,depth_duration_stimuli/001092_2014-06-15_17-34-58_260595134347_rgbf000171-resize_3/001092_2014-06-15_17-34-58_260595134347_rgbf000171-resize_3-target.png,1000,2.6935,2.0,4122,1003,meters,jsons/v1_VE1000_randls_42.json,1719747,2262912,1972,Woman
125,138942,DepthScenes,duration_manipulation_targetAtFixation,jsons/v1_VE1000_randls_42.json,http://54.235.29.9/FacialAge/BNav_EC2/DepthDuration/v2_depth_duration_MTurk/v2_DepthDuration_HTML.html#134,134,1366,625,1366,768,8-22-2022,8-40-17,126,depth_duration_stimuli/002545_2014-06-24_13-38-53_094959634447_rgbf000080-resize_4/002545_2014-06-24_13-38-53_094959634447_rgbf000080-resize_4-target.png,1000,1.9205,3.0,4647,1003,meters,jsons/v1_VE1000_randls_42.json,1719747,2262912,1972,Woman
126,138942,DepthScenes,duration_manipulation_targetAtFixation,jsons/v1_VE1000_randls_42.json,http://54.235.29.9/FacialAge/BNav_EC2/DepthDuration/v2_depth_duration_MTurk/v2_DepthDuration_HTML.html#134,134,1366,625,1366,768,8-22-2022,8-40-17,127,depth_duration_stimuli/000414_2014-06-04_19-49-13_260595134347_rgbf000044-resize_0/000414_2014-06-04_19-49-13_260595134347_rgbf000044-resize_0-target.png,1000,4.329,2.0,4078,997,meters,jsons/v1_VE1000_randls_42.json,1719747,2262912,1972,Woman
127,138942,DepthScenes,duration_manipulation_targetAtFixation,jsons/v1_VE1000_randls_42.json,http://54.235.29.9/FacialAge/BNav_EC2/DepthDuration/v2_depth_duration_MTurk/v2_DepthDuration_HTML.html#134,134,1366,625,1366,768,8-22-2022,8-40-17,128,depth_duration_stimuli/003129_2014-05-12_10-48-10_094959634447_rgbf000100-resize_0/003129_2014-05-12_10-48-10_094959634447_rgbf000100-resize_0-target.png,1000,4.9305,3.0,7776,1007,meters,jsons/v1_VE1000_randls_42.json,1719747,2262912,1972,Woman
128,138942,DepthScenes,duration_manipulation_targetAtFixation,jsons/v1_VE1000_randls_42.json,http://54.235.29.9/FacialAge/BNav_EC2/DepthDuration/v2_depth_duration_MTurk/v2_DepthDuration_HTML.html#134,134,1366,625,1366,768,8-22-2022,8-40-17,129,depth_duration_stimuli/002630_2014-06-24_14-47-50_094959634447_rgbf000055-resize_1/002630_2014-06-24_14-47-50_094959634447_rgbf000055-resize_1-target.png,1000,3.0095,2.0,9216,990,meters,jsons/v1_VE1000_randls_42.json,1719747,2262912,1972,Woman
129,138942,DepthScenes,duration_manipulation_targetAtFixation,jsons/v1_VE1000_randls_42.json,http://54.235.29.9/FacialAge/BNav_EC2/DepthDuration/v2_depth_duration_MTurk/v2_DepthDuration_HTML.html#134,134,1366,625,1366,768,8-22-2022,8-40-17,130,depth_duration_stimuli/002758_2014-06-22_19-11-20_094959634447_rgbf000128-resize_1/002758_2014-06-22_19-11-20_094959634447_rgbf000128-resize_1-target.png,1000,2.555,2.0,3540,1002,meters,jsons/v1_VE1000_randls_42.json,1719747,2262912,1972,Woman
130,138942,DepthScenes,duration_manipulation_targetAtFixation,jsons/v1_VE1000_randls_42.json,http://54.235.29.9/FacialAge/BNav_EC2/DepthDuration/v2_depth_duration_MTurk/v2_DepthDuration_HTML.html#134,134,1366,625,1366,768,8-22-2022,8-40-17,131,depth_duration_stimuli/000917_2014-06-09_22-45-29_260595134347_rgbf000149-resize_3/000917_2014-06-09_22-45-29_260595134347_rgbf000149-resize_3-target.png,1000,4.1865,3.0,3306,1004,meters,jsons/v1_VE1000_randls_42.json,1719747,2262912,1972,Woman
131,138942,DepthScenes,duration_manipulation_targetAtFixation,jsons/v1_VE1000_randls_42.json,http://54.235.29.9/FacialAge/BNav_EC2/DepthDuration/v2_depth_duration_MTurk/v2_DepthDuration_HTML.html#134,134,1366,625,1366,768,8-22-2022,8-40-17,132,depth_duration_stimuli/002323_2014-06-28_20-01-54_260595134347_rgbf000051-resize_4/002323_2014-06-28_20-01-54_260595134347_rgbf000051-resize_4-target.png,1000,3.7310000000000003,2.0,3057,994,meters,jsons/v1_VE1000_randls_42.json,1719747,2262912,1972,Woman
132,138942,DepthScenes,duration_manipulation_targetAtFixation,jsons/v1_VE1000_randls_42.json,http://54.235.29.9/FacialAge/BNav_EC2/DepthDuration/v2_depth_duration_MTurk/v2_DepthDuration_HTML.html#134,134,1366,625,1366,768,8-22-2022,8-40-17,133,depth_duration_stimuli/001806_2014-06-26_20-50-20_260595134347_rgbf000091-resize_1/001806_2014-06-26_20-50-20_260595134347_rgbf000091-resize_1-target.png,1000,2.7305,3.0,15433,1002,meters,jsons/v1_VE1000_randls_42.json,1719747,2262912,1972,Woman
133,138942,DepthScenes,duration_manipulation_targetAtFixation,jsons/v1_VE1000_randls_42.json,http://54.235.29.9/FacialAge/BNav_EC2/DepthDuration/v2_depth_duration_MTurk/v2_DepthDuration_HTML.html#134,134,1366,625,1366,768,8-22-2022,8-40-17,134,depth_duration_stimuli/001617_2014-06-20_11-35-32_260595134347_rgbf000066-resize_1/001617_2014-06-20_11-35-32_260595134347_rgbf000066-resize_1-target.png,1000,3.7910000000000004,0.0,9145,1006,meters,jsons/v1_VE1000_randls_42.json,1719747,2262912,1972,Woman
134,138942,DepthScenes,duration_manipulation_targetAtFixation,jsons/v1_VE1000_randls_42.json,http://54.235.29.9/FacialAge/BNav_EC2/DepthDuration/v2_depth_duration_MTurk/v2_DepthDuration_HTML.html#134,134,1366,625,1366,768,8-22-2022,8-40-17,135,depth_duration_stimuli/002072_2014-06-24_21-48-06_260595134347_rgbf000115-resize_0/002072_2014-06-24_21-48-06_260595134347_rgbf000115-resize-original.jpg,1000,4.702,2.0,6330,1005,meters,jsons/v1_VE1000_randls_42.json,1719747,2262912,1972,Woman
135,138942,DepthScenes,duration_manipulation_targetAtFixation,jsons/v1_VE1000_randls_42.json,http://54.235.29.9/FacialAge/BNav_EC2/DepthDuration/v2_depth_duration_MTurk/v2_DepthDuration_HTML.html#134,134,1366,625,1366,768,8-22-2022,8-40-17,136,depth_duration_stimuli/001199_2014-06-17_16-03-48_260595134347_rgbf000077-resize_0/001199_2014-06-17_16-03-48_260595134347_rgbf000077-resize_0-target.png,1000,3.4375,2.0,14083,998,meters,jsons/v1_VE1000_randls_42.json,1719747,2262912,1972,Woman
136,138942,DepthScenes,duration_manipulation_targetAtFixation,jsons/v1_VE1000_randls_42.json,http://54.235.29.9/FacialAge/BNav_EC2/DepthDuration/v2_depth_duration_MTurk/v2_DepthDuration_HTML.html#134,134,1366,625,1366,768,8-22-2022,8-40-17,137,depth_duration_stimuli/000502_2014-06-08_23-02-32_260595134347_rgbf000063-resize_4/000502_2014-06-08_23-02-32_260595134347_rgbf000063-resize_4-target.png,1000,2.431,2.0,16144,997,meters,jsons/v1_VE1000_randls_42.json,1719747,2262912,1972,Woman
137,138942,DepthScenes,duration_manipulation_targetAtFixation,jsons/v1_VE1000_randls_42.json,http://54.235.29.9/FacialAge/BNav_EC2/DepthDuration/v2_depth_duration_MTurk/v2_DepthDuration_HTML.html#134,134,1366,625,1366,768,8-22-2022,8-40-17,138,depth_duration_stimuli/003492_2014-05-21_15-50-55_094959634447_rgbf000828-resize_1/003492_2014-05-21_15-50-55_094959634447_rgbf000828-resize_1-target.png,1000,4.06875,2.0,3859,993,meters,jsons/v1_VE1000_randls_42.json,1719747,2262912,1972,Woman
138,138942,DepthScenes,duration_manipulation_targetAtFixation,jsons/v1_VE1000_randls_42.json,http://54.235.29.9/FacialAge/BNav_EC2/DepthDuration/v2_depth_duration_MTurk/v2_DepthDuration_HTML.html#134,134,1366,625,1366,768,8-22-2022,8-40-17,139,depth_duration_stimuli/002568_2014-06-24_13-59-21_094959634447_rgbf000062-resize_4/002568_2014-06-24_13-59-21_094959634447_rgbf000062-resize_4-target.png,1000,3.015,2.0,12253,1001,meters,jsons/v1_VE1000_randls_42.json,1719747,2262912,1972,Woman
139,138942,DepthScenes,duration_manipulation_targetAtFixation,jsons/v1_VE1000_randls_42.json,http://54.235.29.9/FacialAge/BNav_EC2/DepthDuration/v2_depth_duration_MTurk/v2_DepthDuration_HTML.html#134,134,1366,625,1366,768,8-22-2022,8-40-17,140,depth_duration_stimuli/001011_2014-06-08_23-18-54_260595134347_rgbf000044-resize_4/001011_2014-06-08_23-18-54_260595134347_rgbf000044-resize_4-target.png,1000,2.4730000000000003,2.0,13604,999,meters,jsons/v1_VE1000_randls_42.json,1719747,2262912,1972,Woman
140,138942,DepthScenes,duration_manipulation_targetAtFixation,jsons/v1_VE1000_randls_42.json,http://54.235.29.9/FacialAge/BNav_EC2/DepthDuration/v2_depth_duration_MTurk/v2_DepthDuration_HTML.html#134,134,1366,625,1366,768,8-22-2022,8-40-17,141,depth_duration_stimuli/002875_2014-06-01_15-19-00_094959634447_rgbf000151-resize_1/002875_2014-06-01_15-19-00_094959634447_rgbf000151-resize_1-target.png,1000,1.9675,2.0,3342,994,meters,jsons/v1_VE1000_randls_42.json,1719747,2262912,1972,Woman
141,138942,DepthScenes,duration_manipulation_targetAtFixation,jsons/v1_VE1000_randls_42.json,http://54.235.29.9/FacialAge/BNav_EC2/DepthDuration/v2_depth_duration_MTurk/v2_DepthDuration_HTML.html#134,134,1366,625,1366,768,8-22-2022,8-40-17,142,depth_duration_stimuli/002118_2014-06-25_20-32-08_260595134347_rgbf000078-resize_1/002118_2014-06-25_20-32-08_260595134347_rgbf000078-resize_1-target.png,1000,2.6460000000000004,3.0,14692,1003,meters,jsons/v1_VE1000_randls_42.json,1719747,2262912,1972,Woman
142,138942,DepthScenes,duration_manipulation_targetAtFixation,jsons/v1_VE1000_randls_42.json,http://54.235.29.9/FacialAge/BNav_EC2/DepthDuration/v2_depth_duration_MTurk/v2_DepthDuration_HTML.html#134,134,1366,625,1366,768,8-22-2022,8-40-17,143,depth_duration_stimuli/001516_2014-06-20_16-25-09_260595134347_rgbf000076-resize_2/001516_2014-06-20_16-25-09_260595134347_rgbf000076-resize_2-target.png,1000,1.7445,2.0,4636,998,meters,jsons/v1_VE1000_randls_42.json,1719747,2262912,1972,Woman
143,138942,DepthScenes,duration_manipulation_targetAtFixation,jsons/v1_VE1000_randls_42.json,http://54.235.29.9/FacialAge/BNav_EC2/DepthDuration/v2_depth_duration_MTurk/v2_DepthDuration_HTML.html#134,134,1366,625,1366,768,8-22-2022,8-40-17,144,depth_duration_stimuli/000009_2014-05-26_14-32-05_260595134347_rgbf000034-resize_3/000009_2014-05-26_14-32-05_260595134347_rgbf000034-resize_3-target.png,1000,3.8715,3.0,3358,1002,meters,jsons/v1_VE1000_randls_42.json,1719747,2262912,1972,Woman
144,138942,DepthScenes,duration_manipulation_targetAtFixation,jsons/v1_VE1000_randls_42.json,http://54.235.29.9/FacialAge/BNav_EC2/DepthDuration/v2_depth_duration_MTurk/v2_DepthDuration_HTML.html#134,134,1366,625,1366,768,8-22-2022,8-40-17,145,depth_duration_stimuli/001828_2014-06-26_21-40-03_260595134347_rgbf000024-resize_0/001828_2014-06-26_21-40-03_260595134347_rgbf000024-resize_0-target.png,1000,4.8260000000000005,2.0,3398,1007,meters,jsons/v1_VE1000_randls_42.json,1719747,2262912,1972,Woman
145,138942,DepthScenes,duration_manipulation_targetAtFixation,jsons/v1_VE1000_randls_42.json,http://54.235.29.9/FacialAge/BNav_EC2/DepthDuration/v2_depth_duration_MTurk/v2_DepthDuration_HTML.html#134,134,1366,625,1366,768,8-22-2022,8-40-17,146,depth_duration_stimuli/001498_2014-06-19_17-45-14_260595134347_rgbf000129-resize_4/001498_2014-06-19_17-45-14_260595134347_rgbf000129-resize-original.jpg,1000,1.4075,2.0,4943,988,meters,jsons/v1_VE1000_randls_42.json,1719747,2262912,1972,Woman
146,138942,DepthScenes,duration_manipulation_targetAtFixation,jsons/v1_VE1000_randls_42.json,http://54.235.29.9/FacialAge/BNav_EC2/DepthDuration/v2_depth_duration_MTurk/v2_DepthDuration_HTML.html#134,134,1366,625,1366,768,8-22-2022,8-40-17,147,depth_duration_stimuli/000906_2014-06-08_13-35-43_260595134347_rgbf000155-resize_1/000906_2014-06-08_13-35-43_260595134347_rgbf000155-resize_1-target.png,1000,2.8489999999999998,2.0,3367,1001,meters,jsons/v1_VE1000_randls_42.json,1719747,2262912,1972,Woman
147,138942,DepthScenes,duration_manipulation_targetAtFixation,jsons/v1_VE1000_randls_42.json,http://54.235.29.9/FacialAge/BNav_EC2/DepthDuration/v2_depth_duration_MTurk/v2_DepthDuration_HTML.html#134,134,1366,625,1366,768,8-22-2022,8-40-17,148,depth_duration_stimuli/002805_2014-06-22_19-54-03_094959634447_rgbf000079-resize_1/002805_2014-06-22_19-54-03_094959634447_rgbf000079-resize_1-target.png,1000,3.1439999999999997,2.0,15593,1000,meters,jsons/v1_VE1000_randls_42.json,1719747,2262912,1972,Woman
148,138942,DepthScenes,duration_manipulation_targetAtFixation,jsons/v1_VE1000_randls_42.json,http://54.235.29.9/FacialAge/BNav_EC2/DepthDuration/v2_depth_duration_MTurk/v2_DepthDuration_HTML.html#134,134,1366,625,1366,768,8-22-2022,8-40-17,149,depth_duration_stimuli/000736_2014-06-08_18-24-15_260595134347_rgbf000206-resize_3/000736_2014-06-08_18-24-15_260595134347_rgbf000206-resize_3-target.png,1000,3.515,2.0,4093,997,meters,jsons/v1_VE1000_randls_42.json,1719747,2262912,1972,Woman
149,138942,DepthScenes,duration_manipulation_targetAtFixation,jsons/v1_VE1000_randls_42.json,http://54.235.29.9/FacialAge/BNav_EC2/DepthDuration/v2_depth_duration_MTurk/v2_DepthDuration_HTML.html#134,134,1366,625,1366,768,8-22-2022,8-40-17,150,depth_duration_stimuli/000137_2014-05-20_17-04-49_260595134347_rgbf000120-resize_1/000137_2014-05-20_17-04-49_260595134347_rgbf000120-resize_1-target.png,1000,3.786,3.0,4026,1008,meters,jsons/v1_VE1000_randls_42.json,1719747,2262912,1972,Woman
150,138942,DepthScenes,duration_manipulation_targetAtFixation,jsons/v1_VE1000_randls_42.json,http://54.235.29.9/FacialAge/BNav_EC2/DepthDuration/v2_depth_duration_MTurk/v2_DepthDuration_HTML.html#134,134,1366,625,1366,768,8-22-2022,8-40-17,151,depth_duration_stimuli/002988_2014-06-15_12-24-20_094959634447_rgbf000150-resize_1/002988_2014-06-15_12-24-20_094959634447_rgbf000150-resize_1-target.png,1000,4.7669999999999995,2.0,11214,1005,meters,jsons/v1_VE1000_randls_42.json,1719747,2262912,1972,Woman
151,138942,DepthScenes,duration_manipulation_targetAtFixation,jsons/v1_VE1000_randls_42.json,http://54.235.29.9/FacialAge/BNav_EC2/DepthDuration/v2_depth_duration_MTurk/v2_DepthDuration_HTML.html#134,134,1366,625,1366,768,8-22-2022,8-40-17,152,depth_duration_stimuli/001052_2014-06-08_18-24-54_260595134347_rgbf000130-resize_1/001052_2014-06-08_18-24-54_260595134347_rgbf000130-resize_1-target.png,1000,4.1045,4.0,5263,1001,meters,jsons/v1_VE1000_randls_42.json,1719747,2262912,1972,Woman
152,138942,DepthScenes,duration_manipulation_targetAtFixation,jsons/v1_VE1000_randls_42.json,http://54.235.29.9/FacialAge/BNav_EC2/DepthDuration/v2_depth_duration_MTurk/v2_DepthDuration_HTML.html#134,134,1366,625,1366,768,8-22-2022,8-40-17,153,depth_duration_stimuli/003292_2014-05-14_21-53-49_094959634447_rgbf000100-resize_2/003292_2014-05-14_21-53-49_094959634447_rgbf000100-resize_2-target.png,1000,3.4815,3.0,5147,990,meters,jsons/v1_VE1000_randls_42.json,1719747,2262912,1972,Woman
153,138942,DepthScenes,duration_manipulation_targetAtFixation,jsons/v1_VE1000_randls_42.json,http://54.235.29.9/FacialAge/BNav_EC2/DepthDuration/v2_depth_duration_MTurk/v2_DepthDuration_HTML.html#134,134,1366,625,1366,768,8-22-2022,8-40-17,154,depth_duration_stimuli/002639_2014-06-24_14-51-37_094959634447_rgbf000074-resize_4/002639_2014-06-24_14-51-37_094959634447_rgbf000074-resize_4-target.png,1000,4.0375,2.0,3593,994,meters,jsons/v1_VE1000_randls_42.json,1719747,2262912,1972,Woman
154,138942,DepthScenes,duration_manipulation_targetAtFixation,jsons/v1_VE1000_randls_42.json,http://54.235.29.9/FacialAge/BNav_EC2/DepthDuration/v2_depth_duration_MTurk/v2_DepthDuration_HTML.html#134,134,1366,625,1366,768,8-22-2022,8-40-17,155,depth_duration_stimuli/000788_2014-06-08_22-34-36_260595134347_rgbf000131-resize_1/000788_2014-06-08_22-34-36_260595134347_rgbf000131-resize_1-target.png,1000,3.359,2.0,3535,1010,meters,jsons/v1_VE1000_randls_42.json,1719747,2262912,1972,Woman
155,138942,DepthScenes,duration_manipulation_targetAtFixation,jsons/v1_VE1000_randls_42.json,http://54.235.29.9/FacialAge/BNav_EC2/DepthDuration/v2_depth_duration_MTurk/v2_DepthDuration_HTML.html#134,134,1366,625,1366,768,8-22-2022,8-40-17,156,depth_duration_stimuli/001235_2014-06-17_16-37-36_260595134347_rgbf000084-resize_4/001235_2014-06-17_16-37-36_260595134347_rgbf000084-resize_4-target.png,1000,3.6605,2.0,3602,998,meters,jsons/v1_VE1000_randls_42.json,1719747,2262912,1972,Woman
156,138942,DepthScenes,duration_manipulation_targetAtFixation,jsons/v1_VE1000_randls_42.json,http://54.235.29.9/FacialAge/BNav_EC2/DepthDuration/v2_depth_duration_MTurk/v2_DepthDuration_HTML.html#134,134,1366,625,1366,768,8-22-2022,8-40-17,157,depth_duration_stimuli/002784_2014-06-22_19-26-30_094959634447_rgbf000083-resize_3/002784_2014-06-22_19-26-30_094959634447_rgbf000083-resize_3-target.png,1000,1.8046666666667,2.0,6760,1005,meters,jsons/v1_VE1000_randls_42.json,1719747,2262912,1972,Woman
157,138942,DepthScenes,duration_manipulation_targetAtFixation,jsons/v1_VE1000_randls_42.json,http://54.235.29.9/FacialAge/BNav_EC2/DepthDuration/v2_depth_duration_MTurk/v2_DepthDuration_HTML.html#134,134,1366,625,1366,768,8-22-2022,8-40-17,158,depth_duration_stimuli/001100_2014-06-15_17-46-26_260595134347_rgbf000225-resize_2/001100_2014-06-15_17-46-26_260595134347_rgbf000225-resize_2-target.png,1000,2.24,2.0,4781,987,meters,jsons/v1_VE1000_randls_42.json,1719747,2262912,1972,Woman
158,138942,DepthScenes,duration_manipulation_targetAtFixation,jsons/v1_VE1000_randls_42.json,http://54.235.29.9/FacialAge/BNav_EC2/DepthDuration/v2_depth_duration_MTurk/v2_DepthDuration_HTML.html#134,134,1366,625,1366,768,8-22-2022,8-40-17,159,depth_duration_stimuli/002445_2014-06-28_20-32-16_260595134347_rgbf000029-resize_4/002445_2014-06-28_20-32-16_260595134347_rgbf000029-resize_4-target.png,1000,2.5315,3.0,3189,986,meters,jsons/v1_VE1000_randls_42.json,1719747,2262912,1972,Woman
159,138942,DepthScenes,duration_manipulation_targetAtFixation,jsons/v1_VE1000_randls_42.json,http://54.235.29.9/FacialAge/BNav_EC2/DepthDuration/v2_depth_duration_MTurk/v2_DepthDuration_HTML.html#134,134,1366,625,1366,768,8-22-2022,8-40-17,160,depth_duration_stimuli/000780_2014-06-08_22-28-29_260595134347_rgbf000126-resize_1/000780_2014-06-08_22-28-29_260595134347_rgbf000126-resize_1-target.png,1000,3.3825,2.0,5222,987,meters,jsons/v1_VE1000_randls_42.json,1719747,2262912,1972,Woman
160,138942,DepthScenes,duration_manipulation_targetAtFixation,jsons/v1_VE1000_randls_42.json,http://54.235.29.9/FacialAge/BNav_EC2/DepthDuration/v2_depth_duration_MTurk/v2_DepthDuration_HTML.html#134,134,1366,625,1366,768,8-22-2022,8-40-17,161,depth_duration_stimuli/001810_2014-06-26_20-51-35_260595134347_rgbf000040-resize_3/001810_2014-06-26_20-51-35_260595134347_rgbf000040-resize_3-target.png,1000,2.2525,2.0,5415,996,meters,jsons/v1_VE1000_randls_42.json,1719747,2262912,1972,Woman
161,138942,DepthScenes,duration_manipulation_targetAtFixation,jsons/v1_VE1000_randls_42.json,http://54.235.29.9/FacialAge/BNav_EC2/DepthDuration/v2_depth_duration_MTurk/v2_DepthDuration_HTML.html#134,134,1366,625,1366,768,8-22-2022,8-40-17,162,depth_duration_stimuli/003010_2014-06-15_12-54-35_094959634447_rgbf000112-resize_0/003010_2014-06-15_12-54-35_094959634447_rgbf000112-resize_0-target.png,1000,3.1185,2.0,3174,986,meters,jsons/v1_VE1000_randls_42.json,1719747,2262912,1972,Woman
162,138942,DepthScenes,duration_manipulation_targetAtFixation,jsons/v1_VE1000_randls_42.json,http://54.235.29.9/FacialAge/BNav_EC2/DepthDuration/v2_depth_duration_MTurk/v2_DepthDuration_HTML.html#134,134,1366,625,1366,768,8-22-2022,8-40-17,163,depth_duration_stimuli/001056_2014-06-08_18-46-44_260595134347_rgbf000068-resize_0/001056_2014-06-08_18-46-44_260595134347_rgbf000068-resize_0-target.png,1000,2.6625,2.0,4668,995,meters,jsons/v1_VE1000_randls_42.json,1719747,2262912,1972,Woman
163,138942,DepthScenes,duration_manipulation_targetAtFixation,jsons/v1_VE1000_randls_42.json,http://54.235.29.9/FacialAge/BNav_EC2/DepthDuration/v2_depth_duration_MTurk/v2_DepthDuration_HTML.html#134,134,1366,625,1366,768,8-22-2022,8-40-17,164,depth_duration_stimuli/002199_2014-06-28_18-33-56_260595134347_rgbf000074-resize_0/002199_2014-06-28_18-33-56_260595134347_rgbf000074-resize_0-target.png,1000,1.996,3.0,3322,989,meters,jsons/v1_VE1000_randls_42.json,1719747,2262912,1972,Woman
