,subjID,experimentName,versionName,sequenceName,url,selected_row,windowWidth,windowHeight,screenWidth,screenHeight,startDate,startTime,trial,stimulus,duration,actual_depth,depth_estimate,trial_RT,log_sceneDuration,unitSelection,seq_filepath,experimentTime,totalTime,age,gender
0,139519,DepthScenes,duration_manipulation_targetAtFixation,jsons/VE125_randls_52_rotated.json,http://54.235.29.9/FacialAge/BNav_EC2/DepthDuration/v2_depth_duration_MTurk/v2_DepthDuration_HTML.html#234,234,1396,663,1536,864,8-29-2022,14-46-39,1,depth_duration_stimuli/003495_2014-05-21_16-01-51_094959634447_rgbf000100-resize_3/003495_2014-05-21_16-01-51_094959634447_rgbf000100-resize_3-target.png,125,1.6255,2,4063,123,meters,jsons/VE125_randls_52_rotated.json,750509,1002030,26,Woman
1,139519,DepthScenes,duration_manipulation_targetAtFixation,jsons/VE125_randls_52_rotated.json,http://54.235.29.9/FacialAge/BNav_EC2/DepthDuration/v2_depth_duration_MTurk/v2_DepthDuration_HTML.html#234,234,1396,663,1536,864,8-29-2022,14-46-39,2,depth_duration_stimuli/001244_2014-06-17_16-47-45_260595134347_rgbf000030-resize_4/001244_2014-06-17_16-47-45_260595134347_rgbf000030-resize_4-target.png,125,2.0425,1,3821,126,meters,jsons/VE125_randls_52_rotated.json,750509,1002030,26,Woman
2,139519,DepthScenes,duration_manipulation_targetAtFixation,jsons/VE125_randls_52_rotated.json,http://54.235.29.9/FacialAge/BNav_EC2/DepthDuration/v2_depth_duration_MTurk/v2_DepthDuration_HTML.html#234,234,1396,663,1536,864,8-29-2022,14-46-39,3,depth_duration_stimuli/002425_2014-06-28_20-27-29_260595134347_rgbf000031-resize_8/002425_2014-06-28_20-27-29_260595134347_rgbf000031-resize_8-target.png,125,3.8960000000000004,3,6938,125,meters,jsons/VE125_randls_52_rotated.json,750509,1002030,26,Woman
3,139519,DepthScenes,duration_manipulation_targetAtFixation,jsons/VE125_randls_52_rotated.json,http://54.235.29.9/FacialAge/BNav_EC2/DepthDuration/v2_depth_duration_MTurk/v2_DepthDuration_HTML.html#234,234,1396,663,1536,864,8-29-2022,14-46-39,4,depth_duration_stimuli/000642_2014-06-08_16-59-25_260595134347_rgbf000098-resize_2/000642_2014-06-08_16-59-25_260595134347_rgbf000098-resize_2-target.png,125,2.8815,2,4840,121,meters,jsons/VE125_randls_52_rotated.json,750509,1002030,26,Woman
4,139519,DepthScenes,duration_manipulation_targetAtFixation,jsons/VE125_randls_52_rotated.json,http://54.235.29.9/FacialAge/BNav_EC2/DepthDuration/v2_depth_duration_MTurk/v2_DepthDuration_HTML.html#234,234,1396,663,1536,864,8-29-2022,14-46-39,5,depth_duration_stimuli/001650_2014-06-20_12-09-00_260595134347_rgbf000087-resize_3/001650_2014-06-20_12-09-00_260595134347_rgbf000087-resize_3-target.png,125,1.9505,1,6036,124,meters,jsons/VE125_randls_52_rotated.json,750509,1002030,26,Woman
5,139519,DepthScenes,duration_manipulation_targetAtFixation,jsons/VE125_randls_52_rotated.json,http://54.235.29.9/FacialAge/BNav_EC2/DepthDuration/v2_depth_duration_MTurk/v2_DepthDuration_HTML.html#234,234,1396,663,1536,864,8-29-2022,14-46-39,6,depth_duration_stimuli/000682_2014-06-08_23-14-58_260595134347_rgbf000041-resize_5/000682_2014-06-08_23-14-58_260595134347_rgbf000041-resize_5-target.png,125,2.7239999999999998,4,3772,126,meters,jsons/VE125_randls_52_rotated.json,750509,1002030,26,Woman
6,139519,DepthScenes,duration_manipulation_targetAtFixation,jsons/VE125_randls_52_rotated.json,http://54.235.29.9/FacialAge/BNav_EC2/DepthDuration/v2_depth_duration_MTurk/v2_DepthDuration_HTML.html#234,234,1396,663,1536,864,8-29-2022,14-46-39,7,depth_duration_stimuli/002467_2014-06-28_20-38-07_260595134347_rgbf000026-resize_2/002467_2014-06-28_20-38-07_260595134347_rgbf000026-resize_2-target.png,125,4.742,4,4331,125,meters,jsons/VE125_randls_52_rotated.json,750509,1002030,26,Woman
7,139519,DepthScenes,duration_manipulation_targetAtFixation,jsons/VE125_randls_52_rotated.json,http://54.235.29.9/FacialAge/BNav_EC2/DepthDuration/v2_depth_duration_MTurk/v2_DepthDuration_HTML.html#234,234,1396,663,1536,864,8-29-2022,14-46-39,8,depth_duration_stimuli/002570_2014-06-24_13-59-54_094959634447_rgbf000059-resize_0/002570_2014-06-24_13-59-54_094959634447_rgbf000059-resize_0-target.png,125,4.037,3,8614,124,meters,jsons/VE125_randls_52_rotated.json,750509,1002030,26,Woman
8,139519,DepthScenes,duration_manipulation_targetAtFixation,jsons/VE125_randls_52_rotated.json,http://54.235.29.9/FacialAge/BNav_EC2/DepthDuration/v2_depth_duration_MTurk/v2_DepthDuration_HTML.html#234,234,1396,663,1536,864,8-29-2022,14-46-39,9,depth_duration_stimuli/000709_2014-06-08_13-51-55_260595134347_rgbf000068-resize_3/000709_2014-06-08_13-51-55_260595134347_rgbf000068-resize_3-target.png,125,1.8030000000000002,3,6088,124,meters,jsons/VE125_randls_52_rotated.json,750509,1002030,26,Woman
9,139519,DepthScenes,duration_manipulation_targetAtFixation,jsons/VE125_randls_52_rotated.json,http://54.235.29.9/FacialAge/BNav_EC2/DepthDuration/v2_depth_duration_MTurk/v2_DepthDuration_HTML.html#234,234,1396,663,1536,864,8-29-2022,14-46-39,10,depth_duration_stimuli/002057_2014-06-24_21-00-13_260595134347_rgbf000120-resize_1/002057_2014-06-24_21-00-13_260595134347_rgbf000120-resize_1-target.png,125,2.967,2,5027,124,meters,jsons/VE125_randls_52_rotated.json,750509,1002030,26,Woman
10,139519,DepthScenes,duration_manipulation_targetAtFixation,jsons/VE125_randls_52_rotated.json,http://54.235.29.9/FacialAge/BNav_EC2/DepthDuration/v2_depth_duration_MTurk/v2_DepthDuration_HTML.html#234,234,1396,663,1536,864,8-29-2022,14-46-39,11,depth_duration_stimuli/001094_2014-06-15_17-36-00_260595134347_rgbf000205-resize_0/001094_2014-06-15_17-36-00_260595134347_rgbf000205-resize_0-target.png,125,4.2175,1,3843,124,meters,jsons/VE125_randls_52_rotated.json,750509,1002030,26,Woman
11,139519,DepthScenes,duration_manipulation_targetAtFixation,jsons/VE125_randls_52_rotated.json,http://54.235.29.9/FacialAge/BNav_EC2/DepthDuration/v2_depth_duration_MTurk/v2_DepthDuration_HTML.html#234,234,1396,663,1536,864,8-29-2022,14-46-39,12,depth_duration_stimuli/000692_2014-06-08_13-09-42_260595134347_rgbf000199-resize_2/000692_2014-06-08_13-09-42_260595134347_rgbf000199-resize_2-target.png,125,3.661,2,4555,122,meters,jsons/VE125_randls_52_rotated.json,750509,1002030,26,Woman
12,139519,DepthScenes,duration_manipulation_targetAtFixation,jsons/VE125_randls_52_rotated.json,http://54.235.29.9/FacialAge/BNav_EC2/DepthDuration/v2_depth_duration_MTurk/v2_DepthDuration_HTML.html#234,234,1396,663,1536,864,8-29-2022,14-46-39,13,depth_duration_stimuli/002103_2014-06-25_20-00-40_260595134347_rgbf000049-resize_0/002103_2014-06-25_20-00-40_260595134347_rgbf000049-resize_0-target.png,125,4.105,2,4280,125,meters,jsons/VE125_randls_52_rotated.json,750509,1002030,26,Woman
13,139519,DepthScenes,duration_manipulation_targetAtFixation,jsons/VE125_randls_52_rotated.json,http://54.235.29.9/FacialAge/BNav_EC2/DepthDuration/v2_depth_duration_MTurk/v2_DepthDuration_HTML.html#234,234,1396,663,1536,864,8-29-2022,14-46-39,14,depth_duration_stimuli/002039_2014-06-24_20-22-38_260595134347_rgbf000084-resize_1/002039_2014-06-24_20-22-38_260595134347_rgbf000084-resize_1-target.png,125,4.408,1,4028,125,meters,jsons/VE125_randls_52_rotated.json,750509,1002030,26,Woman
14,139519,DepthScenes,duration_manipulation_targetAtFixation,jsons/VE125_randls_52_rotated.json,http://54.235.29.9/FacialAge/BNav_EC2/DepthDuration/v2_depth_duration_MTurk/v2_DepthDuration_HTML.html#234,234,1396,663,1536,864,8-29-2022,14-46-39,15,depth_duration_stimuli/001450_2014-06-19_17-02-03_260595134347_rgbf000203-resize_4/001450_2014-06-19_17-02-03_260595134347_rgbf000203-resize_4-target.png,125,4.0106666666667,1,4177,124,meters,jsons/VE125_randls_52_rotated.json,750509,1002030,26,Woman
15,139519,DepthScenes,duration_manipulation_targetAtFixation,jsons/VE125_randls_52_rotated.json,http://54.235.29.9/FacialAge/BNav_EC2/DepthDuration/v2_depth_duration_MTurk/v2_DepthDuration_HTML.html#234,234,1396,663,1536,864,8-29-2022,14-46-39,16,depth_duration_stimuli/001449_2014-06-19_17-01-27_260595134347_rgbf000116-resize_2/001449_2014-06-19_17-01-27_260595134347_rgbf000116-resize_2-target.png,125,3.452,2,3932,124,meters,jsons/VE125_randls_52_rotated.json,750509,1002030,26,Woman
16,139519,DepthScenes,duration_manipulation_targetAtFixation,jsons/VE125_randls_52_rotated.json,http://54.235.29.9/FacialAge/BNav_EC2/DepthDuration/v2_depth_duration_MTurk/v2_DepthDuration_HTML.html#234,234,1396,663,1536,864,8-29-2022,14-46-39,17,depth_duration_stimuli/002639_2014-06-24_14-51-37_094959634447_rgbf000074-resize_4/002639_2014-06-24_14-51-37_094959634447_rgbf000074-resize_4-target.png,125,4.0375,2,4665,124,meters,jsons/VE125_randls_52_rotated.json,750509,1002030,26,Woman
17,139519,DepthScenes,duration_manipulation_targetAtFixation,jsons/VE125_randls_52_rotated.json,http://54.235.29.9/FacialAge/BNav_EC2/DepthDuration/v2_depth_duration_MTurk/v2_DepthDuration_HTML.html#234,234,1396,663,1536,864,8-29-2022,14-46-39,18,depth_duration_stimuli/003292_2014-05-14_21-53-49_094959634447_rgbf000100-resize_2/003292_2014-05-14_21-53-49_094959634447_rgbf000100-resize_2-target.png,125,3.4815,2,4340,124,meters,jsons/VE125_randls_52_rotated.json,750509,1002030,26,Woman
18,139519,DepthScenes,duration_manipulation_targetAtFixation,jsons/VE125_randls_52_rotated.json,http://54.235.29.9/FacialAge/BNav_EC2/DepthDuration/v2_depth_duration_MTurk/v2_DepthDuration_HTML.html#234,234,1396,663,1536,864,8-29-2022,14-46-39,19,depth_duration_stimuli/001498_2014-06-19_17-45-14_260595134347_rgbf000129-resize_4/001498_2014-06-19_17-45-14_260595134347_rgbf000129-resize-original.jpg,125,1.4075,0,3923,125,meters,jsons/VE125_randls_52_rotated.json,750509,1002030,26,Woman
19,139519,DepthScenes,duration_manipulation_targetAtFixation,jsons/VE125_randls_52_rotated.json,http://54.235.29.9/FacialAge/BNav_EC2/DepthDuration/v2_depth_duration_MTurk/v2_DepthDuration_HTML.html#234,234,1396,663,1536,864,8-29-2022,14-46-39,20,depth_duration_stimuli/000734_2014-06-08_17-39-11_260595134347_rgbf000128-resize_2/000734_2014-06-08_17-39-11_260595134347_rgbf000128-resize_2-target.png,125,4.098,2,4433,123,meters,jsons/VE125_randls_52_rotated.json,750509,1002030,26,Woman
20,139519,DepthScenes,duration_manipulation_targetAtFixation,jsons/VE125_randls_52_rotated.json,http://54.235.29.9/FacialAge/BNav_EC2/DepthDuration/v2_depth_duration_MTurk/v2_DepthDuration_HTML.html#234,234,1396,663,1536,864,8-29-2022,14-46-39,21,depth_duration_stimuli/000739_2014-06-08_18-45-58_260595134347_rgbf000068-resize_1/000739_2014-06-08_18-45-58_260595134347_rgbf000068-resize_1-target.png,125,3.534,1,4323,124,meters,jsons/VE125_randls_52_rotated.json,750509,1002030,26,Woman
21,139519,DepthScenes,duration_manipulation_targetAtFixation,jsons/VE125_randls_52_rotated.json,http://54.235.29.9/FacialAge/BNav_EC2/DepthDuration/v2_depth_duration_MTurk/v2_DepthDuration_HTML.html#234,234,1396,663,1536,864,8-29-2022,14-46-39,22,depth_duration_stimuli/000109_2014-05-14_23-41-52_260595134347_rgbf000035-resize_9/000109_2014-05-14_23-41-52_260595134347_rgbf000035-resize_9-target.png,125,1.3545,1,3441,124,meters,jsons/VE125_randls_52_rotated.json,750509,1002030,26,Woman
22,139519,DepthScenes,duration_manipulation_targetAtFixation,jsons/VE125_randls_52_rotated.json,http://54.235.29.9/FacialAge/BNav_EC2/DepthDuration/v2_depth_duration_MTurk/v2_DepthDuration_HTML.html#234,234,1396,663,1536,864,8-29-2022,14-46-39,23,depth_duration_stimuli/000470_2014-06-09_19-42-40_260595134347_rgbf000094-resize_1/000470_2014-06-09_19-42-40_260595134347_rgbf000094-resize_1-target.png,125,1.831,1,4338,123,meters,jsons/VE125_randls_52_rotated.json,750509,1002030,26,Woman
23,139519,DepthScenes,duration_manipulation_targetAtFixation,jsons/VE125_randls_52_rotated.json,http://54.235.29.9/FacialAge/BNav_EC2/DepthDuration/v2_depth_duration_MTurk/v2_DepthDuration_HTML.html#234,234,1396,663,1536,864,8-29-2022,14-46-39,24,depth_duration_stimuli/000749_2014-06-08_21-55-06_260595134347_rgbf000070-resize_2/000749_2014-06-08_21-55-06_260595134347_rgbf000070-resize_2-target.png,125,2.331,2,3514,125,meters,jsons/VE125_randls_52_rotated.json,750509,1002030,26,Woman
24,139519,DepthScenes,duration_manipulation_targetAtFixation,jsons/VE125_randls_52_rotated.json,http://54.235.29.9/FacialAge/BNav_EC2/DepthDuration/v2_depth_duration_MTurk/v2_DepthDuration_HTML.html#234,234,1396,663,1536,864,8-29-2022,14-46-39,25,depth_duration_stimuli/002788_2014-06-22_19-36-03_094959634447_rgbf000088-resize_2/002788_2014-06-22_19-36-03_094959634447_rgbf000088-resize_2-target.png,125,1.6465,2,4208,123,meters,jsons/VE125_randls_52_rotated.json,750509,1002030,26,Woman
25,139519,DepthScenes,duration_manipulation_targetAtFixation,jsons/VE125_randls_52_rotated.json,http://54.235.29.9/FacialAge/BNav_EC2/DepthDuration/v2_depth_duration_MTurk/v2_DepthDuration_HTML.html#234,234,1396,663,1536,864,8-29-2022,14-46-39,26,depth_duration_stimuli/002136_2014-06-25_21-18-03_260595134347_rgbf000109-resize_3/002136_2014-06-25_21-18-03_260595134347_rgbf000109-resize_3-target.png,125,1.9569999999999999,2,4517,125,meters,jsons/VE125_randls_52_rotated.json,750509,1002030,26,Woman
26,139519,DepthScenes,duration_manipulation_targetAtFixation,jsons/VE125_randls_52_rotated.json,http://54.235.29.9/FacialAge/BNav_EC2/DepthDuration/v2_depth_duration_MTurk/v2_DepthDuration_HTML.html#234,234,1396,663,1536,864,8-29-2022,14-46-39,27,depth_duration_stimuli/002964_2014-06-08_17-46-11_094959634447_rgbf000091-resize_4/002964_2014-06-08_17-46-11_094959634447_rgbf000091-resize_4-target.png,125,1.6909999999999998,2,3458,124,meters,jsons/VE125_randls_52_rotated.json,750509,1002030,26,Woman
27,139519,DepthScenes,duration_manipulation_targetAtFixation,jsons/VE125_randls_52_rotated.json,http://54.235.29.9/FacialAge/BNav_EC2/DepthDuration/v2_depth_duration_MTurk/v2_DepthDuration_HTML.html#234,234,1396,663,1536,864,8-29-2022,14-46-39,28,depth_duration_stimuli/000137_2014-05-20_17-04-49_260595134347_rgbf000120-resize_1/000137_2014-05-20_17-04-49_260595134347_rgbf000120-resize_1-target.png,125,3.786,4,3770,124,meters,jsons/VE125_randls_52_rotated.json,750509,1002030,26,Woman
28,139519,DepthScenes,duration_manipulation_targetAtFixation,jsons/VE125_randls_52_rotated.json,http://54.235.29.9/FacialAge/BNav_EC2/DepthDuration/v2_depth_duration_MTurk/v2_DepthDuration_HTML.html#234,234,1396,663,1536,864,8-29-2022,14-46-39,29,depth_duration_stimuli/000736_2014-06-08_18-24-15_260595134347_rgbf000206-resize_3/000736_2014-06-08_18-24-15_260595134347_rgbf000206-resize_3-target.png,125,3.515,2,4704,124,meters,jsons/VE125_randls_52_rotated.json,750509,1002030,26,Woman
29,139519,DepthScenes,duration_manipulation_targetAtFixation,jsons/VE125_randls_52_rotated.json,http://54.235.29.9/FacialAge/BNav_EC2/DepthDuration/v2_depth_duration_MTurk/v2_DepthDuration_HTML.html#234,234,1396,663,1536,864,8-29-2022,14-46-39,30,depth_duration_stimuli/002072_2014-06-24_21-48-06_260595134347_rgbf000115-resize_0/002072_2014-06-24_21-48-06_260595134347_rgbf000115-resize-original.jpg,125,4.702,0,6714,121,meters,jsons/VE125_randls_52_rotated.json,750509,1002030,26,Woman
30,139519,DepthScenes,duration_manipulation_targetAtFixation,jsons/VE125_randls_52_rotated.json,http://54.235.29.9/FacialAge/BNav_EC2/DepthDuration/v2_depth_duration_MTurk/v2_DepthDuration_HTML.html#234,234,1396,663,1536,864,8-29-2022,14-46-39,31,depth_duration_stimuli/002758_2014-06-22_19-11-20_094959634447_rgbf000128-resize_1/002758_2014-06-22_19-11-20_094959634447_rgbf000128-resize_1-target.png,125,2.555,1,3874,124,meters,jsons/VE125_randls_52_rotated.json,750509,1002030,26,Woman
31,139519,DepthScenes,duration_manipulation_targetAtFixation,jsons/VE125_randls_52_rotated.json,http://54.235.29.9/FacialAge/BNav_EC2/DepthDuration/v2_depth_duration_MTurk/v2_DepthDuration_HTML.html#234,234,1396,663,1536,864,8-29-2022,14-46-39,32,depth_duration_stimuli/002630_2014-06-24_14-47-50_094959634447_rgbf000055-resize_1/002630_2014-06-24_14-47-50_094959634447_rgbf000055-resize_1-target.png,125,3.0095,2,3572,123,meters,jsons/VE125_randls_52_rotated.json,750509,1002030,26,Woman
32,139519,DepthScenes,duration_manipulation_targetAtFixation,jsons/VE125_randls_52_rotated.json,http://54.235.29.9/FacialAge/BNav_EC2/DepthDuration/v2_depth_duration_MTurk/v2_DepthDuration_HTML.html#234,234,1396,663,1536,864,8-29-2022,14-46-39,33,depth_duration_stimuli/001815_2014-06-26_20-52-55_260595134347_rgbf000020-resize_0/001815_2014-06-26_20-52-55_260595134347_rgbf000020-resize_0-target.png,125,3.3865,4,4043,124,meters,jsons/VE125_randls_52_rotated.json,750509,1002030,26,Woman
33,139519,DepthScenes,duration_manipulation_targetAtFixation,jsons/VE125_randls_52_rotated.json,http://54.235.29.9/FacialAge/BNav_EC2/DepthDuration/v2_depth_duration_MTurk/v2_DepthDuration_HTML.html#234,234,1396,663,1536,864,8-29-2022,14-46-39,34,depth_duration_stimuli/001808_2014-06-26_20-50-58_260595134347_rgbf000029-resize_1/001808_2014-06-26_20-50-58_260595134347_rgbf000029-resize_1-target.png,125,4.249,4,3833,124,meters,jsons/VE125_randls_52_rotated.json,750509,1002030,26,Woman
34,139519,DepthScenes,duration_manipulation_targetAtFixation,jsons/VE125_randls_52_rotated.json,http://54.235.29.9/FacialAge/BNav_EC2/DepthDuration/v2_depth_duration_MTurk/v2_DepthDuration_HTML.html#234,234,1396,663,1536,864,8-29-2022,14-46-39,35,depth_duration_stimuli/003423_2014-05-21_10-23-26_094959634447_rgbf002665-resize_2/003423_2014-05-21_10-23-26_094959634447_rgbf002665-resize_2-target.png,125,3.2575,1,3687,125,meters,jsons/VE125_randls_52_rotated.json,750509,1002030,26,Woman
35,139519,DepthScenes,duration_manipulation_targetAtFixation,jsons/VE125_randls_52_rotated.json,http://54.235.29.9/FacialAge/BNav_EC2/DepthDuration/v2_depth_duration_MTurk/v2_DepthDuration_HTML.html#234,234,1396,663,1536,864,8-29-2022,14-46-39,36,depth_duration_stimuli/002905_2014-06-03_18-04-43_094959634447_rgbf000151-resize_2/002905_2014-06-03_18-04-43_094959634447_rgbf000151-resize_2-target.png,125,2.0295,1,7031,124,meters,jsons/VE125_randls_52_rotated.json,750509,1002030,26,Woman
36,139519,DepthScenes,duration_manipulation_targetAtFixation,jsons/VE125_randls_52_rotated.json,http://54.235.29.9/FacialAge/BNav_EC2/DepthDuration/v2_depth_duration_MTurk/v2_DepthDuration_HTML.html#234,234,1396,663,1536,864,8-29-2022,14-46-39,37,depth_duration_stimuli/002657_2014-06-13_15-29-54_094959634447_rgbf000150-resize_1/002657_2014-06-13_15-29-54_094959634447_rgbf000150-resize_1-target.png,125,4.919,2,4105,126,meters,jsons/VE125_randls_52_rotated.json,750509,1002030,26,Woman
37,139519,DepthScenes,duration_manipulation_targetAtFixation,jsons/VE125_randls_52_rotated.json,http://54.235.29.9/FacialAge/BNav_EC2/DepthDuration/v2_depth_duration_MTurk/v2_DepthDuration_HTML.html#234,234,1396,663,1536,864,8-29-2022,14-46-39,38,depth_duration_stimuli/002375_2014-06-28_20-13-44_260595134347_rgbf000032-resize_1/002375_2014-06-28_20-13-44_260595134347_rgbf000032-resize_1-target.png,125,4.0175,2,4147,125,meters,jsons/VE125_randls_52_rotated.json,750509,1002030,26,Woman
38,139519,DepthScenes,duration_manipulation_targetAtFixation,jsons/VE125_randls_52_rotated.json,http://54.235.29.9/FacialAge/BNav_EC2/DepthDuration/v2_depth_duration_MTurk/v2_DepthDuration_HTML.html#234,234,1396,663,1536,864,8-29-2022,14-46-39,39,depth_duration_stimuli/001447_2014-06-19_17-00-32_260595134347_rgbf000082-resize_5/001447_2014-06-19_17-00-32_260595134347_rgbf000082-resize_5-target.png,125,4.13775,3,3954,126,meters,jsons/VE125_randls_52_rotated.json,750509,1002030,26,Woman
39,139519,DepthScenes,duration_manipulation_targetAtFixation,jsons/VE125_randls_52_rotated.json,http://54.235.29.9/FacialAge/BNav_EC2/DepthDuration/v2_depth_duration_MTurk/v2_DepthDuration_HTML.html#234,234,1396,663,1536,864,8-29-2022,14-46-39,40,depth_duration_stimuli/000447_2014-06-08_16-15-46_260595134347_rgbf000130-resize_1/000447_2014-06-08_16-15-46_260595134347_rgbf000130-resize_1-target.png,125,4.479,5,4386,122,meters,jsons/VE125_randls_52_rotated.json,750509,1002030,26,Woman
40,139519,DepthScenes,duration_manipulation_targetAtFixation,jsons/VE125_randls_52_rotated.json,http://54.235.29.9/FacialAge/BNav_EC2/DepthDuration/v2_depth_duration_MTurk/v2_DepthDuration_HTML.html#234,234,1396,663,1536,864,8-29-2022,14-46-39,41,depth_duration_stimuli/001392_2014-06-19_16-07-59_260595134347_rgbf000046-resize_1/001392_2014-06-19_16-07-59_260595134347_rgbf000046-resize_1-target.png,125,4.135,6,3714,125,meters,jsons/VE125_randls_52_rotated.json,750509,1002030,26,Woman
41,139519,DepthScenes,duration_manipulation_targetAtFixation,jsons/VE125_randls_52_rotated.json,http://54.235.29.9/FacialAge/BNav_EC2/DepthDuration/v2_depth_duration_MTurk/v2_DepthDuration_HTML.html#234,234,1396,663,1536,864,8-29-2022,14-46-39,42,depth_duration_stimuli/001570_2014-06-20_17-21-09_260595134347_rgbf000135-resize_4/001570_2014-06-20_17-21-09_260595134347_rgbf000135-resize_4-target.png,125,4.467,5,4802,124,meters,jsons/VE125_randls_52_rotated.json,750509,1002030,26,Woman
42,139519,DepthScenes,duration_manipulation_targetAtFixation,jsons/VE125_randls_52_rotated.json,http://54.235.29.9/FacialAge/BNav_EC2/DepthDuration/v2_depth_duration_MTurk/v2_DepthDuration_HTML.html#234,234,1396,663,1536,864,8-29-2022,14-46-39,43,depth_duration_stimuli/003010_2014-06-15_12-54-35_094959634447_rgbf000112-resize_0/003010_2014-06-15_12-54-35_094959634447_rgbf000112-resize_0-target.png,125,3.1185,4,4059,125,meters,jsons/VE125_randls_52_rotated.json,750509,1002030,26,Woman
43,139519,DepthScenes,duration_manipulation_targetAtFixation,jsons/VE125_randls_52_rotated.json,http://54.235.29.9/FacialAge/BNav_EC2/DepthDuration/v2_depth_duration_MTurk/v2_DepthDuration_HTML.html#234,234,1396,663,1536,864,8-29-2022,14-46-39,44,depth_duration_stimuli/001810_2014-06-26_20-51-35_260595134347_rgbf000040-resize_3/001810_2014-06-26_20-51-35_260595134347_rgbf000040-resize_3-target.png,125,2.2525,3,4824,124,meters,jsons/VE125_randls_52_rotated.json,750509,1002030,26,Woman
44,139519,DepthScenes,duration_manipulation_targetAtFixation,jsons/VE125_randls_52_rotated.json,http://54.235.29.9/FacialAge/BNav_EC2/DepthDuration/v2_depth_duration_MTurk/v2_DepthDuration_HTML.html#234,234,1396,663,1536,864,8-29-2022,14-46-39,45,depth_duration_stimuli/001052_2014-06-08_18-24-54_260595134347_rgbf000130-resize_1/001052_2014-06-08_18-24-54_260595134347_rgbf000130-resize_1-target.png,125,4.1045,5,4356,123,meters,jsons/VE125_randls_52_rotated.json,750509,1002030,26,Woman
45,139519,DepthScenes,duration_manipulation_targetAtFixation,jsons/VE125_randls_52_rotated.json,http://54.235.29.9/FacialAge/BNav_EC2/DepthDuration/v2_depth_duration_MTurk/v2_DepthDuration_HTML.html#234,234,1396,663,1536,864,8-29-2022,14-46-39,46,depth_duration_stimuli/002988_2014-06-15_12-24-20_094959634447_rgbf000150-resize_1/002988_2014-06-15_12-24-20_094959634447_rgbf000150-resize_1-target.png,125,4.7669999999999995,6,5795,123,meters,jsons/VE125_randls_52_rotated.json,750509,1002030,26,Woman
46,139519,DepthScenes,duration_manipulation_targetAtFixation,jsons/VE125_randls_52_rotated.json,http://54.235.29.9/FacialAge/BNav_EC2/DepthDuration/v2_depth_duration_MTurk/v2_DepthDuration_HTML.html#234,234,1396,663,1536,864,8-29-2022,14-46-39,47,depth_duration_stimuli/000103_2014-05-14_22-01-17_260595134347_rgbf000152-resize_5/000103_2014-05-14_22-01-17_260595134347_rgbf000152-resize_5-target.png,125,1.993,6,3800,124,meters,jsons/VE125_randls_52_rotated.json,750509,1002030,26,Woman
47,139519,DepthScenes,duration_manipulation_targetAtFixation,jsons/VE125_randls_52_rotated.json,http://54.235.29.9/FacialAge/BNav_EC2/DepthDuration/v2_depth_duration_MTurk/v2_DepthDuration_HTML.html#234,234,1396,663,1536,864,8-29-2022,14-46-39,48,depth_duration_stimuli/001555_2014-06-20_17-12-10_260595134347_rgbf000065-resize_4/001555_2014-06-20_17-12-10_260595134347_rgbf000065-resize_4-target.png,125,1.633,2,3470,125,meters,jsons/VE125_randls_52_rotated.json,750509,1002030,26,Woman
48,139519,DepthScenes,duration_manipulation_targetAtFixation,jsons/VE125_randls_52_rotated.json,http://54.235.29.9/FacialAge/BNav_EC2/DepthDuration/v2_depth_duration_MTurk/v2_DepthDuration_HTML.html#234,234,1396,663,1536,864,8-29-2022,14-46-39,49,depth_duration_stimuli/001170_2014-06-17_15-43-44_260595134347_rgbf000096-resize_6/001170_2014-06-17_15-43-44_260595134347_rgbf000096-resize-original.jpg,125,1.1909999999999998,0,5683,124,meters,jsons/VE125_randls_52_rotated.json,750509,1002030,26,Woman
49,139519,DepthScenes,duration_manipulation_targetAtFixation,jsons/VE125_randls_52_rotated.json,http://54.235.29.9/FacialAge/BNav_EC2/DepthDuration/v2_depth_duration_MTurk/v2_DepthDuration_HTML.html#234,234,1396,663,1536,864,8-29-2022,14-46-39,50,depth_duration_stimuli/000866_2014-06-09_20-45-42_260595134347_rgbf000139-resize_1/000866_2014-06-09_20-45-42_260595134347_rgbf000139-resize_1-target.png,125,3.2155,4,4483,124,meters,jsons/VE125_randls_52_rotated.json,750509,1002030,26,Woman
50,139519,DepthScenes,duration_manipulation_targetAtFixation,jsons/VE125_randls_52_rotated.json,http://54.235.29.9/FacialAge/BNav_EC2/DepthDuration/v2_depth_duration_MTurk/v2_DepthDuration_HTML.html#234,234,1396,663,1536,864,8-29-2022,14-46-39,51,depth_duration_stimuli/002989_2014-06-15_12-25-03_094959634447_rgbf000150-resize_3/002989_2014-06-15_12-25-03_094959634447_rgbf000150-resize_3-target.png,125,4.1975,5,4090,125,meters,jsons/VE125_randls_52_rotated.json,750509,1002030,26,Woman
51,139519,DepthScenes,duration_manipulation_targetAtFixation,jsons/VE125_randls_52_rotated.json,http://54.235.29.9/FacialAge/BNav_EC2/DepthDuration/v2_depth_duration_MTurk/v2_DepthDuration_HTML.html#234,234,1396,663,1536,864,8-29-2022,14-46-39,52,depth_duration_stimuli/000943_2014-06-09_19-31-07_260595134347_rgbf000128-resize_1/000943_2014-06-09_19-31-07_260595134347_rgbf000128-resize_1-target.png,125,1.9765,3,4092,123,meters,jsons/VE125_randls_52_rotated.json,750509,1002030,26,Woman
52,139519,DepthScenes,duration_manipulation_targetAtFixation,jsons/VE125_randls_52_rotated.json,http://54.235.29.9/FacialAge/BNav_EC2/DepthDuration/v2_depth_duration_MTurk/v2_DepthDuration_HTML.html#234,234,1396,663,1536,864,8-29-2022,14-46-39,53,depth_duration_stimuli/003070_2014-06-15_14-58-27_094959634447_rgbf000150-resize_3/003070_2014-06-15_14-58-27_094959634447_rgbf000150-resize_3-target.png,125,2.9415,2,10690,125,meters,jsons/VE125_randls_52_rotated.json,750509,1002030,26,Woman
53,139519,DepthScenes,duration_manipulation_targetAtFixation,jsons/VE125_randls_52_rotated.json,http://54.235.29.9/FacialAge/BNav_EC2/DepthDuration/v2_depth_duration_MTurk/v2_DepthDuration_HTML.html#234,234,1396,663,1536,864,8-29-2022,14-46-39,54,depth_duration_stimuli/002545_2014-06-24_13-38-53_094959634447_rgbf000080-resize_4/002545_2014-06-24_13-38-53_094959634447_rgbf000080-resize_4-target.png,125,1.9205,2,4900,125,meters,jsons/VE125_randls_52_rotated.json,750509,1002030,26,Woman
54,139519,DepthScenes,duration_manipulation_targetAtFixation,jsons/VE125_randls_52_rotated.json,http://54.235.29.9/FacialAge/BNav_EC2/DepthDuration/v2_depth_duration_MTurk/v2_DepthDuration_HTML.html#234,234,1396,663,1536,864,8-29-2022,14-46-39,55,depth_duration_stimuli/001092_2014-06-15_17-34-58_260595134347_rgbf000171-resize_3/001092_2014-06-15_17-34-58_260595134347_rgbf000171-resize_3-target.png,125,2.6935,1,3897,124,meters,jsons/VE125_randls_52_rotated.json,750509,1002030,26,Woman
55,139519,DepthScenes,duration_manipulation_targetAtFixation,jsons/VE125_randls_52_rotated.json,http://54.235.29.9/FacialAge/BNav_EC2/DepthDuration/v2_depth_duration_MTurk/v2_DepthDuration_HTML.html#234,234,1396,663,1536,864,8-29-2022,14-46-39,56,depth_duration_stimuli/000665_2014-06-09_20-42-35_260595134347_rgbf000110-resize_1/000665_2014-06-09_20-42-35_260595134347_rgbf000110-resize_1-target.png,125,3.057,1,4643,125,meters,jsons/VE125_randls_52_rotated.json,750509,1002030,26,Woman
56,139519,DepthScenes,duration_manipulation_targetAtFixation,jsons/VE125_randls_52_rotated.json,http://54.235.29.9/FacialAge/BNav_EC2/DepthDuration/v2_depth_duration_MTurk/v2_DepthDuration_HTML.html#234,234,1396,663,1536,864,8-29-2022,14-46-39,57,depth_duration_stimuli/001150_2014-06-17_15-27-34_260595134347_rgbf000108-resize_2/001150_2014-06-17_15-27-34_260595134347_rgbf000108-resize_2-target.png,125,4.0325,2,4043,98,meters,jsons/VE125_randls_52_rotated.json,750509,1002030,26,Woman
57,139519,DepthScenes,duration_manipulation_targetAtFixation,jsons/VE125_randls_52_rotated.json,http://54.235.29.9/FacialAge/BNav_EC2/DepthDuration/v2_depth_duration_MTurk/v2_DepthDuration_HTML.html#234,234,1396,663,1536,864,8-29-2022,14-46-39,58,depth_duration_stimuli/000409_2014-06-04_19-23-33_260595134347_rgbf000067-resize_0/000409_2014-06-04_19-23-33_260595134347_rgbf000067-resize_0-target.png,125,3.7335,2,3850,124,meters,jsons/VE125_randls_52_rotated.json,750509,1002030,26,Woman
58,139519,DepthScenes,duration_manipulation_targetAtFixation,jsons/VE125_randls_52_rotated.json,http://54.235.29.9/FacialAge/BNav_EC2/DepthDuration/v2_depth_duration_MTurk/v2_DepthDuration_HTML.html#234,234,1396,663,1536,864,8-29-2022,14-46-39,59,depth_duration_stimuli/002663_2014-06-13_15-50-26_094959634447_rgbf000075-resize_1/002663_2014-06-13_15-50-26_094959634447_rgbf000075-resize_1-target.png,125,4.7495,3,3777,126,meters,jsons/VE125_randls_52_rotated.json,750509,1002030,26,Woman
59,139519,DepthScenes,duration_manipulation_targetAtFixation,jsons/VE125_randls_52_rotated.json,http://54.235.29.9/FacialAge/BNav_EC2/DepthDuration/v2_depth_duration_MTurk/v2_DepthDuration_HTML.html#234,234,1396,663,1536,864,8-29-2022,14-46-39,60,depth_duration_stimuli/000927_2014-06-09_16-32-30_260595134347_rgbf000123-resize_3/000927_2014-06-09_16-32-30_260595134347_rgbf000123-resize_3-target.png,125,2.6785,3,3859,125,meters,jsons/VE125_randls_52_rotated.json,750509,1002030,26,Woman
60,139519,DepthScenes,duration_manipulation_targetAtFixation,jsons/VE125_randls_52_rotated.json,http://54.235.29.9/FacialAge/BNav_EC2/DepthDuration/v2_depth_duration_MTurk/v2_DepthDuration_HTML.html#234,234,1396,663,1536,864,8-29-2022,14-46-39,61,depth_duration_stimuli/001110_2014-06-15_17-25-28_260595134347_rgbf000150-resize_1/001110_2014-06-15_17-25-28_260595134347_rgbf000150-resize_1-target.png,125,1.7115,3,3989,124,meters,jsons/VE125_randls_52_rotated.json,750509,1002030,26,Woman
61,139519,DepthScenes,duration_manipulation_targetAtFixation,jsons/VE125_randls_52_rotated.json,http://54.235.29.9/FacialAge/BNav_EC2/DepthDuration/v2_depth_duration_MTurk/v2_DepthDuration_HTML.html#234,234,1396,663,1536,864,8-29-2022,14-46-39,62,depth_duration_stimuli/001132_2014-06-17_14-48-54_260595134347_rgbf000100-resize_2/001132_2014-06-17_14-48-54_260595134347_rgbf000100-resize_2-target.png,125,3.753,3,4091,124,meters,jsons/VE125_randls_52_rotated.json,750509,1002030,26,Woman
62,139519,DepthScenes,duration_manipulation_targetAtFixation,jsons/VE125_randls_52_rotated.json,http://54.235.29.9/FacialAge/BNav_EC2/DepthDuration/v2_depth_duration_MTurk/v2_DepthDuration_HTML.html#234,234,1396,663,1536,864,8-29-2022,14-46-39,63,depth_duration_stimuli/001133_2014-06-17_14-49-16_260595134347_rgbf000100-resize_0/001133_2014-06-17_14-49-16_260595134347_rgbf000100-resize_0-target.png,125,4.2115,2,5584,124,meters,jsons/VE125_randls_52_rotated.json,750509,1002030,26,Woman
63,139519,DepthScenes,duration_manipulation_targetAtFixation,jsons/VE125_randls_52_rotated.json,http://54.235.29.9/FacialAge/BNav_EC2/DepthDuration/v2_depth_duration_MTurk/v2_DepthDuration_HTML.html#234,234,1396,663,1536,864,8-29-2022,14-46-39,64,depth_duration_stimuli/002344_2014-06-28_20-06-29_260595134347_rgbf000030-resize_1/002344_2014-06-28_20-06-29_260595134347_rgbf000030-resize_1-target.png,125,1.5795,2,3540,125,meters,jsons/VE125_randls_52_rotated.json,750509,1002030,26,Woman
64,139519,DepthScenes,duration_manipulation_targetAtFixation,jsons/VE125_randls_52_rotated.json,http://54.235.29.9/FacialAge/BNav_EC2/DepthDuration/v2_depth_duration_MTurk/v2_DepthDuration_HTML.html#234,234,1396,663,1536,864,8-29-2022,14-46-39,65,depth_duration_stimuli/002725_2014-06-22_11-47-51_094959634447_rgbf000070-resize_1/002725_2014-06-22_11-47-51_094959634447_rgbf000070-resize_1-target.png,125,2.195,2,4548,124,meters,jsons/VE125_randls_52_rotated.json,750509,1002030,26,Woman
65,139519,DepthScenes,duration_manipulation_targetAtFixation,jsons/VE125_randls_52_rotated.json,http://54.235.29.9/FacialAge/BNav_EC2/DepthDuration/v2_depth_duration_MTurk/v2_DepthDuration_HTML.html#234,234,1396,663,1536,864,8-29-2022,14-46-39,66,depth_duration_stimuli/001540_2014-06-20_17-01-05_260595134347_rgbf000086-resize_2/001540_2014-06-20_17-01-05_260595134347_rgbf000086-resize-original.jpg,125,1.459,0,4098,126,meters,jsons/VE125_randls_52_rotated.json,750509,1002030,26,Woman
66,139519,DepthScenes,duration_manipulation_targetAtFixation,jsons/VE125_randls_52_rotated.json,http://54.235.29.9/FacialAge/BNav_EC2/DepthDuration/v2_depth_duration_MTurk/v2_DepthDuration_HTML.html#234,234,1396,663,1536,864,8-29-2022,14-46-39,67,depth_duration_stimuli/002678_2014-06-13_16-15-32_094959634447_rgbf000151-resize_6/002678_2014-06-13_16-15-32_094959634447_rgbf000151-resize_6-target.png,125,2.1830000000000003,4,4962,123,meters,jsons/VE125_randls_52_rotated.json,750509,1002030,26,Woman
67,139519,DepthScenes,duration_manipulation_targetAtFixation,jsons/VE125_randls_52_rotated.json,http://54.235.29.9/FacialAge/BNav_EC2/DepthDuration/v2_depth_duration_MTurk/v2_DepthDuration_HTML.html#234,234,1396,663,1536,864,8-29-2022,14-46-39,68,depth_duration_stimuli/000368_2014-06-09_15-53-01_260595134347_rgbf000155-resize_2/000368_2014-06-09_15-53-01_260595134347_rgbf000155-resize_2-target.png,125,2.4859999999999998,2,4339,125,meters,jsons/VE125_randls_52_rotated.json,750509,1002030,26,Woman
68,139519,DepthScenes,duration_manipulation_targetAtFixation,jsons/VE125_randls_52_rotated.json,http://54.235.29.9/FacialAge/BNav_EC2/DepthDuration/v2_depth_duration_MTurk/v2_DepthDuration_HTML.html#234,234,1396,663,1536,864,8-29-2022,14-46-39,69,depth_duration_stimuli/002949_2014-06-26_15-57-42_094959634447_rgbf000079-resize_1/002949_2014-06-26_15-57-42_094959634447_rgbf000079-resize_1-target.png,125,1.8915,2,4954,126,meters,jsons/VE125_randls_52_rotated.json,750509,1002030,26,Woman
69,139519,DepthScenes,duration_manipulation_targetAtFixation,jsons/VE125_randls_52_rotated.json,http://54.235.29.9/FacialAge/BNav_EC2/DepthDuration/v2_depth_duration_MTurk/v2_DepthDuration_HTML.html#234,234,1396,663,1536,864,8-29-2022,14-46-39,70,depth_duration_stimuli/000522_2014-06-08_13-35-06_260595134347_rgbf000244-resize_1/000522_2014-06-08_13-35-06_260595134347_rgbf000244-resize_1-target.png,125,2.3715,2,4515,172,meters,jsons/VE125_randls_52_rotated.json,750509,1002030,26,Woman
70,139519,DepthScenes,duration_manipulation_targetAtFixation,jsons/VE125_randls_52_rotated.json,http://54.235.29.9/FacialAge/BNav_EC2/DepthDuration/v2_depth_duration_MTurk/v2_DepthDuration_HTML.html#234,234,1396,663,1536,864,8-29-2022,14-46-39,71,depth_duration_stimuli/001571_2014-06-20_17-21-32_260595134347_rgbf000089-resize_1/001571_2014-06-20_17-21-32_260595134347_rgbf000089-resize_1-target.png,125,1.86,2,3790,124,meters,jsons/VE125_randls_52_rotated.json,750509,1002030,26,Woman
71,139519,DepthScenes,duration_manipulation_targetAtFixation,jsons/VE125_randls_52_rotated.json,http://54.235.29.9/FacialAge/BNav_EC2/DepthDuration/v2_depth_duration_MTurk/v2_DepthDuration_HTML.html#234,234,1396,663,1536,864,8-29-2022,14-46-39,72,depth_duration_stimuli/002272_2014-06-28_18-53-56_260595134347_rgbf000067-resize_2/002272_2014-06-28_18-53-56_260595134347_rgbf000067-resize_2-target.png,125,1.138,2,4475,124,meters,jsons/VE125_randls_52_rotated.json,750509,1002030,26,Woman
72,139519,DepthScenes,duration_manipulation_targetAtFixation,jsons/VE125_randls_52_rotated.json,http://54.235.29.9/FacialAge/BNav_EC2/DepthDuration/v2_depth_duration_MTurk/v2_DepthDuration_HTML.html#234,234,1396,663,1536,864,8-29-2022,14-46-39,73,depth_duration_stimuli/001032_2014-06-08_13-23-17_260595134347_rgbf000021-resize_3/001032_2014-06-08_13-23-17_260595134347_rgbf000021-resize_3-target.png,125,3.2725,2,3985,124,meters,jsons/VE125_randls_52_rotated.json,750509,1002030,26,Woman
73,139519,DepthScenes,duration_manipulation_targetAtFixation,jsons/VE125_randls_52_rotated.json,http://54.235.29.9/FacialAge/BNav_EC2/DepthDuration/v2_depth_duration_MTurk/v2_DepthDuration_HTML.html#234,234,1396,663,1536,864,8-29-2022,14-46-39,74,depth_duration_stimuli/001059_2014-06-08_21-53-27_260595134347_rgbf000061-resize_4/001059_2014-06-08_21-53-27_260595134347_rgbf000061-resize_4-target.png,125,2.4185,3,3874,124,meters,jsons/VE125_randls_52_rotated.json,750509,1002030,26,Woman
74,139519,DepthScenes,duration_manipulation_targetAtFixation,jsons/VE125_randls_52_rotated.json,http://54.235.29.9/FacialAge/BNav_EC2/DepthDuration/v2_depth_duration_MTurk/v2_DepthDuration_HTML.html#234,234,1396,663,1536,864,8-29-2022,14-46-39,75,depth_duration_stimuli/001828_2014-06-26_21-40-03_260595134347_rgbf000024-resize_0/001828_2014-06-26_21-40-03_260595134347_rgbf000024-resize_0-target.png,125,4.8260000000000005,3,4796,126,meters,jsons/VE125_randls_52_rotated.json,750509,1002030,26,Woman
75,139519,DepthScenes,duration_manipulation_targetAtFixation,jsons/VE125_randls_52_rotated.json,http://54.235.29.9/FacialAge/BNav_EC2/DepthDuration/v2_depth_duration_MTurk/v2_DepthDuration_HTML.html#234,234,1396,663,1536,864,8-29-2022,14-46-39,76,depth_duration_stimuli/000009_2014-05-26_14-32-05_260595134347_rgbf000034-resize_3/000009_2014-05-26_14-32-05_260595134347_rgbf000034-resize_3-target.png,125,3.8715,4,4194,123,meters,jsons/VE125_randls_52_rotated.json,750509,1002030,26,Woman
76,139519,DepthScenes,duration_manipulation_targetAtFixation,jsons/VE125_randls_52_rotated.json,http://54.235.29.9/FacialAge/BNav_EC2/DepthDuration/v2_depth_duration_MTurk/v2_DepthDuration_HTML.html#234,234,1396,663,1536,864,8-29-2022,14-46-39,77,depth_duration_stimuli/002995_2014-06-15_12-31-26_094959634447_rgbf000150-resize_1/002995_2014-06-15_12-31-26_094959634447_rgbf000150-resize_1-target.png,125,3.8360000000000003,4,4455,125,meters,jsons/VE125_randls_52_rotated.json,750509,1002030,26,Woman
77,139519,DepthScenes,duration_manipulation_targetAtFixation,jsons/VE125_randls_52_rotated.json,http://54.235.29.9/FacialAge/BNav_EC2/DepthDuration/v2_depth_duration_MTurk/v2_DepthDuration_HTML.html#234,234,1396,663,1536,864,8-29-2022,14-46-39,78,depth_duration_stimuli/002748_2014-06-22_19-07-22_094959634447_rgbf000078-resize_1/002748_2014-06-22_19-07-22_094959634447_rgbf000078-resize_1-target.png,125,4.6705,5,4682,124,meters,jsons/VE125_randls_52_rotated.json,750509,1002030,26,Woman
78,139519,DepthScenes,duration_manipulation_targetAtFixation,jsons/VE125_randls_52_rotated.json,http://54.235.29.9/FacialAge/BNav_EC2/DepthDuration/v2_depth_duration_MTurk/v2_DepthDuration_HTML.html#234,234,1396,663,1536,864,8-29-2022,14-46-39,79,depth_duration_stimuli/000191_2014-05-12_17-07-38_260595134347_rgbf000199-resize_0/000191_2014-05-12_17-07-38_260595134347_rgbf000199-resize_0-target.png,125,3.7995,5,4690,124,meters,jsons/VE125_randls_52_rotated.json,750509,1002030,26,Woman
79,139519,DepthScenes,duration_manipulation_targetAtFixation,jsons/VE125_randls_52_rotated.json,http://54.235.29.9/FacialAge/BNav_EC2/DepthDuration/v2_depth_duration_MTurk/v2_DepthDuration_HTML.html#234,234,1396,663,1536,864,8-29-2022,14-46-39,80,depth_duration_stimuli/000493_2014-06-09_21-01-18_260595134347_rgbf000196-resize_3/000493_2014-06-09_21-01-18_260595134347_rgbf000196-resize_3-target.png,125,3.44,4,4881,123,meters,jsons/VE125_randls_52_rotated.json,750509,1002030,26,Woman
80,139519,DepthScenes,duration_manipulation_targetAtFixation,jsons/VE125_randls_52_rotated.json,http://54.235.29.9/FacialAge/BNav_EC2/DepthDuration/v2_depth_duration_MTurk/v2_DepthDuration_HTML.html#234,234,1396,663,1536,864,8-29-2022,14-46-39,81,depth_duration_stimuli/002209_2014-06-28_18-36-10_260595134347_rgbf000051-resize_1/002209_2014-06-28_18-36-10_260595134347_rgbf000051-resize_1-target.png,125,2.057,2,3954,125,meters,jsons/VE125_randls_52_rotated.json,750509,1002030,26,Woman
81,139519,DepthScenes,duration_manipulation_targetAtFixation,jsons/VE125_randls_52_rotated.json,http://54.235.29.9/FacialAge/BNav_EC2/DepthDuration/v2_depth_duration_MTurk/v2_DepthDuration_HTML.html#234,234,1396,663,1536,864,8-29-2022,14-46-39,82,depth_duration_stimuli/002763_2014-06-22_19-13-10_094959634447_rgbf000075-resize_4/002763_2014-06-22_19-13-10_094959634447_rgbf000075-resize_4-target.png,125,1.68375,2,8929,124,meters,jsons/VE125_randls_52_rotated.json,750509,1002030,26,Woman
82,139519,DepthScenes,duration_manipulation_targetAtFixation,jsons/VE125_randls_52_rotated.json,http://54.235.29.9/FacialAge/BNav_EC2/DepthDuration/v2_depth_duration_MTurk/v2_DepthDuration_HTML.html#234,234,1396,663,1536,864,8-29-2022,14-46-39,83,depth_duration_stimuli/003490_2014-05-21_15-50-11_094959634447_rgbf000101-resize_3/003490_2014-05-21_15-50-11_094959634447_rgbf000101-resize_3-target.png,125,3.6445,3,4017,124,meters,jsons/VE125_randls_52_rotated.json,750509,1002030,26,Woman
83,139519,DepthScenes,duration_manipulation_targetAtFixation,jsons/VE125_randls_52_rotated.json,http://54.235.29.9/FacialAge/BNav_EC2/DepthDuration/v2_depth_duration_MTurk/v2_DepthDuration_HTML.html#234,234,1396,663,1536,864,8-29-2022,14-46-39,84,depth_duration_stimuli/001175_2014-06-17_15-45-55_260595134347_rgbf000129-resize_4/001175_2014-06-17_15-45-55_260595134347_rgbf000129-resize_4-target.png,125,4.255,3,4335,124,meters,jsons/VE125_randls_52_rotated.json,750509,1002030,26,Woman
84,139519,DepthScenes,duration_manipulation_targetAtFixation,jsons/VE125_randls_52_rotated.json,http://54.235.29.9/FacialAge/BNav_EC2/DepthDuration/v2_depth_duration_MTurk/v2_DepthDuration_HTML.html#234,234,1396,663,1536,864,8-29-2022,14-46-39,85,depth_duration_stimuli/003587_2014-05-23_16-48-02_094959634447_rgbf002384-resize_2/003587_2014-05-23_16-48-02_094959634447_rgbf002384-resize_2-target.png,125,1.357,2,4124,125,meters,jsons/VE125_randls_52_rotated.json,750509,1002030,26,Woman
85,139519,DepthScenes,duration_manipulation_targetAtFixation,jsons/VE125_randls_52_rotated.json,http://54.235.29.9/FacialAge/BNav_EC2/DepthDuration/v2_depth_duration_MTurk/v2_DepthDuration_HTML.html#234,234,1396,663,1536,864,8-29-2022,14-46-39,86,depth_duration_stimuli/001167_2014-06-17_15-38-07_260595134347_rgbf000108-resize_0/001167_2014-06-17_15-38-07_260595134347_rgbf000108-resize_0-target.png,125,1.8505,4,3697,124,meters,jsons/VE125_randls_52_rotated.json,750509,1002030,26,Woman
86,139519,DepthScenes,duration_manipulation_targetAtFixation,jsons/VE125_randls_52_rotated.json,http://54.235.29.9/FacialAge/BNav_EC2/DepthDuration/v2_depth_duration_MTurk/v2_DepthDuration_HTML.html#234,234,1396,663,1536,864,8-29-2022,14-46-39,87,depth_duration_stimuli/001516_2014-06-20_16-25-09_260595134347_rgbf000076-resize_2/001516_2014-06-20_16-25-09_260595134347_rgbf000076-resize_2-target.png,125,1.7445,3,4261,125,meters,jsons/VE125_randls_52_rotated.json,750509,1002030,26,Woman
87,139519,DepthScenes,duration_manipulation_targetAtFixation,jsons/VE125_randls_52_rotated.json,http://54.235.29.9/FacialAge/BNav_EC2/DepthDuration/v2_depth_duration_MTurk/v2_DepthDuration_HTML.html#234,234,1396,663,1536,864,8-29-2022,14-46-39,88,depth_duration_stimuli/002118_2014-06-25_20-32-08_260595134347_rgbf000078-resize_1/002118_2014-06-25_20-32-08_260595134347_rgbf000078-resize_1-target.png,125,2.6460000000000004,4,5907,123,meters,jsons/VE125_randls_52_rotated.json,750509,1002030,26,Woman
88,139519,DepthScenes,duration_manipulation_targetAtFixation,jsons/VE125_randls_52_rotated.json,http://54.235.29.9/FacialAge/BNav_EC2/DepthDuration/v2_depth_duration_MTurk/v2_DepthDuration_HTML.html#234,234,1396,663,1536,864,8-29-2022,14-46-39,89,depth_duration_stimuli/000635_2014-06-08_16-38-42_260595134347_rgbf000106-resize_1/000635_2014-06-08_16-38-42_260595134347_rgbf000106-resize_1-target.png,125,2.074,5,6484,124,meters,jsons/VE125_randls_52_rotated.json,750509,1002030,26,Woman
89,139519,DepthScenes,duration_manipulation_targetAtFixation,jsons/VE125_randls_52_rotated.json,http://54.235.29.9/FacialAge/BNav_EC2/DepthDuration/v2_depth_duration_MTurk/v2_DepthDuration_HTML.html#234,234,1396,663,1536,864,8-29-2022,14-46-39,90,depth_duration_stimuli/002279_2014-06-28_18-55-32_260595134347_rgbf000040-resize_5/002279_2014-06-28_18-55-32_260595134347_rgbf000040-resize_5-target.png,125,1.5043333333333,4,7854,122,meters,jsons/VE125_randls_52_rotated.json,750509,1002030,26,Woman
90,139519,DepthScenes,duration_manipulation_targetAtFixation,jsons/VE125_randls_52_rotated.json,http://54.235.29.9/FacialAge/BNav_EC2/DepthDuration/v2_depth_duration_MTurk/v2_DepthDuration_HTML.html#234,234,1396,663,1536,864,8-29-2022,14-46-39,91,depth_duration_stimuli/000556_2014-06-09_22-42-56_260595134347_rgbf000214-resize_1/000556_2014-06-09_22-42-56_260595134347_rgbf000214-resize_1-target.png,125,4.8415,2,5107,132,meters,jsons/VE125_randls_52_rotated.json,750509,1002030,26,Woman
91,139519,DepthScenes,duration_manipulation_targetAtFixation,jsons/VE125_randls_52_rotated.json,http://54.235.29.9/FacialAge/BNav_EC2/DepthDuration/v2_depth_duration_MTurk/v2_DepthDuration_HTML.html#234,234,1396,663,1536,864,8-29-2022,14-46-39,92,depth_duration_stimuli/001158_2014-06-17_15-32-16_260595134347_rgbf000138-resize_2/001158_2014-06-17_15-32-16_260595134347_rgbf000138-resize_2-target.png,125,4.5315,5,4290,125,meters,jsons/VE125_randls_52_rotated.json,750509,1002030,26,Woman
92,139519,DepthScenes,duration_manipulation_targetAtFixation,jsons/VE125_randls_52_rotated.json,http://54.235.29.9/FacialAge/BNav_EC2/DepthDuration/v2_depth_duration_MTurk/v2_DepthDuration_HTML.html#234,234,1396,663,1536,864,8-29-2022,14-46-39,93,depth_duration_stimuli/000549_2014-06-08_22-10-24_260595134347_rgbf000247-resize_3/000549_2014-06-08_22-10-24_260595134347_rgbf000247-resize_3-target.png,125,1.841,4,4369,118,meters,jsons/VE125_randls_52_rotated.json,750509,1002030,26,Woman
93,139519,DepthScenes,duration_manipulation_targetAtFixation,jsons/VE125_randls_52_rotated.json,http://54.235.29.9/FacialAge/BNav_EC2/DepthDuration/v2_depth_duration_MTurk/v2_DepthDuration_HTML.html#234,234,1396,663,1536,864,8-29-2022,14-46-39,94,depth_duration_stimuli/001055_2014-06-08_18-45-35_260595134347_rgbf000111-resize_4/001055_2014-06-08_18-45-35_260595134347_rgbf000111-resize_4-target.png,125,2.4290000000000003,4,3957,124,meters,jsons/VE125_randls_52_rotated.json,750509,1002030,26,Woman
94,139519,DepthScenes,duration_manipulation_targetAtFixation,jsons/VE125_randls_52_rotated.json,http://54.235.29.9/FacialAge/BNav_EC2/DepthDuration/v2_depth_duration_MTurk/v2_DepthDuration_HTML.html#234,234,1396,663,1536,864,8-29-2022,14-46-39,95,depth_duration_stimuli/000483_2014-06-09_20-41-45_260595134347_rgbf000116-resize_4/000483_2014-06-09_20-41-45_260595134347_rgbf000116-resize_4-target.png,125,1.337,5,4537,124,meters,jsons/VE125_randls_52_rotated.json,750509,1002030,26,Woman
95,139519,DepthScenes,duration_manipulation_targetAtFixation,jsons/VE125_randls_52_rotated.json,http://54.235.29.9/FacialAge/BNav_EC2/DepthDuration/v2_depth_duration_MTurk/v2_DepthDuration_HTML.html#234,234,1396,663,1536,864,8-29-2022,14-46-39,96,depth_duration_stimuli/000469_2014-06-09_19-42-10_260595134347_rgbf000081-resize_1/000469_2014-06-09_19-42-10_260595134347_rgbf000081-resize_1-target.png,125,1.652,3,10428,125,meters,jsons/VE125_randls_52_rotated.json,750509,1002030,26,Woman
96,139519,DepthScenes,duration_manipulation_targetAtFixation,jsons/VE125_randls_52_rotated.json,http://54.235.29.9/FacialAge/BNav_EC2/DepthDuration/v2_depth_duration_MTurk/v2_DepthDuration_HTML.html#234,234,1396,663,1536,864,8-29-2022,14-46-39,97,depth_duration_stimuli/003079_2014-06-15_15-18-20_094959634447_rgbf000152-resize_8/003079_2014-06-15_15-18-20_094959634447_rgbf000152-resize_8-target.png,125,2.8775,6,3304,125,meters,jsons/VE125_randls_52_rotated.json,750509,1002030,26,Woman
97,139519,DepthScenes,duration_manipulation_targetAtFixation,jsons/VE125_randls_52_rotated.json,http://54.235.29.9/FacialAge/BNav_EC2/DepthDuration/v2_depth_duration_MTurk/v2_DepthDuration_HTML.html#234,234,1396,663,1536,864,8-29-2022,14-46-39,98,depth_duration_stimuli/000506_2014-06-08_23-21-00_260595134347_rgbf000070-resize_7/000506_2014-06-08_23-21-00_260595134347_rgbf000070-resize_7-target.png,125,4.0585,5,2981,124,meters,jsons/VE125_randls_52_rotated.json,750509,1002030,26,Woman
98,139519,DepthScenes,duration_manipulation_targetAtFixation,jsons/VE125_randls_52_rotated.json,http://54.235.29.9/FacialAge/BNav_EC2/DepthDuration/v2_depth_duration_MTurk/v2_DepthDuration_HTML.html#234,234,1396,663,1536,864,8-29-2022,14-46-39,99,depth_duration_stimuli/001222_2014-06-17_16-24-06_260595134347_rgbf000073-resize_0/001222_2014-06-17_16-24-06_260595134347_rgbf000073-resize-original.jpg,125,1.4385,0,4344,125,meters,jsons/VE125_randls_52_rotated.json,750509,1002030,26,Woman
99,139519,DepthScenes,duration_manipulation_targetAtFixation,jsons/VE125_randls_52_rotated.json,http://54.235.29.9/FacialAge/BNav_EC2/DepthDuration/v2_depth_duration_MTurk/v2_DepthDuration_HTML.html#234,234,1396,663,1536,864,8-29-2022,14-46-39,100,depth_duration_stimuli/002875_2014-06-01_15-19-00_094959634447_rgbf000151-resize_1/002875_2014-06-01_15-19-00_094959634447_rgbf000151-resize_1-target.png,125,1.9675,5,2543,123,meters,jsons/VE125_randls_52_rotated.json,750509,1002030,26,Woman
100,139519,DepthScenes,duration_manipulation_targetAtFixation,jsons/VE125_randls_52_rotated.json,http://54.235.29.9/FacialAge/BNav_EC2/DepthDuration/v2_depth_duration_MTurk/v2_DepthDuration_HTML.html#234,234,1396,663,1536,864,8-29-2022,14-46-39,101,depth_duration_stimuli/001011_2014-06-08_23-18-54_260595134347_rgbf000044-resize_4/001011_2014-06-08_23-18-54_260595134347_rgbf000044-resize_4-target.png,125,2.4730000000000003,4,3085,123,meters,jsons/VE125_randls_52_rotated.json,750509,1002030,26,Woman
101,139519,DepthScenes,duration_manipulation_targetAtFixation,jsons/VE125_randls_52_rotated.json,http://54.235.29.9/FacialAge/BNav_EC2/DepthDuration/v2_depth_duration_MTurk/v2_DepthDuration_HTML.html#234,234,1396,663,1536,864,8-29-2022,14-46-39,102,depth_duration_stimuli/002637_2014-06-24_14-51-13_094959634447_rgbf000066-resize_4/002637_2014-06-24_14-51-13_094959634447_rgbf000066-resize_4-target.png,125,1.9955,4,2946,125,meters,jsons/VE125_randls_52_rotated.json,750509,1002030,26,Woman
102,139519,DepthScenes,duration_manipulation_targetAtFixation,jsons/VE125_randls_52_rotated.json,http://54.235.29.9/FacialAge/BNav_EC2/DepthDuration/v2_depth_duration_MTurk/v2_DepthDuration_HTML.html#234,234,1396,663,1536,864,8-29-2022,14-46-39,103,depth_duration_stimuli/003534_2014-05-22_15-06-10_094959634447_rgbf000102-resize_4/003534_2014-05-22_15-06-10_094959634447_rgbf000102-resize_4-target.png,125,1.426,3,3172,122,meters,jsons/VE125_randls_52_rotated.json,750509,1002030,26,Woman
103,139519,DepthScenes,duration_manipulation_targetAtFixation,jsons/VE125_randls_52_rotated.json,http://54.235.29.9/FacialAge/BNav_EC2/DepthDuration/v2_depth_duration_MTurk/v2_DepthDuration_HTML.html#234,234,1396,663,1536,864,8-29-2022,14-46-39,104,depth_duration_stimuli/000502_2014-06-08_23-02-32_260595134347_rgbf000063-resize_4/000502_2014-06-08_23-02-32_260595134347_rgbf000063-resize_4-target.png,125,2.431,3,3281,126,meters,jsons/VE125_randls_52_rotated.json,750509,1002030,26,Woman
104,139519,DepthScenes,duration_manipulation_targetAtFixation,jsons/VE125_randls_52_rotated.json,http://54.235.29.9/FacialAge/BNav_EC2/DepthDuration/v2_depth_duration_MTurk/v2_DepthDuration_HTML.html#234,234,1396,663,1536,864,8-29-2022,14-46-39,105,depth_duration_stimuli/001199_2014-06-17_16-03-48_260595134347_rgbf000077-resize_0/001199_2014-06-17_16-03-48_260595134347_rgbf000077-resize_0-target.png,125,3.4375,5,3063,123,meters,jsons/VE125_randls_52_rotated.json,750509,1002030,26,Woman
105,139519,DepthScenes,duration_manipulation_targetAtFixation,jsons/VE125_randls_52_rotated.json,http://54.235.29.9/FacialAge/BNav_EC2/DepthDuration/v2_depth_duration_MTurk/v2_DepthDuration_HTML.html#234,234,1396,663,1536,864,8-29-2022,14-46-39,106,depth_duration_stimuli/003083_2014-06-15_15-21-03_094959634447_rgbf000063-resize_1/003083_2014-06-15_15-21-03_094959634447_rgbf000063-resize_1-target.png,125,4.1405,5,2915,124,meters,jsons/VE125_randls_52_rotated.json,750509,1002030,26,Woman
106,139519,DepthScenes,duration_manipulation_targetAtFixation,jsons/VE125_randls_52_rotated.json,http://54.235.29.9/FacialAge/BNav_EC2/DepthDuration/v2_depth_duration_MTurk/v2_DepthDuration_HTML.html#234,234,1396,663,1536,864,8-29-2022,14-46-39,107,depth_duration_stimuli/000486_2014-06-09_20-47-20_260595134347_rgbf000143-resize_2/000486_2014-06-09_20-47-20_260595134347_rgbf000143-resize_2-target.png,125,4.8325,4,2617,98,meters,jsons/VE125_randls_52_rotated.json,750509,1002030,26,Woman
107,139519,DepthScenes,duration_manipulation_targetAtFixation,jsons/VE125_randls_52_rotated.json,http://54.235.29.9/FacialAge/BNav_EC2/DepthDuration/v2_depth_duration_MTurk/v2_DepthDuration_HTML.html#234,234,1396,663,1536,864,8-29-2022,14-46-39,108,depth_duration_stimuli/002805_2014-06-22_19-54-03_094959634447_rgbf000079-resize_1/002805_2014-06-22_19-54-03_094959634447_rgbf000079-resize_1-target.png,125,3.1439999999999997,4,2370,129,meters,jsons/VE125_randls_52_rotated.json,750509,1002030,26,Woman
108,139519,DepthScenes,duration_manipulation_targetAtFixation,jsons/VE125_randls_52_rotated.json,http://54.235.29.9/FacialAge/BNav_EC2/DepthDuration/v2_depth_duration_MTurk/v2_DepthDuration_HTML.html#234,234,1396,663,1536,864,8-29-2022,14-46-39,109,depth_duration_stimuli/000906_2014-06-08_13-35-43_260595134347_rgbf000155-resize_1/000906_2014-06-08_13-35-43_260595134347_rgbf000155-resize_1-target.png,125,2.8489999999999998,5,2161,124,meters,jsons/VE125_randls_52_rotated.json,750509,1002030,26,Woman
109,139519,DepthScenes,duration_manipulation_targetAtFixation,jsons/VE125_randls_52_rotated.json,http://54.235.29.9/FacialAge/BNav_EC2/DepthDuration/v2_depth_duration_MTurk/v2_DepthDuration_HTML.html#234,234,1396,663,1536,864,8-29-2022,14-46-39,110,depth_duration_stimuli/003338_2014-05-20_11-01-23_094959634447_rgbf000051-resize_6/003338_2014-05-20_11-01-23_094959634447_rgbf000051-resize_6-target.png,125,1.693,3,2565,125,meters,jsons/VE125_randls_52_rotated.json,750509,1002030,26,Woman
110,139519,DepthScenes,duration_manipulation_targetAtFixation,jsons/VE125_randls_52_rotated.json,http://54.235.29.9/FacialAge/BNav_EC2/DepthDuration/v2_depth_duration_MTurk/v2_DepthDuration_HTML.html#234,234,1396,663,1536,864,8-29-2022,14-46-39,111,depth_duration_stimuli/002509_2014-06-24_13-19-22_094959634447_rgbf000077-resize_0/002509_2014-06-24_13-19-22_094959634447_rgbf000077-resize_0-target.png,125,1.3065,3,2695,124,meters,jsons/VE125_randls_52_rotated.json,750509,1002030,26,Woman
111,139519,DepthScenes,duration_manipulation_targetAtFixation,jsons/VE125_randls_52_rotated.json,http://54.235.29.9/FacialAge/BNav_EC2/DepthDuration/v2_depth_duration_MTurk/v2_DepthDuration_HTML.html#234,234,1396,663,1536,864,8-29-2022,14-46-39,112,depth_duration_stimuli/002199_2014-06-28_18-33-56_260595134347_rgbf000074-resize_0/002199_2014-06-28_18-33-56_260595134347_rgbf000074-resize_0-target.png,125,1.996,1,4899,126,meters,jsons/VE125_randls_52_rotated.json,750509,1002030,26,Woman
112,139519,DepthScenes,duration_manipulation_targetAtFixation,jsons/VE125_randls_52_rotated.json,http://54.235.29.9/FacialAge/BNav_EC2/DepthDuration/v2_depth_duration_MTurk/v2_DepthDuration_HTML.html#234,234,1396,663,1536,864,8-29-2022,14-46-39,113,depth_duration_stimuli/001056_2014-06-08_18-46-44_260595134347_rgbf000068-resize_0/001056_2014-06-08_18-46-44_260595134347_rgbf000068-resize_0-target.png,125,2.6625,2,2545,123,meters,jsons/VE125_randls_52_rotated.json,750509,1002030,26,Woman
113,139519,DepthScenes,duration_manipulation_targetAtFixation,jsons/VE125_randls_52_rotated.json,http://54.235.29.9/FacialAge/BNav_EC2/DepthDuration/v2_depth_duration_MTurk/v2_DepthDuration_HTML.html#234,234,1396,663,1536,864,8-29-2022,14-46-39,114,depth_duration_stimuli/002444_2014-06-28_20-32-08_260595134347_rgbf000027-resize_0/002444_2014-06-28_20-32-08_260595134347_rgbf000027-resize_0-target.png,125,4.388999999999999,4,2721,124,meters,jsons/VE125_randls_52_rotated.json,750509,1002030,26,Woman
114,139519,DepthScenes,duration_manipulation_targetAtFixation,jsons/VE125_randls_52_rotated.json,http://54.235.29.9/FacialAge/BNav_EC2/DepthDuration/v2_depth_duration_MTurk/v2_DepthDuration_HTML.html#234,234,1396,663,1536,864,8-29-2022,14-46-39,115,depth_duration_stimuli/000436_2014-06-09_22-25-11_260595134347_rgbf000137-resize_1/000436_2014-06-09_22-25-11_260595134347_rgbf000137-resize_1-target.png,125,4.0705,5,2484,123,meters,jsons/VE125_randls_52_rotated.json,750509,1002030,26,Woman
115,139519,DepthScenes,duration_manipulation_targetAtFixation,jsons/VE125_randls_52_rotated.json,http://54.235.29.9/FacialAge/BNav_EC2/DepthDuration/v2_depth_duration_MTurk/v2_DepthDuration_HTML.html#234,234,1396,663,1536,864,8-29-2022,14-46-39,116,depth_duration_stimuli/000742_2014-06-08_18-48-09_260595134347_rgbf000164-resize_4/000742_2014-06-08_18-48-09_260595134347_rgbf000164-resize_4-target.png,125,4.632,5,2479,127,meters,jsons/VE125_randls_52_rotated.json,750509,1002030,26,Woman
116,139519,DepthScenes,duration_manipulation_targetAtFixation,jsons/VE125_randls_52_rotated.json,http://54.235.29.9/FacialAge/BNav_EC2/DepthDuration/v2_depth_duration_MTurk/v2_DepthDuration_HTML.html#234,234,1396,663,1536,864,8-29-2022,14-46-39,117,depth_duration_stimuli/001066_2014-06-08_22-03-20_260595134347_rgbf000066-resize_4/001066_2014-06-08_22-03-20_260595134347_rgbf000066-resize_4-target.png,125,4.2330000000000005,1,3144,125,meters,jsons/VE125_randls_52_rotated.json,750509,1002030,26,Woman
117,139519,DepthScenes,duration_manipulation_targetAtFixation,jsons/VE125_randls_52_rotated.json,http://54.235.29.9/FacialAge/BNav_EC2/DepthDuration/v2_depth_duration_MTurk/v2_DepthDuration_HTML.html#234,234,1396,663,1536,864,8-29-2022,14-46-39,118,depth_duration_stimuli/002414_2014-06-28_20-24-58_260595134347_rgbf000067-resize_4/002414_2014-06-28_20-24-58_260595134347_rgbf000067-resize_4-target.png,125,4.363,2,2684,123,meters,jsons/VE125_randls_52_rotated.json,750509,1002030,26,Woman
118,139519,DepthScenes,duration_manipulation_targetAtFixation,jsons/VE125_randls_52_rotated.json,http://54.235.29.9/FacialAge/BNav_EC2/DepthDuration/v2_depth_duration_MTurk/v2_DepthDuration_HTML.html#234,234,1396,663,1536,864,8-29-2022,14-46-39,119,depth_duration_stimuli/000773_2014-06-08_22-24-54_260595134347_rgbf000093-resize_1/000773_2014-06-08_22-24-54_260595134347_rgbf000093-resize_1-target.png,125,4.973,1,4054,125,meters,jsons/VE125_randls_52_rotated.json,750509,1002030,26,Woman
119,139519,DepthScenes,duration_manipulation_targetAtFixation,jsons/VE125_randls_52_rotated.json,http://54.235.29.9/FacialAge/BNav_EC2/DepthDuration/v2_depth_duration_MTurk/v2_DepthDuration_HTML.html#234,234,1396,663,1536,864,8-29-2022,14-46-39,120,depth_duration_stimuli/000787_2014-06-08_22-33-53_260595134347_rgbf000175-resize_1/000787_2014-06-08_22-33-53_260595134347_rgbf000175-resize-original.jpg,125,4.784,2,3018,126,meters,jsons/VE125_randls_52_rotated.json,750509,1002030,26,Woman
120,139519,DepthScenes,duration_manipulation_targetAtFixation,jsons/VE125_randls_52_rotated.json,http://54.235.29.9/FacialAge/BNav_EC2/DepthDuration/v2_depth_duration_MTurk/v2_DepthDuration_HTML.html#234,234,1396,663,1536,864,8-29-2022,14-46-39,121,depth_duration_stimuli/003081_2014-06-15_15-19-16_094959634447_rgbf000150-resize_1/003081_2014-06-15_15-19-16_094959634447_rgbf000150-resize_1-target.png,125,3.9125,3,2812,125,meters,jsons/VE125_randls_52_rotated.json,750509,1002030,26,Woman
121,139519,DepthScenes,duration_manipulation_targetAtFixation,jsons/VE125_randls_52_rotated.json,http://54.235.29.9/FacialAge/BNav_EC2/DepthDuration/v2_depth_duration_MTurk/v2_DepthDuration_HTML.html#234,234,1396,663,1536,864,8-29-2022,14-46-39,122,depth_duration_stimuli/001417_2014-06-19_16-25-36_260595134347_rgbf000115-resize_5/001417_2014-06-19_16-25-36_260595134347_rgbf000115-resize_5-target.png,125,4.6255,4,3400,125,meters,jsons/VE125_randls_52_rotated.json,750509,1002030,26,Woman
122,139519,DepthScenes,duration_manipulation_targetAtFixation,jsons/VE125_randls_52_rotated.json,http://54.235.29.9/FacialAge/BNav_EC2/DepthDuration/v2_depth_duration_MTurk/v2_DepthDuration_HTML.html#234,234,1396,663,1536,864,8-29-2022,14-46-39,123,depth_duration_stimuli/002568_2014-06-24_13-59-21_094959634447_rgbf000062-resize_4/002568_2014-06-24_13-59-21_094959634447_rgbf000062-resize_4-target.png,125,3.015,2,2574,125,meters,jsons/VE125_randls_52_rotated.json,750509,1002030,26,Woman
123,139519,DepthScenes,duration_manipulation_targetAtFixation,jsons/VE125_randls_52_rotated.json,http://54.235.29.9/FacialAge/BNav_EC2/DepthDuration/v2_depth_duration_MTurk/v2_DepthDuration_HTML.html#234,234,1396,663,1536,864,8-29-2022,14-46-39,124,depth_duration_stimuli/003492_2014-05-21_15-50-55_094959634447_rgbf000828-resize_1/003492_2014-05-21_15-50-55_094959634447_rgbf000828-resize_1-target.png,125,4.06875,4,28136,126,meters,jsons/VE125_randls_52_rotated.json,750509,1002030,26,Woman
124,139519,DepthScenes,duration_manipulation_targetAtFixation,jsons/VE125_randls_52_rotated.json,http://54.235.29.9/FacialAge/BNav_EC2/DepthDuration/v2_depth_duration_MTurk/v2_DepthDuration_HTML.html#234,234,1396,663,1536,864,8-29-2022,14-46-39,125,depth_duration_stimuli/002323_2014-06-28_20-01-54_260595134347_rgbf000051-resize_4/002323_2014-06-28_20-01-54_260595134347_rgbf000051-resize_4-target.png,125,3.7310000000000003,5,2804,124,meters,jsons/VE125_randls_52_rotated.json,750509,1002030,26,Woman
125,139519,DepthScenes,duration_manipulation_targetAtFixation,jsons/VE125_randls_52_rotated.json,http://54.235.29.9/FacialAge/BNav_EC2/DepthDuration/v2_depth_duration_MTurk/v2_DepthDuration_HTML.html#234,234,1396,663,1536,864,8-29-2022,14-46-39,126,depth_duration_stimuli/000917_2014-06-09_22-45-29_260595134347_rgbf000149-resize_3/000917_2014-06-09_22-45-29_260595134347_rgbf000149-resize_3-target.png,125,4.1865,4,2245,122,meters,jsons/VE125_randls_52_rotated.json,750509,1002030,26,Woman
126,139519,DepthScenes,duration_manipulation_targetAtFixation,jsons/VE125_randls_52_rotated.json,http://54.235.29.9/FacialAge/BNav_EC2/DepthDuration/v2_depth_duration_MTurk/v2_DepthDuration_HTML.html#234,234,1396,663,1536,864,8-29-2022,14-46-39,127,depth_duration_stimuli/001214_2014-06-17_16-13-55_260595134347_rgbf000111-resize_0/001214_2014-06-17_16-13-55_260595134347_rgbf000111-resize_0-target.png,125,2.6505,3,2630,125,meters,jsons/VE125_randls_52_rotated.json,750509,1002030,26,Woman
127,139519,DepthScenes,duration_manipulation_targetAtFixation,jsons/VE125_randls_52_rotated.json,http://54.235.29.9/FacialAge/BNav_EC2/DepthDuration/v2_depth_duration_MTurk/v2_DepthDuration_HTML.html#234,234,1396,663,1536,864,8-29-2022,14-46-39,128,depth_duration_stimuli/000810_2014-06-08_17-20-01_260595134347_rgbf000105-resize_0/000810_2014-06-08_17-20-01_260595134347_rgbf000105-resize_0-target.png,125,1.4865,3,2459,125,meters,jsons/VE125_randls_52_rotated.json,750509,1002030,26,Woman
128,139519,DepthScenes,duration_manipulation_targetAtFixation,jsons/VE125_randls_52_rotated.json,http://54.235.29.9/FacialAge/BNav_EC2/DepthDuration/v2_depth_duration_MTurk/v2_DepthDuration_HTML.html#234,234,1396,663,1536,864,8-29-2022,14-46-39,129,depth_duration_stimuli/000677_2014-06-08_23-10-32_260595134347_rgbf000158-resize_6/000677_2014-06-08_23-10-32_260595134347_rgbf000158-resize_6-target.png,125,3.556,3,2575,125,meters,jsons/VE125_randls_52_rotated.json,750509,1002030,26,Woman
129,139519,DepthScenes,duration_manipulation_targetAtFixation,jsons/VE125_randls_52_rotated.json,http://54.235.29.9/FacialAge/BNav_EC2/DepthDuration/v2_depth_duration_MTurk/v2_DepthDuration_HTML.html#234,234,1396,663,1536,864,8-29-2022,14-46-39,130,depth_duration_stimuli/001029_2014-06-08_13-17-57_260595134347_rgbf000065-resize_1/001029_2014-06-08_13-17-57_260595134347_rgbf000065-resize_1-target.png,125,3.0835,4,2186,121,meters,jsons/VE125_randls_52_rotated.json,750509,1002030,26,Woman
130,139519,DepthScenes,duration_manipulation_targetAtFixation,jsons/VE125_randls_52_rotated.json,http://54.235.29.9/FacialAge/BNav_EC2/DepthDuration/v2_depth_duration_MTurk/v2_DepthDuration_HTML.html#234,234,1396,663,1536,864,8-29-2022,14-46-39,131,depth_duration_stimuli/001584_2014-06-20_11-07-43_260595134347_rgbf000002-resize_1/001584_2014-06-20_11-07-43_260595134347_rgbf000002-resize_1-target.png,125,3.53,4,2437,124,meters,jsons/VE125_randls_52_rotated.json,750509,1002030,26,Woman
131,139519,DepthScenes,duration_manipulation_targetAtFixation,jsons/VE125_randls_52_rotated.json,http://54.235.29.9/FacialAge/BNav_EC2/DepthDuration/v2_depth_duration_MTurk/v2_DepthDuration_HTML.html#234,234,1396,663,1536,864,8-29-2022,14-46-39,132,depth_duration_stimuli/003621_2014-05-23_18-06-08_094959634447_rgbf000101-resize_1/003621_2014-05-23_18-06-08_094959634447_rgbf000101-resize_1-target.png,125,3.9835,5,2108,123,meters,jsons/VE125_randls_52_rotated.json,750509,1002030,26,Woman
132,139519,DepthScenes,duration_manipulation_targetAtFixation,jsons/VE125_randls_52_rotated.json,http://54.235.29.9/FacialAge/BNav_EC2/DepthDuration/v2_depth_duration_MTurk/v2_DepthDuration_HTML.html#234,234,1396,663,1536,864,8-29-2022,14-46-39,133,depth_duration_stimuli/002340_2014-06-28_20-05-46_260595134347_rgbf000113-resize_0/002340_2014-06-28_20-05-46_260595134347_rgbf000113-resize_0-target.png,125,2.4735,6,2423,125,meters,jsons/VE125_randls_52_rotated.json,750509,1002030,26,Woman
133,139519,DepthScenes,duration_manipulation_targetAtFixation,jsons/VE125_randls_52_rotated.json,http://54.235.29.9/FacialAge/BNav_EC2/DepthDuration/v2_depth_duration_MTurk/v2_DepthDuration_HTML.html#234,234,1396,663,1536,864,8-29-2022,14-46-39,134,depth_duration_stimuli/001016_2014-06-09_16-16-10_260595134347_rgbf000112-resize_5/001016_2014-06-09_16-16-10_260595134347_rgbf000112-resize_5-target.png,125,1.6565,4,2344,137,meters,jsons/VE125_randls_52_rotated.json,750509,1002030,26,Woman
134,139519,DepthScenes,duration_manipulation_targetAtFixation,jsons/VE125_randls_52_rotated.json,http://54.235.29.9/FacialAge/BNav_EC2/DepthDuration/v2_depth_duration_MTurk/v2_DepthDuration_HTML.html#234,234,1396,663,1536,864,8-29-2022,14-46-39,135,depth_duration_stimuli/000375_2014-06-08_11-17-29_260595134347_rgbf000133-resize_2/000375_2014-06-08_11-17-29_260595134347_rgbf000133-resize-original.jpg,125,4.718,3,2652,110,meters,jsons/VE125_randls_52_rotated.json,750509,1002030,26,Woman
135,139519,DepthScenes,duration_manipulation_targetAtFixation,jsons/VE125_randls_52_rotated.json,http://54.235.29.9/FacialAge/BNav_EC2/DepthDuration/v2_depth_duration_MTurk/v2_DepthDuration_HTML.html#234,234,1396,663,1536,864,8-29-2022,14-46-39,136,depth_duration_stimuli/003048_2014-06-15_13-49-43_094959634447_rgbf000150-resize_1/003048_2014-06-15_13-49-43_094959634447_rgbf000150-resize_1-target.png,125,4.0035,5,2625,120,meters,jsons/VE125_randls_52_rotated.json,750509,1002030,26,Woman
136,139519,DepthScenes,duration_manipulation_targetAtFixation,jsons/VE125_randls_52_rotated.json,http://54.235.29.9/FacialAge/BNav_EC2/DepthDuration/v2_depth_duration_MTurk/v2_DepthDuration_HTML.html#234,234,1396,663,1536,864,8-29-2022,14-46-39,137,depth_duration_stimuli/002043_2014-06-24_20-29-38_260595134347_rgbf000039-resize_4/002043_2014-06-24_20-29-38_260595134347_rgbf000039-resize_4-target.png,125,2.8435,3,4342,123,meters,jsons/VE125_randls_52_rotated.json,750509,1002030,26,Woman
137,139519,DepthScenes,duration_manipulation_targetAtFixation,jsons/VE125_randls_52_rotated.json,http://54.235.29.9/FacialAge/BNav_EC2/DepthDuration/v2_depth_duration_MTurk/v2_DepthDuration_HTML.html#234,234,1396,663,1536,864,8-29-2022,14-46-39,138,depth_duration_stimuli/003129_2014-05-12_10-48-10_094959634447_rgbf000100-resize_0/003129_2014-05-12_10-48-10_094959634447_rgbf000100-resize_0-target.png,125,4.9305,0,3751,119,meters,jsons/VE125_randls_52_rotated.json,750509,1002030,26,Woman
138,139519,DepthScenes,duration_manipulation_targetAtFixation,jsons/VE125_randls_52_rotated.json,http://54.235.29.9/FacialAge/BNav_EC2/DepthDuration/v2_depth_duration_MTurk/v2_DepthDuration_HTML.html#234,234,1396,663,1536,864,8-29-2022,14-46-39,139,depth_duration_stimuli/000414_2014-06-04_19-49-13_260595134347_rgbf000044-resize_0/000414_2014-06-04_19-49-13_260595134347_rgbf000044-resize_0-target.png,125,4.329,2,2516,123,meters,jsons/VE125_randls_52_rotated.json,750509,1002030,26,Woman
139,139519,DepthScenes,duration_manipulation_targetAtFixation,jsons/VE125_randls_52_rotated.json,http://54.235.29.9/FacialAge/BNav_EC2/DepthDuration/v2_depth_duration_MTurk/v2_DepthDuration_HTML.html#234,234,1396,663,1536,864,8-29-2022,14-46-39,140,depth_duration_stimuli/000691_2014-06-08_13-08-50_260595134347_rgbf000132-resize_3/000691_2014-06-08_13-08-50_260595134347_rgbf000132-resize_3-target.png,125,4.1530000000000005,2,2292,124,meters,jsons/VE125_randls_52_rotated.json,750509,1002030,26,Woman
140,139519,DepthScenes,duration_manipulation_targetAtFixation,jsons/VE125_randls_52_rotated.json,http://54.235.29.9/FacialAge/BNav_EC2/DepthDuration/v2_depth_duration_MTurk/v2_DepthDuration_HTML.html#234,234,1396,663,1536,864,8-29-2022,14-46-39,141,depth_duration_stimuli/002213_2014-06-28_18-37-58_260595134347_rgbf000055-resize_1/002213_2014-06-28_18-37-58_260595134347_rgbf000055-resize_1-target.png,125,3.62,3,3031,116,meters,jsons/VE125_randls_52_rotated.json,750509,1002030,26,Woman
141,139519,DepthScenes,duration_manipulation_targetAtFixation,jsons/VE125_randls_52_rotated.json,http://54.235.29.9/FacialAge/BNav_EC2/DepthDuration/v2_depth_duration_MTurk/v2_DepthDuration_HTML.html#234,234,1396,663,1536,864,8-29-2022,14-46-39,142,depth_duration_stimuli/000780_2014-06-08_22-28-29_260595134347_rgbf000126-resize_1/000780_2014-06-08_22-28-29_260595134347_rgbf000126-resize_1-target.png,125,3.3825,5,2643,123,meters,jsons/VE125_randls_52_rotated.json,750509,1002030,26,Woman
142,139519,DepthScenes,duration_manipulation_targetAtFixation,jsons/VE125_randls_52_rotated.json,http://54.235.29.9/FacialAge/BNav_EC2/DepthDuration/v2_depth_duration_MTurk/v2_DepthDuration_HTML.html#234,234,1396,663,1536,864,8-29-2022,14-46-39,143,depth_duration_stimuli/002445_2014-06-28_20-32-16_260595134347_rgbf000029-resize_4/002445_2014-06-28_20-32-16_260595134347_rgbf000029-resize_4-target.png,125,2.5315,2,4515,125,meters,jsons/VE125_randls_52_rotated.json,750509,1002030,26,Woman
143,139519,DepthScenes,duration_manipulation_targetAtFixation,jsons/VE125_randls_52_rotated.json,http://54.235.29.9/FacialAge/BNav_EC2/DepthDuration/v2_depth_duration_MTurk/v2_DepthDuration_HTML.html#234,234,1396,663,1536,864,8-29-2022,14-46-39,144,depth_duration_stimuli/001136_2014-06-17_15-19-41_260595134347_rgbf000076-resize_3/001136_2014-06-17_15-19-41_260595134347_rgbf000076-resize_3-target.png,125,1.8655,4,2844,97,meters,jsons/VE125_randls_52_rotated.json,750509,1002030,26,Woman
144,139519,DepthScenes,duration_manipulation_targetAtFixation,jsons/VE125_randls_52_rotated.json,http://54.235.29.9/FacialAge/BNav_EC2/DepthDuration/v2_depth_duration_MTurk/v2_DepthDuration_HTML.html#234,234,1396,663,1536,864,8-29-2022,14-46-39,145,depth_duration_stimuli/001164_2014-06-17_15-35-46_260595134347_rgbf000085-resize_3/001164_2014-06-17_15-35-46_260595134347_rgbf000085-resize_3-target.png,125,2.354,4,2407,121,meters,jsons/VE125_randls_52_rotated.json,750509,1002030,26,Woman
145,139519,DepthScenes,duration_manipulation_targetAtFixation,jsons/VE125_randls_52_rotated.json,http://54.235.29.9/FacialAge/BNav_EC2/DepthDuration/v2_depth_duration_MTurk/v2_DepthDuration_HTML.html#234,234,1396,663,1536,864,8-29-2022,14-46-39,146,depth_duration_stimuli/003228_2014-05-14_13-42-35_094959634447_rgbf000101-resize_1/003228_2014-05-14_13-42-35_094959634447_rgbf000101-resize_1-target.png,125,1.9680000000000002,5,4375,130,meters,jsons/VE125_randls_52_rotated.json,750509,1002030,26,Woman
146,139519,DepthScenes,duration_manipulation_targetAtFixation,jsons/VE125_randls_52_rotated.json,http://54.235.29.9/FacialAge/BNav_EC2/DepthDuration/v2_depth_duration_MTurk/v2_DepthDuration_HTML.html#234,234,1396,663,1536,864,8-29-2022,14-46-39,147,depth_duration_stimuli/002600_2014-06-24_14-27-04_094959634447_rgbf000074-resize_2/002600_2014-06-24_14-27-04_094959634447_rgbf000074-resize_2-target.png,125,2.7575,4,2218,123,meters,jsons/VE125_randls_52_rotated.json,750509,1002030,26,Woman
147,139519,DepthScenes,duration_manipulation_targetAtFixation,jsons/VE125_randls_52_rotated.json,http://54.235.29.9/FacialAge/BNav_EC2/DepthDuration/v2_depth_duration_MTurk/v2_DepthDuration_HTML.html#234,234,1396,663,1536,864,8-29-2022,14-46-39,148,depth_duration_stimuli/002660_2014-06-13_15-44-18_094959634447_rgbf001878-resize_2/002660_2014-06-13_15-44-18_094959634447_rgbf001878-resize_2-target.png,125,3.576,3,2183,136,meters,jsons/VE125_randls_52_rotated.json,750509,1002030,26,Woman
148,139519,DepthScenes,duration_manipulation_targetAtFixation,jsons/VE125_randls_52_rotated.json,http://54.235.29.9/FacialAge/BNav_EC2/DepthDuration/v2_depth_duration_MTurk/v2_DepthDuration_HTML.html#234,234,1396,663,1536,864,8-29-2022,14-46-39,149,depth_duration_stimuli/002153_2014-06-25_21-27-18_260595134347_rgbf000038-resize_5/002153_2014-06-25_21-27-18_260595134347_rgbf000038-resize_5-target.png,125,2.505,3,1872,139,meters,jsons/VE125_randls_52_rotated.json,750509,1002030,26,Woman
149,139519,DepthScenes,duration_manipulation_targetAtFixation,jsons/VE125_randls_52_rotated.json,http://54.235.29.9/FacialAge/BNav_EC2/DepthDuration/v2_depth_duration_MTurk/v2_DepthDuration_HTML.html#234,234,1396,663,1536,864,8-29-2022,14-46-39,150,depth_duration_stimuli/001235_2014-06-17_16-37-36_260595134347_rgbf000084-resize_4/001235_2014-06-17_16-37-36_260595134347_rgbf000084-resize_4-target.png,125,3.6605,4,2039,138,meters,jsons/VE125_randls_52_rotated.json,750509,1002030,26,Woman
150,139519,DepthScenes,duration_manipulation_targetAtFixation,jsons/VE125_randls_52_rotated.json,http://54.235.29.9/FacialAge/BNav_EC2/DepthDuration/v2_depth_duration_MTurk/v2_DepthDuration_HTML.html#234,234,1396,663,1536,864,8-29-2022,14-46-39,151,depth_duration_stimuli/000788_2014-06-08_22-34-36_260595134347_rgbf000131-resize_1/000788_2014-06-08_22-34-36_260595134347_rgbf000131-resize_1-target.png,125,3.359,4,2797,125,meters,jsons/VE125_randls_52_rotated.json,750509,1002030,26,Woman
151,139519,DepthScenes,duration_manipulation_targetAtFixation,jsons/VE125_randls_52_rotated.json,http://54.235.29.9/FacialAge/BNav_EC2/DepthDuration/v2_depth_duration_MTurk/v2_DepthDuration_HTML.html#234,234,1396,663,1536,864,8-29-2022,14-46-39,152,depth_duration_stimuli/000569_2014-06-09_22-51-47_260595134347_rgbf000141-resize_3/000569_2014-06-09_22-51-47_260595134347_rgbf000141-resize-original.jpg,125,4.512,0,4438,123,meters,jsons/VE125_randls_52_rotated.json,750509,1002030,26,Woman
152,139519,DepthScenes,duration_manipulation_targetAtFixation,jsons/VE125_randls_52_rotated.json,http://54.235.29.9/FacialAge/BNav_EC2/DepthDuration/v2_depth_duration_MTurk/v2_DepthDuration_HTML.html#234,234,1396,663,1536,864,8-29-2022,14-46-39,153,depth_duration_stimuli/001617_2014-06-20_11-35-32_260595134347_rgbf000066-resize_1/001617_2014-06-20_11-35-32_260595134347_rgbf000066-resize_1-target.png,125,3.7910000000000004,4,2062,123,meters,jsons/VE125_randls_52_rotated.json,750509,1002030,26,Woman
153,139519,DepthScenes,duration_manipulation_targetAtFixation,jsons/VE125_randls_52_rotated.json,http://54.235.29.9/FacialAge/BNav_EC2/DepthDuration/v2_depth_duration_MTurk/v2_DepthDuration_HTML.html#234,234,1396,663,1536,864,8-29-2022,14-46-39,154,depth_duration_stimuli/001806_2014-06-26_20-50-20_260595134347_rgbf000091-resize_1/001806_2014-06-26_20-50-20_260595134347_rgbf000091-resize_1-target.png,125,2.7305,2,2063,123,meters,jsons/VE125_randls_52_rotated.json,750509,1002030,26,Woman
154,139519,DepthScenes,duration_manipulation_targetAtFixation,jsons/VE125_randls_52_rotated.json,http://54.235.29.9/FacialAge/BNav_EC2/DepthDuration/v2_depth_duration_MTurk/v2_DepthDuration_HTML.html#234,234,1396,663,1536,864,8-29-2022,14-46-39,155,depth_duration_stimuli/002953_2014-06-08_17-32-18_094959634447_rgbf000059-resize_5/002953_2014-06-08_17-32-18_094959634447_rgbf000059-resize_5-target.png,125,1.551,2,2391,111,meters,jsons/VE125_randls_52_rotated.json,750509,1002030,26,Woman
155,139519,DepthScenes,duration_manipulation_targetAtFixation,jsons/VE125_randls_52_rotated.json,http://54.235.29.9/FacialAge/BNav_EC2/DepthDuration/v2_depth_duration_MTurk/v2_DepthDuration_HTML.html#234,234,1396,663,1536,864,8-29-2022,14-46-39,156,depth_duration_stimuli/000878_2014-06-08_22-52-45_260595134347_rgbf000045-resize_2/000878_2014-06-08_22-52-45_260595134347_rgbf000045-resize_2-target.png,125,2.092,4,2786,118,meters,jsons/VE125_randls_52_rotated.json,750509,1002030,26,Woman
156,139519,DepthScenes,duration_manipulation_targetAtFixation,jsons/VE125_randls_52_rotated.json,http://54.235.29.9/FacialAge/BNav_EC2/DepthDuration/v2_depth_duration_MTurk/v2_DepthDuration_HTML.html#234,234,1396,663,1536,864,8-29-2022,14-46-39,157,depth_duration_stimuli/000854_2014-06-09_19-43-13_260595134347_rgbf000066-resize_0/000854_2014-06-09_19-43-13_260595134347_rgbf000066-resize_0-target.png,125,3.068,4,5327,122,meters,jsons/VE125_randls_52_rotated.json,750509,1002030,26,Woman
157,139519,DepthScenes,duration_manipulation_targetAtFixation,jsons/VE125_randls_52_rotated.json,http://54.235.29.9/FacialAge/BNav_EC2/DepthDuration/v2_depth_duration_MTurk/v2_DepthDuration_HTML.html#234,234,1396,663,1536,864,8-29-2022,14-46-39,158,depth_duration_stimuli/000758_2014-06-08_22-05-08_260595134347_rgbf000085-resize_0/000758_2014-06-08_22-05-08_260595134347_rgbf000085-resize_0-target.png,125,3.3810000000000002,5,3406,124,meters,jsons/VE125_randls_52_rotated.json,750509,1002030,26,Woman
158,139519,DepthScenes,duration_manipulation_targetAtFixation,jsons/VE125_randls_52_rotated.json,http://54.235.29.9/FacialAge/BNav_EC2/DepthDuration/v2_depth_duration_MTurk/v2_DepthDuration_HTML.html#234,234,1396,663,1536,864,8-29-2022,14-46-39,159,depth_duration_stimuli/002750_2014-06-22_19-08-03_094959634447_rgbf000094-resize_4/002750_2014-06-22_19-08-03_094959634447_rgbf000094-resize_4-target.png,125,2.354,4,2333,125,meters,jsons/VE125_randls_52_rotated.json,750509,1002030,26,Woman
159,139519,DepthScenes,duration_manipulation_targetAtFixation,jsons/VE125_randls_52_rotated.json,http://54.235.29.9/FacialAge/BNav_EC2/DepthDuration/v2_depth_duration_MTurk/v2_DepthDuration_HTML.html#234,234,1396,663,1536,864,8-29-2022,14-46-39,160,depth_duration_stimuli/002549_2014-06-24_13-41-39_094959634447_rgbf000022-resize_3/002549_2014-06-24_13-41-39_094959634447_rgbf000022-resize_3-target.png,125,1.476,3,2453,123,meters,jsons/VE125_randls_52_rotated.json,750509,1002030,26,Woman
160,139519,DepthScenes,duration_manipulation_targetAtFixation,jsons/VE125_randls_52_rotated.json,http://54.235.29.9/FacialAge/BNav_EC2/DepthDuration/v2_depth_duration_MTurk/v2_DepthDuration_HTML.html#234,234,1396,663,1536,864,8-29-2022,14-46-39,161,depth_duration_stimuli/000457_2014-06-08_16-52-43_260595134347_rgbf000199-resize_1/000457_2014-06-08_16-52-43_260595134347_rgbf000199-resize_1-target.png,125,3.6489999999999996,4,1937,121,meters,jsons/VE125_randls_52_rotated.json,750509,1002030,26,Woman
161,139519,DepthScenes,duration_manipulation_targetAtFixation,jsons/VE125_randls_52_rotated.json,http://54.235.29.9/FacialAge/BNav_EC2/DepthDuration/v2_depth_duration_MTurk/v2_DepthDuration_HTML.html#234,234,1396,663,1536,864,8-29-2022,14-46-39,162,depth_duration_stimuli/000929_2014-06-09_16-33-19_260595134347_rgbf000139-resize_0/000929_2014-06-09_16-33-19_260595134347_rgbf000139-resize_0-target.png,125,2.8680000000000003,3,2312,123,meters,jsons/VE125_randls_52_rotated.json,750509,1002030,26,Woman
162,139519,DepthScenes,duration_manipulation_targetAtFixation,jsons/VE125_randls_52_rotated.json,http://54.235.29.9/FacialAge/BNav_EC2/DepthDuration/v2_depth_duration_MTurk/v2_DepthDuration_HTML.html#234,234,1396,663,1536,864,8-29-2022,14-46-39,163,depth_duration_stimuli/001100_2014-06-15_17-46-26_260595134347_rgbf000225-resize_2/001100_2014-06-15_17-46-26_260595134347_rgbf000225-resize_2-target.png,125,2.24,2,2236,110,meters,jsons/VE125_randls_52_rotated.json,750509,1002030,26,Woman
163,139519,DepthScenes,duration_manipulation_targetAtFixation,jsons/VE125_randls_52_rotated.json,http://54.235.29.9/FacialAge/BNav_EC2/DepthDuration/v2_depth_duration_MTurk/v2_DepthDuration_HTML.html#234,234,1396,663,1536,864,8-29-2022,14-46-39,164,depth_duration_stimuli/002784_2014-06-22_19-26-30_094959634447_rgbf000083-resize_3/002784_2014-06-22_19-26-30_094959634447_rgbf000083-resize_3-target.png,125,1.8046666666667,2,2902,123,meters,jsons/VE125_randls_52_rotated.json,750509,1002030,26,Woman
