,subjID,experimentName,versionName,sequenceName,url,selected_row,windowWidth,windowHeight,screenWidth,screenHeight,startDate,startTime,trial,stimulus,duration,actual_depth,depth_estimate,trial_RT,log_sceneDuration,unitSelection,seq_filepath,experimentTime,totalTime,age,gender
0,141370,DepthScenes,duration_manipulation_targetAtFixation,jsons/VE125_randls_77_rotated.json,http://54.235.29.9/FacialAge/BNav_EC2/DepthDuration/v2_depth_duration_MTurk/v2_DepthDuration_HTML.html#37,37,1366,625,1366,768,8-21-2022,9-58-7,1,depth_duration_stimuli/000556_2014-06-09_22-42-56_260595134347_rgbf000214-resize_1/000556_2014-06-09_22-42-56_260595134347_rgbf000214-resize_1-target.png,125,4.8415,4,3889,134,meters,jsons/VE125_randls_77_rotated.json,771555,1805187,1962,Woman
1,141370,DepthScenes,duration_manipulation_targetAtFixation,jsons/VE125_randls_77_rotated.json,http://54.235.29.9/FacialAge/BNav_EC2/DepthDuration/v2_depth_duration_MTurk/v2_DepthDuration_HTML.html#37,37,1366,625,1366,768,8-21-2022,9-58-7,2,depth_duration_stimuli/001158_2014-06-17_15-32-16_260595134347_rgbf000138-resize_2/001158_2014-06-17_15-32-16_260595134347_rgbf000138-resize_2-target.png,125,4.5315,4,3771,126,meters,jsons/VE125_randls_77_rotated.json,771555,1805187,1962,Woman
2,141370,DepthScenes,duration_manipulation_targetAtFixation,jsons/VE125_randls_77_rotated.json,http://54.235.29.9/FacialAge/BNav_EC2/DepthDuration/v2_depth_duration_MTurk/v2_DepthDuration_HTML.html#37,37,1366,625,1366,768,8-21-2022,9-58-7,3,depth_duration_stimuli/000549_2014-06-08_22-10-24_260595134347_rgbf000247-resize_3/000549_2014-06-08_22-10-24_260595134347_rgbf000247-resize_3-target.png,125,1.841,4,3033,125,meters,jsons/VE125_randls_77_rotated.json,771555,1805187,1962,Woman
3,141370,DepthScenes,duration_manipulation_targetAtFixation,jsons/VE125_randls_77_rotated.json,http://54.235.29.9/FacialAge/BNav_EC2/DepthDuration/v2_depth_duration_MTurk/v2_DepthDuration_HTML.html#37,37,1366,625,1366,768,8-21-2022,9-58-7,4,depth_duration_stimuli/001055_2014-06-08_18-45-35_260595134347_rgbf000111-resize_4/001055_2014-06-08_18-45-35_260595134347_rgbf000111-resize_4-target.png,125,2.4290000000000003,4,3758,127,meters,jsons/VE125_randls_77_rotated.json,771555,1805187,1962,Woman
4,141370,DepthScenes,duration_manipulation_targetAtFixation,jsons/VE125_randls_77_rotated.json,http://54.235.29.9/FacialAge/BNav_EC2/DepthDuration/v2_depth_duration_MTurk/v2_DepthDuration_HTML.html#37,37,1366,625,1366,768,8-21-2022,9-58-7,5,depth_duration_stimuli/000854_2014-06-09_19-43-13_260595134347_rgbf000066-resize_0/000854_2014-06-09_19-43-13_260595134347_rgbf000066-resize_0-target.png,125,3.068,0,3955,126,meters,jsons/VE125_randls_77_rotated.json,771555,1805187,1962,Woman
5,141370,DepthScenes,duration_manipulation_targetAtFixation,jsons/VE125_randls_77_rotated.json,http://54.235.29.9/FacialAge/BNav_EC2/DepthDuration/v2_depth_duration_MTurk/v2_DepthDuration_HTML.html#37,37,1366,625,1366,768,8-21-2022,9-58-7,6,depth_duration_stimuli/000758_2014-06-08_22-05-08_260595134347_rgbf000085-resize_0/000758_2014-06-08_22-05-08_260595134347_rgbf000085-resize_0-target.png,125,3.3810000000000002,4,21892,124,meters,jsons/VE125_randls_77_rotated.json,771555,1805187,1962,Woman
6,141370,DepthScenes,duration_manipulation_targetAtFixation,jsons/VE125_randls_77_rotated.json,http://54.235.29.9/FacialAge/BNav_EC2/DepthDuration/v2_depth_duration_MTurk/v2_DepthDuration_HTML.html#37,37,1366,625,1366,768,8-21-2022,9-58-7,7,depth_duration_stimuli/002637_2014-06-24_14-51-13_094959634447_rgbf000066-resize_4/002637_2014-06-24_14-51-13_094959634447_rgbf000066-resize_4-target.png,125,1.9955,4,5539,123,meters,jsons/VE125_randls_77_rotated.json,771555,1805187,1962,Woman
7,141370,DepthScenes,duration_manipulation_targetAtFixation,jsons/VE125_randls_77_rotated.json,http://54.235.29.9/FacialAge/BNav_EC2/DepthDuration/v2_depth_duration_MTurk/v2_DepthDuration_HTML.html#37,37,1366,625,1366,768,8-21-2022,9-58-7,8,depth_duration_stimuli/003534_2014-05-22_15-06-10_094959634447_rgbf000102-resize_4/003534_2014-05-22_15-06-10_094959634447_rgbf000102-resize_4-target.png,125,1.426,4,3852,126,meters,jsons/VE125_randls_77_rotated.json,771555,1805187,1962,Woman
8,141370,DepthScenes,duration_manipulation_targetAtFixation,jsons/VE125_randls_77_rotated.json,http://54.235.29.9/FacialAge/BNav_EC2/DepthDuration/v2_depth_duration_MTurk/v2_DepthDuration_HTML.html#37,37,1366,625,1366,768,8-21-2022,9-58-7,9,depth_duration_stimuli/002660_2014-06-13_15-44-18_094959634447_rgbf001878-resize_2/002660_2014-06-13_15-44-18_094959634447_rgbf001878-resize_2-target.png,125,3.576,5,3351,125,meters,jsons/VE125_randls_77_rotated.json,771555,1805187,1962,Woman
9,141370,DepthScenes,duration_manipulation_targetAtFixation,jsons/VE125_randls_77_rotated.json,http://54.235.29.9/FacialAge/BNav_EC2/DepthDuration/v2_depth_duration_MTurk/v2_DepthDuration_HTML.html#37,37,1366,625,1366,768,8-21-2022,9-58-7,10,depth_duration_stimuli/002153_2014-06-25_21-27-18_260595134347_rgbf000038-resize_5/002153_2014-06-25_21-27-18_260595134347_rgbf000038-resize_5-target.png,125,2.505,4,5122,113,meters,jsons/VE125_randls_77_rotated.json,771555,1805187,1962,Woman
10,141370,DepthScenes,duration_manipulation_targetAtFixation,jsons/VE125_randls_77_rotated.json,http://54.235.29.9/FacialAge/BNav_EC2/DepthDuration/v2_depth_duration_MTurk/v2_DepthDuration_HTML.html#37,37,1366,625,1366,768,8-21-2022,9-58-7,11,depth_duration_stimuli/000665_2014-06-09_20-42-35_260595134347_rgbf000110-resize_1/000665_2014-06-09_20-42-35_260595134347_rgbf000110-resize_1-target.png,125,3.057,4,3162,125,meters,jsons/VE125_randls_77_rotated.json,771555,1805187,1962,Woman
11,141370,DepthScenes,duration_manipulation_targetAtFixation,jsons/VE125_randls_77_rotated.json,http://54.235.29.9/FacialAge/BNav_EC2/DepthDuration/v2_depth_duration_MTurk/v2_DepthDuration_HTML.html#37,37,1366,625,1366,768,8-21-2022,9-58-7,12,depth_duration_stimuli/001150_2014-06-17_15-27-34_260595134347_rgbf000108-resize_2/001150_2014-06-17_15-27-34_260595134347_rgbf000108-resize_2-target.png,125,4.0325,4,3562,115,meters,jsons/VE125_randls_77_rotated.json,771555,1805187,1962,Woman
12,141370,DepthScenes,duration_manipulation_targetAtFixation,jsons/VE125_randls_77_rotated.json,http://54.235.29.9/FacialAge/BNav_EC2/DepthDuration/v2_depth_duration_MTurk/v2_DepthDuration_HTML.html#37,37,1366,625,1366,768,8-21-2022,9-58-7,13,depth_duration_stimuli/000409_2014-06-04_19-23-33_260595134347_rgbf000067-resize_0/000409_2014-06-04_19-23-33_260595134347_rgbf000067-resize_0-target.png,125,3.7335,4,3215,117,meters,jsons/VE125_randls_77_rotated.json,771555,1805187,1962,Woman
13,141370,DepthScenes,duration_manipulation_targetAtFixation,jsons/VE125_randls_77_rotated.json,http://54.235.29.9/FacialAge/BNav_EC2/DepthDuration/v2_depth_duration_MTurk/v2_DepthDuration_HTML.html#37,37,1366,625,1366,768,8-21-2022,9-58-7,14,depth_duration_stimuli/002663_2014-06-13_15-50-26_094959634447_rgbf000075-resize_1/002663_2014-06-13_15-50-26_094959634447_rgbf000075-resize_1-target.png,125,4.7495,4,3103,125,meters,jsons/VE125_randls_77_rotated.json,771555,1805187,1962,Woman
14,141370,DepthScenes,duration_manipulation_targetAtFixation,jsons/VE125_randls_77_rotated.json,http://54.235.29.9/FacialAge/BNav_EC2/DepthDuration/v2_depth_duration_MTurk/v2_DepthDuration_HTML.html#37,37,1366,625,1366,768,8-21-2022,9-58-7,15,depth_duration_stimuli/003338_2014-05-20_11-01-23_094959634447_rgbf000051-resize_6/003338_2014-05-20_11-01-23_094959634447_rgbf000051-resize_6-target.png,125,1.693,4,3004,130,meters,jsons/VE125_randls_77_rotated.json,771555,1805187,1962,Woman
15,141370,DepthScenes,duration_manipulation_targetAtFixation,jsons/VE125_randls_77_rotated.json,http://54.235.29.9/FacialAge/BNav_EC2/DepthDuration/v2_depth_duration_MTurk/v2_DepthDuration_HTML.html#37,37,1366,625,1366,768,8-21-2022,9-58-7,16,depth_duration_stimuli/002509_2014-06-24_13-19-22_094959634447_rgbf000077-resize_0/002509_2014-06-24_13-19-22_094959634447_rgbf000077-resize_0-target.png,125,1.3065,4,4113,121,meters,jsons/VE125_randls_77_rotated.json,771555,1805187,1962,Woman
16,141370,DepthScenes,duration_manipulation_targetAtFixation,jsons/VE125_randls_77_rotated.json,http://54.235.29.9/FacialAge/BNav_EC2/DepthDuration/v2_depth_duration_MTurk/v2_DepthDuration_HTML.html#37,37,1366,625,1366,768,8-21-2022,9-58-7,17,depth_duration_stimuli/003228_2014-05-14_13-42-35_094959634447_rgbf000101-resize_1/003228_2014-05-14_13-42-35_094959634447_rgbf000101-resize_1-target.png,125,1.9680000000000002,4,5413,124,meters,jsons/VE125_randls_77_rotated.json,771555,1805187,1962,Woman
17,141370,DepthScenes,duration_manipulation_targetAtFixation,jsons/VE125_randls_77_rotated.json,http://54.235.29.9/FacialAge/BNav_EC2/DepthDuration/v2_depth_duration_MTurk/v2_DepthDuration_HTML.html#37,37,1366,625,1366,768,8-21-2022,9-58-7,18,depth_duration_stimuli/002600_2014-06-24_14-27-04_094959634447_rgbf000074-resize_2/002600_2014-06-24_14-27-04_094959634447_rgbf000074-resize_2-target.png,125,2.7575,4,14290,127,meters,jsons/VE125_randls_77_rotated.json,771555,1805187,1962,Woman
18,141370,DepthScenes,duration_manipulation_targetAtFixation,jsons/VE125_randls_77_rotated.json,http://54.235.29.9/FacialAge/BNav_EC2/DepthDuration/v2_depth_duration_MTurk/v2_DepthDuration_HTML.html#37,37,1366,625,1366,768,8-21-2022,9-58-7,19,depth_duration_stimuli/001498_2014-06-19_17-45-14_260595134347_rgbf000129-resize_4/001498_2014-06-19_17-45-14_260595134347_rgbf000129-resize-original.jpg,125,1.4075,4,3460,120,meters,jsons/VE125_randls_77_rotated.json,771555,1805187,1962,Woman
19,141370,DepthScenes,duration_manipulation_targetAtFixation,jsons/VE125_randls_77_rotated.json,http://54.235.29.9/FacialAge/BNav_EC2/DepthDuration/v2_depth_duration_MTurk/v2_DepthDuration_HTML.html#37,37,1366,625,1366,768,8-21-2022,9-58-7,20,depth_duration_stimuli/001100_2014-06-15_17-46-26_260595134347_rgbf000225-resize_2/001100_2014-06-15_17-46-26_260595134347_rgbf000225-resize_2-target.png,125,2.24,4,3633,118,meters,jsons/VE125_randls_77_rotated.json,771555,1805187,1962,Woman
20,141370,DepthScenes,duration_manipulation_targetAtFixation,jsons/VE125_randls_77_rotated.json,http://54.235.29.9/FacialAge/BNav_EC2/DepthDuration/v2_depth_duration_MTurk/v2_DepthDuration_HTML.html#37,37,1366,625,1366,768,8-21-2022,9-58-7,21,depth_duration_stimuli/002784_2014-06-22_19-26-30_094959634447_rgbf000083-resize_3/002784_2014-06-22_19-26-30_094959634447_rgbf000083-resize_3-target.png,125,1.8046666666667,4,3615,125,meters,jsons/VE125_randls_77_rotated.json,771555,1805187,1962,Woman
21,141370,DepthScenes,duration_manipulation_targetAtFixation,jsons/VE125_randls_77_rotated.json,http://54.235.29.9/FacialAge/BNav_EC2/DepthDuration/v2_depth_duration_MTurk/v2_DepthDuration_HTML.html#37,37,1366,625,1366,768,8-21-2022,9-58-7,22,depth_duration_stimuli/002199_2014-06-28_18-33-56_260595134347_rgbf000074-resize_0/002199_2014-06-28_18-33-56_260595134347_rgbf000074-resize_0-target.png,125,1.996,4,3176,124,meters,jsons/VE125_randls_77_rotated.json,771555,1805187,1962,Woman
22,141370,DepthScenes,duration_manipulation_targetAtFixation,jsons/VE125_randls_77_rotated.json,http://54.235.29.9/FacialAge/BNav_EC2/DepthDuration/v2_depth_duration_MTurk/v2_DepthDuration_HTML.html#37,37,1366,625,1366,768,8-21-2022,9-58-7,23,depth_duration_stimuli/001056_2014-06-08_18-46-44_260595134347_rgbf000068-resize_0/001056_2014-06-08_18-46-44_260595134347_rgbf000068-resize_0-target.png,125,2.6625,3,4973,128,meters,jsons/VE125_randls_77_rotated.json,771555,1805187,1962,Woman
23,141370,DepthScenes,duration_manipulation_targetAtFixation,jsons/VE125_randls_77_rotated.json,http://54.235.29.9/FacialAge/BNav_EC2/DepthDuration/v2_depth_duration_MTurk/v2_DepthDuration_HTML.html#37,37,1366,625,1366,768,8-21-2022,9-58-7,24,depth_duration_stimuli/002136_2014-06-25_21-18-03_260595134347_rgbf000109-resize_3/002136_2014-06-25_21-18-03_260595134347_rgbf000109-resize_3-target.png,125,1.9569999999999999,4,4159,125,meters,jsons/VE125_randls_77_rotated.json,771555,1805187,1962,Woman
24,141370,DepthScenes,duration_manipulation_targetAtFixation,jsons/VE125_randls_77_rotated.json,http://54.235.29.9/FacialAge/BNav_EC2/DepthDuration/v2_depth_duration_MTurk/v2_DepthDuration_HTML.html#37,37,1366,625,1366,768,8-21-2022,9-58-7,25,depth_duration_stimuli/002964_2014-06-08_17-46-11_094959634447_rgbf000091-resize_4/002964_2014-06-08_17-46-11_094959634447_rgbf000091-resize_4-target.png,125,1.6909999999999998,4,4200,116,meters,jsons/VE125_randls_77_rotated.json,771555,1805187,1962,Woman
25,141370,DepthScenes,duration_manipulation_targetAtFixation,jsons/VE125_randls_77_rotated.json,http://54.235.29.9/FacialAge/BNav_EC2/DepthDuration/v2_depth_duration_MTurk/v2_DepthDuration_HTML.html#37,37,1366,625,1366,768,8-21-2022,9-58-7,26,depth_duration_stimuli/001571_2014-06-20_17-21-32_260595134347_rgbf000089-resize_1/001571_2014-06-20_17-21-32_260595134347_rgbf000089-resize_1-target.png,125,1.86,4,6388,127,meters,jsons/VE125_randls_77_rotated.json,771555,1805187,1962,Woman
26,141370,DepthScenes,duration_manipulation_targetAtFixation,jsons/VE125_randls_77_rotated.json,http://54.235.29.9/FacialAge/BNav_EC2/DepthDuration/v2_depth_duration_MTurk/v2_DepthDuration_HTML.html#37,37,1366,625,1366,768,8-21-2022,9-58-7,27,depth_duration_stimuli/002272_2014-06-28_18-53-56_260595134347_rgbf000067-resize_2/002272_2014-06-28_18-53-56_260595134347_rgbf000067-resize_2-target.png,125,1.138,4,4816,127,meters,jsons/VE125_randls_77_rotated.json,771555,1805187,1962,Woman
27,141370,DepthScenes,duration_manipulation_targetAtFixation,jsons/VE125_randls_77_rotated.json,http://54.235.29.9/FacialAge/BNav_EC2/DepthDuration/v2_depth_duration_MTurk/v2_DepthDuration_HTML.html#37,37,1366,625,1366,768,8-21-2022,9-58-7,28,depth_duration_stimuli/002323_2014-06-28_20-01-54_260595134347_rgbf000051-resize_4/002323_2014-06-28_20-01-54_260595134347_rgbf000051-resize_4-target.png,125,3.7310000000000003,4,3480,123,meters,jsons/VE125_randls_77_rotated.json,771555,1805187,1962,Woman
28,141370,DepthScenes,duration_manipulation_targetAtFixation,jsons/VE125_randls_77_rotated.json,http://54.235.29.9/FacialAge/BNav_EC2/DepthDuration/v2_depth_duration_MTurk/v2_DepthDuration_HTML.html#37,37,1366,625,1366,768,8-21-2022,9-58-7,29,depth_duration_stimuli/000917_2014-06-09_22-45-29_260595134347_rgbf000149-resize_3/000917_2014-06-09_22-45-29_260595134347_rgbf000149-resize_3-target.png,125,4.1865,4,4284,125,meters,jsons/VE125_randls_77_rotated.json,771555,1805187,1962,Woman
29,141370,DepthScenes,duration_manipulation_targetAtFixation,jsons/VE125_randls_77_rotated.json,http://54.235.29.9/FacialAge/BNav_EC2/DepthDuration/v2_depth_duration_MTurk/v2_DepthDuration_HTML.html#37,37,1366,625,1366,768,8-21-2022,9-58-7,30,depth_duration_stimuli/002072_2014-06-24_21-48-06_260595134347_rgbf000115-resize_0/002072_2014-06-24_21-48-06_260595134347_rgbf000115-resize-original.jpg,125,4.702,3,4401,120,meters,jsons/VE125_randls_77_rotated.json,771555,1805187,1962,Woman
30,141370,DepthScenes,duration_manipulation_targetAtFixation,jsons/VE125_randls_77_rotated.json,http://54.235.29.9/FacialAge/BNav_EC2/DepthDuration/v2_depth_duration_MTurk/v2_DepthDuration_HTML.html#37,37,1366,625,1366,768,8-21-2022,9-58-7,31,depth_duration_stimuli/002425_2014-06-28_20-27-29_260595134347_rgbf000031-resize_8/002425_2014-06-28_20-27-29_260595134347_rgbf000031-resize_8-target.png,125,3.8960000000000004,3,3802,127,meters,jsons/VE125_randls_77_rotated.json,771555,1805187,1962,Woman
31,141370,DepthScenes,duration_manipulation_targetAtFixation,jsons/VE125_randls_77_rotated.json,http://54.235.29.9/FacialAge/BNav_EC2/DepthDuration/v2_depth_duration_MTurk/v2_DepthDuration_HTML.html#37,37,1366,625,1366,768,8-21-2022,9-58-7,32,depth_duration_stimuli/000642_2014-06-08_16-59-25_260595134347_rgbf000098-resize_2/000642_2014-06-08_16-59-25_260595134347_rgbf000098-resize_2-target.png,125,2.8815,3,3238,124,meters,jsons/VE125_randls_77_rotated.json,771555,1805187,1962,Woman
32,141370,DepthScenes,duration_manipulation_targetAtFixation,jsons/VE125_randls_77_rotated.json,http://54.235.29.9/FacialAge/BNav_EC2/DepthDuration/v2_depth_duration_MTurk/v2_DepthDuration_HTML.html#37,37,1366,625,1366,768,8-21-2022,9-58-7,33,depth_duration_stimuli/000457_2014-06-08_16-52-43_260595134347_rgbf000199-resize_1/000457_2014-06-08_16-52-43_260595134347_rgbf000199-resize_1-target.png,125,3.6489999999999996,4,3847,125,meters,jsons/VE125_randls_77_rotated.json,771555,1805187,1962,Woman
33,141370,DepthScenes,duration_manipulation_targetAtFixation,jsons/VE125_randls_77_rotated.json,http://54.235.29.9/FacialAge/BNav_EC2/DepthDuration/v2_depth_duration_MTurk/v2_DepthDuration_HTML.html#37,37,1366,625,1366,768,8-21-2022,9-58-7,34,depth_duration_stimuli/000929_2014-06-09_16-33-19_260595134347_rgbf000139-resize_0/000929_2014-06-09_16-33-19_260595134347_rgbf000139-resize_0-target.png,125,2.8680000000000003,3,5291,119,meters,jsons/VE125_randls_77_rotated.json,771555,1805187,1962,Woman
34,141370,DepthScenes,duration_manipulation_targetAtFixation,jsons/VE125_randls_77_rotated.json,http://54.235.29.9/FacialAge/BNav_EC2/DepthDuration/v2_depth_duration_MTurk/v2_DepthDuration_HTML.html#37,37,1366,625,1366,768,8-21-2022,9-58-7,35,depth_duration_stimuli/003079_2014-06-15_15-18-20_094959634447_rgbf000152-resize_8/003079_2014-06-15_15-18-20_094959634447_rgbf000152-resize_8-target.png,125,2.8775,4,3474,128,meters,jsons/VE125_randls_77_rotated.json,771555,1805187,1962,Woman
35,141370,DepthScenes,duration_manipulation_targetAtFixation,jsons/VE125_randls_77_rotated.json,http://54.235.29.9/FacialAge/BNav_EC2/DepthDuration/v2_depth_duration_MTurk/v2_DepthDuration_HTML.html#37,37,1366,625,1366,768,8-21-2022,9-58-7,36,depth_duration_stimuli/000506_2014-06-08_23-21-00_260595134347_rgbf000070-resize_7/000506_2014-06-08_23-21-00_260595134347_rgbf000070-resize_7-target.png,125,4.0585,3,4258,125,meters,jsons/VE125_randls_77_rotated.json,771555,1805187,1962,Woman
36,141370,DepthScenes,duration_manipulation_targetAtFixation,jsons/VE125_randls_77_rotated.json,http://54.235.29.9/FacialAge/BNav_EC2/DepthDuration/v2_depth_duration_MTurk/v2_DepthDuration_HTML.html#37,37,1366,625,1366,768,8-21-2022,9-58-7,37,depth_duration_stimuli/002344_2014-06-28_20-06-29_260595134347_rgbf000030-resize_1/002344_2014-06-28_20-06-29_260595134347_rgbf000030-resize_1-target.png,125,1.5795,4,5394,123,meters,jsons/VE125_randls_77_rotated.json,771555,1805187,1962,Woman
37,141370,DepthScenes,duration_manipulation_targetAtFixation,jsons/VE125_randls_77_rotated.json,http://54.235.29.9/FacialAge/BNav_EC2/DepthDuration/v2_depth_duration_MTurk/v2_DepthDuration_HTML.html#37,37,1366,625,1366,768,8-21-2022,9-58-7,38,depth_duration_stimuli/002725_2014-06-22_11-47-51_094959634447_rgbf000070-resize_1/002725_2014-06-22_11-47-51_094959634447_rgbf000070-resize_1-target.png,125,2.195,3,3645,117,meters,jsons/VE125_randls_77_rotated.json,771555,1805187,1962,Woman
38,141370,DepthScenes,duration_manipulation_targetAtFixation,jsons/VE125_randls_77_rotated.json,http://54.235.29.9/FacialAge/BNav_EC2/DepthDuration/v2_depth_duration_MTurk/v2_DepthDuration_HTML.html#37,37,1366,625,1366,768,8-21-2022,9-58-7,39,depth_duration_stimuli/002678_2014-06-13_16-15-32_094959634447_rgbf000151-resize_6/002678_2014-06-13_16-15-32_094959634447_rgbf000151-resize_6-target.png,125,2.1830000000000003,4,6073,124,meters,jsons/VE125_randls_77_rotated.json,771555,1805187,1962,Woman
39,141370,DepthScenes,duration_manipulation_targetAtFixation,jsons/VE125_randls_77_rotated.json,http://54.235.29.9/FacialAge/BNav_EC2/DepthDuration/v2_depth_duration_MTurk/v2_DepthDuration_HTML.html#37,37,1366,625,1366,768,8-21-2022,9-58-7,40,depth_duration_stimuli/000368_2014-06-09_15-53-01_260595134347_rgbf000155-resize_2/000368_2014-06-09_15-53-01_260595134347_rgbf000155-resize_2-target.png,125,2.4859999999999998,4,3497,128,meters,jsons/VE125_randls_77_rotated.json,771555,1805187,1962,Woman
40,141370,DepthScenes,duration_manipulation_targetAtFixation,jsons/VE125_randls_77_rotated.json,http://54.235.29.9/FacialAge/BNav_EC2/DepthDuration/v2_depth_duration_MTurk/v2_DepthDuration_HTML.html#37,37,1366,625,1366,768,8-21-2022,9-58-7,41,depth_duration_stimuli/001650_2014-06-20_12-09-00_260595134347_rgbf000087-resize_3/001650_2014-06-20_12-09-00_260595134347_rgbf000087-resize_3-target.png,125,1.9505,3,4199,127,meters,jsons/VE125_randls_77_rotated.json,771555,1805187,1962,Woman
41,141370,DepthScenes,duration_manipulation_targetAtFixation,jsons/VE125_randls_77_rotated.json,http://54.235.29.9/FacialAge/BNav_EC2/DepthDuration/v2_depth_duration_MTurk/v2_DepthDuration_HTML.html#37,37,1366,625,1366,768,8-21-2022,9-58-7,42,depth_duration_stimuli/000682_2014-06-08_23-14-58_260595134347_rgbf000041-resize_5/000682_2014-06-08_23-14-58_260595134347_rgbf000041-resize_5-target.png,125,2.7239999999999998,3,3957,124,meters,jsons/VE125_randls_77_rotated.json,771555,1805187,1962,Woman
42,141370,DepthScenes,duration_manipulation_targetAtFixation,jsons/VE125_randls_77_rotated.json,http://54.235.29.9/FacialAge/BNav_EC2/DepthDuration/v2_depth_duration_MTurk/v2_DepthDuration_HTML.html#37,37,1366,625,1366,768,8-21-2022,9-58-7,43,depth_duration_stimuli/003048_2014-06-15_13-49-43_094959634447_rgbf000150-resize_1/003048_2014-06-15_13-49-43_094959634447_rgbf000150-resize_1-target.png,125,4.0035,4,5102,126,meters,jsons/VE125_randls_77_rotated.json,771555,1805187,1962,Woman
43,141370,DepthScenes,duration_manipulation_targetAtFixation,jsons/VE125_randls_77_rotated.json,http://54.235.29.9/FacialAge/BNav_EC2/DepthDuration/v2_depth_duration_MTurk/v2_DepthDuration_HTML.html#37,37,1366,625,1366,768,8-21-2022,9-58-7,44,depth_duration_stimuli/002043_2014-06-24_20-29-38_260595134347_rgbf000039-resize_4/002043_2014-06-24_20-29-38_260595134347_rgbf000039-resize_4-target.png,125,2.8435,3,4043,125,meters,jsons/VE125_randls_77_rotated.json,771555,1805187,1962,Woman
44,141370,DepthScenes,duration_manipulation_targetAtFixation,jsons/VE125_randls_77_rotated.json,http://54.235.29.9/FacialAge/BNav_EC2/DepthDuration/v2_depth_duration_MTurk/v2_DepthDuration_HTML.html#37,37,1366,625,1366,768,8-21-2022,9-58-7,45,depth_duration_stimuli/000103_2014-05-14_22-01-17_260595134347_rgbf000152-resize_5/000103_2014-05-14_22-01-17_260595134347_rgbf000152-resize_5-target.png,125,1.993,3,9150,127,meters,jsons/VE125_randls_77_rotated.json,771555,1805187,1962,Woman
45,141370,DepthScenes,duration_manipulation_targetAtFixation,jsons/VE125_randls_77_rotated.json,http://54.235.29.9/FacialAge/BNav_EC2/DepthDuration/v2_depth_duration_MTurk/v2_DepthDuration_HTML.html#37,37,1366,625,1366,768,8-21-2022,9-58-7,46,depth_duration_stimuli/001555_2014-06-20_17-12-10_260595134347_rgbf000065-resize_4/001555_2014-06-20_17-12-10_260595134347_rgbf000065-resize_4-target.png,125,1.633,33,2897,123,meters,jsons/VE125_randls_77_rotated.json,771555,1805187,1962,Woman
46,141370,DepthScenes,duration_manipulation_targetAtFixation,jsons/VE125_randls_77_rotated.json,http://54.235.29.9/FacialAge/BNav_EC2/DepthDuration/v2_depth_duration_MTurk/v2_DepthDuration_HTML.html#37,37,1366,625,1366,768,8-21-2022,9-58-7,47,depth_duration_stimuli/002805_2014-06-22_19-54-03_094959634447_rgbf000079-resize_1/002805_2014-06-22_19-54-03_094959634447_rgbf000079-resize_1-target.png,125,3.1439999999999997,5,3977,128,meters,jsons/VE125_randls_77_rotated.json,771555,1805187,1962,Woman
47,141370,DepthScenes,duration_manipulation_targetAtFixation,jsons/VE125_randls_77_rotated.json,http://54.235.29.9/FacialAge/BNav_EC2/DepthDuration/v2_depth_duration_MTurk/v2_DepthDuration_HTML.html#37,37,1366,625,1366,768,8-21-2022,9-58-7,48,depth_duration_stimuli/000906_2014-06-08_13-35-43_260595134347_rgbf000155-resize_1/000906_2014-06-08_13-35-43_260595134347_rgbf000155-resize_1-target.png,125,2.8489999999999998,5,3200,122,meters,jsons/VE125_randls_77_rotated.json,771555,1805187,1962,Woman
48,141370,DepthScenes,duration_manipulation_targetAtFixation,jsons/VE125_randls_77_rotated.json,http://54.235.29.9/FacialAge/BNav_EC2/DepthDuration/v2_depth_duration_MTurk/v2_DepthDuration_HTML.html#37,37,1366,625,1366,768,8-21-2022,9-58-7,49,depth_duration_stimuli/001170_2014-06-17_15-43-44_260595134347_rgbf000096-resize_6/001170_2014-06-17_15-43-44_260595134347_rgbf000096-resize-original.jpg,125,1.1909999999999998,5,5078,126,meters,jsons/VE125_randls_77_rotated.json,771555,1805187,1962,Woman
49,141370,DepthScenes,duration_manipulation_targetAtFixation,jsons/VE125_randls_77_rotated.json,http://54.235.29.9/FacialAge/BNav_EC2/DepthDuration/v2_depth_duration_MTurk/v2_DepthDuration_HTML.html#37,37,1366,625,1366,768,8-21-2022,9-58-7,50,depth_duration_stimuli/002758_2014-06-22_19-11-20_094959634447_rgbf000128-resize_1/002758_2014-06-22_19-11-20_094959634447_rgbf000128-resize_1-target.png,125,2.555,5,3088,124,meters,jsons/VE125_randls_77_rotated.json,771555,1805187,1962,Woman
50,141370,DepthScenes,duration_manipulation_targetAtFixation,jsons/VE125_randls_77_rotated.json,http://54.235.29.9/FacialAge/BNav_EC2/DepthDuration/v2_depth_duration_MTurk/v2_DepthDuration_HTML.html#37,37,1366,625,1366,768,8-21-2022,9-58-7,51,depth_duration_stimuli/002630_2014-06-24_14-47-50_094959634447_rgbf000055-resize_1/002630_2014-06-24_14-47-50_094959634447_rgbf000055-resize_1-target.png,125,3.0095,5,2812,125,meters,jsons/VE125_randls_77_rotated.json,771555,1805187,1962,Woman
51,141370,DepthScenes,duration_manipulation_targetAtFixation,jsons/VE125_randls_77_rotated.json,http://54.235.29.9/FacialAge/BNav_EC2/DepthDuration/v2_depth_duration_MTurk/v2_DepthDuration_HTML.html#37,37,1366,625,1366,768,8-21-2022,9-58-7,52,depth_duration_stimuli/002953_2014-06-08_17-32-18_094959634447_rgbf000059-resize_5/002953_2014-06-08_17-32-18_094959634447_rgbf000059-resize_5-target.png,125,1.551,3,3507,127,meters,jsons/VE125_randls_77_rotated.json,771555,1805187,1962,Woman
52,141370,DepthScenes,duration_manipulation_targetAtFixation,jsons/VE125_randls_77_rotated.json,http://54.235.29.9/FacialAge/BNav_EC2/DepthDuration/v2_depth_duration_MTurk/v2_DepthDuration_HTML.html#37,37,1366,625,1366,768,8-21-2022,9-58-7,53,depth_duration_stimuli/000878_2014-06-08_22-52-45_260595134347_rgbf000045-resize_2/000878_2014-06-08_22-52-45_260595134347_rgbf000045-resize_2-target.png,125,2.092,3,2925,113,meters,jsons/VE125_randls_77_rotated.json,771555,1805187,1962,Woman
53,141370,DepthScenes,duration_manipulation_targetAtFixation,jsons/VE125_randls_77_rotated.json,http://54.235.29.9/FacialAge/BNav_EC2/DepthDuration/v2_depth_duration_MTurk/v2_DepthDuration_HTML.html#37,37,1366,625,1366,768,8-21-2022,9-58-7,54,depth_duration_stimuli/002568_2014-06-24_13-59-21_094959634447_rgbf000062-resize_4/002568_2014-06-24_13-59-21_094959634447_rgbf000062-resize_4-target.png,125,3.015,3,2603,125,meters,jsons/VE125_randls_77_rotated.json,771555,1805187,1962,Woman
54,141370,DepthScenes,duration_manipulation_targetAtFixation,jsons/VE125_randls_77_rotated.json,http://54.235.29.9/FacialAge/BNav_EC2/DepthDuration/v2_depth_duration_MTurk/v2_DepthDuration_HTML.html#37,37,1366,625,1366,768,8-21-2022,9-58-7,55,depth_duration_stimuli/003492_2014-05-21_15-50-55_094959634447_rgbf000828-resize_1/003492_2014-05-21_15-50-55_094959634447_rgbf000828-resize_1-target.png,125,4.06875,3,2568,116,meters,jsons/VE125_randls_77_rotated.json,771555,1805187,1962,Woman
55,141370,DepthScenes,duration_manipulation_targetAtFixation,jsons/VE125_randls_77_rotated.json,http://54.235.29.9/FacialAge/BNav_EC2/DepthDuration/v2_depth_duration_MTurk/v2_DepthDuration_HTML.html#37,37,1366,625,1366,768,8-21-2022,9-58-7,56,depth_duration_stimuli/000927_2014-06-09_16-32-30_260595134347_rgbf000123-resize_3/000927_2014-06-09_16-32-30_260595134347_rgbf000123-resize_3-target.png,125,2.6785,0,5136,122,meters,jsons/VE125_randls_77_rotated.json,771555,1805187,1962,Woman
56,141370,DepthScenes,duration_manipulation_targetAtFixation,jsons/VE125_randls_77_rotated.json,http://54.235.29.9/FacialAge/BNav_EC2/DepthDuration/v2_depth_duration_MTurk/v2_DepthDuration_HTML.html#37,37,1366,625,1366,768,8-21-2022,9-58-7,57,depth_duration_stimuli/001110_2014-06-15_17-25-28_260595134347_rgbf000150-resize_1/001110_2014-06-15_17-25-28_260595134347_rgbf000150-resize_1-target.png,125,1.7115,4,2591,125,meters,jsons/VE125_randls_77_rotated.json,771555,1805187,1962,Woman
57,141370,DepthScenes,duration_manipulation_targetAtFixation,jsons/VE125_randls_77_rotated.json,http://54.235.29.9/FacialAge/BNav_EC2/DepthDuration/v2_depth_duration_MTurk/v2_DepthDuration_HTML.html#37,37,1366,625,1366,768,8-21-2022,9-58-7,58,depth_duration_stimuli/002657_2014-06-13_15-29-54_094959634447_rgbf000150-resize_1/002657_2014-06-13_15-29-54_094959634447_rgbf000150-resize_1-target.png,125,4.919,0,3606,109,meters,jsons/VE125_randls_77_rotated.json,771555,1805187,1962,Woman
58,141370,DepthScenes,duration_manipulation_targetAtFixation,jsons/VE125_randls_77_rotated.json,http://54.235.29.9/FacialAge/BNav_EC2/DepthDuration/v2_depth_duration_MTurk/v2_DepthDuration_HTML.html#37,37,1366,625,1366,768,8-21-2022,9-58-7,59,depth_duration_stimuli/002375_2014-06-28_20-13-44_260595134347_rgbf000032-resize_1/002375_2014-06-28_20-13-44_260595134347_rgbf000032-resize_1-target.png,125,4.0175,4,20238,127,meters,jsons/VE125_randls_77_rotated.json,771555,1805187,1962,Woman
59,141370,DepthScenes,duration_manipulation_targetAtFixation,jsons/VE125_randls_77_rotated.json,http://54.235.29.9/FacialAge/BNav_EC2/DepthDuration/v2_depth_duration_MTurk/v2_DepthDuration_HTML.html#37,37,1366,625,1366,768,8-21-2022,9-58-7,60,depth_duration_stimuli/000109_2014-05-14_23-41-52_260595134347_rgbf000035-resize_9/000109_2014-05-14_23-41-52_260595134347_rgbf000035-resize_9-target.png,125,1.3545,4,3935,126,meters,jsons/VE125_randls_77_rotated.json,771555,1805187,1962,Woman
60,141370,DepthScenes,duration_manipulation_targetAtFixation,jsons/VE125_randls_77_rotated.json,http://54.235.29.9/FacialAge/BNav_EC2/DepthDuration/v2_depth_duration_MTurk/v2_DepthDuration_HTML.html#37,37,1366,625,1366,768,8-21-2022,9-58-7,61,depth_duration_stimuli/000470_2014-06-09_19-42-40_260595134347_rgbf000094-resize_1/000470_2014-06-09_19-42-40_260595134347_rgbf000094-resize_1-target.png,125,1.831,4,45674,124,meters,jsons/VE125_randls_77_rotated.json,771555,1805187,1962,Woman
61,141370,DepthScenes,duration_manipulation_targetAtFixation,jsons/VE125_randls_77_rotated.json,http://54.235.29.9/FacialAge/BNav_EC2/DepthDuration/v2_depth_duration_MTurk/v2_DepthDuration_HTML.html#37,37,1366,625,1366,768,8-21-2022,9-58-7,62,depth_duration_stimuli/002414_2014-06-28_20-24-58_260595134347_rgbf000067-resize_4/002414_2014-06-28_20-24-58_260595134347_rgbf000067-resize_4-target.png,125,4.363,4,3308,124,meters,jsons/VE125_randls_77_rotated.json,771555,1805187,1962,Woman
62,141370,DepthScenes,duration_manipulation_targetAtFixation,jsons/VE125_randls_77_rotated.json,http://54.235.29.9/FacialAge/BNav_EC2/DepthDuration/v2_depth_duration_MTurk/v2_DepthDuration_HTML.html#37,37,1366,625,1366,768,8-21-2022,9-58-7,63,depth_duration_stimuli/000773_2014-06-08_22-24-54_260595134347_rgbf000093-resize_1/000773_2014-06-08_22-24-54_260595134347_rgbf000093-resize_1-target.png,125,4.973,3,2490,120,meters,jsons/VE125_randls_77_rotated.json,771555,1805187,1962,Woman
63,141370,DepthScenes,duration_manipulation_targetAtFixation,jsons/VE125_randls_77_rotated.json,http://54.235.29.9/FacialAge/BNav_EC2/DepthDuration/v2_depth_duration_MTurk/v2_DepthDuration_HTML.html#37,37,1366,625,1366,768,8-21-2022,9-58-7,64,depth_duration_stimuli/002875_2014-06-01_15-19-00_094959634447_rgbf000151-resize_1/002875_2014-06-01_15-19-00_094959634447_rgbf000151-resize_1-target.png,125,1.9675,4,3041,124,meters,jsons/VE125_randls_77_rotated.json,771555,1805187,1962,Woman
64,141370,DepthScenes,duration_manipulation_targetAtFixation,jsons/VE125_randls_77_rotated.json,http://54.235.29.9/FacialAge/BNav_EC2/DepthDuration/v2_depth_duration_MTurk/v2_DepthDuration_HTML.html#37,37,1366,625,1366,768,8-21-2022,9-58-7,65,depth_duration_stimuli/001011_2014-06-08_23-18-54_260595134347_rgbf000044-resize_4/001011_2014-06-08_23-18-54_260595134347_rgbf000044-resize_4-target.png,125,2.4730000000000003,5,3131,124,meters,jsons/VE125_randls_77_rotated.json,771555,1805187,1962,Woman
65,141370,DepthScenes,duration_manipulation_targetAtFixation,jsons/VE125_randls_77_rotated.json,http://54.235.29.9/FacialAge/BNav_EC2/DepthDuration/v2_depth_duration_MTurk/v2_DepthDuration_HTML.html#37,37,1366,625,1366,768,8-21-2022,9-58-7,66,depth_duration_stimuli/001540_2014-06-20_17-01-05_260595134347_rgbf000086-resize_2/001540_2014-06-20_17-01-05_260595134347_rgbf000086-resize-original.jpg,125,1.459,4,2554,120,meters,jsons/VE125_randls_77_rotated.json,771555,1805187,1962,Woman
66,141370,DepthScenes,duration_manipulation_targetAtFixation,jsons/VE125_randls_77_rotated.json,http://54.235.29.9/FacialAge/BNav_EC2/DepthDuration/v2_depth_duration_MTurk/v2_DepthDuration_HTML.html#37,37,1366,625,1366,768,8-21-2022,9-58-7,67,depth_duration_stimuli/000749_2014-06-08_21-55-06_260595134347_rgbf000070-resize_2/000749_2014-06-08_21-55-06_260595134347_rgbf000070-resize_2-target.png,125,2.331,5,2646,119,meters,jsons/VE125_randls_77_rotated.json,771555,1805187,1962,Woman
67,141370,DepthScenes,duration_manipulation_targetAtFixation,jsons/VE125_randls_77_rotated.json,http://54.235.29.9/FacialAge/BNav_EC2/DepthDuration/v2_depth_duration_MTurk/v2_DepthDuration_HTML.html#37,37,1366,625,1366,768,8-21-2022,9-58-7,68,depth_duration_stimuli/002788_2014-06-22_19-36-03_094959634447_rgbf000088-resize_2/002788_2014-06-22_19-36-03_094959634447_rgbf000088-resize_2-target.png,125,1.6465,4,2690,123,meters,jsons/VE125_randls_77_rotated.json,771555,1805187,1962,Woman
68,141370,DepthScenes,duration_manipulation_targetAtFixation,jsons/VE125_randls_77_rotated.json,http://54.235.29.9/FacialAge/BNav_EC2/DepthDuration/v2_depth_duration_MTurk/v2_DepthDuration_HTML.html#37,37,1366,625,1366,768,8-21-2022,9-58-7,69,depth_duration_stimuli/001584_2014-06-20_11-07-43_260595134347_rgbf000002-resize_1/001584_2014-06-20_11-07-43_260595134347_rgbf000002-resize_1-target.png,125,3.53,5,3679,141,meters,jsons/VE125_randls_77_rotated.json,771555,1805187,1962,Woman
69,141370,DepthScenes,duration_manipulation_targetAtFixation,jsons/VE125_randls_77_rotated.json,http://54.235.29.9/FacialAge/BNav_EC2/DepthDuration/v2_depth_duration_MTurk/v2_DepthDuration_HTML.html#37,37,1366,625,1366,768,8-21-2022,9-58-7,70,depth_duration_stimuli/003621_2014-05-23_18-06-08_094959634447_rgbf000101-resize_1/003621_2014-05-23_18-06-08_094959634447_rgbf000101-resize_1-target.png,125,3.9835,4,5449,127,meters,jsons/VE125_randls_77_rotated.json,771555,1805187,1962,Woman
70,141370,DepthScenes,duration_manipulation_targetAtFixation,jsons/VE125_randls_77_rotated.json,http://54.235.29.9/FacialAge/BNav_EC2/DepthDuration/v2_depth_duration_MTurk/v2_DepthDuration_HTML.html#37,37,1366,625,1366,768,8-21-2022,9-58-7,71,depth_duration_stimuli/002209_2014-06-28_18-36-10_260595134347_rgbf000051-resize_1/002209_2014-06-28_18-36-10_260595134347_rgbf000051-resize_1-target.png,125,2.057,5,4339,118,meters,jsons/VE125_randls_77_rotated.json,771555,1805187,1962,Woman
71,141370,DepthScenes,duration_manipulation_targetAtFixation,jsons/VE125_randls_77_rotated.json,http://54.235.29.9/FacialAge/BNav_EC2/DepthDuration/v2_depth_duration_MTurk/v2_DepthDuration_HTML.html#37,37,1366,625,1366,768,8-21-2022,9-58-7,72,depth_duration_stimuli/002763_2014-06-22_19-13-10_094959634447_rgbf000075-resize_4/002763_2014-06-22_19-13-10_094959634447_rgbf000075-resize_4-target.png,125,1.68375,5,4984,135,meters,jsons/VE125_randls_77_rotated.json,771555,1805187,1962,Woman
72,141370,DepthScenes,duration_manipulation_targetAtFixation,jsons/VE125_randls_77_rotated.json,http://54.235.29.9/FacialAge/BNav_EC2/DepthDuration/v2_depth_duration_MTurk/v2_DepthDuration_HTML.html#37,37,1366,625,1366,768,8-21-2022,9-58-7,73,depth_duration_stimuli/000742_2014-06-08_18-48-09_260595134347_rgbf000164-resize_4/000742_2014-06-08_18-48-09_260595134347_rgbf000164-resize_4-target.png,125,4.632,4,3282,122,meters,jsons/VE125_randls_77_rotated.json,771555,1805187,1962,Woman
73,141370,DepthScenes,duration_manipulation_targetAtFixation,jsons/VE125_randls_77_rotated.json,http://54.235.29.9/FacialAge/BNav_EC2/DepthDuration/v2_depth_duration_MTurk/v2_DepthDuration_HTML.html#37,37,1366,625,1366,768,8-21-2022,9-58-7,74,depth_duration_stimuli/001066_2014-06-08_22-03-20_260595134347_rgbf000066-resize_4/001066_2014-06-08_22-03-20_260595134347_rgbf000066-resize_4-target.png,125,4.2330000000000005,5,2524,125,meters,jsons/VE125_randls_77_rotated.json,771555,1805187,1962,Woman
74,141370,DepthScenes,duration_manipulation_targetAtFixation,jsons/VE125_randls_77_rotated.json,http://54.235.29.9/FacialAge/BNav_EC2/DepthDuration/v2_depth_duration_MTurk/v2_DepthDuration_HTML.html#37,37,1366,625,1366,768,8-21-2022,9-58-7,75,depth_duration_stimuli/001136_2014-06-17_15-19-41_260595134347_rgbf000076-resize_3/001136_2014-06-17_15-19-41_260595134347_rgbf000076-resize_3-target.png,125,1.8655,4,3857,125,meters,jsons/VE125_randls_77_rotated.json,771555,1805187,1962,Woman
75,141370,DepthScenes,duration_manipulation_targetAtFixation,jsons/VE125_randls_77_rotated.json,http://54.235.29.9/FacialAge/BNav_EC2/DepthDuration/v2_depth_duration_MTurk/v2_DepthDuration_HTML.html#37,37,1366,625,1366,768,8-21-2022,9-58-7,76,depth_duration_stimuli/001164_2014-06-17_15-35-46_260595134347_rgbf000085-resize_3/001164_2014-06-17_15-35-46_260595134347_rgbf000085-resize_3-target.png,125,2.354,5,3438,124,meters,jsons/VE125_randls_77_rotated.json,771555,1805187,1962,Woman
76,141370,DepthScenes,duration_manipulation_targetAtFixation,jsons/VE125_randls_77_rotated.json,http://54.235.29.9/FacialAge/BNav_EC2/DepthDuration/v2_depth_duration_MTurk/v2_DepthDuration_HTML.html#37,37,1366,625,1366,768,8-21-2022,9-58-7,77,depth_duration_stimuli/001094_2014-06-15_17-36-00_260595134347_rgbf000205-resize_0/001094_2014-06-15_17-36-00_260595134347_rgbf000205-resize_0-target.png,125,4.2175,4,3005,125,meters,jsons/VE125_randls_77_rotated.json,771555,1805187,1962,Woman
77,141370,DepthScenes,duration_manipulation_targetAtFixation,jsons/VE125_randls_77_rotated.json,http://54.235.29.9/FacialAge/BNav_EC2/DepthDuration/v2_depth_duration_MTurk/v2_DepthDuration_HTML.html#37,37,1366,625,1366,768,8-21-2022,9-58-7,78,depth_duration_stimuli/000692_2014-06-08_13-09-42_260595134347_rgbf000199-resize_2/000692_2014-06-08_13-09-42_260595134347_rgbf000199-resize_2-target.png,125,3.661,5,3240,124,meters,jsons/VE125_randls_77_rotated.json,771555,1805187,1962,Woman
78,141370,DepthScenes,duration_manipulation_targetAtFixation,jsons/VE125_randls_77_rotated.json,http://54.235.29.9/FacialAge/BNav_EC2/DepthDuration/v2_depth_duration_MTurk/v2_DepthDuration_HTML.html#37,37,1366,625,1366,768,8-21-2022,9-58-7,79,depth_duration_stimuli/000677_2014-06-08_23-10-32_260595134347_rgbf000158-resize_6/000677_2014-06-08_23-10-32_260595134347_rgbf000158-resize_6-target.png,125,3.556,4,2494,126,meters,jsons/VE125_randls_77_rotated.json,771555,1805187,1962,Woman
79,141370,DepthScenes,duration_manipulation_targetAtFixation,jsons/VE125_randls_77_rotated.json,http://54.235.29.9/FacialAge/BNav_EC2/DepthDuration/v2_depth_duration_MTurk/v2_DepthDuration_HTML.html#37,37,1366,625,1366,768,8-21-2022,9-58-7,80,depth_duration_stimuli/001029_2014-06-08_13-17-57_260595134347_rgbf000065-resize_1/001029_2014-06-08_13-17-57_260595134347_rgbf000065-resize_1-target.png,125,3.0835,5,3087,123,meters,jsons/VE125_randls_77_rotated.json,771555,1805187,1962,Woman
80,141370,DepthScenes,duration_manipulation_targetAtFixation,jsons/VE125_randls_77_rotated.json,http://54.235.29.9/FacialAge/BNav_EC2/DepthDuration/v2_depth_duration_MTurk/v2_DepthDuration_HTML.html#37,37,1366,625,1366,768,8-21-2022,9-58-7,81,depth_duration_stimuli/000780_2014-06-08_22-28-29_260595134347_rgbf000126-resize_1/000780_2014-06-08_22-28-29_260595134347_rgbf000126-resize_1-target.png,125,3.3825,4,2658,126,meters,jsons/VE125_randls_77_rotated.json,771555,1805187,1962,Woman
81,141370,DepthScenes,duration_manipulation_targetAtFixation,jsons/VE125_randls_77_rotated.json,http://54.235.29.9/FacialAge/BNav_EC2/DepthDuration/v2_depth_duration_MTurk/v2_DepthDuration_HTML.html#37,37,1366,625,1366,768,8-21-2022,9-58-7,82,depth_duration_stimuli/002445_2014-06-28_20-32-16_260595134347_rgbf000029-resize_4/002445_2014-06-28_20-32-16_260595134347_rgbf000029-resize_4-target.png,125,2.5315,5,3244,125,meters,jsons/VE125_randls_77_rotated.json,771555,1805187,1962,Woman
82,141370,DepthScenes,duration_manipulation_targetAtFixation,jsons/VE125_randls_77_rotated.json,http://54.235.29.9/FacialAge/BNav_EC2/DepthDuration/v2_depth_duration_MTurk/v2_DepthDuration_HTML.html#37,37,1366,625,1366,768,8-21-2022,9-58-7,83,depth_duration_stimuli/000483_2014-06-09_20-41-45_260595134347_rgbf000116-resize_4/000483_2014-06-09_20-41-45_260595134347_rgbf000116-resize_4-target.png,125,1.337,4,2513,125,meters,jsons/VE125_randls_77_rotated.json,771555,1805187,1962,Woman
83,141370,DepthScenes,duration_manipulation_targetAtFixation,jsons/VE125_randls_77_rotated.json,http://54.235.29.9/FacialAge/BNav_EC2/DepthDuration/v2_depth_duration_MTurk/v2_DepthDuration_HTML.html#37,37,1366,625,1366,768,8-21-2022,9-58-7,84,depth_duration_stimuli/000469_2014-06-09_19-42-10_260595134347_rgbf000081-resize_1/000469_2014-06-09_19-42-10_260595134347_rgbf000081-resize_1-target.png,125,1.652,5,2587,126,meters,jsons/VE125_randls_77_rotated.json,771555,1805187,1962,Woman
84,141370,DepthScenes,duration_manipulation_targetAtFixation,jsons/VE125_randls_77_rotated.json,http://54.235.29.9/FacialAge/BNav_EC2/DepthDuration/v2_depth_duration_MTurk/v2_DepthDuration_HTML.html#37,37,1366,625,1366,768,8-21-2022,9-58-7,85,depth_duration_stimuli/000502_2014-06-08_23-02-32_260595134347_rgbf000063-resize_4/000502_2014-06-08_23-02-32_260595134347_rgbf000063-resize_4-target.png,125,2.431,4,2525,126,meters,jsons/VE125_randls_77_rotated.json,771555,1805187,1962,Woman
85,141370,DepthScenes,duration_manipulation_targetAtFixation,jsons/VE125_randls_77_rotated.json,http://54.235.29.9/FacialAge/BNav_EC2/DepthDuration/v2_depth_duration_MTurk/v2_DepthDuration_HTML.html#37,37,1366,625,1366,768,8-21-2022,9-58-7,86,depth_duration_stimuli/001199_2014-06-17_16-03-48_260595134347_rgbf000077-resize_0/001199_2014-06-17_16-03-48_260595134347_rgbf000077-resize_0-target.png,125,3.4375,5,2530,124,meters,jsons/VE125_randls_77_rotated.json,771555,1805187,1962,Woman
86,141370,DepthScenes,duration_manipulation_targetAtFixation,jsons/VE125_randls_77_rotated.json,http://54.235.29.9/FacialAge/BNav_EC2/DepthDuration/v2_depth_duration_MTurk/v2_DepthDuration_HTML.html#37,37,1366,625,1366,768,8-21-2022,9-58-7,87,depth_duration_stimuli/000137_2014-05-20_17-04-49_260595134347_rgbf000120-resize_1/000137_2014-05-20_17-04-49_260595134347_rgbf000120-resize_1-target.png,125,3.786,4,2659,125,meters,jsons/VE125_randls_77_rotated.json,771555,1805187,1962,Woman
87,141370,DepthScenes,duration_manipulation_targetAtFixation,jsons/VE125_randls_77_rotated.json,http://54.235.29.9/FacialAge/BNav_EC2/DepthDuration/v2_depth_duration_MTurk/v2_DepthDuration_HTML.html#37,37,1366,625,1366,768,8-21-2022,9-58-7,88,depth_duration_stimuli/000736_2014-06-08_18-24-15_260595134347_rgbf000206-resize_3/000736_2014-06-08_18-24-15_260595134347_rgbf000206-resize_3-target.png,125,3.515,4,2807,125,meters,jsons/VE125_randls_77_rotated.json,771555,1805187,1962,Woman
88,141370,DepthScenes,duration_manipulation_targetAtFixation,jsons/VE125_randls_77_rotated.json,http://54.235.29.9/FacialAge/BNav_EC2/DepthDuration/v2_depth_duration_MTurk/v2_DepthDuration_HTML.html#37,37,1366,625,1366,768,8-21-2022,9-58-7,89,depth_duration_stimuli/003490_2014-05-21_15-50-11_094959634447_rgbf000101-resize_3/003490_2014-05-21_15-50-11_094959634447_rgbf000101-resize_3-target.png,125,3.6445,4,2417,122,meters,jsons/VE125_randls_77_rotated.json,771555,1805187,1962,Woman
89,141370,DepthScenes,duration_manipulation_targetAtFixation,jsons/VE125_randls_77_rotated.json,http://54.235.29.9/FacialAge/BNav_EC2/DepthDuration/v2_depth_duration_MTurk/v2_DepthDuration_HTML.html#37,37,1366,625,1366,768,8-21-2022,9-58-7,90,depth_duration_stimuli/001175_2014-06-17_15-45-55_260595134347_rgbf000129-resize_4/001175_2014-06-17_15-45-55_260595134347_rgbf000129-resize_4-target.png,125,4.255,4,2896,124,meters,jsons/VE125_randls_77_rotated.json,771555,1805187,1962,Woman
90,141370,DepthScenes,duration_manipulation_targetAtFixation,jsons/VE125_randls_77_rotated.json,http://54.235.29.9/FacialAge/BNav_EC2/DepthDuration/v2_depth_duration_MTurk/v2_DepthDuration_HTML.html#37,37,1366,625,1366,768,8-21-2022,9-58-7,91,depth_duration_stimuli/001447_2014-06-19_17-00-32_260595134347_rgbf000082-resize_5/001447_2014-06-19_17-00-32_260595134347_rgbf000082-resize_5-target.png,125,4.13775,5,2566,125,meters,jsons/VE125_randls_77_rotated.json,771555,1805187,1962,Woman
91,141370,DepthScenes,duration_manipulation_targetAtFixation,jsons/VE125_randls_77_rotated.json,http://54.235.29.9/FacialAge/BNav_EC2/DepthDuration/v2_depth_duration_MTurk/v2_DepthDuration_HTML.html#37,37,1366,625,1366,768,8-21-2022,9-58-7,92,depth_duration_stimuli/000447_2014-06-08_16-15-46_260595134347_rgbf000130-resize_1/000447_2014-06-08_16-15-46_260595134347_rgbf000130-resize_1-target.png,125,4.479,4,69114,124,meters,jsons/VE125_randls_77_rotated.json,771555,1805187,1962,Woman
92,141370,DepthScenes,duration_manipulation_targetAtFixation,jsons/VE125_randls_77_rotated.json,http://54.235.29.9/FacialAge/BNav_EC2/DepthDuration/v2_depth_duration_MTurk/v2_DepthDuration_HTML.html#37,37,1366,625,1366,768,8-21-2022,9-58-7,93,depth_duration_stimuli/000191_2014-05-12_17-07-38_260595134347_rgbf000199-resize_0/000191_2014-05-12_17-07-38_260595134347_rgbf000199-resize_0-target.png,125,3.7995,4,2809,126,meters,jsons/VE125_randls_77_rotated.json,771555,1805187,1962,Woman
93,141370,DepthScenes,duration_manipulation_targetAtFixation,jsons/VE125_randls_77_rotated.json,http://54.235.29.9/FacialAge/BNav_EC2/DepthDuration/v2_depth_duration_MTurk/v2_DepthDuration_HTML.html#37,37,1366,625,1366,768,8-21-2022,9-58-7,94,depth_duration_stimuli/000493_2014-06-09_21-01-18_260595134347_rgbf000196-resize_3/000493_2014-06-09_21-01-18_260595134347_rgbf000196-resize_3-target.png,125,3.44,4,2531,114,meters,jsons/VE125_randls_77_rotated.json,771555,1805187,1962,Woman
94,141370,DepthScenes,duration_manipulation_targetAtFixation,jsons/VE125_randls_77_rotated.json,http://54.235.29.9/FacialAge/BNav_EC2/DepthDuration/v2_depth_duration_MTurk/v2_DepthDuration_HTML.html#37,37,1366,625,1366,768,8-21-2022,9-58-7,95,depth_duration_stimuli/001828_2014-06-26_21-40-03_260595134347_rgbf000024-resize_0/001828_2014-06-26_21-40-03_260595134347_rgbf000024-resize_0-target.png,125,4.8260000000000005,4,2748,125,meters,jsons/VE125_randls_77_rotated.json,771555,1805187,1962,Woman
95,141370,DepthScenes,duration_manipulation_targetAtFixation,jsons/VE125_randls_77_rotated.json,http://54.235.29.9/FacialAge/BNav_EC2/DepthDuration/v2_depth_duration_MTurk/v2_DepthDuration_HTML.html#37,37,1366,625,1366,768,8-21-2022,9-58-7,96,depth_duration_stimuli/000009_2014-05-26_14-32-05_260595134347_rgbf000034-resize_3/000009_2014-05-26_14-32-05_260595134347_rgbf000034-resize_3-target.png,125,3.8715,4,3836,129,meters,jsons/VE125_randls_77_rotated.json,771555,1805187,1962,Woman
96,141370,DepthScenes,duration_manipulation_targetAtFixation,jsons/VE125_randls_77_rotated.json,http://54.235.29.9/FacialAge/BNav_EC2/DepthDuration/v2_depth_duration_MTurk/v2_DepthDuration_HTML.html#37,37,1366,625,1366,768,8-21-2022,9-58-7,97,depth_duration_stimuli/001617_2014-06-20_11-35-32_260595134347_rgbf000066-resize_1/001617_2014-06-20_11-35-32_260595134347_rgbf000066-resize_1-target.png,125,3.7910000000000004,5,3888,112,meters,jsons/VE125_randls_77_rotated.json,771555,1805187,1962,Woman
97,141370,DepthScenes,duration_manipulation_targetAtFixation,jsons/VE125_randls_77_rotated.json,http://54.235.29.9/FacialAge/BNav_EC2/DepthDuration/v2_depth_duration_MTurk/v2_DepthDuration_HTML.html#37,37,1366,625,1366,768,8-21-2022,9-58-7,98,depth_duration_stimuli/001806_2014-06-26_20-50-20_260595134347_rgbf000091-resize_1/001806_2014-06-26_20-50-20_260595134347_rgbf000091-resize_1-target.png,125,2.7305,3,2930,129,meters,jsons/VE125_randls_77_rotated.json,771555,1805187,1962,Woman
98,141370,DepthScenes,duration_manipulation_targetAtFixation,jsons/VE125_randls_77_rotated.json,http://54.235.29.9/FacialAge/BNav_EC2/DepthDuration/v2_depth_duration_MTurk/v2_DepthDuration_HTML.html#37,37,1366,625,1366,768,8-21-2022,9-58-7,99,depth_duration_stimuli/001222_2014-06-17_16-24-06_260595134347_rgbf000073-resize_0/001222_2014-06-17_16-24-06_260595134347_rgbf000073-resize-original.jpg,125,1.4385,3,2993,123,meters,jsons/VE125_randls_77_rotated.json,771555,1805187,1962,Woman
99,141370,DepthScenes,duration_manipulation_targetAtFixation,jsons/VE125_randls_77_rotated.json,http://54.235.29.9/FacialAge/BNav_EC2/DepthDuration/v2_depth_duration_MTurk/v2_DepthDuration_HTML.html#37,37,1366,625,1366,768,8-21-2022,9-58-7,100,depth_duration_stimuli/002750_2014-06-22_19-08-03_094959634447_rgbf000094-resize_4/002750_2014-06-22_19-08-03_094959634447_rgbf000094-resize_4-target.png,125,2.354,4,6511,115,meters,jsons/VE125_randls_77_rotated.json,771555,1805187,1962,Woman
100,141370,DepthScenes,duration_manipulation_targetAtFixation,jsons/VE125_randls_77_rotated.json,http://54.235.29.9/FacialAge/BNav_EC2/DepthDuration/v2_depth_duration_MTurk/v2_DepthDuration_HTML.html#37,37,1366,625,1366,768,8-21-2022,9-58-7,101,depth_duration_stimuli/002549_2014-06-24_13-41-39_094959634447_rgbf000022-resize_3/002549_2014-06-24_13-41-39_094959634447_rgbf000022-resize_3-target.png,125,1.476,5,5431,115,meters,jsons/VE125_randls_77_rotated.json,771555,1805187,1962,Woman
101,141370,DepthScenes,duration_manipulation_targetAtFixation,jsons/VE125_randls_77_rotated.json,http://54.235.29.9/FacialAge/BNav_EC2/DepthDuration/v2_depth_duration_MTurk/v2_DepthDuration_HTML.html#37,37,1366,625,1366,768,8-21-2022,9-58-7,102,depth_duration_stimuli/001450_2014-06-19_17-02-03_260595134347_rgbf000203-resize_4/001450_2014-06-19_17-02-03_260595134347_rgbf000203-resize_4-target.png,125,4.0106666666667,4,3015,127,meters,jsons/VE125_randls_77_rotated.json,771555,1805187,1962,Woman
102,141370,DepthScenes,duration_manipulation_targetAtFixation,jsons/VE125_randls_77_rotated.json,http://54.235.29.9/FacialAge/BNav_EC2/DepthDuration/v2_depth_duration_MTurk/v2_DepthDuration_HTML.html#37,37,1366,625,1366,768,8-21-2022,9-58-7,103,depth_duration_stimuli/001449_2014-06-19_17-01-27_260595134347_rgbf000116-resize_2/001449_2014-06-19_17-01-27_260595134347_rgbf000116-resize_2-target.png,125,3.452,4,2356,125,meters,jsons/VE125_randls_77_rotated.json,771555,1805187,1962,Woman
103,141370,DepthScenes,duration_manipulation_targetAtFixation,jsons/VE125_randls_77_rotated.json,http://54.235.29.9/FacialAge/BNav_EC2/DepthDuration/v2_depth_duration_MTurk/v2_DepthDuration_HTML.html#37,37,1366,625,1366,768,8-21-2022,9-58-7,104,depth_duration_stimuli/002103_2014-06-25_20-00-40_260595134347_rgbf000049-resize_0/002103_2014-06-25_20-00-40_260595134347_rgbf000049-resize_0-target.png,125,4.105,5,2902,124,meters,jsons/VE125_randls_77_rotated.json,771555,1805187,1962,Woman
104,141370,DepthScenes,duration_manipulation_targetAtFixation,jsons/VE125_randls_77_rotated.json,http://54.235.29.9/FacialAge/BNav_EC2/DepthDuration/v2_depth_duration_MTurk/v2_DepthDuration_HTML.html#37,37,1366,625,1366,768,8-21-2022,9-58-7,105,depth_duration_stimuli/002039_2014-06-24_20-22-38_260595134347_rgbf000084-resize_1/002039_2014-06-24_20-22-38_260595134347_rgbf000084-resize_1-target.png,125,4.408,0,3259,112,meters,jsons/VE125_randls_77_rotated.json,771555,1805187,1962,Woman
105,141370,DepthScenes,duration_manipulation_targetAtFixation,jsons/VE125_randls_77_rotated.json,http://54.235.29.9/FacialAge/BNav_EC2/DepthDuration/v2_depth_duration_MTurk/v2_DepthDuration_HTML.html#37,37,1366,625,1366,768,8-21-2022,9-58-7,106,depth_duration_stimuli/001052_2014-06-08_18-24-54_260595134347_rgbf000130-resize_1/001052_2014-06-08_18-24-54_260595134347_rgbf000130-resize_1-target.png,125,4.1045,4,2818,126,meters,jsons/VE125_randls_77_rotated.json,771555,1805187,1962,Woman
106,141370,DepthScenes,duration_manipulation_targetAtFixation,jsons/VE125_randls_77_rotated.json,http://54.235.29.9/FacialAge/BNav_EC2/DepthDuration/v2_depth_duration_MTurk/v2_DepthDuration_HTML.html#37,37,1366,625,1366,768,8-21-2022,9-58-7,107,depth_duration_stimuli/002988_2014-06-15_12-24-20_094959634447_rgbf000150-resize_1/002988_2014-06-15_12-24-20_094959634447_rgbf000150-resize_1-target.png,125,4.7669999999999995,4,2528,122,meters,jsons/VE125_randls_77_rotated.json,771555,1805187,1962,Woman
107,141370,DepthScenes,duration_manipulation_targetAtFixation,jsons/VE125_randls_77_rotated.json,http://54.235.29.9/FacialAge/BNav_EC2/DepthDuration/v2_depth_duration_MTurk/v2_DepthDuration_HTML.html#37,37,1366,625,1366,768,8-21-2022,9-58-7,108,depth_duration_stimuli/000943_2014-06-09_19-31-07_260595134347_rgbf000128-resize_1/000943_2014-06-09_19-31-07_260595134347_rgbf000128-resize_1-target.png,125,1.9765,4,2946,126,meters,jsons/VE125_randls_77_rotated.json,771555,1805187,1962,Woman
108,141370,DepthScenes,duration_manipulation_targetAtFixation,jsons/VE125_randls_77_rotated.json,http://54.235.29.9/FacialAge/BNav_EC2/DepthDuration/v2_depth_duration_MTurk/v2_DepthDuration_HTML.html#37,37,1366,625,1366,768,8-21-2022,9-58-7,109,depth_duration_stimuli/003070_2014-06-15_14-58-27_094959634447_rgbf000150-resize_3/003070_2014-06-15_14-58-27_094959634447_rgbf000150-resize_3-target.png,125,2.9415,5,2571,125,meters,jsons/VE125_randls_77_rotated.json,771555,1805187,1962,Woman
109,141370,DepthScenes,duration_manipulation_targetAtFixation,jsons/VE125_randls_77_rotated.json,http://54.235.29.9/FacialAge/BNav_EC2/DepthDuration/v2_depth_duration_MTurk/v2_DepthDuration_HTML.html#37,37,1366,625,1366,768,8-21-2022,9-58-7,110,depth_duration_stimuli/000734_2014-06-08_17-39-11_260595134347_rgbf000128-resize_2/000734_2014-06-08_17-39-11_260595134347_rgbf000128-resize_2-target.png,125,4.098,4,2466,121,meters,jsons/VE125_randls_77_rotated.json,771555,1805187,1962,Woman
110,141370,DepthScenes,duration_manipulation_targetAtFixation,jsons/VE125_randls_77_rotated.json,http://54.235.29.9/FacialAge/BNav_EC2/DepthDuration/v2_depth_duration_MTurk/v2_DepthDuration_HTML.html#37,37,1366,625,1366,768,8-21-2022,9-58-7,111,depth_duration_stimuli/000739_2014-06-08_18-45-58_260595134347_rgbf000068-resize_1/000739_2014-06-08_18-45-58_260595134347_rgbf000068-resize_1-target.png,125,3.534,5,2497,127,meters,jsons/VE125_randls_77_rotated.json,771555,1805187,1962,Woman
111,141370,DepthScenes,duration_manipulation_targetAtFixation,jsons/VE125_randls_77_rotated.json,http://54.235.29.9/FacialAge/BNav_EC2/DepthDuration/v2_depth_duration_MTurk/v2_DepthDuration_HTML.html#37,37,1366,625,1366,768,8-21-2022,9-58-7,112,depth_duration_stimuli/003010_2014-06-15_12-54-35_094959634447_rgbf000112-resize_0/003010_2014-06-15_12-54-35_094959634447_rgbf000112-resize_0-target.png,125,3.1185,4,2588,113,meters,jsons/VE125_randls_77_rotated.json,771555,1805187,1962,Woman
112,141370,DepthScenes,duration_manipulation_targetAtFixation,jsons/VE125_randls_77_rotated.json,http://54.235.29.9/FacialAge/BNav_EC2/DepthDuration/v2_depth_duration_MTurk/v2_DepthDuration_HTML.html#37,37,1366,625,1366,768,8-21-2022,9-58-7,113,depth_duration_stimuli/001810_2014-06-26_20-51-35_260595134347_rgbf000040-resize_3/001810_2014-06-26_20-51-35_260595134347_rgbf000040-resize_3-target.png,125,2.2525,5,2395,126,meters,jsons/VE125_randls_77_rotated.json,771555,1805187,1962,Woman
113,141370,DepthScenes,duration_manipulation_targetAtFixation,jsons/VE125_randls_77_rotated.json,http://54.235.29.9/FacialAge/BNav_EC2/DepthDuration/v2_depth_duration_MTurk/v2_DepthDuration_HTML.html#37,37,1366,625,1366,768,8-21-2022,9-58-7,114,depth_duration_stimuli/001132_2014-06-17_14-48-54_260595134347_rgbf000100-resize_2/001132_2014-06-17_14-48-54_260595134347_rgbf000100-resize_2-target.png,125,3.753,4,2381,125,meters,jsons/VE125_randls_77_rotated.json,771555,1805187,1962,Woman
114,141370,DepthScenes,duration_manipulation_targetAtFixation,jsons/VE125_randls_77_rotated.json,http://54.235.29.9/FacialAge/BNav_EC2/DepthDuration/v2_depth_duration_MTurk/v2_DepthDuration_HTML.html#37,37,1366,625,1366,768,8-21-2022,9-58-7,115,depth_duration_stimuli/001133_2014-06-17_14-49-16_260595134347_rgbf000100-resize_0/001133_2014-06-17_14-49-16_260595134347_rgbf000100-resize_0-target.png,125,4.2115,5,2362,126,meters,jsons/VE125_randls_77_rotated.json,771555,1805187,1962,Woman
115,141370,DepthScenes,duration_manipulation_targetAtFixation,jsons/VE125_randls_77_rotated.json,http://54.235.29.9/FacialAge/BNav_EC2/DepthDuration/v2_depth_duration_MTurk/v2_DepthDuration_HTML.html#37,37,1366,625,1366,768,8-21-2022,9-58-7,116,depth_duration_stimuli/001516_2014-06-20_16-25-09_260595134347_rgbf000076-resize_2/001516_2014-06-20_16-25-09_260595134347_rgbf000076-resize_2-target.png,125,1.7445,4,3117,122,meters,jsons/VE125_randls_77_rotated.json,771555,1805187,1962,Woman
116,141370,DepthScenes,duration_manipulation_targetAtFixation,jsons/VE125_randls_77_rotated.json,http://54.235.29.9/FacialAge/BNav_EC2/DepthDuration/v2_depth_duration_MTurk/v2_DepthDuration_HTML.html#37,37,1366,625,1366,768,8-21-2022,9-58-7,117,depth_duration_stimuli/002118_2014-06-25_20-32-08_260595134347_rgbf000078-resize_1/002118_2014-06-25_20-32-08_260595134347_rgbf000078-resize_1-target.png,125,2.6460000000000004,5,2796,127,meters,jsons/VE125_randls_77_rotated.json,771555,1805187,1962,Woman
117,141370,DepthScenes,duration_manipulation_targetAtFixation,jsons/VE125_randls_77_rotated.json,http://54.235.29.9/FacialAge/BNav_EC2/DepthDuration/v2_depth_duration_MTurk/v2_DepthDuration_HTML.html#37,37,1366,625,1366,768,8-21-2022,9-58-7,118,depth_duration_stimuli/001815_2014-06-26_20-52-55_260595134347_rgbf000020-resize_0/001815_2014-06-26_20-52-55_260595134347_rgbf000020-resize_0-target.png,125,3.3865,4,2475,120,meters,jsons/VE125_randls_77_rotated.json,771555,1805187,1962,Woman
118,141370,DepthScenes,duration_manipulation_targetAtFixation,jsons/VE125_randls_77_rotated.json,http://54.235.29.9/FacialAge/BNav_EC2/DepthDuration/v2_depth_duration_MTurk/v2_DepthDuration_HTML.html#37,37,1366,625,1366,768,8-21-2022,9-58-7,119,depth_duration_stimuli/001808_2014-06-26_20-50-58_260595134347_rgbf000029-resize_1/001808_2014-06-26_20-50-58_260595134347_rgbf000029-resize_1-target.png,125,4.249,5,2572,116,meters,jsons/VE125_randls_77_rotated.json,771555,1805187,1962,Woman
119,141370,DepthScenes,duration_manipulation_targetAtFixation,jsons/VE125_randls_77_rotated.json,http://54.235.29.9/FacialAge/BNav_EC2/DepthDuration/v2_depth_duration_MTurk/v2_DepthDuration_HTML.html#37,37,1366,625,1366,768,8-21-2022,9-58-7,120,depth_duration_stimuli/000787_2014-06-08_22-33-53_260595134347_rgbf000175-resize_1/000787_2014-06-08_22-33-53_260595134347_rgbf000175-resize-original.jpg,125,4.784,4,2537,137,meters,jsons/VE125_randls_77_rotated.json,771555,1805187,1962,Woman
120,141370,DepthScenes,duration_manipulation_targetAtFixation,jsons/VE125_randls_77_rotated.json,http://54.235.29.9/FacialAge/BNav_EC2/DepthDuration/v2_depth_duration_MTurk/v2_DepthDuration_HTML.html#37,37,1366,625,1366,768,8-21-2022,9-58-7,121,depth_duration_stimuli/000635_2014-06-08_16-38-42_260595134347_rgbf000106-resize_1/000635_2014-06-08_16-38-42_260595134347_rgbf000106-resize_1-target.png,125,2.074,5,2430,124,meters,jsons/VE125_randls_77_rotated.json,771555,1805187,1962,Woman
121,141370,DepthScenes,duration_manipulation_targetAtFixation,jsons/VE125_randls_77_rotated.json,http://54.235.29.9/FacialAge/BNav_EC2/DepthDuration/v2_depth_duration_MTurk/v2_DepthDuration_HTML.html#37,37,1366,625,1366,768,8-21-2022,9-58-7,122,depth_duration_stimuli/002279_2014-06-28_18-55-32_260595134347_rgbf000040-resize_5/002279_2014-06-28_18-55-32_260595134347_rgbf000040-resize_5-target.png,125,1.5043333333333,4,2569,124,meters,jsons/VE125_randls_77_rotated.json,771555,1805187,1962,Woman
122,141370,DepthScenes,duration_manipulation_targetAtFixation,jsons/VE125_randls_77_rotated.json,http://54.235.29.9/FacialAge/BNav_EC2/DepthDuration/v2_depth_duration_MTurk/v2_DepthDuration_HTML.html#37,37,1366,625,1366,768,8-21-2022,9-58-7,123,depth_duration_stimuli/003083_2014-06-15_15-21-03_094959634447_rgbf000063-resize_1/003083_2014-06-15_15-21-03_094959634447_rgbf000063-resize_1-target.png,125,4.1405,5,2489,121,meters,jsons/VE125_randls_77_rotated.json,771555,1805187,1962,Woman
123,141370,DepthScenes,duration_manipulation_targetAtFixation,jsons/VE125_randls_77_rotated.json,http://54.235.29.9/FacialAge/BNav_EC2/DepthDuration/v2_depth_duration_MTurk/v2_DepthDuration_HTML.html#37,37,1366,625,1366,768,8-21-2022,9-58-7,124,depth_duration_stimuli/000486_2014-06-09_20-47-20_260595134347_rgbf000143-resize_2/000486_2014-06-09_20-47-20_260595134347_rgbf000143-resize_2-target.png,125,4.8325,4,2521,125,meters,jsons/VE125_randls_77_rotated.json,771555,1805187,1962,Woman
124,141370,DepthScenes,duration_manipulation_targetAtFixation,jsons/VE125_randls_77_rotated.json,http://54.235.29.9/FacialAge/BNav_EC2/DepthDuration/v2_depth_duration_MTurk/v2_DepthDuration_HTML.html#37,37,1366,625,1366,768,8-21-2022,9-58-7,125,depth_duration_stimuli/000691_2014-06-08_13-08-50_260595134347_rgbf000132-resize_3/000691_2014-06-08_13-08-50_260595134347_rgbf000132-resize_3-target.png,125,4.1530000000000005,5,2441,124,meters,jsons/VE125_randls_77_rotated.json,771555,1805187,1962,Woman
125,141370,DepthScenes,duration_manipulation_targetAtFixation,jsons/VE125_randls_77_rotated.json,http://54.235.29.9/FacialAge/BNav_EC2/DepthDuration/v2_depth_duration_MTurk/v2_DepthDuration_HTML.html#37,37,1366,625,1366,768,8-21-2022,9-58-7,126,depth_duration_stimuli/002213_2014-06-28_18-37-58_260595134347_rgbf000055-resize_1/002213_2014-06-28_18-37-58_260595134347_rgbf000055-resize_1-target.png,125,3.62,4,2477,125,meters,jsons/VE125_randls_77_rotated.json,771555,1805187,1962,Woman
126,141370,DepthScenes,duration_manipulation_targetAtFixation,jsons/VE125_randls_77_rotated.json,http://54.235.29.9/FacialAge/BNav_EC2/DepthDuration/v2_depth_duration_MTurk/v2_DepthDuration_HTML.html#37,37,1366,625,1366,768,8-21-2022,9-58-7,127,depth_duration_stimuli/003495_2014-05-21_16-01-51_094959634447_rgbf000100-resize_3/003495_2014-05-21_16-01-51_094959634447_rgbf000100-resize_3-target.png,125,1.6255,5,2807,124,meters,jsons/VE125_randls_77_rotated.json,771555,1805187,1962,Woman
127,141370,DepthScenes,duration_manipulation_targetAtFixation,jsons/VE125_randls_77_rotated.json,http://54.235.29.9/FacialAge/BNav_EC2/DepthDuration/v2_depth_duration_MTurk/v2_DepthDuration_HTML.html#37,37,1366,625,1366,768,8-21-2022,9-58-7,128,depth_duration_stimuli/001244_2014-06-17_16-47-45_260595134347_rgbf000030-resize_4/001244_2014-06-17_16-47-45_260595134347_rgbf000030-resize_4-target.png,125,2.0425,4,2406,123,meters,jsons/VE125_randls_77_rotated.json,771555,1805187,1962,Woman
128,141370,DepthScenes,duration_manipulation_targetAtFixation,jsons/VE125_randls_77_rotated.json,http://54.235.29.9/FacialAge/BNav_EC2/DepthDuration/v2_depth_duration_MTurk/v2_DepthDuration_HTML.html#37,37,1366,625,1366,768,8-21-2022,9-58-7,129,depth_duration_stimuli/000866_2014-06-09_20-45-42_260595134347_rgbf000139-resize_1/000866_2014-06-09_20-45-42_260595134347_rgbf000139-resize_1-target.png,125,3.2155,5,2404,121,meters,jsons/VE125_randls_77_rotated.json,771555,1805187,1962,Woman
129,141370,DepthScenes,duration_manipulation_targetAtFixation,jsons/VE125_randls_77_rotated.json,http://54.235.29.9/FacialAge/BNav_EC2/DepthDuration/v2_depth_duration_MTurk/v2_DepthDuration_HTML.html#37,37,1366,625,1366,768,8-21-2022,9-58-7,130,depth_duration_stimuli/002989_2014-06-15_12-25-03_094959634447_rgbf000150-resize_3/002989_2014-06-15_12-25-03_094959634447_rgbf000150-resize_3-target.png,125,4.1975,4,2514,125,meters,jsons/VE125_randls_77_rotated.json,771555,1805187,1962,Woman
130,141370,DepthScenes,duration_manipulation_targetAtFixation,jsons/VE125_randls_77_rotated.json,http://54.235.29.9/FacialAge/BNav_EC2/DepthDuration/v2_depth_duration_MTurk/v2_DepthDuration_HTML.html#37,37,1366,625,1366,768,8-21-2022,9-58-7,131,depth_duration_stimuli/001235_2014-06-17_16-37-36_260595134347_rgbf000084-resize_4/001235_2014-06-17_16-37-36_260595134347_rgbf000084-resize_4-target.png,125,3.6605,5,2316,131,meters,jsons/VE125_randls_77_rotated.json,771555,1805187,1962,Woman
131,141370,DepthScenes,duration_manipulation_targetAtFixation,jsons/VE125_randls_77_rotated.json,http://54.235.29.9/FacialAge/BNav_EC2/DepthDuration/v2_depth_duration_MTurk/v2_DepthDuration_HTML.html#37,37,1366,625,1366,768,8-21-2022,9-58-7,132,depth_duration_stimuli/000788_2014-06-08_22-34-36_260595134347_rgbf000131-resize_1/000788_2014-06-08_22-34-36_260595134347_rgbf000131-resize_1-target.png,125,3.359,4,2339,125,meters,jsons/VE125_randls_77_rotated.json,771555,1805187,1962,Woman
132,141370,DepthScenes,duration_manipulation_targetAtFixation,jsons/VE125_randls_77_rotated.json,http://54.235.29.9/FacialAge/BNav_EC2/DepthDuration/v2_depth_duration_MTurk/v2_DepthDuration_HTML.html#37,37,1366,625,1366,768,8-21-2022,9-58-7,133,depth_duration_stimuli/003081_2014-06-15_15-19-16_094959634447_rgbf000150-resize_1/003081_2014-06-15_15-19-16_094959634447_rgbf000150-resize_1-target.png,125,3.9125,4,2298,125,meters,jsons/VE125_randls_77_rotated.json,771555,1805187,1962,Woman
133,141370,DepthScenes,duration_manipulation_targetAtFixation,jsons/VE125_randls_77_rotated.json,http://54.235.29.9/FacialAge/BNav_EC2/DepthDuration/v2_depth_duration_MTurk/v2_DepthDuration_HTML.html#37,37,1366,625,1366,768,8-21-2022,9-58-7,134,depth_duration_stimuli/001417_2014-06-19_16-25-36_260595134347_rgbf000115-resize_5/001417_2014-06-19_16-25-36_260595134347_rgbf000115-resize_5-target.png,125,4.6255,5,2349,124,meters,jsons/VE125_randls_77_rotated.json,771555,1805187,1962,Woman
134,141370,DepthScenes,duration_manipulation_targetAtFixation,jsons/VE125_randls_77_rotated.json,http://54.235.29.9/FacialAge/BNav_EC2/DepthDuration/v2_depth_duration_MTurk/v2_DepthDuration_HTML.html#37,37,1366,625,1366,768,8-21-2022,9-58-7,135,depth_duration_stimuli/000375_2014-06-08_11-17-29_260595134347_rgbf000133-resize_2/000375_2014-06-08_11-17-29_260595134347_rgbf000133-resize-original.jpg,125,4.718,4,2249,125,meters,jsons/VE125_randls_77_rotated.json,771555,1805187,1962,Woman
135,141370,DepthScenes,duration_manipulation_targetAtFixation,jsons/VE125_randls_77_rotated.json,http://54.235.29.9/FacialAge/BNav_EC2/DepthDuration/v2_depth_duration_MTurk/v2_DepthDuration_HTML.html#37,37,1366,625,1366,768,8-21-2022,9-58-7,136,depth_duration_stimuli/002340_2014-06-28_20-05-46_260595134347_rgbf000113-resize_0/002340_2014-06-28_20-05-46_260595134347_rgbf000113-resize_0-target.png,125,2.4735,5,2272,120,meters,jsons/VE125_randls_77_rotated.json,771555,1805187,1962,Woman
136,141370,DepthScenes,duration_manipulation_targetAtFixation,jsons/VE125_randls_77_rotated.json,http://54.235.29.9/FacialAge/BNav_EC2/DepthDuration/v2_depth_duration_MTurk/v2_DepthDuration_HTML.html#37,37,1366,625,1366,768,8-21-2022,9-58-7,137,depth_duration_stimuli/001016_2014-06-09_16-16-10_260595134347_rgbf000112-resize_5/001016_2014-06-09_16-16-10_260595134347_rgbf000112-resize_5-target.png,125,1.6565,4,2581,124,meters,jsons/VE125_randls_77_rotated.json,771555,1805187,1962,Woman
137,141370,DepthScenes,duration_manipulation_targetAtFixation,jsons/VE125_randls_77_rotated.json,http://54.235.29.9/FacialAge/BNav_EC2/DepthDuration/v2_depth_duration_MTurk/v2_DepthDuration_HTML.html#37,37,1366,625,1366,768,8-21-2022,9-58-7,138,depth_duration_stimuli/002995_2014-06-15_12-31-26_094959634447_rgbf000150-resize_1/002995_2014-06-15_12-31-26_094959634447_rgbf000150-resize_1-target.png,125,3.8360000000000003,5,2504,124,meters,jsons/VE125_randls_77_rotated.json,771555,1805187,1962,Woman
138,141370,DepthScenes,duration_manipulation_targetAtFixation,jsons/VE125_randls_77_rotated.json,http://54.235.29.9/FacialAge/BNav_EC2/DepthDuration/v2_depth_duration_MTurk/v2_DepthDuration_HTML.html#37,37,1366,625,1366,768,8-21-2022,9-58-7,139,depth_duration_stimuli/002748_2014-06-22_19-07-22_094959634447_rgbf000078-resize_1/002748_2014-06-22_19-07-22_094959634447_rgbf000078-resize_1-target.png,125,4.6705,4,2265,126,meters,jsons/VE125_randls_77_rotated.json,771555,1805187,1962,Woman
139,141370,DepthScenes,duration_manipulation_targetAtFixation,jsons/VE125_randls_77_rotated.json,http://54.235.29.9/FacialAge/BNav_EC2/DepthDuration/v2_depth_duration_MTurk/v2_DepthDuration_HTML.html#37,37,1366,625,1366,768,8-21-2022,9-58-7,140,depth_duration_stimuli/002639_2014-06-24_14-51-37_094959634447_rgbf000074-resize_4/002639_2014-06-24_14-51-37_094959634447_rgbf000074-resize_4-target.png,125,4.0375,5,2190,111,meters,jsons/VE125_randls_77_rotated.json,771555,1805187,1962,Woman
140,141370,DepthScenes,duration_manipulation_targetAtFixation,jsons/VE125_randls_77_rotated.json,http://54.235.29.9/FacialAge/BNav_EC2/DepthDuration/v2_depth_duration_MTurk/v2_DepthDuration_HTML.html#37,37,1366,625,1366,768,8-21-2022,9-58-7,141,depth_duration_stimuli/003292_2014-05-14_21-53-49_094959634447_rgbf000100-resize_2/003292_2014-05-14_21-53-49_094959634447_rgbf000100-resize_2-target.png,125,3.4815,4,2487,113,meters,jsons/VE125_randls_77_rotated.json,771555,1805187,1962,Woman
141,141370,DepthScenes,duration_manipulation_targetAtFixation,jsons/VE125_randls_77_rotated.json,http://54.235.29.9/FacialAge/BNav_EC2/DepthDuration/v2_depth_duration_MTurk/v2_DepthDuration_HTML.html#37,37,1366,625,1366,768,8-21-2022,9-58-7,142,depth_duration_stimuli/002467_2014-06-28_20-38-07_260595134347_rgbf000026-resize_2/002467_2014-06-28_20-38-07_260595134347_rgbf000026-resize_2-target.png,125,4.742,5,2686,124,meters,jsons/VE125_randls_77_rotated.json,771555,1805187,1962,Woman
142,141370,DepthScenes,duration_manipulation_targetAtFixation,jsons/VE125_randls_77_rotated.json,http://54.235.29.9/FacialAge/BNav_EC2/DepthDuration/v2_depth_duration_MTurk/v2_DepthDuration_HTML.html#37,37,1366,625,1366,768,8-21-2022,9-58-7,143,depth_duration_stimuli/002570_2014-06-24_13-59-54_094959634447_rgbf000059-resize_0/002570_2014-06-24_13-59-54_094959634447_rgbf000059-resize_0-target.png,125,4.037,4,2465,146,meters,jsons/VE125_randls_77_rotated.json,771555,1805187,1962,Woman
143,141370,DepthScenes,duration_manipulation_targetAtFixation,jsons/VE125_randls_77_rotated.json,http://54.235.29.9/FacialAge/BNav_EC2/DepthDuration/v2_depth_duration_MTurk/v2_DepthDuration_HTML.html#37,37,1366,625,1366,768,8-21-2022,9-58-7,144,depth_duration_stimuli/003129_2014-05-12_10-48-10_094959634447_rgbf000100-resize_0/003129_2014-05-12_10-48-10_094959634447_rgbf000100-resize_0-target.png,125,4.9305,5,2198,128,meters,jsons/VE125_randls_77_rotated.json,771555,1805187,1962,Woman
144,141370,DepthScenes,duration_manipulation_targetAtFixation,jsons/VE125_randls_77_rotated.json,http://54.235.29.9/FacialAge/BNav_EC2/DepthDuration/v2_depth_duration_MTurk/v2_DepthDuration_HTML.html#37,37,1366,625,1366,768,8-21-2022,9-58-7,145,depth_duration_stimuli/000414_2014-06-04_19-49-13_260595134347_rgbf000044-resize_0/000414_2014-06-04_19-49-13_260595134347_rgbf000044-resize_0-target.png,125,4.329,4,2383,113,meters,jsons/VE125_randls_77_rotated.json,771555,1805187,1962,Woman
145,141370,DepthScenes,duration_manipulation_targetAtFixation,jsons/VE125_randls_77_rotated.json,http://54.235.29.9/FacialAge/BNav_EC2/DepthDuration/v2_depth_duration_MTurk/v2_DepthDuration_HTML.html#37,37,1366,625,1366,768,8-21-2022,9-58-7,146,depth_duration_stimuli/002949_2014-06-26_15-57-42_094959634447_rgbf000079-resize_1/002949_2014-06-26_15-57-42_094959634447_rgbf000079-resize_1-target.png,125,1.8915,5,2211,120,meters,jsons/VE125_randls_77_rotated.json,771555,1805187,1962,Woman
146,141370,DepthScenes,duration_manipulation_targetAtFixation,jsons/VE125_randls_77_rotated.json,http://54.235.29.9/FacialAge/BNav_EC2/DepthDuration/v2_depth_duration_MTurk/v2_DepthDuration_HTML.html#37,37,1366,625,1366,768,8-21-2022,9-58-7,147,depth_duration_stimuli/000522_2014-06-08_13-35-06_260595134347_rgbf000244-resize_1/000522_2014-06-08_13-35-06_260595134347_rgbf000244-resize_1-target.png,125,2.3715,4,2342,127,meters,jsons/VE125_randls_77_rotated.json,771555,1805187,1962,Woman
147,141370,DepthScenes,duration_manipulation_targetAtFixation,jsons/VE125_randls_77_rotated.json,http://54.235.29.9/FacialAge/BNav_EC2/DepthDuration/v2_depth_duration_MTurk/v2_DepthDuration_HTML.html#37,37,1366,625,1366,768,8-21-2022,9-58-7,148,depth_duration_stimuli/003587_2014-05-23_16-48-02_094959634447_rgbf002384-resize_2/003587_2014-05-23_16-48-02_094959634447_rgbf002384-resize_2-target.png,125,1.357,5,2415,124,meters,jsons/VE125_randls_77_rotated.json,771555,1805187,1962,Woman
148,141370,DepthScenes,duration_manipulation_targetAtFixation,jsons/VE125_randls_77_rotated.json,http://54.235.29.9/FacialAge/BNav_EC2/DepthDuration/v2_depth_duration_MTurk/v2_DepthDuration_HTML.html#37,37,1366,625,1366,768,8-21-2022,9-58-7,149,depth_duration_stimuli/001167_2014-06-17_15-38-07_260595134347_rgbf000108-resize_0/001167_2014-06-17_15-38-07_260595134347_rgbf000108-resize_0-target.png,125,1.8505,4,2435,125,meters,jsons/VE125_randls_77_rotated.json,771555,1805187,1962,Woman
149,141370,DepthScenes,duration_manipulation_targetAtFixation,jsons/VE125_randls_77_rotated.json,http://54.235.29.9/FacialAge/BNav_EC2/DepthDuration/v2_depth_duration_MTurk/v2_DepthDuration_HTML.html#37,37,1366,625,1366,768,8-21-2022,9-58-7,150,depth_duration_stimuli/001214_2014-06-17_16-13-55_260595134347_rgbf000111-resize_0/001214_2014-06-17_16-13-55_260595134347_rgbf000111-resize_0-target.png,125,2.6505,5,2627,125,meters,jsons/VE125_randls_77_rotated.json,771555,1805187,1962,Woman
150,141370,DepthScenes,duration_manipulation_targetAtFixation,jsons/VE125_randls_77_rotated.json,http://54.235.29.9/FacialAge/BNav_EC2/DepthDuration/v2_depth_duration_MTurk/v2_DepthDuration_HTML.html#37,37,1366,625,1366,768,8-21-2022,9-58-7,151,depth_duration_stimuli/000810_2014-06-08_17-20-01_260595134347_rgbf000105-resize_0/000810_2014-06-08_17-20-01_260595134347_rgbf000105-resize_0-target.png,125,1.4865,4,2678,113,meters,jsons/VE125_randls_77_rotated.json,771555,1805187,1962,Woman
151,141370,DepthScenes,duration_manipulation_targetAtFixation,jsons/VE125_randls_77_rotated.json,http://54.235.29.9/FacialAge/BNav_EC2/DepthDuration/v2_depth_duration_MTurk/v2_DepthDuration_HTML.html#37,37,1366,625,1366,768,8-21-2022,9-58-7,152,depth_duration_stimuli/000569_2014-06-09_22-51-47_260595134347_rgbf000141-resize_3/000569_2014-06-09_22-51-47_260595134347_rgbf000141-resize-original.jpg,125,4.512,4,2654,126,meters,jsons/VE125_randls_77_rotated.json,771555,1805187,1962,Woman
152,141370,DepthScenes,duration_manipulation_targetAtFixation,jsons/VE125_randls_77_rotated.json,http://54.235.29.9/FacialAge/BNav_EC2/DepthDuration/v2_depth_duration_MTurk/v2_DepthDuration_HTML.html#37,37,1366,625,1366,768,8-21-2022,9-58-7,153,depth_duration_stimuli/003423_2014-05-21_10-23-26_094959634447_rgbf002665-resize_2/003423_2014-05-21_10-23-26_094959634447_rgbf002665-resize_2-target.png,125,3.2575,4,2369,126,meters,jsons/VE125_randls_77_rotated.json,771555,1805187,1962,Woman
153,141370,DepthScenes,duration_manipulation_targetAtFixation,jsons/VE125_randls_77_rotated.json,http://54.235.29.9/FacialAge/BNav_EC2/DepthDuration/v2_depth_duration_MTurk/v2_DepthDuration_HTML.html#37,37,1366,625,1366,768,8-21-2022,9-58-7,154,depth_duration_stimuli/002905_2014-06-03_18-04-43_094959634447_rgbf000151-resize_2/002905_2014-06-03_18-04-43_094959634447_rgbf000151-resize_2-target.png,125,2.0295,4,2448,120,meters,jsons/VE125_randls_77_rotated.json,771555,1805187,1962,Woman
154,141370,DepthScenes,duration_manipulation_targetAtFixation,jsons/VE125_randls_77_rotated.json,http://54.235.29.9/FacialAge/BNav_EC2/DepthDuration/v2_depth_duration_MTurk/v2_DepthDuration_HTML.html#37,37,1366,625,1366,768,8-21-2022,9-58-7,155,depth_duration_stimuli/001392_2014-06-19_16-07-59_260595134347_rgbf000046-resize_1/001392_2014-06-19_16-07-59_260595134347_rgbf000046-resize_1-target.png,125,4.135,4,2542,121,meters,jsons/VE125_randls_77_rotated.json,771555,1805187,1962,Woman
155,141370,DepthScenes,duration_manipulation_targetAtFixation,jsons/VE125_randls_77_rotated.json,http://54.235.29.9/FacialAge/BNav_EC2/DepthDuration/v2_depth_duration_MTurk/v2_DepthDuration_HTML.html#37,37,1366,625,1366,768,8-21-2022,9-58-7,156,depth_duration_stimuli/001570_2014-06-20_17-21-09_260595134347_rgbf000135-resize_4/001570_2014-06-20_17-21-09_260595134347_rgbf000135-resize_4-target.png,125,4.467,4,2566,120,meters,jsons/VE125_randls_77_rotated.json,771555,1805187,1962,Woman
156,141370,DepthScenes,duration_manipulation_targetAtFixation,jsons/VE125_randls_77_rotated.json,http://54.235.29.9/FacialAge/BNav_EC2/DepthDuration/v2_depth_duration_MTurk/v2_DepthDuration_HTML.html#37,37,1366,625,1366,768,8-21-2022,9-58-7,157,depth_duration_stimuli/000709_2014-06-08_13-51-55_260595134347_rgbf000068-resize_3/000709_2014-06-08_13-51-55_260595134347_rgbf000068-resize_3-target.png,125,1.8030000000000002,4,2283,121,meters,jsons/VE125_randls_77_rotated.json,771555,1805187,1962,Woman
157,141370,DepthScenes,duration_manipulation_targetAtFixation,jsons/VE125_randls_77_rotated.json,http://54.235.29.9/FacialAge/BNav_EC2/DepthDuration/v2_depth_duration_MTurk/v2_DepthDuration_HTML.html#37,37,1366,625,1366,768,8-21-2022,9-58-7,158,depth_duration_stimuli/002057_2014-06-24_21-00-13_260595134347_rgbf000120-resize_1/002057_2014-06-24_21-00-13_260595134347_rgbf000120-resize_1-target.png,125,2.967,4,2359,122,meters,jsons/VE125_randls_77_rotated.json,771555,1805187,1962,Woman
158,141370,DepthScenes,duration_manipulation_targetAtFixation,jsons/VE125_randls_77_rotated.json,http://54.235.29.9/FacialAge/BNav_EC2/DepthDuration/v2_depth_duration_MTurk/v2_DepthDuration_HTML.html#37,37,1366,625,1366,768,8-21-2022,9-58-7,159,depth_duration_stimuli/001032_2014-06-08_13-23-17_260595134347_rgbf000021-resize_3/001032_2014-06-08_13-23-17_260595134347_rgbf000021-resize_3-target.png,125,3.2725,4,3130,128,meters,jsons/VE125_randls_77_rotated.json,771555,1805187,1962,Woman
159,141370,DepthScenes,duration_manipulation_targetAtFixation,jsons/VE125_randls_77_rotated.json,http://54.235.29.9/FacialAge/BNav_EC2/DepthDuration/v2_depth_duration_MTurk/v2_DepthDuration_HTML.html#37,37,1366,625,1366,768,8-21-2022,9-58-7,160,depth_duration_stimuli/001059_2014-06-08_21-53-27_260595134347_rgbf000061-resize_4/001059_2014-06-08_21-53-27_260595134347_rgbf000061-resize_4-target.png,125,2.4185,4,6751,128,meters,jsons/VE125_randls_77_rotated.json,771555,1805187,1962,Woman
160,141370,DepthScenes,duration_manipulation_targetAtFixation,jsons/VE125_randls_77_rotated.json,http://54.235.29.9/FacialAge/BNav_EC2/DepthDuration/v2_depth_duration_MTurk/v2_DepthDuration_HTML.html#37,37,1366,625,1366,768,8-21-2022,9-58-7,161,depth_duration_stimuli/002545_2014-06-24_13-38-53_094959634447_rgbf000080-resize_4/002545_2014-06-24_13-38-53_094959634447_rgbf000080-resize_4-target.png,125,1.9205,4,2365,120,meters,jsons/VE125_randls_77_rotated.json,771555,1805187,1962,Woman
161,141370,DepthScenes,duration_manipulation_targetAtFixation,jsons/VE125_randls_77_rotated.json,http://54.235.29.9/FacialAge/BNav_EC2/DepthDuration/v2_depth_duration_MTurk/v2_DepthDuration_HTML.html#37,37,1366,625,1366,768,8-21-2022,9-58-7,162,depth_duration_stimuli/001092_2014-06-15_17-34-58_260595134347_rgbf000171-resize_3/001092_2014-06-15_17-34-58_260595134347_rgbf000171-resize_3-target.png,125,2.6935,4,1928,123,meters,jsons/VE125_randls_77_rotated.json,771555,1805187,1962,Woman
162,141370,DepthScenes,duration_manipulation_targetAtFixation,jsons/VE125_randls_77_rotated.json,http://54.235.29.9/FacialAge/BNav_EC2/DepthDuration/v2_depth_duration_MTurk/v2_DepthDuration_HTML.html#37,37,1366,625,1366,768,8-21-2022,9-58-7,163,depth_duration_stimuli/002444_2014-06-28_20-32-08_260595134347_rgbf000027-resize_0/002444_2014-06-28_20-32-08_260595134347_rgbf000027-resize_0-target.png,125,4.388999999999999,4,2350,125,meters,jsons/VE125_randls_77_rotated.json,771555,1805187,1962,Woman
163,141370,DepthScenes,duration_manipulation_targetAtFixation,jsons/VE125_randls_77_rotated.json,http://54.235.29.9/FacialAge/BNav_EC2/DepthDuration/v2_depth_duration_MTurk/v2_DepthDuration_HTML.html#37,37,1366,625,1366,768,8-21-2022,9-58-7,164,depth_duration_stimuli/000436_2014-06-09_22-25-11_260595134347_rgbf000137-resize_1/000436_2014-06-09_22-25-11_260595134347_rgbf000137-resize_1-target.png,125,4.0705,4,2409,124,meters,jsons/VE125_randls_77_rotated.json,771555,1805187,1962,Woman
