,subjID,experimentName,versionName,sequenceName,url,selected_row,windowWidth,windowHeight,screenWidth,screenHeight,startDate,startTime,trial,stimulus,duration,actual_depth,depth_estimate,trial_RT,log_sceneDuration,unitSelection,seq_filepath,experimentTime,totalTime,age,gender
0,143644,DepthScenes,duration_manipulation_targetAtFixation,jsons/v1_VE1000_randls_46.json,http://54.235.29.9/FacialAge/BNav_EC2/DepthDuration/v2_depth_duration_MTurk/v2_DepthDuration_HTML.html#164,164,980,892,360,800,8-29-2022,13-24-36,1,depth_duration_stimuli/002272_2014-06-28_18-53-56_260595134347_rgbf000067-resize_2/002272_2014-06-28_18-53-56_260595134347_rgbf000067-resize_2-target.png,1000,1.138,2.0,3920,997,feet,jsons/v1_VE1000_randls_46.json,951520,1292242,33,Man
1,143644,DepthScenes,duration_manipulation_targetAtFixation,jsons/v1_VE1000_randls_46.json,http://54.235.29.9/FacialAge/BNav_EC2/DepthDuration/v2_depth_duration_MTurk/v2_DepthDuration_HTML.html#164,164,980,892,360,800,8-29-2022,13-24-36,2,depth_duration_stimuli/001571_2014-06-20_17-21-32_260595134347_rgbf000089-resize_1/001571_2014-06-20_17-21-32_260595134347_rgbf000089-resize_1-target.png,1000,1.86,2.0,4321,1000,feet,jsons/v1_VE1000_randls_46.json,951520,1292242,33,Man
2,143644,DepthScenes,duration_manipulation_targetAtFixation,jsons/v1_VE1000_randls_46.json,http://54.235.29.9/FacialAge/BNav_EC2/DepthDuration/v2_depth_duration_MTurk/v2_DepthDuration_HTML.html#164,164,980,892,360,800,8-29-2022,13-24-36,3,depth_duration_stimuli/002509_2014-06-24_13-19-22_094959634447_rgbf000077-resize_0/002509_2014-06-24_13-19-22_094959634447_rgbf000077-resize_0-target.png,1000,1.3065,2.0,5165,1000,feet,jsons/v1_VE1000_randls_46.json,951520,1292242,33,Man
3,143644,DepthScenes,duration_manipulation_targetAtFixation,jsons/v1_VE1000_randls_46.json,http://54.235.29.9/FacialAge/BNav_EC2/DepthDuration/v2_depth_duration_MTurk/v2_DepthDuration_HTML.html#164,164,980,892,360,800,8-29-2022,13-24-36,4,depth_duration_stimuli/003338_2014-05-20_11-01-23_094959634447_rgbf000051-resize_6/003338_2014-05-20_11-01-23_094959634447_rgbf000051-resize_6-target.png,1000,1.693,1.5,6383,996,feet,jsons/v1_VE1000_randls_46.json,951520,1292242,33,Man
4,143644,DepthScenes,duration_manipulation_targetAtFixation,jsons/v1_VE1000_randls_46.json,http://54.235.29.9/FacialAge/BNav_EC2/DepthDuration/v2_depth_duration_MTurk/v2_DepthDuration_HTML.html#164,164,980,892,360,800,8-29-2022,13-24-36,5,depth_duration_stimuli/001244_2014-06-17_16-47-45_260595134347_rgbf000030-resize_4/001244_2014-06-17_16-47-45_260595134347_rgbf000030-resize_4-target.png,1000,2.0425,4.0,4143,995,feet,jsons/v1_VE1000_randls_46.json,951520,1292242,33,Man
5,143644,DepthScenes,duration_manipulation_targetAtFixation,jsons/v1_VE1000_randls_46.json,http://54.235.29.9/FacialAge/BNav_EC2/DepthDuration/v2_depth_duration_MTurk/v2_DepthDuration_HTML.html#164,164,980,892,360,800,8-29-2022,13-24-36,6,depth_duration_stimuli/003495_2014-05-21_16-01-51_094959634447_rgbf000100-resize_3/003495_2014-05-21_16-01-51_094959634447_rgbf000100-resize_3-target.png,1000,1.6255,1.5,5995,1000,feet,jsons/v1_VE1000_randls_46.json,951520,1292242,33,Man
6,143644,DepthScenes,duration_manipulation_targetAtFixation,jsons/v1_VE1000_randls_46.json,http://54.235.29.9/FacialAge/BNav_EC2/DepthDuration/v2_depth_duration_MTurk/v2_DepthDuration_HTML.html#164,164,980,892,360,800,8-29-2022,13-24-36,7,depth_duration_stimuli/000506_2014-06-08_23-21-00_260595134347_rgbf000070-resize_7/000506_2014-06-08_23-21-00_260595134347_rgbf000070-resize_7-target.png,1000,4.0585,9.0,3987,1000,feet,jsons/v1_VE1000_randls_46.json,951520,1292242,33,Man
7,143644,DepthScenes,duration_manipulation_targetAtFixation,jsons/v1_VE1000_randls_46.json,http://54.235.29.9/FacialAge/BNav_EC2/DepthDuration/v2_depth_duration_MTurk/v2_DepthDuration_HTML.html#164,164,980,892,360,800,8-29-2022,13-24-36,8,depth_duration_stimuli/003079_2014-06-15_15-18-20_094959634447_rgbf000152-resize_8/003079_2014-06-15_15-18-20_094959634447_rgbf000152-resize_8-target.png,1000,2.8775,8.0,4661,1000,feet,jsons/v1_VE1000_randls_46.json,951520,1292242,33,Man
8,143644,DepthScenes,duration_manipulation_targetAtFixation,jsons/v1_VE1000_randls_46.json,http://54.235.29.9/FacialAge/BNav_EC2/DepthDuration/v2_depth_duration_MTurk/v2_DepthDuration_HTML.html#164,164,980,892,360,800,8-29-2022,13-24-36,9,depth_duration_stimuli/002630_2014-06-24_14-47-50_094959634447_rgbf000055-resize_1/002630_2014-06-24_14-47-50_094959634447_rgbf000055-resize_1-target.png,1000,3.0095,15.0,5572,999,feet,jsons/v1_VE1000_randls_46.json,951520,1292242,33,Man
9,143644,DepthScenes,duration_manipulation_targetAtFixation,jsons/v1_VE1000_randls_46.json,http://54.235.29.9/FacialAge/BNav_EC2/DepthDuration/v2_depth_duration_MTurk/v2_DepthDuration_HTML.html#164,164,980,892,360,800,8-29-2022,13-24-36,10,depth_duration_stimuli/002758_2014-06-22_19-11-20_094959634447_rgbf000128-resize_1/002758_2014-06-22_19-11-20_094959634447_rgbf000128-resize_1-target.png,1000,2.555,4.0,4010,1001,feet,jsons/v1_VE1000_randls_46.json,951520,1292242,33,Man
10,143644,DepthScenes,duration_manipulation_targetAtFixation,jsons/v1_VE1000_randls_46.json,http://54.235.29.9/FacialAge/BNav_EC2/DepthDuration/v2_depth_duration_MTurk/v2_DepthDuration_HTML.html#164,164,980,892,360,800,8-29-2022,13-24-36,11,depth_duration_stimuli/000736_2014-06-08_18-24-15_260595134347_rgbf000206-resize_3/000736_2014-06-08_18-24-15_260595134347_rgbf000206-resize_3-target.png,1000,3.515,6.0,8857,1000,feet,jsons/v1_VE1000_randls_46.json,951520,1292242,33,Man
11,143644,DepthScenes,duration_manipulation_targetAtFixation,jsons/v1_VE1000_randls_46.json,http://54.235.29.9/FacialAge/BNav_EC2/DepthDuration/v2_depth_duration_MTurk/v2_DepthDuration_HTML.html#164,164,980,892,360,800,8-29-2022,13-24-36,12,depth_duration_stimuli/000137_2014-05-20_17-04-49_260595134347_rgbf000120-resize_1/000137_2014-05-20_17-04-49_260595134347_rgbf000120-resize_1-target.png,1000,3.786,7.0,4548,1000,feet,jsons/v1_VE1000_randls_46.json,951520,1292242,33,Man
12,143644,DepthScenes,duration_manipulation_targetAtFixation,jsons/v1_VE1000_randls_46.json,http://54.235.29.9/FacialAge/BNav_EC2/DepthDuration/v2_depth_duration_MTurk/v2_DepthDuration_HTML.html#164,164,980,892,360,800,8-29-2022,13-24-36,13,depth_duration_stimuli/000569_2014-06-09_22-51-47_260595134347_rgbf000141-resize_3/000569_2014-06-09_22-51-47_260595134347_rgbf000141-resize-original.jpg,1000,4.512,0.0,6199,997,feet,jsons/v1_VE1000_randls_46.json,951520,1292242,33,Man
13,143644,DepthScenes,duration_manipulation_targetAtFixation,jsons/v1_VE1000_randls_46.json,http://54.235.29.9/FacialAge/BNav_EC2/DepthDuration/v2_depth_duration_MTurk/v2_DepthDuration_HTML.html#164,164,980,892,360,800,8-29-2022,13-24-36,14,depth_duration_stimuli/001167_2014-06-17_15-38-07_260595134347_rgbf000108-resize_0/001167_2014-06-17_15-38-07_260595134347_rgbf000108-resize_0-target.png,1000,1.8505,2.0,5274,999,feet,jsons/v1_VE1000_randls_46.json,951520,1292242,33,Man
14,143644,DepthScenes,duration_manipulation_targetAtFixation,jsons/v1_VE1000_randls_46.json,http://54.235.29.9/FacialAge/BNav_EC2/DepthDuration/v2_depth_duration_MTurk/v2_DepthDuration_HTML.html#164,164,980,892,360,800,8-29-2022,13-24-36,15,depth_duration_stimuli/003587_2014-05-23_16-48-02_094959634447_rgbf002384-resize_2/003587_2014-05-23_16-48-02_094959634447_rgbf002384-resize_2-target.png,1000,1.357,0.5,4413,1000,feet,jsons/v1_VE1000_randls_46.json,951520,1292242,33,Man
15,143644,DepthScenes,duration_manipulation_targetAtFixation,jsons/v1_VE1000_randls_46.json,http://54.235.29.9/FacialAge/BNav_EC2/DepthDuration/v2_depth_duration_MTurk/v2_DepthDuration_HTML.html#164,164,980,892,360,800,8-29-2022,13-24-36,16,depth_duration_stimuli/002279_2014-06-28_18-55-32_260595134347_rgbf000040-resize_5/002279_2014-06-28_18-55-32_260595134347_rgbf000040-resize_5-target.png,1000,1.5043333333333,0.5,4683,999,feet,jsons/v1_VE1000_randls_46.json,951520,1292242,33,Man
16,143644,DepthScenes,duration_manipulation_targetAtFixation,jsons/v1_VE1000_randls_46.json,http://54.235.29.9/FacialAge/BNav_EC2/DepthDuration/v2_depth_duration_MTurk/v2_DepthDuration_HTML.html#164,164,980,892,360,800,8-29-2022,13-24-36,17,depth_duration_stimuli/000635_2014-06-08_16-38-42_260595134347_rgbf000106-resize_1/000635_2014-06-08_16-38-42_260595134347_rgbf000106-resize_1-target.png,1000,2.074,4.0,4497,1000,feet,jsons/v1_VE1000_randls_46.json,951520,1292242,33,Man
17,143644,DepthScenes,duration_manipulation_targetAtFixation,jsons/v1_VE1000_randls_46.json,http://54.235.29.9/FacialAge/BNav_EC2/DepthDuration/v2_depth_duration_MTurk/v2_DepthDuration_HTML.html#164,164,980,892,360,800,8-29-2022,13-24-36,18,depth_duration_stimuli/001056_2014-06-08_18-46-44_260595134347_rgbf000068-resize_0/001056_2014-06-08_18-46-44_260595134347_rgbf000068-resize_0-target.png,1000,2.6625,7.0,3791,998,feet,jsons/v1_VE1000_randls_46.json,951520,1292242,33,Man
18,143644,DepthScenes,duration_manipulation_targetAtFixation,jsons/v1_VE1000_randls_46.json,http://54.235.29.9/FacialAge/BNav_EC2/DepthDuration/v2_depth_duration_MTurk/v2_DepthDuration_HTML.html#164,164,980,892,360,800,8-29-2022,13-24-36,19,depth_duration_stimuli/002199_2014-06-28_18-33-56_260595134347_rgbf000074-resize_0/002199_2014-06-28_18-33-56_260595134347_rgbf000074-resize_0-target.png,1000,1.996,2.0,3819,999,feet,jsons/v1_VE1000_randls_46.json,951520,1292242,33,Man
19,143644,DepthScenes,duration_manipulation_targetAtFixation,jsons/v1_VE1000_randls_46.json,http://54.235.29.9/FacialAge/BNav_EC2/DepthDuration/v2_depth_duration_MTurk/v2_DepthDuration_HTML.html#164,164,980,892,360,800,8-29-2022,13-24-36,20,depth_duration_stimuli/002039_2014-06-24_20-22-38_260595134347_rgbf000084-resize_1/002039_2014-06-24_20-22-38_260595134347_rgbf000084-resize_1-target.png,1000,4.408,20.0,8167,998,feet,jsons/v1_VE1000_randls_46.json,951520,1292242,33,Man
20,143644,DepthScenes,duration_manipulation_targetAtFixation,jsons/v1_VE1000_randls_46.json,http://54.235.29.9/FacialAge/BNav_EC2/DepthDuration/v2_depth_duration_MTurk/v2_DepthDuration_HTML.html#164,164,980,892,360,800,8-29-2022,13-24-36,21,depth_duration_stimuli/002103_2014-06-25_20-00-40_260595134347_rgbf000049-resize_0/002103_2014-06-25_20-00-40_260595134347_rgbf000049-resize_0-target.png,1000,4.105,25.0,4969,999,feet,jsons/v1_VE1000_randls_46.json,951520,1292242,33,Man
21,143644,DepthScenes,duration_manipulation_targetAtFixation,jsons/v1_VE1000_randls_46.json,http://54.235.29.9/FacialAge/BNav_EC2/DepthDuration/v2_depth_duration_MTurk/v2_DepthDuration_HTML.html#164,164,980,892,360,800,8-29-2022,13-24-36,22,depth_duration_stimuli/001016_2014-06-09_16-16-10_260595134347_rgbf000112-resize_5/001016_2014-06-09_16-16-10_260595134347_rgbf000112-resize_5-target.png,1000,1.6565,5.0,4111,999,feet,jsons/v1_VE1000_randls_46.json,951520,1292242,33,Man
22,143644,DepthScenes,duration_manipulation_targetAtFixation,jsons/v1_VE1000_randls_46.json,http://54.235.29.9/FacialAge/BNav_EC2/DepthDuration/v2_depth_duration_MTurk/v2_DepthDuration_HTML.html#164,164,980,892,360,800,8-29-2022,13-24-36,23,depth_duration_stimuli/002340_2014-06-28_20-05-46_260595134347_rgbf000113-resize_0/002340_2014-06-28_20-05-46_260595134347_rgbf000113-resize_0-target.png,1000,2.4735,6.0,5529,1000,feet,jsons/v1_VE1000_randls_46.json,951520,1292242,33,Man
23,143644,DepthScenes,duration_manipulation_targetAtFixation,jsons/v1_VE1000_randls_46.json,http://54.235.29.9/FacialAge/BNav_EC2/DepthDuration/v2_depth_duration_MTurk/v2_DepthDuration_HTML.html#164,164,980,892,360,800,8-29-2022,13-24-36,24,depth_duration_stimuli/001066_2014-06-08_22-03-20_260595134347_rgbf000066-resize_4/001066_2014-06-08_22-03-20_260595134347_rgbf000066-resize_4-target.png,1000,4.2330000000000005,30.0,5047,999,feet,jsons/v1_VE1000_randls_46.json,951520,1292242,33,Man
24,143644,DepthScenes,duration_manipulation_targetAtFixation,jsons/v1_VE1000_randls_46.json,http://54.235.29.9/FacialAge/BNav_EC2/DepthDuration/v2_depth_duration_MTurk/v2_DepthDuration_HTML.html#164,164,980,892,360,800,8-29-2022,13-24-36,25,depth_duration_stimuli/000742_2014-06-08_18-48-09_260595134347_rgbf000164-resize_4/000742_2014-06-08_18-48-09_260595134347_rgbf000164-resize_4-target.png,1000,4.632,20.0,4782,999,feet,jsons/v1_VE1000_randls_46.json,951520,1292242,33,Man
25,143644,DepthScenes,duration_manipulation_targetAtFixation,jsons/v1_VE1000_randls_46.json,http://54.235.29.9/FacialAge/BNav_EC2/DepthDuration/v2_depth_duration_MTurk/v2_DepthDuration_HTML.html#164,164,980,892,360,800,8-29-2022,13-24-36,26,depth_duration_stimuli/001808_2014-06-26_20-50-58_260595134347_rgbf000029-resize_1/001808_2014-06-26_20-50-58_260595134347_rgbf000029-resize_1-target.png,1000,4.249,25.0,4582,999,feet,jsons/v1_VE1000_randls_46.json,951520,1292242,33,Man
26,143644,DepthScenes,duration_manipulation_targetAtFixation,jsons/v1_VE1000_randls_46.json,http://54.235.29.9/FacialAge/BNav_EC2/DepthDuration/v2_depth_duration_MTurk/v2_DepthDuration_HTML.html#164,164,980,892,360,800,8-29-2022,13-24-36,27,depth_duration_stimuli/001815_2014-06-26_20-52-55_260595134347_rgbf000020-resize_0/001815_2014-06-26_20-52-55_260595134347_rgbf000020-resize_0-target.png,1000,3.3865,25.0,4888,999,feet,jsons/v1_VE1000_randls_46.json,951520,1292242,33,Man
27,143644,DepthScenes,duration_manipulation_targetAtFixation,jsons/v1_VE1000_randls_46.json,http://54.235.29.9/FacialAge/BNav_EC2/DepthDuration/v2_depth_duration_MTurk/v2_DepthDuration_HTML.html#164,164,980,892,360,800,8-29-2022,13-24-36,28,depth_duration_stimuli/002445_2014-06-28_20-32-16_260595134347_rgbf000029-resize_4/002445_2014-06-28_20-32-16_260595134347_rgbf000029-resize_4-target.png,1000,2.5315,6.0,4075,999,feet,jsons/v1_VE1000_randls_46.json,951520,1292242,33,Man
28,143644,DepthScenes,duration_manipulation_targetAtFixation,jsons/v1_VE1000_randls_46.json,http://54.235.29.9/FacialAge/BNav_EC2/DepthDuration/v2_depth_duration_MTurk/v2_DepthDuration_HTML.html#164,164,980,892,360,800,8-29-2022,13-24-36,29,depth_duration_stimuli/000780_2014-06-08_22-28-29_260595134347_rgbf000126-resize_1/000780_2014-06-08_22-28-29_260595134347_rgbf000126-resize_1-target.png,1000,3.3825,10.0,4046,998,feet,jsons/v1_VE1000_randls_46.json,951520,1292242,33,Man
29,143644,DepthScenes,duration_manipulation_targetAtFixation,jsons/v1_VE1000_randls_46.json,http://54.235.29.9/FacialAge/BNav_EC2/DepthDuration/v2_depth_duration_MTurk/v2_DepthDuration_HTML.html#164,164,980,892,360,800,8-29-2022,13-24-36,30,depth_duration_stimuli/000375_2014-06-08_11-17-29_260595134347_rgbf000133-resize_2/000375_2014-06-08_11-17-29_260595134347_rgbf000133-resize-original.jpg,1000,4.718,0.0,4282,1000,feet,jsons/v1_VE1000_randls_46.json,951520,1292242,33,Man
30,143644,DepthScenes,duration_manipulation_targetAtFixation,jsons/v1_VE1000_randls_46.json,http://54.235.29.9/FacialAge/BNav_EC2/DepthDuration/v2_depth_duration_MTurk/v2_DepthDuration_HTML.html#164,164,980,892,360,800,8-29-2022,13-24-36,31,depth_duration_stimuli/000522_2014-06-08_13-35-06_260595134347_rgbf000244-resize_1/000522_2014-06-08_13-35-06_260595134347_rgbf000244-resize_1-target.png,1000,2.3715,3.0,15566,999,feet,jsons/v1_VE1000_randls_46.json,951520,1292242,33,Man
31,143644,DepthScenes,duration_manipulation_targetAtFixation,jsons/v1_VE1000_randls_46.json,http://54.235.29.9/FacialAge/BNav_EC2/DepthDuration/v2_depth_duration_MTurk/v2_DepthDuration_HTML.html#164,164,980,892,360,800,8-29-2022,13-24-36,32,depth_duration_stimuli/002949_2014-06-26_15-57-42_094959634447_rgbf000079-resize_1/002949_2014-06-26_15-57-42_094959634447_rgbf000079-resize_1-target.png,1000,1.8915,4.0,3825,998,feet,jsons/v1_VE1000_randls_46.json,951520,1292242,33,Man
32,143644,DepthScenes,duration_manipulation_targetAtFixation,jsons/v1_VE1000_randls_46.json,http://54.235.29.9/FacialAge/BNav_EC2/DepthDuration/v2_depth_duration_MTurk/v2_DepthDuration_HTML.html#164,164,980,892,360,800,8-29-2022,13-24-36,33,depth_duration_stimuli/001555_2014-06-20_17-12-10_260595134347_rgbf000065-resize_4/001555_2014-06-20_17-12-10_260595134347_rgbf000065-resize_4-target.png,1000,1.633,2.0,3695,1000,feet,jsons/v1_VE1000_randls_46.json,951520,1292242,33,Man
33,143644,DepthScenes,duration_manipulation_targetAtFixation,jsons/v1_VE1000_randls_46.json,http://54.235.29.9/FacialAge/BNav_EC2/DepthDuration/v2_depth_duration_MTurk/v2_DepthDuration_HTML.html#164,164,980,892,360,800,8-29-2022,13-24-36,34,depth_duration_stimuli/000103_2014-05-14_22-01-17_260595134347_rgbf000152-resize_5/000103_2014-05-14_22-01-17_260595134347_rgbf000152-resize_5-target.png,1000,1.993,6.0,3860,999,feet,jsons/v1_VE1000_randls_46.json,951520,1292242,33,Man
34,143644,DepthScenes,duration_manipulation_targetAtFixation,jsons/v1_VE1000_randls_46.json,http://54.235.29.9/FacialAge/BNav_EC2/DepthDuration/v2_depth_duration_MTurk/v2_DepthDuration_HTML.html#164,164,980,892,360,800,8-29-2022,13-24-36,35,depth_duration_stimuli/001199_2014-06-17_16-03-48_260595134347_rgbf000077-resize_0/001199_2014-06-17_16-03-48_260595134347_rgbf000077-resize_0-target.png,1000,3.4375,30.0,4229,999,feet,jsons/v1_VE1000_randls_46.json,951520,1292242,33,Man
35,143644,DepthScenes,duration_manipulation_targetAtFixation,jsons/v1_VE1000_randls_46.json,http://54.235.29.9/FacialAge/BNav_EC2/DepthDuration/v2_depth_duration_MTurk/v2_DepthDuration_HTML.html#164,164,980,892,360,800,8-29-2022,13-24-36,36,depth_duration_stimuli/000502_2014-06-08_23-02-32_260595134347_rgbf000063-resize_4/000502_2014-06-08_23-02-32_260595134347_rgbf000063-resize_4-target.png,1000,2.431,5.0,3792,999,feet,jsons/v1_VE1000_randls_46.json,951520,1292242,33,Man
36,143644,DepthScenes,duration_manipulation_targetAtFixation,jsons/v1_VE1000_randls_46.json,http://54.235.29.9/FacialAge/BNav_EC2/DepthDuration/v2_depth_duration_MTurk/v2_DepthDuration_HTML.html#164,164,980,892,360,800,8-29-2022,13-24-36,37,depth_duration_stimuli/001059_2014-06-08_21-53-27_260595134347_rgbf000061-resize_4/001059_2014-06-08_21-53-27_260595134347_rgbf000061-resize_4-target.png,1000,2.4185,6.0,4160,1000,feet,jsons/v1_VE1000_randls_46.json,951520,1292242,33,Man
37,143644,DepthScenes,duration_manipulation_targetAtFixation,jsons/v1_VE1000_randls_46.json,http://54.235.29.9/FacialAge/BNav_EC2/DepthDuration/v2_depth_duration_MTurk/v2_DepthDuration_HTML.html#164,164,980,892,360,800,8-29-2022,13-24-36,38,depth_duration_stimuli/001032_2014-06-08_13-23-17_260595134347_rgbf000021-resize_3/001032_2014-06-08_13-23-17_260595134347_rgbf000021-resize_3-target.png,1000,3.2725,7.0,3863,999,feet,jsons/v1_VE1000_randls_46.json,951520,1292242,33,Man
38,143644,DepthScenes,duration_manipulation_targetAtFixation,jsons/v1_VE1000_randls_46.json,http://54.235.29.9/FacialAge/BNav_EC2/DepthDuration/v2_depth_duration_MTurk/v2_DepthDuration_HTML.html#164,164,980,892,360,800,8-29-2022,13-24-36,39,depth_duration_stimuli/001417_2014-06-19_16-25-36_260595134347_rgbf000115-resize_5/001417_2014-06-19_16-25-36_260595134347_rgbf000115-resize_5-target.png,1000,4.6255,10.0,4147,1001,feet,jsons/v1_VE1000_randls_46.json,951520,1292242,33,Man
39,143644,DepthScenes,duration_manipulation_targetAtFixation,jsons/v1_VE1000_randls_46.json,http://54.235.29.9/FacialAge/BNav_EC2/DepthDuration/v2_depth_duration_MTurk/v2_DepthDuration_HTML.html#164,164,980,892,360,800,8-29-2022,13-24-36,40,depth_duration_stimuli/003081_2014-06-15_15-19-16_094959634447_rgbf000150-resize_1/003081_2014-06-15_15-19-16_094959634447_rgbf000150-resize_1-target.png,1000,3.9125,10.0,4034,999,feet,jsons/v1_VE1000_randls_46.json,951520,1292242,33,Man
40,143644,DepthScenes,duration_manipulation_targetAtFixation,jsons/v1_VE1000_randls_46.json,http://54.235.29.9/FacialAge/BNav_EC2/DepthDuration/v2_depth_duration_MTurk/v2_DepthDuration_HTML.html#164,164,980,892,360,800,8-29-2022,13-24-36,41,depth_duration_stimuli/002964_2014-06-08_17-46-11_094959634447_rgbf000091-resize_4/002964_2014-06-08_17-46-11_094959634447_rgbf000091-resize_4-target.png,1000,1.6909999999999998,4.0,3727,999,feet,jsons/v1_VE1000_randls_46.json,951520,1292242,33,Man
41,143644,DepthScenes,duration_manipulation_targetAtFixation,jsons/v1_VE1000_randls_46.json,http://54.235.29.9/FacialAge/BNav_EC2/DepthDuration/v2_depth_duration_MTurk/v2_DepthDuration_HTML.html#164,164,980,892,360,800,8-29-2022,13-24-36,42,depth_duration_stimuli/002136_2014-06-25_21-18-03_260595134347_rgbf000109-resize_3/002136_2014-06-25_21-18-03_260595134347_rgbf000109-resize_3-target.png,1000,1.9569999999999999,5.0,3953,1001,feet,jsons/v1_VE1000_randls_46.json,951520,1292242,33,Man
42,143644,DepthScenes,duration_manipulation_targetAtFixation,jsons/v1_VE1000_randls_46.json,http://54.235.29.9/FacialAge/BNav_EC2/DepthDuration/v2_depth_duration_MTurk/v2_DepthDuration_HTML.html#164,164,980,892,360,800,8-29-2022,13-24-36,43,depth_duration_stimuli/000642_2014-06-08_16-59-25_260595134347_rgbf000098-resize_2/000642_2014-06-08_16-59-25_260595134347_rgbf000098-resize_2-target.png,1000,2.8815,5.0,3781,998,feet,jsons/v1_VE1000_randls_46.json,951520,1292242,33,Man
43,143644,DepthScenes,duration_manipulation_targetAtFixation,jsons/v1_VE1000_randls_46.json,http://54.235.29.9/FacialAge/BNav_EC2/DepthDuration/v2_depth_duration_MTurk/v2_DepthDuration_HTML.html#164,164,980,892,360,800,8-29-2022,13-24-36,44,depth_duration_stimuli/002425_2014-06-28_20-27-29_260595134347_rgbf000031-resize_8/002425_2014-06-28_20-27-29_260595134347_rgbf000031-resize_8-target.png,1000,3.8960000000000004,9.0,3780,1000,feet,jsons/v1_VE1000_randls_46.json,951520,1292242,33,Man
44,143644,DepthScenes,duration_manipulation_targetAtFixation,jsons/v1_VE1000_randls_46.json,http://54.235.29.9/FacialAge/BNav_EC2/DepthDuration/v2_depth_duration_MTurk/v2_DepthDuration_HTML.html#164,164,980,892,360,800,8-29-2022,13-24-36,45,depth_duration_stimuli/000787_2014-06-08_22-33-53_260595134347_rgbf000175-resize_1/000787_2014-06-08_22-33-53_260595134347_rgbf000175-resize-original.jpg,1000,4.784,0.0,4161,1000,feet,jsons/v1_VE1000_randls_46.json,951520,1292242,33,Man
45,143644,DepthScenes,duration_manipulation_targetAtFixation,jsons/v1_VE1000_randls_46.json,http://54.235.29.9/FacialAge/BNav_EC2/DepthDuration/v2_depth_duration_MTurk/v2_DepthDuration_HTML.html#164,164,980,892,360,800,8-29-2022,13-24-36,46,depth_duration_stimuli/002118_2014-06-25_20-32-08_260595134347_rgbf000078-resize_1/002118_2014-06-25_20-32-08_260595134347_rgbf000078-resize_1-target.png,1000,2.6460000000000004,7.0,4110,999,feet,jsons/v1_VE1000_randls_46.json,951520,1292242,33,Man
46,143644,DepthScenes,duration_manipulation_targetAtFixation,jsons/v1_VE1000_randls_46.json,http://54.235.29.9/FacialAge/BNav_EC2/DepthDuration/v2_depth_duration_MTurk/v2_DepthDuration_HTML.html#164,164,980,892,360,800,8-29-2022,13-24-36,47,depth_duration_stimuli/001516_2014-06-20_16-25-09_260595134347_rgbf000076-resize_2/001516_2014-06-20_16-25-09_260595134347_rgbf000076-resize_2-target.png,1000,1.7445,5.0,4456,1000,feet,jsons/v1_VE1000_randls_46.json,951520,1292242,33,Man
47,143644,DepthScenes,duration_manipulation_targetAtFixation,jsons/v1_VE1000_randls_46.json,http://54.235.29.9/FacialAge/BNav_EC2/DepthDuration/v2_depth_duration_MTurk/v2_DepthDuration_HTML.html#164,164,980,892,360,800,8-29-2022,13-24-36,48,depth_duration_stimuli/001092_2014-06-15_17-34-58_260595134347_rgbf000171-resize_3/001092_2014-06-15_17-34-58_260595134347_rgbf000171-resize_3-target.png,1000,2.6935,3.5,4849,999,feet,jsons/v1_VE1000_randls_46.json,951520,1292242,33,Man
48,143644,DepthScenes,duration_manipulation_targetAtFixation,jsons/v1_VE1000_randls_46.json,http://54.235.29.9/FacialAge/BNav_EC2/DepthDuration/v2_depth_duration_MTurk/v2_DepthDuration_HTML.html#164,164,980,892,360,800,8-29-2022,13-24-36,49,depth_duration_stimuli/002545_2014-06-24_13-38-53_094959634447_rgbf000080-resize_4/002545_2014-06-24_13-38-53_094959634447_rgbf000080-resize_4-target.png,1000,1.9205,6.0,3921,999,feet,jsons/v1_VE1000_randls_46.json,951520,1292242,33,Man
49,143644,DepthScenes,duration_manipulation_targetAtFixation,jsons/v1_VE1000_randls_46.json,http://54.235.29.9/FacialAge/BNav_EC2/DepthDuration/v2_depth_duration_MTurk/v2_DepthDuration_HTML.html#164,164,980,892,360,800,8-29-2022,13-24-36,50,depth_duration_stimuli/002725_2014-06-22_11-47-51_094959634447_rgbf000070-resize_1/002725_2014-06-22_11-47-51_094959634447_rgbf000070-resize_1-target.png,1000,2.195,6.0,3976,1000,feet,jsons/v1_VE1000_randls_46.json,951520,1292242,33,Man
50,143644,DepthScenes,duration_manipulation_targetAtFixation,jsons/v1_VE1000_randls_46.json,http://54.235.29.9/FacialAge/BNav_EC2/DepthDuration/v2_depth_duration_MTurk/v2_DepthDuration_HTML.html#164,164,980,892,360,800,8-29-2022,13-24-36,51,depth_duration_stimuli/002344_2014-06-28_20-06-29_260595134347_rgbf000030-resize_1/002344_2014-06-28_20-06-29_260595134347_rgbf000030-resize_1-target.png,1000,1.5795,2.0,3660,999,feet,jsons/v1_VE1000_randls_46.json,951520,1292242,33,Man
51,143644,DepthScenes,duration_manipulation_targetAtFixation,jsons/v1_VE1000_randls_46.json,http://54.235.29.9/FacialAge/BNav_EC2/DepthDuration/v2_depth_duration_MTurk/v2_DepthDuration_HTML.html#164,164,980,892,360,800,8-29-2022,13-24-36,52,depth_duration_stimuli/000929_2014-06-09_16-33-19_260595134347_rgbf000139-resize_0/000929_2014-06-09_16-33-19_260595134347_rgbf000139-resize_0-target.png,1000,2.8680000000000003,7.0,3750,998,feet,jsons/v1_VE1000_randls_46.json,951520,1292242,33,Man
52,143644,DepthScenes,duration_manipulation_targetAtFixation,jsons/v1_VE1000_randls_46.json,http://54.235.29.9/FacialAge/BNav_EC2/DepthDuration/v2_depth_duration_MTurk/v2_DepthDuration_HTML.html#164,164,980,892,360,800,8-29-2022,13-24-36,53,depth_duration_stimuli/000457_2014-06-08_16-52-43_260595134347_rgbf000199-resize_1/000457_2014-06-08_16-52-43_260595134347_rgbf000199-resize_1-target.png,1000,3.6489999999999996,8.0,4117,999,feet,jsons/v1_VE1000_randls_46.json,951520,1292242,33,Man
53,143644,DepthScenes,duration_manipulation_targetAtFixation,jsons/v1_VE1000_randls_46.json,http://54.235.29.9/FacialAge/BNav_EC2/DepthDuration/v2_depth_duration_MTurk/v2_DepthDuration_HTML.html#164,164,980,892,360,800,8-29-2022,13-24-36,54,depth_duration_stimuli/001806_2014-06-26_20-50-20_260595134347_rgbf000091-resize_1/001806_2014-06-26_20-50-20_260595134347_rgbf000091-resize_1-target.png,1000,2.7305,3.0,4009,999,feet,jsons/v1_VE1000_randls_46.json,951520,1292242,33,Man
54,143644,DepthScenes,duration_manipulation_targetAtFixation,jsons/v1_VE1000_randls_46.json,http://54.235.29.9/FacialAge/BNav_EC2/DepthDuration/v2_depth_duration_MTurk/v2_DepthDuration_HTML.html#164,164,980,892,360,800,8-29-2022,13-24-36,55,depth_duration_stimuli/001617_2014-06-20_11-35-32_260595134347_rgbf000066-resize_1/001617_2014-06-20_11-35-32_260595134347_rgbf000066-resize_1-target.png,1000,3.7910000000000004,7.0,4638,999,feet,jsons/v1_VE1000_randls_46.json,951520,1292242,33,Man
55,143644,DepthScenes,duration_manipulation_targetAtFixation,jsons/v1_VE1000_randls_46.json,http://54.235.29.9/FacialAge/BNav_EC2/DepthDuration/v2_depth_duration_MTurk/v2_DepthDuration_HTML.html#164,164,980,892,360,800,8-29-2022,13-24-36,56,depth_duration_stimuli/000739_2014-06-08_18-45-58_260595134347_rgbf000068-resize_1/000739_2014-06-08_18-45-58_260595134347_rgbf000068-resize_1-target.png,1000,3.534,6.0,3876,999,feet,jsons/v1_VE1000_randls_46.json,951520,1292242,33,Man
56,143644,DepthScenes,duration_manipulation_targetAtFixation,jsons/v1_VE1000_randls_46.json,http://54.235.29.9/FacialAge/BNav_EC2/DepthDuration/v2_depth_duration_MTurk/v2_DepthDuration_HTML.html#164,164,980,892,360,800,8-29-2022,13-24-36,57,depth_duration_stimuli/000734_2014-06-08_17-39-11_260595134347_rgbf000128-resize_2/000734_2014-06-08_17-39-11_260595134347_rgbf000128-resize_2-target.png,1000,4.098,7.0,3985,999,feet,jsons/v1_VE1000_randls_46.json,951520,1292242,33,Man
57,143644,DepthScenes,duration_manipulation_targetAtFixation,jsons/v1_VE1000_randls_46.json,http://54.235.29.9/FacialAge/BNav_EC2/DepthDuration/v2_depth_duration_MTurk/v2_DepthDuration_HTML.html#164,164,980,892,360,800,8-29-2022,13-24-36,58,depth_duration_stimuli/000758_2014-06-08_22-05-08_260595134347_rgbf000085-resize_0/000758_2014-06-08_22-05-08_260595134347_rgbf000085-resize_0-target.png,1000,3.3810000000000002,8.0,24255,999,feet,jsons/v1_VE1000_randls_46.json,951520,1292242,33,Man
58,143644,DepthScenes,duration_manipulation_targetAtFixation,jsons/v1_VE1000_randls_46.json,http://54.235.29.9/FacialAge/BNav_EC2/DepthDuration/v2_depth_duration_MTurk/v2_DepthDuration_HTML.html#164,164,980,892,360,800,8-29-2022,13-24-36,59,depth_duration_stimuli/000854_2014-06-09_19-43-13_260595134347_rgbf000066-resize_0/000854_2014-06-09_19-43-13_260595134347_rgbf000066-resize_0-target.png,1000,3.068,3.0,4080,998,feet,jsons/v1_VE1000_randls_46.json,951520,1292242,33,Man
59,143644,DepthScenes,duration_manipulation_targetAtFixation,jsons/v1_VE1000_randls_46.json,http://54.235.29.9/FacialAge/BNav_EC2/DepthDuration/v2_depth_duration_MTurk/v2_DepthDuration_HTML.html#164,164,980,892,360,800,8-29-2022,13-24-36,60,depth_duration_stimuli/003492_2014-05-21_15-50-55_094959634447_rgbf000828-resize_1/003492_2014-05-21_15-50-55_094959634447_rgbf000828-resize_1-target.png,1000,4.06875,15.0,4456,999,feet,jsons/v1_VE1000_randls_46.json,951520,1292242,33,Man
60,143644,DepthScenes,duration_manipulation_targetAtFixation,jsons/v1_VE1000_randls_46.json,http://54.235.29.9/FacialAge/BNav_EC2/DepthDuration/v2_depth_duration_MTurk/v2_DepthDuration_HTML.html#164,164,980,892,360,800,8-29-2022,13-24-36,61,depth_duration_stimuli/002568_2014-06-24_13-59-21_094959634447_rgbf000062-resize_4/002568_2014-06-24_13-59-21_094959634447_rgbf000062-resize_4-target.png,1000,3.015,9.0,3648,1000,feet,jsons/v1_VE1000_randls_46.json,951520,1292242,33,Man
61,143644,DepthScenes,duration_manipulation_targetAtFixation,jsons/v1_VE1000_randls_46.json,http://54.235.29.9/FacialAge/BNav_EC2/DepthDuration/v2_depth_duration_MTurk/v2_DepthDuration_HTML.html#164,164,980,892,360,800,8-29-2022,13-24-36,62,depth_duration_stimuli/000447_2014-06-08_16-15-46_260595134347_rgbf000130-resize_1/000447_2014-06-08_16-15-46_260595134347_rgbf000130-resize_1-target.png,1000,4.479,13.0,4330,1000,feet,jsons/v1_VE1000_randls_46.json,951520,1292242,33,Man
62,143644,DepthScenes,duration_manipulation_targetAtFixation,jsons/v1_VE1000_randls_46.json,http://54.235.29.9/FacialAge/BNav_EC2/DepthDuration/v2_depth_duration_MTurk/v2_DepthDuration_HTML.html#164,164,980,892,360,800,8-29-2022,13-24-36,63,depth_duration_stimuli/001447_2014-06-19_17-00-32_260595134347_rgbf000082-resize_5/001447_2014-06-19_17-00-32_260595134347_rgbf000082-resize_5-target.png,1000,4.13775,6.0,4009,999,feet,jsons/v1_VE1000_randls_46.json,951520,1292242,33,Man
63,143644,DepthScenes,duration_manipulation_targetAtFixation,jsons/v1_VE1000_randls_46.json,http://54.235.29.9/FacialAge/BNav_EC2/DepthDuration/v2_depth_duration_MTurk/v2_DepthDuration_HTML.html#164,164,980,892,360,800,8-29-2022,13-24-36,64,depth_duration_stimuli/000810_2014-06-08_17-20-01_260595134347_rgbf000105-resize_0/000810_2014-06-08_17-20-01_260595134347_rgbf000105-resize_0-target.png,1000,1.4865,5.0,4016,1000,feet,jsons/v1_VE1000_randls_46.json,951520,1292242,33,Man
64,143644,DepthScenes,duration_manipulation_targetAtFixation,jsons/v1_VE1000_randls_46.json,http://54.235.29.9/FacialAge/BNav_EC2/DepthDuration/v2_depth_duration_MTurk/v2_DepthDuration_HTML.html#164,164,980,892,360,800,8-29-2022,13-24-36,65,depth_duration_stimuli/001214_2014-06-17_16-13-55_260595134347_rgbf000111-resize_0/001214_2014-06-17_16-13-55_260595134347_rgbf000111-resize_0-target.png,1000,2.6505,6.5,5746,999,feet,jsons/v1_VE1000_randls_46.json,951520,1292242,33,Man
65,143644,DepthScenes,duration_manipulation_targetAtFixation,jsons/v1_VE1000_randls_46.json,http://54.235.29.9/FacialAge/BNav_EC2/DepthDuration/v2_depth_duration_MTurk/v2_DepthDuration_HTML.html#164,164,980,892,360,800,8-29-2022,13-24-36,66,depth_duration_stimuli/001222_2014-06-17_16-24-06_260595134347_rgbf000073-resize_0/001222_2014-06-17_16-24-06_260595134347_rgbf000073-resize-original.jpg,1000,1.4385,0.0,3936,998,feet,jsons/v1_VE1000_randls_46.json,951520,1292242,33,Man
66,143644,DepthScenes,duration_manipulation_targetAtFixation,jsons/v1_VE1000_randls_46.json,http://54.235.29.9/FacialAge/BNav_EC2/DepthDuration/v2_depth_duration_MTurk/v2_DepthDuration_HTML.html#164,164,980,892,360,800,8-29-2022,13-24-36,67,depth_duration_stimuli/002989_2014-06-15_12-25-03_094959634447_rgbf000150-resize_3/002989_2014-06-15_12-25-03_094959634447_rgbf000150-resize_3-target.png,1000,4.1975,11.0,3824,999,feet,jsons/v1_VE1000_randls_46.json,951520,1292242,33,Man
67,143644,DepthScenes,duration_manipulation_targetAtFixation,jsons/v1_VE1000_randls_46.json,http://54.235.29.9/FacialAge/BNav_EC2/DepthDuration/v2_depth_duration_MTurk/v2_DepthDuration_HTML.html#164,164,980,892,360,800,8-29-2022,13-24-36,68,depth_duration_stimuli/000866_2014-06-09_20-45-42_260595134347_rgbf000139-resize_1/000866_2014-06-09_20-45-42_260595134347_rgbf000139-resize_1-target.png,1000,3.2155,12.0,3897,998,feet,jsons/v1_VE1000_randls_46.json,951520,1292242,33,Man
68,143644,DepthScenes,duration_manipulation_targetAtFixation,jsons/v1_VE1000_randls_46.json,http://54.235.29.9/FacialAge/BNav_EC2/DepthDuration/v2_depth_duration_MTurk/v2_DepthDuration_HTML.html#164,164,980,892,360,800,8-29-2022,13-24-36,69,depth_duration_stimuli/002763_2014-06-22_19-13-10_094959634447_rgbf000075-resize_4/002763_2014-06-22_19-13-10_094959634447_rgbf000075-resize_4-target.png,1000,1.68375,5.0,3666,999,feet,jsons/v1_VE1000_randls_46.json,951520,1292242,33,Man
69,143644,DepthScenes,duration_manipulation_targetAtFixation,jsons/v1_VE1000_randls_46.json,http://54.235.29.9/FacialAge/BNav_EC2/DepthDuration/v2_depth_duration_MTurk/v2_DepthDuration_HTML.html#164,164,980,892,360,800,8-29-2022,13-24-36,70,depth_duration_stimuli/002209_2014-06-28_18-36-10_260595134347_rgbf000051-resize_1/002209_2014-06-28_18-36-10_260595134347_rgbf000051-resize_1-target.png,1000,2.057,4.0,3676,999,feet,jsons/v1_VE1000_randls_46.json,951520,1292242,33,Man
70,143644,DepthScenes,duration_manipulation_targetAtFixation,jsons/v1_VE1000_randls_46.json,http://54.235.29.9/FacialAge/BNav_EC2/DepthDuration/v2_depth_duration_MTurk/v2_DepthDuration_HTML.html#164,164,980,892,360,800,8-29-2022,13-24-36,71,depth_duration_stimuli/002784_2014-06-22_19-26-30_094959634447_rgbf000083-resize_3/002784_2014-06-22_19-26-30_094959634447_rgbf000083-resize_3-target.png,1000,1.8046666666667,3.0,3848,999,feet,jsons/v1_VE1000_randls_46.json,951520,1292242,33,Man
71,143644,DepthScenes,duration_manipulation_targetAtFixation,jsons/v1_VE1000_randls_46.json,http://54.235.29.9/FacialAge/BNav_EC2/DepthDuration/v2_depth_duration_MTurk/v2_DepthDuration_HTML.html#164,164,980,892,360,800,8-29-2022,13-24-36,72,depth_duration_stimuli/001100_2014-06-15_17-46-26_260595134347_rgbf000225-resize_2/001100_2014-06-15_17-46-26_260595134347_rgbf000225-resize_2-target.png,1000,2.24,2.0,3641,1000,feet,jsons/v1_VE1000_randls_46.json,951520,1292242,33,Man
72,143644,DepthScenes,duration_manipulation_targetAtFixation,jsons/v1_VE1000_randls_46.json,http://54.235.29.9/FacialAge/BNav_EC2/DepthDuration/v2_depth_duration_MTurk/v2_DepthDuration_HTML.html#164,164,980,892,360,800,8-29-2022,13-24-36,73,depth_duration_stimuli/000878_2014-06-08_22-52-45_260595134347_rgbf000045-resize_2/000878_2014-06-08_22-52-45_260595134347_rgbf000045-resize_2-target.png,1000,2.092,5.0,3828,999,feet,jsons/v1_VE1000_randls_46.json,951520,1292242,33,Man
73,143644,DepthScenes,duration_manipulation_targetAtFixation,jsons/v1_VE1000_randls_46.json,http://54.235.29.9/FacialAge/BNav_EC2/DepthDuration/v2_depth_duration_MTurk/v2_DepthDuration_HTML.html#164,164,980,892,360,800,8-29-2022,13-24-36,74,depth_duration_stimuli/002953_2014-06-08_17-32-18_094959634447_rgbf000059-resize_5/002953_2014-06-08_17-32-18_094959634447_rgbf000059-resize_5-target.png,1000,1.551,4.0,3815,998,feet,jsons/v1_VE1000_randls_46.json,951520,1292242,33,Man
74,143644,DepthScenes,duration_manipulation_targetAtFixation,jsons/v1_VE1000_randls_46.json,http://54.235.29.9/FacialAge/BNav_EC2/DepthDuration/v2_depth_duration_MTurk/v2_DepthDuration_HTML.html#164,164,980,892,360,800,8-29-2022,13-24-36,75,depth_duration_stimuli/002057_2014-06-24_21-00-13_260595134347_rgbf000120-resize_1/002057_2014-06-24_21-00-13_260595134347_rgbf000120-resize_1-target.png,1000,2.967,7.0,4116,999,feet,jsons/v1_VE1000_randls_46.json,951520,1292242,33,Man
75,143644,DepthScenes,duration_manipulation_targetAtFixation,jsons/v1_VE1000_randls_46.json,http://54.235.29.9/FacialAge/BNav_EC2/DepthDuration/v2_depth_duration_MTurk/v2_DepthDuration_HTML.html#164,164,980,892,360,800,8-29-2022,13-24-36,76,depth_duration_stimuli/000709_2014-06-08_13-51-55_260595134347_rgbf000068-resize_3/000709_2014-06-08_13-51-55_260595134347_rgbf000068-resize_3-target.png,1000,1.8030000000000002,4.0,4072,999,feet,jsons/v1_VE1000_randls_46.json,951520,1292242,33,Man
76,143644,DepthScenes,duration_manipulation_targetAtFixation,jsons/v1_VE1000_randls_46.json,http://54.235.29.9/FacialAge/BNav_EC2/DepthDuration/v2_depth_duration_MTurk/v2_DepthDuration_HTML.html#164,164,980,892,360,800,8-29-2022,13-24-36,77,depth_duration_stimuli/003070_2014-06-15_14-58-27_094959634447_rgbf000150-resize_3/003070_2014-06-15_14-58-27_094959634447_rgbf000150-resize_3-target.png,1000,2.9415,10.0,4093,1000,feet,jsons/v1_VE1000_randls_46.json,951520,1292242,33,Man
77,143644,DepthScenes,duration_manipulation_targetAtFixation,jsons/v1_VE1000_randls_46.json,http://54.235.29.9/FacialAge/BNav_EC2/DepthDuration/v2_depth_duration_MTurk/v2_DepthDuration_HTML.html#164,164,980,892,360,800,8-29-2022,13-24-36,78,depth_duration_stimuli/000943_2014-06-09_19-31-07_260595134347_rgbf000128-resize_1/000943_2014-06-09_19-31-07_260595134347_rgbf000128-resize_1-target.png,1000,1.9765,4.0,3803,1000,feet,jsons/v1_VE1000_randls_46.json,951520,1292242,33,Man
78,143644,DepthScenes,duration_manipulation_targetAtFixation,jsons/v1_VE1000_randls_46.json,http://54.235.29.9/FacialAge/BNav_EC2/DepthDuration/v2_depth_duration_MTurk/v2_DepthDuration_HTML.html#164,164,980,892,360,800,8-29-2022,13-24-36,79,depth_duration_stimuli/000368_2014-06-09_15-53-01_260595134347_rgbf000155-resize_2/000368_2014-06-09_15-53-01_260595134347_rgbf000155-resize_2-target.png,1000,2.4859999999999998,4.0,3965,1001,feet,jsons/v1_VE1000_randls_46.json,951520,1292242,33,Man
79,143644,DepthScenes,duration_manipulation_targetAtFixation,jsons/v1_VE1000_randls_46.json,http://54.235.29.9/FacialAge/BNav_EC2/DepthDuration/v2_depth_duration_MTurk/v2_DepthDuration_HTML.html#164,164,980,892,360,800,8-29-2022,13-24-36,80,depth_duration_stimuli/002678_2014-06-13_16-15-32_094959634447_rgbf000151-resize_6/002678_2014-06-13_16-15-32_094959634447_rgbf000151-resize_6-target.png,1000,2.1830000000000003,4.0,3693,999,feet,jsons/v1_VE1000_randls_46.json,951520,1292242,33,Man
80,143644,DepthScenes,duration_manipulation_targetAtFixation,jsons/v1_VE1000_randls_46.json,http://54.235.29.9/FacialAge/BNav_EC2/DepthDuration/v2_depth_duration_MTurk/v2_DepthDuration_HTML.html#164,164,980,892,360,800,8-29-2022,13-24-36,81,depth_duration_stimuli/002905_2014-06-03_18-04-43_094959634447_rgbf000151-resize_2/002905_2014-06-03_18-04-43_094959634447_rgbf000151-resize_2-target.png,1000,2.0295,5.0,3770,998,feet,jsons/v1_VE1000_randls_46.json,951520,1292242,33,Man
81,143644,DepthScenes,duration_manipulation_targetAtFixation,jsons/v1_VE1000_randls_46.json,http://54.235.29.9/FacialAge/BNav_EC2/DepthDuration/v2_depth_duration_MTurk/v2_DepthDuration_HTML.html#164,164,980,892,360,800,8-29-2022,13-24-36,82,depth_duration_stimuli/003423_2014-05-21_10-23-26_094959634447_rgbf002665-resize_2/003423_2014-05-21_10-23-26_094959634447_rgbf002665-resize_2-target.png,1000,3.2575,8.0,3762,999,feet,jsons/v1_VE1000_randls_46.json,951520,1292242,33,Man
82,143644,DepthScenes,duration_manipulation_targetAtFixation,jsons/v1_VE1000_randls_46.json,http://54.235.29.9/FacialAge/BNav_EC2/DepthDuration/v2_depth_duration_MTurk/v2_DepthDuration_HTML.html#164,164,980,892,360,800,8-29-2022,13-24-36,83,depth_duration_stimuli/002375_2014-06-28_20-13-44_260595134347_rgbf000032-resize_1/002375_2014-06-28_20-13-44_260595134347_rgbf000032-resize_1-target.png,1000,4.0175,9.0,3984,999,feet,jsons/v1_VE1000_randls_46.json,951520,1292242,33,Man
83,143644,DepthScenes,duration_manipulation_targetAtFixation,jsons/v1_VE1000_randls_46.json,http://54.235.29.9/FacialAge/BNav_EC2/DepthDuration/v2_depth_duration_MTurk/v2_DepthDuration_HTML.html#164,164,980,892,360,800,8-29-2022,13-24-36,84,depth_duration_stimuli/002657_2014-06-13_15-29-54_094959634447_rgbf000150-resize_1/002657_2014-06-13_15-29-54_094959634447_rgbf000150-resize_1-target.png,1000,4.919,12.0,3771,1000,feet,jsons/v1_VE1000_randls_46.json,951520,1292242,33,Man
84,143644,DepthScenes,duration_manipulation_targetAtFixation,jsons/v1_VE1000_randls_46.json,http://54.235.29.9/FacialAge/BNav_EC2/DepthDuration/v2_depth_duration_MTurk/v2_DepthDuration_HTML.html#164,164,980,892,360,800,8-29-2022,13-24-36,85,depth_duration_stimuli/000469_2014-06-09_19-42-10_260595134347_rgbf000081-resize_1/000469_2014-06-09_19-42-10_260595134347_rgbf000081-resize_1-target.png,1000,1.652,2.0,3527,1000,feet,jsons/v1_VE1000_randls_46.json,951520,1292242,33,Man
85,143644,DepthScenes,duration_manipulation_targetAtFixation,jsons/v1_VE1000_randls_46.json,http://54.235.29.9/FacialAge/BNav_EC2/DepthDuration/v2_depth_duration_MTurk/v2_DepthDuration_HTML.html#164,164,980,892,360,800,8-29-2022,13-24-36,86,depth_duration_stimuli/000483_2014-06-09_20-41-45_260595134347_rgbf000116-resize_4/000483_2014-06-09_20-41-45_260595134347_rgbf000116-resize_4-target.png,1000,1.337,1.5,4883,999,feet,jsons/v1_VE1000_randls_46.json,951520,1292242,33,Man
86,143644,DepthScenes,duration_manipulation_targetAtFixation,jsons/v1_VE1000_randls_46.json,http://54.235.29.9/FacialAge/BNav_EC2/DepthDuration/v2_depth_duration_MTurk/v2_DepthDuration_HTML.html#164,164,980,892,360,800,8-29-2022,13-24-36,87,depth_duration_stimuli/001011_2014-06-08_23-18-54_260595134347_rgbf000044-resize_4/001011_2014-06-08_23-18-54_260595134347_rgbf000044-resize_4-target.png,1000,2.4730000000000003,5.0,4270,999,feet,jsons/v1_VE1000_randls_46.json,951520,1292242,33,Man
87,143644,DepthScenes,duration_manipulation_targetAtFixation,jsons/v1_VE1000_randls_46.json,http://54.235.29.9/FacialAge/BNav_EC2/DepthDuration/v2_depth_duration_MTurk/v2_DepthDuration_HTML.html#164,164,980,892,360,800,8-29-2022,13-24-36,88,depth_duration_stimuli/002875_2014-06-01_15-19-00_094959634447_rgbf000151-resize_1/002875_2014-06-01_15-19-00_094959634447_rgbf000151-resize_1-target.png,1000,1.9675,7.0,4294,1000,feet,jsons/v1_VE1000_randls_46.json,951520,1292242,33,Man
88,143644,DepthScenes,duration_manipulation_targetAtFixation,jsons/v1_VE1000_randls_46.json,http://54.235.29.9/FacialAge/BNav_EC2/DepthDuration/v2_depth_duration_MTurk/v2_DepthDuration_HTML.html#164,164,980,892,360,800,8-29-2022,13-24-36,89,depth_duration_stimuli/000788_2014-06-08_22-34-36_260595134347_rgbf000131-resize_1/000788_2014-06-08_22-34-36_260595134347_rgbf000131-resize_1-target.png,1000,3.359,7.0,4340,1000,feet,jsons/v1_VE1000_randls_46.json,951520,1292242,33,Man
89,143644,DepthScenes,duration_manipulation_targetAtFixation,jsons/v1_VE1000_randls_46.json,http://54.235.29.9/FacialAge/BNav_EC2/DepthDuration/v2_depth_duration_MTurk/v2_DepthDuration_HTML.html#164,164,980,892,360,800,8-29-2022,13-24-36,90,depth_duration_stimuli/001235_2014-06-17_16-37-36_260595134347_rgbf000084-resize_4/001235_2014-06-17_16-37-36_260595134347_rgbf000084-resize_4-target.png,1000,3.6605,7.0,4008,999,feet,jsons/v1_VE1000_randls_46.json,951520,1292242,33,Man
90,143644,DepthScenes,duration_manipulation_targetAtFixation,jsons/v1_VE1000_randls_46.json,http://54.235.29.9/FacialAge/BNav_EC2/DepthDuration/v2_depth_duration_MTurk/v2_DepthDuration_HTML.html#164,164,980,892,360,800,8-29-2022,13-24-36,91,depth_duration_stimuli/003292_2014-05-14_21-53-49_094959634447_rgbf000100-resize_2/003292_2014-05-14_21-53-49_094959634447_rgbf000100-resize_2-target.png,1000,3.4815,5.0,4010,999,feet,jsons/v1_VE1000_randls_46.json,951520,1292242,33,Man
91,143644,DepthScenes,duration_manipulation_targetAtFixation,jsons/v1_VE1000_randls_46.json,http://54.235.29.9/FacialAge/BNav_EC2/DepthDuration/v2_depth_duration_MTurk/v2_DepthDuration_HTML.html#164,164,980,892,360,800,8-29-2022,13-24-36,92,depth_duration_stimuli/002639_2014-06-24_14-51-37_094959634447_rgbf000074-resize_4/002639_2014-06-24_14-51-37_094959634447_rgbf000074-resize_4-target.png,1000,4.0375,5.0,4808,998,feet,jsons/v1_VE1000_randls_46.json,951520,1292242,33,Man
92,143644,DepthScenes,duration_manipulation_targetAtFixation,jsons/v1_VE1000_randls_46.json,http://54.235.29.9/FacialAge/BNav_EC2/DepthDuration/v2_depth_duration_MTurk/v2_DepthDuration_HTML.html#164,164,980,892,360,800,8-29-2022,13-24-36,93,depth_duration_stimuli/000470_2014-06-09_19-42-40_260595134347_rgbf000094-resize_1/000470_2014-06-09_19-42-40_260595134347_rgbf000094-resize_1-target.png,1000,1.831,4.0,4650,999,feet,jsons/v1_VE1000_randls_46.json,951520,1292242,33,Man
93,143644,DepthScenes,duration_manipulation_targetAtFixation,jsons/v1_VE1000_randls_46.json,http://54.235.29.9/FacialAge/BNav_EC2/DepthDuration/v2_depth_duration_MTurk/v2_DepthDuration_HTML.html#164,164,980,892,360,800,8-29-2022,13-24-36,94,depth_duration_stimuli/000109_2014-05-14_23-41-52_260595134347_rgbf000035-resize_9/000109_2014-05-14_23-41-52_260595134347_rgbf000035-resize_9-target.png,1000,1.3545,3.0,3728,994,feet,jsons/v1_VE1000_randls_46.json,951520,1292242,33,Man
94,143644,DepthScenes,duration_manipulation_targetAtFixation,jsons/v1_VE1000_randls_46.json,http://54.235.29.9/FacialAge/BNav_EC2/DepthDuration/v2_depth_duration_MTurk/v2_DepthDuration_HTML.html#164,164,980,892,360,800,8-29-2022,13-24-36,95,depth_duration_stimuli/000682_2014-06-08_23-14-58_260595134347_rgbf000041-resize_5/000682_2014-06-08_23-14-58_260595134347_rgbf000041-resize_5-target.png,1000,2.7239999999999998,5.0,4174,998,feet,jsons/v1_VE1000_randls_46.json,951520,1292242,33,Man
95,143644,DepthScenes,duration_manipulation_targetAtFixation,jsons/v1_VE1000_randls_46.json,http://54.235.29.9/FacialAge/BNav_EC2/DepthDuration/v2_depth_duration_MTurk/v2_DepthDuration_HTML.html#164,164,980,892,360,800,8-29-2022,13-24-36,96,depth_duration_stimuli/001650_2014-06-20_12-09-00_260595134347_rgbf000087-resize_3/001650_2014-06-20_12-09-00_260595134347_rgbf000087-resize_3-target.png,1000,1.9505,2.0,3604,992,feet,jsons/v1_VE1000_randls_46.json,951520,1292242,33,Man
96,143644,DepthScenes,duration_manipulation_targetAtFixation,jsons/v1_VE1000_randls_46.json,http://54.235.29.9/FacialAge/BNav_EC2/DepthDuration/v2_depth_duration_MTurk/v2_DepthDuration_HTML.html#164,164,980,892,360,800,8-29-2022,13-24-36,97,depth_duration_stimuli/000436_2014-06-09_22-25-11_260595134347_rgbf000137-resize_1/000436_2014-06-09_22-25-11_260595134347_rgbf000137-resize_1-target.png,1000,4.0705,12.0,4148,1000,feet,jsons/v1_VE1000_randls_46.json,951520,1292242,33,Man
97,143644,DepthScenes,duration_manipulation_targetAtFixation,jsons/v1_VE1000_randls_46.json,http://54.235.29.9/FacialAge/BNav_EC2/DepthDuration/v2_depth_duration_MTurk/v2_DepthDuration_HTML.html#164,164,980,892,360,800,8-29-2022,13-24-36,98,depth_duration_stimuli/002444_2014-06-28_20-32-08_260595134347_rgbf000027-resize_0/002444_2014-06-28_20-32-08_260595134347_rgbf000027-resize_0-target.png,1000,4.388999999999999,12.0,4078,997,feet,jsons/v1_VE1000_randls_46.json,951520,1292242,33,Man
98,143644,DepthScenes,duration_manipulation_targetAtFixation,jsons/v1_VE1000_randls_46.json,http://54.235.29.9/FacialAge/BNav_EC2/DepthDuration/v2_depth_duration_MTurk/v2_DepthDuration_HTML.html#164,164,980,892,360,800,8-29-2022,13-24-36,99,depth_duration_stimuli/001540_2014-06-20_17-01-05_260595134347_rgbf000086-resize_2/001540_2014-06-20_17-01-05_260595134347_rgbf000086-resize-original.jpg,1000,1.459,0.0,38774,999,feet,jsons/v1_VE1000_randls_46.json,951520,1292242,33,Man
99,143644,DepthScenes,duration_manipulation_targetAtFixation,jsons/v1_VE1000_randls_46.json,http://54.235.29.9/FacialAge/BNav_EC2/DepthDuration/v2_depth_duration_MTurk/v2_DepthDuration_HTML.html#164,164,980,892,360,800,8-29-2022,13-24-36,100,depth_duration_stimuli/002043_2014-06-24_20-29-38_260595134347_rgbf000039-resize_4/002043_2014-06-24_20-29-38_260595134347_rgbf000039-resize_4-target.png,1000,2.8435,6.0,3744,998,feet,jsons/v1_VE1000_randls_46.json,951520,1292242,33,Man
100,143644,DepthScenes,duration_manipulation_targetAtFixation,jsons/v1_VE1000_randls_46.json,http://54.235.29.9/FacialAge/BNav_EC2/DepthDuration/v2_depth_duration_MTurk/v2_DepthDuration_HTML.html#164,164,980,892,360,800,8-29-2022,13-24-36,101,depth_duration_stimuli/003048_2014-06-15_13-49-43_094959634447_rgbf000150-resize_1/003048_2014-06-15_13-49-43_094959634447_rgbf000150-resize_1-target.png,1000,4.0035,12.0,3947,997,feet,jsons/v1_VE1000_randls_46.json,951520,1292242,33,Man
101,143644,DepthScenes,duration_manipulation_targetAtFixation,jsons/v1_VE1000_randls_46.json,http://54.235.29.9/FacialAge/BNav_EC2/DepthDuration/v2_depth_duration_MTurk/v2_DepthDuration_HTML.html#164,164,980,892,360,800,8-29-2022,13-24-36,102,depth_duration_stimuli/000917_2014-06-09_22-45-29_260595134347_rgbf000149-resize_3/000917_2014-06-09_22-45-29_260595134347_rgbf000149-resize_3-target.png,1000,4.1865,12.0,52621,1000,feet,jsons/v1_VE1000_randls_46.json,951520,1292242,33,Man
102,143644,DepthScenes,duration_manipulation_targetAtFixation,jsons/v1_VE1000_randls_46.json,http://54.235.29.9/FacialAge/BNav_EC2/DepthDuration/v2_depth_duration_MTurk/v2_DepthDuration_HTML.html#164,164,980,892,360,800,8-29-2022,13-24-36,103,depth_duration_stimuli/002323_2014-06-28_20-01-54_260595134347_rgbf000051-resize_4/002323_2014-06-28_20-01-54_260595134347_rgbf000051-resize_4-target.png,1000,3.7310000000000003,12.0,4225,998,feet,jsons/v1_VE1000_randls_46.json,951520,1292242,33,Man
103,143644,DepthScenes,duration_manipulation_targetAtFixation,jsons/v1_VE1000_randls_46.json,http://54.235.29.9/FacialAge/BNav_EC2/DepthDuration/v2_depth_duration_MTurk/v2_DepthDuration_HTML.html#164,164,980,892,360,800,8-29-2022,13-24-36,104,depth_duration_stimuli/000486_2014-06-09_20-47-20_260595134347_rgbf000143-resize_2/000486_2014-06-09_20-47-20_260595134347_rgbf000143-resize_2-target.png,1000,4.8325,13.0,3934,999,feet,jsons/v1_VE1000_randls_46.json,951520,1292242,33,Man
104,143644,DepthScenes,duration_manipulation_targetAtFixation,jsons/v1_VE1000_randls_46.json,http://54.235.29.9/FacialAge/BNav_EC2/DepthDuration/v2_depth_duration_MTurk/v2_DepthDuration_HTML.html#164,164,980,892,360,800,8-29-2022,13-24-36,105,depth_duration_stimuli/003083_2014-06-15_15-21-03_094959634447_rgbf000063-resize_1/003083_2014-06-15_15-21-03_094959634447_rgbf000063-resize_1-target.png,1000,4.1405,13.0,4972,1000,feet,jsons/v1_VE1000_randls_46.json,951520,1292242,33,Man
105,143644,DepthScenes,duration_manipulation_targetAtFixation,jsons/v1_VE1000_randls_46.json,http://54.235.29.9/FacialAge/BNav_EC2/DepthDuration/v2_depth_duration_MTurk/v2_DepthDuration_HTML.html#164,164,980,892,360,800,8-29-2022,13-24-36,106,depth_duration_stimuli/000773_2014-06-08_22-24-54_260595134347_rgbf000093-resize_1/000773_2014-06-08_22-24-54_260595134347_rgbf000093-resize_1-target.png,1000,4.973,11.0,4200,999,feet,jsons/v1_VE1000_randls_46.json,951520,1292242,33,Man
106,143644,DepthScenes,duration_manipulation_targetAtFixation,jsons/v1_VE1000_randls_46.json,http://54.235.29.9/FacialAge/BNav_EC2/DepthDuration/v2_depth_duration_MTurk/v2_DepthDuration_HTML.html#164,164,980,892,360,800,8-29-2022,13-24-36,107,depth_duration_stimuli/002414_2014-06-28_20-24-58_260595134347_rgbf000067-resize_4/002414_2014-06-28_20-24-58_260595134347_rgbf000067-resize_4-target.png,1000,4.363,7.0,4073,999,feet,jsons/v1_VE1000_randls_46.json,951520,1292242,33,Man
107,143644,DepthScenes,duration_manipulation_targetAtFixation,jsons/v1_VE1000_randls_46.json,http://54.235.29.9/FacialAge/BNav_EC2/DepthDuration/v2_depth_duration_MTurk/v2_DepthDuration_HTML.html#164,164,980,892,360,800,8-29-2022,13-24-36,108,depth_duration_stimuli/000906_2014-06-08_13-35-43_260595134347_rgbf000155-resize_1/000906_2014-06-08_13-35-43_260595134347_rgbf000155-resize_1-target.png,1000,2.8489999999999998,5.5,5260,997,feet,jsons/v1_VE1000_randls_46.json,951520,1292242,33,Man
108,143644,DepthScenes,duration_manipulation_targetAtFixation,jsons/v1_VE1000_randls_46.json,http://54.235.29.9/FacialAge/BNav_EC2/DepthDuration/v2_depth_duration_MTurk/v2_DepthDuration_HTML.html#164,164,980,892,360,800,8-29-2022,13-24-36,109,depth_duration_stimuli/002805_2014-06-22_19-54-03_094959634447_rgbf000079-resize_1/002805_2014-06-22_19-54-03_094959634447_rgbf000079-resize_1-target.png,1000,3.1439999999999997,6.0,3809,999,feet,jsons/v1_VE1000_randls_46.json,951520,1292242,33,Man
109,143644,DepthScenes,duration_manipulation_targetAtFixation,jsons/v1_VE1000_randls_46.json,http://54.235.29.9/FacialAge/BNav_EC2/DepthDuration/v2_depth_duration_MTurk/v2_DepthDuration_HTML.html#164,164,980,892,360,800,8-29-2022,13-24-36,110,depth_duration_stimuli/001110_2014-06-15_17-25-28_260595134347_rgbf000150-resize_1/001110_2014-06-15_17-25-28_260595134347_rgbf000150-resize_1-target.png,1000,1.7115,4.0,3810,1002,feet,jsons/v1_VE1000_randls_46.json,951520,1292242,33,Man
110,143644,DepthScenes,duration_manipulation_targetAtFixation,jsons/v1_VE1000_randls_46.json,http://54.235.29.9/FacialAge/BNav_EC2/DepthDuration/v2_depth_duration_MTurk/v2_DepthDuration_HTML.html#164,164,980,892,360,800,8-29-2022,13-24-36,111,depth_duration_stimuli/000927_2014-06-09_16-32-30_260595134347_rgbf000123-resize_3/000927_2014-06-09_16-32-30_260595134347_rgbf000123-resize_3-target.png,1000,2.6785,7.0,55890,999,feet,jsons/v1_VE1000_randls_46.json,951520,1292242,33,Man
111,143644,DepthScenes,duration_manipulation_targetAtFixation,jsons/v1_VE1000_randls_46.json,http://54.235.29.9/FacialAge/BNav_EC2/DepthDuration/v2_depth_duration_MTurk/v2_DepthDuration_HTML.html#164,164,980,892,360,800,8-29-2022,13-24-36,112,depth_duration_stimuli/002663_2014-06-13_15-50-26_094959634447_rgbf000075-resize_1/002663_2014-06-13_15-50-26_094959634447_rgbf000075-resize_1-target.png,1000,4.7495,12.0,3958,999,feet,jsons/v1_VE1000_randls_46.json,951520,1292242,33,Man
112,143644,DepthScenes,duration_manipulation_targetAtFixation,jsons/v1_VE1000_randls_46.json,http://54.235.29.9/FacialAge/BNav_EC2/DepthDuration/v2_depth_duration_MTurk/v2_DepthDuration_HTML.html#164,164,980,892,360,800,8-29-2022,13-24-36,113,depth_duration_stimuli/000409_2014-06-04_19-23-33_260595134347_rgbf000067-resize_0/000409_2014-06-04_19-23-33_260595134347_rgbf000067-resize_0-target.png,1000,3.7335,7.0,3928,1000,feet,jsons/v1_VE1000_randls_46.json,951520,1292242,33,Man
113,143644,DepthScenes,duration_manipulation_targetAtFixation,jsons/v1_VE1000_randls_46.json,http://54.235.29.9/FacialAge/BNav_EC2/DepthDuration/v2_depth_duration_MTurk/v2_DepthDuration_HTML.html#164,164,980,892,360,800,8-29-2022,13-24-36,114,depth_duration_stimuli/002988_2014-06-15_12-24-20_094959634447_rgbf000150-resize_1/002988_2014-06-15_12-24-20_094959634447_rgbf000150-resize_1-target.png,1000,4.7669999999999995,9.0,3986,999,feet,jsons/v1_VE1000_randls_46.json,951520,1292242,33,Man
114,143644,DepthScenes,duration_manipulation_targetAtFixation,jsons/v1_VE1000_randls_46.json,http://54.235.29.9/FacialAge/BNav_EC2/DepthDuration/v2_depth_duration_MTurk/v2_DepthDuration_HTML.html#164,164,980,892,360,800,8-29-2022,13-24-36,115,depth_duration_stimuli/001052_2014-06-08_18-24-54_260595134347_rgbf000130-resize_1/001052_2014-06-08_18-24-54_260595134347_rgbf000130-resize_1-target.png,1000,4.1045,9.0,4133,999,feet,jsons/v1_VE1000_randls_46.json,951520,1292242,33,Man
115,143644,DepthScenes,duration_manipulation_targetAtFixation,jsons/v1_VE1000_randls_46.json,http://54.235.29.9/FacialAge/BNav_EC2/DepthDuration/v2_depth_duration_MTurk/v2_DepthDuration_HTML.html#164,164,980,892,360,800,8-29-2022,13-24-36,116,depth_duration_stimuli/001170_2014-06-17_15-43-44_260595134347_rgbf000096-resize_6/001170_2014-06-17_15-43-44_260595134347_rgbf000096-resize-original.jpg,1000,1.1909999999999998,0.0,4096,998,feet,jsons/v1_VE1000_randls_46.json,951520,1292242,33,Man
116,143644,DepthScenes,duration_manipulation_targetAtFixation,jsons/v1_VE1000_randls_46.json,http://54.235.29.9/FacialAge/BNav_EC2/DepthDuration/v2_depth_duration_MTurk/v2_DepthDuration_HTML.html#164,164,980,892,360,800,8-29-2022,13-24-36,117,depth_duration_stimuli/002213_2014-06-28_18-37-58_260595134347_rgbf000055-resize_1/002213_2014-06-28_18-37-58_260595134347_rgbf000055-resize_1-target.png,1000,3.62,10.0,4361,998,feet,jsons/v1_VE1000_randls_46.json,951520,1292242,33,Man
117,143644,DepthScenes,duration_manipulation_targetAtFixation,jsons/v1_VE1000_randls_46.json,http://54.235.29.9/FacialAge/BNav_EC2/DepthDuration/v2_depth_duration_MTurk/v2_DepthDuration_HTML.html#164,164,980,892,360,800,8-29-2022,13-24-36,118,depth_duration_stimuli/000691_2014-06-08_13-08-50_260595134347_rgbf000132-resize_3/000691_2014-06-08_13-08-50_260595134347_rgbf000132-resize_3-target.png,1000,4.1530000000000005,11.0,3788,993,feet,jsons/v1_VE1000_randls_46.json,951520,1292242,33,Man
118,143644,DepthScenes,duration_manipulation_targetAtFixation,jsons/v1_VE1000_randls_46.json,http://54.235.29.9/FacialAge/BNav_EC2/DepthDuration/v2_depth_duration_MTurk/v2_DepthDuration_HTML.html#164,164,980,892,360,800,8-29-2022,13-24-36,119,depth_duration_stimuli/001133_2014-06-17_14-49-16_260595134347_rgbf000100-resize_0/001133_2014-06-17_14-49-16_260595134347_rgbf000100-resize_0-target.png,1000,4.2115,12.0,3878,998,feet,jsons/v1_VE1000_randls_46.json,951520,1292242,33,Man
119,143644,DepthScenes,duration_manipulation_targetAtFixation,jsons/v1_VE1000_randls_46.json,http://54.235.29.9/FacialAge/BNav_EC2/DepthDuration/v2_depth_duration_MTurk/v2_DepthDuration_HTML.html#164,164,980,892,360,800,8-29-2022,13-24-36,120,depth_duration_stimuli/001132_2014-06-17_14-48-54_260595134347_rgbf000100-resize_2/001132_2014-06-17_14-48-54_260595134347_rgbf000100-resize_2-target.png,1000,3.753,6.0,4203,999,feet,jsons/v1_VE1000_randls_46.json,951520,1292242,33,Man
120,143644,DepthScenes,duration_manipulation_targetAtFixation,jsons/v1_VE1000_randls_46.json,http://54.235.29.9/FacialAge/BNav_EC2/DepthDuration/v2_depth_duration_MTurk/v2_DepthDuration_HTML.html#164,164,980,892,360,800,8-29-2022,13-24-36,121,depth_duration_stimuli/002600_2014-06-24_14-27-04_094959634447_rgbf000074-resize_2/002600_2014-06-24_14-27-04_094959634447_rgbf000074-resize_2-target.png,1000,2.7575,7.0,4311,999,feet,jsons/v1_VE1000_randls_46.json,951520,1292242,33,Man
121,143644,DepthScenes,duration_manipulation_targetAtFixation,jsons/v1_VE1000_randls_46.json,http://54.235.29.9/FacialAge/BNav_EC2/DepthDuration/v2_depth_duration_MTurk/v2_DepthDuration_HTML.html#164,164,980,892,360,800,8-29-2022,13-24-36,122,depth_duration_stimuli/003228_2014-05-14_13-42-35_094959634447_rgbf000101-resize_1/003228_2014-05-14_13-42-35_094959634447_rgbf000101-resize_1-target.png,1000,1.9680000000000002,2.5,5295,999,feet,jsons/v1_VE1000_randls_46.json,951520,1292242,33,Man
122,143644,DepthScenes,duration_manipulation_targetAtFixation,jsons/v1_VE1000_randls_46.json,http://54.235.29.9/FacialAge/BNav_EC2/DepthDuration/v2_depth_duration_MTurk/v2_DepthDuration_HTML.html#164,164,980,892,360,800,8-29-2022,13-24-36,123,depth_duration_stimuli/002549_2014-06-24_13-41-39_094959634447_rgbf000022-resize_3/002549_2014-06-24_13-41-39_094959634447_rgbf000022-resize_3-target.png,1000,1.476,2.0,3779,999,feet,jsons/v1_VE1000_randls_46.json,951520,1292242,33,Man
123,143644,DepthScenes,duration_manipulation_targetAtFixation,jsons/v1_VE1000_randls_46.json,http://54.235.29.9/FacialAge/BNav_EC2/DepthDuration/v2_depth_duration_MTurk/v2_DepthDuration_HTML.html#164,164,980,892,360,800,8-29-2022,13-24-36,124,depth_duration_stimuli/002750_2014-06-22_19-08-03_094959634447_rgbf000094-resize_4/002750_2014-06-22_19-08-03_094959634447_rgbf000094-resize_4-target.png,1000,2.354,7.0,4097,1000,feet,jsons/v1_VE1000_randls_46.json,951520,1292242,33,Man
124,143644,DepthScenes,duration_manipulation_targetAtFixation,jsons/v1_VE1000_randls_46.json,http://54.235.29.9/FacialAge/BNav_EC2/DepthDuration/v2_depth_duration_MTurk/v2_DepthDuration_HTML.html#164,164,980,892,360,800,8-29-2022,13-24-36,125,depth_duration_stimuli/000692_2014-06-08_13-09-42_260595134347_rgbf000199-resize_2/000692_2014-06-08_13-09-42_260595134347_rgbf000199-resize_2-target.png,1000,3.661,11.0,3924,999,feet,jsons/v1_VE1000_randls_46.json,951520,1292242,33,Man
125,143644,DepthScenes,duration_manipulation_targetAtFixation,jsons/v1_VE1000_randls_46.json,http://54.235.29.9/FacialAge/BNav_EC2/DepthDuration/v2_depth_duration_MTurk/v2_DepthDuration_HTML.html#164,164,980,892,360,800,8-29-2022,13-24-36,126,depth_duration_stimuli/001094_2014-06-15_17-36-00_260595134347_rgbf000205-resize_0/001094_2014-06-15_17-36-00_260595134347_rgbf000205-resize_0-target.png,1000,4.2175,12.0,4392,999,feet,jsons/v1_VE1000_randls_46.json,951520,1292242,33,Man
126,143644,DepthScenes,duration_manipulation_targetAtFixation,jsons/v1_VE1000_randls_46.json,http://54.235.29.9/FacialAge/BNav_EC2/DepthDuration/v2_depth_duration_MTurk/v2_DepthDuration_HTML.html#164,164,980,892,360,800,8-29-2022,13-24-36,127,depth_duration_stimuli/001029_2014-06-08_13-17-57_260595134347_rgbf000065-resize_1/001029_2014-06-08_13-17-57_260595134347_rgbf000065-resize_1-target.png,1000,3.0835,7.0,4592,1000,feet,jsons/v1_VE1000_randls_46.json,951520,1292242,33,Man
127,143644,DepthScenes,duration_manipulation_targetAtFixation,jsons/v1_VE1000_randls_46.json,http://54.235.29.9/FacialAge/BNav_EC2/DepthDuration/v2_depth_duration_MTurk/v2_DepthDuration_HTML.html#164,164,980,892,360,800,8-29-2022,13-24-36,128,depth_duration_stimuli/000677_2014-06-08_23-10-32_260595134347_rgbf000158-resize_6/000677_2014-06-08_23-10-32_260595134347_rgbf000158-resize_6-target.png,1000,3.556,6.0,4161,1001,feet,jsons/v1_VE1000_randls_46.json,951520,1292242,33,Man
128,143644,DepthScenes,duration_manipulation_targetAtFixation,jsons/v1_VE1000_randls_46.json,http://54.235.29.9/FacialAge/BNav_EC2/DepthDuration/v2_depth_duration_MTurk/v2_DepthDuration_HTML.html#164,164,980,892,360,800,8-29-2022,13-24-36,129,depth_duration_stimuli/001158_2014-06-17_15-32-16_260595134347_rgbf000138-resize_2/001158_2014-06-17_15-32-16_260595134347_rgbf000138-resize_2-target.png,1000,4.5315,12.0,3656,999,feet,jsons/v1_VE1000_randls_46.json,951520,1292242,33,Man
129,143644,DepthScenes,duration_manipulation_targetAtFixation,jsons/v1_VE1000_randls_46.json,http://54.235.29.9/FacialAge/BNav_EC2/DepthDuration/v2_depth_duration_MTurk/v2_DepthDuration_HTML.html#164,164,980,892,360,800,8-29-2022,13-24-36,130,depth_duration_stimuli/000556_2014-06-09_22-42-56_260595134347_rgbf000214-resize_1/000556_2014-06-09_22-42-56_260595134347_rgbf000214-resize_1-target.png,1000,4.8415,13.0,4037,1000,feet,jsons/v1_VE1000_randls_46.json,951520,1292242,33,Man
130,143644,DepthScenes,duration_manipulation_targetAtFixation,jsons/v1_VE1000_randls_46.json,http://54.235.29.9/FacialAge/BNav_EC2/DepthDuration/v2_depth_duration_MTurk/v2_DepthDuration_HTML.html#164,164,980,892,360,800,8-29-2022,13-24-36,131,depth_duration_stimuli/001164_2014-06-17_15-35-46_260595134347_rgbf000085-resize_3/001164_2014-06-17_15-35-46_260595134347_rgbf000085-resize_3-target.png,1000,2.354,5.0,4110,999,feet,jsons/v1_VE1000_randls_46.json,951520,1292242,33,Man
131,143644,DepthScenes,duration_manipulation_targetAtFixation,jsons/v1_VE1000_randls_46.json,http://54.235.29.9/FacialAge/BNav_EC2/DepthDuration/v2_depth_duration_MTurk/v2_DepthDuration_HTML.html#164,164,980,892,360,800,8-29-2022,13-24-36,132,depth_duration_stimuli/001136_2014-06-17_15-19-41_260595134347_rgbf000076-resize_3/001136_2014-06-17_15-19-41_260595134347_rgbf000076-resize_3-target.png,1000,1.8655,4.0,3821,1000,feet,jsons/v1_VE1000_randls_46.json,951520,1292242,33,Man
132,143644,DepthScenes,duration_manipulation_targetAtFixation,jsons/v1_VE1000_randls_46.json,http://54.235.29.9/FacialAge/BNav_EC2/DepthDuration/v2_depth_duration_MTurk/v2_DepthDuration_HTML.html#164,164,980,892,360,800,8-29-2022,13-24-36,133,depth_duration_stimuli/002570_2014-06-24_13-59-54_094959634447_rgbf000059-resize_0/002570_2014-06-24_13-59-54_094959634447_rgbf000059-resize_0-target.png,1000,4.037,6.0,5666,999,feet,jsons/v1_VE1000_randls_46.json,951520,1292242,33,Man
133,143644,DepthScenes,duration_manipulation_targetAtFixation,jsons/v1_VE1000_randls_46.json,http://54.235.29.9/FacialAge/BNav_EC2/DepthDuration/v2_depth_duration_MTurk/v2_DepthDuration_HTML.html#164,164,980,892,360,800,8-29-2022,13-24-36,134,depth_duration_stimuli/002467_2014-06-28_20-38-07_260595134347_rgbf000026-resize_2/002467_2014-06-28_20-38-07_260595134347_rgbf000026-resize_2-target.png,1000,4.742,11.0,4356,1002,feet,jsons/v1_VE1000_randls_46.json,951520,1292242,33,Man
134,143644,DepthScenes,duration_manipulation_targetAtFixation,jsons/v1_VE1000_randls_46.json,http://54.235.29.9/FacialAge/BNav_EC2/DepthDuration/v2_depth_duration_MTurk/v2_DepthDuration_HTML.html#164,164,980,892,360,800,8-29-2022,13-24-36,135,depth_duration_stimuli/002072_2014-06-24_21-48-06_260595134347_rgbf000115-resize_0/002072_2014-06-24_21-48-06_260595134347_rgbf000115-resize-original.jpg,1000,4.702,0.0,4458,997,feet,jsons/v1_VE1000_randls_46.json,951520,1292242,33,Man
135,143644,DepthScenes,duration_manipulation_targetAtFixation,jsons/v1_VE1000_randls_46.json,http://54.235.29.9/FacialAge/BNav_EC2/DepthDuration/v2_depth_duration_MTurk/v2_DepthDuration_HTML.html#164,164,980,892,360,800,8-29-2022,13-24-36,136,depth_duration_stimuli/002788_2014-06-22_19-36-03_094959634447_rgbf000088-resize_2/002788_2014-06-22_19-36-03_094959634447_rgbf000088-resize_2-target.png,1000,1.6465,8.0,3816,999,feet,jsons/v1_VE1000_randls_46.json,951520,1292242,33,Man
136,143644,DepthScenes,duration_manipulation_targetAtFixation,jsons/v1_VE1000_randls_46.json,http://54.235.29.9/FacialAge/BNav_EC2/DepthDuration/v2_depth_duration_MTurk/v2_DepthDuration_HTML.html#164,164,980,892,360,800,8-29-2022,13-24-36,137,depth_duration_stimuli/000749_2014-06-08_21-55-06_260595134347_rgbf000070-resize_2/000749_2014-06-08_21-55-06_260595134347_rgbf000070-resize_2-target.png,1000,2.331,5.0,4160,999,feet,jsons/v1_VE1000_randls_46.json,951520,1292242,33,Man
137,143644,DepthScenes,duration_manipulation_targetAtFixation,jsons/v1_VE1000_randls_46.json,http://54.235.29.9/FacialAge/BNav_EC2/DepthDuration/v2_depth_duration_MTurk/v2_DepthDuration_HTML.html#164,164,980,892,360,800,8-29-2022,13-24-36,138,depth_duration_stimuli/001055_2014-06-08_18-45-35_260595134347_rgbf000111-resize_4/001055_2014-06-08_18-45-35_260595134347_rgbf000111-resize_4-target.png,1000,2.4290000000000003,7.0,4432,999,feet,jsons/v1_VE1000_randls_46.json,951520,1292242,33,Man
138,143644,DepthScenes,duration_manipulation_targetAtFixation,jsons/v1_VE1000_randls_46.json,http://54.235.29.9/FacialAge/BNav_EC2/DepthDuration/v2_depth_duration_MTurk/v2_DepthDuration_HTML.html#164,164,980,892,360,800,8-29-2022,13-24-36,139,depth_duration_stimuli/000549_2014-06-08_22-10-24_260595134347_rgbf000247-resize_3/000549_2014-06-08_22-10-24_260595134347_rgbf000247-resize_3-target.png,1000,1.841,3.0,4147,1002,feet,jsons/v1_VE1000_randls_46.json,951520,1292242,33,Man
139,143644,DepthScenes,duration_manipulation_targetAtFixation,jsons/v1_VE1000_randls_46.json,http://54.235.29.9/FacialAge/BNav_EC2/DepthDuration/v2_depth_duration_MTurk/v2_DepthDuration_HTML.html#164,164,980,892,360,800,8-29-2022,13-24-36,140,depth_duration_stimuli/001175_2014-06-17_15-45-55_260595134347_rgbf000129-resize_4/001175_2014-06-17_15-45-55_260595134347_rgbf000129-resize_4-target.png,1000,4.255,12.0,4015,998,feet,jsons/v1_VE1000_randls_46.json,951520,1292242,33,Man
140,143644,DepthScenes,duration_manipulation_targetAtFixation,jsons/v1_VE1000_randls_46.json,http://54.235.29.9/FacialAge/BNav_EC2/DepthDuration/v2_depth_duration_MTurk/v2_DepthDuration_HTML.html#164,164,980,892,360,800,8-29-2022,13-24-36,141,depth_duration_stimuli/003490_2014-05-21_15-50-11_094959634447_rgbf000101-resize_3/003490_2014-05-21_15-50-11_094959634447_rgbf000101-resize_3-target.png,1000,3.6445,13.0,4513,999,feet,jsons/v1_VE1000_randls_46.json,951520,1292242,33,Man
141,143644,DepthScenes,duration_manipulation_targetAtFixation,jsons/v1_VE1000_randls_46.json,http://54.235.29.9/FacialAge/BNav_EC2/DepthDuration/v2_depth_duration_MTurk/v2_DepthDuration_HTML.html#164,164,980,892,360,800,8-29-2022,13-24-36,142,depth_duration_stimuli/000414_2014-06-04_19-49-13_260595134347_rgbf000044-resize_0/000414_2014-06-04_19-49-13_260595134347_rgbf000044-resize_0-target.png,1000,4.329,14.0,4828,999,feet,jsons/v1_VE1000_randls_46.json,951520,1292242,33,Man
142,143644,DepthScenes,duration_manipulation_targetAtFixation,jsons/v1_VE1000_randls_46.json,http://54.235.29.9/FacialAge/BNav_EC2/DepthDuration/v2_depth_duration_MTurk/v2_DepthDuration_HTML.html#164,164,980,892,360,800,8-29-2022,13-24-36,143,depth_duration_stimuli/003129_2014-05-12_10-48-10_094959634447_rgbf000100-resize_0/003129_2014-05-12_10-48-10_094959634447_rgbf000100-resize_0-target.png,1000,4.9305,10.0,4619,1000,feet,jsons/v1_VE1000_randls_46.json,951520,1292242,33,Man
143,143644,DepthScenes,duration_manipulation_targetAtFixation,jsons/v1_VE1000_randls_46.json,http://54.235.29.9/FacialAge/BNav_EC2/DepthDuration/v2_depth_duration_MTurk/v2_DepthDuration_HTML.html#164,164,980,892,360,800,8-29-2022,13-24-36,144,depth_duration_stimuli/003534_2014-05-22_15-06-10_094959634447_rgbf000102-resize_4/003534_2014-05-22_15-06-10_094959634447_rgbf000102-resize_4-target.png,1000,1.426,1.0,3894,1000,feet,jsons/v1_VE1000_randls_46.json,951520,1292242,33,Man
144,143644,DepthScenes,duration_manipulation_targetAtFixation,jsons/v1_VE1000_randls_46.json,http://54.235.29.9/FacialAge/BNav_EC2/DepthDuration/v2_depth_duration_MTurk/v2_DepthDuration_HTML.html#164,164,980,892,360,800,8-29-2022,13-24-36,145,depth_duration_stimuli/002637_2014-06-24_14-51-13_094959634447_rgbf000066-resize_4/002637_2014-06-24_14-51-13_094959634447_rgbf000066-resize_4-target.png,1000,1.9955,5.0,4235,1000,feet,jsons/v1_VE1000_randls_46.json,951520,1292242,33,Man
145,143644,DepthScenes,duration_manipulation_targetAtFixation,jsons/v1_VE1000_randls_46.json,http://54.235.29.9/FacialAge/BNav_EC2/DepthDuration/v2_depth_duration_MTurk/v2_DepthDuration_HTML.html#164,164,980,892,360,800,8-29-2022,13-24-36,146,depth_duration_stimuli/001498_2014-06-19_17-45-14_260595134347_rgbf000129-resize_4/001498_2014-06-19_17-45-14_260595134347_rgbf000129-resize-original.jpg,1000,1.4075,0.0,3938,1000,feet,jsons/v1_VE1000_randls_46.json,951520,1292242,33,Man
146,143644,DepthScenes,duration_manipulation_targetAtFixation,jsons/v1_VE1000_randls_46.json,http://54.235.29.9/FacialAge/BNav_EC2/DepthDuration/v2_depth_duration_MTurk/v2_DepthDuration_HTML.html#164,164,980,892,360,800,8-29-2022,13-24-36,147,depth_duration_stimuli/001150_2014-06-17_15-27-34_260595134347_rgbf000108-resize_2/001150_2014-06-17_15-27-34_260595134347_rgbf000108-resize_2-target.png,1000,4.0325,8.0,3833,1000,feet,jsons/v1_VE1000_randls_46.json,951520,1292242,33,Man
147,143644,DepthScenes,duration_manipulation_targetAtFixation,jsons/v1_VE1000_randls_46.json,http://54.235.29.9/FacialAge/BNav_EC2/DepthDuration/v2_depth_duration_MTurk/v2_DepthDuration_HTML.html#164,164,980,892,360,800,8-29-2022,13-24-36,148,depth_duration_stimuli/000665_2014-06-09_20-42-35_260595134347_rgbf000110-resize_1/000665_2014-06-09_20-42-35_260595134347_rgbf000110-resize_1-target.png,1000,3.057,5.0,3761,999,feet,jsons/v1_VE1000_randls_46.json,951520,1292242,33,Man
148,143644,DepthScenes,duration_manipulation_targetAtFixation,jsons/v1_VE1000_randls_46.json,http://54.235.29.9/FacialAge/BNav_EC2/DepthDuration/v2_depth_duration_MTurk/v2_DepthDuration_HTML.html#164,164,980,892,360,800,8-29-2022,13-24-36,149,depth_duration_stimuli/000009_2014-05-26_14-32-05_260595134347_rgbf000034-resize_3/000009_2014-05-26_14-32-05_260595134347_rgbf000034-resize_3-target.png,1000,3.8715,12.0,3953,999,feet,jsons/v1_VE1000_randls_46.json,951520,1292242,33,Man
149,143644,DepthScenes,duration_manipulation_targetAtFixation,jsons/v1_VE1000_randls_46.json,http://54.235.29.9/FacialAge/BNav_EC2/DepthDuration/v2_depth_duration_MTurk/v2_DepthDuration_HTML.html#164,164,980,892,360,800,8-29-2022,13-24-36,150,depth_duration_stimuli/001828_2014-06-26_21-40-03_260595134347_rgbf000024-resize_0/001828_2014-06-26_21-40-03_260595134347_rgbf000024-resize_0-target.png,1000,4.8260000000000005,13.0,4297,999,feet,jsons/v1_VE1000_randls_46.json,951520,1292242,33,Man
150,143644,DepthScenes,duration_manipulation_targetAtFixation,jsons/v1_VE1000_randls_46.json,http://54.235.29.9/FacialAge/BNav_EC2/DepthDuration/v2_depth_duration_MTurk/v2_DepthDuration_HTML.html#164,164,980,892,360,800,8-29-2022,13-24-36,151,depth_duration_stimuli/001810_2014-06-26_20-51-35_260595134347_rgbf000040-resize_3/001810_2014-06-26_20-51-35_260595134347_rgbf000040-resize_3-target.png,1000,2.2525,6.0,3630,998,feet,jsons/v1_VE1000_randls_46.json,951520,1292242,33,Man
151,143644,DepthScenes,duration_manipulation_targetAtFixation,jsons/v1_VE1000_randls_46.json,http://54.235.29.9/FacialAge/BNav_EC2/DepthDuration/v2_depth_duration_MTurk/v2_DepthDuration_HTML.html#164,164,980,892,360,800,8-29-2022,13-24-36,152,depth_duration_stimuli/003010_2014-06-15_12-54-35_094959634447_rgbf000112-resize_0/003010_2014-06-15_12-54-35_094959634447_rgbf000112-resize_0-target.png,1000,3.1185,8.0,3722,998,feet,jsons/v1_VE1000_randls_46.json,951520,1292242,33,Man
152,143644,DepthScenes,duration_manipulation_targetAtFixation,jsons/v1_VE1000_randls_46.json,http://54.235.29.9/FacialAge/BNav_EC2/DepthDuration/v2_depth_duration_MTurk/v2_DepthDuration_HTML.html#164,164,980,892,360,800,8-29-2022,13-24-36,153,depth_duration_stimuli/000493_2014-06-09_21-01-18_260595134347_rgbf000196-resize_3/000493_2014-06-09_21-01-18_260595134347_rgbf000196-resize_3-target.png,1000,3.44,8.0,3717,999,feet,jsons/v1_VE1000_randls_46.json,951520,1292242,33,Man
153,143644,DepthScenes,duration_manipulation_targetAtFixation,jsons/v1_VE1000_randls_46.json,http://54.235.29.9/FacialAge/BNav_EC2/DepthDuration/v2_depth_duration_MTurk/v2_DepthDuration_HTML.html#164,164,980,892,360,800,8-29-2022,13-24-36,154,depth_duration_stimuli/000191_2014-05-12_17-07-38_260595134347_rgbf000199-resize_0/000191_2014-05-12_17-07-38_260595134347_rgbf000199-resize_0-target.png,1000,3.7995,11.0,5664,995,feet,jsons/v1_VE1000_randls_46.json,951520,1292242,33,Man
154,143644,DepthScenes,duration_manipulation_targetAtFixation,jsons/v1_VE1000_randls_46.json,http://54.235.29.9/FacialAge/BNav_EC2/DepthDuration/v2_depth_duration_MTurk/v2_DepthDuration_HTML.html#164,164,980,892,360,800,8-29-2022,13-24-36,155,depth_duration_stimuli/003621_2014-05-23_18-06-08_094959634447_rgbf000101-resize_1/003621_2014-05-23_18-06-08_094959634447_rgbf000101-resize_1-target.png,1000,3.9835,8.0,4321,1000,feet,jsons/v1_VE1000_randls_46.json,951520,1292242,33,Man
155,143644,DepthScenes,duration_manipulation_targetAtFixation,jsons/v1_VE1000_randls_46.json,http://54.235.29.9/FacialAge/BNav_EC2/DepthDuration/v2_depth_duration_MTurk/v2_DepthDuration_HTML.html#164,164,980,892,360,800,8-29-2022,13-24-36,156,depth_duration_stimuli/001584_2014-06-20_11-07-43_260595134347_rgbf000002-resize_1/001584_2014-06-20_11-07-43_260595134347_rgbf000002-resize_1-target.png,1000,3.53,8.0,3773,998,feet,jsons/v1_VE1000_randls_46.json,951520,1292242,33,Man
156,143644,DepthScenes,duration_manipulation_targetAtFixation,jsons/v1_VE1000_randls_46.json,http://54.235.29.9/FacialAge/BNav_EC2/DepthDuration/v2_depth_duration_MTurk/v2_DepthDuration_HTML.html#164,164,980,892,360,800,8-29-2022,13-24-36,157,depth_duration_stimuli/002748_2014-06-22_19-07-22_094959634447_rgbf000078-resize_1/002748_2014-06-22_19-07-22_094959634447_rgbf000078-resize_1-target.png,1000,4.6705,10.0,6822,999,feet,jsons/v1_VE1000_randls_46.json,951520,1292242,33,Man
157,143644,DepthScenes,duration_manipulation_targetAtFixation,jsons/v1_VE1000_randls_46.json,http://54.235.29.9/FacialAge/BNav_EC2/DepthDuration/v2_depth_duration_MTurk/v2_DepthDuration_HTML.html#164,164,980,892,360,800,8-29-2022,13-24-36,158,depth_duration_stimuli/002995_2014-06-15_12-31-26_094959634447_rgbf000150-resize_1/002995_2014-06-15_12-31-26_094959634447_rgbf000150-resize_1-target.png,1000,3.8360000000000003,11.0,3878,999,feet,jsons/v1_VE1000_randls_46.json,951520,1292242,33,Man
158,143644,DepthScenes,duration_manipulation_targetAtFixation,jsons/v1_VE1000_randls_46.json,http://54.235.29.9/FacialAge/BNav_EC2/DepthDuration/v2_depth_duration_MTurk/v2_DepthDuration_HTML.html#164,164,980,892,360,800,8-29-2022,13-24-36,159,depth_duration_stimuli/001570_2014-06-20_17-21-09_260595134347_rgbf000135-resize_4/001570_2014-06-20_17-21-09_260595134347_rgbf000135-resize_4-target.png,1000,4.467,10.0,4132,1000,feet,jsons/v1_VE1000_randls_46.json,951520,1292242,33,Man
159,143644,DepthScenes,duration_manipulation_targetAtFixation,jsons/v1_VE1000_randls_46.json,http://54.235.29.9/FacialAge/BNav_EC2/DepthDuration/v2_depth_duration_MTurk/v2_DepthDuration_HTML.html#164,164,980,892,360,800,8-29-2022,13-24-36,160,depth_duration_stimuli/001392_2014-06-19_16-07-59_260595134347_rgbf000046-resize_1/001392_2014-06-19_16-07-59_260595134347_rgbf000046-resize_1-target.png,1000,4.135,12.0,4657,999,feet,jsons/v1_VE1000_randls_46.json,951520,1292242,33,Man
160,143644,DepthScenes,duration_manipulation_targetAtFixation,jsons/v1_VE1000_randls_46.json,http://54.235.29.9/FacialAge/BNav_EC2/DepthDuration/v2_depth_duration_MTurk/v2_DepthDuration_HTML.html#164,164,980,892,360,800,8-29-2022,13-24-36,161,depth_duration_stimuli/001449_2014-06-19_17-01-27_260595134347_rgbf000116-resize_2/001449_2014-06-19_17-01-27_260595134347_rgbf000116-resize_2-target.png,1000,3.452,5.0,3675,1000,feet,jsons/v1_VE1000_randls_46.json,951520,1292242,33,Man
161,143644,DepthScenes,duration_manipulation_targetAtFixation,jsons/v1_VE1000_randls_46.json,http://54.235.29.9/FacialAge/BNav_EC2/DepthDuration/v2_depth_duration_MTurk/v2_DepthDuration_HTML.html#164,164,980,892,360,800,8-29-2022,13-24-36,162,depth_duration_stimuli/001450_2014-06-19_17-02-03_260595134347_rgbf000203-resize_4/001450_2014-06-19_17-02-03_260595134347_rgbf000203-resize_4-target.png,1000,4.0106666666667,9.0,6438,999,feet,jsons/v1_VE1000_randls_46.json,951520,1292242,33,Man
162,143644,DepthScenes,duration_manipulation_targetAtFixation,jsons/v1_VE1000_randls_46.json,http://54.235.29.9/FacialAge/BNav_EC2/DepthDuration/v2_depth_duration_MTurk/v2_DepthDuration_HTML.html#164,164,980,892,360,800,8-29-2022,13-24-36,163,depth_duration_stimuli/002153_2014-06-25_21-27-18_260595134347_rgbf000038-resize_5/002153_2014-06-25_21-27-18_260595134347_rgbf000038-resize_5-target.png,1000,2.505,3.0,3610,999,feet,jsons/v1_VE1000_randls_46.json,951520,1292242,33,Man
163,143644,DepthScenes,duration_manipulation_targetAtFixation,jsons/v1_VE1000_randls_46.json,http://54.235.29.9/FacialAge/BNav_EC2/DepthDuration/v2_depth_duration_MTurk/v2_DepthDuration_HTML.html#164,164,980,892,360,800,8-29-2022,13-24-36,164,depth_duration_stimuli/002660_2014-06-13_15-44-18_094959634447_rgbf001878-resize_2/002660_2014-06-13_15-44-18_094959634447_rgbf001878-resize_2-target.png,1000,3.576,5.0,3658,999,feet,jsons/v1_VE1000_randls_46.json,951520,1292242,33,Man
