,subjID,experimentName,versionName,sequenceName,url,selected_row,windowWidth,windowHeight,screenWidth,screenHeight,startDate,startTime,trial,stimulus,duration,actual_depth,depth_estimate,trial_RT,log_sceneDuration,unitSelection,seq_filepath,experimentTime,totalTime,age,gender
0,143952,DepthScenes,duration_manipulation_targetAtFixation,jsons/v1_VE1000_randls_26.json,http://54.235.29.9/FacialAge/BNav_EC2/DepthDuration/v2_depth_duration_MTurk/v2_DepthDuration_HTML.html#74,74,1364,768,1364,768,8-22-2022,5-6-11,1,depth_duration_stimuli/000810_2014-06-08_17-20-01_260595134347_rgbf000105-resize_0/000810_2014-06-08_17-20-01_260595134347_rgbf000105-resize_0-target.png,1000,1.4865,25,6964,999,meters,jsons/v1_VE1000_randls_26.json,957545,3093554,30,Woman
1,143952,DepthScenes,duration_manipulation_targetAtFixation,jsons/v1_VE1000_randls_26.json,http://54.235.29.9/FacialAge/BNav_EC2/DepthDuration/v2_depth_duration_MTurk/v2_DepthDuration_HTML.html#74,74,1364,768,1364,768,8-22-2022,5-6-11,2,depth_duration_stimuli/001214_2014-06-17_16-13-55_260595134347_rgbf000111-resize_0/001214_2014-06-17_16-13-55_260595134347_rgbf000111-resize_0-target.png,1000,2.6505,20,6138,1000,meters,jsons/v1_VE1000_randls_26.json,957545,3093554,30,Woman
2,143952,DepthScenes,duration_manipulation_targetAtFixation,jsons/v1_VE1000_randls_26.json,http://54.235.29.9/FacialAge/BNav_EC2/DepthDuration/v2_depth_duration_MTurk/v2_DepthDuration_HTML.html#74,74,1364,768,1364,768,8-22-2022,5-6-11,3,depth_duration_stimuli/002213_2014-06-28_18-37-58_260595134347_rgbf000055-resize_1/002213_2014-06-28_18-37-58_260595134347_rgbf000055-resize_1-target.png,1000,3.62,30,8782,1000,meters,jsons/v1_VE1000_randls_26.json,957545,3093554,30,Woman
3,143952,DepthScenes,duration_manipulation_targetAtFixation,jsons/v1_VE1000_randls_26.json,http://54.235.29.9/FacialAge/BNav_EC2/DepthDuration/v2_depth_duration_MTurk/v2_DepthDuration_HTML.html#74,74,1364,768,1364,768,8-22-2022,5-6-11,4,depth_duration_stimuli/000691_2014-06-08_13-08-50_260595134347_rgbf000132-resize_3/000691_2014-06-08_13-08-50_260595134347_rgbf000132-resize_3-target.png,1000,4.1530000000000005,30,4531,999,meters,jsons/v1_VE1000_randls_26.json,957545,3093554,30,Woman
4,143952,DepthScenes,duration_manipulation_targetAtFixation,jsons/v1_VE1000_randls_26.json,http://54.235.29.9/FacialAge/BNav_EC2/DepthDuration/v2_depth_duration_MTurk/v2_DepthDuration_HTML.html#74,74,1364,768,1364,768,8-22-2022,5-6-11,5,depth_duration_stimuli/002989_2014-06-15_12-25-03_094959634447_rgbf000150-resize_3/002989_2014-06-15_12-25-03_094959634447_rgbf000150-resize_3-target.png,1000,4.1975,30,9999,999,meters,jsons/v1_VE1000_randls_26.json,957545,3093554,30,Woman
5,143952,DepthScenes,duration_manipulation_targetAtFixation,jsons/v1_VE1000_randls_26.json,http://54.235.29.9/FacialAge/BNav_EC2/DepthDuration/v2_depth_duration_MTurk/v2_DepthDuration_HTML.html#74,74,1364,768,1364,768,8-22-2022,5-6-11,6,depth_duration_stimuli/000866_2014-06-09_20-45-42_260595134347_rgbf000139-resize_1/000866_2014-06-09_20-45-42_260595134347_rgbf000139-resize_1-target.png,1000,3.2155,30,4260,1001,meters,jsons/v1_VE1000_randls_26.json,957545,3093554,30,Woman
6,143952,DepthScenes,duration_manipulation_targetAtFixation,jsons/v1_VE1000_randls_26.json,http://54.235.29.9/FacialAge/BNav_EC2/DepthDuration/v2_depth_duration_MTurk/v2_DepthDuration_HTML.html#74,74,1364,768,1364,768,8-22-2022,5-6-11,7,depth_duration_stimuli/002043_2014-06-24_20-29-38_260595134347_rgbf000039-resize_4/002043_2014-06-24_20-29-38_260595134347_rgbf000039-resize_4-target.png,1000,2.8435,30,6988,1000,meters,jsons/v1_VE1000_randls_26.json,957545,3093554,30,Woman
7,143952,DepthScenes,duration_manipulation_targetAtFixation,jsons/v1_VE1000_randls_26.json,http://54.235.29.9/FacialAge/BNav_EC2/DepthDuration/v2_depth_duration_MTurk/v2_DepthDuration_HTML.html#74,74,1364,768,1364,768,8-22-2022,5-6-11,8,depth_duration_stimuli/003048_2014-06-15_13-49-43_094959634447_rgbf000150-resize_1/003048_2014-06-15_13-49-43_094959634447_rgbf000150-resize_1-target.png,1000,4.0035,35,4543,1001,meters,jsons/v1_VE1000_randls_26.json,957545,3093554,30,Woman
8,143952,DepthScenes,duration_manipulation_targetAtFixation,jsons/v1_VE1000_randls_26.json,http://54.235.29.9/FacialAge/BNav_EC2/DepthDuration/v2_depth_duration_MTurk/v2_DepthDuration_HTML.html#74,74,1364,768,1364,768,8-22-2022,5-6-11,9,depth_duration_stimuli/001110_2014-06-15_17-25-28_260595134347_rgbf000150-resize_1/001110_2014-06-15_17-25-28_260595134347_rgbf000150-resize_1-target.png,1000,1.7115,25,6187,998,meters,jsons/v1_VE1000_randls_26.json,957545,3093554,30,Woman
9,143952,DepthScenes,duration_manipulation_targetAtFixation,jsons/v1_VE1000_randls_26.json,http://54.235.29.9/FacialAge/BNav_EC2/DepthDuration/v2_depth_duration_MTurk/v2_DepthDuration_HTML.html#74,74,1364,768,1364,768,8-22-2022,5-6-11,10,depth_duration_stimuli/000927_2014-06-09_16-32-30_260595134347_rgbf000123-resize_3/000927_2014-06-09_16-32-30_260595134347_rgbf000123-resize_3-target.png,1000,2.6785,30,3939,1000,meters,jsons/v1_VE1000_randls_26.json,957545,3093554,30,Woman
10,143952,DepthScenes,duration_manipulation_targetAtFixation,jsons/v1_VE1000_randls_26.json,http://54.235.29.9/FacialAge/BNav_EC2/DepthDuration/v2_depth_duration_MTurk/v2_DepthDuration_HTML.html#74,74,1364,768,1364,768,8-22-2022,5-6-11,11,depth_duration_stimuli/000436_2014-06-09_22-25-11_260595134347_rgbf000137-resize_1/000436_2014-06-09_22-25-11_260595134347_rgbf000137-resize_1-target.png,1000,4.0705,30,6278,999,meters,jsons/v1_VE1000_randls_26.json,957545,3093554,30,Woman
11,143952,DepthScenes,duration_manipulation_targetAtFixation,jsons/v1_VE1000_randls_26.json,http://54.235.29.9/FacialAge/BNav_EC2/DepthDuration/v2_depth_duration_MTurk/v2_DepthDuration_HTML.html#74,74,1364,768,1364,768,8-22-2022,5-6-11,12,depth_duration_stimuli/002444_2014-06-28_20-32-08_260595134347_rgbf000027-resize_0/002444_2014-06-28_20-32-08_260595134347_rgbf000027-resize_0-target.png,1000,4.388999999999999,30,4035,1000,meters,jsons/v1_VE1000_randls_26.json,957545,3093554,30,Woman
12,143952,DepthScenes,duration_manipulation_targetAtFixation,jsons/v1_VE1000_randls_26.json,http://54.235.29.9/FacialAge/BNav_EC2/DepthDuration/v2_depth_duration_MTurk/v2_DepthDuration_HTML.html#74,74,1364,768,1364,768,8-22-2022,5-6-11,13,depth_duration_stimuli/000569_2014-06-09_22-51-47_260595134347_rgbf000141-resize_3/000569_2014-06-09_22-51-47_260595134347_rgbf000141-resize-original.jpg,1000,4.512,0,5798,998,meters,jsons/v1_VE1000_randls_26.json,957545,3093554,30,Woman
13,143952,DepthScenes,duration_manipulation_targetAtFixation,jsons/v1_VE1000_randls_26.json,http://54.235.29.9/FacialAge/BNav_EC2/DepthDuration/v2_depth_duration_MTurk/v2_DepthDuration_HTML.html#74,74,1364,768,1364,768,8-22-2022,5-6-11,14,depth_duration_stimuli/000493_2014-06-09_21-01-18_260595134347_rgbf000196-resize_3/000493_2014-06-09_21-01-18_260595134347_rgbf000196-resize_3-target.png,1000,3.44,30,6836,999,meters,jsons/v1_VE1000_randls_26.json,957545,3093554,30,Woman
14,143952,DepthScenes,duration_manipulation_targetAtFixation,jsons/v1_VE1000_randls_26.json,http://54.235.29.9/FacialAge/BNav_EC2/DepthDuration/v2_depth_duration_MTurk/v2_DepthDuration_HTML.html#74,74,1364,768,1364,768,8-22-2022,5-6-11,15,depth_duration_stimuli/000191_2014-05-12_17-07-38_260595134347_rgbf000199-resize_0/000191_2014-05-12_17-07-38_260595134347_rgbf000199-resize_0-target.png,1000,3.7995,30,3859,1001,meters,jsons/v1_VE1000_randls_26.json,957545,3093554,30,Woman
15,143952,DepthScenes,duration_manipulation_targetAtFixation,jsons/v1_VE1000_randls_26.json,http://54.235.29.9/FacialAge/BNav_EC2/DepthDuration/v2_depth_duration_MTurk/v2_DepthDuration_HTML.html#74,74,1364,768,1364,768,8-22-2022,5-6-11,16,depth_duration_stimuli/000878_2014-06-08_22-52-45_260595134347_rgbf000045-resize_2/000878_2014-06-08_22-52-45_260595134347_rgbf000045-resize_2-target.png,1000,2.092,30,5715,1000,meters,jsons/v1_VE1000_randls_26.json,957545,3093554,30,Woman
16,143952,DepthScenes,duration_manipulation_targetAtFixation,jsons/v1_VE1000_randls_26.json,http://54.235.29.9/FacialAge/BNav_EC2/DepthDuration/v2_depth_duration_MTurk/v2_DepthDuration_HTML.html#74,74,1364,768,1364,768,8-22-2022,5-6-11,17,depth_duration_stimuli/002953_2014-06-08_17-32-18_094959634447_rgbf000059-resize_5/002953_2014-06-08_17-32-18_094959634447_rgbf000059-resize_5-target.png,1000,1.551,25,4535,999,meters,jsons/v1_VE1000_randls_26.json,957545,3093554,30,Woman
17,143952,DepthScenes,duration_manipulation_targetAtFixation,jsons/v1_VE1000_randls_26.json,http://54.235.29.9/FacialAge/BNav_EC2/DepthDuration/v2_depth_duration_MTurk/v2_DepthDuration_HTML.html#74,74,1364,768,1364,768,8-22-2022,5-6-11,18,depth_duration_stimuli/000929_2014-06-09_16-33-19_260595134347_rgbf000139-resize_0/000929_2014-06-09_16-33-19_260595134347_rgbf000139-resize_0-target.png,1000,2.8680000000000003,25,5085,999,meters,jsons/v1_VE1000_randls_26.json,957545,3093554,30,Woman
18,143952,DepthScenes,duration_manipulation_targetAtFixation,jsons/v1_VE1000_randls_26.json,http://54.235.29.9/FacialAge/BNav_EC2/DepthDuration/v2_depth_duration_MTurk/v2_DepthDuration_HTML.html#74,74,1364,768,1364,768,8-22-2022,5-6-11,19,depth_duration_stimuli/000457_2014-06-08_16-52-43_260595134347_rgbf000199-resize_1/000457_2014-06-08_16-52-43_260595134347_rgbf000199-resize_1-target.png,1000,3.6489999999999996,30,3855,997,meters,jsons/v1_VE1000_randls_26.json,957545,3093554,30,Woman
19,143952,DepthScenes,duration_manipulation_targetAtFixation,jsons/v1_VE1000_randls_26.json,http://54.235.29.9/FacialAge/BNav_EC2/DepthDuration/v2_depth_duration_MTurk/v2_DepthDuration_HTML.html#74,74,1364,768,1364,768,8-22-2022,5-6-11,20,depth_duration_stimuli/002630_2014-06-24_14-47-50_094959634447_rgbf000055-resize_1/002630_2014-06-24_14-47-50_094959634447_rgbf000055-resize_1-target.png,1000,3.0095,30,5432,1000,meters,jsons/v1_VE1000_randls_26.json,957545,3093554,30,Woman
20,143952,DepthScenes,duration_manipulation_targetAtFixation,jsons/v1_VE1000_randls_26.json,http://54.235.29.9/FacialAge/BNav_EC2/DepthDuration/v2_depth_duration_MTurk/v2_DepthDuration_HTML.html#74,74,1364,768,1364,768,8-22-2022,5-6-11,21,depth_duration_stimuli/002758_2014-06-22_19-11-20_094959634447_rgbf000128-resize_1/002758_2014-06-22_19-11-20_094959634447_rgbf000128-resize_1-target.png,1000,2.555,25,4109,999,meters,jsons/v1_VE1000_randls_26.json,957545,3093554,30,Woman
21,143952,DepthScenes,duration_manipulation_targetAtFixation,jsons/v1_VE1000_randls_26.json,http://54.235.29.9/FacialAge/BNav_EC2/DepthDuration/v2_depth_duration_MTurk/v2_DepthDuration_HTML.html#74,74,1364,768,1364,768,8-22-2022,5-6-11,22,depth_duration_stimuli/000368_2014-06-09_15-53-01_260595134347_rgbf000155-resize_2/000368_2014-06-09_15-53-01_260595134347_rgbf000155-resize_2-target.png,1000,2.4859999999999998,20,4889,1001,meters,jsons/v1_VE1000_randls_26.json,957545,3093554,30,Woman
22,143952,DepthScenes,duration_manipulation_targetAtFixation,jsons/v1_VE1000_randls_26.json,http://54.235.29.9/FacialAge/BNav_EC2/DepthDuration/v2_depth_duration_MTurk/v2_DepthDuration_HTML.html#74,74,1364,768,1364,768,8-22-2022,5-6-11,23,depth_duration_stimuli/002678_2014-06-13_16-15-32_094959634447_rgbf000151-resize_6/002678_2014-06-13_16-15-32_094959634447_rgbf000151-resize_6-target.png,1000,2.1830000000000003,30,3727,1000,meters,jsons/v1_VE1000_randls_26.json,957545,3093554,30,Woman
23,143952,DepthScenes,duration_manipulation_targetAtFixation,jsons/v1_VE1000_randls_26.json,http://54.235.29.9/FacialAge/BNav_EC2/DepthDuration/v2_depth_duration_MTurk/v2_DepthDuration_HTML.html#74,74,1364,768,1364,768,8-22-2022,5-6-11,24,depth_duration_stimuli/002784_2014-06-22_19-26-30_094959634447_rgbf000083-resize_3/002784_2014-06-22_19-26-30_094959634447_rgbf000083-resize_3-target.png,1000,1.8046666666667,20,7154,1000,meters,jsons/v1_VE1000_randls_26.json,957545,3093554,30,Woman
24,143952,DepthScenes,duration_manipulation_targetAtFixation,jsons/v1_VE1000_randls_26.json,http://54.235.29.9/FacialAge/BNav_EC2/DepthDuration/v2_depth_duration_MTurk/v2_DepthDuration_HTML.html#74,74,1364,768,1364,768,8-22-2022,5-6-11,25,depth_duration_stimuli/001100_2014-06-15_17-46-26_260595134347_rgbf000225-resize_2/001100_2014-06-15_17-46-26_260595134347_rgbf000225-resize_2-target.png,1000,2.24,20,4070,999,meters,jsons/v1_VE1000_randls_26.json,957545,3093554,30,Woman
25,143952,DepthScenes,duration_manipulation_targetAtFixation,jsons/v1_VE1000_randls_26.json,http://54.235.29.9/FacialAge/BNav_EC2/DepthDuration/v2_depth_duration_MTurk/v2_DepthDuration_HTML.html#74,74,1364,768,1364,768,8-22-2022,5-6-11,26,depth_duration_stimuli/001150_2014-06-17_15-27-34_260595134347_rgbf000108-resize_2/001150_2014-06-17_15-27-34_260595134347_rgbf000108-resize_2-target.png,1000,4.0325,30,5763,997,meters,jsons/v1_VE1000_randls_26.json,957545,3093554,30,Woman
26,143952,DepthScenes,duration_manipulation_targetAtFixation,jsons/v1_VE1000_randls_26.json,http://54.235.29.9/FacialAge/BNav_EC2/DepthDuration/v2_depth_duration_MTurk/v2_DepthDuration_HTML.html#74,74,1364,768,1364,768,8-22-2022,5-6-11,27,depth_duration_stimuli/000665_2014-06-09_20-42-35_260595134347_rgbf000110-resize_1/000665_2014-06-09_20-42-35_260595134347_rgbf000110-resize_1-target.png,1000,3.057,25,3874,1000,meters,jsons/v1_VE1000_randls_26.json,957545,3093554,30,Woman
27,143952,DepthScenes,duration_manipulation_targetAtFixation,jsons/v1_VE1000_randls_26.json,http://54.235.29.9/FacialAge/BNav_EC2/DepthDuration/v2_depth_duration_MTurk/v2_DepthDuration_HTML.html#74,74,1364,768,1364,768,8-22-2022,5-6-11,28,depth_duration_stimuli/001158_2014-06-17_15-32-16_260595134347_rgbf000138-resize_2/001158_2014-06-17_15-32-16_260595134347_rgbf000138-resize_2-target.png,1000,4.5315,30,5548,1000,meters,jsons/v1_VE1000_randls_26.json,957545,3093554,30,Woman
28,143952,DepthScenes,duration_manipulation_targetAtFixation,jsons/v1_VE1000_randls_26.json,http://54.235.29.9/FacialAge/BNav_EC2/DepthDuration/v2_depth_duration_MTurk/v2_DepthDuration_HTML.html#74,74,1364,768,1364,768,8-22-2022,5-6-11,29,depth_duration_stimuli/000556_2014-06-09_22-42-56_260595134347_rgbf000214-resize_1/000556_2014-06-09_22-42-56_260595134347_rgbf000214-resize_1-target.png,1000,4.8415,25,5898,1002,meters,jsons/v1_VE1000_randls_26.json,957545,3093554,30,Woman
29,143952,DepthScenes,duration_manipulation_targetAtFixation,jsons/v1_VE1000_randls_26.json,http://54.235.29.9/FacialAge/BNav_EC2/DepthDuration/v2_depth_duration_MTurk/v2_DepthDuration_HTML.html#74,74,1364,768,1364,768,8-22-2022,5-6-11,30,depth_duration_stimuli/000375_2014-06-08_11-17-29_260595134347_rgbf000133-resize_2/000375_2014-06-08_11-17-29_260595134347_rgbf000133-resize-original.jpg,1000,4.718,0,5089,999,meters,jsons/v1_VE1000_randls_26.json,957545,3093554,30,Woman
30,143952,DepthScenes,duration_manipulation_targetAtFixation,jsons/v1_VE1000_randls_26.json,http://54.235.29.9/FacialAge/BNav_EC2/DepthDuration/v2_depth_duration_MTurk/v2_DepthDuration_HTML.html#74,74,1364,768,1364,768,8-22-2022,5-6-11,31,depth_duration_stimuli/002445_2014-06-28_20-32-16_260595134347_rgbf000029-resize_4/002445_2014-06-28_20-32-16_260595134347_rgbf000029-resize_4-target.png,1000,2.5315,20,9180,998,meters,jsons/v1_VE1000_randls_26.json,957545,3093554,30,Woman
31,143952,DepthScenes,duration_manipulation_targetAtFixation,jsons/v1_VE1000_randls_26.json,http://54.235.29.9/FacialAge/BNav_EC2/DepthDuration/v2_depth_duration_MTurk/v2_DepthDuration_HTML.html#74,74,1364,768,1364,768,8-22-2022,5-6-11,32,depth_duration_stimuli/000780_2014-06-08_22-28-29_260595134347_rgbf000126-resize_1/000780_2014-06-08_22-28-29_260595134347_rgbf000126-resize_1-target.png,1000,3.3825,25,3850,1000,meters,jsons/v1_VE1000_randls_26.json,957545,3093554,30,Woman
32,143952,DepthScenes,duration_manipulation_targetAtFixation,jsons/v1_VE1000_randls_26.json,http://54.235.29.9/FacialAge/BNav_EC2/DepthDuration/v2_depth_duration_MTurk/v2_DepthDuration_HTML.html#74,74,1364,768,1364,768,8-22-2022,5-6-11,33,depth_duration_stimuli/002788_2014-06-22_19-36-03_094959634447_rgbf000088-resize_2/002788_2014-06-22_19-36-03_094959634447_rgbf000088-resize_2-target.png,1000,1.6465,30,5465,1005,meters,jsons/v1_VE1000_randls_26.json,957545,3093554,30,Woman
33,143952,DepthScenes,duration_manipulation_targetAtFixation,jsons/v1_VE1000_randls_26.json,http://54.235.29.9/FacialAge/BNav_EC2/DepthDuration/v2_depth_duration_MTurk/v2_DepthDuration_HTML.html#74,74,1364,768,1364,768,8-22-2022,5-6-11,34,depth_duration_stimuli/000749_2014-06-08_21-55-06_260595134347_rgbf000070-resize_2/000749_2014-06-08_21-55-06_260595134347_rgbf000070-resize_2-target.png,1000,2.331,25,3918,999,meters,jsons/v1_VE1000_randls_26.json,957545,3093554,30,Woman
34,143952,DepthScenes,duration_manipulation_targetAtFixation,jsons/v1_VE1000_randls_26.json,http://54.235.29.9/FacialAge/BNav_EC2/DepthDuration/v2_depth_duration_MTurk/v2_DepthDuration_HTML.html#74,74,1364,768,1364,768,8-22-2022,5-6-11,35,depth_duration_stimuli/002057_2014-06-24_21-00-13_260595134347_rgbf000120-resize_1/002057_2014-06-24_21-00-13_260595134347_rgbf000120-resize_1-target.png,1000,2.967,30,5117,996,meters,jsons/v1_VE1000_randls_26.json,957545,3093554,30,Woman
35,143952,DepthScenes,duration_manipulation_targetAtFixation,jsons/v1_VE1000_randls_26.json,http://54.235.29.9/FacialAge/BNav_EC2/DepthDuration/v2_depth_duration_MTurk/v2_DepthDuration_HTML.html#74,74,1364,768,1364,768,8-22-2022,5-6-11,36,depth_duration_stimuli/000709_2014-06-08_13-51-55_260595134347_rgbf000068-resize_3/000709_2014-06-08_13-51-55_260595134347_rgbf000068-resize_3-target.png,1000,1.8030000000000002,30,4072,999,meters,jsons/v1_VE1000_randls_26.json,957545,3093554,30,Woman
36,143952,DepthScenes,duration_manipulation_targetAtFixation,jsons/v1_VE1000_randls_26.json,http://54.235.29.9/FacialAge/BNav_EC2/DepthDuration/v2_depth_duration_MTurk/v2_DepthDuration_HTML.html#74,74,1364,768,1364,768,8-22-2022,5-6-11,37,depth_duration_stimuli/000906_2014-06-08_13-35-43_260595134347_rgbf000155-resize_1/000906_2014-06-08_13-35-43_260595134347_rgbf000155-resize_1-target.png,1000,2.8489999999999998,30,11355,998,meters,jsons/v1_VE1000_randls_26.json,957545,3093554,30,Woman
37,143952,DepthScenes,duration_manipulation_targetAtFixation,jsons/v1_VE1000_randls_26.json,http://54.235.29.9/FacialAge/BNav_EC2/DepthDuration/v2_depth_duration_MTurk/v2_DepthDuration_HTML.html#74,74,1364,768,1364,768,8-22-2022,5-6-11,38,depth_duration_stimuli/002805_2014-06-22_19-54-03_094959634447_rgbf000079-resize_1/002805_2014-06-22_19-54-03_094959634447_rgbf000079-resize_1-target.png,1000,3.1439999999999997,25,3976,997,meters,jsons/v1_VE1000_randls_26.json,957545,3093554,30,Woman
38,143952,DepthScenes,duration_manipulation_targetAtFixation,jsons/v1_VE1000_randls_26.json,http://54.235.29.9/FacialAge/BNav_EC2/DepthDuration/v2_depth_duration_MTurk/v2_DepthDuration_HTML.html#74,74,1364,768,1364,768,8-22-2022,5-6-11,39,depth_duration_stimuli/002725_2014-06-22_11-47-51_094959634447_rgbf000070-resize_1/002725_2014-06-22_11-47-51_094959634447_rgbf000070-resize_1-target.png,1000,2.195,30,5901,1001,meters,jsons/v1_VE1000_randls_26.json,957545,3093554,30,Woman
39,143952,DepthScenes,duration_manipulation_targetAtFixation,jsons/v1_VE1000_randls_26.json,http://54.235.29.9/FacialAge/BNav_EC2/DepthDuration/v2_depth_duration_MTurk/v2_DepthDuration_HTML.html#74,74,1364,768,1364,768,8-22-2022,5-6-11,40,depth_duration_stimuli/002344_2014-06-28_20-06-29_260595134347_rgbf000030-resize_1/002344_2014-06-28_20-06-29_260595134347_rgbf000030-resize_1-target.png,1000,1.5795,25,3852,1000,meters,jsons/v1_VE1000_randls_26.json,957545,3093554,30,Woman
40,143952,DepthScenes,duration_manipulation_targetAtFixation,jsons/v1_VE1000_randls_26.json,http://54.235.29.9/FacialAge/BNav_EC2/DepthDuration/v2_depth_duration_MTurk/v2_DepthDuration_HTML.html#74,74,1364,768,1364,768,8-22-2022,5-6-11,41,depth_duration_stimuli/002549_2014-06-24_13-41-39_094959634447_rgbf000022-resize_3/002549_2014-06-24_13-41-39_094959634447_rgbf000022-resize_3-target.png,1000,1.476,20,5957,1006,meters,jsons/v1_VE1000_randls_26.json,957545,3093554,30,Woman
41,143952,DepthScenes,duration_manipulation_targetAtFixation,jsons/v1_VE1000_randls_26.json,http://54.235.29.9/FacialAge/BNav_EC2/DepthDuration/v2_depth_duration_MTurk/v2_DepthDuration_HTML.html#74,74,1364,768,1364,768,8-22-2022,5-6-11,42,depth_duration_stimuli/002750_2014-06-22_19-08-03_094959634447_rgbf000094-resize_4/002750_2014-06-22_19-08-03_094959634447_rgbf000094-resize_4-target.png,1000,2.354,30,4281,1000,meters,jsons/v1_VE1000_randls_26.json,957545,3093554,30,Woman
42,143952,DepthScenes,duration_manipulation_targetAtFixation,jsons/v1_VE1000_randls_26.json,http://54.235.29.9/FacialAge/BNav_EC2/DepthDuration/v2_depth_duration_MTurk/v2_DepthDuration_HTML.html#74,74,1364,768,1364,768,8-22-2022,5-6-11,43,depth_duration_stimuli/003070_2014-06-15_14-58-27_094959634447_rgbf000150-resize_3/003070_2014-06-15_14-58-27_094959634447_rgbf000150-resize_3-target.png,1000,2.9415,30,7849,998,meters,jsons/v1_VE1000_randls_26.json,957545,3093554,30,Woman
43,143952,DepthScenes,duration_manipulation_targetAtFixation,jsons/v1_VE1000_randls_26.json,http://54.235.29.9/FacialAge/BNav_EC2/DepthDuration/v2_depth_duration_MTurk/v2_DepthDuration_HTML.html#74,74,1364,768,1364,768,8-22-2022,5-6-11,44,depth_duration_stimuli/000943_2014-06-09_19-31-07_260595134347_rgbf000128-resize_1/000943_2014-06-09_19-31-07_260595134347_rgbf000128-resize_1-target.png,1000,1.9765,30,4782,999,meters,jsons/v1_VE1000_randls_26.json,957545,3093554,30,Woman
44,143952,DepthScenes,duration_manipulation_targetAtFixation,jsons/v1_VE1000_randls_26.json,http://54.235.29.9/FacialAge/BNav_EC2/DepthDuration/v2_depth_duration_MTurk/v2_DepthDuration_HTML.html#74,74,1364,768,1364,768,8-22-2022,5-6-11,45,depth_duration_stimuli/000787_2014-06-08_22-33-53_260595134347_rgbf000175-resize_1/000787_2014-06-08_22-33-53_260595134347_rgbf000175-resize-original.jpg,1000,4.784,0,8519,999,meters,jsons/v1_VE1000_randls_26.json,957545,3093554,30,Woman
45,143952,DepthScenes,duration_manipulation_targetAtFixation,jsons/v1_VE1000_randls_26.json,http://54.235.29.9/FacialAge/BNav_EC2/DepthDuration/v2_depth_duration_MTurk/v2_DepthDuration_HTML.html#74,74,1364,768,1364,768,8-22-2022,5-6-11,46,depth_duration_stimuli/001555_2014-06-20_17-12-10_260595134347_rgbf000065-resize_4/001555_2014-06-20_17-12-10_260595134347_rgbf000065-resize_4-target.png,1000,1.633,20,8574,1011,meters,jsons/v1_VE1000_randls_26.json,957545,3093554,30,Woman
46,143952,DepthScenes,duration_manipulation_targetAtFixation,jsons/v1_VE1000_randls_26.json,http://54.235.29.9/FacialAge/BNav_EC2/DepthDuration/v2_depth_duration_MTurk/v2_DepthDuration_HTML.html#74,74,1364,768,1364,768,8-22-2022,5-6-11,47,depth_duration_stimuli/000103_2014-05-14_22-01-17_260595134347_rgbf000152-resize_5/000103_2014-05-14_22-01-17_260595134347_rgbf000152-resize_5-target.png,1000,1.993,30,4352,1001,meters,jsons/v1_VE1000_randls_26.json,957545,3093554,30,Woman
47,143952,DepthScenes,duration_manipulation_targetAtFixation,jsons/v1_VE1000_randls_26.json,http://54.235.29.9/FacialAge/BNav_EC2/DepthDuration/v2_depth_duration_MTurk/v2_DepthDuration_HTML.html#74,74,1364,768,1364,768,8-22-2022,5-6-11,48,depth_duration_stimuli/002600_2014-06-24_14-27-04_094959634447_rgbf000074-resize_2/002600_2014-06-24_14-27-04_094959634447_rgbf000074-resize_2-target.png,1000,2.7575,30,9132,999,meters,jsons/v1_VE1000_randls_26.json,957545,3093554,30,Woman
48,143952,DepthScenes,duration_manipulation_targetAtFixation,jsons/v1_VE1000_randls_26.json,http://54.235.29.9/FacialAge/BNav_EC2/DepthDuration/v2_depth_duration_MTurk/v2_DepthDuration_HTML.html#74,74,1364,768,1364,768,8-22-2022,5-6-11,49,depth_duration_stimuli/003228_2014-05-14_13-42-35_094959634447_rgbf000101-resize_1/003228_2014-05-14_13-42-35_094959634447_rgbf000101-resize_1-target.png,1000,1.9680000000000002,25,3779,1000,meters,jsons/v1_VE1000_randls_26.json,957545,3093554,30,Woman
49,143952,DepthScenes,duration_manipulation_targetAtFixation,jsons/v1_VE1000_randls_26.json,http://54.235.29.9/FacialAge/BNav_EC2/DepthDuration/v2_depth_duration_MTurk/v2_DepthDuration_HTML.html#74,74,1364,768,1364,768,8-22-2022,5-6-11,50,depth_duration_stimuli/002663_2014-06-13_15-50-26_094959634447_rgbf000075-resize_1/002663_2014-06-13_15-50-26_094959634447_rgbf000075-resize_1-target.png,1000,4.7495,30,6758,1000,meters,jsons/v1_VE1000_randls_26.json,957545,3093554,30,Woman
50,143952,DepthScenes,duration_manipulation_targetAtFixation,jsons/v1_VE1000_randls_26.json,http://54.235.29.9/FacialAge/BNav_EC2/DepthDuration/v2_depth_duration_MTurk/v2_DepthDuration_HTML.html#74,74,1364,768,1364,768,8-22-2022,5-6-11,51,depth_duration_stimuli/000409_2014-06-04_19-23-33_260595134347_rgbf000067-resize_0/000409_2014-06-04_19-23-33_260595134347_rgbf000067-resize_0-target.png,1000,3.7335,20,7197,997,meters,jsons/v1_VE1000_randls_26.json,957545,3093554,30,Woman
51,143952,DepthScenes,duration_manipulation_targetAtFixation,jsons/v1_VE1000_randls_26.json,http://54.235.29.9/FacialAge/BNav_EC2/DepthDuration/v2_depth_duration_MTurk/v2_DepthDuration_HTML.html#74,74,1364,768,1364,768,8-22-2022,5-6-11,52,depth_duration_stimuli/000788_2014-06-08_22-34-36_260595134347_rgbf000131-resize_1/000788_2014-06-08_22-34-36_260595134347_rgbf000131-resize_1-target.png,1000,3.359,25,5425,1000,meters,jsons/v1_VE1000_randls_26.json,957545,3093554,30,Woman
52,143952,DepthScenes,duration_manipulation_targetAtFixation,jsons/v1_VE1000_randls_26.json,http://54.235.29.9/FacialAge/BNav_EC2/DepthDuration/v2_depth_duration_MTurk/v2_DepthDuration_HTML.html#74,74,1364,768,1364,768,8-22-2022,5-6-11,53,depth_duration_stimuli/001235_2014-06-17_16-37-36_260595134347_rgbf000084-resize_4/001235_2014-06-17_16-37-36_260595134347_rgbf000084-resize_4-target.png,1000,3.6605,30,4408,1000,meters,jsons/v1_VE1000_randls_26.json,957545,3093554,30,Woman
53,143952,DepthScenes,duration_manipulation_targetAtFixation,jsons/v1_VE1000_randls_26.json,http://54.235.29.9/FacialAge/BNav_EC2/DepthDuration/v2_depth_duration_MTurk/v2_DepthDuration_HTML.html#74,74,1364,768,1364,768,8-22-2022,5-6-11,54,depth_duration_stimuli/001810_2014-06-26_20-51-35_260595134347_rgbf000040-resize_3/001810_2014-06-26_20-51-35_260595134347_rgbf000040-resize_3-target.png,1000,2.2525,25,5186,999,meters,jsons/v1_VE1000_randls_26.json,957545,3093554,30,Woman
54,143952,DepthScenes,duration_manipulation_targetAtFixation,jsons/v1_VE1000_randls_26.json,http://54.235.29.9/FacialAge/BNav_EC2/DepthDuration/v2_depth_duration_MTurk/v2_DepthDuration_HTML.html#74,74,1364,768,1364,768,8-22-2022,5-6-11,55,depth_duration_stimuli/003010_2014-06-15_12-54-35_094959634447_rgbf000112-resize_0/003010_2014-06-15_12-54-35_094959634447_rgbf000112-resize_0-target.png,1000,3.1185,30,3726,1014,meters,jsons/v1_VE1000_randls_26.json,957545,3093554,30,Woman
55,143952,DepthScenes,duration_manipulation_targetAtFixation,jsons/v1_VE1000_randls_26.json,http://54.235.29.9/FacialAge/BNav_EC2/DepthDuration/v2_depth_duration_MTurk/v2_DepthDuration_HTML.html#74,74,1364,768,1364,768,8-22-2022,5-6-11,56,depth_duration_stimuli/001570_2014-06-20_17-21-09_260595134347_rgbf000135-resize_4/001570_2014-06-20_17-21-09_260595134347_rgbf000135-resize_4-target.png,1000,4.467,30,5994,1000,meters,jsons/v1_VE1000_randls_26.json,957545,3093554,30,Woman
56,143952,DepthScenes,duration_manipulation_targetAtFixation,jsons/v1_VE1000_randls_26.json,http://54.235.29.9/FacialAge/BNav_EC2/DepthDuration/v2_depth_duration_MTurk/v2_DepthDuration_HTML.html#74,74,1364,768,1364,768,8-22-2022,5-6-11,57,depth_duration_stimuli/001392_2014-06-19_16-07-59_260595134347_rgbf000046-resize_1/001392_2014-06-19_16-07-59_260595134347_rgbf000046-resize_1-target.png,1000,4.135,30,3806,1000,meters,jsons/v1_VE1000_randls_26.json,957545,3093554,30,Woman
57,143952,DepthScenes,duration_manipulation_targetAtFixation,jsons/v1_VE1000_randls_26.json,http://54.235.29.9/FacialAge/BNav_EC2/DepthDuration/v2_depth_duration_MTurk/v2_DepthDuration_HTML.html#74,74,1364,768,1364,768,8-22-2022,5-6-11,58,depth_duration_stimuli/001133_2014-06-17_14-49-16_260595134347_rgbf000100-resize_0/001133_2014-06-17_14-49-16_260595134347_rgbf000100-resize_0-target.png,1000,4.2115,30,5098,999,meters,jsons/v1_VE1000_randls_26.json,957545,3093554,30,Woman
58,143952,DepthScenes,duration_manipulation_targetAtFixation,jsons/v1_VE1000_randls_26.json,http://54.235.29.9/FacialAge/BNav_EC2/DepthDuration/v2_depth_duration_MTurk/v2_DepthDuration_HTML.html#74,74,1364,768,1364,768,8-22-2022,5-6-11,59,depth_duration_stimuli/001132_2014-06-17_14-48-54_260595134347_rgbf000100-resize_2/001132_2014-06-17_14-48-54_260595134347_rgbf000100-resize_2-target.png,1000,3.753,30,3512,999,meters,jsons/v1_VE1000_randls_26.json,957545,3093554,30,Woman
59,143952,DepthScenes,duration_manipulation_targetAtFixation,jsons/v1_VE1000_randls_26.json,http://54.235.29.9/FacialAge/BNav_EC2/DepthDuration/v2_depth_duration_MTurk/v2_DepthDuration_HTML.html#74,74,1364,768,1364,768,8-22-2022,5-6-11,60,depth_duration_stimuli/002118_2014-06-25_20-32-08_260595134347_rgbf000078-resize_1/002118_2014-06-25_20-32-08_260595134347_rgbf000078-resize_1-target.png,1000,2.6460000000000004,25,9106,1000,meters,jsons/v1_VE1000_randls_26.json,957545,3093554,30,Woman
60,143952,DepthScenes,duration_manipulation_targetAtFixation,jsons/v1_VE1000_randls_26.json,http://54.235.29.9/FacialAge/BNav_EC2/DepthDuration/v2_depth_duration_MTurk/v2_DepthDuration_HTML.html#74,74,1364,768,1364,768,8-22-2022,5-6-11,61,depth_duration_stimuli/001516_2014-06-20_16-25-09_260595134347_rgbf000076-resize_2/001516_2014-06-20_16-25-09_260595134347_rgbf000076-resize_2-target.png,1000,1.7445,25,3971,1000,meters,jsons/v1_VE1000_randls_26.json,957545,3093554,30,Woman
61,143952,DepthScenes,duration_manipulation_targetAtFixation,jsons/v1_VE1000_randls_26.json,http://54.235.29.9/FacialAge/BNav_EC2/DepthDuration/v2_depth_duration_MTurk/v2_DepthDuration_HTML.html#74,74,1364,768,1364,768,8-22-2022,5-6-11,62,depth_duration_stimuli/001806_2014-06-26_20-50-20_260595134347_rgbf000091-resize_1/001806_2014-06-26_20-50-20_260595134347_rgbf000091-resize_1-target.png,1000,2.7305,20,5453,999,meters,jsons/v1_VE1000_randls_26.json,957545,3093554,30,Woman
62,143952,DepthScenes,duration_manipulation_targetAtFixation,jsons/v1_VE1000_randls_26.json,http://54.235.29.9/FacialAge/BNav_EC2/DepthDuration/v2_depth_duration_MTurk/v2_DepthDuration_HTML.html#74,74,1364,768,1364,768,8-22-2022,5-6-11,63,depth_duration_stimuli/001617_2014-06-20_11-35-32_260595134347_rgbf000066-resize_1/001617_2014-06-20_11-35-32_260595134347_rgbf000066-resize_1-target.png,1000,3.7910000000000004,30,3763,1000,meters,jsons/v1_VE1000_randls_26.json,957545,3093554,30,Woman
63,143952,DepthScenes,duration_manipulation_targetAtFixation,jsons/v1_VE1000_randls_26.json,http://54.235.29.9/FacialAge/BNav_EC2/DepthDuration/v2_depth_duration_MTurk/v2_DepthDuration_HTML.html#74,74,1364,768,1364,768,8-22-2022,5-6-11,64,depth_duration_stimuli/001066_2014-06-08_22-03-20_260595134347_rgbf000066-resize_4/001066_2014-06-08_22-03-20_260595134347_rgbf000066-resize_4-target.png,1000,4.2330000000000005,30,6434,999,meters,jsons/v1_VE1000_randls_26.json,957545,3093554,30,Woman
64,143952,DepthScenes,duration_manipulation_targetAtFixation,jsons/v1_VE1000_randls_26.json,http://54.235.29.9/FacialAge/BNav_EC2/DepthDuration/v2_depth_duration_MTurk/v2_DepthDuration_HTML.html#74,74,1364,768,1364,768,8-22-2022,5-6-11,65,depth_duration_stimuli/000742_2014-06-08_18-48-09_260595134347_rgbf000164-resize_4/000742_2014-06-08_18-48-09_260595134347_rgbf000164-resize_4-target.png,1000,4.632,25,3670,999,meters,jsons/v1_VE1000_randls_26.json,957545,3093554,30,Woman
65,143952,DepthScenes,duration_manipulation_targetAtFixation,jsons/v1_VE1000_randls_26.json,http://54.235.29.9/FacialAge/BNav_EC2/DepthDuration/v2_depth_duration_MTurk/v2_DepthDuration_HTML.html#74,74,1364,768,1364,768,8-22-2022,5-6-11,66,depth_duration_stimuli/001222_2014-06-17_16-24-06_260595134347_rgbf000073-resize_0/001222_2014-06-17_16-24-06_260595134347_rgbf000073-resize-original.jpg,1000,1.4385,0,6523,1000,meters,jsons/v1_VE1000_randls_26.json,957545,3093554,30,Woman
66,143952,DepthScenes,duration_manipulation_targetAtFixation,jsons/v1_VE1000_randls_26.json,http://54.235.29.9/FacialAge/BNav_EC2/DepthDuration/v2_depth_duration_MTurk/v2_DepthDuration_HTML.html#74,74,1364,768,1364,768,8-22-2022,5-6-11,67,depth_duration_stimuli/001244_2014-06-17_16-47-45_260595134347_rgbf000030-resize_4/001244_2014-06-17_16-47-45_260595134347_rgbf000030-resize_4-target.png,1000,2.0425,30,7398,1000,meters,jsons/v1_VE1000_randls_26.json,957545,3093554,30,Woman
67,143952,DepthScenes,duration_manipulation_targetAtFixation,jsons/v1_VE1000_randls_26.json,http://54.235.29.9/FacialAge/BNav_EC2/DepthDuration/v2_depth_duration_MTurk/v2_DepthDuration_HTML.html#74,74,1364,768,1364,768,8-22-2022,5-6-11,68,depth_duration_stimuli/003495_2014-05-21_16-01-51_094959634447_rgbf000100-resize_3/003495_2014-05-21_16-01-51_094959634447_rgbf000100-resize_3-target.png,1000,1.6255,20,3750,999,meters,jsons/v1_VE1000_randls_26.json,957545,3093554,30,Woman
68,143952,DepthScenes,duration_manipulation_targetAtFixation,jsons/v1_VE1000_randls_26.json,http://54.235.29.9/FacialAge/BNav_EC2/DepthDuration/v2_depth_duration_MTurk/v2_DepthDuration_HTML.html#74,74,1364,768,1364,768,8-22-2022,5-6-11,69,depth_duration_stimuli/000522_2014-06-08_13-35-06_260595134347_rgbf000244-resize_1/000522_2014-06-08_13-35-06_260595134347_rgbf000244-resize_1-target.png,1000,2.3715,20,8620,1000,meters,jsons/v1_VE1000_randls_26.json,957545,3093554,30,Woman
69,143952,DepthScenes,duration_manipulation_targetAtFixation,jsons/v1_VE1000_randls_26.json,http://54.235.29.9/FacialAge/BNav_EC2/DepthDuration/v2_depth_duration_MTurk/v2_DepthDuration_HTML.html#74,74,1364,768,1364,768,8-22-2022,5-6-11,70,depth_duration_stimuli/002949_2014-06-26_15-57-42_094959634447_rgbf000079-resize_1/002949_2014-06-26_15-57-42_094959634447_rgbf000079-resize_1-target.png,1000,1.8915,25,4850,999,meters,jsons/v1_VE1000_randls_26.json,957545,3093554,30,Woman
70,143952,DepthScenes,duration_manipulation_targetAtFixation,jsons/v1_VE1000_randls_26.json,http://54.235.29.9/FacialAge/BNav_EC2/DepthDuration/v2_depth_duration_MTurk/v2_DepthDuration_HTML.html#74,74,1364,768,1364,768,8-22-2022,5-6-11,71,depth_duration_stimuli/001167_2014-06-17_15-38-07_260595134347_rgbf000108-resize_0/001167_2014-06-17_15-38-07_260595134347_rgbf000108-resize_0-target.png,1000,1.8505,20,8063,1000,meters,jsons/v1_VE1000_randls_26.json,957545,3093554,30,Woman
71,143952,DepthScenes,duration_manipulation_targetAtFixation,jsons/v1_VE1000_randls_26.json,http://54.235.29.9/FacialAge/BNav_EC2/DepthDuration/v2_depth_duration_MTurk/v2_DepthDuration_HTML.html#74,74,1364,768,1364,768,8-22-2022,5-6-11,72,depth_duration_stimuli/003587_2014-05-23_16-48-02_094959634447_rgbf002384-resize_2/003587_2014-05-23_16-48-02_094959634447_rgbf002384-resize_2-target.png,1000,1.357,20,3536,1000,meters,jsons/v1_VE1000_randls_26.json,957545,3093554,30,Woman
72,143952,DepthScenes,duration_manipulation_targetAtFixation,jsons/v1_VE1000_randls_26.json,http://54.235.29.9/FacialAge/BNav_EC2/DepthDuration/v2_depth_duration_MTurk/v2_DepthDuration_HTML.html#74,74,1364,768,1364,768,8-22-2022,5-6-11,73,depth_duration_stimuli/000773_2014-06-08_22-24-54_260595134347_rgbf000093-resize_1/000773_2014-06-08_22-24-54_260595134347_rgbf000093-resize_1-target.png,1000,4.973,30,7281,996,meters,jsons/v1_VE1000_randls_26.json,957545,3093554,30,Woman
73,143952,DepthScenes,duration_manipulation_targetAtFixation,jsons/v1_VE1000_randls_26.json,http://54.235.29.9/FacialAge/BNav_EC2/DepthDuration/v2_depth_duration_MTurk/v2_DepthDuration_HTML.html#74,74,1364,768,1364,768,8-22-2022,5-6-11,74,depth_duration_stimuli/002414_2014-06-28_20-24-58_260595134347_rgbf000067-resize_4/002414_2014-06-28_20-24-58_260595134347_rgbf000067-resize_4-target.png,1000,4.363,30,3693,998,meters,jsons/v1_VE1000_randls_26.json,957545,3093554,30,Woman
74,143952,DepthScenes,duration_manipulation_targetAtFixation,jsons/v1_VE1000_randls_26.json,http://54.235.29.9/FacialAge/BNav_EC2/DepthDuration/v2_depth_duration_MTurk/v2_DepthDuration_HTML.html#74,74,1364,768,1364,768,8-22-2022,5-6-11,75,depth_duration_stimuli/000414_2014-06-04_19-49-13_260595134347_rgbf000044-resize_0/000414_2014-06-04_19-49-13_260595134347_rgbf000044-resize_0-target.png,1000,4.329,30,4407,1000,meters,jsons/v1_VE1000_randls_26.json,957545,3093554,30,Woman
75,143952,DepthScenes,duration_manipulation_targetAtFixation,jsons/v1_VE1000_randls_26.json,http://54.235.29.9/FacialAge/BNav_EC2/DepthDuration/v2_depth_duration_MTurk/v2_DepthDuration_HTML.html#74,74,1364,768,1364,768,8-22-2022,5-6-11,76,depth_duration_stimuli/003129_2014-05-12_10-48-10_094959634447_rgbf000100-resize_0/003129_2014-05-12_10-48-10_094959634447_rgbf000100-resize_0-target.png,1000,4.9305,30,3633,1000,meters,jsons/v1_VE1000_randls_26.json,957545,3093554,30,Woman
76,143952,DepthScenes,duration_manipulation_targetAtFixation,jsons/v1_VE1000_randls_26.json,http://54.235.29.9/FacialAge/BNav_EC2/DepthDuration/v2_depth_duration_MTurk/v2_DepthDuration_HTML.html#74,74,1364,768,1364,768,8-22-2022,5-6-11,77,depth_duration_stimuli/000739_2014-06-08_18-45-58_260595134347_rgbf000068-resize_1/000739_2014-06-08_18-45-58_260595134347_rgbf000068-resize_1-target.png,1000,3.534,30,4505,1000,meters,jsons/v1_VE1000_randls_26.json,957545,3093554,30,Woman
77,143952,DepthScenes,duration_manipulation_targetAtFixation,jsons/v1_VE1000_randls_26.json,http://54.235.29.9/FacialAge/BNav_EC2/DepthDuration/v2_depth_duration_MTurk/v2_DepthDuration_HTML.html#74,74,1364,768,1364,768,8-22-2022,5-6-11,78,depth_duration_stimuli/000734_2014-06-08_17-39-11_260595134347_rgbf000128-resize_2/000734_2014-06-08_17-39-11_260595134347_rgbf000128-resize_2-target.png,1000,4.098,30,3854,1000,meters,jsons/v1_VE1000_randls_26.json,957545,3093554,30,Woman
78,143952,DepthScenes,duration_manipulation_targetAtFixation,jsons/v1_VE1000_randls_26.json,http://54.235.29.9/FacialAge/BNav_EC2/DepthDuration/v2_depth_duration_MTurk/v2_DepthDuration_HTML.html#74,74,1364,768,1364,768,8-22-2022,5-6-11,79,depth_duration_stimuli/000469_2014-06-09_19-42-10_260595134347_rgbf000081-resize_1/000469_2014-06-09_19-42-10_260595134347_rgbf000081-resize_1-target.png,1000,1.652,20,6843,1001,meters,jsons/v1_VE1000_randls_26.json,957545,3093554,30,Woman
79,143952,DepthScenes,duration_manipulation_targetAtFixation,jsons/v1_VE1000_randls_26.json,http://54.235.29.9/FacialAge/BNav_EC2/DepthDuration/v2_depth_duration_MTurk/v2_DepthDuration_HTML.html#74,74,1364,768,1364,768,8-22-2022,5-6-11,80,depth_duration_stimuli/000483_2014-06-09_20-41-45_260595134347_rgbf000116-resize_4/000483_2014-06-09_20-41-45_260595134347_rgbf000116-resize_4-target.png,1000,1.337,20,3819,1000,meters,jsons/v1_VE1000_randls_26.json,957545,3093554,30,Woman
80,143952,DepthScenes,duration_manipulation_targetAtFixation,jsons/v1_VE1000_randls_26.json,http://54.235.29.9/FacialAge/BNav_EC2/DepthDuration/v2_depth_duration_MTurk/v2_DepthDuration_HTML.html#74,74,1364,768,1364,768,8-22-2022,5-6-11,81,depth_duration_stimuli/003534_2014-05-22_15-06-10_094959634447_rgbf000102-resize_4/003534_2014-05-22_15-06-10_094959634447_rgbf000102-resize_4-target.png,1000,1.426,20,6119,996,meters,jsons/v1_VE1000_randls_26.json,957545,3093554,30,Woman
81,143952,DepthScenes,duration_manipulation_targetAtFixation,jsons/v1_VE1000_randls_26.json,http://54.235.29.9/FacialAge/BNav_EC2/DepthDuration/v2_depth_duration_MTurk/v2_DepthDuration_HTML.html#74,74,1364,768,1364,768,8-22-2022,5-6-11,82,depth_duration_stimuli/002637_2014-06-24_14-51-13_094959634447_rgbf000066-resize_4/002637_2014-06-24_14-51-13_094959634447_rgbf000066-resize_4-target.png,1000,1.9955,25,3564,999,meters,jsons/v1_VE1000_randls_26.json,957545,3093554,30,Woman
82,143952,DepthScenes,duration_manipulation_targetAtFixation,jsons/v1_VE1000_randls_26.json,http://54.235.29.9/FacialAge/BNav_EC2/DepthDuration/v2_depth_duration_MTurk/v2_DepthDuration_HTML.html#74,74,1364,768,1364,768,8-22-2022,5-6-11,83,depth_duration_stimuli/000642_2014-06-08_16-59-25_260595134347_rgbf000098-resize_2/000642_2014-06-08_16-59-25_260595134347_rgbf000098-resize_2-target.png,1000,2.8815,25,5789,1000,meters,jsons/v1_VE1000_randls_26.json,957545,3093554,30,Woman
83,143952,DepthScenes,duration_manipulation_targetAtFixation,jsons/v1_VE1000_randls_26.json,http://54.235.29.9/FacialAge/BNav_EC2/DepthDuration/v2_depth_duration_MTurk/v2_DepthDuration_HTML.html#74,74,1364,768,1364,768,8-22-2022,5-6-11,84,depth_duration_stimuli/002425_2014-06-28_20-27-29_260595134347_rgbf000031-resize_8/002425_2014-06-28_20-27-29_260595134347_rgbf000031-resize_8-target.png,1000,3.8960000000000004,30,6191,1000,meters,jsons/v1_VE1000_randls_26.json,957545,3093554,30,Woman
84,143952,DepthScenes,duration_manipulation_targetAtFixation,jsons/v1_VE1000_randls_26.json,http://54.235.29.9/FacialAge/BNav_EC2/DepthDuration/v2_depth_duration_MTurk/v2_DepthDuration_HTML.html#74,74,1364,768,1364,768,8-22-2022,5-6-11,85,depth_duration_stimuli/001011_2014-06-08_23-18-54_260595134347_rgbf000044-resize_4/001011_2014-06-08_23-18-54_260595134347_rgbf000044-resize_4-target.png,1000,2.4730000000000003,30,8009,1000,meters,jsons/v1_VE1000_randls_26.json,957545,3093554,30,Woman
85,143952,DepthScenes,duration_manipulation_targetAtFixation,jsons/v1_VE1000_randls_26.json,http://54.235.29.9/FacialAge/BNav_EC2/DepthDuration/v2_depth_duration_MTurk/v2_DepthDuration_HTML.html#74,74,1364,768,1364,768,8-22-2022,5-6-11,86,depth_duration_stimuli/002875_2014-06-01_15-19-00_094959634447_rgbf000151-resize_1/002875_2014-06-01_15-19-00_094959634447_rgbf000151-resize_1-target.png,1000,1.9675,30,3533,1000,meters,jsons/v1_VE1000_randls_26.json,957545,3093554,30,Woman
86,143952,DepthScenes,duration_manipulation_targetAtFixation,jsons/v1_VE1000_randls_26.json,http://54.235.29.9/FacialAge/BNav_EC2/DepthDuration/v2_depth_duration_MTurk/v2_DepthDuration_HTML.html#74,74,1364,768,1364,768,8-22-2022,5-6-11,87,depth_duration_stimuli/001092_2014-06-15_17-34-58_260595134347_rgbf000171-resize_3/001092_2014-06-15_17-34-58_260595134347_rgbf000171-resize_3-target.png,1000,2.6935,20,6251,1000,meters,jsons/v1_VE1000_randls_26.json,957545,3093554,30,Woman
87,143952,DepthScenes,duration_manipulation_targetAtFixation,jsons/v1_VE1000_randls_26.json,http://54.235.29.9/FacialAge/BNav_EC2/DepthDuration/v2_depth_duration_MTurk/v2_DepthDuration_HTML.html#74,74,1364,768,1364,768,8-22-2022,5-6-11,88,depth_duration_stimuli/002545_2014-06-24_13-38-53_094959634447_rgbf000080-resize_4/002545_2014-06-24_13-38-53_094959634447_rgbf000080-resize_4-target.png,1000,1.9205,30,3937,999,meters,jsons/v1_VE1000_randls_26.json,957545,3093554,30,Woman
88,143952,DepthScenes,duration_manipulation_targetAtFixation,jsons/v1_VE1000_randls_26.json,http://54.235.29.9/FacialAge/BNav_EC2/DepthDuration/v2_depth_duration_MTurk/v2_DepthDuration_HTML.html#74,74,1364,768,1364,768,8-22-2022,5-6-11,89,depth_duration_stimuli/002375_2014-06-28_20-13-44_260595134347_rgbf000032-resize_1/002375_2014-06-28_20-13-44_260595134347_rgbf000032-resize_1-target.png,1000,4.0175,25,5963,999,meters,jsons/v1_VE1000_randls_26.json,957545,3093554,30,Woman
89,143952,DepthScenes,duration_manipulation_targetAtFixation,jsons/v1_VE1000_randls_26.json,http://54.235.29.9/FacialAge/BNav_EC2/DepthDuration/v2_depth_duration_MTurk/v2_DepthDuration_HTML.html#74,74,1364,768,1364,768,8-22-2022,5-6-11,90,depth_duration_stimuli/002657_2014-06-13_15-29-54_094959634447_rgbf000150-resize_1/002657_2014-06-13_15-29-54_094959634447_rgbf000150-resize_1-target.png,1000,4.919,30,5764,999,meters,jsons/v1_VE1000_randls_26.json,957545,3093554,30,Woman
90,143952,DepthScenes,duration_manipulation_targetAtFixation,jsons/v1_VE1000_randls_26.json,http://54.235.29.9/FacialAge/BNav_EC2/DepthDuration/v2_depth_duration_MTurk/v2_DepthDuration_HTML.html#74,74,1364,768,1364,768,8-22-2022,5-6-11,91,depth_duration_stimuli/000682_2014-06-08_23-14-58_260595134347_rgbf000041-resize_5/000682_2014-06-08_23-14-58_260595134347_rgbf000041-resize_5-target.png,1000,2.7239999999999998,25,5166,999,meters,jsons/v1_VE1000_randls_26.json,957545,3093554,30,Woman
91,143952,DepthScenes,duration_manipulation_targetAtFixation,jsons/v1_VE1000_randls_26.json,http://54.235.29.9/FacialAge/BNav_EC2/DepthDuration/v2_depth_duration_MTurk/v2_DepthDuration_HTML.html#74,74,1364,768,1364,768,8-22-2022,5-6-11,92,depth_duration_stimuli/001650_2014-06-20_12-09-00_260595134347_rgbf000087-resize_3/001650_2014-06-20_12-09-00_260595134347_rgbf000087-resize_3-target.png,1000,1.9505,20,3590,1001,meters,jsons/v1_VE1000_randls_26.json,957545,3093554,30,Woman
92,143952,DepthScenes,duration_manipulation_targetAtFixation,jsons/v1_VE1000_randls_26.json,http://54.235.29.9/FacialAge/BNav_EC2/DepthDuration/v2_depth_duration_MTurk/v2_DepthDuration_HTML.html#74,74,1364,768,1364,768,8-22-2022,5-6-11,93,depth_duration_stimuli/003292_2014-05-14_21-53-49_094959634447_rgbf000100-resize_2/003292_2014-05-14_21-53-49_094959634447_rgbf000100-resize_2-target.png,1000,3.4815,25,4211,999,meters,jsons/v1_VE1000_randls_26.json,957545,3093554,30,Woman
93,143952,DepthScenes,duration_manipulation_targetAtFixation,jsons/v1_VE1000_randls_26.json,http://54.235.29.9/FacialAge/BNav_EC2/DepthDuration/v2_depth_duration_MTurk/v2_DepthDuration_HTML.html#74,74,1364,768,1364,768,8-22-2022,5-6-11,94,depth_duration_stimuli/002639_2014-06-24_14-51-37_094959634447_rgbf000074-resize_4/002639_2014-06-24_14-51-37_094959634447_rgbf000074-resize_4-target.png,1000,4.0375,25,3357,1000,meters,jsons/v1_VE1000_randls_26.json,957545,3093554,30,Woman
94,143952,DepthScenes,duration_manipulation_targetAtFixation,jsons/v1_VE1000_randls_26.json,http://54.235.29.9/FacialAge/BNav_EC2/DepthDuration/v2_depth_duration_MTurk/v2_DepthDuration_HTML.html#74,74,1364,768,1364,768,8-22-2022,5-6-11,95,depth_duration_stimuli/000486_2014-06-09_20-47-20_260595134347_rgbf000143-resize_2/000486_2014-06-09_20-47-20_260595134347_rgbf000143-resize_2-target.png,1000,4.8325,30,4232,1000,meters,jsons/v1_VE1000_randls_26.json,957545,3093554,30,Woman
95,143952,DepthScenes,duration_manipulation_targetAtFixation,jsons/v1_VE1000_randls_26.json,http://54.235.29.9/FacialAge/BNav_EC2/DepthDuration/v2_depth_duration_MTurk/v2_DepthDuration_HTML.html#74,74,1364,768,1364,768,8-22-2022,5-6-11,96,depth_duration_stimuli/003083_2014-06-15_15-21-03_094959634447_rgbf000063-resize_1/003083_2014-06-15_15-21-03_094959634447_rgbf000063-resize_1-target.png,1000,4.1405,30,3485,1000,meters,jsons/v1_VE1000_randls_26.json,957545,3093554,30,Woman
96,143952,DepthScenes,duration_manipulation_targetAtFixation,jsons/v1_VE1000_randls_26.json,http://54.235.29.9/FacialAge/BNav_EC2/DepthDuration/v2_depth_duration_MTurk/v2_DepthDuration_HTML.html#74,74,1364,768,1364,768,8-22-2022,5-6-11,97,depth_duration_stimuli/001175_2014-06-17_15-45-55_260595134347_rgbf000129-resize_4/001175_2014-06-17_15-45-55_260595134347_rgbf000129-resize_4-target.png,1000,4.255,30,3843,1001,meters,jsons/v1_VE1000_randls_26.json,957545,3093554,30,Woman
97,143952,DepthScenes,duration_manipulation_targetAtFixation,jsons/v1_VE1000_randls_26.json,http://54.235.29.9/FacialAge/BNav_EC2/DepthDuration/v2_depth_duration_MTurk/v2_DepthDuration_HTML.html#74,74,1364,768,1364,768,8-22-2022,5-6-11,98,depth_duration_stimuli/003490_2014-05-21_15-50-11_094959634447_rgbf000101-resize_3/003490_2014-05-21_15-50-11_094959634447_rgbf000101-resize_3-target.png,1000,3.6445,30,3630,1001,meters,jsons/v1_VE1000_randls_26.json,957545,3093554,30,Woman
98,143952,DepthScenes,duration_manipulation_targetAtFixation,jsons/v1_VE1000_randls_26.json,http://54.235.29.9/FacialAge/BNav_EC2/DepthDuration/v2_depth_duration_MTurk/v2_DepthDuration_HTML.html#74,74,1364,768,1364,768,8-22-2022,5-6-11,99,depth_duration_stimuli/001540_2014-06-20_17-01-05_260595134347_rgbf000086-resize_2/001540_2014-06-20_17-01-05_260595134347_rgbf000086-resize-original.jpg,1000,1.459,0,4884,999,meters,jsons/v1_VE1000_randls_26.json,957545,3093554,30,Woman
99,143952,DepthScenes,duration_manipulation_targetAtFixation,jsons/v1_VE1000_randls_26.json,http://54.235.29.9/FacialAge/BNav_EC2/DepthDuration/v2_depth_duration_MTurk/v2_DepthDuration_HTML.html#74,74,1364,768,1364,768,8-22-2022,5-6-11,100,depth_duration_stimuli/001808_2014-06-26_20-50-58_260595134347_rgbf000029-resize_1/001808_2014-06-26_20-50-58_260595134347_rgbf000029-resize_1-target.png,1000,4.249,30,6833,999,meters,jsons/v1_VE1000_randls_26.json,957545,3093554,30,Woman
100,143952,DepthScenes,duration_manipulation_targetAtFixation,jsons/v1_VE1000_randls_26.json,http://54.235.29.9/FacialAge/BNav_EC2/DepthDuration/v2_depth_duration_MTurk/v2_DepthDuration_HTML.html#74,74,1364,768,1364,768,8-22-2022,5-6-11,101,depth_duration_stimuli/001815_2014-06-26_20-52-55_260595134347_rgbf000020-resize_0/001815_2014-06-26_20-52-55_260595134347_rgbf000020-resize_0-target.png,1000,3.3865,20,4629,999,meters,jsons/v1_VE1000_randls_26.json,957545,3093554,30,Woman
101,143952,DepthScenes,duration_manipulation_targetAtFixation,jsons/v1_VE1000_randls_26.json,http://54.235.29.9/FacialAge/BNav_EC2/DepthDuration/v2_depth_duration_MTurk/v2_DepthDuration_HTML.html#74,74,1364,768,1364,768,8-22-2022,5-6-11,102,depth_duration_stimuli/003492_2014-05-21_15-50-55_094959634447_rgbf000828-resize_1/003492_2014-05-21_15-50-55_094959634447_rgbf000828-resize_1-target.png,1000,4.06875,30,5103,999,meters,jsons/v1_VE1000_randls_26.json,957545,3093554,30,Woman
102,143952,DepthScenes,duration_manipulation_targetAtFixation,jsons/v1_VE1000_randls_26.json,http://54.235.29.9/FacialAge/BNav_EC2/DepthDuration/v2_depth_duration_MTurk/v2_DepthDuration_HTML.html#74,74,1364,768,1364,768,8-22-2022,5-6-11,103,depth_duration_stimuli/002568_2014-06-24_13-59-21_094959634447_rgbf000062-resize_4/002568_2014-06-24_13-59-21_094959634447_rgbf000062-resize_4-target.png,1000,3.015,25,6712,999,meters,jsons/v1_VE1000_randls_26.json,957545,3093554,30,Woman
103,143952,DepthScenes,duration_manipulation_targetAtFixation,jsons/v1_VE1000_randls_26.json,http://54.235.29.9/FacialAge/BNav_EC2/DepthDuration/v2_depth_duration_MTurk/v2_DepthDuration_HTML.html#74,74,1364,768,1364,768,8-22-2022,5-6-11,104,depth_duration_stimuli/003621_2014-05-23_18-06-08_094959634447_rgbf000101-resize_1/003621_2014-05-23_18-06-08_094959634447_rgbf000101-resize_1-target.png,1000,3.9835,30,6128,998,meters,jsons/v1_VE1000_randls_26.json,957545,3093554,30,Woman
104,143952,DepthScenes,duration_manipulation_targetAtFixation,jsons/v1_VE1000_randls_26.json,http://54.235.29.9/FacialAge/BNav_EC2/DepthDuration/v2_depth_duration_MTurk/v2_DepthDuration_HTML.html#74,74,1364,768,1364,768,8-22-2022,5-6-11,105,depth_duration_stimuli/001584_2014-06-20_11-07-43_260595134347_rgbf000002-resize_1/001584_2014-06-20_11-07-43_260595134347_rgbf000002-resize_1-target.png,1000,3.53,30,6536,997,meters,jsons/v1_VE1000_randls_26.json,957545,3093554,30,Woman
105,143952,DepthScenes,duration_manipulation_targetAtFixation,jsons/v1_VE1000_randls_26.json,http://54.235.29.9/FacialAge/BNav_EC2/DepthDuration/v2_depth_duration_MTurk/v2_DepthDuration_HTML.html#74,74,1364,768,1364,768,8-22-2022,5-6-11,106,depth_duration_stimuli/001059_2014-06-08_21-53-27_260595134347_rgbf000061-resize_4/001059_2014-06-08_21-53-27_260595134347_rgbf000061-resize_4-target.png,1000,2.4185,25,6000,1000,meters,jsons/v1_VE1000_randls_26.json,957545,3093554,30,Woman
106,143952,DepthScenes,duration_manipulation_targetAtFixation,jsons/v1_VE1000_randls_26.json,http://54.235.29.9/FacialAge/BNav_EC2/DepthDuration/v2_depth_duration_MTurk/v2_DepthDuration_HTML.html#74,74,1364,768,1364,768,8-22-2022,5-6-11,107,depth_duration_stimuli/001032_2014-06-08_13-23-17_260595134347_rgbf000021-resize_3/001032_2014-06-08_13-23-17_260595134347_rgbf000021-resize_3-target.png,1000,3.2725,25,3795,999,meters,jsons/v1_VE1000_randls_26.json,957545,3093554,30,Woman
107,143952,DepthScenes,duration_manipulation_targetAtFixation,jsons/v1_VE1000_randls_26.json,http://54.235.29.9/FacialAge/BNav_EC2/DepthDuration/v2_depth_duration_MTurk/v2_DepthDuration_HTML.html#74,74,1364,768,1364,768,8-22-2022,5-6-11,108,depth_duration_stimuli/002748_2014-06-22_19-07-22_094959634447_rgbf000078-resize_1/002748_2014-06-22_19-07-22_094959634447_rgbf000078-resize_1-target.png,1000,4.6705,30,4655,1001,meters,jsons/v1_VE1000_randls_26.json,957545,3093554,30,Woman
108,143952,DepthScenes,duration_manipulation_targetAtFixation,jsons/v1_VE1000_randls_26.json,http://54.235.29.9/FacialAge/BNav_EC2/DepthDuration/v2_depth_duration_MTurk/v2_DepthDuration_HTML.html#74,74,1364,768,1364,768,8-22-2022,5-6-11,109,depth_duration_stimuli/002995_2014-06-15_12-31-26_094959634447_rgbf000150-resize_1/002995_2014-06-15_12-31-26_094959634447_rgbf000150-resize_1-target.png,1000,3.8360000000000003,30,3639,999,meters,jsons/v1_VE1000_randls_26.json,957545,3093554,30,Woman
109,143952,DepthScenes,duration_manipulation_targetAtFixation,jsons/v1_VE1000_randls_26.json,http://54.235.29.9/FacialAge/BNav_EC2/DepthDuration/v2_depth_duration_MTurk/v2_DepthDuration_HTML.html#74,74,1364,768,1364,768,8-22-2022,5-6-11,110,depth_duration_stimuli/002763_2014-06-22_19-13-10_094959634447_rgbf000075-resize_4/002763_2014-06-22_19-13-10_094959634447_rgbf000075-resize_4-target.png,1000,1.68375,30,4511,1000,meters,jsons/v1_VE1000_randls_26.json,957545,3093554,30,Woman
110,143952,DepthScenes,duration_manipulation_targetAtFixation,jsons/v1_VE1000_randls_26.json,http://54.235.29.9/FacialAge/BNav_EC2/DepthDuration/v2_depth_duration_MTurk/v2_DepthDuration_HTML.html#74,74,1364,768,1364,768,8-22-2022,5-6-11,111,depth_duration_stimuli/002209_2014-06-28_18-36-10_260595134347_rgbf000051-resize_1/002209_2014-06-28_18-36-10_260595134347_rgbf000051-resize_1-target.png,1000,2.057,25,3274,1000,meters,jsons/v1_VE1000_randls_26.json,957545,3093554,30,Woman
111,143952,DepthScenes,duration_manipulation_targetAtFixation,jsons/v1_VE1000_randls_26.json,http://54.235.29.9/FacialAge/BNav_EC2/DepthDuration/v2_depth_duration_MTurk/v2_DepthDuration_HTML.html#74,74,1364,768,1364,768,8-22-2022,5-6-11,112,depth_duration_stimuli/001417_2014-06-19_16-25-36_260595134347_rgbf000115-resize_5/001417_2014-06-19_16-25-36_260595134347_rgbf000115-resize_5-target.png,1000,4.6255,30,8443,1001,meters,jsons/v1_VE1000_randls_26.json,957545,3093554,30,Woman
112,143952,DepthScenes,duration_manipulation_targetAtFixation,jsons/v1_VE1000_randls_26.json,http://54.235.29.9/FacialAge/BNav_EC2/DepthDuration/v2_depth_duration_MTurk/v2_DepthDuration_HTML.html#74,74,1364,768,1364,768,8-22-2022,5-6-11,113,depth_duration_stimuli/003081_2014-06-15_15-19-16_094959634447_rgbf000150-resize_1/003081_2014-06-15_15-19-16_094959634447_rgbf000150-resize_1-target.png,1000,3.9125,30,3914,1000,meters,jsons/v1_VE1000_randls_26.json,957545,3093554,30,Woman
113,143952,DepthScenes,duration_manipulation_targetAtFixation,jsons/v1_VE1000_randls_26.json,http://54.235.29.9/FacialAge/BNav_EC2/DepthDuration/v2_depth_duration_MTurk/v2_DepthDuration_HTML.html#74,74,1364,768,1364,768,8-22-2022,5-6-11,114,depth_duration_stimuli/001056_2014-06-08_18-46-44_260595134347_rgbf000068-resize_0/001056_2014-06-08_18-46-44_260595134347_rgbf000068-resize_0-target.png,1000,2.6625,30,5627,1000,meters,jsons/v1_VE1000_randls_26.json,957545,3093554,30,Woman
114,143952,DepthScenes,duration_manipulation_targetAtFixation,jsons/v1_VE1000_randls_26.json,http://54.235.29.9/FacialAge/BNav_EC2/DepthDuration/v2_depth_duration_MTurk/v2_DepthDuration_HTML.html#74,74,1364,768,1364,768,8-22-2022,5-6-11,115,depth_duration_stimuli/002199_2014-06-28_18-33-56_260595134347_rgbf000074-resize_0/002199_2014-06-28_18-33-56_260595134347_rgbf000074-resize_0-target.png,1000,1.996,20,4395,1000,meters,jsons/v1_VE1000_randls_26.json,957545,3093554,30,Woman
115,143952,DepthScenes,duration_manipulation_targetAtFixation,jsons/v1_VE1000_randls_26.json,http://54.235.29.9/FacialAge/BNav_EC2/DepthDuration/v2_depth_duration_MTurk/v2_DepthDuration_HTML.html#74,74,1364,768,1364,768,8-22-2022,5-6-11,116,depth_duration_stimuli/001170_2014-06-17_15-43-44_260595134347_rgbf000096-resize_6/001170_2014-06-17_15-43-44_260595134347_rgbf000096-resize-original.jpg,1000,1.1909999999999998,0,9994,1000,meters,jsons/v1_VE1000_randls_26.json,957545,3093554,30,Woman
116,143952,DepthScenes,duration_manipulation_targetAtFixation,jsons/v1_VE1000_randls_26.json,http://54.235.29.9/FacialAge/BNav_EC2/DepthDuration/v2_depth_duration_MTurk/v2_DepthDuration_HTML.html#74,74,1364,768,1364,768,8-22-2022,5-6-11,117,depth_duration_stimuli/001199_2014-06-17_16-03-48_260595134347_rgbf000077-resize_0/001199_2014-06-17_16-03-48_260595134347_rgbf000077-resize_0-target.png,1000,3.4375,30,6089,999,meters,jsons/v1_VE1000_randls_26.json,957545,3093554,30,Woman
117,143952,DepthScenes,duration_manipulation_targetAtFixation,jsons/v1_VE1000_randls_26.json,http://54.235.29.9/FacialAge/BNav_EC2/DepthDuration/v2_depth_duration_MTurk/v2_DepthDuration_HTML.html#74,74,1364,768,1364,768,8-22-2022,5-6-11,118,depth_duration_stimuli/000502_2014-06-08_23-02-32_260595134347_rgbf000063-resize_4/000502_2014-06-08_23-02-32_260595134347_rgbf000063-resize_4-target.png,1000,2.431,20,3706,1001,meters,jsons/v1_VE1000_randls_26.json,957545,3093554,30,Woman
118,143952,DepthScenes,duration_manipulation_targetAtFixation,jsons/v1_VE1000_randls_26.json,http://54.235.29.9/FacialAge/BNav_EC2/DepthDuration/v2_depth_duration_MTurk/v2_DepthDuration_HTML.html#74,74,1364,768,1364,768,8-22-2022,5-6-11,119,depth_duration_stimuli/000506_2014-06-08_23-21-00_260595134347_rgbf000070-resize_7/000506_2014-06-08_23-21-00_260595134347_rgbf000070-resize_7-target.png,1000,4.0585,25,5497,1000,meters,jsons/v1_VE1000_randls_26.json,957545,3093554,30,Woman
119,143952,DepthScenes,duration_manipulation_targetAtFixation,jsons/v1_VE1000_randls_26.json,http://54.235.29.9/FacialAge/BNav_EC2/DepthDuration/v2_depth_duration_MTurk/v2_DepthDuration_HTML.html#74,74,1364,768,1364,768,8-22-2022,5-6-11,120,depth_duration_stimuli/003079_2014-06-15_15-18-20_094959634447_rgbf000152-resize_8/003079_2014-06-15_15-18-20_094959634447_rgbf000152-resize_8-target.png,1000,2.8775,20,3727,999,meters,jsons/v1_VE1000_randls_26.json,957545,3093554,30,Woman
120,143952,DepthScenes,duration_manipulation_targetAtFixation,jsons/v1_VE1000_randls_26.json,http://54.235.29.9/FacialAge/BNav_EC2/DepthDuration/v2_depth_duration_MTurk/v2_DepthDuration_HTML.html#74,74,1364,768,1364,768,8-22-2022,5-6-11,121,depth_duration_stimuli/002964_2014-06-08_17-46-11_094959634447_rgbf000091-resize_4/002964_2014-06-08_17-46-11_094959634447_rgbf000091-resize_4-target.png,1000,1.6909999999999998,20,5464,1000,meters,jsons/v1_VE1000_randls_26.json,957545,3093554,30,Woman
121,143952,DepthScenes,duration_manipulation_targetAtFixation,jsons/v1_VE1000_randls_26.json,http://54.235.29.9/FacialAge/BNav_EC2/DepthDuration/v2_depth_duration_MTurk/v2_DepthDuration_HTML.html#74,74,1364,768,1364,768,8-22-2022,5-6-11,122,depth_duration_stimuli/002136_2014-06-25_21-18-03_260595134347_rgbf000109-resize_3/002136_2014-06-25_21-18-03_260595134347_rgbf000109-resize_3-target.png,1000,1.9569999999999999,25,3372,999,meters,jsons/v1_VE1000_randls_26.json,957545,3093554,30,Woman
122,143952,DepthScenes,duration_manipulation_targetAtFixation,jsons/v1_VE1000_randls_26.json,http://54.235.29.9/FacialAge/BNav_EC2/DepthDuration/v2_depth_duration_MTurk/v2_DepthDuration_HTML.html#74,74,1364,768,1364,768,8-22-2022,5-6-11,123,depth_duration_stimuli/000736_2014-06-08_18-24-15_260595134347_rgbf000206-resize_3/000736_2014-06-08_18-24-15_260595134347_rgbf000206-resize_3-target.png,1000,3.515,20,4555,1000,meters,jsons/v1_VE1000_randls_26.json,957545,3093554,30,Woman
123,143952,DepthScenes,duration_manipulation_targetAtFixation,jsons/v1_VE1000_randls_26.json,http://54.235.29.9/FacialAge/BNav_EC2/DepthDuration/v2_depth_duration_MTurk/v2_DepthDuration_HTML.html#74,74,1364,768,1364,768,8-22-2022,5-6-11,124,depth_duration_stimuli/000137_2014-05-20_17-04-49_260595134347_rgbf000120-resize_1/000137_2014-05-20_17-04-49_260595134347_rgbf000120-resize_1-target.png,1000,3.786,30,3290,1000,meters,jsons/v1_VE1000_randls_26.json,957545,3093554,30,Woman
124,143952,DepthScenes,duration_manipulation_targetAtFixation,jsons/v1_VE1000_randls_26.json,http://54.235.29.9/FacialAge/BNav_EC2/DepthDuration/v2_depth_duration_MTurk/v2_DepthDuration_HTML.html#74,74,1364,768,1364,768,8-22-2022,5-6-11,125,depth_duration_stimuli/002570_2014-06-24_13-59-54_094959634447_rgbf000059-resize_0/002570_2014-06-24_13-59-54_094959634447_rgbf000059-resize_0-target.png,1000,4.037,30,5361,1000,meters,jsons/v1_VE1000_randls_26.json,957545,3093554,30,Woman
125,143952,DepthScenes,duration_manipulation_targetAtFixation,jsons/v1_VE1000_randls_26.json,http://54.235.29.9/FacialAge/BNav_EC2/DepthDuration/v2_depth_duration_MTurk/v2_DepthDuration_HTML.html#74,74,1364,768,1364,768,8-22-2022,5-6-11,126,depth_duration_stimuli/002467_2014-06-28_20-38-07_260595134347_rgbf000026-resize_2/002467_2014-06-28_20-38-07_260595134347_rgbf000026-resize_2-target.png,1000,4.742,30,3301,999,meters,jsons/v1_VE1000_randls_26.json,957545,3093554,30,Woman
126,143952,DepthScenes,duration_manipulation_targetAtFixation,jsons/v1_VE1000_randls_26.json,http://54.235.29.9/FacialAge/BNav_EC2/DepthDuration/v2_depth_duration_MTurk/v2_DepthDuration_HTML.html#74,74,1364,768,1364,768,8-22-2022,5-6-11,127,depth_duration_stimuli/001449_2014-06-19_17-01-27_260595134347_rgbf000116-resize_2/001449_2014-06-19_17-01-27_260595134347_rgbf000116-resize_2-target.png,1000,3.452,30,8718,1000,meters,jsons/v1_VE1000_randls_26.json,957545,3093554,30,Woman
127,143952,DepthScenes,duration_manipulation_targetAtFixation,jsons/v1_VE1000_randls_26.json,http://54.235.29.9/FacialAge/BNav_EC2/DepthDuration/v2_depth_duration_MTurk/v2_DepthDuration_HTML.html#74,74,1364,768,1364,768,8-22-2022,5-6-11,128,depth_duration_stimuli/001450_2014-06-19_17-02-03_260595134347_rgbf000203-resize_4/001450_2014-06-19_17-02-03_260595134347_rgbf000203-resize_4-target.png,1000,4.0106666666667,30,3254,1001,meters,jsons/v1_VE1000_randls_26.json,957545,3093554,30,Woman
128,143952,DepthScenes,duration_manipulation_targetAtFixation,jsons/v1_VE1000_randls_26.json,http://54.235.29.9/FacialAge/BNav_EC2/DepthDuration/v2_depth_duration_MTurk/v2_DepthDuration_HTML.html#74,74,1364,768,1364,768,8-22-2022,5-6-11,129,depth_duration_stimuli/001055_2014-06-08_18-45-35_260595134347_rgbf000111-resize_4/001055_2014-06-08_18-45-35_260595134347_rgbf000111-resize_4-target.png,1000,2.4290000000000003,30,5632,1000,meters,jsons/v1_VE1000_randls_26.json,957545,3093554,30,Woman
129,143952,DepthScenes,duration_manipulation_targetAtFixation,jsons/v1_VE1000_randls_26.json,http://54.235.29.9/FacialAge/BNav_EC2/DepthDuration/v2_depth_duration_MTurk/v2_DepthDuration_HTML.html#74,74,1364,768,1364,768,8-22-2022,5-6-11,130,depth_duration_stimuli/000549_2014-06-08_22-10-24_260595134347_rgbf000247-resize_3/000549_2014-06-08_22-10-24_260595134347_rgbf000247-resize_3-target.png,1000,1.841,20,3704,999,meters,jsons/v1_VE1000_randls_26.json,957545,3093554,30,Woman
130,143952,DepthScenes,duration_manipulation_targetAtFixation,jsons/v1_VE1000_randls_26.json,http://54.235.29.9/FacialAge/BNav_EC2/DepthDuration/v2_depth_duration_MTurk/v2_DepthDuration_HTML.html#74,74,1364,768,1364,768,8-22-2022,5-6-11,131,depth_duration_stimuli/001029_2014-06-08_13-17-57_260595134347_rgbf000065-resize_1/001029_2014-06-08_13-17-57_260595134347_rgbf000065-resize_1-target.png,1000,3.0835,30,4685,1001,meters,jsons/v1_VE1000_randls_26.json,957545,3093554,30,Woman
131,143952,DepthScenes,duration_manipulation_targetAtFixation,jsons/v1_VE1000_randls_26.json,http://54.235.29.9/FacialAge/BNav_EC2/DepthDuration/v2_depth_duration_MTurk/v2_DepthDuration_HTML.html#74,74,1364,768,1364,768,8-22-2022,5-6-11,132,depth_duration_stimuli/000677_2014-06-08_23-10-32_260595134347_rgbf000158-resize_6/000677_2014-06-08_23-10-32_260595134347_rgbf000158-resize_6-target.png,1000,3.556,25,3236,998,meters,jsons/v1_VE1000_randls_26.json,957545,3093554,30,Woman
132,143952,DepthScenes,duration_manipulation_targetAtFixation,jsons/v1_VE1000_randls_26.json,http://54.235.29.9/FacialAge/BNav_EC2/DepthDuration/v2_depth_duration_MTurk/v2_DepthDuration_HTML.html#74,74,1364,768,1364,768,8-22-2022,5-6-11,133,depth_duration_stimuli/002153_2014-06-25_21-27-18_260595134347_rgbf000038-resize_5/002153_2014-06-25_21-27-18_260595134347_rgbf000038-resize_5-target.png,1000,2.505,25,7854,1000,meters,jsons/v1_VE1000_randls_26.json,957545,3093554,30,Woman
133,143952,DepthScenes,duration_manipulation_targetAtFixation,jsons/v1_VE1000_randls_26.json,http://54.235.29.9/FacialAge/BNav_EC2/DepthDuration/v2_depth_duration_MTurk/v2_DepthDuration_HTML.html#74,74,1364,768,1364,768,8-22-2022,5-6-11,134,depth_duration_stimuli/002660_2014-06-13_15-44-18_094959634447_rgbf001878-resize_2/002660_2014-06-13_15-44-18_094959634447_rgbf001878-resize_2-target.png,1000,3.576,30,3660,1002,meters,jsons/v1_VE1000_randls_26.json,957545,3093554,30,Woman
134,143952,DepthScenes,duration_manipulation_targetAtFixation,jsons/v1_VE1000_randls_26.json,http://54.235.29.9/FacialAge/BNav_EC2/DepthDuration/v2_depth_duration_MTurk/v2_DepthDuration_HTML.html#74,74,1364,768,1364,768,8-22-2022,5-6-11,135,depth_duration_stimuli/002072_2014-06-24_21-48-06_260595134347_rgbf000115-resize_0/002072_2014-06-24_21-48-06_260595134347_rgbf000115-resize-original.jpg,1000,4.702,0,10651,995,meters,jsons/v1_VE1000_randls_26.json,957545,3093554,30,Woman
135,143952,DepthScenes,duration_manipulation_targetAtFixation,jsons/v1_VE1000_randls_26.json,http://54.235.29.9/FacialAge/BNav_EC2/DepthDuration/v2_depth_duration_MTurk/v2_DepthDuration_HTML.html#74,74,1364,768,1364,768,8-22-2022,5-6-11,136,depth_duration_stimuli/000470_2014-06-09_19-42-40_260595134347_rgbf000094-resize_1/000470_2014-06-09_19-42-40_260595134347_rgbf000094-resize_1-target.png,1000,1.831,25,9348,1000,meters,jsons/v1_VE1000_randls_26.json,957545,3093554,30,Woman
136,143952,DepthScenes,duration_manipulation_targetAtFixation,jsons/v1_VE1000_randls_26.json,http://54.235.29.9/FacialAge/BNav_EC2/DepthDuration/v2_depth_duration_MTurk/v2_DepthDuration_HTML.html#74,74,1364,768,1364,768,8-22-2022,5-6-11,137,depth_duration_stimuli/000109_2014-05-14_23-41-52_260595134347_rgbf000035-resize_9/000109_2014-05-14_23-41-52_260595134347_rgbf000035-resize_9-target.png,1000,1.3545,20,5118,999,meters,jsons/v1_VE1000_randls_26.json,957545,3093554,30,Woman
137,143952,DepthScenes,duration_manipulation_targetAtFixation,jsons/v1_VE1000_randls_26.json,http://54.235.29.9/FacialAge/BNav_EC2/DepthDuration/v2_depth_duration_MTurk/v2_DepthDuration_HTML.html#74,74,1364,768,1364,768,8-22-2022,5-6-11,138,depth_duration_stimuli/000692_2014-06-08_13-09-42_260595134347_rgbf000199-resize_2/000692_2014-06-08_13-09-42_260595134347_rgbf000199-resize_2-target.png,1000,3.661,30,9577,1000,meters,jsons/v1_VE1000_randls_26.json,957545,3093554,30,Woman
138,143952,DepthScenes,duration_manipulation_targetAtFixation,jsons/v1_VE1000_randls_26.json,http://54.235.29.9/FacialAge/BNav_EC2/DepthDuration/v2_depth_duration_MTurk/v2_DepthDuration_HTML.html#74,74,1364,768,1364,768,8-22-2022,5-6-11,139,depth_duration_stimuli/001094_2014-06-15_17-36-00_260595134347_rgbf000205-resize_0/001094_2014-06-15_17-36-00_260595134347_rgbf000205-resize_0-target.png,1000,4.2175,30,3390,1000,meters,jsons/v1_VE1000_randls_26.json,957545,3093554,30,Woman
139,143952,DepthScenes,duration_manipulation_targetAtFixation,jsons/v1_VE1000_randls_26.json,http://54.235.29.9/FacialAge/BNav_EC2/DepthDuration/v2_depth_duration_MTurk/v2_DepthDuration_HTML.html#74,74,1364,768,1364,768,8-22-2022,5-6-11,140,depth_duration_stimuli/002905_2014-06-03_18-04-43_094959634447_rgbf000151-resize_2/002905_2014-06-03_18-04-43_094959634447_rgbf000151-resize_2-target.png,1000,2.0295,25,5689,1000,meters,jsons/v1_VE1000_randls_26.json,957545,3093554,30,Woman
140,143952,DepthScenes,duration_manipulation_targetAtFixation,jsons/v1_VE1000_randls_26.json,http://54.235.29.9/FacialAge/BNav_EC2/DepthDuration/v2_depth_duration_MTurk/v2_DepthDuration_HTML.html#74,74,1364,768,1364,768,8-22-2022,5-6-11,141,depth_duration_stimuli/003423_2014-05-21_10-23-26_094959634447_rgbf002665-resize_2/003423_2014-05-21_10-23-26_094959634447_rgbf002665-resize_2-target.png,1000,3.2575,30,5476,999,meters,jsons/v1_VE1000_randls_26.json,957545,3093554,30,Woman
141,143952,DepthScenes,duration_manipulation_targetAtFixation,jsons/v1_VE1000_randls_26.json,http://54.235.29.9/FacialAge/BNav_EC2/DepthDuration/v2_depth_duration_MTurk/v2_DepthDuration_HTML.html#74,74,1364,768,1364,768,8-22-2022,5-6-11,142,depth_duration_stimuli/002988_2014-06-15_12-24-20_094959634447_rgbf000150-resize_1/002988_2014-06-15_12-24-20_094959634447_rgbf000150-resize_1-target.png,1000,4.7669999999999995,30,7866,1000,meters,jsons/v1_VE1000_randls_26.json,957545,3093554,30,Woman
142,143952,DepthScenes,duration_manipulation_targetAtFixation,jsons/v1_VE1000_randls_26.json,http://54.235.29.9/FacialAge/BNav_EC2/DepthDuration/v2_depth_duration_MTurk/v2_DepthDuration_HTML.html#74,74,1364,768,1364,768,8-22-2022,5-6-11,143,depth_duration_stimuli/001052_2014-06-08_18-24-54_260595134347_rgbf000130-resize_1/001052_2014-06-08_18-24-54_260595134347_rgbf000130-resize_1-target.png,1000,4.1045,30,5699,1000,meters,jsons/v1_VE1000_randls_26.json,957545,3093554,30,Woman
143,143952,DepthScenes,duration_manipulation_targetAtFixation,jsons/v1_VE1000_randls_26.json,http://54.235.29.9/FacialAge/BNav_EC2/DepthDuration/v2_depth_duration_MTurk/v2_DepthDuration_HTML.html#74,74,1364,768,1364,768,8-22-2022,5-6-11,144,depth_duration_stimuli/001164_2014-06-17_15-35-46_260595134347_rgbf000085-resize_3/001164_2014-06-17_15-35-46_260595134347_rgbf000085-resize_3-target.png,1000,2.354,30,8346,1000,meters,jsons/v1_VE1000_randls_26.json,957545,3093554,30,Woman
144,143952,DepthScenes,duration_manipulation_targetAtFixation,jsons/v1_VE1000_randls_26.json,http://54.235.29.9/FacialAge/BNav_EC2/DepthDuration/v2_depth_duration_MTurk/v2_DepthDuration_HTML.html#74,74,1364,768,1364,768,8-22-2022,5-6-11,145,depth_duration_stimuli/001136_2014-06-17_15-19-41_260595134347_rgbf000076-resize_3/001136_2014-06-17_15-19-41_260595134347_rgbf000076-resize_3-target.png,1000,1.8655,30,3457,1000,meters,jsons/v1_VE1000_randls_26.json,957545,3093554,30,Woman
145,143952,DepthScenes,duration_manipulation_targetAtFixation,jsons/v1_VE1000_randls_26.json,http://54.235.29.9/FacialAge/BNav_EC2/DepthDuration/v2_depth_duration_MTurk/v2_DepthDuration_HTML.html#74,74,1364,768,1364,768,8-22-2022,5-6-11,146,depth_duration_stimuli/001498_2014-06-19_17-45-14_260595134347_rgbf000129-resize_4/001498_2014-06-19_17-45-14_260595134347_rgbf000129-resize-original.jpg,1000,1.4075,0,4820,1001,meters,jsons/v1_VE1000_randls_26.json,957545,3093554,30,Woman
146,143952,DepthScenes,duration_manipulation_targetAtFixation,jsons/v1_VE1000_randls_26.json,http://54.235.29.9/FacialAge/BNav_EC2/DepthDuration/v2_depth_duration_MTurk/v2_DepthDuration_HTML.html#74,74,1364,768,1364,768,8-22-2022,5-6-11,147,depth_duration_stimuli/002272_2014-06-28_18-53-56_260595134347_rgbf000067-resize_2/002272_2014-06-28_18-53-56_260595134347_rgbf000067-resize_2-target.png,1000,1.138,20,5082,1000,meters,jsons/v1_VE1000_randls_26.json,957545,3093554,30,Woman
147,143952,DepthScenes,duration_manipulation_targetAtFixation,jsons/v1_VE1000_randls_26.json,http://54.235.29.9/FacialAge/BNav_EC2/DepthDuration/v2_depth_duration_MTurk/v2_DepthDuration_HTML.html#74,74,1364,768,1364,768,8-22-2022,5-6-11,148,depth_duration_stimuli/001571_2014-06-20_17-21-32_260595134347_rgbf000089-resize_1/001571_2014-06-20_17-21-32_260595134347_rgbf000089-resize_1-target.png,1000,1.86,20,3885,1000,meters,jsons/v1_VE1000_randls_26.json,957545,3093554,30,Woman
148,143952,DepthScenes,duration_manipulation_targetAtFixation,jsons/v1_VE1000_randls_26.json,http://54.235.29.9/FacialAge/BNav_EC2/DepthDuration/v2_depth_duration_MTurk/v2_DepthDuration_HTML.html#74,74,1364,768,1364,768,8-22-2022,5-6-11,149,depth_duration_stimuli/000447_2014-06-08_16-15-46_260595134347_rgbf000130-resize_1/000447_2014-06-08_16-15-46_260595134347_rgbf000130-resize_1-target.png,1000,4.479,30,5145,1000,meters,jsons/v1_VE1000_randls_26.json,957545,3093554,30,Woman
149,143952,DepthScenes,duration_manipulation_targetAtFixation,jsons/v1_VE1000_randls_26.json,http://54.235.29.9/FacialAge/BNav_EC2/DepthDuration/v2_depth_duration_MTurk/v2_DepthDuration_HTML.html#74,74,1364,768,1364,768,8-22-2022,5-6-11,150,depth_duration_stimuli/001447_2014-06-19_17-00-32_260595134347_rgbf000082-resize_5/001447_2014-06-19_17-00-32_260595134347_rgbf000082-resize_5-target.png,1000,4.13775,30,3407,988,meters,jsons/v1_VE1000_randls_26.json,957545,3093554,30,Woman
150,143952,DepthScenes,duration_manipulation_targetAtFixation,jsons/v1_VE1000_randls_26.json,http://54.235.29.9/FacialAge/BNav_EC2/DepthDuration/v2_depth_duration_MTurk/v2_DepthDuration_HTML.html#74,74,1364,768,1364,768,8-22-2022,5-6-11,151,depth_duration_stimuli/000758_2014-06-08_22-05-08_260595134347_rgbf000085-resize_0/000758_2014-06-08_22-05-08_260595134347_rgbf000085-resize_0-target.png,1000,3.3810000000000002,25,5220,1000,meters,jsons/v1_VE1000_randls_26.json,957545,3093554,30,Woman
151,143952,DepthScenes,duration_manipulation_targetAtFixation,jsons/v1_VE1000_randls_26.json,http://54.235.29.9/FacialAge/BNav_EC2/DepthDuration/v2_depth_duration_MTurk/v2_DepthDuration_HTML.html#74,74,1364,768,1364,768,8-22-2022,5-6-11,152,depth_duration_stimuli/000854_2014-06-09_19-43-13_260595134347_rgbf000066-resize_0/000854_2014-06-09_19-43-13_260595134347_rgbf000066-resize_0-target.png,1000,3.068,25,3320,1000,meters,jsons/v1_VE1000_randls_26.json,957545,3093554,30,Woman
152,143952,DepthScenes,duration_manipulation_targetAtFixation,jsons/v1_VE1000_randls_26.json,http://54.235.29.9/FacialAge/BNav_EC2/DepthDuration/v2_depth_duration_MTurk/v2_DepthDuration_HTML.html#74,74,1364,768,1364,768,8-22-2022,5-6-11,153,depth_duration_stimuli/002509_2014-06-24_13-19-22_094959634447_rgbf000077-resize_0/002509_2014-06-24_13-19-22_094959634447_rgbf000077-resize_0-target.png,1000,1.3065,20,5368,998,meters,jsons/v1_VE1000_randls_26.json,957545,3093554,30,Woman
153,143952,DepthScenes,duration_manipulation_targetAtFixation,jsons/v1_VE1000_randls_26.json,http://54.235.29.9/FacialAge/BNav_EC2/DepthDuration/v2_depth_duration_MTurk/v2_DepthDuration_HTML.html#74,74,1364,768,1364,768,8-22-2022,5-6-11,154,depth_duration_stimuli/003338_2014-05-20_11-01-23_094959634447_rgbf000051-resize_6/003338_2014-05-20_11-01-23_094959634447_rgbf000051-resize_6-target.png,1000,1.693,20,6291,1000,meters,jsons/v1_VE1000_randls_26.json,957545,3093554,30,Woman
154,143952,DepthScenes,duration_manipulation_targetAtFixation,jsons/v1_VE1000_randls_26.json,http://54.235.29.9/FacialAge/BNav_EC2/DepthDuration/v2_depth_duration_MTurk/v2_DepthDuration_HTML.html#74,74,1364,768,1364,768,8-22-2022,5-6-11,155,depth_duration_stimuli/002279_2014-06-28_18-55-32_260595134347_rgbf000040-resize_5/002279_2014-06-28_18-55-32_260595134347_rgbf000040-resize_5-target.png,1000,1.5043333333333,20,7802,999,meters,jsons/v1_VE1000_randls_26.json,957545,3093554,30,Woman
155,143952,DepthScenes,duration_manipulation_targetAtFixation,jsons/v1_VE1000_randls_26.json,http://54.235.29.9/FacialAge/BNav_EC2/DepthDuration/v2_depth_duration_MTurk/v2_DepthDuration_HTML.html#74,74,1364,768,1364,768,8-22-2022,5-6-11,156,depth_duration_stimuli/000635_2014-06-08_16-38-42_260595134347_rgbf000106-resize_1/000635_2014-06-08_16-38-42_260595134347_rgbf000106-resize_1-target.png,1000,2.074,30,3671,1000,meters,jsons/v1_VE1000_randls_26.json,957545,3093554,30,Woman
156,143952,DepthScenes,duration_manipulation_targetAtFixation,jsons/v1_VE1000_randls_26.json,http://54.235.29.9/FacialAge/BNav_EC2/DepthDuration/v2_depth_duration_MTurk/v2_DepthDuration_HTML.html#74,74,1364,768,1364,768,8-22-2022,5-6-11,157,depth_duration_stimuli/002039_2014-06-24_20-22-38_260595134347_rgbf000084-resize_1/002039_2014-06-24_20-22-38_260595134347_rgbf000084-resize_1-target.png,1000,4.408,30,5240,999,meters,jsons/v1_VE1000_randls_26.json,957545,3093554,30,Woman
157,143952,DepthScenes,duration_manipulation_targetAtFixation,jsons/v1_VE1000_randls_26.json,http://54.235.29.9/FacialAge/BNav_EC2/DepthDuration/v2_depth_duration_MTurk/v2_DepthDuration_HTML.html#74,74,1364,768,1364,768,8-22-2022,5-6-11,158,depth_duration_stimuli/002103_2014-06-25_20-00-40_260595134347_rgbf000049-resize_0/002103_2014-06-25_20-00-40_260595134347_rgbf000049-resize_0-target.png,1000,4.105,0,3313,1001,meters,jsons/v1_VE1000_randls_26.json,957545,3093554,30,Woman
158,143952,DepthScenes,duration_manipulation_targetAtFixation,jsons/v1_VE1000_randls_26.json,http://54.235.29.9/FacialAge/BNav_EC2/DepthDuration/v2_depth_duration_MTurk/v2_DepthDuration_HTML.html#74,74,1364,768,1364,768,8-22-2022,5-6-11,159,depth_duration_stimuli/000009_2014-05-26_14-32-05_260595134347_rgbf000034-resize_3/000009_2014-05-26_14-32-05_260595134347_rgbf000034-resize_3-target.png,1000,3.8715,30,4678,1000,meters,jsons/v1_VE1000_randls_26.json,957545,3093554,30,Woman
159,143952,DepthScenes,duration_manipulation_targetAtFixation,jsons/v1_VE1000_randls_26.json,http://54.235.29.9/FacialAge/BNav_EC2/DepthDuration/v2_depth_duration_MTurk/v2_DepthDuration_HTML.html#74,74,1364,768,1364,768,8-22-2022,5-6-11,160,depth_duration_stimuli/001828_2014-06-26_21-40-03_260595134347_rgbf000024-resize_0/001828_2014-06-26_21-40-03_260595134347_rgbf000024-resize_0-target.png,1000,4.8260000000000005,30,3549,1000,meters,jsons/v1_VE1000_randls_26.json,957545,3093554,30,Woman
160,143952,DepthScenes,duration_manipulation_targetAtFixation,jsons/v1_VE1000_randls_26.json,http://54.235.29.9/FacialAge/BNav_EC2/DepthDuration/v2_depth_duration_MTurk/v2_DepthDuration_HTML.html#74,74,1364,768,1364,768,8-22-2022,5-6-11,161,depth_duration_stimuli/001016_2014-06-09_16-16-10_260595134347_rgbf000112-resize_5/001016_2014-06-09_16-16-10_260595134347_rgbf000112-resize_5-target.png,1000,1.6565,30,5273,999,meters,jsons/v1_VE1000_randls_26.json,957545,3093554,30,Woman
161,143952,DepthScenes,duration_manipulation_targetAtFixation,jsons/v1_VE1000_randls_26.json,http://54.235.29.9/FacialAge/BNav_EC2/DepthDuration/v2_depth_duration_MTurk/v2_DepthDuration_HTML.html#74,74,1364,768,1364,768,8-22-2022,5-6-11,162,depth_duration_stimuli/002340_2014-06-28_20-05-46_260595134347_rgbf000113-resize_0/002340_2014-06-28_20-05-46_260595134347_rgbf000113-resize_0-target.png,1000,2.4735,30,3524,1000,meters,jsons/v1_VE1000_randls_26.json,957545,3093554,30,Woman
162,143952,DepthScenes,duration_manipulation_targetAtFixation,jsons/v1_VE1000_randls_26.json,http://54.235.29.9/FacialAge/BNav_EC2/DepthDuration/v2_depth_duration_MTurk/v2_DepthDuration_HTML.html#74,74,1364,768,1364,768,8-22-2022,5-6-11,163,depth_duration_stimuli/000917_2014-06-09_22-45-29_260595134347_rgbf000149-resize_3/000917_2014-06-09_22-45-29_260595134347_rgbf000149-resize_3-target.png,1000,4.1865,30,4557,1000,meters,jsons/v1_VE1000_randls_26.json,957545,3093554,30,Woman
163,143952,DepthScenes,duration_manipulation_targetAtFixation,jsons/v1_VE1000_randls_26.json,http://54.235.29.9/FacialAge/BNav_EC2/DepthDuration/v2_depth_duration_MTurk/v2_DepthDuration_HTML.html#74,74,1364,768,1364,768,8-22-2022,5-6-11,164,depth_duration_stimuli/002323_2014-06-28_20-01-54_260595134347_rgbf000051-resize_4/002323_2014-06-28_20-01-54_260595134347_rgbf000051-resize_4-target.png,1000,3.7310000000000003,30,3520,999,meters,jsons/v1_VE1000_randls_26.json,957545,3093554,30,Woman
