,subjID,experimentName,versionName,sequenceName,url,selected_row,windowWidth,windowHeight,screenWidth,screenHeight,startDate,startTime,trial,stimulus,duration,actual_depth,depth_estimate,trial_RT,log_sceneDuration,unitSelection,seq_filepath,experimentTime,totalTime,age,gender
0,145257,DepthScenes,duration_manipulation_targetAtFixation,jsons/v1_VE1000_randls_73_rotated.json,http://54.235.29.9/FacialAge/BNav_EC2/DepthDuration/v2_depth_duration_MTurk/v2_DepthDuration_HTML.html#82,82,1366,625,1366,768,8-22-2022,8-35-52,1,depth_duration_stimuli/000749_2014-06-08_21-55-06_260595134347_rgbf000070-resize_2/000749_2014-06-08_21-55-06_260595134347_rgbf000070-resize_2-target.png,1000,2.331,2,3263,1003,meters,jsons/v1_VE1000_randls_73_rotated.json,888747,995525,48,Woman
1,145257,DepthScenes,duration_manipulation_targetAtFixation,jsons/v1_VE1000_randls_73_rotated.json,http://54.235.29.9/FacialAge/BNav_EC2/DepthDuration/v2_depth_duration_MTurk/v2_DepthDuration_HTML.html#82,82,1366,625,1366,768,8-22-2022,8-35-52,2,depth_duration_stimuli/002788_2014-06-22_19-36-03_094959634447_rgbf000088-resize_2/002788_2014-06-22_19-36-03_094959634447_rgbf000088-resize_2-target.png,1000,1.6465,4,3384,1075,meters,jsons/v1_VE1000_randls_73_rotated.json,888747,995525,48,Woman
2,145257,DepthScenes,duration_manipulation_targetAtFixation,jsons/v1_VE1000_randls_73_rotated.json,http://54.235.29.9/FacialAge/BNav_EC2/DepthDuration/v2_depth_duration_MTurk/v2_DepthDuration_HTML.html#82,82,1366,625,1366,768,8-22-2022,8-35-52,3,depth_duration_stimuli/002758_2014-06-22_19-11-20_094959634447_rgbf000128-resize_1/002758_2014-06-22_19-11-20_094959634447_rgbf000128-resize_1-target.png,1000,2.555,3,3244,1004,meters,jsons/v1_VE1000_randls_73_rotated.json,888747,995525,48,Woman
3,145257,DepthScenes,duration_manipulation_targetAtFixation,jsons/v1_VE1000_randls_73_rotated.json,http://54.235.29.9/FacialAge/BNav_EC2/DepthDuration/v2_depth_duration_MTurk/v2_DepthDuration_HTML.html#82,82,1366,625,1366,768,8-22-2022,8-35-52,4,depth_duration_stimuli/002630_2014-06-24_14-47-50_094959634447_rgbf000055-resize_1/002630_2014-06-24_14-47-50_094959634447_rgbf000055-resize_1-target.png,1000,3.0095,4,2976,1014,meters,jsons/v1_VE1000_randls_73_rotated.json,888747,995525,48,Woman
4,145257,DepthScenes,duration_manipulation_targetAtFixation,jsons/v1_VE1000_randls_73_rotated.json,http://54.235.29.9/FacialAge/BNav_EC2/DepthDuration/v2_depth_duration_MTurk/v2_DepthDuration_HTML.html#82,82,1366,625,1366,768,8-22-2022,8-35-52,5,depth_duration_stimuli/002568_2014-06-24_13-59-21_094959634447_rgbf000062-resize_4/002568_2014-06-24_13-59-21_094959634447_rgbf000062-resize_4-target.png,1000,3.015,4,2765,997,meters,jsons/v1_VE1000_randls_73_rotated.json,888747,995525,48,Woman
5,145257,DepthScenes,duration_manipulation_targetAtFixation,jsons/v1_VE1000_randls_73_rotated.json,http://54.235.29.9/FacialAge/BNav_EC2/DepthDuration/v2_depth_duration_MTurk/v2_DepthDuration_HTML.html#82,82,1366,625,1366,768,8-22-2022,8-35-52,6,depth_duration_stimuli/003492_2014-05-21_15-50-55_094959634447_rgbf000828-resize_1/003492_2014-05-21_15-50-55_094959634447_rgbf000828-resize_1-target.png,1000,4.06875,4,2435,991,meters,jsons/v1_VE1000_randls_73_rotated.json,888747,995525,48,Woman
6,145257,DepthScenes,duration_manipulation_targetAtFixation,jsons/v1_VE1000_randls_73_rotated.json,http://54.235.29.9/FacialAge/BNav_EC2/DepthDuration/v2_depth_duration_MTurk/v2_DepthDuration_HTML.html#82,82,1366,625,1366,768,8-22-2022,8-35-52,7,depth_duration_stimuli/001132_2014-06-17_14-48-54_260595134347_rgbf000100-resize_2/001132_2014-06-17_14-48-54_260595134347_rgbf000100-resize_2-target.png,1000,3.753,4,2437,984,meters,jsons/v1_VE1000_randls_73_rotated.json,888747,995525,48,Woman
7,145257,DepthScenes,duration_manipulation_targetAtFixation,jsons/v1_VE1000_randls_73_rotated.json,http://54.235.29.9/FacialAge/BNav_EC2/DepthDuration/v2_depth_duration_MTurk/v2_DepthDuration_HTML.html#82,82,1366,625,1366,768,8-22-2022,8-35-52,8,depth_duration_stimuli/001133_2014-06-17_14-49-16_260595134347_rgbf000100-resize_0/001133_2014-06-17_14-49-16_260595134347_rgbf000100-resize_0-target.png,1000,4.2115,2,3138,997,meters,jsons/v1_VE1000_randls_73_rotated.json,888747,995525,48,Woman
8,145257,DepthScenes,duration_manipulation_targetAtFixation,jsons/v1_VE1000_randls_73_rotated.json,http://54.235.29.9/FacialAge/BNav_EC2/DepthDuration/v2_depth_duration_MTurk/v2_DepthDuration_HTML.html#82,82,1366,625,1366,768,8-22-2022,8-35-52,9,depth_duration_stimuli/000457_2014-06-08_16-52-43_260595134347_rgbf000199-resize_1/000457_2014-06-08_16-52-43_260595134347_rgbf000199-resize_1-target.png,1000,3.6489999999999996,3,2738,999,meters,jsons/v1_VE1000_randls_73_rotated.json,888747,995525,48,Woman
9,145257,DepthScenes,duration_manipulation_targetAtFixation,jsons/v1_VE1000_randls_73_rotated.json,http://54.235.29.9/FacialAge/BNav_EC2/DepthDuration/v2_depth_duration_MTurk/v2_DepthDuration_HTML.html#82,82,1366,625,1366,768,8-22-2022,8-35-52,10,depth_duration_stimuli/000929_2014-06-09_16-33-19_260595134347_rgbf000139-resize_0/000929_2014-06-09_16-33-19_260595134347_rgbf000139-resize_0-target.png,1000,2.8680000000000003,3,2495,998,meters,jsons/v1_VE1000_randls_73_rotated.json,888747,995525,48,Woman
10,145257,DepthScenes,duration_manipulation_targetAtFixation,jsons/v1_VE1000_randls_73_rotated.json,http://54.235.29.9/FacialAge/BNav_EC2/DepthDuration/v2_depth_duration_MTurk/v2_DepthDuration_HTML.html#82,82,1366,625,1366,768,8-22-2022,8-35-52,11,depth_duration_stimuli/001516_2014-06-20_16-25-09_260595134347_rgbf000076-resize_2/001516_2014-06-20_16-25-09_260595134347_rgbf000076-resize_2-target.png,1000,1.7445,2,2650,996,meters,jsons/v1_VE1000_randls_73_rotated.json,888747,995525,48,Woman
11,145257,DepthScenes,duration_manipulation_targetAtFixation,jsons/v1_VE1000_randls_73_rotated.json,http://54.235.29.9/FacialAge/BNav_EC2/DepthDuration/v2_depth_duration_MTurk/v2_DepthDuration_HTML.html#82,82,1366,625,1366,768,8-22-2022,8-35-52,12,depth_duration_stimuli/002118_2014-06-25_20-32-08_260595134347_rgbf000078-resize_1/002118_2014-06-25_20-32-08_260595134347_rgbf000078-resize_1-target.png,1000,2.6460000000000004,2,2555,997,meters,jsons/v1_VE1000_randls_73_rotated.json,888747,995525,48,Woman
12,145257,DepthScenes,duration_manipulation_targetAtFixation,jsons/v1_VE1000_randls_73_rotated.json,http://54.235.29.9/FacialAge/BNav_EC2/DepthDuration/v2_depth_duration_MTurk/v2_DepthDuration_HTML.html#82,82,1366,625,1366,768,8-22-2022,8-35-52,13,depth_duration_stimuli/002657_2014-06-13_15-29-54_094959634447_rgbf000150-resize_1/002657_2014-06-13_15-29-54_094959634447_rgbf000150-resize_1-target.png,1000,4.919,2,2400,992,meters,jsons/v1_VE1000_randls_73_rotated.json,888747,995525,48,Woman
13,145257,DepthScenes,duration_manipulation_targetAtFixation,jsons/v1_VE1000_randls_73_rotated.json,http://54.235.29.9/FacialAge/BNav_EC2/DepthDuration/v2_depth_duration_MTurk/v2_DepthDuration_HTML.html#82,82,1366,625,1366,768,8-22-2022,8-35-52,14,depth_duration_stimuli/002375_2014-06-28_20-13-44_260595134347_rgbf000032-resize_1/002375_2014-06-28_20-13-44_260595134347_rgbf000032-resize_1-target.png,1000,4.0175,2,2449,1002,meters,jsons/v1_VE1000_randls_73_rotated.json,888747,995525,48,Woman
14,145257,DepthScenes,duration_manipulation_targetAtFixation,jsons/v1_VE1000_randls_73_rotated.json,http://54.235.29.9/FacialAge/BNav_EC2/DepthDuration/v2_depth_duration_MTurk/v2_DepthDuration_HTML.html#82,82,1366,625,1366,768,8-22-2022,8-35-52,15,depth_duration_stimuli/003490_2014-05-21_15-50-11_094959634447_rgbf000101-resize_3/003490_2014-05-21_15-50-11_094959634447_rgbf000101-resize_3-target.png,1000,3.6445,2,2621,1032,meters,jsons/v1_VE1000_randls_73_rotated.json,888747,995525,48,Woman
15,145257,DepthScenes,duration_manipulation_targetAtFixation,jsons/v1_VE1000_randls_73_rotated.json,http://54.235.29.9/FacialAge/BNav_EC2/DepthDuration/v2_depth_duration_MTurk/v2_DepthDuration_HTML.html#82,82,1366,625,1366,768,8-22-2022,8-35-52,16,depth_duration_stimuli/001175_2014-06-17_15-45-55_260595134347_rgbf000129-resize_4/001175_2014-06-17_15-45-55_260595134347_rgbf000129-resize_4-target.png,1000,4.255,2,2537,1000,meters,jsons/v1_VE1000_randls_73_rotated.json,888747,995525,48,Woman
16,145257,DepthScenes,duration_manipulation_targetAtFixation,jsons/v1_VE1000_randls_73_rotated.json,http://54.235.29.9/FacialAge/BNav_EC2/DepthDuration/v2_depth_duration_MTurk/v2_DepthDuration_HTML.html#82,82,1366,625,1366,768,8-22-2022,8-35-52,17,depth_duration_stimuli/002199_2014-06-28_18-33-56_260595134347_rgbf000074-resize_0/002199_2014-06-28_18-33-56_260595134347_rgbf000074-resize_0-target.png,1000,1.996,2,2945,1012,meters,jsons/v1_VE1000_randls_73_rotated.json,888747,995525,48,Woman
17,145257,DepthScenes,duration_manipulation_targetAtFixation,jsons/v1_VE1000_randls_73_rotated.json,http://54.235.29.9/FacialAge/BNav_EC2/DepthDuration/v2_depth_duration_MTurk/v2_DepthDuration_HTML.html#82,82,1366,625,1366,768,8-22-2022,8-35-52,18,depth_duration_stimuli/001056_2014-06-08_18-46-44_260595134347_rgbf000068-resize_0/001056_2014-06-08_18-46-44_260595134347_rgbf000068-resize_0-target.png,1000,2.6625,3,6703,1033,meters,jsons/v1_VE1000_randls_73_rotated.json,888747,995525,48,Woman
18,145257,DepthScenes,duration_manipulation_targetAtFixation,jsons/v1_VE1000_randls_73_rotated.json,http://54.235.29.9/FacialAge/BNav_EC2/DepthDuration/v2_depth_duration_MTurk/v2_DepthDuration_HTML.html#82,82,1366,625,1366,768,8-22-2022,8-35-52,19,depth_duration_stimuli/001498_2014-06-19_17-45-14_260595134347_rgbf000129-resize_4/001498_2014-06-19_17-45-14_260595134347_rgbf000129-resize-original.jpg,1000,1.4075,0,2858,994,meters,jsons/v1_VE1000_randls_73_rotated.json,888747,995525,48,Woman
19,145257,DepthScenes,duration_manipulation_targetAtFixation,jsons/v1_VE1000_randls_73_rotated.json,http://54.235.29.9/FacialAge/BNav_EC2/DepthDuration/v2_depth_duration_MTurk/v2_DepthDuration_HTML.html#82,82,1366,625,1366,768,8-22-2022,8-35-52,20,depth_duration_stimuli/003081_2014-06-15_15-19-16_094959634447_rgbf000150-resize_1/003081_2014-06-15_15-19-16_094959634447_rgbf000150-resize_1-target.png,1000,3.9125,2,2720,998,meters,jsons/v1_VE1000_randls_73_rotated.json,888747,995525,48,Woman
20,145257,DepthScenes,duration_manipulation_targetAtFixation,jsons/v1_VE1000_randls_73_rotated.json,http://54.235.29.9/FacialAge/BNav_EC2/DepthDuration/v2_depth_duration_MTurk/v2_DepthDuration_HTML.html#82,82,1366,625,1366,768,8-22-2022,8-35-52,21,depth_duration_stimuli/001417_2014-06-19_16-25-36_260595134347_rgbf000115-resize_5/001417_2014-06-19_16-25-36_260595134347_rgbf000115-resize_5-target.png,1000,4.6255,2,2577,1016,meters,jsons/v1_VE1000_randls_73_rotated.json,888747,995525,48,Woman
21,145257,DepthScenes,duration_manipulation_targetAtFixation,jsons/v1_VE1000_randls_73_rotated.json,http://54.235.29.9/FacialAge/BNav_EC2/DepthDuration/v2_depth_duration_MTurk/v2_DepthDuration_HTML.html#82,82,1366,625,1366,768,8-22-2022,8-35-52,22,depth_duration_stimuli/003587_2014-05-23_16-48-02_094959634447_rgbf002384-resize_2/003587_2014-05-23_16-48-02_094959634447_rgbf002384-resize_2-target.png,1000,1.357,2,2743,990,meters,jsons/v1_VE1000_randls_73_rotated.json,888747,995525,48,Woman
22,145257,DepthScenes,duration_manipulation_targetAtFixation,jsons/v1_VE1000_randls_73_rotated.json,http://54.235.29.9/FacialAge/BNav_EC2/DepthDuration/v2_depth_duration_MTurk/v2_DepthDuration_HTML.html#82,82,1366,625,1366,768,8-22-2022,8-35-52,23,depth_duration_stimuli/001167_2014-06-17_15-38-07_260595134347_rgbf000108-resize_0/001167_2014-06-17_15-38-07_260595134347_rgbf000108-resize_0-target.png,1000,1.8505,2,2714,995,meters,jsons/v1_VE1000_randls_73_rotated.json,888747,995525,48,Woman
23,145257,DepthScenes,duration_manipulation_targetAtFixation,jsons/v1_VE1000_randls_73_rotated.json,http://54.235.29.9/FacialAge/BNav_EC2/DepthDuration/v2_depth_duration_MTurk/v2_DepthDuration_HTML.html#82,82,1366,625,1366,768,8-22-2022,8-35-52,24,depth_duration_stimuli/002545_2014-06-24_13-38-53_094959634447_rgbf000080-resize_4/002545_2014-06-24_13-38-53_094959634447_rgbf000080-resize_4-target.png,1000,1.9205,3,3224,998,meters,jsons/v1_VE1000_randls_73_rotated.json,888747,995525,48,Woman
24,145257,DepthScenes,duration_manipulation_targetAtFixation,jsons/v1_VE1000_randls_73_rotated.json,http://54.235.29.9/FacialAge/BNav_EC2/DepthDuration/v2_depth_duration_MTurk/v2_DepthDuration_HTML.html#82,82,1366,625,1366,768,8-22-2022,8-35-52,25,depth_duration_stimuli/001092_2014-06-15_17-34-58_260595134347_rgbf000171-resize_3/001092_2014-06-15_17-34-58_260595134347_rgbf000171-resize_3-target.png,1000,2.6935,3,2876,1002,meters,jsons/v1_VE1000_randls_73_rotated.json,888747,995525,48,Woman
25,145257,DepthScenes,duration_manipulation_targetAtFixation,jsons/v1_VE1000_randls_73_rotated.json,http://54.235.29.9/FacialAge/BNav_EC2/DepthDuration/v2_depth_duration_MTurk/v2_DepthDuration_HTML.html#82,82,1366,625,1366,768,8-22-2022,8-35-52,26,depth_duration_stimuli/002949_2014-06-26_15-57-42_094959634447_rgbf000079-resize_1/002949_2014-06-26_15-57-42_094959634447_rgbf000079-resize_1-target.png,1000,1.8915,3,2393,999,meters,jsons/v1_VE1000_randls_73_rotated.json,888747,995525,48,Woman
26,145257,DepthScenes,duration_manipulation_targetAtFixation,jsons/v1_VE1000_randls_73_rotated.json,http://54.235.29.9/FacialAge/BNav_EC2/DepthDuration/v2_depth_duration_MTurk/v2_DepthDuration_HTML.html#82,82,1366,625,1366,768,8-22-2022,8-35-52,27,depth_duration_stimuli/000522_2014-06-08_13-35-06_260595134347_rgbf000244-resize_1/000522_2014-06-08_13-35-06_260595134347_rgbf000244-resize_1-target.png,1000,2.3715,2,2407,1004,meters,jsons/v1_VE1000_randls_73_rotated.json,888747,995525,48,Woman
27,145257,DepthScenes,duration_manipulation_targetAtFixation,jsons/v1_VE1000_randls_73_rotated.json,http://54.235.29.9/FacialAge/BNav_EC2/DepthDuration/v2_depth_duration_MTurk/v2_DepthDuration_HTML.html#82,82,1366,625,1366,768,8-22-2022,8-35-52,28,depth_duration_stimuli/001235_2014-06-17_16-37-36_260595134347_rgbf000084-resize_4/001235_2014-06-17_16-37-36_260595134347_rgbf000084-resize_4-target.png,1000,3.6605,2,2793,994,meters,jsons/v1_VE1000_randls_73_rotated.json,888747,995525,48,Woman
28,145257,DepthScenes,duration_manipulation_targetAtFixation,jsons/v1_VE1000_randls_73_rotated.json,http://54.235.29.9/FacialAge/BNav_EC2/DepthDuration/v2_depth_duration_MTurk/v2_DepthDuration_HTML.html#82,82,1366,625,1366,768,8-22-2022,8-35-52,29,depth_duration_stimuli/000788_2014-06-08_22-34-36_260595134347_rgbf000131-resize_1/000788_2014-06-08_22-34-36_260595134347_rgbf000131-resize_1-target.png,1000,3.359,2,2388,1003,meters,jsons/v1_VE1000_randls_73_rotated.json,888747,995525,48,Woman
29,145257,DepthScenes,duration_manipulation_targetAtFixation,jsons/v1_VE1000_randls_73_rotated.json,http://54.235.29.9/FacialAge/BNav_EC2/DepthDuration/v2_depth_duration_MTurk/v2_DepthDuration_HTML.html#82,82,1366,625,1366,768,8-22-2022,8-35-52,30,depth_duration_stimuli/002072_2014-06-24_21-48-06_260595134347_rgbf000115-resize_0/002072_2014-06-24_21-48-06_260595134347_rgbf000115-resize-original.jpg,1000,4.702,0,3248,1012,meters,jsons/v1_VE1000_randls_73_rotated.json,888747,995525,48,Woman
30,145257,DepthScenes,duration_manipulation_targetAtFixation,jsons/v1_VE1000_randls_73_rotated.json,http://54.235.29.9/FacialAge/BNav_EC2/DepthDuration/v2_depth_duration_MTurk/v2_DepthDuration_HTML.html#82,82,1366,625,1366,768,8-22-2022,8-35-52,31,depth_duration_stimuli/001136_2014-06-17_15-19-41_260595134347_rgbf000076-resize_3/001136_2014-06-17_15-19-41_260595134347_rgbf000076-resize_3-target.png,1000,1.8655,2,5129,998,meters,jsons/v1_VE1000_randls_73_rotated.json,888747,995525,48,Woman
31,145257,DepthScenes,duration_manipulation_targetAtFixation,jsons/v1_VE1000_randls_73_rotated.json,http://54.235.29.9/FacialAge/BNav_EC2/DepthDuration/v2_depth_duration_MTurk/v2_DepthDuration_HTML.html#82,82,1366,625,1366,768,8-22-2022,8-35-52,32,depth_duration_stimuli/001164_2014-06-17_15-35-46_260595134347_rgbf000085-resize_3/001164_2014-06-17_15-35-46_260595134347_rgbf000085-resize_3-target.png,1000,2.354,2,2801,999,meters,jsons/v1_VE1000_randls_73_rotated.json,888747,995525,48,Woman
32,145257,DepthScenes,duration_manipulation_targetAtFixation,jsons/v1_VE1000_randls_73_rotated.json,http://54.235.29.9/FacialAge/BNav_EC2/DepthDuration/v2_depth_duration_MTurk/v2_DepthDuration_HTML.html#82,82,1366,625,1366,768,8-22-2022,8-35-52,33,depth_duration_stimuli/003079_2014-06-15_15-18-20_094959634447_rgbf000152-resize_8/003079_2014-06-15_15-18-20_094959634447_rgbf000152-resize_8-target.png,1000,2.8775,2,2881,998,meters,jsons/v1_VE1000_randls_73_rotated.json,888747,995525,48,Woman
33,145257,DepthScenes,duration_manipulation_targetAtFixation,jsons/v1_VE1000_randls_73_rotated.json,http://54.235.29.9/FacialAge/BNav_EC2/DepthDuration/v2_depth_duration_MTurk/v2_DepthDuration_HTML.html#82,82,1366,625,1366,768,8-22-2022,8-35-52,34,depth_duration_stimuli/000506_2014-06-08_23-21-00_260595134347_rgbf000070-resize_7/000506_2014-06-08_23-21-00_260595134347_rgbf000070-resize_7-target.png,1000,4.0585,3,3291,1067,meters,jsons/v1_VE1000_randls_73_rotated.json,888747,995525,48,Woman
34,145257,DepthScenes,duration_manipulation_targetAtFixation,jsons/v1_VE1000_randls_73_rotated.json,http://54.235.29.9/FacialAge/BNav_EC2/DepthDuration/v2_depth_duration_MTurk/v2_DepthDuration_HTML.html#82,82,1366,625,1366,768,8-22-2022,8-35-52,35,depth_duration_stimuli/003338_2014-05-20_11-01-23_094959634447_rgbf000051-resize_6/003338_2014-05-20_11-01-23_094959634447_rgbf000051-resize_6-target.png,1000,1.693,2,2764,1032,meters,jsons/v1_VE1000_randls_73_rotated.json,888747,995525,48,Woman
35,145257,DepthScenes,duration_manipulation_targetAtFixation,jsons/v1_VE1000_randls_73_rotated.json,http://54.235.29.9/FacialAge/BNav_EC2/DepthDuration/v2_depth_duration_MTurk/v2_DepthDuration_HTML.html#82,82,1366,625,1366,768,8-22-2022,8-35-52,36,depth_duration_stimuli/002509_2014-06-24_13-19-22_094959634447_rgbf000077-resize_0/002509_2014-06-24_13-19-22_094959634447_rgbf000077-resize_0-target.png,1000,1.3065,2,2780,999,meters,jsons/v1_VE1000_randls_73_rotated.json,888747,995525,48,Woman
36,145257,DepthScenes,duration_manipulation_targetAtFixation,jsons/v1_VE1000_randls_73_rotated.json,http://54.235.29.9/FacialAge/BNav_EC2/DepthDuration/v2_depth_duration_MTurk/v2_DepthDuration_HTML.html#82,82,1366,625,1366,768,8-22-2022,8-35-52,37,depth_duration_stimuli/001392_2014-06-19_16-07-59_260595134347_rgbf000046-resize_1/001392_2014-06-19_16-07-59_260595134347_rgbf000046-resize_1-target.png,1000,4.135,2,2917,996,meters,jsons/v1_VE1000_randls_73_rotated.json,888747,995525,48,Woman
37,145257,DepthScenes,duration_manipulation_targetAtFixation,jsons/v1_VE1000_randls_73_rotated.json,http://54.235.29.9/FacialAge/BNav_EC2/DepthDuration/v2_depth_duration_MTurk/v2_DepthDuration_HTML.html#82,82,1366,625,1366,768,8-22-2022,8-35-52,38,depth_duration_stimuli/001570_2014-06-20_17-21-09_260595134347_rgbf000135-resize_4/001570_2014-06-20_17-21-09_260595134347_rgbf000135-resize_4-target.png,1000,4.467,3,3684,997,meters,jsons/v1_VE1000_randls_73_rotated.json,888747,995525,48,Woman
38,145257,DepthScenes,duration_manipulation_targetAtFixation,jsons/v1_VE1000_randls_73_rotated.json,http://54.235.29.9/FacialAge/BNav_EC2/DepthDuration/v2_depth_duration_MTurk/v2_DepthDuration_HTML.html#82,82,1366,625,1366,768,8-22-2022,8-35-52,39,depth_duration_stimuli/003423_2014-05-21_10-23-26_094959634447_rgbf002665-resize_2/003423_2014-05-21_10-23-26_094959634447_rgbf002665-resize_2-target.png,1000,3.2575,2,25307,1011,meters,jsons/v1_VE1000_randls_73_rotated.json,888747,995525,48,Woman
39,145257,DepthScenes,duration_manipulation_targetAtFixation,jsons/v1_VE1000_randls_73_rotated.json,http://54.235.29.9/FacialAge/BNav_EC2/DepthDuration/v2_depth_duration_MTurk/v2_DepthDuration_HTML.html#82,82,1366,625,1366,768,8-22-2022,8-35-52,40,depth_duration_stimuli/002905_2014-06-03_18-04-43_094959634447_rgbf000151-resize_2/002905_2014-06-03_18-04-43_094959634447_rgbf000151-resize_2-target.png,1000,2.0295,2,2868,987,meters,jsons/v1_VE1000_randls_73_rotated.json,888747,995525,48,Woman
40,145257,DepthScenes,duration_manipulation_targetAtFixation,jsons/v1_VE1000_randls_73_rotated.json,http://54.235.29.9/FacialAge/BNav_EC2/DepthDuration/v2_depth_duration_MTurk/v2_DepthDuration_HTML.html#82,82,1366,625,1366,768,8-22-2022,8-35-52,41,depth_duration_stimuli/000109_2014-05-14_23-41-52_260595134347_rgbf000035-resize_9/000109_2014-05-14_23-41-52_260595134347_rgbf000035-resize_9-target.png,1000,1.3545,2,2775,981,meters,jsons/v1_VE1000_randls_73_rotated.json,888747,995525,48,Woman
41,145257,DepthScenes,duration_manipulation_targetAtFixation,jsons/v1_VE1000_randls_73_rotated.json,http://54.235.29.9/FacialAge/BNav_EC2/DepthDuration/v2_depth_duration_MTurk/v2_DepthDuration_HTML.html#82,82,1366,625,1366,768,8-22-2022,8-35-52,42,depth_duration_stimuli/000470_2014-06-09_19-42-40_260595134347_rgbf000094-resize_1/000470_2014-06-09_19-42-40_260595134347_rgbf000094-resize_1-target.png,1000,1.831,3,2866,999,meters,jsons/v1_VE1000_randls_73_rotated.json,888747,995525,48,Woman
42,145257,DepthScenes,duration_manipulation_targetAtFixation,jsons/v1_VE1000_randls_73_rotated.json,http://54.235.29.9/FacialAge/BNav_EC2/DepthDuration/v2_depth_duration_MTurk/v2_DepthDuration_HTML.html#82,82,1366,625,1366,768,8-22-2022,8-35-52,43,depth_duration_stimuli/000734_2014-06-08_17-39-11_260595134347_rgbf000128-resize_2/000734_2014-06-08_17-39-11_260595134347_rgbf000128-resize_2-target.png,1000,4.098,3,2713,1000,meters,jsons/v1_VE1000_randls_73_rotated.json,888747,995525,48,Woman
43,145257,DepthScenes,duration_manipulation_targetAtFixation,jsons/v1_VE1000_randls_73_rotated.json,http://54.235.29.9/FacialAge/BNav_EC2/DepthDuration/v2_depth_duration_MTurk/v2_DepthDuration_HTML.html#82,82,1366,625,1366,768,8-22-2022,8-35-52,44,depth_duration_stimuli/000739_2014-06-08_18-45-58_260595134347_rgbf000068-resize_1/000739_2014-06-08_18-45-58_260595134347_rgbf000068-resize_1-target.png,1000,3.534,3,2802,997,meters,jsons/v1_VE1000_randls_73_rotated.json,888747,995525,48,Woman
44,145257,DepthScenes,duration_manipulation_targetAtFixation,jsons/v1_VE1000_randls_73_rotated.json,http://54.235.29.9/FacialAge/BNav_EC2/DepthDuration/v2_depth_duration_MTurk/v2_DepthDuration_HTML.html#82,82,1366,625,1366,768,8-22-2022,8-35-52,45,depth_duration_stimuli/003010_2014-06-15_12-54-35_094959634447_rgbf000112-resize_0/003010_2014-06-15_12-54-35_094959634447_rgbf000112-resize_0-target.png,1000,3.1185,3,2556,1006,meters,jsons/v1_VE1000_randls_73_rotated.json,888747,995525,48,Woman
45,145257,DepthScenes,duration_manipulation_targetAtFixation,jsons/v1_VE1000_randls_73_rotated.json,http://54.235.29.9/FacialAge/BNav_EC2/DepthDuration/v2_depth_duration_MTurk/v2_DepthDuration_HTML.html#82,82,1366,625,1366,768,8-22-2022,8-35-52,46,depth_duration_stimuli/001810_2014-06-26_20-51-35_260595134347_rgbf000040-resize_3/001810_2014-06-26_20-51-35_260595134347_rgbf000040-resize_3-target.png,1000,2.2525,3,2673,1010,meters,jsons/v1_VE1000_randls_73_rotated.json,888747,995525,48,Woman
46,145257,DepthScenes,duration_manipulation_targetAtFixation,jsons/v1_VE1000_randls_73_rotated.json,http://54.235.29.9/FacialAge/BNav_EC2/DepthDuration/v2_depth_duration_MTurk/v2_DepthDuration_HTML.html#82,82,1366,625,1366,768,8-22-2022,8-35-52,47,depth_duration_stimuli/000866_2014-06-09_20-45-42_260595134347_rgbf000139-resize_1/000866_2014-06-09_20-45-42_260595134347_rgbf000139-resize_1-target.png,1000,3.2155,3,2700,1002,meters,jsons/v1_VE1000_randls_73_rotated.json,888747,995525,48,Woman
47,145257,DepthScenes,duration_manipulation_targetAtFixation,jsons/v1_VE1000_randls_73_rotated.json,http://54.235.29.9/FacialAge/BNav_EC2/DepthDuration/v2_depth_duration_MTurk/v2_DepthDuration_HTML.html#82,82,1366,625,1366,768,8-22-2022,8-35-52,48,depth_duration_stimuli/002989_2014-06-15_12-25-03_094959634447_rgbf000150-resize_3/002989_2014-06-15_12-25-03_094959634447_rgbf000150-resize_3-target.png,1000,4.1975,3,2824,1000,meters,jsons/v1_VE1000_randls_73_rotated.json,888747,995525,48,Woman
48,145257,DepthScenes,duration_manipulation_targetAtFixation,jsons/v1_VE1000_randls_73_rotated.json,http://54.235.29.9/FacialAge/BNav_EC2/DepthDuration/v2_depth_duration_MTurk/v2_DepthDuration_HTML.html#82,82,1366,625,1366,768,8-22-2022,8-35-52,49,depth_duration_stimuli/001170_2014-06-17_15-43-44_260595134347_rgbf000096-resize_6/001170_2014-06-17_15-43-44_260595134347_rgbf000096-resize-original.jpg,1000,1.1909999999999998,3,4013,1009,meters,jsons/v1_VE1000_randls_73_rotated.json,888747,995525,48,Woman
49,145257,DepthScenes,duration_manipulation_targetAtFixation,jsons/v1_VE1000_randls_73_rotated.json,http://54.235.29.9/FacialAge/BNav_EC2/DepthDuration/v2_depth_duration_MTurk/v2_DepthDuration_HTML.html#82,82,1366,625,1366,768,8-22-2022,8-35-52,50,depth_duration_stimuli/001571_2014-06-20_17-21-32_260595134347_rgbf000089-resize_1/001571_2014-06-20_17-21-32_260595134347_rgbf000089-resize_1-target.png,1000,1.86,3,2713,997,meters,jsons/v1_VE1000_randls_73_rotated.json,888747,995525,48,Woman
50,145257,DepthScenes,duration_manipulation_targetAtFixation,jsons/v1_VE1000_randls_73_rotated.json,http://54.235.29.9/FacialAge/BNav_EC2/DepthDuration/v2_depth_duration_MTurk/v2_DepthDuration_HTML.html#82,82,1366,625,1366,768,8-22-2022,8-35-52,51,depth_duration_stimuli/002272_2014-06-28_18-53-56_260595134347_rgbf000067-resize_2/002272_2014-06-28_18-53-56_260595134347_rgbf000067-resize_2-target.png,1000,1.138,3,2717,991,meters,jsons/v1_VE1000_randls_73_rotated.json,888747,995525,48,Woman
51,145257,DepthScenes,duration_manipulation_targetAtFixation,jsons/v1_VE1000_randls_73_rotated.json,http://54.235.29.9/FacialAge/BNav_EC2/DepthDuration/v2_depth_duration_MTurk/v2_DepthDuration_HTML.html#82,82,1366,625,1366,768,8-22-2022,8-35-52,52,depth_duration_stimuli/002637_2014-06-24_14-51-13_094959634447_rgbf000066-resize_4/002637_2014-06-24_14-51-13_094959634447_rgbf000066-resize_4-target.png,1000,1.9955,2,2565,986,meters,jsons/v1_VE1000_randls_73_rotated.json,888747,995525,48,Woman
52,145257,DepthScenes,duration_manipulation_targetAtFixation,jsons/v1_VE1000_randls_73_rotated.json,http://54.235.29.9/FacialAge/BNav_EC2/DepthDuration/v2_depth_duration_MTurk/v2_DepthDuration_HTML.html#82,82,1366,625,1366,768,8-22-2022,8-35-52,53,depth_duration_stimuli/003534_2014-05-22_15-06-10_094959634447_rgbf000102-resize_4/003534_2014-05-22_15-06-10_094959634447_rgbf000102-resize_4-target.png,1000,1.426,3,2312,999,meters,jsons/v1_VE1000_randls_73_rotated.json,888747,995525,48,Woman
53,145257,DepthScenes,duration_manipulation_targetAtFixation,jsons/v1_VE1000_randls_73_rotated.json,http://54.235.29.9/FacialAge/BNav_EC2/DepthDuration/v2_depth_duration_MTurk/v2_DepthDuration_HTML.html#82,82,1366,625,1366,768,8-22-2022,8-35-52,54,depth_duration_stimuli/002425_2014-06-28_20-27-29_260595134347_rgbf000031-resize_8/002425_2014-06-28_20-27-29_260595134347_rgbf000031-resize_8-target.png,1000,3.8960000000000004,2,2780,990,meters,jsons/v1_VE1000_randls_73_rotated.json,888747,995525,48,Woman
54,145257,DepthScenes,duration_manipulation_targetAtFixation,jsons/v1_VE1000_randls_73_rotated.json,http://54.235.29.9/FacialAge/BNav_EC2/DepthDuration/v2_depth_duration_MTurk/v2_DepthDuration_HTML.html#82,82,1366,625,1366,768,8-22-2022,8-35-52,55,depth_duration_stimuli/000642_2014-06-08_16-59-25_260595134347_rgbf000098-resize_2/000642_2014-06-08_16-59-25_260595134347_rgbf000098-resize_2-target.png,1000,2.8815,2,34985,998,meters,jsons/v1_VE1000_randls_73_rotated.json,888747,995525,48,Woman
55,145257,DepthScenes,duration_manipulation_targetAtFixation,jsons/v1_VE1000_randls_73_rotated.json,http://54.235.29.9/FacialAge/BNav_EC2/DepthDuration/v2_depth_duration_MTurk/v2_DepthDuration_HTML.html#82,82,1366,625,1366,768,8-22-2022,8-35-52,56,depth_duration_stimuli/001052_2014-06-08_18-24-54_260595134347_rgbf000130-resize_1/001052_2014-06-08_18-24-54_260595134347_rgbf000130-resize_1-target.png,1000,4.1045,6,21001,1005,meters,jsons/v1_VE1000_randls_73_rotated.json,888747,995525,48,Woman
56,145257,DepthScenes,duration_manipulation_targetAtFixation,jsons/v1_VE1000_randls_73_rotated.json,http://54.235.29.9/FacialAge/BNav_EC2/DepthDuration/v2_depth_duration_MTurk/v2_DepthDuration_HTML.html#82,82,1366,625,1366,768,8-22-2022,8-35-52,57,depth_duration_stimuli/002988_2014-06-15_12-24-20_094959634447_rgbf000150-resize_1/002988_2014-06-15_12-24-20_094959634447_rgbf000150-resize_1-target.png,1000,4.7669999999999995,2,8023,996,meters,jsons/v1_VE1000_randls_73_rotated.json,888747,995525,48,Woman
57,145257,DepthScenes,duration_manipulation_targetAtFixation,jsons/v1_VE1000_randls_73_rotated.json,http://54.235.29.9/FacialAge/BNav_EC2/DepthDuration/v2_depth_duration_MTurk/v2_DepthDuration_HTML.html#82,82,1366,625,1366,768,8-22-2022,8-35-52,58,depth_duration_stimuli/003495_2014-05-21_16-01-51_094959634447_rgbf000100-resize_3/003495_2014-05-21_16-01-51_094959634447_rgbf000100-resize_3-target.png,1000,1.6255,3,6146,998,meters,jsons/v1_VE1000_randls_73_rotated.json,888747,995525,48,Woman
58,145257,DepthScenes,duration_manipulation_targetAtFixation,jsons/v1_VE1000_randls_73_rotated.json,http://54.235.29.9/FacialAge/BNav_EC2/DepthDuration/v2_depth_duration_MTurk/v2_DepthDuration_HTML.html#82,82,1366,625,1366,768,8-22-2022,8-35-52,59,depth_duration_stimuli/001244_2014-06-17_16-47-45_260595134347_rgbf000030-resize_4/001244_2014-06-17_16-47-45_260595134347_rgbf000030-resize_4-target.png,1000,2.0425,4,7620,1000,meters,jsons/v1_VE1000_randls_73_rotated.json,888747,995525,48,Woman
59,145257,DepthScenes,duration_manipulation_targetAtFixation,jsons/v1_VE1000_randls_73_rotated.json,http://54.235.29.9/FacialAge/BNav_EC2/DepthDuration/v2_depth_duration_MTurk/v2_DepthDuration_HTML.html#82,82,1366,625,1366,768,8-22-2022,8-35-52,60,depth_duration_stimuli/003048_2014-06-15_13-49-43_094959634447_rgbf000150-resize_1/003048_2014-06-15_13-49-43_094959634447_rgbf000150-resize_1-target.png,1000,4.0035,1,3982,1001,meters,jsons/v1_VE1000_randls_73_rotated.json,888747,995525,48,Woman
60,145257,DepthScenes,duration_manipulation_targetAtFixation,jsons/v1_VE1000_randls_73_rotated.json,http://54.235.29.9/FacialAge/BNav_EC2/DepthDuration/v2_depth_duration_MTurk/v2_DepthDuration_HTML.html#82,82,1366,625,1366,768,8-22-2022,8-35-52,61,depth_duration_stimuli/002043_2014-06-24_20-29-38_260595134347_rgbf000039-resize_4/002043_2014-06-24_20-29-38_260595134347_rgbf000039-resize_4-target.png,1000,2.8435,2,3431,986,meters,jsons/v1_VE1000_randls_73_rotated.json,888747,995525,48,Woman
61,145257,DepthScenes,duration_manipulation_targetAtFixation,jsons/v1_VE1000_randls_73_rotated.json,http://54.235.29.9/FacialAge/BNav_EC2/DepthDuration/v2_depth_duration_MTurk/v2_DepthDuration_HTML.html#82,82,1366,625,1366,768,8-22-2022,8-35-52,62,depth_duration_stimuli/001094_2014-06-15_17-36-00_260595134347_rgbf000205-resize_0/001094_2014-06-15_17-36-00_260595134347_rgbf000205-resize_0-target.png,1000,4.2175,1,2566,997,meters,jsons/v1_VE1000_randls_73_rotated.json,888747,995525,48,Woman
62,145257,DepthScenes,duration_manipulation_targetAtFixation,jsons/v1_VE1000_randls_73_rotated.json,http://54.235.29.9/FacialAge/BNav_EC2/DepthDuration/v2_depth_duration_MTurk/v2_DepthDuration_HTML.html#82,82,1366,625,1366,768,8-22-2022,8-35-52,63,depth_duration_stimuli/000692_2014-06-08_13-09-42_260595134347_rgbf000199-resize_2/000692_2014-06-08_13-09-42_260595134347_rgbf000199-resize_2-target.png,1000,3.661,2,5456,1012,meters,jsons/v1_VE1000_randls_73_rotated.json,888747,995525,48,Woman
63,145257,DepthScenes,duration_manipulation_targetAtFixation,jsons/v1_VE1000_randls_73_rotated.json,http://54.235.29.9/FacialAge/BNav_EC2/DepthDuration/v2_depth_duration_MTurk/v2_DepthDuration_HTML.html#82,82,1366,625,1366,768,8-22-2022,8-35-52,64,depth_duration_stimuli/000780_2014-06-08_22-28-29_260595134347_rgbf000126-resize_1/000780_2014-06-08_22-28-29_260595134347_rgbf000126-resize_1-target.png,1000,3.3825,21,2942,995,meters,jsons/v1_VE1000_randls_73_rotated.json,888747,995525,48,Woman
64,145257,DepthScenes,duration_manipulation_targetAtFixation,jsons/v1_VE1000_randls_73_rotated.json,http://54.235.29.9/FacialAge/BNav_EC2/DepthDuration/v2_depth_duration_MTurk/v2_DepthDuration_HTML.html#82,82,1366,625,1366,768,8-22-2022,8-35-52,65,depth_duration_stimuli/002445_2014-06-28_20-32-16_260595134347_rgbf000029-resize_4/002445_2014-06-28_20-32-16_260595134347_rgbf000029-resize_4-target.png,1000,2.5315,2,2707,998,meters,jsons/v1_VE1000_randls_73_rotated.json,888747,995525,48,Woman
65,145257,DepthScenes,duration_manipulation_targetAtFixation,jsons/v1_VE1000_randls_73_rotated.json,http://54.235.29.9/FacialAge/BNav_EC2/DepthDuration/v2_depth_duration_MTurk/v2_DepthDuration_HTML.html#82,82,1366,625,1366,768,8-22-2022,8-35-52,66,depth_duration_stimuli/001540_2014-06-20_17-01-05_260595134347_rgbf000086-resize_2/001540_2014-06-20_17-01-05_260595134347_rgbf000086-resize-original.jpg,1000,1.459,0,4097,1012,meters,jsons/v1_VE1000_randls_73_rotated.json,888747,995525,48,Woman
66,145257,DepthScenes,duration_manipulation_targetAtFixation,jsons/v1_VE1000_randls_73_rotated.json,http://54.235.29.9/FacialAge/BNav_EC2/DepthDuration/v2_depth_duration_MTurk/v2_DepthDuration_HTML.html#82,82,1366,625,1366,768,8-22-2022,8-35-52,67,depth_duration_stimuli/002995_2014-06-15_12-31-26_094959634447_rgbf000150-resize_1/002995_2014-06-15_12-31-26_094959634447_rgbf000150-resize_1-target.png,1000,3.8360000000000003,3,3384,997,meters,jsons/v1_VE1000_randls_73_rotated.json,888747,995525,48,Woman
67,145257,DepthScenes,duration_manipulation_targetAtFixation,jsons/v1_VE1000_randls_73_rotated.json,http://54.235.29.9/FacialAge/BNav_EC2/DepthDuration/v2_depth_duration_MTurk/v2_DepthDuration_HTML.html#82,82,1366,625,1366,768,8-22-2022,8-35-52,68,depth_duration_stimuli/002748_2014-06-22_19-07-22_094959634447_rgbf000078-resize_1/002748_2014-06-22_19-07-22_094959634447_rgbf000078-resize_1-target.png,1000,4.6705,5,4829,1001,meters,jsons/v1_VE1000_randls_73_rotated.json,888747,995525,48,Woman
68,145257,DepthScenes,duration_manipulation_targetAtFixation,jsons/v1_VE1000_randls_73_rotated.json,http://54.235.29.9/FacialAge/BNav_EC2/DepthDuration/v2_depth_duration_MTurk/v2_DepthDuration_HTML.html#82,82,1366,625,1366,768,8-22-2022,8-35-52,69,depth_duration_stimuli/001032_2014-06-08_13-23-17_260595134347_rgbf000021-resize_3/001032_2014-06-08_13-23-17_260595134347_rgbf000021-resize_3-target.png,1000,3.2725,6,2828,1001,meters,jsons/v1_VE1000_randls_73_rotated.json,888747,995525,48,Woman
69,145257,DepthScenes,duration_manipulation_targetAtFixation,jsons/v1_VE1000_randls_73_rotated.json,http://54.235.29.9/FacialAge/BNav_EC2/DepthDuration/v2_depth_duration_MTurk/v2_DepthDuration_HTML.html#82,82,1366,625,1366,768,8-22-2022,8-35-52,70,depth_duration_stimuli/001059_2014-06-08_21-53-27_260595134347_rgbf000061-resize_4/001059_2014-06-08_21-53-27_260595134347_rgbf000061-resize_4-target.png,1000,2.4185,2,2742,988,meters,jsons/v1_VE1000_randls_73_rotated.json,888747,995525,48,Woman
70,145257,DepthScenes,duration_manipulation_targetAtFixation,jsons/v1_VE1000_randls_73_rotated.json,http://54.235.29.9/FacialAge/BNav_EC2/DepthDuration/v2_depth_duration_MTurk/v2_DepthDuration_HTML.html#82,82,1366,625,1366,768,8-22-2022,8-35-52,71,depth_duration_stimuli/000943_2014-06-09_19-31-07_260595134347_rgbf000128-resize_1/000943_2014-06-09_19-31-07_260595134347_rgbf000128-resize_1-target.png,1000,1.9765,3,2660,996,meters,jsons/v1_VE1000_randls_73_rotated.json,888747,995525,48,Woman
71,145257,DepthScenes,duration_manipulation_targetAtFixation,jsons/v1_VE1000_randls_73_rotated.json,http://54.235.29.9/FacialAge/BNav_EC2/DepthDuration/v2_depth_duration_MTurk/v2_DepthDuration_HTML.html#82,82,1366,625,1366,768,8-22-2022,8-35-52,72,depth_duration_stimuli/003070_2014-06-15_14-58-27_094959634447_rgbf000150-resize_3/003070_2014-06-15_14-58-27_094959634447_rgbf000150-resize_3-target.png,1000,2.9415,3,2787,1000,meters,jsons/v1_VE1000_randls_73_rotated.json,888747,995525,48,Woman
72,145257,DepthScenes,duration_manipulation_targetAtFixation,jsons/v1_VE1000_randls_73_rotated.json,http://54.235.29.9/FacialAge/BNav_EC2/DepthDuration/v2_depth_duration_MTurk/v2_DepthDuration_HTML.html#82,82,1366,625,1366,768,8-22-2022,8-35-52,73,depth_duration_stimuli/000927_2014-06-09_16-32-30_260595134347_rgbf000123-resize_3/000927_2014-06-09_16-32-30_260595134347_rgbf000123-resize_3-target.png,1000,2.6785,2,3046,998,meters,jsons/v1_VE1000_randls_73_rotated.json,888747,995525,48,Woman
73,145257,DepthScenes,duration_manipulation_targetAtFixation,jsons/v1_VE1000_randls_73_rotated.json,http://54.235.29.9/FacialAge/BNav_EC2/DepthDuration/v2_depth_duration_MTurk/v2_DepthDuration_HTML.html#82,82,1366,625,1366,768,8-22-2022,8-35-52,74,depth_duration_stimuli/001110_2014-06-15_17-25-28_260595134347_rgbf000150-resize_1/001110_2014-06-15_17-25-28_260595134347_rgbf000150-resize_1-target.png,1000,1.7115,3,2782,1002,meters,jsons/v1_VE1000_randls_73_rotated.json,888747,995525,48,Woman
74,145257,DepthScenes,duration_manipulation_targetAtFixation,jsons/v1_VE1000_randls_73_rotated.json,http://54.235.29.9/FacialAge/BNav_EC2/DepthDuration/v2_depth_duration_MTurk/v2_DepthDuration_HTML.html#82,82,1366,625,1366,768,8-22-2022,8-35-52,75,depth_duration_stimuli/003083_2014-06-15_15-21-03_094959634447_rgbf000063-resize_1/003083_2014-06-15_15-21-03_094959634447_rgbf000063-resize_1-target.png,1000,4.1405,3,2856,1000,meters,jsons/v1_VE1000_randls_73_rotated.json,888747,995525,48,Woman
75,145257,DepthScenes,duration_manipulation_targetAtFixation,jsons/v1_VE1000_randls_73_rotated.json,http://54.235.29.9/FacialAge/BNav_EC2/DepthDuration/v2_depth_duration_MTurk/v2_DepthDuration_HTML.html#82,82,1366,625,1366,768,8-22-2022,8-35-52,76,depth_duration_stimuli/000486_2014-06-09_20-47-20_260595134347_rgbf000143-resize_2/000486_2014-06-09_20-47-20_260595134347_rgbf000143-resize_2-target.png,1000,4.8325,3,2658,1013,meters,jsons/v1_VE1000_randls_73_rotated.json,888747,995525,48,Woman
76,145257,DepthScenes,duration_manipulation_targetAtFixation,jsons/v1_VE1000_randls_73_rotated.json,http://54.235.29.9/FacialAge/BNav_EC2/DepthDuration/v2_depth_duration_MTurk/v2_DepthDuration_HTML.html#82,82,1366,625,1366,768,8-22-2022,8-35-52,77,depth_duration_stimuli/002209_2014-06-28_18-36-10_260595134347_rgbf000051-resize_1/002209_2014-06-28_18-36-10_260595134347_rgbf000051-resize_1-target.png,1000,2.057,3,3652,997,meters,jsons/v1_VE1000_randls_73_rotated.json,888747,995525,48,Woman
77,145257,DepthScenes,duration_manipulation_targetAtFixation,jsons/v1_VE1000_randls_73_rotated.json,http://54.235.29.9/FacialAge/BNav_EC2/DepthDuration/v2_depth_duration_MTurk/v2_DepthDuration_HTML.html#82,82,1366,625,1366,768,8-22-2022,8-35-52,78,depth_duration_stimuli/002763_2014-06-22_19-13-10_094959634447_rgbf000075-resize_4/002763_2014-06-22_19-13-10_094959634447_rgbf000075-resize_4-target.png,1000,1.68375,3,6032,999,meters,jsons/v1_VE1000_randls_73_rotated.json,888747,995525,48,Woman
78,145257,DepthScenes,duration_manipulation_targetAtFixation,jsons/v1_VE1000_randls_73_rotated.json,http://54.235.29.9/FacialAge/BNav_EC2/DepthDuration/v2_depth_duration_MTurk/v2_DepthDuration_HTML.html#82,82,1366,625,1366,768,8-22-2022,8-35-52,79,depth_duration_stimuli/000691_2014-06-08_13-08-50_260595134347_rgbf000132-resize_3/000691_2014-06-08_13-08-50_260595134347_rgbf000132-resize_3-target.png,1000,4.1530000000000005,3,9319,999,meters,jsons/v1_VE1000_randls_73_rotated.json,888747,995525,48,Woman
79,145257,DepthScenes,duration_manipulation_targetAtFixation,jsons/v1_VE1000_randls_73_rotated.json,http://54.235.29.9/FacialAge/BNav_EC2/DepthDuration/v2_depth_duration_MTurk/v2_DepthDuration_HTML.html#82,82,1366,625,1366,768,8-22-2022,8-35-52,80,depth_duration_stimuli/002213_2014-06-28_18-37-58_260595134347_rgbf000055-resize_1/002213_2014-06-28_18-37-58_260595134347_rgbf000055-resize_1-target.png,1000,3.62,3,2656,999,meters,jsons/v1_VE1000_randls_73_rotated.json,888747,995525,48,Woman
80,145257,DepthScenes,duration_manipulation_targetAtFixation,jsons/v1_VE1000_randls_73_rotated.json,http://54.235.29.9/FacialAge/BNav_EC2/DepthDuration/v2_depth_duration_MTurk/v2_DepthDuration_HTML.html#82,82,1366,625,1366,768,8-22-2022,8-35-52,81,depth_duration_stimuli/003228_2014-05-14_13-42-35_094959634447_rgbf000101-resize_1/003228_2014-05-14_13-42-35_094959634447_rgbf000101-resize_1-target.png,1000,1.9680000000000002,3,4545,1014,meters,jsons/v1_VE1000_randls_73_rotated.json,888747,995525,48,Woman
81,145257,DepthScenes,duration_manipulation_targetAtFixation,jsons/v1_VE1000_randls_73_rotated.json,http://54.235.29.9/FacialAge/BNav_EC2/DepthDuration/v2_depth_duration_MTurk/v2_DepthDuration_HTML.html#82,82,1366,625,1366,768,8-22-2022,8-35-52,82,depth_duration_stimuli/002600_2014-06-24_14-27-04_094959634447_rgbf000074-resize_2/002600_2014-06-24_14-27-04_094959634447_rgbf000074-resize_2-target.png,1000,2.7575,2,3121,1000,meters,jsons/v1_VE1000_randls_73_rotated.json,888747,995525,48,Woman
82,145257,DepthScenes,duration_manipulation_targetAtFixation,jsons/v1_VE1000_randls_73_rotated.json,http://54.235.29.9/FacialAge/BNav_EC2/DepthDuration/v2_depth_duration_MTurk/v2_DepthDuration_HTML.html#82,82,1366,625,1366,768,8-22-2022,8-35-52,83,depth_duration_stimuli/000709_2014-06-08_13-51-55_260595134347_rgbf000068-resize_3/000709_2014-06-08_13-51-55_260595134347_rgbf000068-resize_3-target.png,1000,1.8030000000000002,2,2587,1005,meters,jsons/v1_VE1000_randls_73_rotated.json,888747,995525,48,Woman
83,145257,DepthScenes,duration_manipulation_targetAtFixation,jsons/v1_VE1000_randls_73_rotated.json,http://54.235.29.9/FacialAge/BNav_EC2/DepthDuration/v2_depth_duration_MTurk/v2_DepthDuration_HTML.html#82,82,1366,625,1366,768,8-22-2022,8-35-52,84,depth_duration_stimuli/002057_2014-06-24_21-00-13_260595134347_rgbf000120-resize_1/002057_2014-06-24_21-00-13_260595134347_rgbf000120-resize_1-target.png,1000,2.967,2,3362,1003,meters,jsons/v1_VE1000_randls_73_rotated.json,888747,995525,48,Woman
84,145257,DepthScenes,duration_manipulation_targetAtFixation,jsons/v1_VE1000_randls_73_rotated.json,http://54.235.29.9/FacialAge/BNav_EC2/DepthDuration/v2_depth_duration_MTurk/v2_DepthDuration_HTML.html#82,82,1366,625,1366,768,8-22-2022,8-35-52,85,depth_duration_stimuli/002414_2014-06-28_20-24-58_260595134347_rgbf000067-resize_4/002414_2014-06-28_20-24-58_260595134347_rgbf000067-resize_4-target.png,1000,4.363,3,2986,1003,meters,jsons/v1_VE1000_randls_73_rotated.json,888747,995525,48,Woman
85,145257,DepthScenes,duration_manipulation_targetAtFixation,jsons/v1_VE1000_randls_73_rotated.json,http://54.235.29.9/FacialAge/BNav_EC2/DepthDuration/v2_depth_duration_MTurk/v2_DepthDuration_HTML.html#82,82,1366,625,1366,768,8-22-2022,8-35-52,86,depth_duration_stimuli/000773_2014-06-08_22-24-54_260595134347_rgbf000093-resize_1/000773_2014-06-08_22-24-54_260595134347_rgbf000093-resize_1-target.png,1000,4.973,2,6210,999,meters,jsons/v1_VE1000_randls_73_rotated.json,888747,995525,48,Woman
86,145257,DepthScenes,duration_manipulation_targetAtFixation,jsons/v1_VE1000_randls_73_rotated.json,http://54.235.29.9/FacialAge/BNav_EC2/DepthDuration/v2_depth_duration_MTurk/v2_DepthDuration_HTML.html#82,82,1366,625,1366,768,8-22-2022,8-35-52,87,depth_duration_stimuli/003129_2014-05-12_10-48-10_094959634447_rgbf000100-resize_0/003129_2014-05-12_10-48-10_094959634447_rgbf000100-resize_0-target.png,1000,4.9305,2,33760,990,meters,jsons/v1_VE1000_randls_73_rotated.json,888747,995525,48,Woman
87,145257,DepthScenes,duration_manipulation_targetAtFixation,jsons/v1_VE1000_randls_73_rotated.json,http://54.235.29.9/FacialAge/BNav_EC2/DepthDuration/v2_depth_duration_MTurk/v2_DepthDuration_HTML.html#82,82,1366,625,1366,768,8-22-2022,8-35-52,88,depth_duration_stimuli/000414_2014-06-04_19-49-13_260595134347_rgbf000044-resize_0/000414_2014-06-04_19-49-13_260595134347_rgbf000044-resize_0-target.png,1000,4.329,2,2969,1000,meters,jsons/v1_VE1000_randls_73_rotated.json,888747,995525,48,Woman
88,145257,DepthScenes,duration_manipulation_targetAtFixation,jsons/v1_VE1000_randls_73_rotated.json,http://54.235.29.9/FacialAge/BNav_EC2/DepthDuration/v2_depth_duration_MTurk/v2_DepthDuration_HTML.html#82,82,1366,625,1366,768,8-22-2022,8-35-52,89,depth_duration_stimuli/000665_2014-06-09_20-42-35_260595134347_rgbf000110-resize_1/000665_2014-06-09_20-42-35_260595134347_rgbf000110-resize_1-target.png,1000,3.057,3,2762,1007,meters,jsons/v1_VE1000_randls_73_rotated.json,888747,995525,48,Woman
89,145257,DepthScenes,duration_manipulation_targetAtFixation,jsons/v1_VE1000_randls_73_rotated.json,http://54.235.29.9/FacialAge/BNav_EC2/DepthDuration/v2_depth_duration_MTurk/v2_DepthDuration_HTML.html#82,82,1366,625,1366,768,8-22-2022,8-35-52,90,depth_duration_stimuli/001150_2014-06-17_15-27-34_260595134347_rgbf000108-resize_2/001150_2014-06-17_15-27-34_260595134347_rgbf000108-resize_2-target.png,1000,4.0325,3,6373,998,meters,jsons/v1_VE1000_randls_73_rotated.json,888747,995525,48,Woman
90,145257,DepthScenes,duration_manipulation_targetAtFixation,jsons/v1_VE1000_randls_73_rotated.json,http://54.235.29.9/FacialAge/BNav_EC2/DepthDuration/v2_depth_duration_MTurk/v2_DepthDuration_HTML.html#82,82,1366,625,1366,768,8-22-2022,8-35-52,91,depth_duration_stimuli/002136_2014-06-25_21-18-03_260595134347_rgbf000109-resize_3/002136_2014-06-25_21-18-03_260595134347_rgbf000109-resize_3-target.png,1000,1.9569999999999999,3,3301,999,meters,jsons/v1_VE1000_randls_73_rotated.json,888747,995525,48,Woman
91,145257,DepthScenes,duration_manipulation_targetAtFixation,jsons/v1_VE1000_randls_73_rotated.json,http://54.235.29.9/FacialAge/BNav_EC2/DepthDuration/v2_depth_duration_MTurk/v2_DepthDuration_HTML.html#82,82,1366,625,1366,768,8-22-2022,8-35-52,92,depth_duration_stimuli/002964_2014-06-08_17-46-11_094959634447_rgbf000091-resize_4/002964_2014-06-08_17-46-11_094959634447_rgbf000091-resize_4-target.png,1000,1.6909999999999998,3,4643,996,meters,jsons/v1_VE1000_randls_73_rotated.json,888747,995525,48,Woman
92,145257,DepthScenes,duration_manipulation_targetAtFixation,jsons/v1_VE1000_randls_73_rotated.json,http://54.235.29.9/FacialAge/BNav_EC2/DepthDuration/v2_depth_duration_MTurk/v2_DepthDuration_HTML.html#82,82,1366,625,1366,768,8-22-2022,8-35-52,93,depth_duration_stimuli/000483_2014-06-09_20-41-45_260595134347_rgbf000116-resize_4/000483_2014-06-09_20-41-45_260595134347_rgbf000116-resize_4-target.png,1000,1.337,3,2979,997,meters,jsons/v1_VE1000_randls_73_rotated.json,888747,995525,48,Woman
93,145257,DepthScenes,duration_manipulation_targetAtFixation,jsons/v1_VE1000_randls_73_rotated.json,http://54.235.29.9/FacialAge/BNav_EC2/DepthDuration/v2_depth_duration_MTurk/v2_DepthDuration_HTML.html#82,82,1366,625,1366,768,8-22-2022,8-35-52,94,depth_duration_stimuli/000469_2014-06-09_19-42-10_260595134347_rgbf000081-resize_1/000469_2014-06-09_19-42-10_260595134347_rgbf000081-resize_1-target.png,1000,1.652,3,2815,1007,meters,jsons/v1_VE1000_randls_73_rotated.json,888747,995525,48,Woman
94,145257,DepthScenes,duration_manipulation_targetAtFixation,jsons/v1_VE1000_randls_73_rotated.json,http://54.235.29.9/FacialAge/BNav_EC2/DepthDuration/v2_depth_duration_MTurk/v2_DepthDuration_HTML.html#82,82,1366,625,1366,768,8-22-2022,8-35-52,95,depth_duration_stimuli/000502_2014-06-08_23-02-32_260595134347_rgbf000063-resize_4/000502_2014-06-08_23-02-32_260595134347_rgbf000063-resize_4-target.png,1000,2.431,3,4853,993,meters,jsons/v1_VE1000_randls_73_rotated.json,888747,995525,48,Woman
95,145257,DepthScenes,duration_manipulation_targetAtFixation,jsons/v1_VE1000_randls_73_rotated.json,http://54.235.29.9/FacialAge/BNav_EC2/DepthDuration/v2_depth_duration_MTurk/v2_DepthDuration_HTML.html#82,82,1366,625,1366,768,8-22-2022,8-35-52,96,depth_duration_stimuli/001199_2014-06-17_16-03-48_260595134347_rgbf000077-resize_0/001199_2014-06-17_16-03-48_260595134347_rgbf000077-resize_0-target.png,1000,3.4375,3,2825,1013,meters,jsons/v1_VE1000_randls_73_rotated.json,888747,995525,48,Woman
96,145257,DepthScenes,duration_manipulation_targetAtFixation,jsons/v1_VE1000_randls_73_rotated.json,http://54.235.29.9/FacialAge/BNav_EC2/DepthDuration/v2_depth_duration_MTurk/v2_DepthDuration_HTML.html#82,82,1366,625,1366,768,8-22-2022,8-35-52,97,depth_duration_stimuli/001450_2014-06-19_17-02-03_260595134347_rgbf000203-resize_4/001450_2014-06-19_17-02-03_260595134347_rgbf000203-resize_4-target.png,1000,4.0106666666667,3,3782,1001,meters,jsons/v1_VE1000_randls_73_rotated.json,888747,995525,48,Woman
97,145257,DepthScenes,duration_manipulation_targetAtFixation,jsons/v1_VE1000_randls_73_rotated.json,http://54.235.29.9/FacialAge/BNav_EC2/DepthDuration/v2_depth_duration_MTurk/v2_DepthDuration_HTML.html#82,82,1366,625,1366,768,8-22-2022,8-35-52,98,depth_duration_stimuli/001449_2014-06-19_17-01-27_260595134347_rgbf000116-resize_2/001449_2014-06-19_17-01-27_260595134347_rgbf000116-resize_2-target.png,1000,3.452,2,3893,1004,meters,jsons/v1_VE1000_randls_73_rotated.json,888747,995525,48,Woman
98,145257,DepthScenes,duration_manipulation_targetAtFixation,jsons/v1_VE1000_randls_73_rotated.json,http://54.235.29.9/FacialAge/BNav_EC2/DepthDuration/v2_depth_duration_MTurk/v2_DepthDuration_HTML.html#82,82,1366,625,1366,768,8-22-2022,8-35-52,99,depth_duration_stimuli/001222_2014-06-17_16-24-06_260595134347_rgbf000073-resize_0/001222_2014-06-17_16-24-06_260595134347_rgbf000073-resize-original.jpg,1000,1.4385,3,2956,998,meters,jsons/v1_VE1000_randls_73_rotated.json,888747,995525,48,Woman
99,145257,DepthScenes,duration_manipulation_targetAtFixation,jsons/v1_VE1000_randls_73_rotated.json,http://54.235.29.9/FacialAge/BNav_EC2/DepthDuration/v2_depth_duration_MTurk/v2_DepthDuration_HTML.html#82,82,1366,625,1366,768,8-22-2022,8-35-52,100,depth_duration_stimuli/002103_2014-06-25_20-00-40_260595134347_rgbf000049-resize_0/002103_2014-06-25_20-00-40_260595134347_rgbf000049-resize_0-target.png,1000,4.105,3,3403,993,meters,jsons/v1_VE1000_randls_73_rotated.json,888747,995525,48,Woman
100,145257,DepthScenes,duration_manipulation_targetAtFixation,jsons/v1_VE1000_randls_73_rotated.json,http://54.235.29.9/FacialAge/BNav_EC2/DepthDuration/v2_depth_duration_MTurk/v2_DepthDuration_HTML.html#82,82,1366,625,1366,768,8-22-2022,8-35-52,101,depth_duration_stimuli/002039_2014-06-24_20-22-38_260595134347_rgbf000084-resize_1/002039_2014-06-24_20-22-38_260595134347_rgbf000084-resize_1-target.png,1000,4.408,3,3746,993,meters,jsons/v1_VE1000_randls_73_rotated.json,888747,995525,48,Woman
101,145257,DepthScenes,duration_manipulation_targetAtFixation,jsons/v1_VE1000_randls_73_rotated.json,http://54.235.29.9/FacialAge/BNav_EC2/DepthDuration/v2_depth_duration_MTurk/v2_DepthDuration_HTML.html#82,82,1366,625,1366,768,8-22-2022,8-35-52,102,depth_duration_stimuli/000556_2014-06-09_22-42-56_260595134347_rgbf000214-resize_1/000556_2014-06-09_22-42-56_260595134347_rgbf000214-resize_1-target.png,1000,4.8415,3,2706,998,meters,jsons/v1_VE1000_randls_73_rotated.json,888747,995525,48,Woman
102,145257,DepthScenes,duration_manipulation_targetAtFixation,jsons/v1_VE1000_randls_73_rotated.json,http://54.235.29.9/FacialAge/BNav_EC2/DepthDuration/v2_depth_duration_MTurk/v2_DepthDuration_HTML.html#82,82,1366,625,1366,768,8-22-2022,8-35-52,103,depth_duration_stimuli/001158_2014-06-17_15-32-16_260595134347_rgbf000138-resize_2/001158_2014-06-17_15-32-16_260595134347_rgbf000138-resize_2-target.png,1000,4.5315,2,5913,999,meters,jsons/v1_VE1000_randls_73_rotated.json,888747,995525,48,Woman
103,145257,DepthScenes,duration_manipulation_targetAtFixation,jsons/v1_VE1000_randls_73_rotated.json,http://54.235.29.9/FacialAge/BNav_EC2/DepthDuration/v2_depth_duration_MTurk/v2_DepthDuration_HTML.html#82,82,1366,625,1366,768,8-22-2022,8-35-52,104,depth_duration_stimuli/001617_2014-06-20_11-35-32_260595134347_rgbf000066-resize_1/001617_2014-06-20_11-35-32_260595134347_rgbf000066-resize_1-target.png,1000,3.7910000000000004,2,6476,1004,meters,jsons/v1_VE1000_randls_73_rotated.json,888747,995525,48,Woman
104,145257,DepthScenes,duration_manipulation_targetAtFixation,jsons/v1_VE1000_randls_73_rotated.json,http://54.235.29.9/FacialAge/BNav_EC2/DepthDuration/v2_depth_duration_MTurk/v2_DepthDuration_HTML.html#82,82,1366,625,1366,768,8-22-2022,8-35-52,105,depth_duration_stimuli/001806_2014-06-26_20-50-20_260595134347_rgbf000091-resize_1/001806_2014-06-26_20-50-20_260595134347_rgbf000091-resize_1-target.png,1000,2.7305,2,2802,998,meters,jsons/v1_VE1000_randls_73_rotated.json,888747,995525,48,Woman
105,145257,DepthScenes,duration_manipulation_targetAtFixation,jsons/v1_VE1000_randls_73_rotated.json,http://54.235.29.9/FacialAge/BNav_EC2/DepthDuration/v2_depth_duration_MTurk/v2_DepthDuration_HTML.html#82,82,1366,625,1366,768,8-22-2022,8-35-52,106,depth_duration_stimuli/001815_2014-06-26_20-52-55_260595134347_rgbf000020-resize_0/001815_2014-06-26_20-52-55_260595134347_rgbf000020-resize_0-target.png,1000,3.3865,3,3001,999,meters,jsons/v1_VE1000_randls_73_rotated.json,888747,995525,48,Woman
106,145257,DepthScenes,duration_manipulation_targetAtFixation,jsons/v1_VE1000_randls_73_rotated.json,http://54.235.29.9/FacialAge/BNav_EC2/DepthDuration/v2_depth_duration_MTurk/v2_DepthDuration_HTML.html#82,82,1366,625,1366,768,8-22-2022,8-35-52,107,depth_duration_stimuli/001808_2014-06-26_20-50-58_260595134347_rgbf000029-resize_1/001808_2014-06-26_20-50-58_260595134347_rgbf000029-resize_1-target.png,1000,4.249,3,2840,997,meters,jsons/v1_VE1000_randls_73_rotated.json,888747,995525,48,Woman
107,145257,DepthScenes,duration_manipulation_targetAtFixation,jsons/v1_VE1000_randls_73_rotated.json,http://54.235.29.9/FacialAge/BNav_EC2/DepthDuration/v2_depth_duration_MTurk/v2_DepthDuration_HTML.html#82,82,1366,625,1366,768,8-22-2022,8-35-52,108,depth_duration_stimuli/000677_2014-06-08_23-10-32_260595134347_rgbf000158-resize_6/000677_2014-06-08_23-10-32_260595134347_rgbf000158-resize_6-target.png,1000,3.556,3,5214,997,meters,jsons/v1_VE1000_randls_73_rotated.json,888747,995525,48,Woman
108,145257,DepthScenes,duration_manipulation_targetAtFixation,jsons/v1_VE1000_randls_73_rotated.json,http://54.235.29.9/FacialAge/BNav_EC2/DepthDuration/v2_depth_duration_MTurk/v2_DepthDuration_HTML.html#82,82,1366,625,1366,768,8-22-2022,8-35-52,109,depth_duration_stimuli/001029_2014-06-08_13-17-57_260595134347_rgbf000065-resize_1/001029_2014-06-08_13-17-57_260595134347_rgbf000065-resize_1-target.png,1000,3.0835,3,2710,996,meters,jsons/v1_VE1000_randls_73_rotated.json,888747,995525,48,Woman
109,145257,DepthScenes,duration_manipulation_targetAtFixation,jsons/v1_VE1000_randls_73_rotated.json,http://54.235.29.9/FacialAge/BNav_EC2/DepthDuration/v2_depth_duration_MTurk/v2_DepthDuration_HTML.html#82,82,1366,625,1366,768,8-22-2022,8-35-52,110,depth_duration_stimuli/002467_2014-06-28_20-38-07_260595134347_rgbf000026-resize_2/002467_2014-06-28_20-38-07_260595134347_rgbf000026-resize_2-target.png,1000,4.742,3,3633,1004,meters,jsons/v1_VE1000_randls_73_rotated.json,888747,995525,48,Woman
110,145257,DepthScenes,duration_manipulation_targetAtFixation,jsons/v1_VE1000_randls_73_rotated.json,http://54.235.29.9/FacialAge/BNav_EC2/DepthDuration/v2_depth_duration_MTurk/v2_DepthDuration_HTML.html#82,82,1366,625,1366,768,8-22-2022,8-35-52,111,depth_duration_stimuli/002570_2014-06-24_13-59-54_094959634447_rgbf000059-resize_0/002570_2014-06-24_13-59-54_094959634447_rgbf000059-resize_0-target.png,1000,4.037,2,3394,999,meters,jsons/v1_VE1000_randls_73_rotated.json,888747,995525,48,Woman
111,145257,DepthScenes,duration_manipulation_targetAtFixation,jsons/v1_VE1000_randls_73_rotated.json,http://54.235.29.9/FacialAge/BNav_EC2/DepthDuration/v2_depth_duration_MTurk/v2_DepthDuration_HTML.html#82,82,1366,625,1366,768,8-22-2022,8-35-52,112,depth_duration_stimuli/002750_2014-06-22_19-08-03_094959634447_rgbf000094-resize_4/002750_2014-06-22_19-08-03_094959634447_rgbf000094-resize_4-target.png,1000,2.354,3,2903,997,meters,jsons/v1_VE1000_randls_73_rotated.json,888747,995525,48,Woman
112,145257,DepthScenes,duration_manipulation_targetAtFixation,jsons/v1_VE1000_randls_73_rotated.json,http://54.235.29.9/FacialAge/BNav_EC2/DepthDuration/v2_depth_duration_MTurk/v2_DepthDuration_HTML.html#82,82,1366,625,1366,768,8-22-2022,8-35-52,113,depth_duration_stimuli/002549_2014-06-24_13-41-39_094959634447_rgbf000022-resize_3/002549_2014-06-24_13-41-39_094959634447_rgbf000022-resize_3-target.png,1000,1.476,3,2848,999,meters,jsons/v1_VE1000_randls_73_rotated.json,888747,995525,48,Woman
113,145257,DepthScenes,duration_manipulation_targetAtFixation,jsons/v1_VE1000_randls_73_rotated.json,http://54.235.29.9/FacialAge/BNav_EC2/DepthDuration/v2_depth_duration_MTurk/v2_DepthDuration_HTML.html#82,82,1366,625,1366,768,8-22-2022,8-35-52,114,depth_duration_stimuli/001584_2014-06-20_11-07-43_260595134347_rgbf000002-resize_1/001584_2014-06-20_11-07-43_260595134347_rgbf000002-resize_1-target.png,1000,3.53,3,2971,1003,meters,jsons/v1_VE1000_randls_73_rotated.json,888747,995525,48,Woman
114,145257,DepthScenes,duration_manipulation_targetAtFixation,jsons/v1_VE1000_randls_73_rotated.json,http://54.235.29.9/FacialAge/BNav_EC2/DepthDuration/v2_depth_duration_MTurk/v2_DepthDuration_HTML.html#82,82,1366,625,1366,768,8-22-2022,8-35-52,115,depth_duration_stimuli/003621_2014-05-23_18-06-08_094959634447_rgbf000101-resize_1/003621_2014-05-23_18-06-08_094959634447_rgbf000101-resize_1-target.png,1000,3.9835,3,2683,988,meters,jsons/v1_VE1000_randls_73_rotated.json,888747,995525,48,Woman
115,145257,DepthScenes,duration_manipulation_targetAtFixation,jsons/v1_VE1000_randls_73_rotated.json,http://54.235.29.9/FacialAge/BNav_EC2/DepthDuration/v2_depth_duration_MTurk/v2_DepthDuration_HTML.html#82,82,1366,625,1366,768,8-22-2022,8-35-52,116,depth_duration_stimuli/002340_2014-06-28_20-05-46_260595134347_rgbf000113-resize_0/002340_2014-06-28_20-05-46_260595134347_rgbf000113-resize_0-target.png,1000,2.4735,2,31016,997,meters,jsons/v1_VE1000_randls_73_rotated.json,888747,995525,48,Woman
116,145257,DepthScenes,duration_manipulation_targetAtFixation,jsons/v1_VE1000_randls_73_rotated.json,http://54.235.29.9/FacialAge/BNav_EC2/DepthDuration/v2_depth_duration_MTurk/v2_DepthDuration_HTML.html#82,82,1366,625,1366,768,8-22-2022,8-35-52,117,depth_duration_stimuli/001016_2014-06-09_16-16-10_260595134347_rgbf000112-resize_5/001016_2014-06-09_16-16-10_260595134347_rgbf000112-resize_5-target.png,1000,1.6565,3,3239,1008,meters,jsons/v1_VE1000_randls_73_rotated.json,888747,995525,48,Woman
117,145257,DepthScenes,duration_manipulation_targetAtFixation,jsons/v1_VE1000_randls_73_rotated.json,http://54.235.29.9/FacialAge/BNav_EC2/DepthDuration/v2_depth_duration_MTurk/v2_DepthDuration_HTML.html#82,82,1366,625,1366,768,8-22-2022,8-35-52,118,depth_duration_stimuli/001100_2014-06-15_17-46-26_260595134347_rgbf000225-resize_2/001100_2014-06-15_17-46-26_260595134347_rgbf000225-resize_2-target.png,1000,2.24,33,2744,1013,meters,jsons/v1_VE1000_randls_73_rotated.json,888747,995525,48,Woman
118,145257,DepthScenes,duration_manipulation_targetAtFixation,jsons/v1_VE1000_randls_73_rotated.json,http://54.235.29.9/FacialAge/BNav_EC2/DepthDuration/v2_depth_duration_MTurk/v2_DepthDuration_HTML.html#82,82,1366,625,1366,768,8-22-2022,8-35-52,119,depth_duration_stimuli/002784_2014-06-22_19-26-30_094959634447_rgbf000083-resize_3/002784_2014-06-22_19-26-30_094959634447_rgbf000083-resize_3-target.png,1000,1.8046666666667,3,4702,1003,meters,jsons/v1_VE1000_randls_73_rotated.json,888747,995525,48,Woman
119,145257,DepthScenes,duration_manipulation_targetAtFixation,jsons/v1_VE1000_randls_73_rotated.json,http://54.235.29.9/FacialAge/BNav_EC2/DepthDuration/v2_depth_duration_MTurk/v2_DepthDuration_HTML.html#82,82,1366,625,1366,768,8-22-2022,8-35-52,120,depth_duration_stimuli/000787_2014-06-08_22-33-53_260595134347_rgbf000175-resize_1/000787_2014-06-08_22-33-53_260595134347_rgbf000175-resize-original.jpg,1000,4.784,0,4074,1000,meters,jsons/v1_VE1000_randls_73_rotated.json,888747,995525,48,Woman
120,145257,DepthScenes,duration_manipulation_targetAtFixation,jsons/v1_VE1000_randls_73_rotated.json,http://54.235.29.9/FacialAge/BNav_EC2/DepthDuration/v2_depth_duration_MTurk/v2_DepthDuration_HTML.html#82,82,1366,625,1366,768,8-22-2022,8-35-52,121,depth_duration_stimuli/002344_2014-06-28_20-06-29_260595134347_rgbf000030-resize_1/002344_2014-06-28_20-06-29_260595134347_rgbf000030-resize_1-target.png,1000,1.5795,3,3136,997,meters,jsons/v1_VE1000_randls_73_rotated.json,888747,995525,48,Woman
121,145257,DepthScenes,duration_manipulation_targetAtFixation,jsons/v1_VE1000_randls_73_rotated.json,http://54.235.29.9/FacialAge/BNav_EC2/DepthDuration/v2_depth_duration_MTurk/v2_DepthDuration_HTML.html#82,82,1366,625,1366,768,8-22-2022,8-35-52,122,depth_duration_stimuli/002725_2014-06-22_11-47-51_094959634447_rgbf000070-resize_1/002725_2014-06-22_11-47-51_094959634447_rgbf000070-resize_1-target.png,1000,2.195,3,2904,999,meters,jsons/v1_VE1000_randls_73_rotated.json,888747,995525,48,Woman
122,145257,DepthScenes,duration_manipulation_targetAtFixation,jsons/v1_VE1000_randls_73_rotated.json,http://54.235.29.9/FacialAge/BNav_EC2/DepthDuration/v2_depth_duration_MTurk/v2_DepthDuration_HTML.html#82,82,1366,625,1366,768,8-22-2022,8-35-52,123,depth_duration_stimuli/000549_2014-06-08_22-10-24_260595134347_rgbf000247-resize_3/000549_2014-06-08_22-10-24_260595134347_rgbf000247-resize_3-target.png,1000,1.841,3,2929,1001,meters,jsons/v1_VE1000_randls_73_rotated.json,888747,995525,48,Woman
123,145257,DepthScenes,duration_manipulation_targetAtFixation,jsons/v1_VE1000_randls_73_rotated.json,http://54.235.29.9/FacialAge/BNav_EC2/DepthDuration/v2_depth_duration_MTurk/v2_DepthDuration_HTML.html#82,82,1366,625,1366,768,8-22-2022,8-35-52,124,depth_duration_stimuli/001055_2014-06-08_18-45-35_260595134347_rgbf000111-resize_4/001055_2014-06-08_18-45-35_260595134347_rgbf000111-resize_4-target.png,1000,2.4290000000000003,3,3908,1006,meters,jsons/v1_VE1000_randls_73_rotated.json,888747,995525,48,Woman
124,145257,DepthScenes,duration_manipulation_targetAtFixation,jsons/v1_VE1000_randls_73_rotated.json,http://54.235.29.9/FacialAge/BNav_EC2/DepthDuration/v2_depth_duration_MTurk/v2_DepthDuration_HTML.html#82,82,1366,625,1366,768,8-22-2022,8-35-52,125,depth_duration_stimuli/002660_2014-06-13_15-44-18_094959634447_rgbf001878-resize_2/002660_2014-06-13_15-44-18_094959634447_rgbf001878-resize_2-target.png,1000,3.576,3,2679,998,meters,jsons/v1_VE1000_randls_73_rotated.json,888747,995525,48,Woman
125,145257,DepthScenes,duration_manipulation_targetAtFixation,jsons/v1_VE1000_randls_73_rotated.json,http://54.235.29.9/FacialAge/BNav_EC2/DepthDuration/v2_depth_duration_MTurk/v2_DepthDuration_HTML.html#82,82,1366,625,1366,768,8-22-2022,8-35-52,126,depth_duration_stimuli/002153_2014-06-25_21-27-18_260595134347_rgbf000038-resize_5/002153_2014-06-25_21-27-18_260595134347_rgbf000038-resize_5-target.png,1000,2.505,3,2903,996,meters,jsons/v1_VE1000_randls_73_rotated.json,888747,995525,48,Woman
126,145257,DepthScenes,duration_manipulation_targetAtFixation,jsons/v1_VE1000_randls_73_rotated.json,http://54.235.29.9/FacialAge/BNav_EC2/DepthDuration/v2_depth_duration_MTurk/v2_DepthDuration_HTML.html#82,82,1366,625,1366,768,8-22-2022,8-35-52,127,depth_duration_stimuli/000854_2014-06-09_19-43-13_260595134347_rgbf000066-resize_0/000854_2014-06-09_19-43-13_260595134347_rgbf000066-resize_0-target.png,1000,3.068,3,2851,987,meters,jsons/v1_VE1000_randls_73_rotated.json,888747,995525,48,Woman
127,145257,DepthScenes,duration_manipulation_targetAtFixation,jsons/v1_VE1000_randls_73_rotated.json,http://54.235.29.9/FacialAge/BNav_EC2/DepthDuration/v2_depth_duration_MTurk/v2_DepthDuration_HTML.html#82,82,1366,625,1366,768,8-22-2022,8-35-52,128,depth_duration_stimuli/000758_2014-06-08_22-05-08_260595134347_rgbf000085-resize_0/000758_2014-06-08_22-05-08_260595134347_rgbf000085-resize_0-target.png,1000,3.3810000000000002,3,4437,1000,meters,jsons/v1_VE1000_randls_73_rotated.json,888747,995525,48,Woman
128,145257,DepthScenes,duration_manipulation_targetAtFixation,jsons/v1_VE1000_randls_73_rotated.json,http://54.235.29.9/FacialAge/BNav_EC2/DepthDuration/v2_depth_duration_MTurk/v2_DepthDuration_HTML.html#82,82,1366,625,1366,768,8-22-2022,8-35-52,129,depth_duration_stimuli/002953_2014-06-08_17-32-18_094959634447_rgbf000059-resize_5/002953_2014-06-08_17-32-18_094959634447_rgbf000059-resize_5-target.png,1000,1.551,3,3021,987,meters,jsons/v1_VE1000_randls_73_rotated.json,888747,995525,48,Woman
129,145257,DepthScenes,duration_manipulation_targetAtFixation,jsons/v1_VE1000_randls_73_rotated.json,http://54.235.29.9/FacialAge/BNav_EC2/DepthDuration/v2_depth_duration_MTurk/v2_DepthDuration_HTML.html#82,82,1366,625,1366,768,8-22-2022,8-35-52,130,depth_duration_stimuli/000878_2014-06-08_22-52-45_260595134347_rgbf000045-resize_2/000878_2014-06-08_22-52-45_260595134347_rgbf000045-resize_2-target.png,1000,2.092,3,7347,1000,meters,jsons/v1_VE1000_randls_73_rotated.json,888747,995525,48,Woman
130,145257,DepthScenes,duration_manipulation_targetAtFixation,jsons/v1_VE1000_randls_73_rotated.json,http://54.235.29.9/FacialAge/BNav_EC2/DepthDuration/v2_depth_duration_MTurk/v2_DepthDuration_HTML.html#82,82,1366,625,1366,768,8-22-2022,8-35-52,131,depth_duration_stimuli/002323_2014-06-28_20-01-54_260595134347_rgbf000051-resize_4/002323_2014-06-28_20-01-54_260595134347_rgbf000051-resize_4-target.png,1000,3.7310000000000003,3,4172,993,meters,jsons/v1_VE1000_randls_73_rotated.json,888747,995525,48,Woman
131,145257,DepthScenes,duration_manipulation_targetAtFixation,jsons/v1_VE1000_randls_73_rotated.json,http://54.235.29.9/FacialAge/BNav_EC2/DepthDuration/v2_depth_duration_MTurk/v2_DepthDuration_HTML.html#82,82,1366,625,1366,768,8-22-2022,8-35-52,132,depth_duration_stimuli/000917_2014-06-09_22-45-29_260595134347_rgbf000149-resize_3/000917_2014-06-09_22-45-29_260595134347_rgbf000149-resize_3-target.png,1000,4.1865,3,3126,998,meters,jsons/v1_VE1000_randls_73_rotated.json,888747,995525,48,Woman
132,145257,DepthScenes,duration_manipulation_targetAtFixation,jsons/v1_VE1000_randls_73_rotated.json,http://54.235.29.9/FacialAge/BNav_EC2/DepthDuration/v2_depth_duration_MTurk/v2_DepthDuration_HTML.html#82,82,1366,625,1366,768,8-22-2022,8-35-52,133,depth_duration_stimuli/000191_2014-05-12_17-07-38_260595134347_rgbf000199-resize_0/000191_2014-05-12_17-07-38_260595134347_rgbf000199-resize_0-target.png,1000,3.7995,3,3809,975,meters,jsons/v1_VE1000_randls_73_rotated.json,888747,995525,48,Woman
133,145257,DepthScenes,duration_manipulation_targetAtFixation,jsons/v1_VE1000_randls_73_rotated.json,http://54.235.29.9/FacialAge/BNav_EC2/DepthDuration/v2_depth_duration_MTurk/v2_DepthDuration_HTML.html#82,82,1366,625,1366,768,8-22-2022,8-35-52,134,depth_duration_stimuli/000493_2014-06-09_21-01-18_260595134347_rgbf000196-resize_3/000493_2014-06-09_21-01-18_260595134347_rgbf000196-resize_3-target.png,1000,3.44,3,3104,997,meters,jsons/v1_VE1000_randls_73_rotated.json,888747,995525,48,Woman
134,145257,DepthScenes,duration_manipulation_targetAtFixation,jsons/v1_VE1000_randls_73_rotated.json,http://54.235.29.9/FacialAge/BNav_EC2/DepthDuration/v2_depth_duration_MTurk/v2_DepthDuration_HTML.html#82,82,1366,625,1366,768,8-22-2022,8-35-52,135,depth_duration_stimuli/000375_2014-06-08_11-17-29_260595134347_rgbf000133-resize_2/000375_2014-06-08_11-17-29_260595134347_rgbf000133-resize-original.jpg,1000,4.718,3,2691,1000,meters,jsons/v1_VE1000_randls_73_rotated.json,888747,995525,48,Woman
135,145257,DepthScenes,duration_manipulation_targetAtFixation,jsons/v1_VE1000_randls_73_rotated.json,http://54.235.29.9/FacialAge/BNav_EC2/DepthDuration/v2_depth_duration_MTurk/v2_DepthDuration_HTML.html#82,82,1366,625,1366,768,8-22-2022,8-35-52,136,depth_duration_stimuli/002444_2014-06-28_20-32-08_260595134347_rgbf000027-resize_0/002444_2014-06-28_20-32-08_260595134347_rgbf000027-resize_0-target.png,1000,4.388999999999999,4,2865,1003,meters,jsons/v1_VE1000_randls_73_rotated.json,888747,995525,48,Woman
136,145257,DepthScenes,duration_manipulation_targetAtFixation,jsons/v1_VE1000_randls_73_rotated.json,http://54.235.29.9/FacialAge/BNav_EC2/DepthDuration/v2_depth_duration_MTurk/v2_DepthDuration_HTML.html#82,82,1366,625,1366,768,8-22-2022,8-35-52,137,depth_duration_stimuli/000436_2014-06-09_22-25-11_260595134347_rgbf000137-resize_1/000436_2014-06-09_22-25-11_260595134347_rgbf000137-resize_1-target.png,1000,4.0705,4,2810,1011,meters,jsons/v1_VE1000_randls_73_rotated.json,888747,995525,48,Woman
137,145257,DepthScenes,duration_manipulation_targetAtFixation,jsons/v1_VE1000_randls_73_rotated.json,http://54.235.29.9/FacialAge/BNav_EC2/DepthDuration/v2_depth_duration_MTurk/v2_DepthDuration_HTML.html#82,82,1366,625,1366,768,8-22-2022,8-35-52,138,depth_duration_stimuli/002805_2014-06-22_19-54-03_094959634447_rgbf000079-resize_1/002805_2014-06-22_19-54-03_094959634447_rgbf000079-resize_1-target.png,1000,3.1439999999999997,4,2874,997,meters,jsons/v1_VE1000_randls_73_rotated.json,888747,995525,48,Woman
138,145257,DepthScenes,duration_manipulation_targetAtFixation,jsons/v1_VE1000_randls_73_rotated.json,http://54.235.29.9/FacialAge/BNav_EC2/DepthDuration/v2_depth_duration_MTurk/v2_DepthDuration_HTML.html#82,82,1366,625,1366,768,8-22-2022,8-35-52,139,depth_duration_stimuli/000906_2014-06-08_13-35-43_260595134347_rgbf000155-resize_1/000906_2014-06-08_13-35-43_260595134347_rgbf000155-resize_1-target.png,1000,2.8489999999999998,4,3722,999,meters,jsons/v1_VE1000_randls_73_rotated.json,888747,995525,48,Woman
139,145257,DepthScenes,duration_manipulation_targetAtFixation,jsons/v1_VE1000_randls_73_rotated.json,http://54.235.29.9/FacialAge/BNav_EC2/DepthDuration/v2_depth_duration_MTurk/v2_DepthDuration_HTML.html#82,82,1366,625,1366,768,8-22-2022,8-35-52,140,depth_duration_stimuli/000635_2014-06-08_16-38-42_260595134347_rgbf000106-resize_1/000635_2014-06-08_16-38-42_260595134347_rgbf000106-resize_1-target.png,1000,2.074,3,3299,998,meters,jsons/v1_VE1000_randls_73_rotated.json,888747,995525,48,Woman
140,145257,DepthScenes,duration_manipulation_targetAtFixation,jsons/v1_VE1000_randls_73_rotated.json,http://54.235.29.9/FacialAge/BNav_EC2/DepthDuration/v2_depth_duration_MTurk/v2_DepthDuration_HTML.html#82,82,1366,625,1366,768,8-22-2022,8-35-52,141,depth_duration_stimuli/002279_2014-06-28_18-55-32_260595134347_rgbf000040-resize_5/002279_2014-06-28_18-55-32_260595134347_rgbf000040-resize_5-target.png,1000,1.5043333333333,3,2940,1012,meters,jsons/v1_VE1000_randls_73_rotated.json,888747,995525,48,Woman
141,145257,DepthScenes,duration_manipulation_targetAtFixation,jsons/v1_VE1000_randls_73_rotated.json,http://54.235.29.9/FacialAge/BNav_EC2/DepthDuration/v2_depth_duration_MTurk/v2_DepthDuration_HTML.html#82,82,1366,625,1366,768,8-22-2022,8-35-52,142,depth_duration_stimuli/001447_2014-06-19_17-00-32_260595134347_rgbf000082-resize_5/001447_2014-06-19_17-00-32_260595134347_rgbf000082-resize_5-target.png,1000,4.13775,4,3010,1014,meters,jsons/v1_VE1000_randls_73_rotated.json,888747,995525,48,Woman
142,145257,DepthScenes,duration_manipulation_targetAtFixation,jsons/v1_VE1000_randls_73_rotated.json,http://54.235.29.9/FacialAge/BNav_EC2/DepthDuration/v2_depth_duration_MTurk/v2_DepthDuration_HTML.html#82,82,1366,625,1366,768,8-22-2022,8-35-52,143,depth_duration_stimuli/000447_2014-06-08_16-15-46_260595134347_rgbf000130-resize_1/000447_2014-06-08_16-15-46_260595134347_rgbf000130-resize_1-target.png,1000,4.479,4,3040,990,meters,jsons/v1_VE1000_randls_73_rotated.json,888747,995525,48,Woman
143,145257,DepthScenes,duration_manipulation_targetAtFixation,jsons/v1_VE1000_randls_73_rotated.json,http://54.235.29.9/FacialAge/BNav_EC2/DepthDuration/v2_depth_duration_MTurk/v2_DepthDuration_HTML.html#82,82,1366,625,1366,768,8-22-2022,8-35-52,144,depth_duration_stimuli/000137_2014-05-20_17-04-49_260595134347_rgbf000120-resize_1/000137_2014-05-20_17-04-49_260595134347_rgbf000120-resize_1-target.png,1000,3.786,3,3071,992,meters,jsons/v1_VE1000_randls_73_rotated.json,888747,995525,48,Woman
144,145257,DepthScenes,duration_manipulation_targetAtFixation,jsons/v1_VE1000_randls_73_rotated.json,http://54.235.29.9/FacialAge/BNav_EC2/DepthDuration/v2_depth_duration_MTurk/v2_DepthDuration_HTML.html#82,82,1366,625,1366,768,8-22-2022,8-35-52,145,depth_duration_stimuli/000736_2014-06-08_18-24-15_260595134347_rgbf000206-resize_3/000736_2014-06-08_18-24-15_260595134347_rgbf000206-resize_3-target.png,1000,3.515,4,2691,985,meters,jsons/v1_VE1000_randls_73_rotated.json,888747,995525,48,Woman
145,145257,DepthScenes,duration_manipulation_targetAtFixation,jsons/v1_VE1000_randls_73_rotated.json,http://54.235.29.9/FacialAge/BNav_EC2/DepthDuration/v2_depth_duration_MTurk/v2_DepthDuration_HTML.html#82,82,1366,625,1366,768,8-22-2022,8-35-52,146,depth_duration_stimuli/000409_2014-06-04_19-23-33_260595134347_rgbf000067-resize_0/000409_2014-06-04_19-23-33_260595134347_rgbf000067-resize_0-target.png,1000,3.7335,4,3837,999,meters,jsons/v1_VE1000_randls_73_rotated.json,888747,995525,48,Woman
146,145257,DepthScenes,duration_manipulation_targetAtFixation,jsons/v1_VE1000_randls_73_rotated.json,http://54.235.29.9/FacialAge/BNav_EC2/DepthDuration/v2_depth_duration_MTurk/v2_DepthDuration_HTML.html#82,82,1366,625,1366,768,8-22-2022,8-35-52,147,depth_duration_stimuli/002663_2014-06-13_15-50-26_094959634447_rgbf000075-resize_1/002663_2014-06-13_15-50-26_094959634447_rgbf000075-resize_1-target.png,1000,4.7495,2,3376,999,meters,jsons/v1_VE1000_randls_73_rotated.json,888747,995525,48,Woman
147,145257,DepthScenes,duration_manipulation_targetAtFixation,jsons/v1_VE1000_randls_73_rotated.json,http://54.235.29.9/FacialAge/BNav_EC2/DepthDuration/v2_depth_duration_MTurk/v2_DepthDuration_HTML.html#82,82,1366,625,1366,768,8-22-2022,8-35-52,148,depth_duration_stimuli/001828_2014-06-26_21-40-03_260595134347_rgbf000024-resize_0/001828_2014-06-26_21-40-03_260595134347_rgbf000024-resize_0-target.png,1000,4.8260000000000005,2,4060,997,meters,jsons/v1_VE1000_randls_73_rotated.json,888747,995525,48,Woman
148,145257,DepthScenes,duration_manipulation_targetAtFixation,jsons/v1_VE1000_randls_73_rotated.json,http://54.235.29.9/FacialAge/BNav_EC2/DepthDuration/v2_depth_duration_MTurk/v2_DepthDuration_HTML.html#82,82,1366,625,1366,768,8-22-2022,8-35-52,149,depth_duration_stimuli/000009_2014-05-26_14-32-05_260595134347_rgbf000034-resize_3/000009_2014-05-26_14-32-05_260595134347_rgbf000034-resize_3-target.png,1000,3.8715,3,2992,991,meters,jsons/v1_VE1000_randls_73_rotated.json,888747,995525,48,Woman
149,145257,DepthScenes,duration_manipulation_targetAtFixation,jsons/v1_VE1000_randls_73_rotated.json,http://54.235.29.9/FacialAge/BNav_EC2/DepthDuration/v2_depth_duration_MTurk/v2_DepthDuration_HTML.html#82,82,1366,625,1366,768,8-22-2022,8-35-52,150,depth_duration_stimuli/002678_2014-06-13_16-15-32_094959634447_rgbf000151-resize_6/002678_2014-06-13_16-15-32_094959634447_rgbf000151-resize_6-target.png,1000,2.1830000000000003,3,2975,995,meters,jsons/v1_VE1000_randls_73_rotated.json,888747,995525,48,Woman
150,145257,DepthScenes,duration_manipulation_targetAtFixation,jsons/v1_VE1000_randls_73_rotated.json,http://54.235.29.9/FacialAge/BNav_EC2/DepthDuration/v2_depth_duration_MTurk/v2_DepthDuration_HTML.html#82,82,1366,625,1366,768,8-22-2022,8-35-52,151,depth_duration_stimuli/000368_2014-06-09_15-53-01_260595134347_rgbf000155-resize_2/000368_2014-06-09_15-53-01_260595134347_rgbf000155-resize_2-target.png,1000,2.4859999999999998,2,110735,996,meters,jsons/v1_VE1000_randls_73_rotated.json,888747,995525,48,Woman
151,145257,DepthScenes,duration_manipulation_targetAtFixation,jsons/v1_VE1000_randls_73_rotated.json,http://54.235.29.9/FacialAge/BNav_EC2/DepthDuration/v2_depth_duration_MTurk/v2_DepthDuration_HTML.html#82,82,1366,625,1366,768,8-22-2022,8-35-52,152,depth_duration_stimuli/000569_2014-06-09_22-51-47_260595134347_rgbf000141-resize_3/000569_2014-06-09_22-51-47_260595134347_rgbf000141-resize-original.jpg,1000,4.512,3,4181,997,meters,jsons/v1_VE1000_randls_73_rotated.json,888747,995525,48,Woman
152,145257,DepthScenes,duration_manipulation_targetAtFixation,jsons/v1_VE1000_randls_73_rotated.json,http://54.235.29.9/FacialAge/BNav_EC2/DepthDuration/v2_depth_duration_MTurk/v2_DepthDuration_HTML.html#82,82,1366,625,1366,768,8-22-2022,8-35-52,153,depth_duration_stimuli/001650_2014-06-20_12-09-00_260595134347_rgbf000087-resize_3/001650_2014-06-20_12-09-00_260595134347_rgbf000087-resize_3-target.png,1000,1.9505,3,5392,997,meters,jsons/v1_VE1000_randls_73_rotated.json,888747,995525,48,Woman
153,145257,DepthScenes,duration_manipulation_targetAtFixation,jsons/v1_VE1000_randls_73_rotated.json,http://54.235.29.9/FacialAge/BNav_EC2/DepthDuration/v2_depth_duration_MTurk/v2_DepthDuration_HTML.html#82,82,1366,625,1366,768,8-22-2022,8-35-52,154,depth_duration_stimuli/000682_2014-06-08_23-14-58_260595134347_rgbf000041-resize_5/000682_2014-06-08_23-14-58_260595134347_rgbf000041-resize_5-target.png,1000,2.7239999999999998,3,3373,987,meters,jsons/v1_VE1000_randls_73_rotated.json,888747,995525,48,Woman
154,145257,DepthScenes,duration_manipulation_targetAtFixation,jsons/v1_VE1000_randls_73_rotated.json,http://54.235.29.9/FacialAge/BNav_EC2/DepthDuration/v2_depth_duration_MTurk/v2_DepthDuration_HTML.html#82,82,1366,625,1366,768,8-22-2022,8-35-52,155,depth_duration_stimuli/000103_2014-05-14_22-01-17_260595134347_rgbf000152-resize_5/000103_2014-05-14_22-01-17_260595134347_rgbf000152-resize_5-target.png,1000,1.993,3,3629,986,meters,jsons/v1_VE1000_randls_73_rotated.json,888747,995525,48,Woman
155,145257,DepthScenes,duration_manipulation_targetAtFixation,jsons/v1_VE1000_randls_73_rotated.json,http://54.235.29.9/FacialAge/BNav_EC2/DepthDuration/v2_depth_duration_MTurk/v2_DepthDuration_HTML.html#82,82,1366,625,1366,768,8-22-2022,8-35-52,156,depth_duration_stimuli/001555_2014-06-20_17-12-10_260595134347_rgbf000065-resize_4/001555_2014-06-20_17-12-10_260595134347_rgbf000065-resize_4-target.png,1000,1.633,3,6111,1001,meters,jsons/v1_VE1000_randls_73_rotated.json,888747,995525,48,Woman
156,145257,DepthScenes,duration_manipulation_targetAtFixation,jsons/v1_VE1000_randls_73_rotated.json,http://54.235.29.9/FacialAge/BNav_EC2/DepthDuration/v2_depth_duration_MTurk/v2_DepthDuration_HTML.html#82,82,1366,625,1366,768,8-22-2022,8-35-52,157,depth_duration_stimuli/000742_2014-06-08_18-48-09_260595134347_rgbf000164-resize_4/000742_2014-06-08_18-48-09_260595134347_rgbf000164-resize_4-target.png,1000,4.632,2,3940,998,meters,jsons/v1_VE1000_randls_73_rotated.json,888747,995525,48,Woman
157,145257,DepthScenes,duration_manipulation_targetAtFixation,jsons/v1_VE1000_randls_73_rotated.json,http://54.235.29.9/FacialAge/BNav_EC2/DepthDuration/v2_depth_duration_MTurk/v2_DepthDuration_HTML.html#82,82,1366,625,1366,768,8-22-2022,8-35-52,158,depth_duration_stimuli/001066_2014-06-08_22-03-20_260595134347_rgbf000066-resize_4/001066_2014-06-08_22-03-20_260595134347_rgbf000066-resize_4-target.png,1000,4.2330000000000005,3,3469,1000,meters,jsons/v1_VE1000_randls_73_rotated.json,888747,995525,48,Woman
158,145257,DepthScenes,duration_manipulation_targetAtFixation,jsons/v1_VE1000_randls_73_rotated.json,http://54.235.29.9/FacialAge/BNav_EC2/DepthDuration/v2_depth_duration_MTurk/v2_DepthDuration_HTML.html#82,82,1366,625,1366,768,8-22-2022,8-35-52,159,depth_duration_stimuli/002639_2014-06-24_14-51-37_094959634447_rgbf000074-resize_4/002639_2014-06-24_14-51-37_094959634447_rgbf000074-resize_4-target.png,1000,4.0375,4,3683,1000,meters,jsons/v1_VE1000_randls_73_rotated.json,888747,995525,48,Woman
159,145257,DepthScenes,duration_manipulation_targetAtFixation,jsons/v1_VE1000_randls_73_rotated.json,http://54.235.29.9/FacialAge/BNav_EC2/DepthDuration/v2_depth_duration_MTurk/v2_DepthDuration_HTML.html#82,82,1366,625,1366,768,8-22-2022,8-35-52,160,depth_duration_stimuli/003292_2014-05-14_21-53-49_094959634447_rgbf000100-resize_2/003292_2014-05-14_21-53-49_094959634447_rgbf000100-resize_2-target.png,1000,3.4815,2,3055,1000,meters,jsons/v1_VE1000_randls_73_rotated.json,888747,995525,48,Woman
160,145257,DepthScenes,duration_manipulation_targetAtFixation,jsons/v1_VE1000_randls_73_rotated.json,http://54.235.29.9/FacialAge/BNav_EC2/DepthDuration/v2_depth_duration_MTurk/v2_DepthDuration_HTML.html#82,82,1366,625,1366,768,8-22-2022,8-35-52,161,depth_duration_stimuli/001214_2014-06-17_16-13-55_260595134347_rgbf000111-resize_0/001214_2014-06-17_16-13-55_260595134347_rgbf000111-resize_0-target.png,1000,2.6505,3,3321,1011,meters,jsons/v1_VE1000_randls_73_rotated.json,888747,995525,48,Woman
161,145257,DepthScenes,duration_manipulation_targetAtFixation,jsons/v1_VE1000_randls_73_rotated.json,http://54.235.29.9/FacialAge/BNav_EC2/DepthDuration/v2_depth_duration_MTurk/v2_DepthDuration_HTML.html#82,82,1366,625,1366,768,8-22-2022,8-35-52,162,depth_duration_stimuli/000810_2014-06-08_17-20-01_260595134347_rgbf000105-resize_0/000810_2014-06-08_17-20-01_260595134347_rgbf000105-resize_0-target.png,1000,1.4865,3,4707,997,meters,jsons/v1_VE1000_randls_73_rotated.json,888747,995525,48,Woman
162,145257,DepthScenes,duration_manipulation_targetAtFixation,jsons/v1_VE1000_randls_73_rotated.json,http://54.235.29.9/FacialAge/BNav_EC2/DepthDuration/v2_depth_duration_MTurk/v2_DepthDuration_HTML.html#82,82,1366,625,1366,768,8-22-2022,8-35-52,163,depth_duration_stimuli/002875_2014-06-01_15-19-00_094959634447_rgbf000151-resize_1/002875_2014-06-01_15-19-00_094959634447_rgbf000151-resize_1-target.png,1000,1.9675,4,3113,991,meters,jsons/v1_VE1000_randls_73_rotated.json,888747,995525,48,Woman
163,145257,DepthScenes,duration_manipulation_targetAtFixation,jsons/v1_VE1000_randls_73_rotated.json,http://54.235.29.9/FacialAge/BNav_EC2/DepthDuration/v2_depth_duration_MTurk/v2_DepthDuration_HTML.html#82,82,1366,625,1366,768,8-22-2022,8-35-52,164,depth_duration_stimuli/001011_2014-06-08_23-18-54_260595134347_rgbf000044-resize_4/001011_2014-06-08_23-18-54_260595134347_rgbf000044-resize_4-target.png,1000,2.4730000000000003,3,7133,997,meters,jsons/v1_VE1000_randls_73_rotated.json,888747,995525,48,Woman
