,subjID,experimentName,versionName,sequenceName,url,selected_row,windowWidth,windowHeight,screenWidth,screenHeight,startDate,startTime,trial,stimulus,duration,actual_depth,depth_estimate,trial_RT,log_sceneDuration,unitSelection,seq_filepath,experimentTime,totalTime,age,gender
0,145368,DepthScenes,duration_manipulation_targetAtFixation,jsons/v1_VE1000_randls_65.json,http://54.235.29.9/FacialAge/BNav_EC2/DepthDuration/v2_depth_duration_MTurk/v2_DepthDuration_HTML.html#123,123,1517,853,1366,768,8-22-2022,5-12-24,1,depth_duration_stimuli/001055_2014-06-08_18-45-35_260595134347_rgbf000111-resize_4/001055_2014-06-08_18-45-35_260595134347_rgbf000111-resize_4-target.png,1000,2.4290000000000003,2,5159,999,meters,jsons/v1_VE1000_randls_65.json,962096,1394000,29,Man
1,145368,DepthScenes,duration_manipulation_targetAtFixation,jsons/v1_VE1000_randls_65.json,http://54.235.29.9/FacialAge/BNav_EC2/DepthDuration/v2_depth_duration_MTurk/v2_DepthDuration_HTML.html#123,123,1517,853,1366,768,8-22-2022,5-12-24,2,depth_duration_stimuli/000549_2014-06-08_22-10-24_260595134347_rgbf000247-resize_3/000549_2014-06-08_22-10-24_260595134347_rgbf000247-resize_3-target.png,1000,1.841,3,6351,915,meters,jsons/v1_VE1000_randls_65.json,962096,1394000,29,Man
2,145368,DepthScenes,duration_manipulation_targetAtFixation,jsons/v1_VE1000_randls_65.json,http://54.235.29.9/FacialAge/BNav_EC2/DepthDuration/v2_depth_duration_MTurk/v2_DepthDuration_HTML.html#123,123,1517,853,1366,768,8-22-2022,5-12-24,3,depth_duration_stimuli/002057_2014-06-24_21-00-13_260595134347_rgbf000120-resize_1/002057_2014-06-24_21-00-13_260595134347_rgbf000120-resize_1-target.png,1000,2.967,3,6113,974,meters,jsons/v1_VE1000_randls_65.json,962096,1394000,29,Man
3,145368,DepthScenes,duration_manipulation_targetAtFixation,jsons/v1_VE1000_randls_65.json,http://54.235.29.9/FacialAge/BNav_EC2/DepthDuration/v2_depth_duration_MTurk/v2_DepthDuration_HTML.html#123,123,1517,853,1366,768,8-22-2022,5-12-24,4,depth_duration_stimuli/000709_2014-06-08_13-51-55_260595134347_rgbf000068-resize_3/000709_2014-06-08_13-51-55_260595134347_rgbf000068-resize_3-target.png,1000,1.8030000000000002,2,7492,996,meters,jsons/v1_VE1000_randls_65.json,962096,1394000,29,Man
4,145368,DepthScenes,duration_manipulation_targetAtFixation,jsons/v1_VE1000_randls_65.json,http://54.235.29.9/FacialAge/BNav_EC2/DepthDuration/v2_depth_duration_MTurk/v2_DepthDuration_HTML.html#123,123,1517,853,1366,768,8-22-2022,5-12-24,5,depth_duration_stimuli/002039_2014-06-24_20-22-38_260595134347_rgbf000084-resize_1/002039_2014-06-24_20-22-38_260595134347_rgbf000084-resize_1-target.png,1000,4.408,2,3803,996,meters,jsons/v1_VE1000_randls_65.json,962096,1394000,29,Man
5,145368,DepthScenes,duration_manipulation_targetAtFixation,jsons/v1_VE1000_randls_65.json,http://54.235.29.9/FacialAge/BNav_EC2/DepthDuration/v2_depth_duration_MTurk/v2_DepthDuration_HTML.html#123,123,1517,853,1366,768,8-22-2022,5-12-24,6,depth_duration_stimuli/002103_2014-06-25_20-00-40_260595134347_rgbf000049-resize_0/002103_2014-06-25_20-00-40_260595134347_rgbf000049-resize_0-target.png,1000,4.105,1,3542,1000,meters,jsons/v1_VE1000_randls_65.json,962096,1394000,29,Man
6,145368,DepthScenes,duration_manipulation_targetAtFixation,jsons/v1_VE1000_randls_65.json,http://54.235.29.9/FacialAge/BNav_EC2/DepthDuration/v2_depth_duration_MTurk/v2_DepthDuration_HTML.html#123,123,1517,853,1366,768,8-22-2022,5-12-24,7,depth_duration_stimuli/001570_2014-06-20_17-21-09_260595134347_rgbf000135-resize_4/001570_2014-06-20_17-21-09_260595134347_rgbf000135-resize_4-target.png,1000,4.467,2,14792,1000,meters,jsons/v1_VE1000_randls_65.json,962096,1394000,29,Man
7,145368,DepthScenes,duration_manipulation_targetAtFixation,jsons/v1_VE1000_randls_65.json,http://54.235.29.9/FacialAge/BNav_EC2/DepthDuration/v2_depth_duration_MTurk/v2_DepthDuration_HTML.html#123,123,1517,853,1366,768,8-22-2022,5-12-24,8,depth_duration_stimuli/001392_2014-06-19_16-07-59_260595134347_rgbf000046-resize_1/001392_2014-06-19_16-07-59_260595134347_rgbf000046-resize_1-target.png,1000,4.135,2,4512,997,meters,jsons/v1_VE1000_randls_65.json,962096,1394000,29,Man
8,145368,DepthScenes,duration_manipulation_targetAtFixation,jsons/v1_VE1000_randls_65.json,http://54.235.29.9/FacialAge/BNav_EC2/DepthDuration/v2_depth_duration_MTurk/v2_DepthDuration_HTML.html#123,123,1517,853,1366,768,8-22-2022,5-12-24,9,depth_duration_stimuli/000414_2014-06-04_19-49-13_260595134347_rgbf000044-resize_0/000414_2014-06-04_19-49-13_260595134347_rgbf000044-resize_0-target.png,1000,4.329,1,2962,998,meters,jsons/v1_VE1000_randls_65.json,962096,1394000,29,Man
9,145368,DepthScenes,duration_manipulation_targetAtFixation,jsons/v1_VE1000_randls_65.json,http://54.235.29.9/FacialAge/BNav_EC2/DepthDuration/v2_depth_duration_MTurk/v2_DepthDuration_HTML.html#123,123,1517,853,1366,768,8-22-2022,5-12-24,10,depth_duration_stimuli/003129_2014-05-12_10-48-10_094959634447_rgbf000100-resize_0/003129_2014-05-12_10-48-10_094959634447_rgbf000100-resize_0-target.png,1000,4.9305,2,2661,992,meters,jsons/v1_VE1000_randls_65.json,962096,1394000,29,Man
10,145368,DepthScenes,duration_manipulation_targetAtFixation,jsons/v1_VE1000_randls_65.json,http://54.235.29.9/FacialAge/BNav_EC2/DepthDuration/v2_depth_duration_MTurk/v2_DepthDuration_HTML.html#123,123,1517,853,1366,768,8-22-2022,5-12-24,11,depth_duration_stimuli/002272_2014-06-28_18-53-56_260595134347_rgbf000067-resize_2/002272_2014-06-28_18-53-56_260595134347_rgbf000067-resize_2-target.png,1000,1.138,2,4720,1034,meters,jsons/v1_VE1000_randls_65.json,962096,1394000,29,Man
11,145368,DepthScenes,duration_manipulation_targetAtFixation,jsons/v1_VE1000_randls_65.json,http://54.235.29.9/FacialAge/BNav_EC2/DepthDuration/v2_depth_duration_MTurk/v2_DepthDuration_HTML.html#123,123,1517,853,1366,768,8-22-2022,5-12-24,12,depth_duration_stimuli/001571_2014-06-20_17-21-32_260595134347_rgbf000089-resize_1/001571_2014-06-20_17-21-32_260595134347_rgbf000089-resize_1-target.png,1000,1.86,1,150738,978,meters,jsons/v1_VE1000_randls_65.json,962096,1394000,29,Man
12,145368,DepthScenes,duration_manipulation_targetAtFixation,jsons/v1_VE1000_randls_65.json,http://54.235.29.9/FacialAge/BNav_EC2/DepthDuration/v2_depth_duration_MTurk/v2_DepthDuration_HTML.html#123,123,1517,853,1366,768,8-22-2022,5-12-24,13,depth_duration_stimuli/000569_2014-06-09_22-51-47_260595134347_rgbf000141-resize_3/000569_2014-06-09_22-51-47_260595134347_rgbf000141-resize-original.jpg,1000,4.512,3,3681,1001,meters,jsons/v1_VE1000_randls_65.json,962096,1394000,29,Man
13,145368,DepthScenes,duration_manipulation_targetAtFixation,jsons/v1_VE1000_randls_65.json,http://54.235.29.9/FacialAge/BNav_EC2/DepthDuration/v2_depth_duration_MTurk/v2_DepthDuration_HTML.html#123,123,1517,853,1366,768,8-22-2022,5-12-24,14,depth_duration_stimuli/002153_2014-06-25_21-27-18_260595134347_rgbf000038-resize_5/002153_2014-06-25_21-27-18_260595134347_rgbf000038-resize_5-target.png,1000,2.505,2,3110,1000,meters,jsons/v1_VE1000_randls_65.json,962096,1394000,29,Man
14,145368,DepthScenes,duration_manipulation_targetAtFixation,jsons/v1_VE1000_randls_65.json,http://54.235.29.9/FacialAge/BNav_EC2/DepthDuration/v2_depth_duration_MTurk/v2_DepthDuration_HTML.html#123,123,1517,853,1366,768,8-22-2022,5-12-24,15,depth_duration_stimuli/002660_2014-06-13_15-44-18_094959634447_rgbf001878-resize_2/002660_2014-06-13_15-44-18_094959634447_rgbf001878-resize_2-target.png,1000,3.576,2,4371,999,meters,jsons/v1_VE1000_randls_65.json,962096,1394000,29,Man
15,145368,DepthScenes,duration_manipulation_targetAtFixation,jsons/v1_VE1000_randls_65.json,http://54.235.29.9/FacialAge/BNav_EC2/DepthDuration/v2_depth_duration_MTurk/v2_DepthDuration_HTML.html#123,123,1517,853,1366,768,8-22-2022,5-12-24,16,depth_duration_stimuli/001056_2014-06-08_18-46-44_260595134347_rgbf000068-resize_0/001056_2014-06-08_18-46-44_260595134347_rgbf000068-resize_0-target.png,1000,2.6625,2,6564,925,meters,jsons/v1_VE1000_randls_65.json,962096,1394000,29,Man
16,145368,DepthScenes,duration_manipulation_targetAtFixation,jsons/v1_VE1000_randls_65.json,http://54.235.29.9/FacialAge/BNav_EC2/DepthDuration/v2_depth_duration_MTurk/v2_DepthDuration_HTML.html#123,123,1517,853,1366,768,8-22-2022,5-12-24,17,depth_duration_stimuli/002199_2014-06-28_18-33-56_260595134347_rgbf000074-resize_0/002199_2014-06-28_18-33-56_260595134347_rgbf000074-resize_0-target.png,1000,1.996,2,6219,996,meters,jsons/v1_VE1000_randls_65.json,962096,1394000,29,Man
17,145368,DepthScenes,duration_manipulation_targetAtFixation,jsons/v1_VE1000_randls_65.json,http://54.235.29.9/FacialAge/BNav_EC2/DepthDuration/v2_depth_duration_MTurk/v2_DepthDuration_HTML.html#123,123,1517,853,1366,768,8-22-2022,5-12-24,18,depth_duration_stimuli/000506_2014-06-08_23-21-00_260595134347_rgbf000070-resize_7/000506_2014-06-08_23-21-00_260595134347_rgbf000070-resize_7-target.png,1000,4.0585,2,3418,1004,meters,jsons/v1_VE1000_randls_65.json,962096,1394000,29,Man
18,145368,DepthScenes,duration_manipulation_targetAtFixation,jsons/v1_VE1000_randls_65.json,http://54.235.29.9/FacialAge/BNav_EC2/DepthDuration/v2_depth_duration_MTurk/v2_DepthDuration_HTML.html#123,123,1517,853,1366,768,8-22-2022,5-12-24,19,depth_duration_stimuli/003079_2014-06-15_15-18-20_094959634447_rgbf000152-resize_8/003079_2014-06-15_15-18-20_094959634447_rgbf000152-resize_8-target.png,1000,2.8775,2,3358,995,meters,jsons/v1_VE1000_randls_65.json,962096,1394000,29,Man
19,145368,DepthScenes,duration_manipulation_targetAtFixation,jsons/v1_VE1000_randls_65.json,http://54.235.29.9/FacialAge/BNav_EC2/DepthDuration/v2_depth_duration_MTurk/v2_DepthDuration_HTML.html#123,123,1517,853,1366,768,8-22-2022,5-12-24,20,depth_duration_stimuli/001417_2014-06-19_16-25-36_260595134347_rgbf000115-resize_5/001417_2014-06-19_16-25-36_260595134347_rgbf000115-resize_5-target.png,1000,4.6255,2,4804,997,meters,jsons/v1_VE1000_randls_65.json,962096,1394000,29,Man
20,145368,DepthScenes,duration_manipulation_targetAtFixation,jsons/v1_VE1000_randls_65.json,http://54.235.29.9/FacialAge/BNav_EC2/DepthDuration/v2_depth_duration_MTurk/v2_DepthDuration_HTML.html#123,123,1517,853,1366,768,8-22-2022,5-12-24,21,depth_duration_stimuli/003081_2014-06-15_15-19-16_094959634447_rgbf000150-resize_1/003081_2014-06-15_15-19-16_094959634447_rgbf000150-resize_1-target.png,1000,3.9125,2,5356,992,meters,jsons/v1_VE1000_randls_65.json,962096,1394000,29,Man
21,145368,DepthScenes,duration_manipulation_targetAtFixation,jsons/v1_VE1000_randls_65.json,http://54.235.29.9/FacialAge/BNav_EC2/DepthDuration/v2_depth_duration_MTurk/v2_DepthDuration_HTML.html#123,123,1517,853,1366,768,8-22-2022,5-12-24,22,depth_duration_stimuli/001199_2014-06-17_16-03-48_260595134347_rgbf000077-resize_0/001199_2014-06-17_16-03-48_260595134347_rgbf000077-resize_0-target.png,1000,3.4375,6,4128,1001,meters,jsons/v1_VE1000_randls_65.json,962096,1394000,29,Man
22,145368,DepthScenes,duration_manipulation_targetAtFixation,jsons/v1_VE1000_randls_65.json,http://54.235.29.9/FacialAge/BNav_EC2/DepthDuration/v2_depth_duration_MTurk/v2_DepthDuration_HTML.html#123,123,1517,853,1366,768,8-22-2022,5-12-24,23,depth_duration_stimuli/000502_2014-06-08_23-02-32_260595134347_rgbf000063-resize_4/000502_2014-06-08_23-02-32_260595134347_rgbf000063-resize_4-target.png,1000,2.431,1,3025,1003,meters,jsons/v1_VE1000_randls_65.json,962096,1394000,29,Man
23,145368,DepthScenes,duration_manipulation_targetAtFixation,jsons/v1_VE1000_randls_65.json,http://54.235.29.9/FacialAge/BNav_EC2/DepthDuration/v2_depth_duration_MTurk/v2_DepthDuration_HTML.html#123,123,1517,853,1366,768,8-22-2022,5-12-24,24,depth_duration_stimuli/001175_2014-06-17_15-45-55_260595134347_rgbf000129-resize_4/001175_2014-06-17_15-45-55_260595134347_rgbf000129-resize_4-target.png,1000,4.255,3,2944,983,meters,jsons/v1_VE1000_randls_65.json,962096,1394000,29,Man
24,145368,DepthScenes,duration_manipulation_targetAtFixation,jsons/v1_VE1000_randls_65.json,http://54.235.29.9/FacialAge/BNav_EC2/DepthDuration/v2_depth_duration_MTurk/v2_DepthDuration_HTML.html#123,123,1517,853,1366,768,8-22-2022,5-12-24,25,depth_duration_stimuli/003490_2014-05-21_15-50-11_094959634447_rgbf000101-resize_3/003490_2014-05-21_15-50-11_094959634447_rgbf000101-resize_3-target.png,1000,3.6445,5,3614,998,meters,jsons/v1_VE1000_randls_65.json,962096,1394000,29,Man
25,145368,DepthScenes,duration_manipulation_targetAtFixation,jsons/v1_VE1000_randls_65.json,http://54.235.29.9/FacialAge/BNav_EC2/DepthDuration/v2_depth_duration_MTurk/v2_DepthDuration_HTML.html#123,123,1517,853,1366,768,8-22-2022,5-12-24,26,depth_duration_stimuli/002663_2014-06-13_15-50-26_094959634447_rgbf000075-resize_1/002663_2014-06-13_15-50-26_094959634447_rgbf000075-resize_1-target.png,1000,4.7495,2,8133,1001,meters,jsons/v1_VE1000_randls_65.json,962096,1394000,29,Man
26,145368,DepthScenes,duration_manipulation_targetAtFixation,jsons/v1_VE1000_randls_65.json,http://54.235.29.9/FacialAge/BNav_EC2/DepthDuration/v2_depth_duration_MTurk/v2_DepthDuration_HTML.html#123,123,1517,853,1366,768,8-22-2022,5-12-24,27,depth_duration_stimuli/000409_2014-06-04_19-23-33_260595134347_rgbf000067-resize_0/000409_2014-06-04_19-23-33_260595134347_rgbf000067-resize_0-target.png,1000,3.7335,2,6905,1065,meters,jsons/v1_VE1000_randls_65.json,962096,1394000,29,Man
27,145368,DepthScenes,duration_manipulation_targetAtFixation,jsons/v1_VE1000_randls_65.json,http://54.235.29.9/FacialAge/BNav_EC2/DepthDuration/v2_depth_duration_MTurk/v2_DepthDuration_HTML.html#123,123,1517,853,1366,768,8-22-2022,5-12-24,28,depth_duration_stimuli/000642_2014-06-08_16-59-25_260595134347_rgbf000098-resize_2/000642_2014-06-08_16-59-25_260595134347_rgbf000098-resize_2-target.png,1000,2.8815,2,4215,980,meters,jsons/v1_VE1000_randls_65.json,962096,1394000,29,Man
28,145368,DepthScenes,duration_manipulation_targetAtFixation,jsons/v1_VE1000_randls_65.json,http://54.235.29.9/FacialAge/BNav_EC2/DepthDuration/v2_depth_duration_MTurk/v2_DepthDuration_HTML.html#123,123,1517,853,1366,768,8-22-2022,5-12-24,29,depth_duration_stimuli/002425_2014-06-28_20-27-29_260595134347_rgbf000031-resize_8/002425_2014-06-28_20-27-29_260595134347_rgbf000031-resize_8-target.png,1000,3.8960000000000004,2,4550,991,meters,jsons/v1_VE1000_randls_65.json,962096,1394000,29,Man
29,145368,DepthScenes,duration_manipulation_targetAtFixation,jsons/v1_VE1000_randls_65.json,http://54.235.29.9/FacialAge/BNav_EC2/DepthDuration/v2_depth_duration_MTurk/v2_DepthDuration_HTML.html#123,123,1517,853,1366,768,8-22-2022,5-12-24,30,depth_duration_stimuli/000375_2014-06-08_11-17-29_260595134347_rgbf000133-resize_2/000375_2014-06-08_11-17-29_260595134347_rgbf000133-resize-original.jpg,1000,4.718,3,3444,1022,meters,jsons/v1_VE1000_randls_65.json,962096,1394000,29,Man
30,145368,DepthScenes,duration_manipulation_targetAtFixation,jsons/v1_VE1000_randls_65.json,http://54.235.29.9/FacialAge/BNav_EC2/DepthDuration/v2_depth_duration_MTurk/v2_DepthDuration_HTML.html#123,123,1517,853,1366,768,8-22-2022,5-12-24,31,depth_duration_stimuli/001167_2014-06-17_15-38-07_260595134347_rgbf000108-resize_0/001167_2014-06-17_15-38-07_260595134347_rgbf000108-resize_0-target.png,1000,1.8505,3,4409,999,meters,jsons/v1_VE1000_randls_65.json,962096,1394000,29,Man
31,145368,DepthScenes,duration_manipulation_targetAtFixation,jsons/v1_VE1000_randls_65.json,http://54.235.29.9/FacialAge/BNav_EC2/DepthDuration/v2_depth_duration_MTurk/v2_DepthDuration_HTML.html#123,123,1517,853,1366,768,8-22-2022,5-12-24,32,depth_duration_stimuli/003587_2014-05-23_16-48-02_094959634447_rgbf002384-resize_2/003587_2014-05-23_16-48-02_094959634447_rgbf002384-resize_2-target.png,1000,1.357,1,4311,1012,meters,jsons/v1_VE1000_randls_65.json,962096,1394000,29,Man
32,145368,DepthScenes,duration_manipulation_targetAtFixation,jsons/v1_VE1000_randls_65.json,http://54.235.29.9/FacialAge/BNav_EC2/DepthDuration/v2_depth_duration_MTurk/v2_DepthDuration_HTML.html#123,123,1517,853,1366,768,8-22-2022,5-12-24,33,depth_duration_stimuli/002279_2014-06-28_18-55-32_260595134347_rgbf000040-resize_5/002279_2014-06-28_18-55-32_260595134347_rgbf000040-resize_5-target.png,1000,1.5043333333333,2,3075,998,meters,jsons/v1_VE1000_randls_65.json,962096,1394000,29,Man
33,145368,DepthScenes,duration_manipulation_targetAtFixation,jsons/v1_VE1000_randls_65.json,http://54.235.29.9/FacialAge/BNav_EC2/DepthDuration/v2_depth_duration_MTurk/v2_DepthDuration_HTML.html#123,123,1517,853,1366,768,8-22-2022,5-12-24,34,depth_duration_stimuli/000635_2014-06-08_16-38-42_260595134347_rgbf000106-resize_1/000635_2014-06-08_16-38-42_260595134347_rgbf000106-resize_1-target.png,1000,2.074,2,8489,995,meters,jsons/v1_VE1000_randls_65.json,962096,1394000,29,Man
34,145368,DepthScenes,duration_manipulation_targetAtFixation,jsons/v1_VE1000_randls_65.json,http://54.235.29.9/FacialAge/BNav_EC2/DepthDuration/v2_depth_duration_MTurk/v2_DepthDuration_HTML.html#123,123,1517,853,1366,768,8-22-2022,5-12-24,35,depth_duration_stimuli/001164_2014-06-17_15-35-46_260595134347_rgbf000085-resize_3/001164_2014-06-17_15-35-46_260595134347_rgbf000085-resize_3-target.png,1000,2.354,2,4274,997,meters,jsons/v1_VE1000_randls_65.json,962096,1394000,29,Man
35,145368,DepthScenes,duration_manipulation_targetAtFixation,jsons/v1_VE1000_randls_65.json,http://54.235.29.9/FacialAge/BNav_EC2/DepthDuration/v2_depth_duration_MTurk/v2_DepthDuration_HTML.html#123,123,1517,853,1366,768,8-22-2022,5-12-24,36,depth_duration_stimuli/001136_2014-06-17_15-19-41_260595134347_rgbf000076-resize_3/001136_2014-06-17_15-19-41_260595134347_rgbf000076-resize_3-target.png,1000,1.8655,2,3222,1018,meters,jsons/v1_VE1000_randls_65.json,962096,1394000,29,Man
36,145368,DepthScenes,duration_manipulation_targetAtFixation,jsons/v1_VE1000_randls_65.json,http://54.235.29.9/FacialAge/BNav_EC2/DepthDuration/v2_depth_duration_MTurk/v2_DepthDuration_HTML.html#123,123,1517,853,1366,768,8-22-2022,5-12-24,37,depth_duration_stimuli/002509_2014-06-24_13-19-22_094959634447_rgbf000077-resize_0/002509_2014-06-24_13-19-22_094959634447_rgbf000077-resize_0-target.png,1000,1.3065,3,6948,1061,meters,jsons/v1_VE1000_randls_65.json,962096,1394000,29,Man
37,145368,DepthScenes,duration_manipulation_targetAtFixation,jsons/v1_VE1000_randls_65.json,http://54.235.29.9/FacialAge/BNav_EC2/DepthDuration/v2_depth_duration_MTurk/v2_DepthDuration_HTML.html#123,123,1517,853,1366,768,8-22-2022,5-12-24,38,depth_duration_stimuli/003338_2014-05-20_11-01-23_094959634447_rgbf000051-resize_6/003338_2014-05-20_11-01-23_094959634447_rgbf000051-resize_6-target.png,1000,1.693,5,4815,998,meters,jsons/v1_VE1000_randls_65.json,962096,1394000,29,Man
38,145368,DepthScenes,duration_manipulation_targetAtFixation,jsons/v1_VE1000_randls_65.json,http://54.235.29.9/FacialAge/BNav_EC2/DepthDuration/v2_depth_duration_MTurk/v2_DepthDuration_HTML.html#123,123,1517,853,1366,768,8-22-2022,5-12-24,39,depth_duration_stimuli/003070_2014-06-15_14-58-27_094959634447_rgbf000150-resize_3/003070_2014-06-15_14-58-27_094959634447_rgbf000150-resize_3-target.png,1000,2.9415,2,4687,999,meters,jsons/v1_VE1000_randls_65.json,962096,1394000,29,Man
39,145368,DepthScenes,duration_manipulation_targetAtFixation,jsons/v1_VE1000_randls_65.json,http://54.235.29.9/FacialAge/BNav_EC2/DepthDuration/v2_depth_duration_MTurk/v2_DepthDuration_HTML.html#123,123,1517,853,1366,768,8-22-2022,5-12-24,40,depth_duration_stimuli/000943_2014-06-09_19-31-07_260595134347_rgbf000128-resize_1/000943_2014-06-09_19-31-07_260595134347_rgbf000128-resize_1-target.png,1000,1.9765,2,2794,994,meters,jsons/v1_VE1000_randls_65.json,962096,1394000,29,Man
40,145368,DepthScenes,duration_manipulation_targetAtFixation,jsons/v1_VE1000_randls_65.json,http://54.235.29.9/FacialAge/BNav_EC2/DepthDuration/v2_depth_duration_MTurk/v2_DepthDuration_HTML.html#123,123,1517,853,1366,768,8-22-2022,5-12-24,41,depth_duration_stimuli/003292_2014-05-14_21-53-49_094959634447_rgbf000100-resize_2/003292_2014-05-14_21-53-49_094959634447_rgbf000100-resize_2-target.png,1000,3.4815,1,4764,995,meters,jsons/v1_VE1000_randls_65.json,962096,1394000,29,Man
41,145368,DepthScenes,duration_manipulation_targetAtFixation,jsons/v1_VE1000_randls_65.json,http://54.235.29.9/FacialAge/BNav_EC2/DepthDuration/v2_depth_duration_MTurk/v2_DepthDuration_HTML.html#123,123,1517,853,1366,768,8-22-2022,5-12-24,42,depth_duration_stimuli/002639_2014-06-24_14-51-37_094959634447_rgbf000074-resize_4/002639_2014-06-24_14-51-37_094959634447_rgbf000074-resize_4-target.png,1000,4.0375,2,4356,995,meters,jsons/v1_VE1000_randls_65.json,962096,1394000,29,Man
42,145368,DepthScenes,duration_manipulation_targetAtFixation,jsons/v1_VE1000_randls_65.json,http://54.235.29.9/FacialAge/BNav_EC2/DepthDuration/v2_depth_duration_MTurk/v2_DepthDuration_HTML.html#123,123,1517,853,1366,768,8-22-2022,5-12-24,43,depth_duration_stimuli/001449_2014-06-19_17-01-27_260595134347_rgbf000116-resize_2/001449_2014-06-19_17-01-27_260595134347_rgbf000116-resize_2-target.png,1000,3.452,1,3568,999,meters,jsons/v1_VE1000_randls_65.json,962096,1394000,29,Man
43,145368,DepthScenes,duration_manipulation_targetAtFixation,jsons/v1_VE1000_randls_65.json,http://54.235.29.9/FacialAge/BNav_EC2/DepthDuration/v2_depth_duration_MTurk/v2_DepthDuration_HTML.html#123,123,1517,853,1366,768,8-22-2022,5-12-24,44,depth_duration_stimuli/001450_2014-06-19_17-02-03_260595134347_rgbf000203-resize_4/001450_2014-06-19_17-02-03_260595134347_rgbf000203-resize_4-target.png,1000,4.0106666666667,1,9258,1007,meters,jsons/v1_VE1000_randls_65.json,962096,1394000,29,Man
44,145368,DepthScenes,duration_manipulation_targetAtFixation,jsons/v1_VE1000_randls_65.json,http://54.235.29.9/FacialAge/BNav_EC2/DepthDuration/v2_depth_duration_MTurk/v2_DepthDuration_HTML.html#123,123,1517,853,1366,768,8-22-2022,5-12-24,45,depth_duration_stimuli/000787_2014-06-08_22-33-53_260595134347_rgbf000175-resize_1/000787_2014-06-08_22-33-53_260595134347_rgbf000175-resize-original.jpg,1000,4.784,3,3184,1000,meters,jsons/v1_VE1000_randls_65.json,962096,1394000,29,Man
45,145368,DepthScenes,duration_manipulation_targetAtFixation,jsons/v1_VE1000_randls_65.json,http://54.235.29.9/FacialAge/BNav_EC2/DepthDuration/v2_depth_duration_MTurk/v2_DepthDuration_HTML.html#123,123,1517,853,1366,768,8-22-2022,5-12-24,46,depth_duration_stimuli/000368_2014-06-09_15-53-01_260595134347_rgbf000155-resize_2/000368_2014-06-09_15-53-01_260595134347_rgbf000155-resize_2-target.png,1000,2.4859999999999998,3,5276,1046,meters,jsons/v1_VE1000_randls_65.json,962096,1394000,29,Man
46,145368,DepthScenes,duration_manipulation_targetAtFixation,jsons/v1_VE1000_randls_65.json,http://54.235.29.9/FacialAge/BNav_EC2/DepthDuration/v2_depth_duration_MTurk/v2_DepthDuration_HTML.html#123,123,1517,853,1366,768,8-22-2022,5-12-24,47,depth_duration_stimuli/002678_2014-06-13_16-15-32_094959634447_rgbf000151-resize_6/002678_2014-06-13_16-15-32_094959634447_rgbf000151-resize_6-target.png,1000,2.1830000000000003,2,2704,1001,meters,jsons/v1_VE1000_randls_65.json,962096,1394000,29,Man
47,145368,DepthScenes,duration_manipulation_targetAtFixation,jsons/v1_VE1000_randls_65.json,http://54.235.29.9/FacialAge/BNav_EC2/DepthDuration/v2_depth_duration_MTurk/v2_DepthDuration_HTML.html#123,123,1517,853,1366,768,8-22-2022,5-12-24,48,depth_duration_stimuli/002213_2014-06-28_18-37-58_260595134347_rgbf000055-resize_1/002213_2014-06-28_18-37-58_260595134347_rgbf000055-resize_1-target.png,1000,3.62,5,4236,990,meters,jsons/v1_VE1000_randls_65.json,962096,1394000,29,Man
48,145368,DepthScenes,duration_manipulation_targetAtFixation,jsons/v1_VE1000_randls_65.json,http://54.235.29.9/FacialAge/BNav_EC2/DepthDuration/v2_depth_duration_MTurk/v2_DepthDuration_HTML.html#123,123,1517,853,1366,768,8-22-2022,5-12-24,49,depth_duration_stimuli/000691_2014-06-08_13-08-50_260595134347_rgbf000132-resize_3/000691_2014-06-08_13-08-50_260595134347_rgbf000132-resize_3-target.png,1000,4.1530000000000005,2,3451,998,meters,jsons/v1_VE1000_randls_65.json,962096,1394000,29,Man
49,145368,DepthScenes,duration_manipulation_targetAtFixation,jsons/v1_VE1000_randls_65.json,http://54.235.29.9/FacialAge/BNav_EC2/DepthDuration/v2_depth_duration_MTurk/v2_DepthDuration_HTML.html#123,123,1517,853,1366,768,8-22-2022,5-12-24,50,depth_duration_stimuli/002043_2014-06-24_20-29-38_260595134347_rgbf000039-resize_4/002043_2014-06-24_20-29-38_260595134347_rgbf000039-resize_4-target.png,1000,2.8435,2,3819,988,meters,jsons/v1_VE1000_randls_65.json,962096,1394000,29,Man
50,145368,DepthScenes,duration_manipulation_targetAtFixation,jsons/v1_VE1000_randls_65.json,http://54.235.29.9/FacialAge/BNav_EC2/DepthDuration/v2_depth_duration_MTurk/v2_DepthDuration_HTML.html#123,123,1517,853,1366,768,8-22-2022,5-12-24,51,depth_duration_stimuli/003048_2014-06-15_13-49-43_094959634447_rgbf000150-resize_1/003048_2014-06-15_13-49-43_094959634447_rgbf000150-resize_1-target.png,1000,4.0035,5,5359,999,meters,jsons/v1_VE1000_randls_65.json,962096,1394000,29,Man
51,145368,DepthScenes,duration_manipulation_targetAtFixation,jsons/v1_VE1000_randls_65.json,http://54.235.29.9/FacialAge/BNav_EC2/DepthDuration/v2_depth_duration_MTurk/v2_DepthDuration_HTML.html#123,123,1517,853,1366,768,8-22-2022,5-12-24,52,depth_duration_stimuli/001092_2014-06-15_17-34-58_260595134347_rgbf000171-resize_3/001092_2014-06-15_17-34-58_260595134347_rgbf000171-resize_3-target.png,1000,2.6935,1,4572,943,meters,jsons/v1_VE1000_randls_65.json,962096,1394000,29,Man
52,145368,DepthScenes,duration_manipulation_targetAtFixation,jsons/v1_VE1000_randls_65.json,http://54.235.29.9/FacialAge/BNav_EC2/DepthDuration/v2_depth_duration_MTurk/v2_DepthDuration_HTML.html#123,123,1517,853,1366,768,8-22-2022,5-12-24,53,depth_duration_stimuli/002545_2014-06-24_13-38-53_094959634447_rgbf000080-resize_4/002545_2014-06-24_13-38-53_094959634447_rgbf000080-resize_4-target.png,1000,1.9205,3,3574,1000,meters,jsons/v1_VE1000_randls_65.json,962096,1394000,29,Man
53,145368,DepthScenes,duration_manipulation_targetAtFixation,jsons/v1_VE1000_randls_65.json,http://54.235.29.9/FacialAge/BNav_EC2/DepthDuration/v2_depth_duration_MTurk/v2_DepthDuration_HTML.html#123,123,1517,853,1366,768,8-22-2022,5-12-24,54,depth_duration_stimuli/002784_2014-06-22_19-26-30_094959634447_rgbf000083-resize_3/002784_2014-06-22_19-26-30_094959634447_rgbf000083-resize_3-target.png,1000,1.8046666666667,1,2996,986,meters,jsons/v1_VE1000_randls_65.json,962096,1394000,29,Man
54,145368,DepthScenes,duration_manipulation_targetAtFixation,jsons/v1_VE1000_randls_65.json,http://54.235.29.9/FacialAge/BNav_EC2/DepthDuration/v2_depth_duration_MTurk/v2_DepthDuration_HTML.html#123,123,1517,853,1366,768,8-22-2022,5-12-24,55,depth_duration_stimuli/001100_2014-06-15_17-46-26_260595134347_rgbf000225-resize_2/001100_2014-06-15_17-46-26_260595134347_rgbf000225-resize_2-target.png,1000,2.24,2,3692,989,meters,jsons/v1_VE1000_randls_65.json,962096,1394000,29,Man
55,145368,DepthScenes,duration_manipulation_targetAtFixation,jsons/v1_VE1000_randls_65.json,http://54.235.29.9/FacialAge/BNav_EC2/DepthDuration/v2_depth_duration_MTurk/v2_DepthDuration_HTML.html#123,123,1517,853,1366,768,8-22-2022,5-12-24,56,depth_duration_stimuli/000493_2014-06-09_21-01-18_260595134347_rgbf000196-resize_3/000493_2014-06-09_21-01-18_260595134347_rgbf000196-resize_3-target.png,1000,3.44,2,4849,997,meters,jsons/v1_VE1000_randls_65.json,962096,1394000,29,Man
56,145368,DepthScenes,duration_manipulation_targetAtFixation,jsons/v1_VE1000_randls_65.json,http://54.235.29.9/FacialAge/BNav_EC2/DepthDuration/v2_depth_duration_MTurk/v2_DepthDuration_HTML.html#123,123,1517,853,1366,768,8-22-2022,5-12-24,57,depth_duration_stimuli/000191_2014-05-12_17-07-38_260595134347_rgbf000199-resize_0/000191_2014-05-12_17-07-38_260595134347_rgbf000199-resize_0-target.png,1000,3.7995,2,2934,998,meters,jsons/v1_VE1000_randls_65.json,962096,1394000,29,Man
57,145368,DepthScenes,duration_manipulation_targetAtFixation,jsons/v1_VE1000_randls_65.json,http://54.235.29.9/FacialAge/BNav_EC2/DepthDuration/v2_depth_duration_MTurk/v2_DepthDuration_HTML.html#123,123,1517,853,1366,768,8-22-2022,5-12-24,58,depth_duration_stimuli/002964_2014-06-08_17-46-11_094959634447_rgbf000091-resize_4/002964_2014-06-08_17-46-11_094959634447_rgbf000091-resize_4-target.png,1000,1.6909999999999998,1,8060,1231,meters,jsons/v1_VE1000_randls_65.json,962096,1394000,29,Man
58,145368,DepthScenes,duration_manipulation_targetAtFixation,jsons/v1_VE1000_randls_65.json,http://54.235.29.9/FacialAge/BNav_EC2/DepthDuration/v2_depth_duration_MTurk/v2_DepthDuration_HTML.html#123,123,1517,853,1366,768,8-22-2022,5-12-24,59,depth_duration_stimuli/002136_2014-06-25_21-18-03_260595134347_rgbf000109-resize_3/002136_2014-06-25_21-18-03_260595134347_rgbf000109-resize_3-target.png,1000,1.9569999999999999,1,3242,997,meters,jsons/v1_VE1000_randls_65.json,962096,1394000,29,Man
59,145368,DepthScenes,duration_manipulation_targetAtFixation,jsons/v1_VE1000_randls_65.json,http://54.235.29.9/FacialAge/BNav_EC2/DepthDuration/v2_depth_duration_MTurk/v2_DepthDuration_HTML.html#123,123,1517,853,1366,768,8-22-2022,5-12-24,60,depth_duration_stimuli/000009_2014-05-26_14-32-05_260595134347_rgbf000034-resize_3/000009_2014-05-26_14-32-05_260595134347_rgbf000034-resize_3-target.png,1000,3.8715,1,5476,1003,meters,jsons/v1_VE1000_randls_65.json,962096,1394000,29,Man
60,145368,DepthScenes,duration_manipulation_targetAtFixation,jsons/v1_VE1000_randls_65.json,http://54.235.29.9/FacialAge/BNav_EC2/DepthDuration/v2_depth_duration_MTurk/v2_DepthDuration_HTML.html#123,123,1517,853,1366,768,8-22-2022,5-12-24,61,depth_duration_stimuli/001828_2014-06-26_21-40-03_260595134347_rgbf000024-resize_0/001828_2014-06-26_21-40-03_260595134347_rgbf000024-resize_0-target.png,1000,4.8260000000000005,1,5169,999,meters,jsons/v1_VE1000_randls_65.json,962096,1394000,29,Man
61,145368,DepthScenes,duration_manipulation_targetAtFixation,jsons/v1_VE1000_randls_65.json,http://54.235.29.9/FacialAge/BNav_EC2/DepthDuration/v2_depth_duration_MTurk/v2_DepthDuration_HTML.html#123,123,1517,853,1366,768,8-22-2022,5-12-24,62,depth_duration_stimuli/000736_2014-06-08_18-24-15_260595134347_rgbf000206-resize_3/000736_2014-06-08_18-24-15_260595134347_rgbf000206-resize_3-target.png,1000,3.515,1,4177,1000,meters,jsons/v1_VE1000_randls_65.json,962096,1394000,29,Man
62,145368,DepthScenes,duration_manipulation_targetAtFixation,jsons/v1_VE1000_randls_65.json,http://54.235.29.9/FacialAge/BNav_EC2/DepthDuration/v2_depth_duration_MTurk/v2_DepthDuration_HTML.html#123,123,1517,853,1366,768,8-22-2022,5-12-24,63,depth_duration_stimuli/000137_2014-05-20_17-04-49_260595134347_rgbf000120-resize_1/000137_2014-05-20_17-04-49_260595134347_rgbf000120-resize_1-target.png,1000,3.786,1,2664,998,meters,jsons/v1_VE1000_randls_65.json,962096,1394000,29,Man
63,145368,DepthScenes,duration_manipulation_targetAtFixation,jsons/v1_VE1000_randls_65.json,http://54.235.29.9/FacialAge/BNav_EC2/DepthDuration/v2_depth_duration_MTurk/v2_DepthDuration_HTML.html#123,123,1517,853,1366,768,8-22-2022,5-12-24,64,depth_duration_stimuli/001244_2014-06-17_16-47-45_260595134347_rgbf000030-resize_4/001244_2014-06-17_16-47-45_260595134347_rgbf000030-resize_4-target.png,1000,2.0425,3,4075,1000,meters,jsons/v1_VE1000_randls_65.json,962096,1394000,29,Man
64,145368,DepthScenes,duration_manipulation_targetAtFixation,jsons/v1_VE1000_randls_65.json,http://54.235.29.9/FacialAge/BNav_EC2/DepthDuration/v2_depth_duration_MTurk/v2_DepthDuration_HTML.html#123,123,1517,853,1366,768,8-22-2022,5-12-24,65,depth_duration_stimuli/003495_2014-05-21_16-01-51_094959634447_rgbf000100-resize_3/003495_2014-05-21_16-01-51_094959634447_rgbf000100-resize_3-target.png,1000,1.6255,6,4630,1001,meters,jsons/v1_VE1000_randls_65.json,962096,1394000,29,Man
65,145368,DepthScenes,duration_manipulation_targetAtFixation,jsons/v1_VE1000_randls_65.json,http://54.235.29.9/FacialAge/BNav_EC2/DepthDuration/v2_depth_duration_MTurk/v2_DepthDuration_HTML.html#123,123,1517,853,1366,768,8-22-2022,5-12-24,66,depth_duration_stimuli/001222_2014-06-17_16-24-06_260595134347_rgbf000073-resize_0/001222_2014-06-17_16-24-06_260595134347_rgbf000073-resize-original.jpg,1000,1.4385,1,6379,1005,meters,jsons/v1_VE1000_randls_65.json,962096,1394000,29,Man
66,145368,DepthScenes,duration_manipulation_targetAtFixation,jsons/v1_VE1000_randls_65.json,http://54.235.29.9/FacialAge/BNav_EC2/DepthDuration/v2_depth_duration_MTurk/v2_DepthDuration_HTML.html#123,123,1517,853,1366,768,8-22-2022,5-12-24,67,depth_duration_stimuli/002570_2014-06-24_13-59-54_094959634447_rgbf000059-resize_0/002570_2014-06-24_13-59-54_094959634447_rgbf000059-resize_0-target.png,1000,4.037,2,4525,992,meters,jsons/v1_VE1000_randls_65.json,962096,1394000,29,Man
67,145368,DepthScenes,duration_manipulation_targetAtFixation,jsons/v1_VE1000_randls_65.json,http://54.235.29.9/FacialAge/BNav_EC2/DepthDuration/v2_depth_duration_MTurk/v2_DepthDuration_HTML.html#123,123,1517,853,1366,768,8-22-2022,5-12-24,68,depth_duration_stimuli/002467_2014-06-28_20-38-07_260595134347_rgbf000026-resize_2/002467_2014-06-28_20-38-07_260595134347_rgbf000026-resize_2-target.png,1000,4.742,2,4883,975,meters,jsons/v1_VE1000_randls_65.json,962096,1394000,29,Man
68,145368,DepthScenes,duration_manipulation_targetAtFixation,jsons/v1_VE1000_randls_65.json,http://54.235.29.9/FacialAge/BNav_EC2/DepthDuration/v2_depth_duration_MTurk/v2_DepthDuration_HTML.html#123,123,1517,853,1366,768,8-22-2022,5-12-24,69,depth_duration_stimuli/002748_2014-06-22_19-07-22_094959634447_rgbf000078-resize_1/002748_2014-06-22_19-07-22_094959634447_rgbf000078-resize_1-target.png,1000,4.6705,2,2911,1007,meters,jsons/v1_VE1000_randls_65.json,962096,1394000,29,Man
69,145368,DepthScenes,duration_manipulation_targetAtFixation,jsons/v1_VE1000_randls_65.json,http://54.235.29.9/FacialAge/BNav_EC2/DepthDuration/v2_depth_duration_MTurk/v2_DepthDuration_HTML.html#123,123,1517,853,1366,768,8-22-2022,5-12-24,70,depth_duration_stimuli/002995_2014-06-15_12-31-26_094959634447_rgbf000150-resize_1/002995_2014-06-15_12-31-26_094959634447_rgbf000150-resize_1-target.png,1000,3.8360000000000003,2,3015,1217,meters,jsons/v1_VE1000_randls_65.json,962096,1394000,29,Man
70,145368,DepthScenes,duration_manipulation_targetAtFixation,jsons/v1_VE1000_randls_65.json,http://54.235.29.9/FacialAge/BNav_EC2/DepthDuration/v2_depth_duration_MTurk/v2_DepthDuration_HTML.html#123,123,1517,853,1366,768,8-22-2022,5-12-24,71,depth_duration_stimuli/001810_2014-06-26_20-51-35_260595134347_rgbf000040-resize_3/001810_2014-06-26_20-51-35_260595134347_rgbf000040-resize_3-target.png,1000,2.2525,3,3520,1016,meters,jsons/v1_VE1000_randls_65.json,962096,1394000,29,Man
71,145368,DepthScenes,duration_manipulation_targetAtFixation,jsons/v1_VE1000_randls_65.json,http://54.235.29.9/FacialAge/BNav_EC2/DepthDuration/v2_depth_duration_MTurk/v2_DepthDuration_HTML.html#123,123,1517,853,1366,768,8-22-2022,5-12-24,72,depth_duration_stimuli/003010_2014-06-15_12-54-35_094959634447_rgbf000112-resize_0/003010_2014-06-15_12-54-35_094959634447_rgbf000112-resize_0-target.png,1000,3.1185,3,3065,996,meters,jsons/v1_VE1000_randls_65.json,962096,1394000,29,Man
72,145368,DepthScenes,duration_manipulation_targetAtFixation,jsons/v1_VE1000_randls_65.json,http://54.235.29.9/FacialAge/BNav_EC2/DepthDuration/v2_depth_duration_MTurk/v2_DepthDuration_HTML.html#123,123,1517,853,1366,768,8-22-2022,5-12-24,73,depth_duration_stimuli/002600_2014-06-24_14-27-04_094959634447_rgbf000074-resize_2/002600_2014-06-24_14-27-04_094959634447_rgbf000074-resize_2-target.png,1000,2.7575,1,4708,993,meters,jsons/v1_VE1000_randls_65.json,962096,1394000,29,Man
73,145368,DepthScenes,duration_manipulation_targetAtFixation,jsons/v1_VE1000_randls_65.json,http://54.235.29.9/FacialAge/BNav_EC2/DepthDuration/v2_depth_duration_MTurk/v2_DepthDuration_HTML.html#123,123,1517,853,1366,768,8-22-2022,5-12-24,74,depth_duration_stimuli/003228_2014-05-14_13-42-35_094959634447_rgbf000101-resize_1/003228_2014-05-14_13-42-35_094959634447_rgbf000101-resize_1-target.png,1000,1.9680000000000002,3,3069,1181,meters,jsons/v1_VE1000_randls_65.json,962096,1394000,29,Man
74,145368,DepthScenes,duration_manipulation_targetAtFixation,jsons/v1_VE1000_randls_65.json,http://54.235.29.9/FacialAge/BNav_EC2/DepthDuration/v2_depth_duration_MTurk/v2_DepthDuration_HTML.html#123,123,1517,853,1366,768,8-22-2022,5-12-24,75,depth_duration_stimuli/001011_2014-06-08_23-18-54_260595134347_rgbf000044-resize_4/001011_2014-06-08_23-18-54_260595134347_rgbf000044-resize_4-target.png,1000,2.4730000000000003,2,4150,995,meters,jsons/v1_VE1000_randls_65.json,962096,1394000,29,Man
75,145368,DepthScenes,duration_manipulation_targetAtFixation,jsons/v1_VE1000_randls_65.json,http://54.235.29.9/FacialAge/BNav_EC2/DepthDuration/v2_depth_duration_MTurk/v2_DepthDuration_HTML.html#123,123,1517,853,1366,768,8-22-2022,5-12-24,76,depth_duration_stimuli/002875_2014-06-01_15-19-00_094959634447_rgbf000151-resize_1/002875_2014-06-01_15-19-00_094959634447_rgbf000151-resize_1-target.png,1000,1.9675,2,2887,991,meters,jsons/v1_VE1000_randls_65.json,962096,1394000,29,Man
76,145368,DepthScenes,duration_manipulation_targetAtFixation,jsons/v1_VE1000_randls_65.json,http://54.235.29.9/FacialAge/BNav_EC2/DepthDuration/v2_depth_duration_MTurk/v2_DepthDuration_HTML.html#123,123,1517,853,1366,768,8-22-2022,5-12-24,77,depth_duration_stimuli/000917_2014-06-09_22-45-29_260595134347_rgbf000149-resize_3/000917_2014-06-09_22-45-29_260595134347_rgbf000149-resize_3-target.png,1000,4.1865,1,3003,1004,meters,jsons/v1_VE1000_randls_65.json,962096,1394000,29,Man
77,145368,DepthScenes,duration_manipulation_targetAtFixation,jsons/v1_VE1000_randls_65.json,http://54.235.29.9/FacialAge/BNav_EC2/DepthDuration/v2_depth_duration_MTurk/v2_DepthDuration_HTML.html#123,123,1517,853,1366,768,8-22-2022,5-12-24,78,depth_duration_stimuli/002323_2014-06-28_20-01-54_260595134347_rgbf000051-resize_4/002323_2014-06-28_20-01-54_260595134347_rgbf000051-resize_4-target.png,1000,3.7310000000000003,2,9315,1012,meters,jsons/v1_VE1000_randls_65.json,962096,1394000,29,Man
78,145368,DepthScenes,duration_manipulation_targetAtFixation,jsons/v1_VE1000_randls_65.json,http://54.235.29.9/FacialAge/BNav_EC2/DepthDuration/v2_depth_duration_MTurk/v2_DepthDuration_HTML.html#123,123,1517,853,1366,768,8-22-2022,5-12-24,79,depth_duration_stimuli/001016_2014-06-09_16-16-10_260595134347_rgbf000112-resize_5/001016_2014-06-09_16-16-10_260595134347_rgbf000112-resize_5-target.png,1000,1.6565,2,3382,995,meters,jsons/v1_VE1000_randls_65.json,962096,1394000,29,Man
79,145368,DepthScenes,duration_manipulation_targetAtFixation,jsons/v1_VE1000_randls_65.json,http://54.235.29.9/FacialAge/BNav_EC2/DepthDuration/v2_depth_duration_MTurk/v2_DepthDuration_HTML.html#123,123,1517,853,1366,768,8-22-2022,5-12-24,80,depth_duration_stimuli/002340_2014-06-28_20-05-46_260595134347_rgbf000113-resize_0/002340_2014-06-28_20-05-46_260595134347_rgbf000113-resize_0-target.png,1000,2.4735,3,5283,996,meters,jsons/v1_VE1000_randls_65.json,962096,1394000,29,Man
80,145368,DepthScenes,duration_manipulation_targetAtFixation,jsons/v1_VE1000_randls_65.json,http://54.235.29.9/FacialAge/BNav_EC2/DepthDuration/v2_depth_duration_MTurk/v2_DepthDuration_HTML.html#123,123,1517,853,1366,768,8-22-2022,5-12-24,81,depth_duration_stimuli/000929_2014-06-09_16-33-19_260595134347_rgbf000139-resize_0/000929_2014-06-09_16-33-19_260595134347_rgbf000139-resize_0-target.png,1000,2.8680000000000003,2,3740,999,meters,jsons/v1_VE1000_randls_65.json,962096,1394000,29,Man
81,145368,DepthScenes,duration_manipulation_targetAtFixation,jsons/v1_VE1000_randls_65.json,http://54.235.29.9/FacialAge/BNav_EC2/DepthDuration/v2_depth_duration_MTurk/v2_DepthDuration_HTML.html#123,123,1517,853,1366,768,8-22-2022,5-12-24,82,depth_duration_stimuli/000457_2014-06-08_16-52-43_260595134347_rgbf000199-resize_1/000457_2014-06-08_16-52-43_260595134347_rgbf000199-resize_1-target.png,1000,3.6489999999999996,2,3417,1008,meters,jsons/v1_VE1000_randls_65.json,962096,1394000,29,Man
82,145368,DepthScenes,duration_manipulation_targetAtFixation,jsons/v1_VE1000_randls_65.json,http://54.235.29.9/FacialAge/BNav_EC2/DepthDuration/v2_depth_duration_MTurk/v2_DepthDuration_HTML.html#123,123,1517,853,1366,768,8-22-2022,5-12-24,83,depth_duration_stimuli/001066_2014-06-08_22-03-20_260595134347_rgbf000066-resize_4/001066_2014-06-08_22-03-20_260595134347_rgbf000066-resize_4-target.png,1000,4.2330000000000005,2,2803,1181,meters,jsons/v1_VE1000_randls_65.json,962096,1394000,29,Man
83,145368,DepthScenes,duration_manipulation_targetAtFixation,jsons/v1_VE1000_randls_65.json,http://54.235.29.9/FacialAge/BNav_EC2/DepthDuration/v2_depth_duration_MTurk/v2_DepthDuration_HTML.html#123,123,1517,853,1366,768,8-22-2022,5-12-24,84,depth_duration_stimuli/000742_2014-06-08_18-48-09_260595134347_rgbf000164-resize_4/000742_2014-06-08_18-48-09_260595134347_rgbf000164-resize_4-target.png,1000,4.632,2,5642,993,meters,jsons/v1_VE1000_randls_65.json,962096,1394000,29,Man
84,145368,DepthScenes,duration_manipulation_targetAtFixation,jsons/v1_VE1000_randls_65.json,http://54.235.29.9/FacialAge/BNav_EC2/DepthDuration/v2_depth_duration_MTurk/v2_DepthDuration_HTML.html#123,123,1517,853,1366,768,8-22-2022,5-12-24,85,depth_duration_stimuli/001555_2014-06-20_17-12-10_260595134347_rgbf000065-resize_4/001555_2014-06-20_17-12-10_260595134347_rgbf000065-resize_4-target.png,1000,1.633,2,2750,1004,meters,jsons/v1_VE1000_randls_65.json,962096,1394000,29,Man
85,145368,DepthScenes,duration_manipulation_targetAtFixation,jsons/v1_VE1000_randls_65.json,http://54.235.29.9/FacialAge/BNav_EC2/DepthDuration/v2_depth_duration_MTurk/v2_DepthDuration_HTML.html#123,123,1517,853,1366,768,8-22-2022,5-12-24,86,depth_duration_stimuli/000103_2014-05-14_22-01-17_260595134347_rgbf000152-resize_5/000103_2014-05-14_22-01-17_260595134347_rgbf000152-resize_5-target.png,1000,1.993,2,2739,995,meters,jsons/v1_VE1000_randls_65.json,962096,1394000,29,Man
86,145368,DepthScenes,duration_manipulation_targetAtFixation,jsons/v1_VE1000_randls_65.json,http://54.235.29.9/FacialAge/BNav_EC2/DepthDuration/v2_depth_duration_MTurk/v2_DepthDuration_HTML.html#123,123,1517,853,1366,768,8-22-2022,5-12-24,87,depth_duration_stimuli/002788_2014-06-22_19-36-03_094959634447_rgbf000088-resize_2/002788_2014-06-22_19-36-03_094959634447_rgbf000088-resize_2-target.png,1000,1.6465,3,3942,962,meters,jsons/v1_VE1000_randls_65.json,962096,1394000,29,Man
87,145368,DepthScenes,duration_manipulation_targetAtFixation,jsons/v1_VE1000_randls_65.json,http://54.235.29.9/FacialAge/BNav_EC2/DepthDuration/v2_depth_duration_MTurk/v2_DepthDuration_HTML.html#123,123,1517,853,1366,768,8-22-2022,5-12-24,88,depth_duration_stimuli/000749_2014-06-08_21-55-06_260595134347_rgbf000070-resize_2/000749_2014-06-08_21-55-06_260595134347_rgbf000070-resize_2-target.png,1000,2.331,12,7343,994,meters,jsons/v1_VE1000_randls_65.json,962096,1394000,29,Man
88,145368,DepthScenes,duration_manipulation_targetAtFixation,jsons/v1_VE1000_randls_65.json,http://54.235.29.9/FacialAge/BNav_EC2/DepthDuration/v2_depth_duration_MTurk/v2_DepthDuration_HTML.html#123,123,1517,853,1366,768,8-22-2022,5-12-24,89,depth_duration_stimuli/001029_2014-06-08_13-17-57_260595134347_rgbf000065-resize_1/001029_2014-06-08_13-17-57_260595134347_rgbf000065-resize_1-target.png,1000,3.0835,1,3968,1223,meters,jsons/v1_VE1000_randls_65.json,962096,1394000,29,Man
89,145368,DepthScenes,duration_manipulation_targetAtFixation,jsons/v1_VE1000_randls_65.json,http://54.235.29.9/FacialAge/BNav_EC2/DepthDuration/v2_depth_duration_MTurk/v2_DepthDuration_HTML.html#123,123,1517,853,1366,768,8-22-2022,5-12-24,90,depth_duration_stimuli/000677_2014-06-08_23-10-32_260595134347_rgbf000158-resize_6/000677_2014-06-08_23-10-32_260595134347_rgbf000158-resize_6-target.png,1000,3.556,5,4422,1023,meters,jsons/v1_VE1000_randls_65.json,962096,1394000,29,Man
90,145368,DepthScenes,duration_manipulation_targetAtFixation,jsons/v1_VE1000_randls_65.json,http://54.235.29.9/FacialAge/BNav_EC2/DepthDuration/v2_depth_duration_MTurk/v2_DepthDuration_HTML.html#123,123,1517,853,1366,768,8-22-2022,5-12-24,91,depth_duration_stimuli/001150_2014-06-17_15-27-34_260595134347_rgbf000108-resize_2/001150_2014-06-17_15-27-34_260595134347_rgbf000108-resize_2-target.png,1000,4.0325,2,2725,997,meters,jsons/v1_VE1000_randls_65.json,962096,1394000,29,Man
91,145368,DepthScenes,duration_manipulation_targetAtFixation,jsons/v1_VE1000_randls_65.json,http://54.235.29.9/FacialAge/BNav_EC2/DepthDuration/v2_depth_duration_MTurk/v2_DepthDuration_HTML.html#123,123,1517,853,1366,768,8-22-2022,5-12-24,92,depth_duration_stimuli/000665_2014-06-09_20-42-35_260595134347_rgbf000110-resize_1/000665_2014-06-09_20-42-35_260595134347_rgbf000110-resize_1-target.png,1000,3.057,2,4204,984,meters,jsons/v1_VE1000_randls_65.json,962096,1394000,29,Man
92,145368,DepthScenes,duration_manipulation_targetAtFixation,jsons/v1_VE1000_randls_65.json,http://54.235.29.9/FacialAge/BNav_EC2/DepthDuration/v2_depth_duration_MTurk/v2_DepthDuration_HTML.html#123,123,1517,853,1366,768,8-22-2022,5-12-24,93,depth_duration_stimuli/000758_2014-06-08_22-05-08_260595134347_rgbf000085-resize_0/000758_2014-06-08_22-05-08_260595134347_rgbf000085-resize_0-target.png,1000,3.3810000000000002,6,2706,947,meters,jsons/v1_VE1000_randls_65.json,962096,1394000,29,Man
93,145368,DepthScenes,duration_manipulation_targetAtFixation,jsons/v1_VE1000_randls_65.json,http://54.235.29.9/FacialAge/BNav_EC2/DepthDuration/v2_depth_duration_MTurk/v2_DepthDuration_HTML.html#123,123,1517,853,1366,768,8-22-2022,5-12-24,94,depth_duration_stimuli/000854_2014-06-09_19-43-13_260595134347_rgbf000066-resize_0/000854_2014-06-09_19-43-13_260595134347_rgbf000066-resize_0-target.png,1000,3.068,2,3908,999,meters,jsons/v1_VE1000_randls_65.json,962096,1394000,29,Man
94,145368,DepthScenes,duration_manipulation_targetAtFixation,jsons/v1_VE1000_randls_65.json,http://54.235.29.9/FacialAge/BNav_EC2/DepthDuration/v2_depth_duration_MTurk/v2_DepthDuration_HTML.html#123,123,1517,853,1366,768,8-22-2022,5-12-24,95,depth_duration_stimuli/001133_2014-06-17_14-49-16_260595134347_rgbf000100-resize_0/001133_2014-06-17_14-49-16_260595134347_rgbf000100-resize_0-target.png,1000,4.2115,2,3649,1000,meters,jsons/v1_VE1000_randls_65.json,962096,1394000,29,Man
95,145368,DepthScenes,duration_manipulation_targetAtFixation,jsons/v1_VE1000_randls_65.json,http://54.235.29.9/FacialAge/BNav_EC2/DepthDuration/v2_depth_duration_MTurk/v2_DepthDuration_HTML.html#123,123,1517,853,1366,768,8-22-2022,5-12-24,96,depth_duration_stimuli/001132_2014-06-17_14-48-54_260595134347_rgbf000100-resize_2/001132_2014-06-17_14-48-54_260595134347_rgbf000100-resize_2-target.png,1000,3.753,2,5970,1000,meters,jsons/v1_VE1000_randls_65.json,962096,1394000,29,Man
96,145368,DepthScenes,duration_manipulation_targetAtFixation,jsons/v1_VE1000_randls_65.json,http://54.235.29.9/FacialAge/BNav_EC2/DepthDuration/v2_depth_duration_MTurk/v2_DepthDuration_HTML.html#123,123,1517,853,1366,768,8-22-2022,5-12-24,97,depth_duration_stimuli/000878_2014-06-08_22-52-45_260595134347_rgbf000045-resize_2/000878_2014-06-08_22-52-45_260595134347_rgbf000045-resize_2-target.png,1000,2.092,2,4323,983,meters,jsons/v1_VE1000_randls_65.json,962096,1394000,29,Man
97,145368,DepthScenes,duration_manipulation_targetAtFixation,jsons/v1_VE1000_randls_65.json,http://54.235.29.9/FacialAge/BNav_EC2/DepthDuration/v2_depth_duration_MTurk/v2_DepthDuration_HTML.html#123,123,1517,853,1366,768,8-22-2022,5-12-24,98,depth_duration_stimuli/002953_2014-06-08_17-32-18_094959634447_rgbf000059-resize_5/002953_2014-06-08_17-32-18_094959634447_rgbf000059-resize_5-target.png,1000,1.551,2,2663,989,meters,jsons/v1_VE1000_randls_65.json,962096,1394000,29,Man
98,145368,DepthScenes,duration_manipulation_targetAtFixation,jsons/v1_VE1000_randls_65.json,http://54.235.29.9/FacialAge/BNav_EC2/DepthDuration/v2_depth_duration_MTurk/v2_DepthDuration_HTML.html#123,123,1517,853,1366,768,8-22-2022,5-12-24,99,depth_duration_stimuli/001540_2014-06-20_17-01-05_260595134347_rgbf000086-resize_2/001540_2014-06-20_17-01-05_260595134347_rgbf000086-resize-original.jpg,1000,1.459,2,2721,1017,meters,jsons/v1_VE1000_randls_65.json,962096,1394000,29,Man
99,145368,DepthScenes,duration_manipulation_targetAtFixation,jsons/v1_VE1000_randls_65.json,http://54.235.29.9/FacialAge/BNav_EC2/DepthDuration/v2_depth_duration_MTurk/v2_DepthDuration_HTML.html#123,123,1517,853,1366,768,8-22-2022,5-12-24,100,depth_duration_stimuli/000810_2014-06-08_17-20-01_260595134347_rgbf000105-resize_0/000810_2014-06-08_17-20-01_260595134347_rgbf000105-resize_0-target.png,1000,1.4865,2,3457,1001,meters,jsons/v1_VE1000_randls_65.json,962096,1394000,29,Man
100,145368,DepthScenes,duration_manipulation_targetAtFixation,jsons/v1_VE1000_randls_65.json,http://54.235.29.9/FacialAge/BNav_EC2/DepthDuration/v2_depth_duration_MTurk/v2_DepthDuration_HTML.html#123,123,1517,853,1366,768,8-22-2022,5-12-24,101,depth_duration_stimuli/001214_2014-06-17_16-13-55_260595134347_rgbf000111-resize_0/001214_2014-06-17_16-13-55_260595134347_rgbf000111-resize_0-target.png,1000,2.6505,56,4403,995,meters,jsons/v1_VE1000_randls_65.json,962096,1394000,29,Man
101,145368,DepthScenes,duration_manipulation_targetAtFixation,jsons/v1_VE1000_randls_65.json,http://54.235.29.9/FacialAge/BNav_EC2/DepthDuration/v2_depth_duration_MTurk/v2_DepthDuration_HTML.html#123,123,1517,853,1366,768,8-22-2022,5-12-24,102,depth_duration_stimuli/001059_2014-06-08_21-53-27_260595134347_rgbf000061-resize_4/001059_2014-06-08_21-53-27_260595134347_rgbf000061-resize_4-target.png,1000,2.4185,5,3265,1003,meters,jsons/v1_VE1000_randls_65.json,962096,1394000,29,Man
102,145368,DepthScenes,duration_manipulation_targetAtFixation,jsons/v1_VE1000_randls_65.json,http://54.235.29.9/FacialAge/BNav_EC2/DepthDuration/v2_depth_duration_MTurk/v2_DepthDuration_HTML.html#123,123,1517,853,1366,768,8-22-2022,5-12-24,103,depth_duration_stimuli/001032_2014-06-08_13-23-17_260595134347_rgbf000021-resize_3/001032_2014-06-08_13-23-17_260595134347_rgbf000021-resize_3-target.png,1000,3.2725,4,4776,1000,meters,jsons/v1_VE1000_randls_65.json,962096,1394000,29,Man
103,145368,DepthScenes,duration_manipulation_targetAtFixation,jsons/v1_VE1000_randls_65.json,http://54.235.29.9/FacialAge/BNav_EC2/DepthDuration/v2_depth_duration_MTurk/v2_DepthDuration_HTML.html#123,123,1517,853,1366,768,8-22-2022,5-12-24,104,depth_duration_stimuli/000906_2014-06-08_13-35-43_260595134347_rgbf000155-resize_1/000906_2014-06-08_13-35-43_260595134347_rgbf000155-resize_1-target.png,1000,2.8489999999999998,2,4478,1053,meters,jsons/v1_VE1000_randls_65.json,962096,1394000,29,Man
104,145368,DepthScenes,duration_manipulation_targetAtFixation,jsons/v1_VE1000_randls_65.json,http://54.235.29.9/FacialAge/BNav_EC2/DepthDuration/v2_depth_duration_MTurk/v2_DepthDuration_HTML.html#123,123,1517,853,1366,768,8-22-2022,5-12-24,105,depth_duration_stimuli/002805_2014-06-22_19-54-03_094959634447_rgbf000079-resize_1/002805_2014-06-22_19-54-03_094959634447_rgbf000079-resize_1-target.png,1000,3.1439999999999997,2,3143,1003,meters,jsons/v1_VE1000_randls_65.json,962096,1394000,29,Man
105,145368,DepthScenes,duration_manipulation_targetAtFixation,jsons/v1_VE1000_randls_65.json,http://54.235.29.9/FacialAge/BNav_EC2/DepthDuration/v2_depth_duration_MTurk/v2_DepthDuration_HTML.html#123,123,1517,853,1366,768,8-22-2022,5-12-24,106,depth_duration_stimuli/001806_2014-06-26_20-50-20_260595134347_rgbf000091-resize_1/001806_2014-06-26_20-50-20_260595134347_rgbf000091-resize_1-target.png,1000,2.7305,3,5743,999,meters,jsons/v1_VE1000_randls_65.json,962096,1394000,29,Man
106,145368,DepthScenes,duration_manipulation_targetAtFixation,jsons/v1_VE1000_randls_65.json,http://54.235.29.9/FacialAge/BNav_EC2/DepthDuration/v2_depth_duration_MTurk/v2_DepthDuration_HTML.html#123,123,1517,853,1366,768,8-22-2022,5-12-24,107,depth_duration_stimuli/001617_2014-06-20_11-35-32_260595134347_rgbf000066-resize_1/001617_2014-06-20_11-35-32_260595134347_rgbf000066-resize_1-target.png,1000,3.7910000000000004,3,4527,1000,meters,jsons/v1_VE1000_randls_65.json,962096,1394000,29,Man
107,145368,DepthScenes,duration_manipulation_targetAtFixation,jsons/v1_VE1000_randls_65.json,http://54.235.29.9/FacialAge/BNav_EC2/DepthDuration/v2_depth_duration_MTurk/v2_DepthDuration_HTML.html#123,123,1517,853,1366,768,8-22-2022,5-12-24,108,depth_duration_stimuli/003621_2014-05-23_18-06-08_094959634447_rgbf000101-resize_1/003621_2014-05-23_18-06-08_094959634447_rgbf000101-resize_1-target.png,1000,3.9835,2,4118,998,meters,jsons/v1_VE1000_randls_65.json,962096,1394000,29,Man
108,145368,DepthScenes,duration_manipulation_targetAtFixation,jsons/v1_VE1000_randls_65.json,http://54.235.29.9/FacialAge/BNav_EC2/DepthDuration/v2_depth_duration_MTurk/v2_DepthDuration_HTML.html#123,123,1517,853,1366,768,8-22-2022,5-12-24,109,depth_duration_stimuli/001584_2014-06-20_11-07-43_260595134347_rgbf000002-resize_1/001584_2014-06-20_11-07-43_260595134347_rgbf000002-resize_1-target.png,1000,3.53,1,5396,1067,meters,jsons/v1_VE1000_randls_65.json,962096,1394000,29,Man
109,145368,DepthScenes,duration_manipulation_targetAtFixation,jsons/v1_VE1000_randls_65.json,http://54.235.29.9/FacialAge/BNav_EC2/DepthDuration/v2_depth_duration_MTurk/v2_DepthDuration_HTML.html#123,123,1517,853,1366,768,8-22-2022,5-12-24,110,depth_duration_stimuli/000447_2014-06-08_16-15-46_260595134347_rgbf000130-resize_1/000447_2014-06-08_16-15-46_260595134347_rgbf000130-resize_1-target.png,1000,4.479,2,3885,994,meters,jsons/v1_VE1000_randls_65.json,962096,1394000,29,Man
110,145368,DepthScenes,duration_manipulation_targetAtFixation,jsons/v1_VE1000_randls_65.json,http://54.235.29.9/FacialAge/BNav_EC2/DepthDuration/v2_depth_duration_MTurk/v2_DepthDuration_HTML.html#123,123,1517,853,1366,768,8-22-2022,5-12-24,111,depth_duration_stimuli/001447_2014-06-19_17-00-32_260595134347_rgbf000082-resize_5/001447_2014-06-19_17-00-32_260595134347_rgbf000082-resize_5-target.png,1000,4.13775,2,2364,564,meters,jsons/v1_VE1000_randls_65.json,962096,1394000,29,Man
111,145368,DepthScenes,duration_manipulation_targetAtFixation,jsons/v1_VE1000_randls_65.json,http://54.235.29.9/FacialAge/BNav_EC2/DepthDuration/v2_depth_duration_MTurk/v2_DepthDuration_HTML.html#123,123,1517,853,1366,768,8-22-2022,5-12-24,112,depth_duration_stimuli/002988_2014-06-15_12-24-20_094959634447_rgbf000150-resize_1/002988_2014-06-15_12-24-20_094959634447_rgbf000150-resize_1-target.png,1000,4.7669999999999995,21,2766,993,meters,jsons/v1_VE1000_randls_65.json,962096,1394000,29,Man
112,145368,DepthScenes,duration_manipulation_targetAtFixation,jsons/v1_VE1000_randls_65.json,http://54.235.29.9/FacialAge/BNav_EC2/DepthDuration/v2_depth_duration_MTurk/v2_DepthDuration_HTML.html#123,123,1517,853,1366,768,8-22-2022,5-12-24,113,depth_duration_stimuli/001052_2014-06-08_18-24-54_260595134347_rgbf000130-resize_1/001052_2014-06-08_18-24-54_260595134347_rgbf000130-resize_1-target.png,1000,4.1045,1,3872,1032,meters,jsons/v1_VE1000_randls_65.json,962096,1394000,29,Man
113,145368,DepthScenes,duration_manipulation_targetAtFixation,jsons/v1_VE1000_randls_65.json,http://54.235.29.9/FacialAge/BNav_EC2/DepthDuration/v2_depth_duration_MTurk/v2_DepthDuration_HTML.html#123,123,1517,853,1366,768,8-22-2022,5-12-24,114,depth_duration_stimuli/001158_2014-06-17_15-32-16_260595134347_rgbf000138-resize_2/001158_2014-06-17_15-32-16_260595134347_rgbf000138-resize_2-target.png,1000,4.5315,2,3459,846,meters,jsons/v1_VE1000_randls_65.json,962096,1394000,29,Man
114,145368,DepthScenes,duration_manipulation_targetAtFixation,jsons/v1_VE1000_randls_65.json,http://54.235.29.9/FacialAge/BNav_EC2/DepthDuration/v2_depth_duration_MTurk/v2_DepthDuration_HTML.html#123,123,1517,853,1366,768,8-22-2022,5-12-24,115,depth_duration_stimuli/000556_2014-06-09_22-42-56_260595134347_rgbf000214-resize_1/000556_2014-06-09_22-42-56_260595134347_rgbf000214-resize_1-target.png,1000,4.8415,2,16408,984,meters,jsons/v1_VE1000_randls_65.json,962096,1394000,29,Man
115,145368,DepthScenes,duration_manipulation_targetAtFixation,jsons/v1_VE1000_randls_65.json,http://54.235.29.9/FacialAge/BNav_EC2/DepthDuration/v2_depth_duration_MTurk/v2_DepthDuration_HTML.html#123,123,1517,853,1366,768,8-22-2022,5-12-24,116,depth_duration_stimuli/001170_2014-06-17_15-43-44_260595134347_rgbf000096-resize_6/001170_2014-06-17_15-43-44_260595134347_rgbf000096-resize-original.jpg,1000,1.1909999999999998,2,3409,994,meters,jsons/v1_VE1000_randls_65.json,962096,1394000,29,Man
116,145368,DepthScenes,duration_manipulation_targetAtFixation,jsons/v1_VE1000_randls_65.json,http://54.235.29.9/FacialAge/BNav_EC2/DepthDuration/v2_depth_duration_MTurk/v2_DepthDuration_HTML.html#123,123,1517,853,1366,768,8-22-2022,5-12-24,117,depth_duration_stimuli/000773_2014-06-08_22-24-54_260595134347_rgbf000093-resize_1/000773_2014-06-08_22-24-54_260595134347_rgbf000093-resize_1-target.png,1000,4.973,2,3234,998,meters,jsons/v1_VE1000_randls_65.json,962096,1394000,29,Man
117,145368,DepthScenes,duration_manipulation_targetAtFixation,jsons/v1_VE1000_randls_65.json,http://54.235.29.9/FacialAge/BNav_EC2/DepthDuration/v2_depth_duration_MTurk/v2_DepthDuration_HTML.html#123,123,1517,853,1366,768,8-22-2022,5-12-24,118,depth_duration_stimuli/002414_2014-06-28_20-24-58_260595134347_rgbf000067-resize_4/002414_2014-06-28_20-24-58_260595134347_rgbf000067-resize_4-target.png,1000,4.363,1,6902,1014,meters,jsons/v1_VE1000_randls_65.json,962096,1394000,29,Man
118,145368,DepthScenes,duration_manipulation_targetAtFixation,jsons/v1_VE1000_randls_65.json,http://54.235.29.9/FacialAge/BNav_EC2/DepthDuration/v2_depth_duration_MTurk/v2_DepthDuration_HTML.html#123,123,1517,853,1366,768,8-22-2022,5-12-24,119,depth_duration_stimuli/003534_2014-05-22_15-06-10_094959634447_rgbf000102-resize_4/003534_2014-05-22_15-06-10_094959634447_rgbf000102-resize_4-target.png,1000,1.426,1,3728,1004,meters,jsons/v1_VE1000_randls_65.json,962096,1394000,29,Man
119,145368,DepthScenes,duration_manipulation_targetAtFixation,jsons/v1_VE1000_randls_65.json,http://54.235.29.9/FacialAge/BNav_EC2/DepthDuration/v2_depth_duration_MTurk/v2_DepthDuration_HTML.html#123,123,1517,853,1366,768,8-22-2022,5-12-24,120,depth_duration_stimuli/002637_2014-06-24_14-51-13_094959634447_rgbf000066-resize_4/002637_2014-06-24_14-51-13_094959634447_rgbf000066-resize_4-target.png,1000,1.9955,2,6022,994,meters,jsons/v1_VE1000_randls_65.json,962096,1394000,29,Man
120,145368,DepthScenes,duration_manipulation_targetAtFixation,jsons/v1_VE1000_randls_65.json,http://54.235.29.9/FacialAge/BNav_EC2/DepthDuration/v2_depth_duration_MTurk/v2_DepthDuration_HTML.html#123,123,1517,853,1366,768,8-22-2022,5-12-24,121,depth_duration_stimuli/002630_2014-06-24_14-47-50_094959634447_rgbf000055-resize_1/002630_2014-06-24_14-47-50_094959634447_rgbf000055-resize_1-target.png,1000,3.0095,1,4929,1002,meters,jsons/v1_VE1000_randls_65.json,962096,1394000,29,Man
121,145368,DepthScenes,duration_manipulation_targetAtFixation,jsons/v1_VE1000_randls_65.json,http://54.235.29.9/FacialAge/BNav_EC2/DepthDuration/v2_depth_duration_MTurk/v2_DepthDuration_HTML.html#123,123,1517,853,1366,768,8-22-2022,5-12-24,122,depth_duration_stimuli/002758_2014-06-22_19-11-20_094959634447_rgbf000128-resize_1/002758_2014-06-22_19-11-20_094959634447_rgbf000128-resize_1-target.png,1000,2.555,2,4109,985,meters,jsons/v1_VE1000_randls_65.json,962096,1394000,29,Man
122,145368,DepthScenes,duration_manipulation_targetAtFixation,jsons/v1_VE1000_randls_65.json,http://54.235.29.9/FacialAge/BNav_EC2/DepthDuration/v2_depth_duration_MTurk/v2_DepthDuration_HTML.html#123,123,1517,853,1366,768,8-22-2022,5-12-24,123,depth_duration_stimuli/002118_2014-06-25_20-32-08_260595134347_rgbf000078-resize_1/002118_2014-06-25_20-32-08_260595134347_rgbf000078-resize_1-target.png,1000,2.6460000000000004,2,4185,1033,meters,jsons/v1_VE1000_randls_65.json,962096,1394000,29,Man
123,145368,DepthScenes,duration_manipulation_targetAtFixation,jsons/v1_VE1000_randls_65.json,http://54.235.29.9/FacialAge/BNav_EC2/DepthDuration/v2_depth_duration_MTurk/v2_DepthDuration_HTML.html#123,123,1517,853,1366,768,8-22-2022,5-12-24,124,depth_duration_stimuli/001516_2014-06-20_16-25-09_260595134347_rgbf000076-resize_2/001516_2014-06-20_16-25-09_260595134347_rgbf000076-resize_2-target.png,1000,1.7445,2,5729,996,meters,jsons/v1_VE1000_randls_65.json,962096,1394000,29,Man
124,145368,DepthScenes,duration_manipulation_targetAtFixation,jsons/v1_VE1000_randls_65.json,http://54.235.29.9/FacialAge/BNav_EC2/DepthDuration/v2_depth_duration_MTurk/v2_DepthDuration_HTML.html#123,123,1517,853,1366,768,8-22-2022,5-12-24,125,depth_duration_stimuli/000739_2014-06-08_18-45-58_260595134347_rgbf000068-resize_1/000739_2014-06-08_18-45-58_260595134347_rgbf000068-resize_1-target.png,1000,3.534,1,2787,1015,meters,jsons/v1_VE1000_randls_65.json,962096,1394000,29,Man
125,145368,DepthScenes,duration_manipulation_targetAtFixation,jsons/v1_VE1000_randls_65.json,http://54.235.29.9/FacialAge/BNav_EC2/DepthDuration/v2_depth_duration_MTurk/v2_DepthDuration_HTML.html#123,123,1517,853,1366,768,8-22-2022,5-12-24,126,depth_duration_stimuli/000734_2014-06-08_17-39-11_260595134347_rgbf000128-resize_2/000734_2014-06-08_17-39-11_260595134347_rgbf000128-resize_2-target.png,1000,4.098,2,2693,927,meters,jsons/v1_VE1000_randls_65.json,962096,1394000,29,Man
126,145368,DepthScenes,duration_manipulation_targetAtFixation,jsons/v1_VE1000_randls_65.json,http://54.235.29.9/FacialAge/BNav_EC2/DepthDuration/v2_depth_duration_MTurk/v2_DepthDuration_HTML.html#123,123,1517,853,1366,768,8-22-2022,5-12-24,127,depth_duration_stimuli/000692_2014-06-08_13-09-42_260595134347_rgbf000199-resize_2/000692_2014-06-08_13-09-42_260595134347_rgbf000199-resize_2-target.png,1000,3.661,1,6097,975,meters,jsons/v1_VE1000_randls_65.json,962096,1394000,29,Man
127,145368,DepthScenes,duration_manipulation_targetAtFixation,jsons/v1_VE1000_randls_65.json,http://54.235.29.9/FacialAge/BNav_EC2/DepthDuration/v2_depth_duration_MTurk/v2_DepthDuration_HTML.html#123,123,1517,853,1366,768,8-22-2022,5-12-24,128,depth_duration_stimuli/001094_2014-06-15_17-36-00_260595134347_rgbf000205-resize_0/001094_2014-06-15_17-36-00_260595134347_rgbf000205-resize_0-target.png,1000,4.2175,1,5064,1144,meters,jsons/v1_VE1000_randls_65.json,962096,1394000,29,Man
128,145368,DepthScenes,duration_manipulation_targetAtFixation,jsons/v1_VE1000_randls_65.json,http://54.235.29.9/FacialAge/BNav_EC2/DepthDuration/v2_depth_duration_MTurk/v2_DepthDuration_HTML.html#123,123,1517,853,1366,768,8-22-2022,5-12-24,129,depth_duration_stimuli/000436_2014-06-09_22-25-11_260595134347_rgbf000137-resize_1/000436_2014-06-09_22-25-11_260595134347_rgbf000137-resize_1-target.png,1000,4.0705,1,5675,996,meters,jsons/v1_VE1000_randls_65.json,962096,1394000,29,Man
129,145368,DepthScenes,duration_manipulation_targetAtFixation,jsons/v1_VE1000_randls_65.json,http://54.235.29.9/FacialAge/BNav_EC2/DepthDuration/v2_depth_duration_MTurk/v2_DepthDuration_HTML.html#123,123,1517,853,1366,768,8-22-2022,5-12-24,130,depth_duration_stimuli/002444_2014-06-28_20-32-08_260595134347_rgbf000027-resize_0/002444_2014-06-28_20-32-08_260595134347_rgbf000027-resize_0-target.png,1000,4.388999999999999,2,3082,1001,meters,jsons/v1_VE1000_randls_65.json,962096,1394000,29,Man
130,145368,DepthScenes,duration_manipulation_targetAtFixation,jsons/v1_VE1000_randls_65.json,http://54.235.29.9/FacialAge/BNav_EC2/DepthDuration/v2_depth_duration_MTurk/v2_DepthDuration_HTML.html#123,123,1517,853,1366,768,8-22-2022,5-12-24,131,depth_duration_stimuli/000486_2014-06-09_20-47-20_260595134347_rgbf000143-resize_2/000486_2014-06-09_20-47-20_260595134347_rgbf000143-resize_2-target.png,1000,4.8325,1,2915,1003,meters,jsons/v1_VE1000_randls_65.json,962096,1394000,29,Man
131,145368,DepthScenes,duration_manipulation_targetAtFixation,jsons/v1_VE1000_randls_65.json,http://54.235.29.9/FacialAge/BNav_EC2/DepthDuration/v2_depth_duration_MTurk/v2_DepthDuration_HTML.html#123,123,1517,853,1366,768,8-22-2022,5-12-24,132,depth_duration_stimuli/003083_2014-06-15_15-21-03_094959634447_rgbf000063-resize_1/003083_2014-06-15_15-21-03_094959634447_rgbf000063-resize_1-target.png,1000,4.1405,2,2728,1145,meters,jsons/v1_VE1000_randls_65.json,962096,1394000,29,Man
132,145368,DepthScenes,duration_manipulation_targetAtFixation,jsons/v1_VE1000_randls_65.json,http://54.235.29.9/FacialAge/BNav_EC2/DepthDuration/v2_depth_duration_MTurk/v2_DepthDuration_HTML.html#123,123,1517,853,1366,768,8-22-2022,5-12-24,133,depth_duration_stimuli/002549_2014-06-24_13-41-39_094959634447_rgbf000022-resize_3/002549_2014-06-24_13-41-39_094959634447_rgbf000022-resize_3-target.png,1000,1.476,2,3415,1003,meters,jsons/v1_VE1000_randls_65.json,962096,1394000,29,Man
133,145368,DepthScenes,duration_manipulation_targetAtFixation,jsons/v1_VE1000_randls_65.json,http://54.235.29.9/FacialAge/BNav_EC2/DepthDuration/v2_depth_duration_MTurk/v2_DepthDuration_HTML.html#123,123,1517,853,1366,768,8-22-2022,5-12-24,134,depth_duration_stimuli/002750_2014-06-22_19-08-03_094959634447_rgbf000094-resize_4/002750_2014-06-22_19-08-03_094959634447_rgbf000094-resize_4-target.png,1000,2.354,2,4711,1006,meters,jsons/v1_VE1000_randls_65.json,962096,1394000,29,Man
134,145368,DepthScenes,duration_manipulation_targetAtFixation,jsons/v1_VE1000_randls_65.json,http://54.235.29.9/FacialAge/BNav_EC2/DepthDuration/v2_depth_duration_MTurk/v2_DepthDuration_HTML.html#123,123,1517,853,1366,768,8-22-2022,5-12-24,135,depth_duration_stimuli/002072_2014-06-24_21-48-06_260595134347_rgbf000115-resize_0/002072_2014-06-24_21-48-06_260595134347_rgbf000115-resize-original.jpg,1000,4.702,2,2960,1005,meters,jsons/v1_VE1000_randls_65.json,962096,1394000,29,Man
135,145368,DepthScenes,duration_manipulation_targetAtFixation,jsons/v1_VE1000_randls_65.json,http://54.235.29.9/FacialAge/BNav_EC2/DepthDuration/v2_depth_duration_MTurk/v2_DepthDuration_HTML.html#123,123,1517,853,1366,768,8-22-2022,5-12-24,136,depth_duration_stimuli/002989_2014-06-15_12-25-03_094959634447_rgbf000150-resize_3/002989_2014-06-15_12-25-03_094959634447_rgbf000150-resize_3-target.png,1000,4.1975,2,3504,947,meters,jsons/v1_VE1000_randls_65.json,962096,1394000,29,Man
136,145368,DepthScenes,duration_manipulation_targetAtFixation,jsons/v1_VE1000_randls_65.json,http://54.235.29.9/FacialAge/BNav_EC2/DepthDuration/v2_depth_duration_MTurk/v2_DepthDuration_HTML.html#123,123,1517,853,1366,768,8-22-2022,5-12-24,137,depth_duration_stimuli/000866_2014-06-09_20-45-42_260595134347_rgbf000139-resize_1/000866_2014-06-09_20-45-42_260595134347_rgbf000139-resize_1-target.png,1000,3.2155,2,5359,985,meters,jsons/v1_VE1000_randls_65.json,962096,1394000,29,Man
137,145368,DepthScenes,duration_manipulation_targetAtFixation,jsons/v1_VE1000_randls_65.json,http://54.235.29.9/FacialAge/BNav_EC2/DepthDuration/v2_depth_duration_MTurk/v2_DepthDuration_HTML.html#123,123,1517,853,1366,768,8-22-2022,5-12-24,138,depth_duration_stimuli/000788_2014-06-08_22-34-36_260595134347_rgbf000131-resize_1/000788_2014-06-08_22-34-36_260595134347_rgbf000131-resize_1-target.png,1000,3.359,12,7543,990,meters,jsons/v1_VE1000_randls_65.json,962096,1394000,29,Man
138,145368,DepthScenes,duration_manipulation_targetAtFixation,jsons/v1_VE1000_randls_65.json,http://54.235.29.9/FacialAge/BNav_EC2/DepthDuration/v2_depth_duration_MTurk/v2_DepthDuration_HTML.html#123,123,1517,853,1366,768,8-22-2022,5-12-24,139,depth_duration_stimuli/001235_2014-06-17_16-37-36_260595134347_rgbf000084-resize_4/001235_2014-06-17_16-37-36_260595134347_rgbf000084-resize_4-target.png,1000,3.6605,1,4421,995,meters,jsons/v1_VE1000_randls_65.json,962096,1394000,29,Man
139,145368,DepthScenes,duration_manipulation_targetAtFixation,jsons/v1_VE1000_randls_65.json,http://54.235.29.9/FacialAge/BNav_EC2/DepthDuration/v2_depth_duration_MTurk/v2_DepthDuration_HTML.html#123,123,1517,853,1366,768,8-22-2022,5-12-24,140,depth_duration_stimuli/002445_2014-06-28_20-32-16_260595134347_rgbf000029-resize_4/002445_2014-06-28_20-32-16_260595134347_rgbf000029-resize_4-target.png,1000,2.5315,1,3833,985,meters,jsons/v1_VE1000_randls_65.json,962096,1394000,29,Man
140,145368,DepthScenes,duration_manipulation_targetAtFixation,jsons/v1_VE1000_randls_65.json,http://54.235.29.9/FacialAge/BNav_EC2/DepthDuration/v2_depth_duration_MTurk/v2_DepthDuration_HTML.html#123,123,1517,853,1366,768,8-22-2022,5-12-24,141,depth_duration_stimuli/000780_2014-06-08_22-28-29_260595134347_rgbf000126-resize_1/000780_2014-06-08_22-28-29_260595134347_rgbf000126-resize_1-target.png,1000,3.3825,1,3599,1003,meters,jsons/v1_VE1000_randls_65.json,962096,1394000,29,Man
141,145368,DepthScenes,duration_manipulation_targetAtFixation,jsons/v1_VE1000_randls_65.json,http://54.235.29.9/FacialAge/BNav_EC2/DepthDuration/v2_depth_duration_MTurk/v2_DepthDuration_HTML.html#123,123,1517,853,1366,768,8-22-2022,5-12-24,142,depth_duration_stimuli/002905_2014-06-03_18-04-43_094959634447_rgbf000151-resize_2/002905_2014-06-03_18-04-43_094959634447_rgbf000151-resize_2-target.png,1000,2.0295,2,4567,1005,meters,jsons/v1_VE1000_randls_65.json,962096,1394000,29,Man
142,145368,DepthScenes,duration_manipulation_targetAtFixation,jsons/v1_VE1000_randls_65.json,http://54.235.29.9/FacialAge/BNav_EC2/DepthDuration/v2_depth_duration_MTurk/v2_DepthDuration_HTML.html#123,123,1517,853,1366,768,8-22-2022,5-12-24,143,depth_duration_stimuli/003423_2014-05-21_10-23-26_094959634447_rgbf002665-resize_2/003423_2014-05-21_10-23-26_094959634447_rgbf002665-resize_2-target.png,1000,3.2575,2,3219,1000,meters,jsons/v1_VE1000_randls_65.json,962096,1394000,29,Man
143,145368,DepthScenes,duration_manipulation_targetAtFixation,jsons/v1_VE1000_randls_65.json,http://54.235.29.9/FacialAge/BNav_EC2/DepthDuration/v2_depth_duration_MTurk/v2_DepthDuration_HTML.html#123,123,1517,853,1366,768,8-22-2022,5-12-24,144,depth_duration_stimuli/000469_2014-06-09_19-42-10_260595134347_rgbf000081-resize_1/000469_2014-06-09_19-42-10_260595134347_rgbf000081-resize_1-target.png,1000,1.652,2,4962,1056,meters,jsons/v1_VE1000_randls_65.json,962096,1394000,29,Man
144,145368,DepthScenes,duration_manipulation_targetAtFixation,jsons/v1_VE1000_randls_65.json,http://54.235.29.9/FacialAge/BNav_EC2/DepthDuration/v2_depth_duration_MTurk/v2_DepthDuration_HTML.html#123,123,1517,853,1366,768,8-22-2022,5-12-24,145,depth_duration_stimuli/000483_2014-06-09_20-41-45_260595134347_rgbf000116-resize_4/000483_2014-06-09_20-41-45_260595134347_rgbf000116-resize_4-target.png,1000,1.337,2,2928,930,meters,jsons/v1_VE1000_randls_65.json,962096,1394000,29,Man
145,145368,DepthScenes,duration_manipulation_targetAtFixation,jsons/v1_VE1000_randls_65.json,http://54.235.29.9/FacialAge/BNav_EC2/DepthDuration/v2_depth_duration_MTurk/v2_DepthDuration_HTML.html#123,123,1517,853,1366,768,8-22-2022,5-12-24,146,depth_duration_stimuli/001498_2014-06-19_17-45-14_260595134347_rgbf000129-resize_4/001498_2014-06-19_17-45-14_260595134347_rgbf000129-resize-original.jpg,1000,1.4075,1,3983,1001,meters,jsons/v1_VE1000_randls_65.json,962096,1394000,29,Man
146,145368,DepthScenes,duration_manipulation_targetAtFixation,jsons/v1_VE1000_randls_65.json,http://54.235.29.9/FacialAge/BNav_EC2/DepthDuration/v2_depth_duration_MTurk/v2_DepthDuration_HTML.html#123,123,1517,853,1366,768,8-22-2022,5-12-24,147,depth_duration_stimuli/001110_2014-06-15_17-25-28_260595134347_rgbf000150-resize_1/001110_2014-06-15_17-25-28_260595134347_rgbf000150-resize_1-target.png,1000,1.7115,2,3398,1003,meters,jsons/v1_VE1000_randls_65.json,962096,1394000,29,Man
147,145368,DepthScenes,duration_manipulation_targetAtFixation,jsons/v1_VE1000_randls_65.json,http://54.235.29.9/FacialAge/BNav_EC2/DepthDuration/v2_depth_duration_MTurk/v2_DepthDuration_HTML.html#123,123,1517,853,1366,768,8-22-2022,5-12-24,148,depth_duration_stimuli/000927_2014-06-09_16-32-30_260595134347_rgbf000123-resize_3/000927_2014-06-09_16-32-30_260595134347_rgbf000123-resize_3-target.png,1000,2.6785,2,9412,1194,meters,jsons/v1_VE1000_randls_65.json,962096,1394000,29,Man
148,145368,DepthScenes,duration_manipulation_targetAtFixation,jsons/v1_VE1000_randls_65.json,http://54.235.29.9/FacialAge/BNav_EC2/DepthDuration/v2_depth_duration_MTurk/v2_DepthDuration_HTML.html#123,123,1517,853,1366,768,8-22-2022,5-12-24,149,depth_duration_stimuli/000470_2014-06-09_19-42-40_260595134347_rgbf000094-resize_1/000470_2014-06-09_19-42-40_260595134347_rgbf000094-resize_1-target.png,1000,1.831,2,4465,998,meters,jsons/v1_VE1000_randls_65.json,962096,1394000,29,Man
149,145368,DepthScenes,duration_manipulation_targetAtFixation,jsons/v1_VE1000_randls_65.json,http://54.235.29.9/FacialAge/BNav_EC2/DepthDuration/v2_depth_duration_MTurk/v2_DepthDuration_HTML.html#123,123,1517,853,1366,768,8-22-2022,5-12-24,150,depth_duration_stimuli/000109_2014-05-14_23-41-52_260595134347_rgbf000035-resize_9/000109_2014-05-14_23-41-52_260595134347_rgbf000035-resize_9-target.png,1000,1.3545,6,2560,974,meters,jsons/v1_VE1000_randls_65.json,962096,1394000,29,Man
150,145368,DepthScenes,duration_manipulation_targetAtFixation,jsons/v1_VE1000_randls_65.json,http://54.235.29.9/FacialAge/BNav_EC2/DepthDuration/v2_depth_duration_MTurk/v2_DepthDuration_HTML.html#123,123,1517,853,1366,768,8-22-2022,5-12-24,151,depth_duration_stimuli/001808_2014-06-26_20-50-58_260595134347_rgbf000029-resize_1/001808_2014-06-26_20-50-58_260595134347_rgbf000029-resize_1-target.png,1000,4.249,1,5197,1002,meters,jsons/v1_VE1000_randls_65.json,962096,1394000,29,Man
151,145368,DepthScenes,duration_manipulation_targetAtFixation,jsons/v1_VE1000_randls_65.json,http://54.235.29.9/FacialAge/BNav_EC2/DepthDuration/v2_depth_duration_MTurk/v2_DepthDuration_HTML.html#123,123,1517,853,1366,768,8-22-2022,5-12-24,152,depth_duration_stimuli/001815_2014-06-26_20-52-55_260595134347_rgbf000020-resize_0/001815_2014-06-26_20-52-55_260595134347_rgbf000020-resize_0-target.png,1000,3.3865,2,2990,1000,meters,jsons/v1_VE1000_randls_65.json,962096,1394000,29,Man
152,145368,DepthScenes,duration_manipulation_targetAtFixation,jsons/v1_VE1000_randls_65.json,http://54.235.29.9/FacialAge/BNav_EC2/DepthDuration/v2_depth_duration_MTurk/v2_DepthDuration_HTML.html#123,123,1517,853,1366,768,8-22-2022,5-12-24,153,depth_duration_stimuli/002763_2014-06-22_19-13-10_094959634447_rgbf000075-resize_4/002763_2014-06-22_19-13-10_094959634447_rgbf000075-resize_4-target.png,1000,1.68375,12,3742,1001,meters,jsons/v1_VE1000_randls_65.json,962096,1394000,29,Man
153,145368,DepthScenes,duration_manipulation_targetAtFixation,jsons/v1_VE1000_randls_65.json,http://54.235.29.9/FacialAge/BNav_EC2/DepthDuration/v2_depth_duration_MTurk/v2_DepthDuration_HTML.html#123,123,1517,853,1366,768,8-22-2022,5-12-24,154,depth_duration_stimuli/002209_2014-06-28_18-36-10_260595134347_rgbf000051-resize_1/002209_2014-06-28_18-36-10_260595134347_rgbf000051-resize_1-target.png,1000,2.057,2,6602,1001,meters,jsons/v1_VE1000_randls_65.json,962096,1394000,29,Man
154,145368,DepthScenes,duration_manipulation_targetAtFixation,jsons/v1_VE1000_randls_65.json,http://54.235.29.9/FacialAge/BNav_EC2/DepthDuration/v2_depth_duration_MTurk/v2_DepthDuration_HTML.html#123,123,1517,853,1366,768,8-22-2022,5-12-24,155,depth_duration_stimuli/002725_2014-06-22_11-47-51_094959634447_rgbf000070-resize_1/002725_2014-06-22_11-47-51_094959634447_rgbf000070-resize_1-target.png,1000,2.195,3,3212,1009,meters,jsons/v1_VE1000_randls_65.json,962096,1394000,29,Man
155,145368,DepthScenes,duration_manipulation_targetAtFixation,jsons/v1_VE1000_randls_65.json,http://54.235.29.9/FacialAge/BNav_EC2/DepthDuration/v2_depth_duration_MTurk/v2_DepthDuration_HTML.html#123,123,1517,853,1366,768,8-22-2022,5-12-24,156,depth_duration_stimuli/002344_2014-06-28_20-06-29_260595134347_rgbf000030-resize_1/002344_2014-06-28_20-06-29_260595134347_rgbf000030-resize_1-target.png,1000,1.5795,2,3687,970,meters,jsons/v1_VE1000_randls_65.json,962096,1394000,29,Man
156,145368,DepthScenes,duration_manipulation_targetAtFixation,jsons/v1_VE1000_randls_65.json,http://54.235.29.9/FacialAge/BNav_EC2/DepthDuration/v2_depth_duration_MTurk/v2_DepthDuration_HTML.html#123,123,1517,853,1366,768,8-22-2022,5-12-24,157,depth_duration_stimuli/000682_2014-06-08_23-14-58_260595134347_rgbf000041-resize_5/000682_2014-06-08_23-14-58_260595134347_rgbf000041-resize_5-target.png,1000,2.7239999999999998,2,4297,962,meters,jsons/v1_VE1000_randls_65.json,962096,1394000,29,Man
157,145368,DepthScenes,duration_manipulation_targetAtFixation,jsons/v1_VE1000_randls_65.json,http://54.235.29.9/FacialAge/BNav_EC2/DepthDuration/v2_depth_duration_MTurk/v2_DepthDuration_HTML.html#123,123,1517,853,1366,768,8-22-2022,5-12-24,158,depth_duration_stimuli/001650_2014-06-20_12-09-00_260595134347_rgbf000087-resize_3/001650_2014-06-20_12-09-00_260595134347_rgbf000087-resize_3-target.png,1000,1.9505,1,3208,1005,meters,jsons/v1_VE1000_randls_65.json,962096,1394000,29,Man
158,145368,DepthScenes,duration_manipulation_targetAtFixation,jsons/v1_VE1000_randls_65.json,http://54.235.29.9/FacialAge/BNav_EC2/DepthDuration/v2_depth_duration_MTurk/v2_DepthDuration_HTML.html#123,123,1517,853,1366,768,8-22-2022,5-12-24,159,depth_duration_stimuli/000522_2014-06-08_13-35-06_260595134347_rgbf000244-resize_1/000522_2014-06-08_13-35-06_260595134347_rgbf000244-resize_1-target.png,1000,2.3715,2,5290,1006,meters,jsons/v1_VE1000_randls_65.json,962096,1394000,29,Man
159,145368,DepthScenes,duration_manipulation_targetAtFixation,jsons/v1_VE1000_randls_65.json,http://54.235.29.9/FacialAge/BNav_EC2/DepthDuration/v2_depth_duration_MTurk/v2_DepthDuration_HTML.html#123,123,1517,853,1366,768,8-22-2022,5-12-24,160,depth_duration_stimuli/002949_2014-06-26_15-57-42_094959634447_rgbf000079-resize_1/002949_2014-06-26_15-57-42_094959634447_rgbf000079-resize_1-target.png,1000,1.8915,5,5133,998,meters,jsons/v1_VE1000_randls_65.json,962096,1394000,29,Man
160,145368,DepthScenes,duration_manipulation_targetAtFixation,jsons/v1_VE1000_randls_65.json,http://54.235.29.9/FacialAge/BNav_EC2/DepthDuration/v2_depth_duration_MTurk/v2_DepthDuration_HTML.html#123,123,1517,853,1366,768,8-22-2022,5-12-24,161,depth_duration_stimuli/002375_2014-06-28_20-13-44_260595134347_rgbf000032-resize_1/002375_2014-06-28_20-13-44_260595134347_rgbf000032-resize_1-target.png,1000,4.0175,2,3650,1532,meters,jsons/v1_VE1000_randls_65.json,962096,1394000,29,Man
161,145368,DepthScenes,duration_manipulation_targetAtFixation,jsons/v1_VE1000_randls_65.json,http://54.235.29.9/FacialAge/BNav_EC2/DepthDuration/v2_depth_duration_MTurk/v2_DepthDuration_HTML.html#123,123,1517,853,1366,768,8-22-2022,5-12-24,162,depth_duration_stimuli/002657_2014-06-13_15-29-54_094959634447_rgbf000150-resize_1/002657_2014-06-13_15-29-54_094959634447_rgbf000150-resize_1-target.png,1000,4.919,4,4956,994,meters,jsons/v1_VE1000_randls_65.json,962096,1394000,29,Man
162,145368,DepthScenes,duration_manipulation_targetAtFixation,jsons/v1_VE1000_randls_65.json,http://54.235.29.9/FacialAge/BNav_EC2/DepthDuration/v2_depth_duration_MTurk/v2_DepthDuration_HTML.html#123,123,1517,853,1366,768,8-22-2022,5-12-24,163,depth_duration_stimuli/003492_2014-05-21_15-50-55_094959634447_rgbf000828-resize_1/003492_2014-05-21_15-50-55_094959634447_rgbf000828-resize_1-target.png,1000,4.06875,2,3046,1064,meters,jsons/v1_VE1000_randls_65.json,962096,1394000,29,Man
163,145368,DepthScenes,duration_manipulation_targetAtFixation,jsons/v1_VE1000_randls_65.json,http://54.235.29.9/FacialAge/BNav_EC2/DepthDuration/v2_depth_duration_MTurk/v2_DepthDuration_HTML.html#123,123,1517,853,1366,768,8-22-2022,5-12-24,164,depth_duration_stimuli/002568_2014-06-24_13-59-21_094959634447_rgbf000062-resize_4/002568_2014-06-24_13-59-21_094959634447_rgbf000062-resize_4-target.png,1000,3.015,1,5045,1025,meters,jsons/v1_VE1000_randls_65.json,962096,1394000,29,Man
