,subjID,experimentName,versionName,sequenceName,url,selected_row,windowWidth,windowHeight,screenWidth,screenHeight,startDate,startTime,trial,stimulus,duration,actual_depth,depth_estimate,trial_RT,log_sceneDuration,unitSelection,seq_filepath,experimentTime,totalTime,age,gender
0,145502,DepthScenes,duration_manipulation_targetAtFixation,jsons/v1_VE1000_randls_27.json,http://54.235.29.9/FacialAge/BNav_EC2/DepthDuration/v2_depth_duration_MTurk/v2_DepthDuration_HTML.html#27,27,1280,881,1280,1024,8-22-2022,5-0-11,1,depth_duration_stimuli/000469_2014-06-09_19-42-10_260595134347_rgbf000081-resize_1/000469_2014-06-09_19-42-10_260595134347_rgbf000081-resize_1-target.png,1000,1.652,25,4594,997,meters,jsons/v1_VE1000_randls_27.json,1786634,2271211,36,Woman
1,145502,DepthScenes,duration_manipulation_targetAtFixation,jsons/v1_VE1000_randls_27.json,http://54.235.29.9/FacialAge/BNav_EC2/DepthDuration/v2_depth_duration_MTurk/v2_DepthDuration_HTML.html#27,27,1280,881,1280,1024,8-22-2022,5-0-11,2,depth_duration_stimuli/000483_2014-06-09_20-41-45_260595134347_rgbf000116-resize_4/000483_2014-06-09_20-41-45_260595134347_rgbf000116-resize_4-target.png,1000,1.337,25,4666,1000,meters,jsons/v1_VE1000_randls_27.json,1786634,2271211,36,Woman
2,145502,DepthScenes,duration_manipulation_targetAtFixation,jsons/v1_VE1000_randls_27.json,http://54.235.29.9/FacialAge/BNav_EC2/DepthDuration/v2_depth_duration_MTurk/v2_DepthDuration_HTML.html#27,27,1280,881,1280,1024,8-22-2022,5-0-11,3,depth_duration_stimuli/002788_2014-06-22_19-36-03_094959634447_rgbf000088-resize_2/002788_2014-06-22_19-36-03_094959634447_rgbf000088-resize_2-target.png,1000,1.6465,30,23578,1000,meters,jsons/v1_VE1000_randls_27.json,1786634,2271211,36,Woman
3,145502,DepthScenes,duration_manipulation_targetAtFixation,jsons/v1_VE1000_randls_27.json,http://54.235.29.9/FacialAge/BNav_EC2/DepthDuration/v2_depth_duration_MTurk/v2_DepthDuration_HTML.html#27,27,1280,881,1280,1024,8-22-2022,5-0-11,4,depth_duration_stimuli/000749_2014-06-08_21-55-06_260595134347_rgbf000070-resize_2/000749_2014-06-08_21-55-06_260595134347_rgbf000070-resize_2-target.png,1000,2.331,20,5019,998,meters,jsons/v1_VE1000_randls_27.json,1786634,2271211,36,Woman
4,145502,DepthScenes,duration_manipulation_targetAtFixation,jsons/v1_VE1000_randls_27.json,http://54.235.29.9/FacialAge/BNav_EC2/DepthDuration/v2_depth_duration_MTurk/v2_DepthDuration_HTML.html#27,27,1280,881,1280,1024,8-22-2022,5-0-11,5,depth_duration_stimuli/001175_2014-06-17_15-45-55_260595134347_rgbf000129-resize_4/001175_2014-06-17_15-45-55_260595134347_rgbf000129-resize_4-target.png,1000,4.255,30,4353,1000,meters,jsons/v1_VE1000_randls_27.json,1786634,2271211,36,Woman
5,145502,DepthScenes,duration_manipulation_targetAtFixation,jsons/v1_VE1000_randls_27.json,http://54.235.29.9/FacialAge/BNav_EC2/DepthDuration/v2_depth_duration_MTurk/v2_DepthDuration_HTML.html#27,27,1280,881,1280,1024,8-22-2022,5-0-11,6,depth_duration_stimuli/003490_2014-05-21_15-50-11_094959634447_rgbf000101-resize_3/003490_2014-05-21_15-50-11_094959634447_rgbf000101-resize_3-target.png,1000,3.6445,30,40146,999,meters,jsons/v1_VE1000_randls_27.json,1786634,2271211,36,Woman
6,145502,DepthScenes,duration_manipulation_targetAtFixation,jsons/v1_VE1000_randls_27.json,http://54.235.29.9/FacialAge/BNav_EC2/DepthDuration/v2_depth_duration_MTurk/v2_DepthDuration_HTML.html#27,27,1280,881,1280,1024,8-22-2022,5-0-11,7,depth_duration_stimuli/001016_2014-06-09_16-16-10_260595134347_rgbf000112-resize_5/001016_2014-06-09_16-16-10_260595134347_rgbf000112-resize_5-target.png,1000,1.6565,20,8387,999,meters,jsons/v1_VE1000_randls_27.json,1786634,2271211,36,Woman
7,145502,DepthScenes,duration_manipulation_targetAtFixation,jsons/v1_VE1000_randls_27.json,http://54.235.29.9/FacialAge/BNav_EC2/DepthDuration/v2_depth_duration_MTurk/v2_DepthDuration_HTML.html#27,27,1280,881,1280,1024,8-22-2022,5-0-11,8,depth_duration_stimuli/002340_2014-06-28_20-05-46_260595134347_rgbf000113-resize_0/002340_2014-06-28_20-05-46_260595134347_rgbf000113-resize_0-target.png,1000,2.4735,0,5367,1000,meters,jsons/v1_VE1000_randls_27.json,1786634,2271211,36,Woman
8,145502,DepthScenes,duration_manipulation_targetAtFixation,jsons/v1_VE1000_randls_27.json,http://54.235.29.9/FacialAge/BNav_EC2/DepthDuration/v2_depth_duration_MTurk/v2_DepthDuration_HTML.html#27,27,1280,881,1280,1024,8-22-2022,5-0-11,9,depth_duration_stimuli/000447_2014-06-08_16-15-46_260595134347_rgbf000130-resize_1/000447_2014-06-08_16-15-46_260595134347_rgbf000130-resize_1-target.png,1000,4.479,30,4725,1000,meters,jsons/v1_VE1000_randls_27.json,1786634,2271211,36,Woman
9,145502,DepthScenes,duration_manipulation_targetAtFixation,jsons/v1_VE1000_randls_27.json,http://54.235.29.9/FacialAge/BNav_EC2/DepthDuration/v2_depth_duration_MTurk/v2_DepthDuration_HTML.html#27,27,1280,881,1280,1024,8-22-2022,5-0-11,10,depth_duration_stimuli/001447_2014-06-19_17-00-32_260595134347_rgbf000082-resize_5/001447_2014-06-19_17-00-32_260595134347_rgbf000082-resize_5-target.png,1000,4.13775,25,5050,1000,meters,jsons/v1_VE1000_randls_27.json,1786634,2271211,36,Woman
10,145502,DepthScenes,duration_manipulation_targetAtFixation,jsons/v1_VE1000_randls_27.json,http://54.235.29.9/FacialAge/BNav_EC2/DepthDuration/v2_depth_duration_MTurk/v2_DepthDuration_HTML.html#27,27,1280,881,1280,1024,8-22-2022,5-0-11,11,depth_duration_stimuli/001570_2014-06-20_17-21-09_260595134347_rgbf000135-resize_4/001570_2014-06-20_17-21-09_260595134347_rgbf000135-resize_4-target.png,1000,4.467,30,4414,1000,meters,jsons/v1_VE1000_randls_27.json,1786634,2271211,36,Woman
11,145502,DepthScenes,duration_manipulation_targetAtFixation,jsons/v1_VE1000_randls_27.json,http://54.235.29.9/FacialAge/BNav_EC2/DepthDuration/v2_depth_duration_MTurk/v2_DepthDuration_HTML.html#27,27,1280,881,1280,1024,8-22-2022,5-0-11,12,depth_duration_stimuli/001392_2014-06-19_16-07-59_260595134347_rgbf000046-resize_1/001392_2014-06-19_16-07-59_260595134347_rgbf000046-resize_1-target.png,1000,4.135,25,4398,1000,meters,jsons/v1_VE1000_randls_27.json,1786634,2271211,36,Woman
12,145502,DepthScenes,duration_manipulation_targetAtFixation,jsons/v1_VE1000_randls_27.json,http://54.235.29.9/FacialAge/BNav_EC2/DepthDuration/v2_depth_duration_MTurk/v2_DepthDuration_HTML.html#27,27,1280,881,1280,1024,8-22-2022,5-0-11,13,depth_duration_stimuli/000569_2014-06-09_22-51-47_260595134347_rgbf000141-resize_3/000569_2014-06-09_22-51-47_260595134347_rgbf000141-resize-original.jpg,1000,4.512,0,5541,1009,meters,jsons/v1_VE1000_randls_27.json,1786634,2271211,36,Woman
13,145502,DepthScenes,duration_manipulation_targetAtFixation,jsons/v1_VE1000_randls_27.json,http://54.235.29.9/FacialAge/BNav_EC2/DepthDuration/v2_depth_duration_MTurk/v2_DepthDuration_HTML.html#27,27,1280,881,1280,1024,8-22-2022,5-0-11,14,depth_duration_stimuli/002988_2014-06-15_12-24-20_094959634447_rgbf000150-resize_1/002988_2014-06-15_12-24-20_094959634447_rgbf000150-resize_1-target.png,1000,4.7669999999999995,0,15106,1000,meters,jsons/v1_VE1000_randls_27.json,1786634,2271211,36,Woman
14,145502,DepthScenes,duration_manipulation_targetAtFixation,jsons/v1_VE1000_randls_27.json,http://54.235.29.9/FacialAge/BNav_EC2/DepthDuration/v2_depth_duration_MTurk/v2_DepthDuration_HTML.html#27,27,1280,881,1280,1024,8-22-2022,5-0-11,15,depth_duration_stimuli/001052_2014-06-08_18-24-54_260595134347_rgbf000130-resize_1/001052_2014-06-08_18-24-54_260595134347_rgbf000130-resize_1-target.png,1000,4.1045,25,4146,1000,meters,jsons/v1_VE1000_randls_27.json,1786634,2271211,36,Woman
15,145502,DepthScenes,duration_manipulation_targetAtFixation,jsons/v1_VE1000_randls_27.json,http://54.235.29.9/FacialAge/BNav_EC2/DepthDuration/v2_depth_duration_MTurk/v2_DepthDuration_HTML.html#27,27,1280,1024,1280,1024,8-22-2022,5-0-11,16,depth_duration_stimuli/001055_2014-06-08_18-45-35_260595134347_rgbf000111-resize_4/001055_2014-06-08_18-45-35_260595134347_rgbf000111-resize_4-target.png,1000,2.4290000000000003,20,55878,999,meters,jsons/v1_VE1000_randls_27.json,1786634,2271211,36,Woman
16,145502,DepthScenes,duration_manipulation_targetAtFixation,jsons/v1_VE1000_randls_27.json,http://54.235.29.9/FacialAge/BNav_EC2/DepthDuration/v2_depth_duration_MTurk/v2_DepthDuration_HTML.html#27,27,1280,1024,1280,1024,8-22-2022,5-0-11,17,depth_duration_stimuli/000549_2014-06-08_22-10-24_260595134347_rgbf000247-resize_3/000549_2014-06-08_22-10-24_260595134347_rgbf000247-resize_3-target.png,1000,1.841,25,15774,1000,meters,jsons/v1_VE1000_randls_27.json,1786634,2271211,36,Woman
17,145502,DepthScenes,duration_manipulation_targetAtFixation,jsons/v1_VE1000_randls_27.json,http://54.235.29.9/FacialAge/BNav_EC2/DepthDuration/v2_depth_duration_MTurk/v2_DepthDuration_HTML.html#27,27,1280,1024,1280,1024,8-22-2022,5-0-11,18,depth_duration_stimuli/002509_2014-06-24_13-19-22_094959634447_rgbf000077-resize_0/002509_2014-06-24_13-19-22_094959634447_rgbf000077-resize_0-target.png,1000,1.3065,20,6914,1000,meters,jsons/v1_VE1000_randls_27.json,1786634,2271211,36,Woman
18,145502,DepthScenes,duration_manipulation_targetAtFixation,jsons/v1_VE1000_randls_27.json,http://54.235.29.9/FacialAge/BNav_EC2/DepthDuration/v2_depth_duration_MTurk/v2_DepthDuration_HTML.html#27,27,1280,1024,1280,1024,8-22-2022,5-0-11,19,depth_duration_stimuli/003338_2014-05-20_11-01-23_094959634447_rgbf000051-resize_6/003338_2014-05-20_11-01-23_094959634447_rgbf000051-resize_6-target.png,1000,1.693,25,6451,1000,meters,jsons/v1_VE1000_randls_27.json,1786634,2271211,36,Woman
19,145502,DepthScenes,duration_manipulation_targetAtFixation,jsons/v1_VE1000_randls_27.json,http://54.235.29.9/FacialAge/BNav_EC2/DepthDuration/v2_depth_duration_MTurk/v2_DepthDuration_HTML.html#27,27,1280,1024,1280,1024,8-22-2022,5-0-11,20,depth_duration_stimuli/003292_2014-05-14_21-53-49_094959634447_rgbf000100-resize_2/003292_2014-05-14_21-53-49_094959634447_rgbf000100-resize_2-target.png,1000,3.4815,20,7377,1000,meters,jsons/v1_VE1000_randls_27.json,1786634,2271211,36,Woman
20,145502,DepthScenes,duration_manipulation_targetAtFixation,jsons/v1_VE1000_randls_27.json,http://54.235.29.9/FacialAge/BNav_EC2/DepthDuration/v2_depth_duration_MTurk/v2_DepthDuration_HTML.html#27,27,1280,1024,1280,1024,8-22-2022,5-0-11,21,depth_duration_stimuli/002639_2014-06-24_14-51-37_094959634447_rgbf000074-resize_4/002639_2014-06-24_14-51-37_094959634447_rgbf000074-resize_4-target.png,1000,4.0375,20,7217,1000,meters,jsons/v1_VE1000_randls_27.json,1786634,2271211,36,Woman
21,145502,DepthScenes,duration_manipulation_targetAtFixation,jsons/v1_VE1000_randls_27.json,http://54.235.29.9/FacialAge/BNav_EC2/DepthDuration/v2_depth_duration_MTurk/v2_DepthDuration_HTML.html#27,27,1280,1024,1280,1024,8-22-2022,5-0-11,22,depth_duration_stimuli/002964_2014-06-08_17-46-11_094959634447_rgbf000091-resize_4/002964_2014-06-08_17-46-11_094959634447_rgbf000091-resize_4-target.png,1000,1.6909999999999998,20,9235,1000,meters,jsons/v1_VE1000_randls_27.json,1786634,2271211,36,Woman
22,145502,DepthScenes,duration_manipulation_targetAtFixation,jsons/v1_VE1000_randls_27.json,http://54.235.29.9/FacialAge/BNav_EC2/DepthDuration/v2_depth_duration_MTurk/v2_DepthDuration_HTML.html#27,27,1280,1024,1280,1024,8-22-2022,5-0-11,23,depth_duration_stimuli/002136_2014-06-25_21-18-03_260595134347_rgbf000109-resize_3/002136_2014-06-25_21-18-03_260595134347_rgbf000109-resize_3-target.png,1000,1.9569999999999999,20,7597,1000,meters,jsons/v1_VE1000_randls_27.json,1786634,2271211,36,Woman
23,145502,DepthScenes,duration_manipulation_targetAtFixation,jsons/v1_VE1000_randls_27.json,http://54.235.29.9/FacialAge/BNav_EC2/DepthDuration/v2_depth_duration_MTurk/v2_DepthDuration_HTML.html#27,27,1280,1024,1280,1024,8-22-2022,5-0-11,24,depth_duration_stimuli/001808_2014-06-26_20-50-58_260595134347_rgbf000029-resize_1/001808_2014-06-26_20-50-58_260595134347_rgbf000029-resize_1-target.png,1000,4.249,30,8457,999,meters,jsons/v1_VE1000_randls_27.json,1786634,2271211,36,Woman
24,145502,DepthScenes,duration_manipulation_targetAtFixation,jsons/v1_VE1000_randls_27.json,http://54.235.29.9/FacialAge/BNav_EC2/DepthDuration/v2_depth_duration_MTurk/v2_DepthDuration_HTML.html#27,27,1280,1024,1280,1024,8-22-2022,5-0-11,25,depth_duration_stimuli/001815_2014-06-26_20-52-55_260595134347_rgbf000020-resize_0/001815_2014-06-26_20-52-55_260595134347_rgbf000020-resize_0-target.png,1000,3.3865,0,8803,1001,meters,jsons/v1_VE1000_randls_27.json,1786634,2271211,36,Woman
25,145502,DepthScenes,duration_manipulation_targetAtFixation,jsons/v1_VE1000_randls_27.json,http://54.235.29.9/FacialAge/BNav_EC2/DepthDuration/v2_depth_duration_MTurk/v2_DepthDuration_HTML.html#27,27,1280,1024,1280,1024,8-22-2022,5-0-11,26,depth_duration_stimuli/001059_2014-06-08_21-53-27_260595134347_rgbf000061-resize_4/001059_2014-06-08_21-53-27_260595134347_rgbf000061-resize_4-target.png,1000,2.4185,25,7404,999,meters,jsons/v1_VE1000_randls_27.json,1786634,2271211,36,Woman
26,145502,DepthScenes,duration_manipulation_targetAtFixation,jsons/v1_VE1000_randls_27.json,http://54.235.29.9/FacialAge/BNav_EC2/DepthDuration/v2_depth_duration_MTurk/v2_DepthDuration_HTML.html#27,27,1280,1024,1280,1024,8-22-2022,5-0-11,27,depth_duration_stimuli/001032_2014-06-08_13-23-17_260595134347_rgbf000021-resize_3/001032_2014-06-08_13-23-17_260595134347_rgbf000021-resize_3-target.png,1000,3.2725,25,7689,999,meters,jsons/v1_VE1000_randls_27.json,1786634,2271211,36,Woman
27,145502,DepthScenes,duration_manipulation_targetAtFixation,jsons/v1_VE1000_randls_27.json,http://54.235.29.9/FacialAge/BNav_EC2/DepthDuration/v2_depth_duration_MTurk/v2_DepthDuration_HTML.html#27,27,1280,1024,1280,1024,8-22-2022,5-0-11,28,depth_duration_stimuli/000906_2014-06-08_13-35-43_260595134347_rgbf000155-resize_1/000906_2014-06-08_13-35-43_260595134347_rgbf000155-resize_1-target.png,1000,2.8489999999999998,30,9947,1000,meters,jsons/v1_VE1000_randls_27.json,1786634,2271211,36,Woman
28,145502,DepthScenes,duration_manipulation_targetAtFixation,jsons/v1_VE1000_randls_27.json,http://54.235.29.9/FacialAge/BNav_EC2/DepthDuration/v2_depth_duration_MTurk/v2_DepthDuration_HTML.html#27,27,1280,1024,1280,1024,8-22-2022,5-0-11,29,depth_duration_stimuli/002805_2014-06-22_19-54-03_094959634447_rgbf000079-resize_1/002805_2014-06-22_19-54-03_094959634447_rgbf000079-resize_1-target.png,1000,3.1439999999999997,25,11608,1000,meters,jsons/v1_VE1000_randls_27.json,1786634,2271211,36,Woman
29,145502,DepthScenes,duration_manipulation_targetAtFixation,jsons/v1_VE1000_randls_27.json,http://54.235.29.9/FacialAge/BNav_EC2/DepthDuration/v2_depth_duration_MTurk/v2_DepthDuration_HTML.html#27,27,1280,1024,1280,1024,8-22-2022,5-0-11,30,depth_duration_stimuli/000375_2014-06-08_11-17-29_260595134347_rgbf000133-resize_2/000375_2014-06-08_11-17-29_260595134347_rgbf000133-resize-original.jpg,1000,4.718,0,10467,999,meters,jsons/v1_VE1000_randls_27.json,1786634,2271211,36,Woman
30,145502,DepthScenes,duration_manipulation_targetAtFixation,jsons/v1_VE1000_randls_27.json,http://54.235.29.9/FacialAge/BNav_EC2/DepthDuration/v2_depth_duration_MTurk/v2_DepthDuration_HTML.html#27,27,1280,1024,1280,1024,8-22-2022,5-0-11,31,depth_duration_stimuli/002213_2014-06-28_18-37-58_260595134347_rgbf000055-resize_1/002213_2014-06-28_18-37-58_260595134347_rgbf000055-resize_1-target.png,1000,3.62,30,11050,1000,meters,jsons/v1_VE1000_randls_27.json,1786634,2271211,36,Woman
31,145502,DepthScenes,duration_manipulation_targetAtFixation,jsons/v1_VE1000_randls_27.json,http://54.235.29.9/FacialAge/BNav_EC2/DepthDuration/v2_depth_duration_MTurk/v2_DepthDuration_HTML.html#27,27,1280,1024,1280,1024,8-22-2022,5-0-11,32,depth_duration_stimuli/000691_2014-06-08_13-08-50_260595134347_rgbf000132-resize_3/000691_2014-06-08_13-08-50_260595134347_rgbf000132-resize_3-target.png,1000,4.1530000000000005,25,8974,999,meters,jsons/v1_VE1000_randls_27.json,1786634,2271211,36,Woman
32,145502,DepthScenes,duration_manipulation_targetAtFixation,jsons/v1_VE1000_randls_27.json,http://54.235.29.9/FacialAge/BNav_EC2/DepthDuration/v2_depth_duration_MTurk/v2_DepthDuration_HTML.html#27,27,1280,1024,1280,1024,8-22-2022,5-0-11,33,depth_duration_stimuli/000682_2014-06-08_23-14-58_260595134347_rgbf000041-resize_5/000682_2014-06-08_23-14-58_260595134347_rgbf000041-resize_5-target.png,1000,2.7239999999999998,20,9044,1000,meters,jsons/v1_VE1000_randls_27.json,1786634,2271211,36,Woman
33,145502,DepthScenes,duration_manipulation_targetAtFixation,jsons/v1_VE1000_randls_27.json,http://54.235.29.9/FacialAge/BNav_EC2/DepthDuration/v2_depth_duration_MTurk/v2_DepthDuration_HTML.html#27,27,1280,1024,1280,1024,8-22-2022,5-0-11,34,depth_duration_stimuli/001650_2014-06-20_12-09-00_260595134347_rgbf000087-resize_3/001650_2014-06-20_12-09-00_260595134347_rgbf000087-resize_3-target.png,1000,1.9505,15,10020,999,meters,jsons/v1_VE1000_randls_27.json,1786634,2271211,36,Woman
34,145502,DepthScenes,duration_manipulation_targetAtFixation,jsons/v1_VE1000_randls_27.json,http://54.235.29.9/FacialAge/BNav_EC2/DepthDuration/v2_depth_duration_MTurk/v2_DepthDuration_HTML.html#27,27,1280,1024,1280,1024,8-22-2022,5-0-11,35,depth_duration_stimuli/000773_2014-06-08_22-24-54_260595134347_rgbf000093-resize_1/000773_2014-06-08_22-24-54_260595134347_rgbf000093-resize_1-target.png,1000,4.973,25,11745,1000,meters,jsons/v1_VE1000_randls_27.json,1786634,2271211,36,Woman
35,145502,DepthScenes,duration_manipulation_targetAtFixation,jsons/v1_VE1000_randls_27.json,http://54.235.29.9/FacialAge/BNav_EC2/DepthDuration/v2_depth_duration_MTurk/v2_DepthDuration_HTML.html#27,27,1280,1024,1280,1024,8-22-2022,5-0-11,36,depth_duration_stimuli/002414_2014-06-28_20-24-58_260595134347_rgbf000067-resize_4/002414_2014-06-28_20-24-58_260595134347_rgbf000067-resize_4-target.png,1000,4.363,20,12172,999,meters,jsons/v1_VE1000_randls_27.json,1786634,2271211,36,Woman
36,145502,DepthScenes,duration_manipulation_targetAtFixation,jsons/v1_VE1000_randls_27.json,http://54.235.29.9/FacialAge/BNav_EC2/DepthDuration/v2_depth_duration_MTurk/v2_DepthDuration_HTML.html#27,27,1280,1024,1280,1024,8-22-2022,5-0-11,37,depth_duration_stimuli/002375_2014-06-28_20-13-44_260595134347_rgbf000032-resize_1/002375_2014-06-28_20-13-44_260595134347_rgbf000032-resize_1-target.png,1000,4.0175,20,9980,1000,meters,jsons/v1_VE1000_randls_27.json,1786634,2271211,36,Woman
37,145502,DepthScenes,duration_manipulation_targetAtFixation,jsons/v1_VE1000_randls_27.json,http://54.235.29.9/FacialAge/BNav_EC2/DepthDuration/v2_depth_duration_MTurk/v2_DepthDuration_HTML.html#27,27,1280,1024,1280,1024,8-22-2022,5-0-11,38,depth_duration_stimuli/002657_2014-06-13_15-29-54_094959634447_rgbf000150-resize_1/002657_2014-06-13_15-29-54_094959634447_rgbf000150-resize_1-target.png,1000,4.919,20,8714,1000,meters,jsons/v1_VE1000_randls_27.json,1786634,2271211,36,Woman
38,145502,DepthScenes,duration_manipulation_targetAtFixation,jsons/v1_VE1000_randls_27.json,http://54.235.29.9/FacialAge/BNav_EC2/DepthDuration/v2_depth_duration_MTurk/v2_DepthDuration_HTML.html#27,27,1280,1024,1280,1024,8-22-2022,5-0-11,39,depth_duration_stimuli/002118_2014-06-25_20-32-08_260595134347_rgbf000078-resize_1/002118_2014-06-25_20-32-08_260595134347_rgbf000078-resize_1-target.png,1000,2.6460000000000004,20,8080,1000,meters,jsons/v1_VE1000_randls_27.json,1786634,2271211,36,Woman
39,145502,DepthScenes,duration_manipulation_targetAtFixation,jsons/v1_VE1000_randls_27.json,http://54.235.29.9/FacialAge/BNav_EC2/DepthDuration/v2_depth_duration_MTurk/v2_DepthDuration_HTML.html#27,27,1280,1024,1280,1024,8-22-2022,5-0-11,40,depth_duration_stimuli/001516_2014-06-20_16-25-09_260595134347_rgbf000076-resize_2/001516_2014-06-20_16-25-09_260595134347_rgbf000076-resize_2-target.png,1000,1.7445,20,15157,1001,meters,jsons/v1_VE1000_randls_27.json,1786634,2271211,36,Woman
40,145502,DepthScenes,duration_manipulation_targetAtFixation,jsons/v1_VE1000_randls_27.json,http://54.235.29.9/FacialAge/BNav_EC2/DepthDuration/v2_depth_duration_MTurk/v2_DepthDuration_HTML.html#27,27,1280,1024,1280,1024,8-22-2022,5-0-11,41,depth_duration_stimuli/000522_2014-06-08_13-35-06_260595134347_rgbf000244-resize_1/000522_2014-06-08_13-35-06_260595134347_rgbf000244-resize_1-target.png,1000,2.3715,15,9017,999,meters,jsons/v1_VE1000_randls_27.json,1786634,2271211,36,Woman
41,145502,DepthScenes,duration_manipulation_targetAtFixation,jsons/v1_VE1000_randls_27.json,http://54.235.29.9/FacialAge/BNav_EC2/DepthDuration/v2_depth_duration_MTurk/v2_DepthDuration_HTML.html#27,27,1280,1024,1280,1024,8-22-2022,5-0-11,42,depth_duration_stimuli/002949_2014-06-26_15-57-42_094959634447_rgbf000079-resize_1/002949_2014-06-26_15-57-42_094959634447_rgbf000079-resize_1-target.png,1000,1.8915,20,10119,999,meters,jsons/v1_VE1000_randls_27.json,1786634,2271211,36,Woman
42,145502,DepthScenes,duration_manipulation_targetAtFixation,jsons/v1_VE1000_randls_27.json,http://54.235.29.9/FacialAge/BNav_EC2/DepthDuration/v2_depth_duration_MTurk/v2_DepthDuration_HTML.html#27,27,1280,1024,1280,1024,8-22-2022,5-0-11,43,depth_duration_stimuli/002057_2014-06-24_21-00-13_260595134347_rgbf000120-resize_1/002057_2014-06-24_21-00-13_260595134347_rgbf000120-resize_1-target.png,1000,2.967,30,8357,999,meters,jsons/v1_VE1000_randls_27.json,1786634,2271211,36,Woman
43,145502,DepthScenes,duration_manipulation_targetAtFixation,jsons/v1_VE1000_randls_27.json,http://54.235.29.9/FacialAge/BNav_EC2/DepthDuration/v2_depth_duration_MTurk/v2_DepthDuration_HTML.html#27,27,1280,1024,1280,1024,8-22-2022,5-0-11,44,depth_duration_stimuli/000709_2014-06-08_13-51-55_260595134347_rgbf000068-resize_3/000709_2014-06-08_13-51-55_260595134347_rgbf000068-resize_3-target.png,1000,1.8030000000000002,0,9958,999,meters,jsons/v1_VE1000_randls_27.json,1786634,2271211,36,Woman
44,145502,DepthScenes,duration_manipulation_targetAtFixation,jsons/v1_VE1000_randls_27.json,http://54.235.29.9/FacialAge/BNav_EC2/DepthDuration/v2_depth_duration_MTurk/v2_DepthDuration_HTML.html#27,27,1280,1024,1280,1024,8-22-2022,5-0-11,45,depth_duration_stimuli/000787_2014-06-08_22-33-53_260595134347_rgbf000175-resize_1/000787_2014-06-08_22-33-53_260595134347_rgbf000175-resize-original.jpg,1000,4.784,0,9393,999,meters,jsons/v1_VE1000_randls_27.json,1786634,2271211,36,Woman
45,145502,DepthScenes,duration_manipulation_targetAtFixation,jsons/v1_VE1000_randls_27.json,http://54.235.29.9/FacialAge/BNav_EC2/DepthDuration/v2_depth_duration_MTurk/v2_DepthDuration_HTML.html#27,27,1280,1024,1280,1024,8-22-2022,5-0-11,46,depth_duration_stimuli/002039_2014-06-24_20-22-38_260595134347_rgbf000084-resize_1/002039_2014-06-24_20-22-38_260595134347_rgbf000084-resize_1-target.png,1000,4.408,30,10156,1001,meters,jsons/v1_VE1000_randls_27.json,1786634,2271211,36,Woman
46,145502,DepthScenes,duration_manipulation_targetAtFixation,jsons/v1_VE1000_randls_27.json,http://54.235.29.9/FacialAge/BNav_EC2/DepthDuration/v2_depth_duration_MTurk/v2_DepthDuration_HTML.html#27,27,1280,1024,1280,1024,8-22-2022,5-0-11,47,depth_duration_stimuli/002103_2014-06-25_20-00-40_260595134347_rgbf000049-resize_0/002103_2014-06-25_20-00-40_260595134347_rgbf000049-resize_0-target.png,1000,4.105,0,10634,999,meters,jsons/v1_VE1000_randls_27.json,1786634,2271211,36,Woman
47,145502,DepthScenes,duration_manipulation_targetAtFixation,jsons/v1_VE1000_randls_27.json,http://54.235.29.9/FacialAge/BNav_EC2/DepthDuration/v2_depth_duration_MTurk/v2_DepthDuration_HTML.html#27,27,1280,1024,1280,1024,8-22-2022,5-0-11,48,depth_duration_stimuli/002043_2014-06-24_20-29-38_260595134347_rgbf000039-resize_4/002043_2014-06-24_20-29-38_260595134347_rgbf000039-resize_4-target.png,1000,2.8435,30,11064,1000,meters,jsons/v1_VE1000_randls_27.json,1786634,2271211,36,Woman
48,145502,DepthScenes,duration_manipulation_targetAtFixation,jsons/v1_VE1000_randls_27.json,http://54.235.29.9/FacialAge/BNav_EC2/DepthDuration/v2_depth_duration_MTurk/v2_DepthDuration_HTML.html#27,27,1280,1024,1280,1024,8-22-2022,5-0-11,49,depth_duration_stimuli/003048_2014-06-15_13-49-43_094959634447_rgbf000150-resize_1/003048_2014-06-15_13-49-43_094959634447_rgbf000150-resize_1-target.png,1000,4.0035,30,24241,998,meters,jsons/v1_VE1000_randls_27.json,1786634,2271211,36,Woman
49,145502,DepthScenes,duration_manipulation_targetAtFixation,jsons/v1_VE1000_randls_27.json,http://54.235.29.9/FacialAge/BNav_EC2/DepthDuration/v2_depth_duration_MTurk/v2_DepthDuration_HTML.html#27,27,1280,1024,1280,1024,8-22-2022,5-0-11,50,depth_duration_stimuli/002600_2014-06-24_14-27-04_094959634447_rgbf000074-resize_2/002600_2014-06-24_14-27-04_094959634447_rgbf000074-resize_2-target.png,1000,2.7575,25,8861,999,meters,jsons/v1_VE1000_randls_27.json,1786634,2271211,36,Woman
50,145502,DepthScenes,duration_manipulation_targetAtFixation,jsons/v1_VE1000_randls_27.json,http://54.235.29.9/FacialAge/BNav_EC2/DepthDuration/v2_depth_duration_MTurk/v2_DepthDuration_HTML.html#27,27,1280,1024,1280,1024,8-22-2022,5-0-11,51,depth_duration_stimuli/003228_2014-05-14_13-42-35_094959634447_rgbf000101-resize_1/003228_2014-05-14_13-42-35_094959634447_rgbf000101-resize_1-target.png,1000,1.9680000000000002,20,9432,1000,meters,jsons/v1_VE1000_randls_27.json,1786634,2271211,36,Woman
51,145502,DepthScenes,duration_manipulation_targetAtFixation,jsons/v1_VE1000_randls_27.json,http://54.235.29.9/FacialAge/BNav_EC2/DepthDuration/v2_depth_duration_MTurk/v2_DepthDuration_HTML.html#27,27,1280,1024,1280,1024,8-22-2022,5-0-11,52,depth_duration_stimuli/002784_2014-06-22_19-26-30_094959634447_rgbf000083-resize_3/002784_2014-06-22_19-26-30_094959634447_rgbf000083-resize_3-target.png,1000,1.8046666666667,20,8800,999,meters,jsons/v1_VE1000_randls_27.json,1786634,2271211,36,Woman
52,145502,DepthScenes,duration_manipulation_targetAtFixation,jsons/v1_VE1000_randls_27.json,http://54.235.29.9/FacialAge/BNav_EC2/DepthDuration/v2_depth_duration_MTurk/v2_DepthDuration_HTML.html#27,27,1280,1024,1280,1024,8-22-2022,5-0-11,53,depth_duration_stimuli/001100_2014-06-15_17-46-26_260595134347_rgbf000225-resize_2/001100_2014-06-15_17-46-26_260595134347_rgbf000225-resize_2-target.png,1000,2.24,20,8748,1000,meters,jsons/v1_VE1000_randls_27.json,1786634,2271211,36,Woman
53,145502,DepthScenes,duration_manipulation_targetAtFixation,jsons/v1_VE1000_randls_27.json,http://54.235.29.9/FacialAge/BNav_EC2/DepthDuration/v2_depth_duration_MTurk/v2_DepthDuration_HTML.html#27,27,1280,1024,1280,1024,8-22-2022,5-0-11,54,depth_duration_stimuli/001029_2014-06-08_13-17-57_260595134347_rgbf000065-resize_1/001029_2014-06-08_13-17-57_260595134347_rgbf000065-resize_1-target.png,1000,3.0835,30,8753,1000,meters,jsons/v1_VE1000_randls_27.json,1786634,2271211,36,Woman
54,145502,DepthScenes,duration_manipulation_targetAtFixation,jsons/v1_VE1000_randls_27.json,http://54.235.29.9/FacialAge/BNav_EC2/DepthDuration/v2_depth_duration_MTurk/v2_DepthDuration_HTML.html#27,27,1280,1024,1280,1024,8-22-2022,5-0-11,55,depth_duration_stimuli/000677_2014-06-08_23-10-32_260595134347_rgbf000158-resize_6/000677_2014-06-08_23-10-32_260595134347_rgbf000158-resize_6-target.png,1000,3.556,25,8736,1000,meters,jsons/v1_VE1000_randls_27.json,1786634,2271211,36,Woman
55,145502,DepthScenes,duration_manipulation_targetAtFixation,jsons/v1_VE1000_randls_27.json,http://54.235.29.9/FacialAge/BNav_EC2/DepthDuration/v2_depth_duration_MTurk/v2_DepthDuration_HTML.html#27,27,1280,1024,1280,1024,8-22-2022,5-0-11,56,depth_duration_stimuli/000878_2014-06-08_22-52-45_260595134347_rgbf000045-resize_2/000878_2014-06-08_22-52-45_260595134347_rgbf000045-resize_2-target.png,1000,2.092,25,9168,1000,meters,jsons/v1_VE1000_randls_27.json,1786634,2271211,36,Woman
56,145502,DepthScenes,duration_manipulation_targetAtFixation,jsons/v1_VE1000_randls_27.json,http://54.235.29.9/FacialAge/BNav_EC2/DepthDuration/v2_depth_duration_MTurk/v2_DepthDuration_HTML.html#27,27,1280,1024,1280,1024,8-22-2022,5-0-11,57,depth_duration_stimuli/002953_2014-06-08_17-32-18_094959634447_rgbf000059-resize_5/002953_2014-06-08_17-32-18_094959634447_rgbf000059-resize_5-target.png,1000,1.551,20,10644,1000,meters,jsons/v1_VE1000_randls_27.json,1786634,2271211,36,Woman
57,145502,DepthScenes,duration_manipulation_targetAtFixation,jsons/v1_VE1000_randls_27.json,http://54.235.29.9/FacialAge/BNav_EC2/DepthDuration/v2_depth_duration_MTurk/v2_DepthDuration_HTML.html#27,27,1280,1024,1280,1024,8-22-2022,5-0-11,58,depth_duration_stimuli/000470_2014-06-09_19-42-40_260595134347_rgbf000094-resize_1/000470_2014-06-09_19-42-40_260595134347_rgbf000094-resize_1-target.png,1000,1.831,20,8372,1001,meters,jsons/v1_VE1000_randls_27.json,1786634,2271211,36,Woman
58,145502,DepthScenes,duration_manipulation_targetAtFixation,jsons/v1_VE1000_randls_27.json,http://54.235.29.9/FacialAge/BNav_EC2/DepthDuration/v2_depth_duration_MTurk/v2_DepthDuration_HTML.html#27,27,1280,1024,1280,1024,8-22-2022,5-0-11,59,depth_duration_stimuli/000109_2014-05-14_23-41-52_260595134347_rgbf000035-resize_9/000109_2014-05-14_23-41-52_260595134347_rgbf000035-resize_9-target.png,1000,1.3545,20,8736,1000,meters,jsons/v1_VE1000_randls_27.json,1786634,2271211,36,Woman
59,145502,DepthScenes,duration_manipulation_targetAtFixation,jsons/v1_VE1000_randls_27.json,http://54.235.29.9/FacialAge/BNav_EC2/DepthDuration/v2_depth_duration_MTurk/v2_DepthDuration_HTML.html#27,27,1280,1024,1280,1024,8-22-2022,5-0-11,60,depth_duration_stimuli/001150_2014-06-17_15-27-34_260595134347_rgbf000108-resize_2/001150_2014-06-17_15-27-34_260595134347_rgbf000108-resize_2-target.png,1000,4.0325,30,8454,1001,meters,jsons/v1_VE1000_randls_27.json,1786634,2271211,36,Woman
60,145502,DepthScenes,duration_manipulation_targetAtFixation,jsons/v1_VE1000_randls_27.json,http://54.235.29.9/FacialAge/BNav_EC2/DepthDuration/v2_depth_duration_MTurk/v2_DepthDuration_HTML.html#27,27,1280,1024,1280,1024,8-22-2022,5-0-11,61,depth_duration_stimuli/000665_2014-06-09_20-42-35_260595134347_rgbf000110-resize_1/000665_2014-06-09_20-42-35_260595134347_rgbf000110-resize_1-target.png,1000,3.057,25,8622,1000,meters,jsons/v1_VE1000_randls_27.json,1786634,2271211,36,Woman
61,145502,DepthScenes,duration_manipulation_targetAtFixation,jsons/v1_VE1000_randls_27.json,http://54.235.29.9/FacialAge/BNav_EC2/DepthDuration/v2_depth_duration_MTurk/v2_DepthDuration_HTML.html#27,27,1280,1024,1280,1024,8-22-2022,5-0-11,62,depth_duration_stimuli/002272_2014-06-28_18-53-56_260595134347_rgbf000067-resize_2/002272_2014-06-28_18-53-56_260595134347_rgbf000067-resize_2-target.png,1000,1.138,15,6904,1001,meters,jsons/v1_VE1000_randls_27.json,1786634,2271211,36,Woman
62,145502,DepthScenes,duration_manipulation_targetAtFixation,jsons/v1_VE1000_randls_27.json,http://54.235.29.9/FacialAge/BNav_EC2/DepthDuration/v2_depth_duration_MTurk/v2_DepthDuration_HTML.html#27,27,1280,1024,1280,1024,8-22-2022,5-0-11,63,depth_duration_stimuli/001571_2014-06-20_17-21-32_260595134347_rgbf000089-resize_1/001571_2014-06-20_17-21-32_260595134347_rgbf000089-resize_1-target.png,1000,1.86,20,11700,999,meters,jsons/v1_VE1000_randls_27.json,1786634,2271211,36,Woman
63,145502,DepthScenes,duration_manipulation_targetAtFixation,jsons/v1_VE1000_randls_27.json,http://54.235.29.9/FacialAge/BNav_EC2/DepthDuration/v2_depth_duration_MTurk/v2_DepthDuration_HTML.html#27,27,1280,1024,1280,1024,8-22-2022,5-0-11,64,depth_duration_stimuli/001167_2014-06-17_15-38-07_260595134347_rgbf000108-resize_0/001167_2014-06-17_15-38-07_260595134347_rgbf000108-resize_0-target.png,1000,1.8505,20,9122,1000,meters,jsons/v1_VE1000_randls_27.json,1786634,2271211,36,Woman
64,145502,DepthScenes,duration_manipulation_targetAtFixation,jsons/v1_VE1000_randls_27.json,http://54.235.29.9/FacialAge/BNav_EC2/DepthDuration/v2_depth_duration_MTurk/v2_DepthDuration_HTML.html#27,27,1280,1024,1280,1024,8-22-2022,5-0-11,65,depth_duration_stimuli/003587_2014-05-23_16-48-02_094959634447_rgbf002384-resize_2/003587_2014-05-23_16-48-02_094959634447_rgbf002384-resize_2-target.png,1000,1.357,10,8042,999,meters,jsons/v1_VE1000_randls_27.json,1786634,2271211,36,Woman
65,145502,DepthScenes,duration_manipulation_targetAtFixation,jsons/v1_VE1000_randls_27.json,http://54.235.29.9/FacialAge/BNav_EC2/DepthDuration/v2_depth_duration_MTurk/v2_DepthDuration_HTML.html#27,27,1280,1024,1280,1024,8-22-2022,5-0-11,66,depth_duration_stimuli/001222_2014-06-17_16-24-06_260595134347_rgbf000073-resize_0/001222_2014-06-17_16-24-06_260595134347_rgbf000073-resize-original.jpg,1000,1.4385,0,8872,999,meters,jsons/v1_VE1000_randls_27.json,1786634,2271211,36,Woman
66,145502,DepthScenes,duration_manipulation_targetAtFixation,jsons/v1_VE1000_randls_27.json,http://54.235.29.9/FacialAge/BNav_EC2/DepthDuration/v2_depth_duration_MTurk/v2_DepthDuration_HTML.html#27,27,1280,1024,1280,1024,8-22-2022,5-0-11,67,depth_duration_stimuli/001110_2014-06-15_17-25-28_260595134347_rgbf000150-resize_1/001110_2014-06-15_17-25-28_260595134347_rgbf000150-resize_1-target.png,1000,1.7115,20,9051,999,meters,jsons/v1_VE1000_randls_27.json,1786634,2271211,36,Woman
67,145502,DepthScenes,duration_manipulation_targetAtFixation,jsons/v1_VE1000_randls_27.json,http://54.235.29.9/FacialAge/BNav_EC2/DepthDuration/v2_depth_duration_MTurk/v2_DepthDuration_HTML.html#27,27,1280,1024,1280,1024,8-22-2022,5-0-11,68,depth_duration_stimuli/000927_2014-06-09_16-32-30_260595134347_rgbf000123-resize_3/000927_2014-06-09_16-32-30_260595134347_rgbf000123-resize_3-target.png,1000,2.6785,30,8092,1000,meters,jsons/v1_VE1000_randls_27.json,1786634,2271211,36,Woman
68,145502,DepthScenes,duration_manipulation_targetAtFixation,jsons/v1_VE1000_randls_27.json,http://54.235.29.9/FacialAge/BNav_EC2/DepthDuration/v2_depth_duration_MTurk/v2_DepthDuration_HTML.html#27,27,1280,1024,1280,1024,8-22-2022,5-0-11,69,depth_duration_stimuli/000788_2014-06-08_22-34-36_260595134347_rgbf000131-resize_1/000788_2014-06-08_22-34-36_260595134347_rgbf000131-resize_1-target.png,1000,3.359,25,9090,999,meters,jsons/v1_VE1000_randls_27.json,1786634,2271211,36,Woman
69,145502,DepthScenes,duration_manipulation_targetAtFixation,jsons/v1_VE1000_randls_27.json,http://54.235.29.9/FacialAge/BNav_EC2/DepthDuration/v2_depth_duration_MTurk/v2_DepthDuration_HTML.html#27,27,1280,1024,1280,1024,8-22-2022,5-0-11,70,depth_duration_stimuli/001235_2014-06-17_16-37-36_260595134347_rgbf000084-resize_4/001235_2014-06-17_16-37-36_260595134347_rgbf000084-resize_4-target.png,1000,3.6605,25,8873,1000,meters,jsons/v1_VE1000_randls_27.json,1786634,2271211,36,Woman
70,145502,DepthScenes,duration_manipulation_targetAtFixation,jsons/v1_VE1000_randls_27.json,http://54.235.29.9/FacialAge/BNav_EC2/DepthDuration/v2_depth_duration_MTurk/v2_DepthDuration_HTML.html#27,27,1280,1024,1280,1024,8-22-2022,5-0-11,71,depth_duration_stimuli/000929_2014-06-09_16-33-19_260595134347_rgbf000139-resize_0/000929_2014-06-09_16-33-19_260595134347_rgbf000139-resize_0-target.png,1000,2.8680000000000003,20,8858,1000,meters,jsons/v1_VE1000_randls_27.json,1786634,2271211,36,Woman
71,145502,DepthScenes,duration_manipulation_targetAtFixation,jsons/v1_VE1000_randls_27.json,http://54.235.29.9/FacialAge/BNav_EC2/DepthDuration/v2_depth_duration_MTurk/v2_DepthDuration_HTML.html#27,27,1280,1024,1280,1024,8-22-2022,5-0-11,72,depth_duration_stimuli/000457_2014-06-08_16-52-43_260595134347_rgbf000199-resize_1/000457_2014-06-08_16-52-43_260595134347_rgbf000199-resize_1-target.png,1000,3.6489999999999996,30,8282,1000,meters,jsons/v1_VE1000_randls_27.json,1786634,2271211,36,Woman
72,145502,DepthScenes,duration_manipulation_targetAtFixation,jsons/v1_VE1000_randls_27.json,http://54.235.29.9/FacialAge/BNav_EC2/DepthDuration/v2_depth_duration_MTurk/v2_DepthDuration_HTML.html#27,27,1280,1024,1280,1024,8-22-2022,5-0-11,73,depth_duration_stimuli/001449_2014-06-19_17-01-27_260595134347_rgbf000116-resize_2/001449_2014-06-19_17-01-27_260595134347_rgbf000116-resize_2-target.png,1000,3.452,30,8338,1000,meters,jsons/v1_VE1000_randls_27.json,1786634,2271211,36,Woman
73,145502,DepthScenes,duration_manipulation_targetAtFixation,jsons/v1_VE1000_randls_27.json,http://54.235.29.9/FacialAge/BNav_EC2/DepthDuration/v2_depth_duration_MTurk/v2_DepthDuration_HTML.html#27,27,1280,1024,1280,1024,8-22-2022,5-0-11,74,depth_duration_stimuli/001450_2014-06-19_17-02-03_260595134347_rgbf000203-resize_4/001450_2014-06-19_17-02-03_260595134347_rgbf000203-resize_4-target.png,1000,4.0106666666667,30,8841,1000,meters,jsons/v1_VE1000_randls_27.json,1786634,2271211,36,Woman
74,145502,DepthScenes,duration_manipulation_targetAtFixation,jsons/v1_VE1000_randls_27.json,http://54.235.29.9/FacialAge/BNav_EC2/DepthDuration/v2_depth_duration_MTurk/v2_DepthDuration_HTML.html#27,27,1280,1024,1280,1024,8-22-2022,5-0-11,75,depth_duration_stimuli/002725_2014-06-22_11-47-51_094959634447_rgbf000070-resize_1/002725_2014-06-22_11-47-51_094959634447_rgbf000070-resize_1-target.png,1000,2.195,30,7764,1001,meters,jsons/v1_VE1000_randls_27.json,1786634,2271211,36,Woman
75,145502,DepthScenes,duration_manipulation_targetAtFixation,jsons/v1_VE1000_randls_27.json,http://54.235.29.9/FacialAge/BNav_EC2/DepthDuration/v2_depth_duration_MTurk/v2_DepthDuration_HTML.html#27,27,1280,1024,1280,1024,8-22-2022,5-0-11,76,depth_duration_stimuli/002344_2014-06-28_20-06-29_260595134347_rgbf000030-resize_1/002344_2014-06-28_20-06-29_260595134347_rgbf000030-resize_1-target.png,1000,1.5795,10,7707,999,meters,jsons/v1_VE1000_randls_27.json,1786634,2271211,36,Woman
76,145502,DepthScenes,duration_manipulation_targetAtFixation,jsons/v1_VE1000_randls_27.json,http://54.235.29.9/FacialAge/BNav_EC2/DepthDuration/v2_depth_duration_MTurk/v2_DepthDuration_HTML.html#27,27,1280,1024,1280,1024,8-22-2022,5-0-11,77,depth_duration_stimuli/001092_2014-06-15_17-34-58_260595134347_rgbf000171-resize_3/001092_2014-06-15_17-34-58_260595134347_rgbf000171-resize_3-target.png,1000,2.6935,20,8209,999,meters,jsons/v1_VE1000_randls_27.json,1786634,2271211,36,Woman
77,145502,DepthScenes,duration_manipulation_targetAtFixation,jsons/v1_VE1000_randls_27.json,http://54.235.29.9/FacialAge/BNav_EC2/DepthDuration/v2_depth_duration_MTurk/v2_DepthDuration_HTML.html#27,27,1280,1024,1280,1024,8-22-2022,5-0-11,78,depth_duration_stimuli/002545_2014-06-24_13-38-53_094959634447_rgbf000080-resize_4/002545_2014-06-24_13-38-53_094959634447_rgbf000080-resize_4-target.png,1000,1.9205,25,8349,999,meters,jsons/v1_VE1000_randls_27.json,1786634,2271211,36,Woman
78,145502,DepthScenes,duration_manipulation_targetAtFixation,jsons/v1_VE1000_randls_27.json,http://54.235.29.9/FacialAge/BNav_EC2/DepthDuration/v2_depth_duration_MTurk/v2_DepthDuration_HTML.html#27,27,1280,1024,1280,1024,8-22-2022,5-0-11,79,depth_duration_stimuli/000917_2014-06-09_22-45-29_260595134347_rgbf000149-resize_3/000917_2014-06-09_22-45-29_260595134347_rgbf000149-resize_3-target.png,1000,4.1865,30,7760,1000,meters,jsons/v1_VE1000_randls_27.json,1786634,2271211,36,Woman
79,145502,DepthScenes,duration_manipulation_targetAtFixation,jsons/v1_VE1000_randls_27.json,http://54.235.29.9/FacialAge/BNav_EC2/DepthDuration/v2_depth_duration_MTurk/v2_DepthDuration_HTML.html#27,27,1280,1024,1280,1024,8-22-2022,5-0-11,80,depth_duration_stimuli/002323_2014-06-28_20-01-54_260595134347_rgbf000051-resize_4/002323_2014-06-28_20-01-54_260595134347_rgbf000051-resize_4-target.png,1000,3.7310000000000003,30,8683,1000,meters,jsons/v1_VE1000_randls_27.json,1786634,2271211,36,Woman
80,145502,DepthScenes,duration_manipulation_targetAtFixation,jsons/v1_VE1000_randls_27.json,http://54.235.29.9/FacialAge/BNav_EC2/DepthDuration/v2_depth_duration_MTurk/v2_DepthDuration_HTML.html#27,27,1280,1024,1280,1024,8-22-2022,5-0-11,81,depth_duration_stimuli/001133_2014-06-17_14-49-16_260595134347_rgbf000100-resize_0/001133_2014-06-17_14-49-16_260595134347_rgbf000100-resize_0-target.png,1000,4.2115,30,8113,1000,meters,jsons/v1_VE1000_randls_27.json,1786634,2271211,36,Woman
81,145502,DepthScenes,duration_manipulation_targetAtFixation,jsons/v1_VE1000_randls_27.json,http://54.235.29.9/FacialAge/BNav_EC2/DepthDuration/v2_depth_duration_MTurk/v2_DepthDuration_HTML.html#27,27,1280,1024,1280,1024,8-22-2022,5-0-11,82,depth_duration_stimuli/001132_2014-06-17_14-48-54_260595134347_rgbf000100-resize_2/001132_2014-06-17_14-48-54_260595134347_rgbf000100-resize_2-target.png,1000,3.753,30,8338,999,meters,jsons/v1_VE1000_randls_27.json,1786634,2271211,36,Woman
82,145502,DepthScenes,duration_manipulation_targetAtFixation,jsons/v1_VE1000_randls_27.json,http://54.235.29.9/FacialAge/BNav_EC2/DepthDuration/v2_depth_duration_MTurk/v2_DepthDuration_HTML.html#27,27,1280,1024,1280,1024,8-22-2022,5-0-11,83,depth_duration_stimuli/001555_2014-06-20_17-12-10_260595134347_rgbf000065-resize_4/001555_2014-06-20_17-12-10_260595134347_rgbf000065-resize_4-target.png,1000,1.633,20,7787,999,meters,jsons/v1_VE1000_randls_27.json,1786634,2271211,36,Woman
83,145502,DepthScenes,duration_manipulation_targetAtFixation,jsons/v1_VE1000_randls_27.json,http://54.235.29.9/FacialAge/BNav_EC2/DepthDuration/v2_depth_duration_MTurk/v2_DepthDuration_HTML.html#27,27,1280,1024,1280,1024,8-22-2022,5-0-11,84,depth_duration_stimuli/000103_2014-05-14_22-01-17_260595134347_rgbf000152-resize_5/000103_2014-05-14_22-01-17_260595134347_rgbf000152-resize_5-target.png,1000,1.993,25,9068,999,meters,jsons/v1_VE1000_randls_27.json,1786634,2271211,36,Woman
84,145502,DepthScenes,duration_manipulation_targetAtFixation,jsons/v1_VE1000_randls_27.json,http://54.235.29.9/FacialAge/BNav_EC2/DepthDuration/v2_depth_duration_MTurk/v2_DepthDuration_HTML.html#27,27,1280,1024,1280,1024,8-22-2022,5-0-11,85,depth_duration_stimuli/000810_2014-06-08_17-20-01_260595134347_rgbf000105-resize_0/000810_2014-06-08_17-20-01_260595134347_rgbf000105-resize_0-target.png,1000,1.4865,20,8440,1000,meters,jsons/v1_VE1000_randls_27.json,1786634,2271211,36,Woman
85,145502,DepthScenes,duration_manipulation_targetAtFixation,jsons/v1_VE1000_randls_27.json,http://54.235.29.9/FacialAge/BNav_EC2/DepthDuration/v2_depth_duration_MTurk/v2_DepthDuration_HTML.html#27,27,1280,1024,1280,1024,8-22-2022,5-0-11,86,depth_duration_stimuli/001214_2014-06-17_16-13-55_260595134347_rgbf000111-resize_0/001214_2014-06-17_16-13-55_260595134347_rgbf000111-resize_0-target.png,1000,2.6505,20,8306,999,meters,jsons/v1_VE1000_randls_27.json,1786634,2271211,36,Woman
86,145502,DepthScenes,duration_manipulation_targetAtFixation,jsons/v1_VE1000_randls_27.json,http://54.235.29.9/FacialAge/BNav_EC2/DepthDuration/v2_depth_duration_MTurk/v2_DepthDuration_HTML.html#27,27,1280,1024,1280,1024,8-22-2022,5-0-11,87,depth_duration_stimuli/001810_2014-06-26_20-51-35_260595134347_rgbf000040-resize_3/001810_2014-06-26_20-51-35_260595134347_rgbf000040-resize_3-target.png,1000,2.2525,20,7281,999,meters,jsons/v1_VE1000_randls_27.json,1786634,2271211,36,Woman
87,145502,DepthScenes,duration_manipulation_targetAtFixation,jsons/v1_VE1000_randls_27.json,http://54.235.29.9/FacialAge/BNav_EC2/DepthDuration/v2_depth_duration_MTurk/v2_DepthDuration_HTML.html#27,27,1280,1024,1280,1024,8-22-2022,5-0-11,88,depth_duration_stimuli/003010_2014-06-15_12-54-35_094959634447_rgbf000112-resize_0/003010_2014-06-15_12-54-35_094959634447_rgbf000112-resize_0-target.png,1000,3.1185,30,8061,965,meters,jsons/v1_VE1000_randls_27.json,1786634,2271211,36,Woman
88,145502,DepthScenes,duration_manipulation_targetAtFixation,jsons/v1_VE1000_randls_27.json,http://54.235.29.9/FacialAge/BNav_EC2/DepthDuration/v2_depth_duration_MTurk/v2_DepthDuration_HTML.html#27,27,1280,1024,1280,1024,8-22-2022,5-0-11,89,depth_duration_stimuli/002663_2014-06-13_15-50-26_094959634447_rgbf000075-resize_1/002663_2014-06-13_15-50-26_094959634447_rgbf000075-resize_1-target.png,1000,4.7495,30,7761,1000,meters,jsons/v1_VE1000_randls_27.json,1786634,2271211,36,Woman
89,145502,DepthScenes,duration_manipulation_targetAtFixation,jsons/v1_VE1000_randls_27.json,http://54.235.29.9/FacialAge/BNav_EC2/DepthDuration/v2_depth_duration_MTurk/v2_DepthDuration_HTML.html#27,27,1280,1024,1280,1024,8-22-2022,5-0-11,90,depth_duration_stimuli/000409_2014-06-04_19-23-33_260595134347_rgbf000067-resize_0/000409_2014-06-04_19-23-33_260595134347_rgbf000067-resize_0-target.png,1000,3.7335,25,8189,999,meters,jsons/v1_VE1000_randls_27.json,1786634,2271211,36,Woman
90,145502,DepthScenes,duration_manipulation_targetAtFixation,jsons/v1_VE1000_randls_27.json,http://54.235.29.9/FacialAge/BNav_EC2/DepthDuration/v2_depth_duration_MTurk/v2_DepthDuration_HTML.html#27,27,1280,1024,1280,1024,8-22-2022,5-0-11,91,depth_duration_stimuli/003534_2014-05-22_15-06-10_094959634447_rgbf000102-resize_4/003534_2014-05-22_15-06-10_094959634447_rgbf000102-resize_4-target.png,1000,1.426,10,8171,1005,meters,jsons/v1_VE1000_randls_27.json,1786634,2271211,36,Woman
91,145502,DepthScenes,duration_manipulation_targetAtFixation,jsons/v1_VE1000_randls_27.json,http://54.235.29.9/FacialAge/BNav_EC2/DepthDuration/v2_depth_duration_MTurk/v2_DepthDuration_HTML.html#27,27,1280,1024,1280,1024,8-22-2022,5-0-11,92,depth_duration_stimuli/002637_2014-06-24_14-51-13_094959634447_rgbf000066-resize_4/002637_2014-06-24_14-51-13_094959634447_rgbf000066-resize_4-target.png,1000,1.9955,25,8673,1000,meters,jsons/v1_VE1000_randls_27.json,1786634,2271211,36,Woman
92,145502,DepthScenes,duration_manipulation_targetAtFixation,jsons/v1_VE1000_randls_27.json,http://54.235.29.9/FacialAge/BNav_EC2/DepthDuration/v2_depth_duration_MTurk/v2_DepthDuration_HTML.html#27,27,1280,1024,1280,1024,8-22-2022,5-0-11,93,depth_duration_stimuli/002279_2014-06-28_18-55-32_260595134347_rgbf000040-resize_5/002279_2014-06-28_18-55-32_260595134347_rgbf000040-resize_5-target.png,1000,1.5043333333333,15,8764,999,meters,jsons/v1_VE1000_randls_27.json,1786634,2271211,36,Woman
93,145502,DepthScenes,duration_manipulation_targetAtFixation,jsons/v1_VE1000_randls_27.json,http://54.235.29.9/FacialAge/BNav_EC2/DepthDuration/v2_depth_duration_MTurk/v2_DepthDuration_HTML.html#27,27,1280,1024,1280,1024,8-22-2022,5-0-11,94,depth_duration_stimuli/000635_2014-06-08_16-38-42_260595134347_rgbf000106-resize_1/000635_2014-06-08_16-38-42_260595134347_rgbf000106-resize_1-target.png,1000,2.074,30,8495,999,meters,jsons/v1_VE1000_randls_27.json,1786634,2271211,36,Woman
94,145502,DepthScenes,duration_manipulation_targetAtFixation,jsons/v1_VE1000_randls_27.json,http://54.235.29.9/FacialAge/BNav_EC2/DepthDuration/v2_depth_duration_MTurk/v2_DepthDuration_HTML.html#27,27,1280,1024,1280,1024,8-22-2022,5-0-11,95,depth_duration_stimuli/001158_2014-06-17_15-32-16_260595134347_rgbf000138-resize_2/001158_2014-06-17_15-32-16_260595134347_rgbf000138-resize_2-target.png,1000,4.5315,30,8402,1004,meters,jsons/v1_VE1000_randls_27.json,1786634,2271211,36,Woman
95,145502,DepthScenes,duration_manipulation_targetAtFixation,jsons/v1_VE1000_randls_27.json,http://54.235.29.9/FacialAge/BNav_EC2/DepthDuration/v2_depth_duration_MTurk/v2_DepthDuration_HTML.html#27,27,1280,1024,1280,1024,8-22-2022,5-0-11,96,depth_duration_stimuli/000556_2014-06-09_22-42-56_260595134347_rgbf000214-resize_1/000556_2014-06-09_22-42-56_260595134347_rgbf000214-resize_1-target.png,1000,4.8415,25,7647,1000,meters,jsons/v1_VE1000_randls_27.json,1786634,2271211,36,Woman
96,145502,DepthScenes,duration_manipulation_targetAtFixation,jsons/v1_VE1000_randls_27.json,http://54.235.29.9/FacialAge/BNav_EC2/DepthDuration/v2_depth_duration_MTurk/v2_DepthDuration_HTML.html#27,27,1280,1024,1280,1024,8-22-2022,5-0-11,97,depth_duration_stimuli/001806_2014-06-26_20-50-20_260595134347_rgbf000091-resize_1/001806_2014-06-26_20-50-20_260595134347_rgbf000091-resize_1-target.png,1000,2.7305,20,8064,1000,meters,jsons/v1_VE1000_randls_27.json,1786634,2271211,36,Woman
97,145502,DepthScenes,duration_manipulation_targetAtFixation,jsons/v1_VE1000_randls_27.json,http://54.235.29.9/FacialAge/BNav_EC2/DepthDuration/v2_depth_duration_MTurk/v2_DepthDuration_HTML.html#27,27,1280,1024,1280,1024,8-22-2022,5-0-11,98,depth_duration_stimuli/001617_2014-06-20_11-35-32_260595134347_rgbf000066-resize_1/001617_2014-06-20_11-35-32_260595134347_rgbf000066-resize_1-target.png,1000,3.7910000000000004,30,8699,1000,meters,jsons/v1_VE1000_randls_27.json,1786634,2271211,36,Woman
98,145502,DepthScenes,duration_manipulation_targetAtFixation,jsons/v1_VE1000_randls_27.json,http://54.235.29.9/FacialAge/BNav_EC2/DepthDuration/v2_depth_duration_MTurk/v2_DepthDuration_HTML.html#27,27,1280,1024,1280,1024,8-22-2022,5-0-11,99,depth_duration_stimuli/001540_2014-06-20_17-01-05_260595134347_rgbf000086-resize_2/001540_2014-06-20_17-01-05_260595134347_rgbf000086-resize-original.jpg,1000,1.459,0,8419,1000,meters,jsons/v1_VE1000_randls_27.json,1786634,2271211,36,Woman
99,145502,DepthScenes,duration_manipulation_targetAtFixation,jsons/v1_VE1000_randls_27.json,http://54.235.29.9/FacialAge/BNav_EC2/DepthDuration/v2_depth_duration_MTurk/v2_DepthDuration_HTML.html#27,27,1280,1024,1280,1024,8-22-2022,5-0-11,100,depth_duration_stimuli/003621_2014-05-23_18-06-08_094959634447_rgbf000101-resize_1/003621_2014-05-23_18-06-08_094959634447_rgbf000101-resize_1-target.png,1000,3.9835,30,8564,999,meters,jsons/v1_VE1000_randls_27.json,1786634,2271211,36,Woman
100,145502,DepthScenes,duration_manipulation_targetAtFixation,jsons/v1_VE1000_randls_27.json,http://54.235.29.9/FacialAge/BNav_EC2/DepthDuration/v2_depth_duration_MTurk/v2_DepthDuration_HTML.html#27,27,1280,1024,1280,1024,8-22-2022,5-0-11,101,depth_duration_stimuli/001584_2014-06-20_11-07-43_260595134347_rgbf000002-resize_1/001584_2014-06-20_11-07-43_260595134347_rgbf000002-resize_1-target.png,1000,3.53,25,8053,999,meters,jsons/v1_VE1000_randls_27.json,1786634,2271211,36,Woman
101,145502,DepthScenes,duration_manipulation_targetAtFixation,jsons/v1_VE1000_randls_27.json,http://54.235.29.9/FacialAge/BNav_EC2/DepthDuration/v2_depth_duration_MTurk/v2_DepthDuration_HTML.html#27,27,1280,1024,1280,1024,8-22-2022,5-0-11,102,depth_duration_stimuli/000758_2014-06-08_22-05-08_260595134347_rgbf000085-resize_0/000758_2014-06-08_22-05-08_260595134347_rgbf000085-resize_0-target.png,1000,3.3810000000000002,30,8335,1001,meters,jsons/v1_VE1000_randls_27.json,1786634,2271211,36,Woman
102,145502,DepthScenes,duration_manipulation_targetAtFixation,jsons/v1_VE1000_randls_27.json,http://54.235.29.9/FacialAge/BNav_EC2/DepthDuration/v2_depth_duration_MTurk/v2_DepthDuration_HTML.html#27,27,1280,1024,1280,1024,8-22-2022,5-0-11,103,depth_duration_stimuli/000854_2014-06-09_19-43-13_260595134347_rgbf000066-resize_0/000854_2014-06-09_19-43-13_260595134347_rgbf000066-resize_0-target.png,1000,3.068,20,10075,1000,meters,jsons/v1_VE1000_randls_27.json,1786634,2271211,36,Woman
103,145502,DepthScenes,duration_manipulation_targetAtFixation,jsons/v1_VE1000_randls_27.json,http://54.235.29.9/FacialAge/BNav_EC2/DepthDuration/v2_depth_duration_MTurk/v2_DepthDuration_HTML.html#27,27,1280,1024,1280,1024,8-22-2022,5-0-11,104,depth_duration_stimuli/001244_2014-06-17_16-47-45_260595134347_rgbf000030-resize_4/001244_2014-06-17_16-47-45_260595134347_rgbf000030-resize_4-target.png,1000,2.0425,25,7987,1000,meters,jsons/v1_VE1000_randls_27.json,1786634,2271211,36,Woman
104,145502,DepthScenes,duration_manipulation_targetAtFixation,jsons/v1_VE1000_randls_27.json,http://54.235.29.9/FacialAge/BNav_EC2/DepthDuration/v2_depth_duration_MTurk/v2_DepthDuration_HTML.html#27,27,1280,1024,1280,1024,8-22-2022,5-0-11,105,depth_duration_stimuli/003495_2014-05-21_16-01-51_094959634447_rgbf000100-resize_3/003495_2014-05-21_16-01-51_094959634447_rgbf000100-resize_3-target.png,1000,1.6255,20,8528,999,meters,jsons/v1_VE1000_randls_27.json,1786634,2271211,36,Woman
105,145502,DepthScenes,duration_manipulation_targetAtFixation,jsons/v1_VE1000_randls_27.json,http://54.235.29.9/FacialAge/BNav_EC2/DepthDuration/v2_depth_duration_MTurk/v2_DepthDuration_HTML.html#27,27,1280,1024,1280,1024,8-22-2022,5-0-11,106,depth_duration_stimuli/000368_2014-06-09_15-53-01_260595134347_rgbf000155-resize_2/000368_2014-06-09_15-53-01_260595134347_rgbf000155-resize_2-target.png,1000,2.4859999999999998,20,10474,1000,meters,jsons/v1_VE1000_randls_27.json,1786634,2271211,36,Woman
106,145502,DepthScenes,duration_manipulation_targetAtFixation,jsons/v1_VE1000_randls_27.json,http://54.235.29.9/FacialAge/BNav_EC2/DepthDuration/v2_depth_duration_MTurk/v2_DepthDuration_HTML.html#27,27,1280,1024,1280,1024,8-22-2022,5-0-11,107,depth_duration_stimuli/002678_2014-06-13_16-15-32_094959634447_rgbf000151-resize_6/002678_2014-06-13_16-15-32_094959634447_rgbf000151-resize_6-target.png,1000,2.1830000000000003,30,8689,1000,meters,jsons/v1_VE1000_randls_27.json,1786634,2271211,36,Woman
107,145502,DepthScenes,duration_manipulation_targetAtFixation,jsons/v1_VE1000_randls_27.json,http://54.235.29.9/FacialAge/BNav_EC2/DepthDuration/v2_depth_duration_MTurk/v2_DepthDuration_HTML.html#27,27,1280,1024,1280,1024,8-22-2022,5-0-11,108,depth_duration_stimuli/001066_2014-06-08_22-03-20_260595134347_rgbf000066-resize_4/001066_2014-06-08_22-03-20_260595134347_rgbf000066-resize_4-target.png,1000,4.2330000000000005,30,7852,999,meters,jsons/v1_VE1000_randls_27.json,1786634,2271211,36,Woman
108,145502,DepthScenes,duration_manipulation_targetAtFixation,jsons/v1_VE1000_randls_27.json,http://54.235.29.9/FacialAge/BNav_EC2/DepthDuration/v2_depth_duration_MTurk/v2_DepthDuration_HTML.html#27,27,1280,1024,1280,1024,8-22-2022,5-0-11,109,depth_duration_stimuli/000742_2014-06-08_18-48-09_260595134347_rgbf000164-resize_4/000742_2014-06-08_18-48-09_260595134347_rgbf000164-resize_4-target.png,1000,4.632,30,8245,1001,meters,jsons/v1_VE1000_randls_27.json,1786634,2271211,36,Woman
109,145502,DepthScenes,duration_manipulation_targetAtFixation,jsons/v1_VE1000_randls_27.json,http://54.235.29.9/FacialAge/BNav_EC2/DepthDuration/v2_depth_duration_MTurk/v2_DepthDuration_HTML.html#27,27,1280,1024,1280,1024,8-22-2022,5-0-11,110,depth_duration_stimuli/002630_2014-06-24_14-47-50_094959634447_rgbf000055-resize_1/002630_2014-06-24_14-47-50_094959634447_rgbf000055-resize_1-target.png,1000,3.0095,30,7835,999,meters,jsons/v1_VE1000_randls_27.json,1786634,2271211,36,Woman
110,145502,DepthScenes,duration_manipulation_targetAtFixation,jsons/v1_VE1000_randls_27.json,http://54.235.29.9/FacialAge/BNav_EC2/DepthDuration/v2_depth_duration_MTurk/v2_DepthDuration_HTML.html#27,27,1280,1024,1280,1024,8-22-2022,5-0-11,111,depth_duration_stimuli/002758_2014-06-22_19-11-20_094959634447_rgbf000128-resize_1/002758_2014-06-22_19-11-20_094959634447_rgbf000128-resize_1-target.png,1000,2.555,20,9448,1041,meters,jsons/v1_VE1000_randls_27.json,1786634,2271211,36,Woman
111,145502,DepthScenes,duration_manipulation_targetAtFixation,jsons/v1_VE1000_randls_27.json,http://54.235.29.9/FacialAge/BNav_EC2/DepthDuration/v2_depth_duration_MTurk/v2_DepthDuration_HTML.html#27,27,1280,1024,1280,1024,8-22-2022,5-0-11,112,depth_duration_stimuli/000736_2014-06-08_18-24-15_260595134347_rgbf000206-resize_3/000736_2014-06-08_18-24-15_260595134347_rgbf000206-resize_3-target.png,1000,3.515,20,9528,999,meters,jsons/v1_VE1000_randls_27.json,1786634,2271211,36,Woman
112,145502,DepthScenes,duration_manipulation_targetAtFixation,jsons/v1_VE1000_randls_27.json,http://54.235.29.9/FacialAge/BNav_EC2/DepthDuration/v2_depth_duration_MTurk/v2_DepthDuration_HTML.html#27,27,1280,1024,1280,1024,8-22-2022,5-0-11,113,depth_duration_stimuli/000137_2014-05-20_17-04-49_260595134347_rgbf000120-resize_1/000137_2014-05-20_17-04-49_260595134347_rgbf000120-resize_1-target.png,1000,3.786,30,8452,1022,meters,jsons/v1_VE1000_randls_27.json,1786634,2271211,36,Woman
113,145502,DepthScenes,duration_manipulation_targetAtFixation,jsons/v1_VE1000_randls_27.json,http://54.235.29.9/FacialAge/BNav_EC2/DepthDuration/v2_depth_duration_MTurk/v2_DepthDuration_HTML.html#27,27,1280,1024,1280,1024,8-22-2022,5-0-11,114,depth_duration_stimuli/002905_2014-06-03_18-04-43_094959634447_rgbf000151-resize_2/002905_2014-06-03_18-04-43_094959634447_rgbf000151-resize_2-target.png,1000,2.0295,20,9873,999,meters,jsons/v1_VE1000_randls_27.json,1786634,2271211,36,Woman
114,145502,DepthScenes,duration_manipulation_targetAtFixation,jsons/v1_VE1000_randls_27.json,http://54.235.29.9/FacialAge/BNav_EC2/DepthDuration/v2_depth_duration_MTurk/v2_DepthDuration_HTML.html#27,27,1280,1024,1280,1024,8-22-2022,5-0-11,115,depth_duration_stimuli/003423_2014-05-21_10-23-26_094959634447_rgbf002665-resize_2/003423_2014-05-21_10-23-26_094959634447_rgbf002665-resize_2-target.png,1000,3.2575,30,8595,1000,meters,jsons/v1_VE1000_randls_27.json,1786634,2271211,36,Woman
115,145502,DepthScenes,duration_manipulation_targetAtFixation,jsons/v1_VE1000_randls_27.json,http://54.235.29.9/FacialAge/BNav_EC2/DepthDuration/v2_depth_duration_MTurk/v2_DepthDuration_HTML.html#27,27,1280,1024,1280,1024,8-22-2022,5-0-11,116,depth_duration_stimuli/001170_2014-06-17_15-43-44_260595134347_rgbf000096-resize_6/001170_2014-06-17_15-43-44_260595134347_rgbf000096-resize-original.jpg,1000,1.1909999999999998,0,8914,1000,meters,jsons/v1_VE1000_randls_27.json,1786634,2271211,36,Woman
116,145502,DepthScenes,duration_manipulation_targetAtFixation,jsons/v1_VE1000_randls_27.json,http://54.235.29.9/FacialAge/BNav_EC2/DepthDuration/v2_depth_duration_MTurk/v2_DepthDuration_HTML.html#27,27,1280,1024,1280,1024,8-22-2022,5-0-11,117,depth_duration_stimuli/002445_2014-06-28_20-32-16_260595134347_rgbf000029-resize_4/002445_2014-06-28_20-32-16_260595134347_rgbf000029-resize_4-target.png,1000,2.5315,20,9453,999,meters,jsons/v1_VE1000_randls_27.json,1786634,2271211,36,Woman
117,145502,DepthScenes,duration_manipulation_targetAtFixation,jsons/v1_VE1000_randls_27.json,http://54.235.29.9/FacialAge/BNav_EC2/DepthDuration/v2_depth_duration_MTurk/v2_DepthDuration_HTML.html#27,27,1280,1024,1280,1024,8-22-2022,5-0-11,118,depth_duration_stimuli/000780_2014-06-08_22-28-29_260595134347_rgbf000126-resize_1/000780_2014-06-08_22-28-29_260595134347_rgbf000126-resize_1-target.png,1000,3.3825,30,8706,1002,meters,jsons/v1_VE1000_randls_27.json,1786634,2271211,36,Woman
118,145502,DepthScenes,duration_manipulation_targetAtFixation,jsons/v1_VE1000_randls_27.json,http://54.235.29.9/FacialAge/BNav_EC2/DepthDuration/v2_depth_duration_MTurk/v2_DepthDuration_HTML.html#27,27,1280,1024,1280,1024,8-22-2022,5-0-11,119,depth_duration_stimuli/002748_2014-06-22_19-07-22_094959634447_rgbf000078-resize_1/002748_2014-06-22_19-07-22_094959634447_rgbf000078-resize_1-target.png,1000,4.6705,30,9042,999,meters,jsons/v1_VE1000_randls_27.json,1786634,2271211,36,Woman
119,145502,DepthScenes,duration_manipulation_targetAtFixation,jsons/v1_VE1000_randls_27.json,http://54.235.29.9/FacialAge/BNav_EC2/DepthDuration/v2_depth_duration_MTurk/v2_DepthDuration_HTML.html#27,27,1280,1024,1280,1024,8-22-2022,5-0-11,120,depth_duration_stimuli/002995_2014-06-15_12-31-26_094959634447_rgbf000150-resize_1/002995_2014-06-15_12-31-26_094959634447_rgbf000150-resize_1-target.png,1000,3.8360000000000003,30,7410,1000,meters,jsons/v1_VE1000_randls_27.json,1786634,2271211,36,Woman
120,145502,DepthScenes,duration_manipulation_targetAtFixation,jsons/v1_VE1000_randls_27.json,http://54.235.29.9/FacialAge/BNav_EC2/DepthDuration/v2_depth_duration_MTurk/v2_DepthDuration_HTML.html#27,27,1280,1024,1280,1024,8-22-2022,5-0-11,121,depth_duration_stimuli/000009_2014-05-26_14-32-05_260595134347_rgbf000034-resize_3/000009_2014-05-26_14-32-05_260595134347_rgbf000034-resize_3-target.png,1000,3.8715,35,9195,999,meters,jsons/v1_VE1000_randls_27.json,1786634,2271211,36,Woman
121,145502,DepthScenes,duration_manipulation_targetAtFixation,jsons/v1_VE1000_randls_27.json,http://54.235.29.9/FacialAge/BNav_EC2/DepthDuration/v2_depth_duration_MTurk/v2_DepthDuration_HTML.html#27,27,1280,1024,1280,1024,8-22-2022,5-0-11,122,depth_duration_stimuli/001828_2014-06-26_21-40-03_260595134347_rgbf000024-resize_0/001828_2014-06-26_21-40-03_260595134347_rgbf000024-resize_0-target.png,1000,4.8260000000000005,30,8610,999,meters,jsons/v1_VE1000_randls_27.json,1786634,2271211,36,Woman
122,145502,DepthScenes,duration_manipulation_targetAtFixation,jsons/v1_VE1000_randls_27.json,http://54.235.29.9/FacialAge/BNav_EC2/DepthDuration/v2_depth_duration_MTurk/v2_DepthDuration_HTML.html#27,27,1280,1024,1280,1024,8-22-2022,5-0-11,123,depth_duration_stimuli/000493_2014-06-09_21-01-18_260595134347_rgbf000196-resize_3/000493_2014-06-09_21-01-18_260595134347_rgbf000196-resize_3-target.png,1000,3.44,30,9075,1001,meters,jsons/v1_VE1000_randls_27.json,1786634,2271211,36,Woman
123,145502,DepthScenes,duration_manipulation_targetAtFixation,jsons/v1_VE1000_randls_27.json,http://54.235.29.9/FacialAge/BNav_EC2/DepthDuration/v2_depth_duration_MTurk/v2_DepthDuration_HTML.html#27,27,1280,1024,1280,1024,8-22-2022,5-0-11,124,depth_duration_stimuli/000191_2014-05-12_17-07-38_260595134347_rgbf000199-resize_0/000191_2014-05-12_17-07-38_260595134347_rgbf000199-resize_0-target.png,1000,3.7995,30,10764,999,meters,jsons/v1_VE1000_randls_27.json,1786634,2271211,36,Woman
124,145502,DepthScenes,duration_manipulation_targetAtFixation,jsons/v1_VE1000_randls_27.json,http://54.235.29.9/FacialAge/BNav_EC2/DepthDuration/v2_depth_duration_MTurk/v2_DepthDuration_HTML.html#27,27,1280,1024,1280,1024,8-22-2022,5-0-11,125,depth_duration_stimuli/000414_2014-06-04_19-49-13_260595134347_rgbf000044-resize_0/000414_2014-06-04_19-49-13_260595134347_rgbf000044-resize_0-target.png,1000,4.329,30,8680,1000,meters,jsons/v1_VE1000_randls_27.json,1786634,2271211,36,Woman
125,145502,DepthScenes,duration_manipulation_targetAtFixation,jsons/v1_VE1000_randls_27.json,http://54.235.29.9/FacialAge/BNav_EC2/DepthDuration/v2_depth_duration_MTurk/v2_DepthDuration_HTML.html#27,27,1280,1024,1280,1024,8-22-2022,5-0-11,126,depth_duration_stimuli/003129_2014-05-12_10-48-10_094959634447_rgbf000100-resize_0/003129_2014-05-12_10-48-10_094959634447_rgbf000100-resize_0-target.png,1000,4.9305,30,8396,999,meters,jsons/v1_VE1000_randls_27.json,1786634,2271211,36,Woman
126,145502,DepthScenes,duration_manipulation_targetAtFixation,jsons/v1_VE1000_randls_27.json,http://54.235.29.9/FacialAge/BNav_EC2/DepthDuration/v2_depth_duration_MTurk/v2_DepthDuration_HTML.html#27,27,1280,1024,1280,1024,8-22-2022,5-0-11,127,depth_duration_stimuli/001164_2014-06-17_15-35-46_260595134347_rgbf000085-resize_3/001164_2014-06-17_15-35-46_260595134347_rgbf000085-resize_3-target.png,1000,2.354,30,8275,1000,meters,jsons/v1_VE1000_randls_27.json,1786634,2271211,36,Woman
127,145502,DepthScenes,duration_manipulation_targetAtFixation,jsons/v1_VE1000_randls_27.json,http://54.235.29.9/FacialAge/BNav_EC2/DepthDuration/v2_depth_duration_MTurk/v2_DepthDuration_HTML.html#27,27,1280,1024,1280,1024,8-22-2022,5-0-11,128,depth_duration_stimuli/001136_2014-06-17_15-19-41_260595134347_rgbf000076-resize_3/001136_2014-06-17_15-19-41_260595134347_rgbf000076-resize_3-target.png,1000,1.8655,30,8071,1000,meters,jsons/v1_VE1000_randls_27.json,1786634,2271211,36,Woman
128,145502,DepthScenes,duration_manipulation_targetAtFixation,jsons/v1_VE1000_randls_27.json,http://54.235.29.9/FacialAge/BNav_EC2/DepthDuration/v2_depth_duration_MTurk/v2_DepthDuration_HTML.html#27,27,1280,1024,1280,1024,8-22-2022,5-0-11,129,depth_duration_stimuli/001199_2014-06-17_16-03-48_260595134347_rgbf000077-resize_0/001199_2014-06-17_16-03-48_260595134347_rgbf000077-resize_0-target.png,1000,3.4375,30,8293,999,meters,jsons/v1_VE1000_randls_27.json,1786634,2271211,36,Woman
129,145502,DepthScenes,duration_manipulation_targetAtFixation,jsons/v1_VE1000_randls_27.json,http://54.235.29.9/FacialAge/BNav_EC2/DepthDuration/v2_depth_duration_MTurk/v2_DepthDuration_HTML.html#27,27,1280,1024,1280,1024,8-22-2022,5-0-11,130,depth_duration_stimuli/000502_2014-06-08_23-02-32_260595134347_rgbf000063-resize_4/000502_2014-06-08_23-02-32_260595134347_rgbf000063-resize_4-target.png,1000,2.431,20,9358,999,meters,jsons/v1_VE1000_randls_27.json,1786634,2271211,36,Woman
130,145502,DepthScenes,duration_manipulation_targetAtFixation,jsons/v1_VE1000_randls_27.json,http://54.235.29.9/FacialAge/BNav_EC2/DepthDuration/v2_depth_duration_MTurk/v2_DepthDuration_HTML.html#27,27,1280,1024,1280,1024,8-22-2022,5-0-11,131,depth_duration_stimuli/000436_2014-06-09_22-25-11_260595134347_rgbf000137-resize_1/000436_2014-06-09_22-25-11_260595134347_rgbf000137-resize_1-target.png,1000,4.0705,30,10629,1000,meters,jsons/v1_VE1000_randls_27.json,1786634,2271211,36,Woman
131,145502,DepthScenes,duration_manipulation_targetAtFixation,jsons/v1_VE1000_randls_27.json,http://54.235.29.9/FacialAge/BNav_EC2/DepthDuration/v2_depth_duration_MTurk/v2_DepthDuration_HTML.html#27,27,1280,1024,1280,1024,8-22-2022,5-0-11,132,depth_duration_stimuli/002444_2014-06-28_20-32-08_260595134347_rgbf000027-resize_0/002444_2014-06-28_20-32-08_260595134347_rgbf000027-resize_0-target.png,1000,4.388999999999999,30,7889,1000,meters,jsons/v1_VE1000_randls_27.json,1786634,2271211,36,Woman
132,145502,DepthScenes,duration_manipulation_targetAtFixation,jsons/v1_VE1000_randls_27.json,http://54.235.29.9/FacialAge/BNav_EC2/DepthDuration/v2_depth_duration_MTurk/v2_DepthDuration_HTML.html#27,27,1280,1024,1280,1024,8-22-2022,5-0-11,133,depth_duration_stimuli/000486_2014-06-09_20-47-20_260595134347_rgbf000143-resize_2/000486_2014-06-09_20-47-20_260595134347_rgbf000143-resize_2-target.png,1000,4.8325,25,8033,1000,meters,jsons/v1_VE1000_randls_27.json,1786634,2271211,36,Woman
133,145502,DepthScenes,duration_manipulation_targetAtFixation,jsons/v1_VE1000_randls_27.json,http://54.235.29.9/FacialAge/BNav_EC2/DepthDuration/v2_depth_duration_MTurk/v2_DepthDuration_HTML.html#27,27,1280,1024,1280,1024,8-22-2022,5-0-11,134,depth_duration_stimuli/003083_2014-06-15_15-21-03_094959634447_rgbf000063-resize_1/003083_2014-06-15_15-21-03_094959634447_rgbf000063-resize_1-target.png,1000,4.1405,30,10675,999,meters,jsons/v1_VE1000_randls_27.json,1786634,2271211,36,Woman
134,145502,DepthScenes,duration_manipulation_targetAtFixation,jsons/v1_VE1000_randls_27.json,http://54.235.29.9/FacialAge/BNav_EC2/DepthDuration/v2_depth_duration_MTurk/v2_DepthDuration_HTML.html#27,27,1280,1024,1280,1024,8-22-2022,5-0-11,135,depth_duration_stimuli/002072_2014-06-24_21-48-06_260595134347_rgbf000115-resize_0/002072_2014-06-24_21-48-06_260595134347_rgbf000115-resize-original.jpg,1000,4.702,0,8106,999,meters,jsons/v1_VE1000_randls_27.json,1786634,2271211,36,Woman
135,145502,DepthScenes,duration_manipulation_targetAtFixation,jsons/v1_VE1000_randls_27.json,http://54.235.29.9/FacialAge/BNav_EC2/DepthDuration/v2_depth_duration_MTurk/v2_DepthDuration_HTML.html#27,27,1280,1024,1280,1024,8-22-2022,5-0-11,136,depth_duration_stimuli/002549_2014-06-24_13-41-39_094959634447_rgbf000022-resize_3/002549_2014-06-24_13-41-39_094959634447_rgbf000022-resize_3-target.png,1000,1.476,20,7641,999,meters,jsons/v1_VE1000_randls_27.json,1786634,2271211,36,Woman
136,145502,DepthScenes,duration_manipulation_targetAtFixation,jsons/v1_VE1000_randls_27.json,http://54.235.29.9/FacialAge/BNav_EC2/DepthDuration/v2_depth_duration_MTurk/v2_DepthDuration_HTML.html#27,27,1280,1024,1280,1024,8-22-2022,5-0-11,137,depth_duration_stimuli/002750_2014-06-22_19-08-03_094959634447_rgbf000094-resize_4/002750_2014-06-22_19-08-03_094959634447_rgbf000094-resize_4-target.png,1000,2.354,25,7500,1000,meters,jsons/v1_VE1000_randls_27.json,1786634,2271211,36,Woman
137,145502,DepthScenes,duration_manipulation_targetAtFixation,jsons/v1_VE1000_randls_27.json,http://54.235.29.9/FacialAge/BNav_EC2/DepthDuration/v2_depth_duration_MTurk/v2_DepthDuration_HTML.html#27,27,1280,1024,1280,1024,8-22-2022,5-0-11,138,depth_duration_stimuli/003070_2014-06-15_14-58-27_094959634447_rgbf000150-resize_3/003070_2014-06-15_14-58-27_094959634447_rgbf000150-resize_3-target.png,1000,2.9415,30,7928,1000,meters,jsons/v1_VE1000_randls_27.json,1786634,2271211,36,Woman
138,145502,DepthScenes,duration_manipulation_targetAtFixation,jsons/v1_VE1000_randls_27.json,http://54.235.29.9/FacialAge/BNav_EC2/DepthDuration/v2_depth_duration_MTurk/v2_DepthDuration_HTML.html#27,27,1280,1024,1280,1024,8-22-2022,5-0-11,139,depth_duration_stimuli/000943_2014-06-09_19-31-07_260595134347_rgbf000128-resize_1/000943_2014-06-09_19-31-07_260595134347_rgbf000128-resize_1-target.png,1000,1.9765,25,10803,1001,meters,jsons/v1_VE1000_randls_27.json,1786634,2271211,36,Woman
139,145502,DepthScenes,duration_manipulation_targetAtFixation,jsons/v1_VE1000_randls_27.json,http://54.235.29.9/FacialAge/BNav_EC2/DepthDuration/v2_depth_duration_MTurk/v2_DepthDuration_HTML.html#27,27,1280,1024,1280,1024,8-22-2022,5-0-11,140,depth_duration_stimuli/001056_2014-06-08_18-46-44_260595134347_rgbf000068-resize_0/001056_2014-06-08_18-46-44_260595134347_rgbf000068-resize_0-target.png,1000,2.6625,25,7781,999,meters,jsons/v1_VE1000_randls_27.json,1786634,2271211,36,Woman
140,145502,DepthScenes,duration_manipulation_targetAtFixation,jsons/v1_VE1000_randls_27.json,http://54.235.29.9/FacialAge/BNav_EC2/DepthDuration/v2_depth_duration_MTurk/v2_DepthDuration_HTML.html#27,27,1280,1024,1280,1024,8-22-2022,5-0-11,141,depth_duration_stimuli/002199_2014-06-28_18-33-56_260595134347_rgbf000074-resize_0/002199_2014-06-28_18-33-56_260595134347_rgbf000074-resize_0-target.png,1000,1.996,20,7459,1000,meters,jsons/v1_VE1000_randls_27.json,1786634,2271211,36,Woman
141,145502,DepthScenes,duration_manipulation_targetAtFixation,jsons/v1_VE1000_randls_27.json,http://54.235.29.9/FacialAge/BNav_EC2/DepthDuration/v2_depth_duration_MTurk/v2_DepthDuration_HTML.html#27,27,1280,1024,1280,1024,8-22-2022,5-0-11,142,depth_duration_stimuli/000739_2014-06-08_18-45-58_260595134347_rgbf000068-resize_1/000739_2014-06-08_18-45-58_260595134347_rgbf000068-resize_1-target.png,1000,3.534,30,7472,1000,meters,jsons/v1_VE1000_randls_27.json,1786634,2271211,36,Woman
142,145502,DepthScenes,duration_manipulation_targetAtFixation,jsons/v1_VE1000_randls_27.json,http://54.235.29.9/FacialAge/BNav_EC2/DepthDuration/v2_depth_duration_MTurk/v2_DepthDuration_HTML.html#27,27,1280,1024,1280,1024,8-22-2022,5-0-11,143,depth_duration_stimuli/000734_2014-06-08_17-39-11_260595134347_rgbf000128-resize_2/000734_2014-06-08_17-39-11_260595134347_rgbf000128-resize_2-target.png,1000,4.098,25,7578,999,meters,jsons/v1_VE1000_randls_27.json,1786634,2271211,36,Woman
143,145502,DepthScenes,duration_manipulation_targetAtFixation,jsons/v1_VE1000_randls_27.json,http://54.235.29.9/FacialAge/BNav_EC2/DepthDuration/v2_depth_duration_MTurk/v2_DepthDuration_HTML.html#27,27,1280,1024,1280,1024,8-22-2022,5-0-11,144,depth_duration_stimuli/002570_2014-06-24_13-59-54_094959634447_rgbf000059-resize_0/002570_2014-06-24_13-59-54_094959634447_rgbf000059-resize_0-target.png,1000,4.037,25,7194,998,meters,jsons/v1_VE1000_randls_27.json,1786634,2271211,36,Woman
144,145502,DepthScenes,duration_manipulation_targetAtFixation,jsons/v1_VE1000_randls_27.json,http://54.235.29.9/FacialAge/BNav_EC2/DepthDuration/v2_depth_duration_MTurk/v2_DepthDuration_HTML.html#27,27,1280,1024,1280,1024,8-22-2022,5-0-11,145,depth_duration_stimuli/002467_2014-06-28_20-38-07_260595134347_rgbf000026-resize_2/002467_2014-06-28_20-38-07_260595134347_rgbf000026-resize_2-target.png,1000,4.742,30,8371,1001,meters,jsons/v1_VE1000_randls_27.json,1786634,2271211,36,Woman
145,145502,DepthScenes,duration_manipulation_targetAtFixation,jsons/v1_VE1000_randls_27.json,http://54.235.29.9/FacialAge/BNav_EC2/DepthDuration/v2_depth_duration_MTurk/v2_DepthDuration_HTML.html#27,27,1280,1024,1280,1024,8-22-2022,5-0-11,146,depth_duration_stimuli/001498_2014-06-19_17-45-14_260595134347_rgbf000129-resize_4/001498_2014-06-19_17-45-14_260595134347_rgbf000129-resize-original.jpg,1000,1.4075,0,8299,1000,meters,jsons/v1_VE1000_randls_27.json,1786634,2271211,36,Woman
146,145502,DepthScenes,duration_manipulation_targetAtFixation,jsons/v1_VE1000_randls_27.json,http://54.235.29.9/FacialAge/BNav_EC2/DepthDuration/v2_depth_duration_MTurk/v2_DepthDuration_HTML.html#27,27,1280,1024,1280,1024,8-22-2022,5-0-11,147,depth_duration_stimuli/003492_2014-05-21_15-50-55_094959634447_rgbf000828-resize_1/003492_2014-05-21_15-50-55_094959634447_rgbf000828-resize_1-target.png,1000,4.06875,30,8185,1000,meters,jsons/v1_VE1000_randls_27.json,1786634,2271211,36,Woman
147,145502,DepthScenes,duration_manipulation_targetAtFixation,jsons/v1_VE1000_randls_27.json,http://54.235.29.9/FacialAge/BNav_EC2/DepthDuration/v2_depth_duration_MTurk/v2_DepthDuration_HTML.html#27,27,1280,1024,1280,1024,8-22-2022,5-0-11,148,depth_duration_stimuli/002568_2014-06-24_13-59-21_094959634447_rgbf000062-resize_4/002568_2014-06-24_13-59-21_094959634447_rgbf000062-resize_4-target.png,1000,3.015,30,10845,1000,meters,jsons/v1_VE1000_randls_27.json,1786634,2271211,36,Woman
148,145502,DepthScenes,duration_manipulation_targetAtFixation,jsons/v1_VE1000_randls_27.json,http://54.235.29.9/FacialAge/BNav_EC2/DepthDuration/v2_depth_duration_MTurk/v2_DepthDuration_HTML.html#27,27,1280,1024,1280,1024,8-22-2022,5-0-11,149,depth_duration_stimuli/001011_2014-06-08_23-18-54_260595134347_rgbf000044-resize_4/001011_2014-06-08_23-18-54_260595134347_rgbf000044-resize_4-target.png,1000,2.4730000000000003,30,14439,1000,meters,jsons/v1_VE1000_randls_27.json,1786634,2271211,36,Woman
149,145502,DepthScenes,duration_manipulation_targetAtFixation,jsons/v1_VE1000_randls_27.json,http://54.235.29.9/FacialAge/BNav_EC2/DepthDuration/v2_depth_duration_MTurk/v2_DepthDuration_HTML.html#27,27,1280,1024,1280,1024,8-22-2022,5-0-11,150,depth_duration_stimuli/002875_2014-06-01_15-19-00_094959634447_rgbf000151-resize_1/002875_2014-06-01_15-19-00_094959634447_rgbf000151-resize_1-target.png,1000,1.9675,20,9155,1000,meters,jsons/v1_VE1000_randls_27.json,1786634,2271211,36,Woman
150,145502,DepthScenes,duration_manipulation_targetAtFixation,jsons/v1_VE1000_randls_27.json,http://54.235.29.9/FacialAge/BNav_EC2/DepthDuration/v2_depth_duration_MTurk/v2_DepthDuration_HTML.html#27,27,1280,1024,1280,1024,8-22-2022,5-0-11,151,depth_duration_stimuli/000642_2014-06-08_16-59-25_260595134347_rgbf000098-resize_2/000642_2014-06-08_16-59-25_260595134347_rgbf000098-resize_2-target.png,1000,2.8815,20,27179,999,meters,jsons/v1_VE1000_randls_27.json,1786634,2271211,36,Woman
151,145502,DepthScenes,duration_manipulation_targetAtFixation,jsons/v1_VE1000_randls_27.json,http://54.235.29.9/FacialAge/BNav_EC2/DepthDuration/v2_depth_duration_MTurk/v2_DepthDuration_HTML.html#27,27,1280,1024,1280,1024,8-22-2022,5-0-11,152,depth_duration_stimuli/002425_2014-06-28_20-27-29_260595134347_rgbf000031-resize_8/002425_2014-06-28_20-27-29_260595134347_rgbf000031-resize_8-target.png,1000,3.8960000000000004,30,7840,1001,meters,jsons/v1_VE1000_randls_27.json,1786634,2271211,36,Woman
152,145502,DepthScenes,duration_manipulation_targetAtFixation,jsons/v1_VE1000_randls_27.json,http://54.235.29.9/FacialAge/BNav_EC2/DepthDuration/v2_depth_duration_MTurk/v2_DepthDuration_HTML.html#27,27,1280,1024,1280,1024,8-22-2022,5-0-11,153,depth_duration_stimuli/002153_2014-06-25_21-27-18_260595134347_rgbf000038-resize_5/002153_2014-06-25_21-27-18_260595134347_rgbf000038-resize_5-target.png,1000,2.505,20,7427,1001,meters,jsons/v1_VE1000_randls_27.json,1786634,2271211,36,Woman
153,145502,DepthScenes,duration_manipulation_targetAtFixation,jsons/v1_VE1000_randls_27.json,http://54.235.29.9/FacialAge/BNav_EC2/DepthDuration/v2_depth_duration_MTurk/v2_DepthDuration_HTML.html#27,27,1280,1024,1280,1024,8-22-2022,5-0-11,154,depth_duration_stimuli/002660_2014-06-13_15-44-18_094959634447_rgbf001878-resize_2/002660_2014-06-13_15-44-18_094959634447_rgbf001878-resize_2-target.png,1000,3.576,20,8323,999,meters,jsons/v1_VE1000_randls_27.json,1786634,2271211,36,Woman
154,145502,DepthScenes,duration_manipulation_targetAtFixation,jsons/v1_VE1000_randls_27.json,http://54.235.29.9/FacialAge/BNav_EC2/DepthDuration/v2_depth_duration_MTurk/v2_DepthDuration_HTML.html#27,27,1280,1024,1280,1024,8-22-2022,5-0-11,155,depth_duration_stimuli/002989_2014-06-15_12-25-03_094959634447_rgbf000150-resize_3/002989_2014-06-15_12-25-03_094959634447_rgbf000150-resize_3-target.png,1000,4.1975,25,61304,1000,meters,jsons/v1_VE1000_randls_27.json,1786634,2271211,36,Woman
155,145502,DepthScenes,duration_manipulation_targetAtFixation,jsons/v1_VE1000_randls_27.json,http://54.235.29.9/FacialAge/BNav_EC2/DepthDuration/v2_depth_duration_MTurk/v2_DepthDuration_HTML.html#27,27,1280,1024,1280,1024,8-22-2022,5-0-11,156,depth_duration_stimuli/000866_2014-06-09_20-45-42_260595134347_rgbf000139-resize_1/000866_2014-06-09_20-45-42_260595134347_rgbf000139-resize_1-target.png,1000,3.2155,30,8457,999,meters,jsons/v1_VE1000_randls_27.json,1786634,2271211,36,Woman
156,145502,DepthScenes,duration_manipulation_targetAtFixation,jsons/v1_VE1000_randls_27.json,http://54.235.29.9/FacialAge/BNav_EC2/DepthDuration/v2_depth_duration_MTurk/v2_DepthDuration_HTML.html#27,27,1280,1024,1280,1024,8-22-2022,5-0-11,157,depth_duration_stimuli/002763_2014-06-22_19-13-10_094959634447_rgbf000075-resize_4/002763_2014-06-22_19-13-10_094959634447_rgbf000075-resize_4-target.png,1000,1.68375,25,9185,990,meters,jsons/v1_VE1000_randls_27.json,1786634,2271211,36,Woman
157,145502,DepthScenes,duration_manipulation_targetAtFixation,jsons/v1_VE1000_randls_27.json,http://54.235.29.9/FacialAge/BNav_EC2/DepthDuration/v2_depth_duration_MTurk/v2_DepthDuration_HTML.html#27,27,1280,1024,1280,1024,8-22-2022,5-0-11,158,depth_duration_stimuli/002209_2014-06-28_18-36-10_260595134347_rgbf000051-resize_1/002209_2014-06-28_18-36-10_260595134347_rgbf000051-resize_1-target.png,1000,2.057,20,60646,1001,meters,jsons/v1_VE1000_randls_27.json,1786634,2271211,36,Woman
158,145502,DepthScenes,duration_manipulation_targetAtFixation,jsons/v1_VE1000_randls_27.json,http://54.235.29.9/FacialAge/BNav_EC2/DepthDuration/v2_depth_duration_MTurk/v2_DepthDuration_HTML.html#27,27,1280,1024,1280,1024,8-22-2022,5-0-11,159,depth_duration_stimuli/000692_2014-06-08_13-09-42_260595134347_rgbf000199-resize_2/000692_2014-06-08_13-09-42_260595134347_rgbf000199-resize_2-target.png,1000,3.661,30,9549,999,meters,jsons/v1_VE1000_randls_27.json,1786634,2271211,36,Woman
159,145502,DepthScenes,duration_manipulation_targetAtFixation,jsons/v1_VE1000_randls_27.json,http://54.235.29.9/FacialAge/BNav_EC2/DepthDuration/v2_depth_duration_MTurk/v2_DepthDuration_HTML.html#27,27,1280,1024,1280,1024,8-22-2022,5-0-11,160,depth_duration_stimuli/001094_2014-06-15_17-36-00_260595134347_rgbf000205-resize_0/001094_2014-06-15_17-36-00_260595134347_rgbf000205-resize_0-target.png,1000,4.2175,30,8103,1002,meters,jsons/v1_VE1000_randls_27.json,1786634,2271211,36,Woman
160,145502,DepthScenes,duration_manipulation_targetAtFixation,jsons/v1_VE1000_randls_27.json,http://54.235.29.9/FacialAge/BNav_EC2/DepthDuration/v2_depth_duration_MTurk/v2_DepthDuration_HTML.html#27,27,1280,1024,1280,1024,8-22-2022,5-0-11,161,depth_duration_stimuli/001417_2014-06-19_16-25-36_260595134347_rgbf000115-resize_5/001417_2014-06-19_16-25-36_260595134347_rgbf000115-resize_5-target.png,1000,4.6255,30,7998,1000,meters,jsons/v1_VE1000_randls_27.json,1786634,2271211,36,Woman
161,145502,DepthScenes,duration_manipulation_targetAtFixation,jsons/v1_VE1000_randls_27.json,http://54.235.29.9/FacialAge/BNav_EC2/DepthDuration/v2_depth_duration_MTurk/v2_DepthDuration_HTML.html#27,27,1280,1024,1280,1024,8-22-2022,5-0-11,162,depth_duration_stimuli/003081_2014-06-15_15-19-16_094959634447_rgbf000150-resize_1/003081_2014-06-15_15-19-16_094959634447_rgbf000150-resize_1-target.png,1000,3.9125,25,7217,999,meters,jsons/v1_VE1000_randls_27.json,1786634,2271211,36,Woman
162,145502,DepthScenes,duration_manipulation_targetAtFixation,jsons/v1_VE1000_randls_27.json,http://54.235.29.9/FacialAge/BNav_EC2/DepthDuration/v2_depth_duration_MTurk/v2_DepthDuration_HTML.html#27,27,1280,1024,1280,1024,8-22-2022,5-0-11,163,depth_duration_stimuli/000506_2014-06-08_23-21-00_260595134347_rgbf000070-resize_7/000506_2014-06-08_23-21-00_260595134347_rgbf000070-resize_7-target.png,1000,4.0585,30,70410,1000,meters,jsons/v1_VE1000_randls_27.json,1786634,2271211,36,Woman
163,145502,DepthScenes,duration_manipulation_targetAtFixation,jsons/v1_VE1000_randls_27.json,http://54.235.29.9/FacialAge/BNav_EC2/DepthDuration/v2_depth_duration_MTurk/v2_DepthDuration_HTML.html#27,27,1280,1024,1280,1024,8-22-2022,5-0-11,164,depth_duration_stimuli/003079_2014-06-15_15-18-20_094959634447_rgbf000152-resize_8/003079_2014-06-15_15-18-20_094959634447_rgbf000152-resize_8-target.png,1000,2.8775,30,7054,1000,meters,jsons/v1_VE1000_randls_27.json,1786634,2271211,36,Woman
