,subjID,experimentName,versionName,sequenceName,url,selected_row,windowWidth,windowHeight,screenWidth,screenHeight,startDate,startTime,trial,stimulus,duration,actual_depth,depth_estimate,trial_RT,log_sceneDuration,unitSelection,seq_filepath,experimentTime,totalTime,age,gender
0,146015,DepthScenes,duration_manipulation_targetAtFixation,jsons/VE125_randls_76.json,http://54.235.29.9/FacialAge/BNav_EC2/DepthDuration/v2_depth_duration_MTurk/v2_DepthDuration_HTML.html#413,413,1364,625,1364,768,9-4-2022,11-16-27,1,depth_duration_stimuli/002905_2014-06-03_18-04-43_094959634447_rgbf000151-resize_2/002905_2014-06-03_18-04-43_094959634447_rgbf000151-resize_2-target.png,125,2.0295,0.0,12751,122,meters,jsons/VE125_randls_76.json,2255386,2851768,46,Man
1,146015,DepthScenes,duration_manipulation_targetAtFixation,jsons/VE125_randls_76.json,http://54.235.29.9/FacialAge/BNav_EC2/DepthDuration/v2_depth_duration_MTurk/v2_DepthDuration_HTML.html#413,413,1364,625,1364,768,9-4-2022,11-16-27,2,depth_duration_stimuli/003423_2014-05-21_10-23-26_094959634447_rgbf002665-resize_2/003423_2014-05-21_10-23-26_094959634447_rgbf002665-resize_2-target.png,125,3.2575,1.0,3754,124,meters,jsons/VE125_randls_76.json,2255386,2851768,46,Man
2,146015,DepthScenes,duration_manipulation_targetAtFixation,jsons/VE125_randls_76.json,http://54.235.29.9/FacialAge/BNav_EC2/DepthDuration/v2_depth_duration_MTurk/v2_DepthDuration_HTML.html#413,413,1364,625,1364,768,9-4-2022,11-16-27,3,depth_duration_stimuli/002989_2014-06-15_12-25-03_094959634447_rgbf000150-resize_3/002989_2014-06-15_12-25-03_094959634447_rgbf000150-resize_3-target.png,125,4.1975,1.5,18370,122,meters,jsons/VE125_randls_76.json,2255386,2851768,46,Man
3,146015,DepthScenes,duration_manipulation_targetAtFixation,jsons/VE125_randls_76.json,http://54.235.29.9/FacialAge/BNav_EC2/DepthDuration/v2_depth_duration_MTurk/v2_DepthDuration_HTML.html#413,413,1364,625,1364,768,9-4-2022,11-16-27,4,depth_duration_stimuli/000866_2014-06-09_20-45-42_260595134347_rgbf000139-resize_1/000866_2014-06-09_20-45-42_260595134347_rgbf000139-resize_1-target.png,125,3.2155,4.0,7347,125,meters,jsons/VE125_randls_76.json,2255386,2851768,46,Man
4,146015,DepthScenes,duration_manipulation_targetAtFixation,jsons/VE125_randls_76.json,http://54.235.29.9/FacialAge/BNav_EC2/DepthDuration/v2_depth_duration_MTurk/v2_DepthDuration_HTML.html#413,413,1364,625,1364,768,9-4-2022,11-16-27,5,depth_duration_stimuli/002725_2014-06-22_11-47-51_094959634447_rgbf000070-resize_1/002725_2014-06-22_11-47-51_094959634447_rgbf000070-resize_1-target.png,125,2.195,4.0,13739,112,meters,jsons/VE125_randls_76.json,2255386,2851768,46,Man
5,146015,DepthScenes,duration_manipulation_targetAtFixation,jsons/VE125_randls_76.json,http://54.235.29.9/FacialAge/BNav_EC2/DepthDuration/v2_depth_duration_MTurk/v2_DepthDuration_HTML.html#413,413,1364,625,1364,768,9-4-2022,11-16-27,6,depth_duration_stimuli/002344_2014-06-28_20-06-29_260595134347_rgbf000030-resize_1/002344_2014-06-28_20-06-29_260595134347_rgbf000030-resize_1-target.png,125,1.5795,0.0,5486,125,meters,jsons/VE125_randls_76.json,2255386,2851768,46,Man
6,146015,DepthScenes,duration_manipulation_targetAtFixation,jsons/VE125_randls_76.json,http://54.235.29.9/FacialAge/BNav_EC2/DepthDuration/v2_depth_duration_MTurk/v2_DepthDuration_HTML.html#413,413,1364,625,1364,768,9-4-2022,11-16-27,7,depth_duration_stimuli/001158_2014-06-17_15-32-16_260595134347_rgbf000138-resize_2/001158_2014-06-17_15-32-16_260595134347_rgbf000138-resize_2-target.png,125,4.5315,3.0,9928,124,meters,jsons/VE125_randls_76.json,2255386,2851768,46,Man
7,146015,DepthScenes,duration_manipulation_targetAtFixation,jsons/VE125_randls_76.json,http://54.235.29.9/FacialAge/BNav_EC2/DepthDuration/v2_depth_duration_MTurk/v2_DepthDuration_HTML.html#413,413,1364,625,1364,768,9-4-2022,11-16-27,8,depth_duration_stimuli/000556_2014-06-09_22-42-56_260595134347_rgbf000214-resize_1/000556_2014-06-09_22-42-56_260595134347_rgbf000214-resize_1-target.png,125,4.8415,0.0,4094,124,meters,jsons/VE125_randls_76.json,2255386,2851768,46,Man
8,146015,DepthScenes,duration_manipulation_targetAtFixation,jsons/VE125_randls_76.json,http://54.235.29.9/FacialAge/BNav_EC2/DepthDuration/v2_depth_duration_MTurk/v2_DepthDuration_HTML.html#413,413,1364,625,1364,768,9-4-2022,11-16-27,9,depth_duration_stimuli/000917_2014-06-09_22-45-29_260595134347_rgbf000149-resize_3/000917_2014-06-09_22-45-29_260595134347_rgbf000149-resize_3-target.png,125,4.1865,4.0,7435,128,meters,jsons/VE125_randls_76.json,2255386,2851768,46,Man
9,146015,DepthScenes,duration_manipulation_targetAtFixation,jsons/VE125_randls_76.json,http://54.235.29.9/FacialAge/BNav_EC2/DepthDuration/v2_depth_duration_MTurk/v2_DepthDuration_HTML.html#413,413,1364,625,1364,768,9-4-2022,11-16-27,10,depth_duration_stimuli/002323_2014-06-28_20-01-54_260595134347_rgbf000051-resize_4/002323_2014-06-28_20-01-54_260595134347_rgbf000051-resize_4-target.png,125,3.7310000000000003,4.0,4427,125,meters,jsons/VE125_randls_76.json,2255386,2851768,46,Man
10,146015,DepthScenes,duration_manipulation_targetAtFixation,jsons/VE125_randls_76.json,http://54.235.29.9/FacialAge/BNav_EC2/DepthDuration/v2_depth_duration_MTurk/v2_DepthDuration_HTML.html#413,413,1364,625,1364,768,9-4-2022,11-16-27,11,depth_duration_stimuli/000878_2014-06-08_22-52-45_260595134347_rgbf000045-resize_2/000878_2014-06-08_22-52-45_260595134347_rgbf000045-resize_2-target.png,125,2.092,5.0,7685,124,meters,jsons/VE125_randls_76.json,2255386,2851768,46,Man
11,146015,DepthScenes,duration_manipulation_targetAtFixation,jsons/VE125_randls_76.json,http://54.235.29.9/FacialAge/BNav_EC2/DepthDuration/v2_depth_duration_MTurk/v2_DepthDuration_HTML.html#413,413,1364,625,1364,768,9-4-2022,11-16-27,12,depth_duration_stimuli/002953_2014-06-08_17-32-18_094959634447_rgbf000059-resize_5/002953_2014-06-08_17-32-18_094959634447_rgbf000059-resize_5-target.png,125,1.551,3.0,6600,124,meters,jsons/VE125_randls_76.json,2255386,2851768,46,Man
12,146015,DepthScenes,duration_manipulation_targetAtFixation,jsons/VE125_randls_76.json,http://54.235.29.9/FacialAge/BNav_EC2/DepthDuration/v2_depth_duration_MTurk/v2_DepthDuration_HTML.html#413,413,1364,625,1364,768,9-4-2022,11-16-27,13,depth_duration_stimuli/000569_2014-06-09_22-51-47_260595134347_rgbf000141-resize_3/000569_2014-06-09_22-51-47_260595134347_rgbf000141-resize-original.jpg,125,4.512,0.0,14836,124,meters,jsons/VE125_randls_76.json,2255386,2851768,46,Man
13,146015,DepthScenes,duration_manipulation_targetAtFixation,jsons/VE125_randls_76.json,http://54.235.29.9/FacialAge/BNav_EC2/DepthDuration/v2_depth_duration_MTurk/v2_DepthDuration_HTML.html#413,413,1364,625,1364,768,9-4-2022,11-16-27,14,depth_duration_stimuli/001029_2014-06-08_13-17-57_260595134347_rgbf000065-resize_1/001029_2014-06-08_13-17-57_260595134347_rgbf000065-resize_1-target.png,125,3.0835,4.0,21155,128,meters,jsons/VE125_randls_76.json,2255386,2851768,46,Man
14,146015,DepthScenes,duration_manipulation_targetAtFixation,jsons/VE125_randls_76.json,http://54.235.29.9/FacialAge/BNav_EC2/DepthDuration/v2_depth_duration_MTurk/v2_DepthDuration_HTML.html#413,413,1364,625,1364,768,9-4-2022,11-16-27,15,depth_duration_stimuli/000677_2014-06-08_23-10-32_260595134347_rgbf000158-resize_6/000677_2014-06-08_23-10-32_260595134347_rgbf000158-resize_6-target.png,125,3.556,0.0,3931,124,meters,jsons/VE125_randls_76.json,2255386,2851768,46,Man
15,146015,DepthScenes,duration_manipulation_targetAtFixation,jsons/VE125_randls_76.json,http://54.235.29.9/FacialAge/BNav_EC2/DepthDuration/v2_depth_duration_MTurk/v2_DepthDuration_HTML.html#413,413,1364,625,1364,768,9-4-2022,11-16-27,16,depth_duration_stimuli/002043_2014-06-24_20-29-38_260595134347_rgbf000039-resize_4/002043_2014-06-24_20-29-38_260595134347_rgbf000039-resize_4-target.png,125,2.8435,3.0,7474,124,meters,jsons/VE125_randls_76.json,2255386,2851768,46,Man
16,146015,DepthScenes,duration_manipulation_targetAtFixation,jsons/VE125_randls_76.json,http://54.235.29.9/FacialAge/BNav_EC2/DepthDuration/v2_depth_duration_MTurk/v2_DepthDuration_HTML.html#413,413,1364,625,1364,768,9-4-2022,11-16-27,17,depth_duration_stimuli/003048_2014-06-15_13-49-43_094959634447_rgbf000150-resize_1/003048_2014-06-15_13-49-43_094959634447_rgbf000150-resize_1-target.png,125,4.0035,5.0,7076,124,meters,jsons/VE125_randls_76.json,2255386,2851768,46,Man
17,146015,DepthScenes,duration_manipulation_targetAtFixation,jsons/VE125_randls_76.json,http://54.235.29.9/FacialAge/BNav_EC2/DepthDuration/v2_depth_duration_MTurk/v2_DepthDuration_HTML.html#413,413,1364,625,1364,768,9-4-2022,11-16-27,18,depth_duration_stimuli/001066_2014-06-08_22-03-20_260595134347_rgbf000066-resize_4/001066_2014-06-08_22-03-20_260595134347_rgbf000066-resize_4-target.png,125,4.2330000000000005,4.0,58945,124,meters,jsons/VE125_randls_76.json,2255386,2851768,46,Man
18,146015,DepthScenes,duration_manipulation_targetAtFixation,jsons/VE125_randls_76.json,http://54.235.29.9/FacialAge/BNav_EC2/DepthDuration/v2_depth_duration_MTurk/v2_DepthDuration_HTML.html#413,413,1364,625,1364,768,9-4-2022,11-16-27,19,depth_duration_stimuli/000742_2014-06-08_18-48-09_260595134347_rgbf000164-resize_4/000742_2014-06-08_18-48-09_260595134347_rgbf000164-resize_4-target.png,125,4.632,3.0,23435,125,meters,jsons/VE125_randls_76.json,2255386,2851768,46,Man
19,146015,DepthScenes,duration_manipulation_targetAtFixation,jsons/VE125_randls_76.json,http://54.235.29.9/FacialAge/BNav_EC2/DepthDuration/v2_depth_duration_MTurk/v2_DepthDuration_HTML.html#413,413,1364,625,1364,768,9-4-2022,11-16-27,20,depth_duration_stimuli/000368_2014-06-09_15-53-01_260595134347_rgbf000155-resize_2/000368_2014-06-09_15-53-01_260595134347_rgbf000155-resize_2-target.png,125,2.4859999999999998,0.0,6847,127,meters,jsons/VE125_randls_76.json,2255386,2851768,46,Man
20,146015,DepthScenes,duration_manipulation_targetAtFixation,jsons/VE125_randls_76.json,http://54.235.29.9/FacialAge/BNav_EC2/DepthDuration/v2_depth_duration_MTurk/v2_DepthDuration_HTML.html#413,413,1364,625,1364,768,9-4-2022,11-16-27,21,depth_duration_stimuli/002678_2014-06-13_16-15-32_094959634447_rgbf000151-resize_6/002678_2014-06-13_16-15-32_094959634447_rgbf000151-resize_6-target.png,125,2.1830000000000003,3.0,5845,111,meters,jsons/VE125_randls_76.json,2255386,2851768,46,Man
21,146015,DepthScenes,duration_manipulation_targetAtFixation,jsons/VE125_randls_76.json,http://54.235.29.9/FacialAge/BNav_EC2/DepthDuration/v2_depth_duration_MTurk/v2_DepthDuration_HTML.html#413,413,1364,625,1364,768,9-4-2022,11-16-27,22,depth_duration_stimuli/002549_2014-06-24_13-41-39_094959634447_rgbf000022-resize_3/002549_2014-06-24_13-41-39_094959634447_rgbf000022-resize_3-target.png,125,1.476,3.0,33806,125,meters,jsons/VE125_randls_76.json,2255386,2851768,46,Man
22,146015,DepthScenes,duration_manipulation_targetAtFixation,jsons/VE125_randls_76.json,http://54.235.29.9/FacialAge/BNav_EC2/DepthDuration/v2_depth_duration_MTurk/v2_DepthDuration_HTML.html#413,413,1364,625,1364,768,9-4-2022,11-16-27,23,depth_duration_stimuli/002750_2014-06-22_19-08-03_094959634447_rgbf000094-resize_4/002750_2014-06-22_19-08-03_094959634447_rgbf000094-resize_4-target.png,125,2.354,4.5,5540,116,meters,jsons/VE125_randls_76.json,2255386,2851768,46,Man
23,146015,DepthScenes,duration_manipulation_targetAtFixation,jsons/VE125_randls_76.json,http://54.235.29.9/FacialAge/BNav_EC2/DepthDuration/v2_depth_duration_MTurk/v2_DepthDuration_HTML.html#413,413,1364,625,1364,768,9-4-2022,11-16-27,24,depth_duration_stimuli/003070_2014-06-15_14-58-27_094959634447_rgbf000150-resize_3/003070_2014-06-15_14-58-27_094959634447_rgbf000150-resize_3-target.png,125,2.9415,2.0,3911,127,meters,jsons/VE125_randls_76.json,2255386,2851768,46,Man
24,146015,DepthScenes,duration_manipulation_targetAtFixation,jsons/VE125_randls_76.json,http://54.235.29.9/FacialAge/BNav_EC2/DepthDuration/v2_depth_duration_MTurk/v2_DepthDuration_HTML.html#413,413,1364,625,1364,768,9-4-2022,11-16-27,25,depth_duration_stimuli/000943_2014-06-09_19-31-07_260595134347_rgbf000128-resize_1/000943_2014-06-09_19-31-07_260595134347_rgbf000128-resize_1-target.png,125,1.9765,3.0,5104,125,meters,jsons/VE125_randls_76.json,2255386,2851768,46,Man
25,146015,DepthScenes,duration_manipulation_targetAtFixation,jsons/VE125_randls_76.json,http://54.235.29.9/FacialAge/BNav_EC2/DepthDuration/v2_depth_duration_MTurk/v2_DepthDuration_HTML.html#413,413,1364,625,1364,768,9-4-2022,11-16-27,26,depth_duration_stimuli/000929_2014-06-09_16-33-19_260595134347_rgbf000139-resize_0/000929_2014-06-09_16-33-19_260595134347_rgbf000139-resize_0-target.png,125,2.8680000000000003,2.0,25930,115,meters,jsons/VE125_randls_76.json,2255386,2851768,46,Man
26,146015,DepthScenes,duration_manipulation_targetAtFixation,jsons/VE125_randls_76.json,http://54.235.29.9/FacialAge/BNav_EC2/DepthDuration/v2_depth_duration_MTurk/v2_DepthDuration_HTML.html#413,413,1364,625,1364,768,9-4-2022,11-16-27,27,depth_duration_stimuli/000457_2014-06-08_16-52-43_260595134347_rgbf000199-resize_1/000457_2014-06-08_16-52-43_260595134347_rgbf000199-resize_1-target.png,125,3.6489999999999996,0.0,4481,114,meters,jsons/VE125_randls_76.json,2255386,2851768,46,Man
27,146015,DepthScenes,duration_manipulation_targetAtFixation,jsons/VE125_randls_76.json,http://54.235.29.9/FacialAge/BNav_EC2/DepthDuration/v2_depth_duration_MTurk/v2_DepthDuration_HTML.html#413,413,1364,625,1364,768,9-4-2022,11-16-27,28,depth_duration_stimuli/002600_2014-06-24_14-27-04_094959634447_rgbf000074-resize_2/002600_2014-06-24_14-27-04_094959634447_rgbf000074-resize_2-target.png,125,2.7575,1.0,6905,125,meters,jsons/VE125_randls_76.json,2255386,2851768,46,Man
28,146015,DepthScenes,duration_manipulation_targetAtFixation,jsons/VE125_randls_76.json,http://54.235.29.9/FacialAge/BNav_EC2/DepthDuration/v2_depth_duration_MTurk/v2_DepthDuration_HTML.html#413,413,1364,625,1364,768,9-4-2022,11-16-27,29,depth_duration_stimuli/003228_2014-05-14_13-42-35_094959634447_rgbf000101-resize_1/003228_2014-05-14_13-42-35_094959634447_rgbf000101-resize_1-target.png,125,1.9680000000000002,1.5,5226,109,meters,jsons/VE125_randls_76.json,2255386,2851768,46,Man
29,146015,DepthScenes,duration_manipulation_targetAtFixation,jsons/VE125_randls_76.json,http://54.235.29.9/FacialAge/BNav_EC2/DepthDuration/v2_depth_duration_MTurk/v2_DepthDuration_HTML.html#413,413,1364,625,1364,768,9-4-2022,11-16-27,30,depth_duration_stimuli/000375_2014-06-08_11-17-29_260595134347_rgbf000133-resize_2/000375_2014-06-08_11-17-29_260595134347_rgbf000133-resize-original.jpg,125,4.718,0.0,89200,129,meters,jsons/VE125_randls_76.json,2255386,2851768,46,Man
30,146015,DepthScenes,duration_manipulation_targetAtFixation,jsons/VE125_randls_76.json,http://54.235.29.9/FacialAge/BNav_EC2/DepthDuration/v2_depth_duration_MTurk/v2_DepthDuration_HTML.html#413,413,1364,625,1364,768,9-4-2022,11-16-27,31,depth_duration_stimuli/001199_2014-06-17_16-03-48_260595134347_rgbf000077-resize_0/001199_2014-06-17_16-03-48_260595134347_rgbf000077-resize_0-target.png,125,3.4375,2.5,10888,124,meters,jsons/VE125_randls_76.json,2255386,2851768,46,Man
31,146015,DepthScenes,duration_manipulation_targetAtFixation,jsons/VE125_randls_76.json,http://54.235.29.9/FacialAge/BNav_EC2/DepthDuration/v2_depth_duration_MTurk/v2_DepthDuration_HTML.html#413,413,1364,625,1364,768,9-4-2022,11-16-27,32,depth_duration_stimuli/000502_2014-06-08_23-02-32_260595134347_rgbf000063-resize_4/000502_2014-06-08_23-02-32_260595134347_rgbf000063-resize_4-target.png,125,2.431,0.0,50012,114,meters,jsons/VE125_randls_76.json,2255386,2851768,46,Man
32,146015,DepthScenes,duration_manipulation_targetAtFixation,jsons/VE125_randls_76.json,http://54.235.29.9/FacialAge/BNav_EC2/DepthDuration/v2_depth_duration_MTurk/v2_DepthDuration_HTML.html#413,413,1364,625,1364,768,9-4-2022,11-16-27,33,depth_duration_stimuli/000486_2014-06-09_20-47-20_260595134347_rgbf000143-resize_2/000486_2014-06-09_20-47-20_260595134347_rgbf000143-resize_2-target.png,125,4.8325,0.0,12648,112,meters,jsons/VE125_randls_76.json,2255386,2851768,46,Man
33,146015,DepthScenes,duration_manipulation_targetAtFixation,jsons/VE125_randls_76.json,http://54.235.29.9/FacialAge/BNav_EC2/DepthDuration/v2_depth_duration_MTurk/v2_DepthDuration_HTML.html#413,413,1364,625,1364,768,9-4-2022,11-16-27,34,depth_duration_stimuli/003083_2014-06-15_15-21-03_094959634447_rgbf000063-resize_1/003083_2014-06-15_15-21-03_094959634447_rgbf000063-resize_1-target.png,125,4.1405,1.0,23162,131,meters,jsons/VE125_randls_76.json,2255386,2851768,46,Man
34,146015,DepthScenes,duration_manipulation_targetAtFixation,jsons/VE125_randls_76.json,http://54.235.29.9/FacialAge/BNav_EC2/DepthDuration/v2_depth_duration_MTurk/v2_DepthDuration_HTML.html#413,413,1364,625,1364,768,9-4-2022,11-16-27,35,depth_duration_stimuli/001167_2014-06-17_15-38-07_260595134347_rgbf000108-resize_0/001167_2014-06-17_15-38-07_260595134347_rgbf000108-resize_0-target.png,125,1.8505,2.0,10853,112,meters,jsons/VE125_randls_76.json,2255386,2851768,46,Man
35,146015,DepthScenes,duration_manipulation_targetAtFixation,jsons/VE125_randls_76.json,http://54.235.29.9/FacialAge/BNav_EC2/DepthDuration/v2_depth_duration_MTurk/v2_DepthDuration_HTML.html#413,413,1364,625,1364,768,9-4-2022,11-16-27,36,depth_duration_stimuli/003587_2014-05-23_16-48-02_094959634447_rgbf002384-resize_2/003587_2014-05-23_16-48-02_094959634447_rgbf002384-resize_2-target.png,125,1.357,0.0,5878,125,meters,jsons/VE125_randls_76.json,2255386,2851768,46,Man
36,146015,DepthScenes,duration_manipulation_targetAtFixation,jsons/VE125_randls_76.json,http://54.235.29.9/FacialAge/BNav_EC2/DepthDuration/v2_depth_duration_MTurk/v2_DepthDuration_HTML.html#413,413,1364,625,1364,768,9-4-2022,11-16-27,37,depth_duration_stimuli/000773_2014-06-08_22-24-54_260595134347_rgbf000093-resize_1/000773_2014-06-08_22-24-54_260595134347_rgbf000093-resize_1-target.png,125,4.973,3.0,7856,129,meters,jsons/VE125_randls_76.json,2255386,2851768,46,Man
37,146015,DepthScenes,duration_manipulation_targetAtFixation,jsons/VE125_randls_76.json,http://54.235.29.9/FacialAge/BNav_EC2/DepthDuration/v2_depth_duration_MTurk/v2_DepthDuration_HTML.html#413,413,1364,625,1364,768,9-4-2022,11-16-27,38,depth_duration_stimuli/002414_2014-06-28_20-24-58_260595134347_rgbf000067-resize_4/002414_2014-06-28_20-24-58_260595134347_rgbf000067-resize_4-target.png,125,4.363,4.0,3973,129,meters,jsons/VE125_randls_76.json,2255386,2851768,46,Man
38,146015,DepthScenes,duration_manipulation_targetAtFixation,jsons/VE125_randls_76.json,http://54.235.29.9/FacialAge/BNav_EC2/DepthDuration/v2_depth_duration_MTurk/v2_DepthDuration_HTML.html#413,413,1364,625,1364,768,9-4-2022,11-16-27,39,depth_duration_stimuli/000447_2014-06-08_16-15-46_260595134347_rgbf000130-resize_1/000447_2014-06-08_16-15-46_260595134347_rgbf000130-resize_1-target.png,125,4.479,3.0,35063,125,meters,jsons/VE125_randls_76.json,2255386,2851768,46,Man
39,146015,DepthScenes,duration_manipulation_targetAtFixation,jsons/VE125_randls_76.json,http://54.235.29.9/FacialAge/BNav_EC2/DepthDuration/v2_depth_duration_MTurk/v2_DepthDuration_HTML.html#413,413,1364,625,1364,768,9-4-2022,11-16-27,40,depth_duration_stimuli/001447_2014-06-19_17-00-32_260595134347_rgbf000082-resize_5/001447_2014-06-19_17-00-32_260595134347_rgbf000082-resize_5-target.png,125,4.13775,4.0,7649,115,meters,jsons/VE125_randls_76.json,2255386,2851768,46,Man
40,146015,DepthScenes,duration_manipulation_targetAtFixation,jsons/VE125_randls_76.json,http://54.235.29.9/FacialAge/BNav_EC2/DepthDuration/v2_depth_duration_MTurk/v2_DepthDuration_HTML.html#413,413,1364,625,1364,768,9-4-2022,11-16-27,41,depth_duration_stimuli/002272_2014-06-28_18-53-56_260595134347_rgbf000067-resize_2/002272_2014-06-28_18-53-56_260595134347_rgbf000067-resize_2-target.png,125,1.138,1.0,40358,114,meters,jsons/VE125_randls_76.json,2255386,2851768,46,Man
41,146015,DepthScenes,duration_manipulation_targetAtFixation,jsons/VE125_randls_76.json,http://54.235.29.9/FacialAge/BNav_EC2/DepthDuration/v2_depth_duration_MTurk/v2_DepthDuration_HTML.html#413,413,1364,625,1364,768,9-4-2022,11-16-27,42,depth_duration_stimuli/001571_2014-06-20_17-21-32_260595134347_rgbf000089-resize_1/001571_2014-06-20_17-21-32_260595134347_rgbf000089-resize_1-target.png,125,1.86,0.0,5495,127,meters,jsons/VE125_randls_76.json,2255386,2851768,46,Man
42,146015,DepthScenes,duration_manipulation_targetAtFixation,jsons/VE125_randls_76.json,http://54.235.29.9/FacialAge/BNav_EC2/DepthDuration/v2_depth_duration_MTurk/v2_DepthDuration_HTML.html#413,413,1364,625,1364,768,9-4-2022,11-16-27,43,depth_duration_stimuli/001056_2014-06-08_18-46-44_260595134347_rgbf000068-resize_0/001056_2014-06-08_18-46-44_260595134347_rgbf000068-resize_0-target.png,125,2.6625,0.0,13097,126,meters,jsons/VE125_randls_76.json,2255386,2851768,46,Man
43,146015,DepthScenes,duration_manipulation_targetAtFixation,jsons/VE125_randls_76.json,http://54.235.29.9/FacialAge/BNav_EC2/DepthDuration/v2_depth_duration_MTurk/v2_DepthDuration_HTML.html#413,413,1364,625,1364,768,9-4-2022,11-16-27,44,depth_duration_stimuli/002199_2014-06-28_18-33-56_260595134347_rgbf000074-resize_0/002199_2014-06-28_18-33-56_260595134347_rgbf000074-resize_0-target.png,125,1.996,0.0,11212,137,meters,jsons/VE125_randls_76.json,2255386,2851768,46,Man
44,146015,DepthScenes,duration_manipulation_targetAtFixation,jsons/VE125_randls_76.json,http://54.235.29.9/FacialAge/BNav_EC2/DepthDuration/v2_depth_duration_MTurk/v2_DepthDuration_HTML.html#413,413,1364,625,1364,768,9-4-2022,11-16-27,45,depth_duration_stimuli/000787_2014-06-08_22-33-53_260595134347_rgbf000175-resize_1/000787_2014-06-08_22-33-53_260595134347_rgbf000175-resize-original.jpg,125,4.784,0.0,18294,120,meters,jsons/VE125_randls_76.json,2255386,2851768,46,Man
45,146015,DepthScenes,duration_manipulation_targetAtFixation,jsons/VE125_randls_76.json,http://54.235.29.9/FacialAge/BNav_EC2/DepthDuration/v2_depth_duration_MTurk/v2_DepthDuration_HTML.html#413,413,1364,625,1364,768,9-4-2022,11-16-27,46,depth_duration_stimuli/000642_2014-06-08_16-59-25_260595134347_rgbf000098-resize_2/000642_2014-06-08_16-59-25_260595134347_rgbf000098-resize_2-target.png,125,2.8815,5.0,12411,118,meters,jsons/VE125_randls_76.json,2255386,2851768,46,Man
46,146015,DepthScenes,duration_manipulation_targetAtFixation,jsons/VE125_randls_76.json,http://54.235.29.9/FacialAge/BNav_EC2/DepthDuration/v2_depth_duration_MTurk/v2_DepthDuration_HTML.html#413,413,1364,625,1364,768,9-4-2022,11-16-27,47,depth_duration_stimuli/002425_2014-06-28_20-27-29_260595134347_rgbf000031-resize_8/002425_2014-06-28_20-27-29_260595134347_rgbf000031-resize_8-target.png,125,3.8960000000000004,0.0,3855,114,meters,jsons/VE125_randls_76.json,2255386,2851768,46,Man
47,146015,DepthScenes,duration_manipulation_targetAtFixation,jsons/VE125_randls_76.json,http://54.235.29.9/FacialAge/BNav_EC2/DepthDuration/v2_depth_duration_MTurk/v2_DepthDuration_HTML.html#413,413,1364,625,1364,768,9-4-2022,11-16-27,48,depth_duration_stimuli/000682_2014-06-08_23-14-58_260595134347_rgbf000041-resize_5/000682_2014-06-08_23-14-58_260595134347_rgbf000041-resize_5-target.png,125,2.7239999999999998,3.0,4596,110,meters,jsons/VE125_randls_76.json,2255386,2851768,46,Man
48,146015,DepthScenes,duration_manipulation_targetAtFixation,jsons/VE125_randls_76.json,http://54.235.29.9/FacialAge/BNav_EC2/DepthDuration/v2_depth_duration_MTurk/v2_DepthDuration_HTML.html#413,413,1364,625,1364,768,9-4-2022,11-16-27,49,depth_duration_stimuli/001650_2014-06-20_12-09-00_260595134347_rgbf000087-resize_3/001650_2014-06-20_12-09-00_260595134347_rgbf000087-resize_3-target.png,125,1.9505,0.0,4031,115,meters,jsons/VE125_randls_76.json,2255386,2851768,46,Man
49,146015,DepthScenes,duration_manipulation_targetAtFixation,jsons/VE125_randls_76.json,http://54.235.29.9/FacialAge/BNav_EC2/DepthDuration/v2_depth_duration_MTurk/v2_DepthDuration_HTML.html#413,413,1364,625,1364,768,9-4-2022,11-16-27,50,depth_duration_stimuli/002763_2014-06-22_19-13-10_094959634447_rgbf000075-resize_4/002763_2014-06-22_19-13-10_094959634447_rgbf000075-resize_4-target.png,125,1.68375,3.0,5859,115,meters,jsons/VE125_randls_76.json,2255386,2851768,46,Man
50,146015,DepthScenes,duration_manipulation_targetAtFixation,jsons/VE125_randls_76.json,http://54.235.29.9/FacialAge/BNav_EC2/DepthDuration/v2_depth_duration_MTurk/v2_DepthDuration_HTML.html#413,413,1364,625,1364,768,9-4-2022,11-16-27,51,depth_duration_stimuli/002209_2014-06-28_18-36-10_260595134347_rgbf000051-resize_1/002209_2014-06-28_18-36-10_260595134347_rgbf000051-resize_1-target.png,125,2.057,3.0,4383,124,meters,jsons/VE125_randls_76.json,2255386,2851768,46,Man
51,146015,DepthScenes,duration_manipulation_targetAtFixation,jsons/VE125_randls_76.json,http://54.235.29.9/FacialAge/BNav_EC2/DepthDuration/v2_depth_duration_MTurk/v2_DepthDuration_HTML.html#413,413,1364,625,1364,768,9-4-2022,11-16-27,52,depth_duration_stimuli/000470_2014-06-09_19-42-40_260595134347_rgbf000094-resize_1/000470_2014-06-09_19-42-40_260595134347_rgbf000094-resize_1-target.png,125,1.831,2.0,15836,117,meters,jsons/VE125_randls_76.json,2255386,2851768,46,Man
52,146015,DepthScenes,duration_manipulation_targetAtFixation,jsons/VE125_randls_76.json,http://54.235.29.9/FacialAge/BNav_EC2/DepthDuration/v2_depth_duration_MTurk/v2_DepthDuration_HTML.html#413,413,1364,625,1364,768,9-4-2022,11-16-27,53,depth_duration_stimuli/000109_2014-05-14_23-41-52_260595134347_rgbf000035-resize_9/000109_2014-05-14_23-41-52_260595134347_rgbf000035-resize_9-target.png,125,1.3545,1.0,10919,126,meters,jsons/VE125_randls_76.json,2255386,2851768,46,Man
53,146015,DepthScenes,duration_manipulation_targetAtFixation,jsons/VE125_randls_76.json,http://54.235.29.9/FacialAge/BNav_EC2/DepthDuration/v2_depth_duration_MTurk/v2_DepthDuration_HTML.html#413,413,1364,625,1364,768,9-4-2022,11-16-27,54,depth_duration_stimuli/002988_2014-06-15_12-24-20_094959634447_rgbf000150-resize_1/002988_2014-06-15_12-24-20_094959634447_rgbf000150-resize_1-target.png,125,4.7669999999999995,0.0,10062,128,meters,jsons/VE125_randls_76.json,2255386,2851768,46,Man
54,146015,DepthScenes,duration_manipulation_targetAtFixation,jsons/VE125_randls_76.json,http://54.235.29.9/FacialAge/BNav_EC2/DepthDuration/v2_depth_duration_MTurk/v2_DepthDuration_HTML.html#413,413,1364,625,1364,768,9-4-2022,11-16-27,55,depth_duration_stimuli/001052_2014-06-08_18-24-54_260595134347_rgbf000130-resize_1/001052_2014-06-08_18-24-54_260595134347_rgbf000130-resize_1-target.png,125,4.1045,0.0,20566,123,meters,jsons/VE125_randls_76.json,2255386,2851768,46,Man
55,146015,DepthScenes,duration_manipulation_targetAtFixation,jsons/VE125_randls_76.json,http://54.235.29.9/FacialAge/BNav_EC2/DepthDuration/v2_depth_duration_MTurk/v2_DepthDuration_HTML.html#413,413,1364,625,1364,768,9-4-2022,11-16-27,56,depth_duration_stimuli/000522_2014-06-08_13-35-06_260595134347_rgbf000244-resize_1/000522_2014-06-08_13-35-06_260595134347_rgbf000244-resize_1-target.png,125,2.3715,2.5,6738,121,meters,jsons/VE125_randls_76.json,2255386,2851768,46,Man
56,146015,DepthScenes,duration_manipulation_targetAtFixation,jsons/VE125_randls_76.json,http://54.235.29.9/FacialAge/BNav_EC2/DepthDuration/v2_depth_duration_MTurk/v2_DepthDuration_HTML.html#413,413,1364,625,1364,768,9-4-2022,11-16-27,57,depth_duration_stimuli/002949_2014-06-26_15-57-42_094959634447_rgbf000079-resize_1/002949_2014-06-26_15-57-42_094959634447_rgbf000079-resize_1-target.png,125,1.8915,0.0,16739,123,meters,jsons/VE125_randls_76.json,2255386,2851768,46,Man
57,146015,DepthScenes,duration_manipulation_targetAtFixation,jsons/VE125_randls_76.json,http://54.235.29.9/FacialAge/BNav_EC2/DepthDuration/v2_depth_duration_MTurk/v2_DepthDuration_HTML.html#413,413,1364,625,1364,768,9-4-2022,11-16-27,58,depth_duration_stimuli/002509_2014-06-24_13-19-22_094959634447_rgbf000077-resize_0/002509_2014-06-24_13-19-22_094959634447_rgbf000077-resize_0-target.png,125,1.3065,2.0,5708,116,meters,jsons/VE125_randls_76.json,2255386,2851768,46,Man
58,146015,DepthScenes,duration_manipulation_targetAtFixation,jsons/VE125_randls_76.json,http://54.235.29.9/FacialAge/BNav_EC2/DepthDuration/v2_depth_duration_MTurk/v2_DepthDuration_HTML.html#413,413,1364,625,1364,768,9-4-2022,11-16-27,59,depth_duration_stimuli/003338_2014-05-20_11-01-23_094959634447_rgbf000051-resize_6/003338_2014-05-20_11-01-23_094959634447_rgbf000051-resize_6-target.png,125,1.693,2.0,4852,128,meters,jsons/VE125_randls_76.json,2255386,2851768,46,Man
59,146015,DepthScenes,duration_manipulation_targetAtFixation,jsons/VE125_randls_76.json,http://54.235.29.9/FacialAge/BNav_EC2/DepthDuration/v2_depth_duration_MTurk/v2_DepthDuration_HTML.html#413,413,1364,625,1364,768,9-4-2022,11-16-27,60,depth_duration_stimuli/000436_2014-06-09_22-25-11_260595134347_rgbf000137-resize_1/000436_2014-06-09_22-25-11_260595134347_rgbf000137-resize_1-target.png,125,4.0705,0.0,24690,129,meters,jsons/VE125_randls_76.json,2255386,2851768,46,Man
60,146015,DepthScenes,duration_manipulation_targetAtFixation,jsons/VE125_randls_76.json,http://54.235.29.9/FacialAge/BNav_EC2/DepthDuration/v2_depth_duration_MTurk/v2_DepthDuration_HTML.html#413,413,1364,625,1364,768,9-4-2022,11-16-27,61,depth_duration_stimuli/002444_2014-06-28_20-32-08_260595134347_rgbf000027-resize_0/002444_2014-06-28_20-32-08_260595134347_rgbf000027-resize_0-target.png,125,4.388999999999999,0.0,9847,125,meters,jsons/VE125_randls_76.json,2255386,2851768,46,Man
61,146015,DepthScenes,duration_manipulation_targetAtFixation,jsons/VE125_randls_76.json,http://54.235.29.9/FacialAge/BNav_EC2/DepthDuration/v2_depth_duration_MTurk/v2_DepthDuration_HTML.html#413,413,1364,625,1364,768,9-4-2022,11-16-27,62,depth_duration_stimuli/003621_2014-05-23_18-06-08_094959634447_rgbf000101-resize_1/003621_2014-05-23_18-06-08_094959634447_rgbf000101-resize_1-target.png,125,3.9835,4.0,46901,133,meters,jsons/VE125_randls_76.json,2255386,2851768,46,Man
62,146015,DepthScenes,duration_manipulation_targetAtFixation,jsons/VE125_randls_76.json,http://54.235.29.9/FacialAge/BNav_EC2/DepthDuration/v2_depth_duration_MTurk/v2_DepthDuration_HTML.html#413,413,1364,625,1364,768,9-4-2022,11-16-27,63,depth_duration_stimuli/001584_2014-06-20_11-07-43_260595134347_rgbf000002-resize_1/001584_2014-06-20_11-07-43_260595134347_rgbf000002-resize_1-target.png,125,3.53,0.0,3344,125,meters,jsons/VE125_randls_76.json,2255386,2851768,46,Man
63,146015,DepthScenes,duration_manipulation_targetAtFixation,jsons/VE125_randls_76.json,http://54.235.29.9/FacialAge/BNav_EC2/DepthDuration/v2_depth_duration_MTurk/v2_DepthDuration_HTML.html#413,413,1364,625,1364,768,9-4-2022,11-16-27,64,depth_duration_stimuli/001055_2014-06-08_18-45-35_260595134347_rgbf000111-resize_4/001055_2014-06-08_18-45-35_260595134347_rgbf000111-resize_4-target.png,125,2.4290000000000003,7.0,5721,114,meters,jsons/VE125_randls_76.json,2255386,2851768,46,Man
64,146015,DepthScenes,duration_manipulation_targetAtFixation,jsons/VE125_randls_76.json,http://54.235.29.9/FacialAge/BNav_EC2/DepthDuration/v2_depth_duration_MTurk/v2_DepthDuration_HTML.html#413,413,1364,625,1364,768,9-4-2022,11-16-27,65,depth_duration_stimuli/000549_2014-06-08_22-10-24_260595134347_rgbf000247-resize_3/000549_2014-06-08_22-10-24_260595134347_rgbf000247-resize_3-target.png,125,1.841,1.0,8895,125,meters,jsons/VE125_randls_76.json,2255386,2851768,46,Man
65,146015,DepthScenes,duration_manipulation_targetAtFixation,jsons/VE125_randls_76.json,http://54.235.29.9/FacialAge/BNav_EC2/DepthDuration/v2_depth_duration_MTurk/v2_DepthDuration_HTML.html#413,413,1364,625,1364,768,9-4-2022,11-16-27,66,depth_duration_stimuli/001222_2014-06-17_16-24-06_260595134347_rgbf000073-resize_0/001222_2014-06-17_16-24-06_260595134347_rgbf000073-resize-original.jpg,125,1.4385,0.0,11799,125,meters,jsons/VE125_randls_76.json,2255386,2851768,46,Man
66,146015,DepthScenes,duration_manipulation_targetAtFixation,jsons/VE125_randls_76.json,http://54.235.29.9/FacialAge/BNav_EC2/DepthDuration/v2_depth_duration_MTurk/v2_DepthDuration_HTML.html#413,413,1364,625,1364,768,9-4-2022,11-16-27,67,depth_duration_stimuli/000810_2014-06-08_17-20-01_260595134347_rgbf000105-resize_0/000810_2014-06-08_17-20-01_260595134347_rgbf000105-resize_0-target.png,125,1.4865,1.0,10459,140,meters,jsons/VE125_randls_76.json,2255386,2851768,46,Man
67,146015,DepthScenes,duration_manipulation_targetAtFixation,jsons/VE125_randls_76.json,http://54.235.29.9/FacialAge/BNav_EC2/DepthDuration/v2_depth_duration_MTurk/v2_DepthDuration_HTML.html#413,413,1364,625,1364,768,9-4-2022,11-16-27,68,depth_duration_stimuli/001214_2014-06-17_16-13-55_260595134347_rgbf000111-resize_0/001214_2014-06-17_16-13-55_260595134347_rgbf000111-resize_0-target.png,125,2.6505,2.5,7705,126,meters,jsons/VE125_randls_76.json,2255386,2851768,46,Man
68,146015,DepthScenes,duration_manipulation_targetAtFixation,jsons/VE125_randls_76.json,http://54.235.29.9/FacialAge/BNav_EC2/DepthDuration/v2_depth_duration_MTurk/v2_DepthDuration_HTML.html#413,413,1364,625,1364,768,9-4-2022,11-16-27,69,depth_duration_stimuli/002039_2014-06-24_20-22-38_260595134347_rgbf000084-resize_1/002039_2014-06-24_20-22-38_260595134347_rgbf000084-resize_1-target.png,125,4.408,4.0,7362,118,meters,jsons/VE125_randls_76.json,2255386,2851768,46,Man
69,146015,DepthScenes,duration_manipulation_targetAtFixation,jsons/VE125_randls_76.json,http://54.235.29.9/FacialAge/BNav_EC2/DepthDuration/v2_depth_duration_MTurk/v2_DepthDuration_HTML.html#413,413,1364,625,1364,768,9-4-2022,11-16-27,70,depth_duration_stimuli/002103_2014-06-25_20-00-40_260595134347_rgbf000049-resize_0/002103_2014-06-25_20-00-40_260595134347_rgbf000049-resize_0-target.png,125,4.105,0.0,3899,127,meters,jsons/VE125_randls_76.json,2255386,2851768,46,Man
70,146015,DepthScenes,duration_manipulation_targetAtFixation,jsons/VE125_randls_76.json,http://54.235.29.9/FacialAge/BNav_EC2/DepthDuration/v2_depth_duration_MTurk/v2_DepthDuration_HTML.html#413,413,1364,625,1364,768,9-4-2022,11-16-27,71,depth_duration_stimuli/002375_2014-06-28_20-13-44_260595134347_rgbf000032-resize_1/002375_2014-06-28_20-13-44_260595134347_rgbf000032-resize_1-target.png,125,4.0175,0.0,18971,134,meters,jsons/VE125_randls_76.json,2255386,2851768,46,Man
71,146015,DepthScenes,duration_manipulation_targetAtFixation,jsons/VE125_randls_76.json,http://54.235.29.9/FacialAge/BNav_EC2/DepthDuration/v2_depth_duration_MTurk/v2_DepthDuration_HTML.html#413,413,1364,625,1364,768,9-4-2022,11-16-27,72,depth_duration_stimuli/002657_2014-06-13_15-29-54_094959634447_rgbf000150-resize_1/002657_2014-06-13_15-29-54_094959634447_rgbf000150-resize_1-target.png,125,4.919,0.0,2713,117,meters,jsons/VE125_randls_76.json,2255386,2851768,46,Man
72,146015,DepthScenes,duration_manipulation_targetAtFixation,jsons/VE125_randls_76.json,http://54.235.29.9/FacialAge/BNav_EC2/DepthDuration/v2_depth_duration_MTurk/v2_DepthDuration_HTML.html#413,413,1364,625,1364,768,9-4-2022,11-16-27,73,depth_duration_stimuli/002663_2014-06-13_15-50-26_094959634447_rgbf000075-resize_1/002663_2014-06-13_15-50-26_094959634447_rgbf000075-resize_1-target.png,125,4.7495,6.0,4421,123,meters,jsons/VE125_randls_76.json,2255386,2851768,46,Man
73,146015,DepthScenes,duration_manipulation_targetAtFixation,jsons/VE125_randls_76.json,http://54.235.29.9/FacialAge/BNav_EC2/DepthDuration/v2_depth_duration_MTurk/v2_DepthDuration_HTML.html#413,413,1364,625,1364,768,9-4-2022,11-16-27,74,depth_duration_stimuli/000409_2014-06-04_19-23-33_260595134347_rgbf000067-resize_0/000409_2014-06-04_19-23-33_260595134347_rgbf000067-resize_0-target.png,125,3.7335,0.0,3092,135,meters,jsons/VE125_randls_76.json,2255386,2851768,46,Man
74,146015,DepthScenes,duration_manipulation_targetAtFixation,jsons/VE125_randls_76.json,http://54.235.29.9/FacialAge/BNav_EC2/DepthDuration/v2_depth_duration_MTurk/v2_DepthDuration_HTML.html#413,413,1364,625,1364,768,9-4-2022,11-16-27,75,depth_duration_stimuli/002153_2014-06-25_21-27-18_260595134347_rgbf000038-resize_5/002153_2014-06-25_21-27-18_260595134347_rgbf000038-resize_5-target.png,125,2.505,1.0,30966,113,meters,jsons/VE125_randls_76.json,2255386,2851768,46,Man
75,146015,DepthScenes,duration_manipulation_targetAtFixation,jsons/VE125_randls_76.json,http://54.235.29.9/FacialAge/BNav_EC2/DepthDuration/v2_depth_duration_MTurk/v2_DepthDuration_HTML.html#413,413,1364,625,1364,768,9-4-2022,11-16-27,76,depth_duration_stimuli/002660_2014-06-13_15-44-18_094959634447_rgbf001878-resize_2/002660_2014-06-13_15-44-18_094959634447_rgbf001878-resize_2-target.png,125,3.576,1.0,7866,128,meters,jsons/VE125_randls_76.json,2255386,2851768,46,Man
76,146015,DepthScenes,duration_manipulation_targetAtFixation,jsons/VE125_randls_76.json,http://54.235.29.9/FacialAge/BNav_EC2/DepthDuration/v2_depth_duration_MTurk/v2_DepthDuration_HTML.html#413,413,1364,625,1364,768,9-4-2022,11-16-27,77,depth_duration_stimuli/001016_2014-06-09_16-16-10_260595134347_rgbf000112-resize_5/001016_2014-06-09_16-16-10_260595134347_rgbf000112-resize_5-target.png,125,1.6565,2.0,8012,128,meters,jsons/VE125_randls_76.json,2255386,2851768,46,Man
77,146015,DepthScenes,duration_manipulation_targetAtFixation,jsons/VE125_randls_76.json,http://54.235.29.9/FacialAge/BNav_EC2/DepthDuration/v2_depth_duration_MTurk/v2_DepthDuration_HTML.html#413,413,1364,625,1364,768,9-4-2022,11-16-27,78,depth_duration_stimuli/002340_2014-06-28_20-05-46_260595134347_rgbf000113-resize_0/002340_2014-06-28_20-05-46_260595134347_rgbf000113-resize_0-target.png,125,2.4735,5.0,5890,125,meters,jsons/VE125_randls_76.json,2255386,2851768,46,Man
78,146015,DepthScenes,duration_manipulation_targetAtFixation,jsons/VE125_randls_76.json,http://54.235.29.9/FacialAge/BNav_EC2/DepthDuration/v2_depth_duration_MTurk/v2_DepthDuration_HTML.html#413,413,1364,625,1364,768,9-4-2022,11-16-27,79,depth_duration_stimuli/000009_2014-05-26_14-32-05_260595134347_rgbf000034-resize_3/000009_2014-05-26_14-32-05_260595134347_rgbf000034-resize_3-target.png,125,3.8715,6.0,29993,137,meters,jsons/VE125_randls_76.json,2255386,2851768,46,Man
79,146015,DepthScenes,duration_manipulation_targetAtFixation,jsons/VE125_randls_76.json,http://54.235.29.9/FacialAge/BNav_EC2/DepthDuration/v2_depth_duration_MTurk/v2_DepthDuration_HTML.html#413,413,1364,625,1364,768,9-4-2022,11-16-27,80,depth_duration_stimuli/001828_2014-06-26_21-40-03_260595134347_rgbf000024-resize_0/001828_2014-06-26_21-40-03_260595134347_rgbf000024-resize_0-target.png,125,4.8260000000000005,2.0,5115,134,meters,jsons/VE125_randls_76.json,2255386,2851768,46,Man
80,146015,DepthScenes,duration_manipulation_targetAtFixation,jsons/VE125_randls_76.json,http://54.235.29.9/FacialAge/BNav_EC2/DepthDuration/v2_depth_duration_MTurk/v2_DepthDuration_HTML.html#413,413,1364,625,1364,768,9-4-2022,11-16-27,81,depth_duration_stimuli/001570_2014-06-20_17-21-09_260595134347_rgbf000135-resize_4/001570_2014-06-20_17-21-09_260595134347_rgbf000135-resize_4-target.png,125,4.467,0.0,26431,120,meters,jsons/VE125_randls_76.json,2255386,2851768,46,Man
81,146015,DepthScenes,duration_manipulation_targetAtFixation,jsons/VE125_randls_76.json,http://54.235.29.9/FacialAge/BNav_EC2/DepthDuration/v2_depth_duration_MTurk/v2_DepthDuration_HTML.html#413,413,1364,625,1364,768,9-4-2022,11-16-27,82,depth_duration_stimuli/001392_2014-06-19_16-07-59_260595134347_rgbf000046-resize_1/001392_2014-06-19_16-07-59_260595134347_rgbf000046-resize_1-target.png,125,4.135,6.0,4536,134,meters,jsons/VE125_randls_76.json,2255386,2851768,46,Man
82,146015,DepthScenes,duration_manipulation_targetAtFixation,jsons/VE125_randls_76.json,http://54.235.29.9/FacialAge/BNav_EC2/DepthDuration/v2_depth_duration_MTurk/v2_DepthDuration_HTML.html#413,413,1364,625,1364,768,9-4-2022,11-16-27,83,depth_duration_stimuli/002118_2014-06-25_20-32-08_260595134347_rgbf000078-resize_1/002118_2014-06-25_20-32-08_260595134347_rgbf000078-resize_1-target.png,125,2.6460000000000004,0.0,27789,123,meters,jsons/VE125_randls_76.json,2255386,2851768,46,Man
83,146015,DepthScenes,duration_manipulation_targetAtFixation,jsons/VE125_randls_76.json,http://54.235.29.9/FacialAge/BNav_EC2/DepthDuration/v2_depth_duration_MTurk/v2_DepthDuration_HTML.html#413,413,1364,625,1364,768,9-4-2022,11-16-27,84,depth_duration_stimuli/001516_2014-06-20_16-25-09_260595134347_rgbf000076-resize_2/001516_2014-06-20_16-25-09_260595134347_rgbf000076-resize_2-target.png,125,1.7445,4.0,5725,127,meters,jsons/VE125_randls_76.json,2255386,2851768,46,Man
84,146015,DepthScenes,duration_manipulation_targetAtFixation,jsons/VE125_randls_76.json,http://54.235.29.9/FacialAge/BNav_EC2/DepthDuration/v2_depth_duration_MTurk/v2_DepthDuration_HTML.html#413,413,1364,625,1364,768,9-4-2022,11-16-27,85,depth_duration_stimuli/000692_2014-06-08_13-09-42_260595134347_rgbf000199-resize_2/000692_2014-06-08_13-09-42_260595134347_rgbf000199-resize_2-target.png,125,3.661,5.0,15927,117,meters,jsons/VE125_randls_76.json,2255386,2851768,46,Man
85,146015,DepthScenes,duration_manipulation_targetAtFixation,jsons/VE125_randls_76.json,http://54.235.29.9/FacialAge/BNav_EC2/DepthDuration/v2_depth_duration_MTurk/v2_DepthDuration_HTML.html#413,413,1364,625,1364,768,9-4-2022,11-16-27,86,depth_duration_stimuli/001094_2014-06-15_17-36-00_260595134347_rgbf000205-resize_0/001094_2014-06-15_17-36-00_260595134347_rgbf000205-resize_0-target.png,125,4.2175,4.0,10507,113,meters,jsons/VE125_randls_76.json,2255386,2851768,46,Man
86,146015,DepthScenes,duration_manipulation_targetAtFixation,jsons/VE125_randls_76.json,http://54.235.29.9/FacialAge/BNav_EC2/DepthDuration/v2_depth_duration_MTurk/v2_DepthDuration_HTML.html#413,413,1364,625,1364,768,9-4-2022,11-16-27,87,depth_duration_stimuli/001417_2014-06-19_16-25-36_260595134347_rgbf000115-resize_5/001417_2014-06-19_16-25-36_260595134347_rgbf000115-resize_5-target.png,125,4.6255,4.0,5144,125,meters,jsons/VE125_randls_76.json,2255386,2851768,46,Man
87,146015,DepthScenes,duration_manipulation_targetAtFixation,jsons/VE125_randls_76.json,http://54.235.29.9/FacialAge/BNav_EC2/DepthDuration/v2_depth_duration_MTurk/v2_DepthDuration_HTML.html#413,413,1364,625,1364,768,9-4-2022,11-16-27,88,depth_duration_stimuli/003081_2014-06-15_15-19-16_094959634447_rgbf000150-resize_1/003081_2014-06-15_15-19-16_094959634447_rgbf000150-resize_1-target.png,125,3.9125,3.0,232453,125,meters,jsons/VE125_randls_76.json,2255386,2851768,46,Man
88,146015,DepthScenes,duration_manipulation_targetAtFixation,jsons/VE125_randls_76.json,http://54.235.29.9/FacialAge/BNav_EC2/DepthDuration/v2_depth_duration_MTurk/v2_DepthDuration_HTML.html#413,413,1364,625,1364,768,9-4-2022,11-16-27,89,depth_duration_stimuli/000758_2014-06-08_22-05-08_260595134347_rgbf000085-resize_0/000758_2014-06-08_22-05-08_260595134347_rgbf000085-resize_0-target.png,125,3.3810000000000002,4.0,9958,123,meters,jsons/VE125_randls_76.json,2255386,2851768,46,Man
89,146015,DepthScenes,duration_manipulation_targetAtFixation,jsons/VE125_randls_76.json,http://54.235.29.9/FacialAge/BNav_EC2/DepthDuration/v2_depth_duration_MTurk/v2_DepthDuration_HTML.html#413,413,1364,625,1364,768,9-4-2022,11-16-27,90,depth_duration_stimuli/000854_2014-06-09_19-43-13_260595134347_rgbf000066-resize_0/000854_2014-06-09_19-43-13_260595134347_rgbf000066-resize_0-target.png,125,3.068,1.0,5982,126,meters,jsons/VE125_randls_76.json,2255386,2851768,46,Man
90,146015,DepthScenes,duration_manipulation_targetAtFixation,jsons/VE125_randls_76.json,http://54.235.29.9/FacialAge/BNav_EC2/DepthDuration/v2_depth_duration_MTurk/v2_DepthDuration_HTML.html#413,413,1364,625,1364,768,9-4-2022,11-16-27,91,depth_duration_stimuli/002964_2014-06-08_17-46-11_094959634447_rgbf000091-resize_4/002964_2014-06-08_17-46-11_094959634447_rgbf000091-resize_4-target.png,125,1.6909999999999998,1.5,9730,126,meters,jsons/VE125_randls_76.json,2255386,2851768,46,Man
91,146015,DepthScenes,duration_manipulation_targetAtFixation,jsons/VE125_randls_76.json,http://54.235.29.9/FacialAge/BNav_EC2/DepthDuration/v2_depth_duration_MTurk/v2_DepthDuration_HTML.html#413,413,1364,625,1364,768,9-4-2022,11-16-27,92,depth_duration_stimuli/002136_2014-06-25_21-18-03_260595134347_rgbf000109-resize_3/002136_2014-06-25_21-18-03_260595134347_rgbf000109-resize_3-target.png,125,1.9569999999999999,2.0,7112,128,meters,jsons/VE125_randls_76.json,2255386,2851768,46,Man
92,146015,DepthScenes,duration_manipulation_targetAtFixation,jsons/VE125_randls_76.json,http://54.235.29.9/FacialAge/BNav_EC2/DepthDuration/v2_depth_duration_MTurk/v2_DepthDuration_HTML.html#413,413,1364,625,1364,768,9-4-2022,11-16-27,93,depth_duration_stimuli/003534_2014-05-22_15-06-10_094959634447_rgbf000102-resize_4/003534_2014-05-22_15-06-10_094959634447_rgbf000102-resize_4-target.png,125,1.426,1.0,14285,124,meters,jsons/VE125_randls_76.json,2255386,2851768,46,Man
93,146015,DepthScenes,duration_manipulation_targetAtFixation,jsons/VE125_randls_76.json,http://54.235.29.9/FacialAge/BNav_EC2/DepthDuration/v2_depth_duration_MTurk/v2_DepthDuration_HTML.html#413,413,1364,625,1364,768,9-4-2022,11-16-27,94,depth_duration_stimuli/002637_2014-06-24_14-51-13_094959634447_rgbf000066-resize_4/002637_2014-06-24_14-51-13_094959634447_rgbf000066-resize_4-target.png,125,1.9955,3.0,8365,125,meters,jsons/VE125_randls_76.json,2255386,2851768,46,Man
94,146015,DepthScenes,duration_manipulation_targetAtFixation,jsons/VE125_randls_76.json,http://54.235.29.9/FacialAge/BNav_EC2/DepthDuration/v2_depth_duration_MTurk/v2_DepthDuration_HTML.html#413,413,1364,625,1364,768,9-4-2022,11-16-27,95,depth_duration_stimuli/001164_2014-06-17_15-35-46_260595134347_rgbf000085-resize_3/001164_2014-06-17_15-35-46_260595134347_rgbf000085-resize_3-target.png,125,2.354,4.0,17067,134,meters,jsons/VE125_randls_76.json,2255386,2851768,46,Man
95,146015,DepthScenes,duration_manipulation_targetAtFixation,jsons/VE125_randls_76.json,http://54.235.29.9/FacialAge/BNav_EC2/DepthDuration/v2_depth_duration_MTurk/v2_DepthDuration_HTML.html#413,413,1364,625,1364,768,9-4-2022,11-16-27,96,depth_duration_stimuli/001136_2014-06-17_15-19-41_260595134347_rgbf000076-resize_3/001136_2014-06-17_15-19-41_260595134347_rgbf000076-resize_3-target.png,125,1.8655,5.0,33060,128,meters,jsons/VE125_randls_76.json,2255386,2851768,46,Man
96,146015,DepthScenes,duration_manipulation_targetAtFixation,jsons/VE125_randls_76.json,http://54.235.29.9/FacialAge/BNav_EC2/DepthDuration/v2_depth_duration_MTurk/v2_DepthDuration_HTML.html#413,413,1364,625,1364,768,9-4-2022,11-16-27,97,depth_duration_stimuli/002057_2014-06-24_21-00-13_260595134347_rgbf000120-resize_1/002057_2014-06-24_21-00-13_260595134347_rgbf000120-resize_1-target.png,125,2.967,5.0,3529,129,meters,jsons/VE125_randls_76.json,2255386,2851768,46,Man
97,146015,DepthScenes,duration_manipulation_targetAtFixation,jsons/VE125_randls_76.json,http://54.235.29.9/FacialAge/BNav_EC2/DepthDuration/v2_depth_duration_MTurk/v2_DepthDuration_HTML.html#413,413,1364,625,1364,768,9-4-2022,11-16-27,98,depth_duration_stimuli/000709_2014-06-08_13-51-55_260595134347_rgbf000068-resize_3/000709_2014-06-08_13-51-55_260595134347_rgbf000068-resize_3-target.png,125,1.8030000000000002,0.0,2360,107,meters,jsons/VE125_randls_76.json,2255386,2851768,46,Man
98,146015,DepthScenes,duration_manipulation_targetAtFixation,jsons/VE125_randls_76.json,http://54.235.29.9/FacialAge/BNav_EC2/DepthDuration/v2_depth_duration_MTurk/v2_DepthDuration_HTML.html#413,413,1364,625,1364,768,9-4-2022,11-16-27,99,depth_duration_stimuli/001540_2014-06-20_17-01-05_260595134347_rgbf000086-resize_2/001540_2014-06-20_17-01-05_260595134347_rgbf000086-resize-original.jpg,125,1.459,0.0,3948,126,meters,jsons/VE125_randls_76.json,2255386,2851768,46,Man
99,146015,DepthScenes,duration_manipulation_targetAtFixation,jsons/VE125_randls_76.json,http://54.235.29.9/FacialAge/BNav_EC2/DepthDuration/v2_depth_duration_MTurk/v2_DepthDuration_HTML.html#413,413,1364,625,1364,768,9-4-2022,11-16-27,100,depth_duration_stimuli/001555_2014-06-20_17-12-10_260595134347_rgbf000065-resize_4/001555_2014-06-20_17-12-10_260595134347_rgbf000065-resize_4-target.png,125,1.633,1.0,8940,118,meters,jsons/VE125_randls_76.json,2255386,2851768,46,Man
100,146015,DepthScenes,duration_manipulation_targetAtFixation,jsons/VE125_randls_76.json,http://54.235.29.9/FacialAge/BNav_EC2/DepthDuration/v2_depth_duration_MTurk/v2_DepthDuration_HTML.html#413,413,1364,625,1364,768,9-4-2022,11-16-27,101,depth_duration_stimuli/000103_2014-05-14_22-01-17_260595134347_rgbf000152-resize_5/000103_2014-05-14_22-01-17_260595134347_rgbf000152-resize_5-target.png,125,1.993,4.0,6303,132,meters,jsons/VE125_randls_76.json,2255386,2851768,46,Man
101,146015,DepthScenes,duration_manipulation_targetAtFixation,jsons/VE125_randls_76.json,http://54.235.29.9/FacialAge/BNav_EC2/DepthDuration/v2_depth_duration_MTurk/v2_DepthDuration_HTML.html#413,413,1364,625,1364,768,9-4-2022,11-16-27,102,depth_duration_stimuli/003292_2014-05-14_21-53-49_094959634447_rgbf000100-resize_2/003292_2014-05-14_21-53-49_094959634447_rgbf000100-resize_2-target.png,125,3.4815,2.0,12817,135,meters,jsons/VE125_randls_76.json,2255386,2851768,46,Man
102,146015,DepthScenes,duration_manipulation_targetAtFixation,jsons/VE125_randls_76.json,http://54.235.29.9/FacialAge/BNav_EC2/DepthDuration/v2_depth_duration_MTurk/v2_DepthDuration_HTML.html#413,413,1364,625,1364,768,9-4-2022,11-16-27,103,depth_duration_stimuli/002639_2014-06-24_14-51-37_094959634447_rgbf000074-resize_4/002639_2014-06-24_14-51-37_094959634447_rgbf000074-resize_4-target.png,125,4.0375,3.0,4849,114,meters,jsons/VE125_randls_76.json,2255386,2851768,46,Man
103,146015,DepthScenes,duration_manipulation_targetAtFixation,jsons/VE125_randls_76.json,http://54.235.29.9/FacialAge/BNav_EC2/DepthDuration/v2_depth_duration_MTurk/v2_DepthDuration_HTML.html#413,413,1364,625,1364,768,9-4-2022,11-16-27,104,depth_duration_stimuli/001059_2014-06-08_21-53-27_260595134347_rgbf000061-resize_4/001059_2014-06-08_21-53-27_260595134347_rgbf000061-resize_4-target.png,125,2.4185,0.0,24404,119,meters,jsons/VE125_randls_76.json,2255386,2851768,46,Man
104,146015,DepthScenes,duration_manipulation_targetAtFixation,jsons/VE125_randls_76.json,http://54.235.29.9/FacialAge/BNav_EC2/DepthDuration/v2_depth_duration_MTurk/v2_DepthDuration_HTML.html#413,413,1364,625,1364,768,9-4-2022,11-16-27,105,depth_duration_stimuli/001032_2014-06-08_13-23-17_260595134347_rgbf000021-resize_3/001032_2014-06-08_13-23-17_260595134347_rgbf000021-resize_3-target.png,125,3.2725,0.0,2920,136,meters,jsons/VE125_randls_76.json,2255386,2851768,46,Man
105,146015,DepthScenes,duration_manipulation_targetAtFixation,jsons/VE125_randls_76.json,http://54.235.29.9/FacialAge/BNav_EC2/DepthDuration/v2_depth_duration_MTurk/v2_DepthDuration_HTML.html#413,413,1364,625,1364,768,9-4-2022,11-16-27,106,depth_duration_stimuli/000906_2014-06-08_13-35-43_260595134347_rgbf000155-resize_1/000906_2014-06-08_13-35-43_260595134347_rgbf000155-resize_1-target.png,125,2.8489999999999998,6.0,3101,125,meters,jsons/VE125_randls_76.json,2255386,2851768,46,Man
106,146015,DepthScenes,duration_manipulation_targetAtFixation,jsons/VE125_randls_76.json,http://54.235.29.9/FacialAge/BNav_EC2/DepthDuration/v2_depth_duration_MTurk/v2_DepthDuration_HTML.html#413,413,1364,625,1364,768,9-4-2022,11-16-27,107,depth_duration_stimuli/002805_2014-06-22_19-54-03_094959634447_rgbf000079-resize_1/002805_2014-06-22_19-54-03_094959634447_rgbf000079-resize_1-target.png,125,3.1439999999999997,0.0,2210,126,meters,jsons/VE125_randls_76.json,2255386,2851768,46,Man
107,146015,DepthScenes,duration_manipulation_targetAtFixation,jsons/VE125_randls_76.json,http://54.235.29.9/FacialAge/BNav_EC2/DepthDuration/v2_depth_duration_MTurk/v2_DepthDuration_HTML.html#413,413,1364,625,1364,768,9-4-2022,11-16-27,108,depth_duration_stimuli/002213_2014-06-28_18-37-58_260595134347_rgbf000055-resize_1/002213_2014-06-28_18-37-58_260595134347_rgbf000055-resize_1-target.png,125,3.62,7.0,4301,122,meters,jsons/VE125_randls_76.json,2255386,2851768,46,Man
108,146015,DepthScenes,duration_manipulation_targetAtFixation,jsons/VE125_randls_76.json,http://54.235.29.9/FacialAge/BNav_EC2/DepthDuration/v2_depth_duration_MTurk/v2_DepthDuration_HTML.html#413,413,1364,625,1364,768,9-4-2022,11-16-27,109,depth_duration_stimuli/000691_2014-06-08_13-08-50_260595134347_rgbf000132-resize_3/000691_2014-06-08_13-08-50_260595134347_rgbf000132-resize_3-target.png,125,4.1530000000000005,4.0,3663,126,meters,jsons/VE125_randls_76.json,2255386,2851768,46,Man
109,146015,DepthScenes,duration_manipulation_targetAtFixation,jsons/VE125_randls_76.json,http://54.235.29.9/FacialAge/BNav_EC2/DepthDuration/v2_depth_duration_MTurk/v2_DepthDuration_HTML.html#413,413,1364,625,1364,768,9-4-2022,11-16-27,110,depth_duration_stimuli/001011_2014-06-08_23-18-54_260595134347_rgbf000044-resize_4/001011_2014-06-08_23-18-54_260595134347_rgbf000044-resize_4-target.png,125,2.4730000000000003,3.0,6906,123,meters,jsons/VE125_randls_76.json,2255386,2851768,46,Man
110,146015,DepthScenes,duration_manipulation_targetAtFixation,jsons/VE125_randls_76.json,http://54.235.29.9/FacialAge/BNav_EC2/DepthDuration/v2_depth_duration_MTurk/v2_DepthDuration_HTML.html#413,413,1364,625,1364,768,9-4-2022,11-16-27,111,depth_duration_stimuli/002875_2014-06-01_15-19-00_094959634447_rgbf000151-resize_1/002875_2014-06-01_15-19-00_094959634447_rgbf000151-resize_1-target.png,125,1.9675,5.0,19053,120,meters,jsons/VE125_randls_76.json,2255386,2851768,46,Man
111,146015,DepthScenes,duration_manipulation_targetAtFixation,jsons/VE125_randls_76.json,http://54.235.29.9/FacialAge/BNav_EC2/DepthDuration/v2_depth_duration_MTurk/v2_DepthDuration_HTML.html#413,413,1364,625,1364,768,9-4-2022,11-16-27,112,depth_duration_stimuli/002630_2014-06-24_14-47-50_094959634447_rgbf000055-resize_1/002630_2014-06-24_14-47-50_094959634447_rgbf000055-resize_1-target.png,125,3.0095,0.0,13453,118,meters,jsons/VE125_randls_76.json,2255386,2851768,46,Man
112,146015,DepthScenes,duration_manipulation_targetAtFixation,jsons/VE125_randls_76.json,http://54.235.29.9/FacialAge/BNav_EC2/DepthDuration/v2_depth_duration_MTurk/v2_DepthDuration_HTML.html#413,413,1364,625,1364,768,9-4-2022,11-16-27,113,depth_duration_stimuli/002758_2014-06-22_19-11-20_094959634447_rgbf000128-resize_1/002758_2014-06-22_19-11-20_094959634447_rgbf000128-resize_1-target.png,125,2.555,1.0,6385,127,meters,jsons/VE125_randls_76.json,2255386,2851768,46,Man
113,146015,DepthScenes,duration_manipulation_targetAtFixation,jsons/VE125_randls_76.json,http://54.235.29.9/FacialAge/BNav_EC2/DepthDuration/v2_depth_duration_MTurk/v2_DepthDuration_HTML.html#413,413,1364,625,1364,768,9-4-2022,11-16-27,114,depth_duration_stimuli/001110_2014-06-15_17-25-28_260595134347_rgbf000150-resize_1/001110_2014-06-15_17-25-28_260595134347_rgbf000150-resize_1-target.png,125,1.7115,3.0,25762,129,meters,jsons/VE125_randls_76.json,2255386,2851768,46,Man
114,146015,DepthScenes,duration_manipulation_targetAtFixation,jsons/VE125_randls_76.json,http://54.235.29.9/FacialAge/BNav_EC2/DepthDuration/v2_depth_duration_MTurk/v2_DepthDuration_HTML.html#413,413,1364,625,1364,768,9-4-2022,11-16-27,115,depth_duration_stimuli/000927_2014-06-09_16-32-30_260595134347_rgbf000123-resize_3/000927_2014-06-09_16-32-30_260595134347_rgbf000123-resize_3-target.png,125,2.6785,2.0,12185,123,meters,jsons/VE125_randls_76.json,2255386,2851768,46,Man
115,146015,DepthScenes,duration_manipulation_targetAtFixation,jsons/VE125_randls_76.json,http://54.235.29.9/FacialAge/BNav_EC2/DepthDuration/v2_depth_duration_MTurk/v2_DepthDuration_HTML.html#413,413,1364,625,1364,768,9-4-2022,11-16-27,116,depth_duration_stimuli/001170_2014-06-17_15-43-44_260595134347_rgbf000096-resize_6/001170_2014-06-17_15-43-44_260595134347_rgbf000096-resize-original.jpg,125,1.1909999999999998,0.0,17734,117,meters,jsons/VE125_randls_76.json,2255386,2851768,46,Man
116,146015,DepthScenes,duration_manipulation_targetAtFixation,jsons/VE125_randls_76.json,http://54.235.29.9/FacialAge/BNav_EC2/DepthDuration/v2_depth_duration_MTurk/v2_DepthDuration_HTML.html#413,413,1364,625,1364,768,9-4-2022,11-16-27,117,depth_duration_stimuli/001806_2014-06-26_20-50-20_260595134347_rgbf000091-resize_1/001806_2014-06-26_20-50-20_260595134347_rgbf000091-resize_1-target.png,125,2.7305,2.0,5689,122,meters,jsons/VE125_randls_76.json,2255386,2851768,46,Man
117,146015,DepthScenes,duration_manipulation_targetAtFixation,jsons/VE125_randls_76.json,http://54.235.29.9/FacialAge/BNav_EC2/DepthDuration/v2_depth_duration_MTurk/v2_DepthDuration_HTML.html#413,413,1364,625,1364,768,9-4-2022,11-16-27,118,depth_duration_stimuli/001617_2014-06-20_11-35-32_260595134347_rgbf000066-resize_1/001617_2014-06-20_11-35-32_260595134347_rgbf000066-resize_1-target.png,125,3.7910000000000004,2.0,4369,130,meters,jsons/VE125_randls_76.json,2255386,2851768,46,Man
118,146015,DepthScenes,duration_manipulation_targetAtFixation,jsons/VE125_randls_76.json,http://54.235.29.9/FacialAge/BNav_EC2/DepthDuration/v2_depth_duration_MTurk/v2_DepthDuration_HTML.html#413,413,1364,625,1364,768,9-4-2022,11-16-27,119,depth_duration_stimuli/002445_2014-06-28_20-32-16_260595134347_rgbf000029-resize_4/002445_2014-06-28_20-32-16_260595134347_rgbf000029-resize_4-target.png,125,2.5315,1.0,5738,125,meters,jsons/VE125_randls_76.json,2255386,2851768,46,Man
119,146015,DepthScenes,duration_manipulation_targetAtFixation,jsons/VE125_randls_76.json,http://54.235.29.9/FacialAge/BNav_EC2/DepthDuration/v2_depth_duration_MTurk/v2_DepthDuration_HTML.html#413,413,1364,625,1364,768,9-4-2022,11-16-27,120,depth_duration_stimuli/000780_2014-06-08_22-28-29_260595134347_rgbf000126-resize_1/000780_2014-06-08_22-28-29_260595134347_rgbf000126-resize_1-target.png,125,3.3825,0.0,21506,118,meters,jsons/VE125_randls_76.json,2255386,2851768,46,Man
120,146015,DepthScenes,duration_manipulation_targetAtFixation,jsons/VE125_randls_76.json,http://54.235.29.9/FacialAge/BNav_EC2/DepthDuration/v2_depth_duration_MTurk/v2_DepthDuration_HTML.html#413,413,1364,625,1364,768,9-4-2022,11-16-27,121,depth_duration_stimuli/001808_2014-06-26_20-50-58_260595134347_rgbf000029-resize_1/001808_2014-06-26_20-50-58_260595134347_rgbf000029-resize_1-target.png,125,4.249,5.0,18274,114,meters,jsons/VE125_randls_76.json,2255386,2851768,46,Man
121,146015,DepthScenes,duration_manipulation_targetAtFixation,jsons/VE125_randls_76.json,http://54.235.29.9/FacialAge/BNav_EC2/DepthDuration/v2_depth_duration_MTurk/v2_DepthDuration_HTML.html#413,413,1364,625,1364,768,9-4-2022,11-16-27,122,depth_duration_stimuli/001815_2014-06-26_20-52-55_260595134347_rgbf000020-resize_0/001815_2014-06-26_20-52-55_260595134347_rgbf000020-resize_0-target.png,125,3.3865,0.0,8290,110,meters,jsons/VE125_randls_76.json,2255386,2851768,46,Man
122,146015,DepthScenes,duration_manipulation_targetAtFixation,jsons/VE125_randls_76.json,http://54.235.29.9/FacialAge/BNav_EC2/DepthDuration/v2_depth_duration_MTurk/v2_DepthDuration_HTML.html#413,413,1364,625,1364,768,9-4-2022,11-16-27,123,depth_duration_stimuli/001810_2014-06-26_20-51-35_260595134347_rgbf000040-resize_3/001810_2014-06-26_20-51-35_260595134347_rgbf000040-resize_3-target.png,125,2.2525,2.0,4844,109,meters,jsons/VE125_randls_76.json,2255386,2851768,46,Man
123,146015,DepthScenes,duration_manipulation_targetAtFixation,jsons/VE125_randls_76.json,http://54.235.29.9/FacialAge/BNav_EC2/DepthDuration/v2_depth_duration_MTurk/v2_DepthDuration_HTML.html#413,413,1364,625,1364,768,9-4-2022,11-16-27,124,depth_duration_stimuli/003010_2014-06-15_12-54-35_094959634447_rgbf000112-resize_0/003010_2014-06-15_12-54-35_094959634447_rgbf000112-resize_0-target.png,125,3.1185,6.0,6405,117,meters,jsons/VE125_randls_76.json,2255386,2851768,46,Man
124,146015,DepthScenes,duration_manipulation_targetAtFixation,jsons/VE125_randls_76.json,http://54.235.29.9/FacialAge/BNav_EC2/DepthDuration/v2_depth_duration_MTurk/v2_DepthDuration_HTML.html#413,413,1364,625,1364,768,9-4-2022,11-16-27,125,depth_duration_stimuli/001175_2014-06-17_15-45-55_260595134347_rgbf000129-resize_4/001175_2014-06-17_15-45-55_260595134347_rgbf000129-resize_4-target.png,125,4.255,6.0,3941,130,meters,jsons/VE125_randls_76.json,2255386,2851768,46,Man
125,146015,DepthScenes,duration_manipulation_targetAtFixation,jsons/VE125_randls_76.json,http://54.235.29.9/FacialAge/BNav_EC2/DepthDuration/v2_depth_duration_MTurk/v2_DepthDuration_HTML.html#413,413,1364,625,1364,768,9-4-2022,11-16-27,126,depth_duration_stimuli/003490_2014-05-21_15-50-11_094959634447_rgbf000101-resize_3/003490_2014-05-21_15-50-11_094959634447_rgbf000101-resize_3-target.png,125,3.6445,2.0,19199,127,meters,jsons/VE125_randls_76.json,2255386,2851768,46,Man
126,146015,DepthScenes,duration_manipulation_targetAtFixation,jsons/VE125_randls_76.json,http://54.235.29.9/FacialAge/BNav_EC2/DepthDuration/v2_depth_duration_MTurk/v2_DepthDuration_HTML.html#413,413,1364,625,1364,768,9-4-2022,11-16-27,127,depth_duration_stimuli/000493_2014-06-09_21-01-18_260595134347_rgbf000196-resize_3/000493_2014-06-09_21-01-18_260595134347_rgbf000196-resize_3-target.png,125,3.44,2.5,10159,124,meters,jsons/VE125_randls_76.json,2255386,2851768,46,Man
127,146015,DepthScenes,duration_manipulation_targetAtFixation,jsons/VE125_randls_76.json,http://54.235.29.9/FacialAge/BNav_EC2/DepthDuration/v2_depth_duration_MTurk/v2_DepthDuration_HTML.html#413,413,1364,625,1364,768,9-4-2022,11-16-27,128,depth_duration_stimuli/000191_2014-05-12_17-07-38_260595134347_rgbf000199-resize_0/000191_2014-05-12_17-07-38_260595134347_rgbf000199-resize_0-target.png,125,3.7995,8.0,15941,124,meters,jsons/VE125_randls_76.json,2255386,2851768,46,Man
128,146015,DepthScenes,duration_manipulation_targetAtFixation,jsons/VE125_randls_76.json,http://54.235.29.9/FacialAge/BNav_EC2/DepthDuration/v2_depth_duration_MTurk/v2_DepthDuration_HTML.html#413,413,1364,625,1364,768,9-4-2022,11-16-27,129,depth_duration_stimuli/002279_2014-06-28_18-55-32_260595134347_rgbf000040-resize_5/002279_2014-06-28_18-55-32_260595134347_rgbf000040-resize_5-target.png,125,1.5043333333333,2.0,8777,128,meters,jsons/VE125_randls_76.json,2255386,2851768,46,Man
129,146015,DepthScenes,duration_manipulation_targetAtFixation,jsons/VE125_randls_76.json,http://54.235.29.9/FacialAge/BNav_EC2/DepthDuration/v2_depth_duration_MTurk/v2_DepthDuration_HTML.html#413,413,1364,625,1364,768,9-4-2022,11-16-27,130,depth_duration_stimuli/000635_2014-06-08_16-38-42_260595134347_rgbf000106-resize_1/000635_2014-06-08_16-38-42_260595134347_rgbf000106-resize_1-target.png,125,2.074,4.0,13853,126,meters,jsons/VE125_randls_76.json,2255386,2851768,46,Man
130,146015,DepthScenes,duration_manipulation_targetAtFixation,jsons/VE125_randls_76.json,http://54.235.29.9/FacialAge/BNav_EC2/DepthDuration/v2_depth_duration_MTurk/v2_DepthDuration_HTML.html#413,413,1364,625,1364,768,9-4-2022,11-16-27,131,depth_duration_stimuli/001092_2014-06-15_17-34-58_260595134347_rgbf000171-resize_3/001092_2014-06-15_17-34-58_260595134347_rgbf000171-resize_3-target.png,125,2.6935,2.0,3665,128,meters,jsons/VE125_randls_76.json,2255386,2851768,46,Man
131,146015,DepthScenes,duration_manipulation_targetAtFixation,jsons/VE125_randls_76.json,http://54.235.29.9/FacialAge/BNav_EC2/DepthDuration/v2_depth_duration_MTurk/v2_DepthDuration_HTML.html#413,413,1364,625,1364,768,9-4-2022,11-16-27,132,depth_duration_stimuli/002545_2014-06-24_13-38-53_094959634447_rgbf000080-resize_4/002545_2014-06-24_13-38-53_094959634447_rgbf000080-resize_4-target.png,125,1.9205,0.0,3475,132,meters,jsons/VE125_randls_76.json,2255386,2851768,46,Man
132,146015,DepthScenes,duration_manipulation_targetAtFixation,jsons/VE125_randls_76.json,http://54.235.29.9/FacialAge/BNav_EC2/DepthDuration/v2_depth_duration_MTurk/v2_DepthDuration_HTML.html#413,413,1364,625,1364,768,9-4-2022,11-16-27,133,depth_duration_stimuli/000469_2014-06-09_19-42-10_260595134347_rgbf000081-resize_1/000469_2014-06-09_19-42-10_260595134347_rgbf000081-resize_1-target.png,125,1.652,2.0,6135,113,meters,jsons/VE125_randls_76.json,2255386,2851768,46,Man
133,146015,DepthScenes,duration_manipulation_targetAtFixation,jsons/VE125_randls_76.json,http://54.235.29.9/FacialAge/BNav_EC2/DepthDuration/v2_depth_duration_MTurk/v2_DepthDuration_HTML.html#413,413,1364,625,1364,768,9-4-2022,11-16-27,134,depth_duration_stimuli/000483_2014-06-09_20-41-45_260595134347_rgbf000116-resize_4/000483_2014-06-09_20-41-45_260595134347_rgbf000116-resize_4-target.png,125,1.337,2.0,5853,124,meters,jsons/VE125_randls_76.json,2255386,2851768,46,Man
134,146015,DepthScenes,duration_manipulation_targetAtFixation,jsons/VE125_randls_76.json,http://54.235.29.9/FacialAge/BNav_EC2/DepthDuration/v2_depth_duration_MTurk/v2_DepthDuration_HTML.html#413,413,1364,625,1364,768,9-4-2022,11-16-27,135,depth_duration_stimuli/002072_2014-06-24_21-48-06_260595134347_rgbf000115-resize_0/002072_2014-06-24_21-48-06_260595134347_rgbf000115-resize-original.jpg,125,4.702,0.0,19487,133,meters,jsons/VE125_randls_76.json,2255386,2851768,46,Man
135,146015,DepthScenes,duration_manipulation_targetAtFixation,jsons/VE125_randls_76.json,http://54.235.29.9/FacialAge/BNav_EC2/DepthDuration/v2_depth_duration_MTurk/v2_DepthDuration_HTML.html#413,413,1364,625,1364,768,9-4-2022,11-16-27,136,depth_duration_stimuli/001449_2014-06-19_17-01-27_260595134347_rgbf000116-resize_2/001449_2014-06-19_17-01-27_260595134347_rgbf000116-resize_2-target.png,125,3.452,4.0,5234,130,meters,jsons/VE125_randls_76.json,2255386,2851768,46,Man
136,146015,DepthScenes,duration_manipulation_targetAtFixation,jsons/VE125_randls_76.json,http://54.235.29.9/FacialAge/BNav_EC2/DepthDuration/v2_depth_duration_MTurk/v2_DepthDuration_HTML.html#413,413,1364,625,1364,768,9-4-2022,11-16-27,137,depth_duration_stimuli/001450_2014-06-19_17-02-03_260595134347_rgbf000203-resize_4/001450_2014-06-19_17-02-03_260595134347_rgbf000203-resize_4-target.png,125,4.0106666666667,0.0,2821,129,meters,jsons/VE125_randls_76.json,2255386,2851768,46,Man
137,146015,DepthScenes,duration_manipulation_targetAtFixation,jsons/VE125_randls_76.json,http://54.235.29.9/FacialAge/BNav_EC2/DepthDuration/v2_depth_duration_MTurk/v2_DepthDuration_HTML.html#413,413,1364,625,1364,768,9-4-2022,11-16-27,138,depth_duration_stimuli/000736_2014-06-08_18-24-15_260595134347_rgbf000206-resize_3/000736_2014-06-08_18-24-15_260595134347_rgbf000206-resize_3-target.png,125,3.515,1.0,8842,126,meters,jsons/VE125_randls_76.json,2255386,2851768,46,Man
138,146015,DepthScenes,duration_manipulation_targetAtFixation,jsons/VE125_randls_76.json,http://54.235.29.9/FacialAge/BNav_EC2/DepthDuration/v2_depth_duration_MTurk/v2_DepthDuration_HTML.html#413,413,1364,625,1364,768,9-4-2022,11-16-27,139,depth_duration_stimuli/000137_2014-05-20_17-04-49_260595134347_rgbf000120-resize_1/000137_2014-05-20_17-04-49_260595134347_rgbf000120-resize_1-target.png,125,3.786,1.0,5807,124,meters,jsons/VE125_randls_76.json,2255386,2851768,46,Man
139,146015,DepthScenes,duration_manipulation_targetAtFixation,jsons/VE125_randls_76.json,http://54.235.29.9/FacialAge/BNav_EC2/DepthDuration/v2_depth_duration_MTurk/v2_DepthDuration_HTML.html#413,413,1364,625,1364,768,9-4-2022,11-16-27,140,depth_duration_stimuli/000739_2014-06-08_18-45-58_260595134347_rgbf000068-resize_1/000739_2014-06-08_18-45-58_260595134347_rgbf000068-resize_1-target.png,125,3.534,1.5,7783,126,meters,jsons/VE125_randls_76.json,2255386,2851768,46,Man
140,146015,DepthScenes,duration_manipulation_targetAtFixation,jsons/VE125_randls_76.json,http://54.235.29.9/FacialAge/BNav_EC2/DepthDuration/v2_depth_duration_MTurk/v2_DepthDuration_HTML.html#413,413,1364,625,1364,768,9-4-2022,11-16-27,141,depth_duration_stimuli/000734_2014-06-08_17-39-11_260595134347_rgbf000128-resize_2/000734_2014-06-08_17-39-11_260595134347_rgbf000128-resize_2-target.png,125,4.098,4.0,13362,117,meters,jsons/VE125_randls_76.json,2255386,2851768,46,Man
141,146015,DepthScenes,duration_manipulation_targetAtFixation,jsons/VE125_randls_76.json,http://54.235.29.9/FacialAge/BNav_EC2/DepthDuration/v2_depth_duration_MTurk/v2_DepthDuration_HTML.html#413,413,1364,625,1364,768,9-4-2022,11-16-27,142,depth_duration_stimuli/001244_2014-06-17_16-47-45_260595134347_rgbf000030-resize_4/001244_2014-06-17_16-47-45_260595134347_rgbf000030-resize_4-target.png,125,2.0425,3.0,7716,114,meters,jsons/VE125_randls_76.json,2255386,2851768,46,Man
142,146015,DepthScenes,duration_manipulation_targetAtFixation,jsons/VE125_randls_76.json,http://54.235.29.9/FacialAge/BNav_EC2/DepthDuration/v2_depth_duration_MTurk/v2_DepthDuration_HTML.html#413,413,1364,625,1364,768,9-4-2022,11-16-27,143,depth_duration_stimuli/003495_2014-05-21_16-01-51_094959634447_rgbf000100-resize_3/003495_2014-05-21_16-01-51_094959634447_rgbf000100-resize_3-target.png,125,1.6255,1.0,18015,136,meters,jsons/VE125_randls_76.json,2255386,2851768,46,Man
143,146015,DepthScenes,duration_manipulation_targetAtFixation,jsons/VE125_randls_76.json,http://54.235.29.9/FacialAge/BNav_EC2/DepthDuration/v2_depth_duration_MTurk/v2_DepthDuration_HTML.html#413,413,1364,625,1364,768,9-4-2022,11-16-27,144,depth_duration_stimuli/001150_2014-06-17_15-27-34_260595134347_rgbf000108-resize_2/001150_2014-06-17_15-27-34_260595134347_rgbf000108-resize_2-target.png,125,4.0325,5.0,22891,124,meters,jsons/VE125_randls_76.json,2255386,2851768,46,Man
144,146015,DepthScenes,duration_manipulation_targetAtFixation,jsons/VE125_randls_76.json,http://54.235.29.9/FacialAge/BNav_EC2/DepthDuration/v2_depth_duration_MTurk/v2_DepthDuration_HTML.html#413,413,1364,625,1364,768,9-4-2022,11-16-27,145,depth_duration_stimuli/000665_2014-06-09_20-42-35_260595134347_rgbf000110-resize_1/000665_2014-06-09_20-42-35_260595134347_rgbf000110-resize_1-target.png,125,3.057,2.0,4443,112,meters,jsons/VE125_randls_76.json,2255386,2851768,46,Man
145,146015,DepthScenes,duration_manipulation_targetAtFixation,jsons/VE125_randls_76.json,http://54.235.29.9/FacialAge/BNav_EC2/DepthDuration/v2_depth_duration_MTurk/v2_DepthDuration_HTML.html#413,413,1364,625,1364,768,9-4-2022,11-16-27,146,depth_duration_stimuli/001498_2014-06-19_17-45-14_260595134347_rgbf000129-resize_4/001498_2014-06-19_17-45-14_260595134347_rgbf000129-resize-original.jpg,125,1.4075,0.0,18328,113,meters,jsons/VE125_randls_76.json,2255386,2851768,46,Man
146,146015,DepthScenes,duration_manipulation_targetAtFixation,jsons/VE125_randls_76.json,http://54.235.29.9/FacialAge/BNav_EC2/DepthDuration/v2_depth_duration_MTurk/v2_DepthDuration_HTML.html#413,413,1364,625,1364,768,9-4-2022,11-16-27,147,depth_duration_stimuli/001133_2014-06-17_14-49-16_260595134347_rgbf000100-resize_0/001133_2014-06-17_14-49-16_260595134347_rgbf000100-resize_0-target.png,125,4.2115,1.0,6379,113,meters,jsons/VE125_randls_76.json,2255386,2851768,46,Man
147,146015,DepthScenes,duration_manipulation_targetAtFixation,jsons/VE125_randls_76.json,http://54.235.29.9/FacialAge/BNav_EC2/DepthDuration/v2_depth_duration_MTurk/v2_DepthDuration_HTML.html#413,413,1364,625,1364,768,9-4-2022,11-16-27,148,depth_duration_stimuli/001132_2014-06-17_14-48-54_260595134347_rgbf000100-resize_2/001132_2014-06-17_14-48-54_260595134347_rgbf000100-resize_2-target.png,125,3.753,3.0,15649,126,meters,jsons/VE125_randls_76.json,2255386,2851768,46,Man
148,146015,DepthScenes,duration_manipulation_targetAtFixation,jsons/VE125_randls_76.json,http://54.235.29.9/FacialAge/BNav_EC2/DepthDuration/v2_depth_duration_MTurk/v2_DepthDuration_HTML.html#413,413,1364,625,1364,768,9-4-2022,11-16-27,149,depth_duration_stimuli/000414_2014-06-04_19-49-13_260595134347_rgbf000044-resize_0/000414_2014-06-04_19-49-13_260595134347_rgbf000044-resize_0-target.png,125,4.329,6.0,28172,117,meters,jsons/VE125_randls_76.json,2255386,2851768,46,Man
149,146015,DepthScenes,duration_manipulation_targetAtFixation,jsons/VE125_randls_76.json,http://54.235.29.9/FacialAge/BNav_EC2/DepthDuration/v2_depth_duration_MTurk/v2_DepthDuration_HTML.html#413,413,1364,625,1364,768,9-4-2022,11-16-27,150,depth_duration_stimuli/003129_2014-05-12_10-48-10_094959634447_rgbf000100-resize_0/003129_2014-05-12_10-48-10_094959634447_rgbf000100-resize_0-target.png,125,4.9305,0.0,3405,131,meters,jsons/VE125_randls_76.json,2255386,2851768,46,Man
150,146015,DepthScenes,duration_manipulation_targetAtFixation,jsons/VE125_randls_76.json,http://54.235.29.9/FacialAge/BNav_EC2/DepthDuration/v2_depth_duration_MTurk/v2_DepthDuration_HTML.html#413,413,1364,625,1364,768,9-4-2022,11-16-27,151,depth_duration_stimuli/000788_2014-06-08_22-34-36_260595134347_rgbf000131-resize_1/000788_2014-06-08_22-34-36_260595134347_rgbf000131-resize_1-target.png,125,3.359,1.0,5335,124,meters,jsons/VE125_randls_76.json,2255386,2851768,46,Man
151,146015,DepthScenes,duration_manipulation_targetAtFixation,jsons/VE125_randls_76.json,http://54.235.29.9/FacialAge/BNav_EC2/DepthDuration/v2_depth_duration_MTurk/v2_DepthDuration_HTML.html#413,413,1364,625,1364,768,9-4-2022,11-16-27,152,depth_duration_stimuli/001235_2014-06-17_16-37-36_260595134347_rgbf000084-resize_4/001235_2014-06-17_16-37-36_260595134347_rgbf000084-resize_4-target.png,125,3.6605,3.0,5489,126,meters,jsons/VE125_randls_76.json,2255386,2851768,46,Man
152,146015,DepthScenes,duration_manipulation_targetAtFixation,jsons/VE125_randls_76.json,http://54.235.29.9/FacialAge/BNav_EC2/DepthDuration/v2_depth_duration_MTurk/v2_DepthDuration_HTML.html#413,413,1364,625,1364,768,9-4-2022,11-16-27,153,depth_duration_stimuli/003492_2014-05-21_15-50-55_094959634447_rgbf000828-resize_1/003492_2014-05-21_15-50-55_094959634447_rgbf000828-resize_1-target.png,125,4.06875,1.0,16168,119,meters,jsons/VE125_randls_76.json,2255386,2851768,46,Man
153,146015,DepthScenes,duration_manipulation_targetAtFixation,jsons/VE125_randls_76.json,http://54.235.29.9/FacialAge/BNav_EC2/DepthDuration/v2_depth_duration_MTurk/v2_DepthDuration_HTML.html#413,413,1364,625,1364,768,9-4-2022,11-16-27,154,depth_duration_stimuli/002568_2014-06-24_13-59-21_094959634447_rgbf000062-resize_4/002568_2014-06-24_13-59-21_094959634447_rgbf000062-resize_4-target.png,125,3.015,1.0,4930,133,meters,jsons/VE125_randls_76.json,2255386,2851768,46,Man
154,146015,DepthScenes,duration_manipulation_targetAtFixation,jsons/VE125_randls_76.json,http://54.235.29.9/FacialAge/BNav_EC2/DepthDuration/v2_depth_duration_MTurk/v2_DepthDuration_HTML.html#413,413,1364,625,1364,768,9-4-2022,11-16-27,155,depth_duration_stimuli/002748_2014-06-22_19-07-22_094959634447_rgbf000078-resize_1/002748_2014-06-22_19-07-22_094959634447_rgbf000078-resize_1-target.png,125,4.6705,3.0,14216,125,meters,jsons/VE125_randls_76.json,2255386,2851768,46,Man
155,146015,DepthScenes,duration_manipulation_targetAtFixation,jsons/VE125_randls_76.json,http://54.235.29.9/FacialAge/BNav_EC2/DepthDuration/v2_depth_duration_MTurk/v2_DepthDuration_HTML.html#413,413,1364,625,1364,768,9-4-2022,11-16-27,156,depth_duration_stimuli/002995_2014-06-15_12-31-26_094959634447_rgbf000150-resize_1/002995_2014-06-15_12-31-26_094959634447_rgbf000150-resize_1-target.png,125,3.8360000000000003,3.0,7849,129,meters,jsons/VE125_randls_76.json,2255386,2851768,46,Man
156,146015,DepthScenes,duration_manipulation_targetAtFixation,jsons/VE125_randls_76.json,http://54.235.29.9/FacialAge/BNav_EC2/DepthDuration/v2_depth_duration_MTurk/v2_DepthDuration_HTML.html#413,413,1364,625,1364,768,9-4-2022,11-16-27,157,depth_duration_stimuli/002788_2014-06-22_19-36-03_094959634447_rgbf000088-resize_2/002788_2014-06-22_19-36-03_094959634447_rgbf000088-resize_2-target.png,125,1.6465,3.0,12273,126,meters,jsons/VE125_randls_76.json,2255386,2851768,46,Man
157,146015,DepthScenes,duration_manipulation_targetAtFixation,jsons/VE125_randls_76.json,http://54.235.29.9/FacialAge/BNav_EC2/DepthDuration/v2_depth_duration_MTurk/v2_DepthDuration_HTML.html#413,413,1364,625,1364,768,9-4-2022,11-16-27,158,depth_duration_stimuli/000749_2014-06-08_21-55-06_260595134347_rgbf000070-resize_2/000749_2014-06-08_21-55-06_260595134347_rgbf000070-resize_2-target.png,125,2.331,3.0,3469,122,meters,jsons/VE125_randls_76.json,2255386,2851768,46,Man
158,146015,DepthScenes,duration_manipulation_targetAtFixation,jsons/VE125_randls_76.json,http://54.235.29.9/FacialAge/BNav_EC2/DepthDuration/v2_depth_duration_MTurk/v2_DepthDuration_HTML.html#413,413,1364,625,1364,768,9-4-2022,11-16-27,159,depth_duration_stimuli/000506_2014-06-08_23-21-00_260595134347_rgbf000070-resize_7/000506_2014-06-08_23-21-00_260595134347_rgbf000070-resize_7-target.png,125,4.0585,3.0,6841,135,meters,jsons/VE125_randls_76.json,2255386,2851768,46,Man
159,146015,DepthScenes,duration_manipulation_targetAtFixation,jsons/VE125_randls_76.json,http://54.235.29.9/FacialAge/BNav_EC2/DepthDuration/v2_depth_duration_MTurk/v2_DepthDuration_HTML.html#413,413,1364,625,1364,768,9-4-2022,11-16-27,160,depth_duration_stimuli/003079_2014-06-15_15-18-20_094959634447_rgbf000152-resize_8/003079_2014-06-15_15-18-20_094959634447_rgbf000152-resize_8-target.png,125,2.8775,7.0,6316,125,meters,jsons/VE125_randls_76.json,2255386,2851768,46,Man
160,146015,DepthScenes,duration_manipulation_targetAtFixation,jsons/VE125_randls_76.json,http://54.235.29.9/FacialAge/BNav_EC2/DepthDuration/v2_depth_duration_MTurk/v2_DepthDuration_HTML.html#413,413,1364,625,1364,768,9-4-2022,11-16-27,161,depth_duration_stimuli/002570_2014-06-24_13-59-54_094959634447_rgbf000059-resize_0/002570_2014-06-24_13-59-54_094959634447_rgbf000059-resize_0-target.png,125,4.037,1.0,14766,126,meters,jsons/VE125_randls_76.json,2255386,2851768,46,Man
161,146015,DepthScenes,duration_manipulation_targetAtFixation,jsons/VE125_randls_76.json,http://54.235.29.9/FacialAge/BNav_EC2/DepthDuration/v2_depth_duration_MTurk/v2_DepthDuration_HTML.html#413,413,1364,625,1364,768,9-4-2022,11-16-27,162,depth_duration_stimuli/002467_2014-06-28_20-38-07_260595134347_rgbf000026-resize_2/002467_2014-06-28_20-38-07_260595134347_rgbf000026-resize_2-target.png,125,4.742,5.0,7181,127,meters,jsons/VE125_randls_76.json,2255386,2851768,46,Man
162,146015,DepthScenes,duration_manipulation_targetAtFixation,jsons/VE125_randls_76.json,http://54.235.29.9/FacialAge/BNav_EC2/DepthDuration/v2_depth_duration_MTurk/v2_DepthDuration_HTML.html#413,413,1364,625,1364,768,9-4-2022,11-16-27,163,depth_duration_stimuli/002784_2014-06-22_19-26-30_094959634447_rgbf000083-resize_3/002784_2014-06-22_19-26-30_094959634447_rgbf000083-resize_3-target.png,125,1.8046666666667,1.0,14645,111,meters,jsons/VE125_randls_76.json,2255386,2851768,46,Man
163,146015,DepthScenes,duration_manipulation_targetAtFixation,jsons/VE125_randls_76.json,http://54.235.29.9/FacialAge/BNav_EC2/DepthDuration/v2_depth_duration_MTurk/v2_DepthDuration_HTML.html#413,413,1364,625,1364,768,9-4-2022,11-16-27,164,depth_duration_stimuli/001100_2014-06-15_17-46-26_260595134347_rgbf000225-resize_2/001100_2014-06-15_17-46-26_260595134347_rgbf000225-resize_2-target.png,125,2.24,1.0,7211,109,meters,jsons/VE125_randls_76.json,2255386,2851768,46,Man
