,subjID,experimentName,versionName,sequenceName,url,selected_row,windowWidth,windowHeight,screenWidth,screenHeight,startDate,startTime,trial,stimulus,duration,actual_depth,depth_estimate,trial_RT,log_sceneDuration,unitSelection,seq_filepath,experimentTime,totalTime,age,gender
0,149886,DepthScenes,duration_manipulation_targetAtFixation,jsons/v1_VE250_randls_53.json,http://54.235.29.9/FacialAge/BNav_EC2/DepthDuration/v2_depth_duration_MTurk/v2_DepthDuration_HTML.html#57,57,1366,768,1366,768,8-20-2022,11-58-16,1,depth_duration_stimuli/001244_2014-06-17_16-47-45_260595134347_rgbf000030-resize_4/001244_2014-06-17_16-47-45_260595134347_rgbf000030-resize_4-target.png,250,2.0425,2,4705,248,meters,jsons/v1_VE250_randls_53.json,813350,1093898,56,Man
1,149886,DepthScenes,duration_manipulation_targetAtFixation,jsons/v1_VE250_randls_53.json,http://54.235.29.9/FacialAge/BNav_EC2/DepthDuration/v2_depth_duration_MTurk/v2_DepthDuration_HTML.html#57,57,1366,768,1366,768,8-20-2022,11-58-16,2,depth_duration_stimuli/003495_2014-05-21_16-01-51_094959634447_rgbf000100-resize_3/003495_2014-05-21_16-01-51_094959634447_rgbf000100-resize_3-target.png,250,1.6255,3,3644,135,meters,jsons/v1_VE250_randls_53.json,813350,1093898,56,Man
2,149886,DepthScenes,duration_manipulation_targetAtFixation,jsons/v1_VE250_randls_53.json,http://54.235.29.9/FacialAge/BNav_EC2/DepthDuration/v2_depth_duration_MTurk/v2_DepthDuration_HTML.html#57,57,1366,768,1366,768,8-20-2022,11-58-16,3,depth_duration_stimuli/000878_2014-06-08_22-52-45_260595134347_rgbf000045-resize_2/000878_2014-06-08_22-52-45_260595134347_rgbf000045-resize_2-target.png,250,2.092,4,4436,259,meters,jsons/v1_VE250_randls_53.json,813350,1093898,56,Man
3,149886,DepthScenes,duration_manipulation_targetAtFixation,jsons/v1_VE250_randls_53.json,http://54.235.29.9/FacialAge/BNav_EC2/DepthDuration/v2_depth_duration_MTurk/v2_DepthDuration_HTML.html#57,57,1366,768,1366,768,8-20-2022,11-58-16,4,depth_duration_stimuli/002953_2014-06-08_17-32-18_094959634447_rgbf000059-resize_5/002953_2014-06-08_17-32-18_094959634447_rgbf000059-resize_5-target.png,250,1.551,3,4433,243,meters,jsons/v1_VE250_randls_53.json,813350,1093898,56,Man
4,149886,DepthScenes,duration_manipulation_targetAtFixation,jsons/v1_VE250_randls_53.json,http://54.235.29.9/FacialAge/BNav_EC2/DepthDuration/v2_depth_duration_MTurk/v2_DepthDuration_HTML.html#57,57,1366,768,1366,768,8-20-2022,11-58-16,5,depth_duration_stimuli/000692_2014-06-08_13-09-42_260595134347_rgbf000199-resize_2/000692_2014-06-08_13-09-42_260595134347_rgbf000199-resize_2-target.png,250,3.661,3,4090,242,meters,jsons/v1_VE250_randls_53.json,813350,1093898,56,Man
5,149886,DepthScenes,duration_manipulation_targetAtFixation,jsons/v1_VE250_randls_53.json,http://54.235.29.9/FacialAge/BNav_EC2/DepthDuration/v2_depth_duration_MTurk/v2_DepthDuration_HTML.html#57,57,1366,768,1366,768,8-20-2022,11-58-16,6,depth_duration_stimuli/001094_2014-06-15_17-36-00_260595134347_rgbf000205-resize_0/001094_2014-06-15_17-36-00_260595134347_rgbf000205-resize_0-target.png,250,4.2175,3,4621,249,meters,jsons/v1_VE250_randls_53.json,813350,1093898,56,Man
6,149886,DepthScenes,duration_manipulation_targetAtFixation,jsons/v1_VE250_randls_53.json,http://54.235.29.9/FacialAge/BNav_EC2/DepthDuration/v2_depth_duration_MTurk/v2_DepthDuration_HTML.html#57,57,1366,768,1366,768,8-20-2022,11-58-16,7,depth_duration_stimuli/002039_2014-06-24_20-22-38_260595134347_rgbf000084-resize_1/002039_2014-06-24_20-22-38_260595134347_rgbf000084-resize_1-target.png,250,4.408,3,4229,245,meters,jsons/v1_VE250_randls_53.json,813350,1093898,56,Man
7,149886,DepthScenes,duration_manipulation_targetAtFixation,jsons/v1_VE250_randls_53.json,http://54.235.29.9/FacialAge/BNav_EC2/DepthDuration/v2_depth_duration_MTurk/v2_DepthDuration_HTML.html#57,57,1366,768,1366,768,8-20-2022,11-58-16,8,depth_duration_stimuli/002103_2014-06-25_20-00-40_260595134347_rgbf000049-resize_0/002103_2014-06-25_20-00-40_260595134347_rgbf000049-resize_0-target.png,250,4.105,4,3981,243,meters,jsons/v1_VE250_randls_53.json,813350,1093898,56,Man
8,149886,DepthScenes,duration_manipulation_targetAtFixation,jsons/v1_VE250_randls_53.json,http://54.235.29.9/FacialAge/BNav_EC2/DepthDuration/v2_depth_duration_MTurk/v2_DepthDuration_HTML.html#57,57,1366,768,1366,768,8-20-2022,11-58-16,9,depth_duration_stimuli/000929_2014-06-09_16-33-19_260595134347_rgbf000139-resize_0/000929_2014-06-09_16-33-19_260595134347_rgbf000139-resize_0-target.png,250,2.8680000000000003,2,3679,251,meters,jsons/v1_VE250_randls_53.json,813350,1093898,56,Man
9,149886,DepthScenes,duration_manipulation_targetAtFixation,jsons/v1_VE250_randls_53.json,http://54.235.29.9/FacialAge/BNav_EC2/DepthDuration/v2_depth_duration_MTurk/v2_DepthDuration_HTML.html#57,57,1366,768,1366,768,8-20-2022,11-58-16,10,depth_duration_stimuli/000457_2014-06-08_16-52-43_260595134347_rgbf000199-resize_1/000457_2014-06-08_16-52-43_260595134347_rgbf000199-resize_1-target.png,250,3.6489999999999996,3,4358,244,meters,jsons/v1_VE250_randls_53.json,813350,1093898,56,Man
10,149886,DepthScenes,duration_manipulation_targetAtFixation,jsons/v1_VE250_randls_53.json,http://54.235.29.9/FacialAge/BNav_EC2/DepthDuration/v2_depth_duration_MTurk/v2_DepthDuration_HTML.html#57,57,1366,768,1366,768,8-20-2022,11-58-16,11,depth_duration_stimuli/002213_2014-06-28_18-37-58_260595134347_rgbf000055-resize_1/002213_2014-06-28_18-37-58_260595134347_rgbf000055-resize_1-target.png,250,3.62,3,4604,248,meters,jsons/v1_VE250_randls_53.json,813350,1093898,56,Man
11,149886,DepthScenes,duration_manipulation_targetAtFixation,jsons/v1_VE250_randls_53.json,http://54.235.29.9/FacialAge/BNav_EC2/DepthDuration/v2_depth_duration_MTurk/v2_DepthDuration_HTML.html#57,57,1366,768,1366,768,8-20-2022,11-58-16,12,depth_duration_stimuli/000691_2014-06-08_13-08-50_260595134347_rgbf000132-resize_3/000691_2014-06-08_13-08-50_260595134347_rgbf000132-resize_3-target.png,250,4.1530000000000005,4,3801,248,meters,jsons/v1_VE250_randls_53.json,813350,1093898,56,Man
12,149886,DepthScenes,duration_manipulation_targetAtFixation,jsons/v1_VE250_randls_53.json,http://54.235.29.9/FacialAge/BNav_EC2/DepthDuration/v2_depth_duration_MTurk/v2_DepthDuration_HTML.html#57,57,1366,768,1366,768,8-20-2022,11-58-16,13,depth_duration_stimuli/000569_2014-06-09_22-51-47_260595134347_rgbf000141-resize_3/000569_2014-06-09_22-51-47_260595134347_rgbf000141-resize-original.jpg,250,4.512,0,6127,245,meters,jsons/v1_VE250_randls_53.json,813350,1093898,56,Man
13,149886,DepthScenes,duration_manipulation_targetAtFixation,jsons/v1_VE250_randls_53.json,http://54.235.29.9/FacialAge/BNav_EC2/DepthDuration/v2_depth_duration_MTurk/v2_DepthDuration_HTML.html#57,57,1366,768,1366,768,8-20-2022,11-58-16,14,depth_duration_stimuli/001133_2014-06-17_14-49-16_260595134347_rgbf000100-resize_0/001133_2014-06-17_14-49-16_260595134347_rgbf000100-resize_0-target.png,250,4.2115,3,6193,250,meters,jsons/v1_VE250_randls_53.json,813350,1093898,56,Man
14,149886,DepthScenes,duration_manipulation_targetAtFixation,jsons/v1_VE250_randls_53.json,http://54.235.29.9/FacialAge/BNav_EC2/DepthDuration/v2_depth_duration_MTurk/v2_DepthDuration_HTML.html#57,57,1366,768,1366,768,8-20-2022,11-58-16,15,depth_duration_stimuli/001132_2014-06-17_14-48-54_260595134347_rgbf000100-resize_2/001132_2014-06-17_14-48-54_260595134347_rgbf000100-resize_2-target.png,250,3.753,3,3606,252,meters,jsons/v1_VE250_randls_53.json,813350,1093898,56,Man
15,149886,DepthScenes,duration_manipulation_targetAtFixation,jsons/v1_VE250_randls_53.json,http://54.235.29.9/FacialAge/BNav_EC2/DepthDuration/v2_depth_duration_MTurk/v2_DepthDuration_HTML.html#57,57,1366,768,1366,768,8-20-2022,11-58-16,16,depth_duration_stimuli/001011_2014-06-08_23-18-54_260595134347_rgbf000044-resize_4/001011_2014-06-08_23-18-54_260595134347_rgbf000044-resize_4-target.png,250,2.4730000000000003,2,4504,252,meters,jsons/v1_VE250_randls_53.json,813350,1093898,56,Man
16,149886,DepthScenes,duration_manipulation_targetAtFixation,jsons/v1_VE250_randls_53.json,http://54.235.29.9/FacialAge/BNav_EC2/DepthDuration/v2_depth_duration_MTurk/v2_DepthDuration_HTML.html#57,57,1366,768,1366,768,8-20-2022,11-58-16,17,depth_duration_stimuli/002875_2014-06-01_15-19-00_094959634447_rgbf000151-resize_1/002875_2014-06-01_15-19-00_094959634447_rgbf000151-resize_1-target.png,250,1.9675,3,3535,251,meters,jsons/v1_VE250_randls_53.json,813350,1093898,56,Man
17,149886,DepthScenes,duration_manipulation_targetAtFixation,jsons/v1_VE250_randls_53.json,http://54.235.29.9/FacialAge/BNav_EC2/DepthDuration/v2_depth_duration_MTurk/v2_DepthDuration_HTML.html#57,57,1366,768,1366,768,8-20-2022,11-58-16,18,depth_duration_stimuli/001110_2014-06-15_17-25-28_260595134347_rgbf000150-resize_1/001110_2014-06-15_17-25-28_260595134347_rgbf000150-resize_1-target.png,250,1.7115,2,4870,251,meters,jsons/v1_VE250_randls_53.json,813350,1093898,56,Man
18,149886,DepthScenes,duration_manipulation_targetAtFixation,jsons/v1_VE250_randls_53.json,http://54.235.29.9/FacialAge/BNav_EC2/DepthDuration/v2_depth_duration_MTurk/v2_DepthDuration_HTML.html#57,57,1366,768,1366,768,8-20-2022,11-58-16,19,depth_duration_stimuli/000927_2014-06-09_16-32-30_260595134347_rgbf000123-resize_3/000927_2014-06-09_16-32-30_260595134347_rgbf000123-resize_3-target.png,250,2.6785,3,4700,251,meters,jsons/v1_VE250_randls_53.json,813350,1093898,56,Man
19,149886,DepthScenes,duration_manipulation_targetAtFixation,jsons/v1_VE250_randls_53.json,http://54.235.29.9/FacialAge/BNav_EC2/DepthDuration/v2_depth_duration_MTurk/v2_DepthDuration_HTML.html#57,57,1366,768,1366,768,8-20-2022,11-58-16,20,depth_duration_stimuli/002043_2014-06-24_20-29-38_260595134347_rgbf000039-resize_4/002043_2014-06-24_20-29-38_260595134347_rgbf000039-resize_4-target.png,250,2.8435,2,4252,248,meters,jsons/v1_VE250_randls_53.json,813350,1093898,56,Man
20,149886,DepthScenes,duration_manipulation_targetAtFixation,jsons/v1_VE250_randls_53.json,http://54.235.29.9/FacialAge/BNav_EC2/DepthDuration/v2_depth_duration_MTurk/v2_DepthDuration_HTML.html#57,57,1366,768,1366,768,8-20-2022,11-58-16,21,depth_duration_stimuli/003048_2014-06-15_13-49-43_094959634447_rgbf000150-resize_1/003048_2014-06-15_13-49-43_094959634447_rgbf000150-resize_1-target.png,250,4.0035,3,3287,247,meters,jsons/v1_VE250_randls_53.json,813350,1093898,56,Man
21,149886,DepthScenes,duration_manipulation_targetAtFixation,jsons/v1_VE250_randls_53.json,http://54.235.29.9/FacialAge/BNav_EC2/DepthDuration/v2_depth_duration_MTurk/v2_DepthDuration_HTML.html#57,57,1366,768,1366,768,8-20-2022,11-58-16,22,depth_duration_stimuli/001164_2014-06-17_15-35-46_260595134347_rgbf000085-resize_3/001164_2014-06-17_15-35-46_260595134347_rgbf000085-resize_3-target.png,250,2.354,2,3992,248,meters,jsons/v1_VE250_randls_53.json,813350,1093898,56,Man
22,149886,DepthScenes,duration_manipulation_targetAtFixation,jsons/v1_VE250_randls_53.json,http://54.235.29.9/FacialAge/BNav_EC2/DepthDuration/v2_depth_duration_MTurk/v2_DepthDuration_HTML.html#57,57,1366,768,1366,768,8-20-2022,11-58-16,23,depth_duration_stimuli/001136_2014-06-17_15-19-41_260595134347_rgbf000076-resize_3/001136_2014-06-17_15-19-41_260595134347_rgbf000076-resize_3-target.png,250,1.8655,3,3387,260,meters,jsons/v1_VE250_randls_53.json,813350,1093898,56,Man
23,149886,DepthScenes,duration_manipulation_targetAtFixation,jsons/v1_VE250_randls_53.json,http://54.235.29.9/FacialAge/BNav_EC2/DepthDuration/v2_depth_duration_MTurk/v2_DepthDuration_HTML.html#57,57,1366,768,1366,768,8-20-2022,11-58-16,24,depth_duration_stimuli/001059_2014-06-08_21-53-27_260595134347_rgbf000061-resize_4/001059_2014-06-08_21-53-27_260595134347_rgbf000061-resize_4-target.png,250,2.4185,2,4302,241,meters,jsons/v1_VE250_randls_53.json,813350,1093898,56,Man
24,149886,DepthScenes,duration_manipulation_targetAtFixation,jsons/v1_VE250_randls_53.json,http://54.235.29.9/FacialAge/BNav_EC2/DepthDuration/v2_depth_duration_MTurk/v2_DepthDuration_HTML.html#57,57,1366,768,1366,768,8-20-2022,11-58-16,25,depth_duration_stimuli/001032_2014-06-08_13-23-17_260595134347_rgbf000021-resize_3/001032_2014-06-08_13-23-17_260595134347_rgbf000021-resize_3-target.png,250,3.2725,3,4319,242,meters,jsons/v1_VE250_randls_53.json,813350,1093898,56,Man
25,149886,DepthScenes,duration_manipulation_targetAtFixation,jsons/v1_VE250_randls_53.json,http://54.235.29.9/FacialAge/BNav_EC2/DepthDuration/v2_depth_duration_MTurk/v2_DepthDuration_HTML.html#57,57,1366,768,1366,768,8-20-2022,11-58-16,26,depth_duration_stimuli/002600_2014-06-24_14-27-04_094959634447_rgbf000074-resize_2/002600_2014-06-24_14-27-04_094959634447_rgbf000074-resize_2-target.png,250,2.7575,2,5581,245,meters,jsons/v1_VE250_randls_53.json,813350,1093898,56,Man
26,149886,DepthScenes,duration_manipulation_targetAtFixation,jsons/v1_VE250_randls_53.json,http://54.235.29.9/FacialAge/BNav_EC2/DepthDuration/v2_depth_duration_MTurk/v2_DepthDuration_HTML.html#57,57,1366,768,1366,768,8-20-2022,11-58-16,27,depth_duration_stimuli/003228_2014-05-14_13-42-35_094959634447_rgbf000101-resize_1/003228_2014-05-14_13-42-35_094959634447_rgbf000101-resize_1-target.png,250,1.9680000000000002,3,4669,250,meters,jsons/v1_VE250_randls_53.json,813350,1093898,56,Man
27,149886,DepthScenes,duration_manipulation_targetAtFixation,jsons/v1_VE250_randls_53.json,http://54.235.29.9/FacialAge/BNav_EC2/DepthDuration/v2_depth_duration_MTurk/v2_DepthDuration_HTML.html#57,57,1366,768,1366,768,8-20-2022,11-58-16,28,depth_duration_stimuli/002509_2014-06-24_13-19-22_094959634447_rgbf000077-resize_0/002509_2014-06-24_13-19-22_094959634447_rgbf000077-resize_0-target.png,250,1.3065,2,4842,252,meters,jsons/v1_VE250_randls_53.json,813350,1093898,56,Man
28,149886,DepthScenes,duration_manipulation_targetAtFixation,jsons/v1_VE250_randls_53.json,http://54.235.29.9/FacialAge/BNav_EC2/DepthDuration/v2_depth_duration_MTurk/v2_DepthDuration_HTML.html#57,57,1366,768,1366,768,8-20-2022,11-58-16,29,depth_duration_stimuli/003338_2014-05-20_11-01-23_094959634447_rgbf000051-resize_6/003338_2014-05-20_11-01-23_094959634447_rgbf000051-resize_6-target.png,250,1.693,3,4291,251,meters,jsons/v1_VE250_randls_53.json,813350,1093898,56,Man
29,149886,DepthScenes,duration_manipulation_targetAtFixation,jsons/v1_VE250_randls_53.json,http://54.235.29.9/FacialAge/BNav_EC2/DepthDuration/v2_depth_duration_MTurk/v2_DepthDuration_HTML.html#57,57,1366,768,1366,768,8-20-2022,11-58-16,30,depth_duration_stimuli/000375_2014-06-08_11-17-29_260595134347_rgbf000133-resize_2/000375_2014-06-08_11-17-29_260595134347_rgbf000133-resize-original.jpg,250,4.718,0,4886,271,meters,jsons/v1_VE250_randls_53.json,813350,1093898,56,Man
30,149886,DepthScenes,duration_manipulation_targetAtFixation,jsons/v1_VE250_randls_53.json,http://54.235.29.9/FacialAge/BNav_EC2/DepthDuration/v2_depth_duration_MTurk/v2_DepthDuration_HTML.html#57,57,1366,768,1366,768,8-20-2022,11-58-16,31,depth_duration_stimuli/002153_2014-06-25_21-27-18_260595134347_rgbf000038-resize_5/002153_2014-06-25_21-27-18_260595134347_rgbf000038-resize_5-target.png,250,2.505,2,6538,242,meters,jsons/v1_VE250_randls_53.json,813350,1093898,56,Man
31,149886,DepthScenes,duration_manipulation_targetAtFixation,jsons/v1_VE250_randls_53.json,http://54.235.29.9/FacialAge/BNav_EC2/DepthDuration/v2_depth_duration_MTurk/v2_DepthDuration_HTML.html#57,57,1366,768,1366,768,8-20-2022,11-58-16,32,depth_duration_stimuli/002660_2014-06-13_15-44-18_094959634447_rgbf001878-resize_2/002660_2014-06-13_15-44-18_094959634447_rgbf001878-resize_2-target.png,250,3.576,3,5545,243,meters,jsons/v1_VE250_randls_53.json,813350,1093898,56,Man
32,149886,DepthScenes,duration_manipulation_targetAtFixation,jsons/v1_VE250_randls_53.json,http://54.235.29.9/FacialAge/BNav_EC2/DepthDuration/v2_depth_duration_MTurk/v2_DepthDuration_HTML.html#57,57,1366,768,1366,768,8-20-2022,11-58-16,33,depth_duration_stimuli/002989_2014-06-15_12-25-03_094959634447_rgbf000150-resize_3/002989_2014-06-15_12-25-03_094959634447_rgbf000150-resize_3-target.png,250,4.1975,3,12868,237,meters,jsons/v1_VE250_randls_53.json,813350,1093898,56,Man
33,149886,DepthScenes,duration_manipulation_targetAtFixation,jsons/v1_VE250_randls_53.json,http://54.235.29.9/FacialAge/BNav_EC2/DepthDuration/v2_depth_duration_MTurk/v2_DepthDuration_HTML.html#57,57,1366,768,1366,768,8-20-2022,11-58-16,34,depth_duration_stimuli/000866_2014-06-09_20-45-42_260595134347_rgbf000139-resize_1/000866_2014-06-09_20-45-42_260595134347_rgbf000139-resize_1-target.png,250,3.2155,2,6348,211,meters,jsons/v1_VE250_randls_53.json,813350,1093898,56,Man
34,149886,DepthScenes,duration_manipulation_targetAtFixation,jsons/v1_VE250_randls_53.json,http://54.235.29.9/FacialAge/BNav_EC2/DepthDuration/v2_depth_duration_MTurk/v2_DepthDuration_HTML.html#57,57,1366,768,1366,768,8-20-2022,11-58-16,35,depth_duration_stimuli/000788_2014-06-08_22-34-36_260595134347_rgbf000131-resize_1/000788_2014-06-08_22-34-36_260595134347_rgbf000131-resize_1-target.png,250,3.359,3,7155,250,meters,jsons/v1_VE250_randls_53.json,813350,1093898,56,Man
35,149886,DepthScenes,duration_manipulation_targetAtFixation,jsons/v1_VE250_randls_53.json,http://54.235.29.9/FacialAge/BNav_EC2/DepthDuration/v2_depth_duration_MTurk/v2_DepthDuration_HTML.html#57,57,1366,768,1366,768,8-20-2022,11-58-16,36,depth_duration_stimuli/001235_2014-06-17_16-37-36_260595134347_rgbf000084-resize_4/001235_2014-06-17_16-37-36_260595134347_rgbf000084-resize_4-target.png,250,3.6605,3,6402,247,meters,jsons/v1_VE250_randls_53.json,813350,1093898,56,Man
36,149886,DepthScenes,duration_manipulation_targetAtFixation,jsons/v1_VE250_randls_53.json,http://54.235.29.9/FacialAge/BNav_EC2/DepthDuration/v2_depth_duration_MTurk/v2_DepthDuration_HTML.html#57,57,1366,768,1366,768,8-20-2022,11-58-16,37,depth_duration_stimuli/003492_2014-05-21_15-50-55_094959634447_rgbf000828-resize_1/003492_2014-05-21_15-50-55_094959634447_rgbf000828-resize_1-target.png,250,4.06875,2,4588,250,meters,jsons/v1_VE250_randls_53.json,813350,1093898,56,Man
37,149886,DepthScenes,duration_manipulation_targetAtFixation,jsons/v1_VE250_randls_53.json,http://54.235.29.9/FacialAge/BNav_EC2/DepthDuration/v2_depth_duration_MTurk/v2_DepthDuration_HTML.html#57,57,1366,768,1366,768,8-20-2022,11-58-16,38,depth_duration_stimuli/002568_2014-06-24_13-59-21_094959634447_rgbf000062-resize_4/002568_2014-06-24_13-59-21_094959634447_rgbf000062-resize_4-target.png,250,3.015,1,4091,250,meters,jsons/v1_VE250_randls_53.json,813350,1093898,56,Man
38,149886,DepthScenes,duration_manipulation_targetAtFixation,jsons/v1_VE250_randls_53.json,http://54.235.29.9/FacialAge/BNav_EC2/DepthDuration/v2_depth_duration_MTurk/v2_DepthDuration_HTML.html#57,57,1366,768,1366,768,8-20-2022,11-58-16,39,depth_duration_stimuli/000736_2014-06-08_18-24-15_260595134347_rgbf000206-resize_3/000736_2014-06-08_18-24-15_260595134347_rgbf000206-resize_3-target.png,250,3.515,3,3761,259,meters,jsons/v1_VE250_randls_53.json,813350,1093898,56,Man
39,149886,DepthScenes,duration_manipulation_targetAtFixation,jsons/v1_VE250_randls_53.json,http://54.235.29.9/FacialAge/BNav_EC2/DepthDuration/v2_depth_duration_MTurk/v2_DepthDuration_HTML.html#57,57,1366,768,1366,768,8-20-2022,11-58-16,40,depth_duration_stimuli/000137_2014-05-20_17-04-49_260595134347_rgbf000120-resize_1/000137_2014-05-20_17-04-49_260595134347_rgbf000120-resize_1-target.png,250,3.786,3,5002,250,meters,jsons/v1_VE250_randls_53.json,813350,1093898,56,Man
40,149886,DepthScenes,duration_manipulation_targetAtFixation,jsons/v1_VE250_randls_53.json,http://54.235.29.9/FacialAge/BNav_EC2/DepthDuration/v2_depth_duration_MTurk/v2_DepthDuration_HTML.html#57,57,1366,768,1366,768,8-20-2022,11-58-16,41,depth_duration_stimuli/000469_2014-06-09_19-42-10_260595134347_rgbf000081-resize_1/000469_2014-06-09_19-42-10_260595134347_rgbf000081-resize_1-target.png,250,1.652,3,4283,234,meters,jsons/v1_VE250_randls_53.json,813350,1093898,56,Man
41,149886,DepthScenes,duration_manipulation_targetAtFixation,jsons/v1_VE250_randls_53.json,http://54.235.29.9/FacialAge/BNav_EC2/DepthDuration/v2_depth_duration_MTurk/v2_DepthDuration_HTML.html#57,57,1366,768,1366,768,8-20-2022,11-58-16,42,depth_duration_stimuli/000483_2014-06-09_20-41-45_260595134347_rgbf000116-resize_4/000483_2014-06-09_20-41-45_260595134347_rgbf000116-resize_4-target.png,250,1.337,3,5674,237,meters,jsons/v1_VE250_randls_53.json,813350,1093898,56,Man
42,149886,DepthScenes,duration_manipulation_targetAtFixation,jsons/v1_VE250_randls_53.json,http://54.235.29.9/FacialAge/BNav_EC2/DepthDuration/v2_depth_duration_MTurk/v2_DepthDuration_HTML.html#57,57,1366,768,1366,768,8-20-2022,11-58-16,43,depth_duration_stimuli/001570_2014-06-20_17-21-09_260595134347_rgbf000135-resize_4/001570_2014-06-20_17-21-09_260595134347_rgbf000135-resize_4-target.png,250,4.467,3,5376,247,meters,jsons/v1_VE250_randls_53.json,813350,1093898,56,Man
43,149886,DepthScenes,duration_manipulation_targetAtFixation,jsons/v1_VE250_randls_53.json,http://54.235.29.9/FacialAge/BNav_EC2/DepthDuration/v2_depth_duration_MTurk/v2_DepthDuration_HTML.html#57,57,1366,768,1366,768,8-20-2022,11-58-16,44,depth_duration_stimuli/001392_2014-06-19_16-07-59_260595134347_rgbf000046-resize_1/001392_2014-06-19_16-07-59_260595134347_rgbf000046-resize_1-target.png,250,4.135,4,5411,245,meters,jsons/v1_VE250_randls_53.json,813350,1093898,56,Man
44,149886,DepthScenes,duration_manipulation_targetAtFixation,jsons/v1_VE250_randls_53.json,http://54.235.29.9/FacialAge/BNav_EC2/DepthDuration/v2_depth_duration_MTurk/v2_DepthDuration_HTML.html#57,57,1366,768,1366,768,8-20-2022,11-58-16,45,depth_duration_stimuli/000787_2014-06-08_22-33-53_260595134347_rgbf000175-resize_1/000787_2014-06-08_22-33-53_260595134347_rgbf000175-resize-original.jpg,250,4.784,0,4881,262,meters,jsons/v1_VE250_randls_53.json,813350,1093898,56,Man
45,149886,DepthScenes,duration_manipulation_targetAtFixation,jsons/v1_VE250_randls_53.json,http://54.235.29.9/FacialAge/BNav_EC2/DepthDuration/v2_depth_duration_MTurk/v2_DepthDuration_HTML.html#57,57,1366,768,1366,768,8-20-2022,11-58-16,46,depth_duration_stimuli/001810_2014-06-26_20-51-35_260595134347_rgbf000040-resize_3/001810_2014-06-26_20-51-35_260595134347_rgbf000040-resize_3-target.png,250,2.2525,3,5234,235,meters,jsons/v1_VE250_randls_53.json,813350,1093898,56,Man
46,149886,DepthScenes,duration_manipulation_targetAtFixation,jsons/v1_VE250_randls_53.json,http://54.235.29.9/FacialAge/BNav_EC2/DepthDuration/v2_depth_duration_MTurk/v2_DepthDuration_HTML.html#57,57,1366,768,1366,768,8-20-2022,11-58-16,47,depth_duration_stimuli/003010_2014-06-15_12-54-35_094959634447_rgbf000112-resize_0/003010_2014-06-15_12-54-35_094959634447_rgbf000112-resize_0-target.png,250,3.1185,4,5432,248,meters,jsons/v1_VE250_randls_53.json,813350,1093898,56,Man
47,149886,DepthScenes,duration_manipulation_targetAtFixation,jsons/v1_VE250_randls_53.json,http://54.235.29.9/FacialAge/BNav_EC2/DepthDuration/v2_depth_duration_MTurk/v2_DepthDuration_HTML.html#57,57,1366,768,1366,768,8-20-2022,11-58-16,48,depth_duration_stimuli/002549_2014-06-24_13-41-39_094959634447_rgbf000022-resize_3/002549_2014-06-24_13-41-39_094959634447_rgbf000022-resize_3-target.png,250,1.476,2,6350,248,meters,jsons/v1_VE250_randls_53.json,813350,1093898,56,Man
48,149886,DepthScenes,duration_manipulation_targetAtFixation,jsons/v1_VE250_randls_53.json,http://54.235.29.9/FacialAge/BNav_EC2/DepthDuration/v2_depth_duration_MTurk/v2_DepthDuration_HTML.html#57,57,1366,768,1366,768,8-20-2022,11-58-16,49,depth_duration_stimuli/002750_2014-06-22_19-08-03_094959634447_rgbf000094-resize_4/002750_2014-06-22_19-08-03_094959634447_rgbf000094-resize_4-target.png,250,2.354,3,4844,260,meters,jsons/v1_VE250_randls_53.json,813350,1093898,56,Man
49,149886,DepthScenes,duration_manipulation_targetAtFixation,jsons/v1_VE250_randls_53.json,http://54.235.29.9/FacialAge/BNav_EC2/DepthDuration/v2_depth_duration_MTurk/v2_DepthDuration_HTML.html#57,57,1366,768,1366,768,8-20-2022,11-58-16,50,depth_duration_stimuli/003070_2014-06-15_14-58-27_094959634447_rgbf000150-resize_3/003070_2014-06-15_14-58-27_094959634447_rgbf000150-resize_3-target.png,250,2.9415,3,5822,140,meters,jsons/v1_VE250_randls_53.json,813350,1093898,56,Man
50,149886,DepthScenes,duration_manipulation_targetAtFixation,jsons/v1_VE250_randls_53.json,http://54.235.29.9/FacialAge/BNav_EC2/DepthDuration/v2_depth_duration_MTurk/v2_DepthDuration_HTML.html#57,57,1366,768,1366,768,8-20-2022,11-58-16,51,depth_duration_stimuli/000943_2014-06-09_19-31-07_260595134347_rgbf000128-resize_1/000943_2014-06-09_19-31-07_260595134347_rgbf000128-resize_1-target.png,250,1.9765,4,4725,250,meters,jsons/v1_VE250_randls_53.json,813350,1093898,56,Man
51,149886,DepthScenes,duration_manipulation_targetAtFixation,jsons/v1_VE250_randls_53.json,http://54.235.29.9/FacialAge/BNav_EC2/DepthDuration/v2_depth_duration_MTurk/v2_DepthDuration_HTML.html#57,57,1366,768,1366,768,8-20-2022,11-58-16,52,depth_duration_stimuli/003292_2014-05-14_21-53-49_094959634447_rgbf000100-resize_2/003292_2014-05-14_21-53-49_094959634447_rgbf000100-resize_2-target.png,250,3.4815,3,4174,252,meters,jsons/v1_VE250_randls_53.json,813350,1093898,56,Man
52,149886,DepthScenes,duration_manipulation_targetAtFixation,jsons/v1_VE250_randls_53.json,http://54.235.29.9/FacialAge/BNav_EC2/DepthDuration/v2_depth_duration_MTurk/v2_DepthDuration_HTML.html#57,57,1366,768,1366,768,8-20-2022,11-58-16,53,depth_duration_stimuli/002639_2014-06-24_14-51-37_094959634447_rgbf000074-resize_4/002639_2014-06-24_14-51-37_094959634447_rgbf000074-resize_4-target.png,250,4.0375,2,5027,254,meters,jsons/v1_VE250_randls_53.json,813350,1093898,56,Man
53,149886,DepthScenes,duration_manipulation_targetAtFixation,jsons/v1_VE250_randls_53.json,http://54.235.29.9/FacialAge/BNav_EC2/DepthDuration/v2_depth_duration_MTurk/v2_DepthDuration_HTML.html#57,57,1366,768,1366,768,8-20-2022,11-58-16,54,depth_duration_stimuli/002905_2014-06-03_18-04-43_094959634447_rgbf000151-resize_2/002905_2014-06-03_18-04-43_094959634447_rgbf000151-resize_2-target.png,250,2.0295,3,3822,249,meters,jsons/v1_VE250_randls_53.json,813350,1093898,56,Man
54,149886,DepthScenes,duration_manipulation_targetAtFixation,jsons/v1_VE250_randls_53.json,http://54.235.29.9/FacialAge/BNav_EC2/DepthDuration/v2_depth_duration_MTurk/v2_DepthDuration_HTML.html#57,57,1366,768,1366,768,8-20-2022,11-58-16,55,depth_duration_stimuli/003423_2014-05-21_10-23-26_094959634447_rgbf002665-resize_2/003423_2014-05-21_10-23-26_094959634447_rgbf002665-resize_2-target.png,250,3.2575,3,5176,246,meters,jsons/v1_VE250_randls_53.json,813350,1093898,56,Man
55,149886,DepthScenes,duration_manipulation_targetAtFixation,jsons/v1_VE250_randls_53.json,http://54.235.29.9/FacialAge/BNav_EC2/DepthDuration/v2_depth_duration_MTurk/v2_DepthDuration_HTML.html#57,57,1366,768,1366,768,8-20-2022,11-58-16,56,depth_duration_stimuli/002663_2014-06-13_15-50-26_094959634447_rgbf000075-resize_1/002663_2014-06-13_15-50-26_094959634447_rgbf000075-resize_1-target.png,250,4.7495,3,6000,251,meters,jsons/v1_VE250_randls_53.json,813350,1093898,56,Man
56,149886,DepthScenes,duration_manipulation_targetAtFixation,jsons/v1_VE250_randls_53.json,http://54.235.29.9/FacialAge/BNav_EC2/DepthDuration/v2_depth_duration_MTurk/v2_DepthDuration_HTML.html#57,57,1366,768,1366,768,8-20-2022,11-58-16,57,depth_duration_stimuli/000409_2014-06-04_19-23-33_260595134347_rgbf000067-resize_0/000409_2014-06-04_19-23-33_260595134347_rgbf000067-resize_0-target.png,250,3.7335,2,6999,254,meters,jsons/v1_VE250_randls_53.json,813350,1093898,56,Man
57,149886,DepthScenes,duration_manipulation_targetAtFixation,jsons/v1_VE250_randls_53.json,http://54.235.29.9/FacialAge/BNav_EC2/DepthDuration/v2_depth_duration_MTurk/v2_DepthDuration_HTML.html#57,57,1366,768,1366,768,8-20-2022,11-58-16,58,depth_duration_stimuli/000906_2014-06-08_13-35-43_260595134347_rgbf000155-resize_1/000906_2014-06-08_13-35-43_260595134347_rgbf000155-resize_1-target.png,250,2.8489999999999998,3,5984,242,meters,jsons/v1_VE250_randls_53.json,813350,1093898,56,Man
58,149886,DepthScenes,duration_manipulation_targetAtFixation,jsons/v1_VE250_randls_53.json,http://54.235.29.9/FacialAge/BNav_EC2/DepthDuration/v2_depth_duration_MTurk/v2_DepthDuration_HTML.html#57,57,1366,768,1366,768,8-20-2022,11-58-16,59,depth_duration_stimuli/002805_2014-06-22_19-54-03_094959634447_rgbf000079-resize_1/002805_2014-06-22_19-54-03_094959634447_rgbf000079-resize_1-target.png,250,3.1439999999999997,3,5445,243,meters,jsons/v1_VE250_randls_53.json,813350,1093898,56,Man
59,149886,DepthScenes,duration_manipulation_targetAtFixation,jsons/v1_VE250_randls_53.json,http://54.235.29.9/FacialAge/BNav_EC2/DepthDuration/v2_depth_duration_MTurk/v2_DepthDuration_HTML.html#57,57,1366,768,1366,768,8-20-2022,11-58-16,60,depth_duration_stimuli/000773_2014-06-08_22-24-54_260595134347_rgbf000093-resize_1/000773_2014-06-08_22-24-54_260595134347_rgbf000093-resize_1-target.png,250,4.973,2,5147,243,meters,jsons/v1_VE250_randls_53.json,813350,1093898,56,Man
60,149886,DepthScenes,duration_manipulation_targetAtFixation,jsons/v1_VE250_randls_53.json,http://54.235.29.9/FacialAge/BNav_EC2/DepthDuration/v2_depth_duration_MTurk/v2_DepthDuration_HTML.html#57,57,1366,768,1366,768,8-20-2022,11-58-16,61,depth_duration_stimuli/002414_2014-06-28_20-24-58_260595134347_rgbf000067-resize_4/002414_2014-06-28_20-24-58_260595134347_rgbf000067-resize_4-target.png,250,4.363,3,5236,249,meters,jsons/v1_VE250_randls_53.json,813350,1093898,56,Man
61,149886,DepthScenes,duration_manipulation_targetAtFixation,jsons/v1_VE250_randls_53.json,http://54.235.29.9/FacialAge/BNav_EC2/DepthDuration/v2_depth_duration_MTurk/v2_DepthDuration_HTML.html#57,57,1366,768,1366,768,8-20-2022,11-58-16,62,depth_duration_stimuli/002725_2014-06-22_11-47-51_094959634447_rgbf000070-resize_1/002725_2014-06-22_11-47-51_094959634447_rgbf000070-resize_1-target.png,250,2.195,3,4866,257,meters,jsons/v1_VE250_randls_53.json,813350,1093898,56,Man
62,149886,DepthScenes,duration_manipulation_targetAtFixation,jsons/v1_VE250_randls_53.json,http://54.235.29.9/FacialAge/BNav_EC2/DepthDuration/v2_depth_duration_MTurk/v2_DepthDuration_HTML.html#57,57,1366,768,1366,768,8-20-2022,11-58-16,63,depth_duration_stimuli/002344_2014-06-28_20-06-29_260595134347_rgbf000030-resize_1/002344_2014-06-28_20-06-29_260595134347_rgbf000030-resize_1-target.png,250,1.5795,3,4895,249,meters,jsons/v1_VE250_randls_53.json,813350,1093898,56,Man
63,149886,DepthScenes,duration_manipulation_targetAtFixation,jsons/v1_VE250_randls_53.json,http://54.235.29.9/FacialAge/BNav_EC2/DepthDuration/v2_depth_duration_MTurk/v2_DepthDuration_HTML.html#57,57,1366,768,1366,768,8-20-2022,11-58-16,64,depth_duration_stimuli/002445_2014-06-28_20-32-16_260595134347_rgbf000029-resize_4/002445_2014-06-28_20-32-16_260595134347_rgbf000029-resize_4-target.png,250,2.5315,3,5842,244,meters,jsons/v1_VE250_randls_53.json,813350,1093898,56,Man
64,149886,DepthScenes,duration_manipulation_targetAtFixation,jsons/v1_VE250_randls_53.json,http://54.235.29.9/FacialAge/BNav_EC2/DepthDuration/v2_depth_duration_MTurk/v2_DepthDuration_HTML.html#57,57,1366,768,1366,768,8-20-2022,11-58-16,65,depth_duration_stimuli/000780_2014-06-08_22-28-29_260595134347_rgbf000126-resize_1/000780_2014-06-08_22-28-29_260595134347_rgbf000126-resize_1-target.png,250,3.3825,2,4056,253,meters,jsons/v1_VE250_randls_53.json,813350,1093898,56,Man
65,149886,DepthScenes,duration_manipulation_targetAtFixation,jsons/v1_VE250_randls_53.json,http://54.235.29.9/FacialAge/BNav_EC2/DepthDuration/v2_depth_duration_MTurk/v2_DepthDuration_HTML.html#57,57,1366,768,1366,768,8-20-2022,11-58-16,66,depth_duration_stimuli/001222_2014-06-17_16-24-06_260595134347_rgbf000073-resize_0/001222_2014-06-17_16-24-06_260595134347_rgbf000073-resize-original.jpg,250,1.4385,3,4228,245,meters,jsons/v1_VE250_randls_53.json,813350,1093898,56,Man
66,149886,DepthScenes,duration_manipulation_targetAtFixation,jsons/v1_VE250_randls_53.json,http://54.235.29.9/FacialAge/BNav_EC2/DepthDuration/v2_depth_duration_MTurk/v2_DepthDuration_HTML.html#57,57,1366,768,1366,768,8-20-2022,11-58-16,67,depth_duration_stimuli/002964_2014-06-08_17-46-11_094959634447_rgbf000091-resize_4/002964_2014-06-08_17-46-11_094959634447_rgbf000091-resize_4-target.png,250,1.6909999999999998,3,5314,246,meters,jsons/v1_VE250_randls_53.json,813350,1093898,56,Man
67,149886,DepthScenes,duration_manipulation_targetAtFixation,jsons/v1_VE250_randls_53.json,http://54.235.29.9/FacialAge/BNav_EC2/DepthDuration/v2_depth_duration_MTurk/v2_DepthDuration_HTML.html#57,57,1366,768,1366,768,8-20-2022,11-58-16,68,depth_duration_stimuli/002136_2014-06-25_21-18-03_260595134347_rgbf000109-resize_3/002136_2014-06-25_21-18-03_260595134347_rgbf000109-resize_3-target.png,250,1.9569999999999999,2,4982,233,meters,jsons/v1_VE250_randls_53.json,813350,1093898,56,Man
68,149886,DepthScenes,duration_manipulation_targetAtFixation,jsons/v1_VE250_randls_53.json,http://54.235.29.9/FacialAge/BNav_EC2/DepthDuration/v2_depth_duration_MTurk/v2_DepthDuration_HTML.html#57,57,1366,768,1366,768,8-20-2022,11-58-16,69,depth_duration_stimuli/001449_2014-06-19_17-01-27_260595134347_rgbf000116-resize_2/001449_2014-06-19_17-01-27_260595134347_rgbf000116-resize_2-target.png,250,3.452,3,4409,256,meters,jsons/v1_VE250_randls_53.json,813350,1093898,56,Man
69,149886,DepthScenes,duration_manipulation_targetAtFixation,jsons/v1_VE250_randls_53.json,http://54.235.29.9/FacialAge/BNav_EC2/DepthDuration/v2_depth_duration_MTurk/v2_DepthDuration_HTML.html#57,57,1366,768,1366,768,8-20-2022,11-58-16,70,depth_duration_stimuli/001450_2014-06-19_17-02-03_260595134347_rgbf000203-resize_4/001450_2014-06-19_17-02-03_260595134347_rgbf000203-resize_4-target.png,250,4.0106666666667,3,5073,250,meters,jsons/v1_VE250_randls_53.json,813350,1093898,56,Man
70,149886,DepthScenes,duration_manipulation_targetAtFixation,jsons/v1_VE250_randls_53.json,http://54.235.29.9/FacialAge/BNav_EC2/DepthDuration/v2_depth_duration_MTurk/v2_DepthDuration_HTML.html#57,57,1366,768,1366,768,8-20-2022,11-58-16,71,depth_duration_stimuli/002570_2014-06-24_13-59-54_094959634447_rgbf000059-resize_0/002570_2014-06-24_13-59-54_094959634447_rgbf000059-resize_0-target.png,250,4.037,3,4782,249,meters,jsons/v1_VE250_randls_53.json,813350,1093898,56,Man
71,149886,DepthScenes,duration_manipulation_targetAtFixation,jsons/v1_VE250_randls_53.json,http://54.235.29.9/FacialAge/BNav_EC2/DepthDuration/v2_depth_duration_MTurk/v2_DepthDuration_HTML.html#57,57,1366,768,1366,768,8-20-2022,11-58-16,72,depth_duration_stimuli/002467_2014-06-28_20-38-07_260595134347_rgbf000026-resize_2/002467_2014-06-28_20-38-07_260595134347_rgbf000026-resize_2-target.png,250,4.742,2,5118,250,meters,jsons/v1_VE250_randls_53.json,813350,1093898,56,Man
72,149886,DepthScenes,duration_manipulation_targetAtFixation,jsons/v1_VE250_randls_53.json,http://54.235.29.9/FacialAge/BNav_EC2/DepthDuration/v2_depth_duration_MTurk/v2_DepthDuration_HTML.html#57,57,1366,768,1366,768,8-20-2022,11-58-16,73,depth_duration_stimuli/003621_2014-05-23_18-06-08_094959634447_rgbf000101-resize_1/003621_2014-05-23_18-06-08_094959634447_rgbf000101-resize_1-target.png,250,3.9835,3,4591,258,meters,jsons/v1_VE250_randls_53.json,813350,1093898,56,Man
73,149886,DepthScenes,duration_manipulation_targetAtFixation,jsons/v1_VE250_randls_53.json,http://54.235.29.9/FacialAge/BNav_EC2/DepthDuration/v2_depth_duration_MTurk/v2_DepthDuration_HTML.html#57,57,1366,768,1366,768,8-20-2022,11-58-16,74,depth_duration_stimuli/001584_2014-06-20_11-07-43_260595134347_rgbf000002-resize_1/001584_2014-06-20_11-07-43_260595134347_rgbf000002-resize_1-target.png,250,3.53,2,3811,241,meters,jsons/v1_VE250_randls_53.json,813350,1093898,56,Man
74,149886,DepthScenes,duration_manipulation_targetAtFixation,jsons/v1_VE250_randls_53.json,http://54.235.29.9/FacialAge/BNav_EC2/DepthDuration/v2_depth_duration_MTurk/v2_DepthDuration_HTML.html#57,57,1366,768,1366,768,8-20-2022,11-58-16,75,depth_duration_stimuli/000758_2014-06-08_22-05-08_260595134347_rgbf000085-resize_0/000758_2014-06-08_22-05-08_260595134347_rgbf000085-resize_0-target.png,250,3.3810000000000002,3,4302,228,meters,jsons/v1_VE250_randls_53.json,813350,1093898,56,Man
75,149886,DepthScenes,duration_manipulation_targetAtFixation,jsons/v1_VE250_randls_53.json,http://54.235.29.9/FacialAge/BNav_EC2/DepthDuration/v2_depth_duration_MTurk/v2_DepthDuration_HTML.html#57,57,1366,768,1366,768,8-20-2022,11-58-16,76,depth_duration_stimuli/000854_2014-06-09_19-43-13_260595134347_rgbf000066-resize_0/000854_2014-06-09_19-43-13_260595134347_rgbf000066-resize_0-target.png,250,3.068,3,5665,241,meters,jsons/v1_VE250_randls_53.json,813350,1093898,56,Man
76,149886,DepthScenes,duration_manipulation_targetAtFixation,jsons/v1_VE250_randls_53.json,http://54.235.29.9/FacialAge/BNav_EC2/DepthDuration/v2_depth_duration_MTurk/v2_DepthDuration_HTML.html#57,57,1366,768,1366,768,8-20-2022,11-58-16,77,depth_duration_stimuli/002784_2014-06-22_19-26-30_094959634447_rgbf000083-resize_3/002784_2014-06-22_19-26-30_094959634447_rgbf000083-resize_3-target.png,250,1.8046666666667,3,4616,250,meters,jsons/v1_VE250_randls_53.json,813350,1093898,56,Man
77,149886,DepthScenes,duration_manipulation_targetAtFixation,jsons/v1_VE250_randls_53.json,http://54.235.29.9/FacialAge/BNav_EC2/DepthDuration/v2_depth_duration_MTurk/v2_DepthDuration_HTML.html#57,57,1366,768,1366,768,8-20-2022,11-58-16,78,depth_duration_stimuli/001100_2014-06-15_17-46-26_260595134347_rgbf000225-resize_2/001100_2014-06-15_17-46-26_260595134347_rgbf000225-resize_2-target.png,250,2.24,2,5488,240,meters,jsons/v1_VE250_randls_53.json,813350,1093898,56,Man
78,149886,DepthScenes,duration_manipulation_targetAtFixation,jsons/v1_VE250_randls_53.json,http://54.235.29.9/FacialAge/BNav_EC2/DepthDuration/v2_depth_duration_MTurk/v2_DepthDuration_HTML.html#57,57,1366,768,1366,768,8-20-2022,11-58-16,79,depth_duration_stimuli/001158_2014-06-17_15-32-16_260595134347_rgbf000138-resize_2/001158_2014-06-17_15-32-16_260595134347_rgbf000138-resize_2-target.png,250,4.5315,2,5078,238,meters,jsons/v1_VE250_randls_53.json,813350,1093898,56,Man
79,149886,DepthScenes,duration_manipulation_targetAtFixation,jsons/v1_VE250_randls_53.json,http://54.235.29.9/FacialAge/BNav_EC2/DepthDuration/v2_depth_duration_MTurk/v2_DepthDuration_HTML.html#57,57,1366,768,1366,768,8-20-2022,11-58-16,80,depth_duration_stimuli/000556_2014-06-09_22-42-56_260595134347_rgbf000214-resize_1/000556_2014-06-09_22-42-56_260595134347_rgbf000214-resize_1-target.png,250,4.8415,2,3949,254,meters,jsons/v1_VE250_randls_53.json,813350,1093898,56,Man
80,149886,DepthScenes,duration_manipulation_targetAtFixation,jsons/v1_VE250_randls_53.json,http://54.235.29.9/FacialAge/BNav_EC2/DepthDuration/v2_depth_duration_MTurk/v2_DepthDuration_HTML.html#57,57,1366,768,1366,768,8-20-2022,11-58-16,81,depth_duration_stimuli/002272_2014-06-28_18-53-56_260595134347_rgbf000067-resize_2/002272_2014-06-28_18-53-56_260595134347_rgbf000067-resize_2-target.png,250,1.138,3,4041,240,meters,jsons/v1_VE250_randls_53.json,813350,1093898,56,Man
81,149886,DepthScenes,duration_manipulation_targetAtFixation,jsons/v1_VE250_randls_53.json,http://54.235.29.9/FacialAge/BNav_EC2/DepthDuration/v2_depth_duration_MTurk/v2_DepthDuration_HTML.html#57,57,1366,768,1366,768,8-20-2022,11-58-16,82,depth_duration_stimuli/001571_2014-06-20_17-21-32_260595134347_rgbf000089-resize_1/001571_2014-06-20_17-21-32_260595134347_rgbf000089-resize_1-target.png,250,1.86,3,3855,248,meters,jsons/v1_VE250_randls_53.json,813350,1093898,56,Man
82,149886,DepthScenes,duration_manipulation_targetAtFixation,jsons/v1_VE250_randls_53.json,http://54.235.29.9/FacialAge/BNav_EC2/DepthDuration/v2_depth_duration_MTurk/v2_DepthDuration_HTML.html#57,57,1366,768,1366,768,8-20-2022,11-58-16,83,depth_duration_stimuli/000470_2014-06-09_19-42-40_260595134347_rgbf000094-resize_1/000470_2014-06-09_19-42-40_260595134347_rgbf000094-resize_1-target.png,250,1.831,2,4542,245,meters,jsons/v1_VE250_randls_53.json,813350,1093898,56,Man
83,149886,DepthScenes,duration_manipulation_targetAtFixation,jsons/v1_VE250_randls_53.json,http://54.235.29.9/FacialAge/BNav_EC2/DepthDuration/v2_depth_duration_MTurk/v2_DepthDuration_HTML.html#57,57,1366,768,1366,768,8-20-2022,11-58-16,84,depth_duration_stimuli/000109_2014-05-14_23-41-52_260595134347_rgbf000035-resize_9/000109_2014-05-14_23-41-52_260595134347_rgbf000035-resize_9-target.png,250,1.3545,3,3968,257,meters,jsons/v1_VE250_randls_53.json,813350,1093898,56,Man
84,149886,DepthScenes,duration_manipulation_targetAtFixation,jsons/v1_VE250_randls_53.json,http://54.235.29.9/FacialAge/BNav_EC2/DepthDuration/v2_depth_duration_MTurk/v2_DepthDuration_HTML.html#57,57,1366,768,1366,768,8-20-2022,11-58-16,85,depth_duration_stimuli/002375_2014-06-28_20-13-44_260595134347_rgbf000032-resize_1/002375_2014-06-28_20-13-44_260595134347_rgbf000032-resize_1-target.png,250,4.0175,3,5653,254,meters,jsons/v1_VE250_randls_53.json,813350,1093898,56,Man
85,149886,DepthScenes,duration_manipulation_targetAtFixation,jsons/v1_VE250_randls_53.json,http://54.235.29.9/FacialAge/BNav_EC2/DepthDuration/v2_depth_duration_MTurk/v2_DepthDuration_HTML.html#57,57,1366,768,1366,768,8-20-2022,11-58-16,86,depth_duration_stimuli/002657_2014-06-13_15-29-54_094959634447_rgbf000150-resize_1/002657_2014-06-13_15-29-54_094959634447_rgbf000150-resize_1-target.png,250,4.919,3,4398,252,meters,jsons/v1_VE250_randls_53.json,813350,1093898,56,Man
86,149886,DepthScenes,duration_manipulation_targetAtFixation,jsons/v1_VE250_randls_53.json,http://54.235.29.9/FacialAge/BNav_EC2/DepthDuration/v2_depth_duration_MTurk/v2_DepthDuration_HTML.html#57,57,1366,768,1366,768,8-20-2022,11-58-16,87,depth_duration_stimuli/002118_2014-06-25_20-32-08_260595134347_rgbf000078-resize_1/002118_2014-06-25_20-32-08_260595134347_rgbf000078-resize_1-target.png,250,2.6460000000000004,3,4466,252,meters,jsons/v1_VE250_randls_53.json,813350,1093898,56,Man
87,149886,DepthScenes,duration_manipulation_targetAtFixation,jsons/v1_VE250_randls_53.json,http://54.235.29.9/FacialAge/BNav_EC2/DepthDuration/v2_depth_duration_MTurk/v2_DepthDuration_HTML.html#57,57,1366,768,1366,768,8-20-2022,11-58-16,88,depth_duration_stimuli/001516_2014-06-20_16-25-09_260595134347_rgbf000076-resize_2/001516_2014-06-20_16-25-09_260595134347_rgbf000076-resize_2-target.png,250,1.7445,2,4950,255,meters,jsons/v1_VE250_randls_53.json,813350,1093898,56,Man
88,149886,DepthScenes,duration_manipulation_targetAtFixation,jsons/v1_VE250_randls_53.json,http://54.235.29.9/FacialAge/BNav_EC2/DepthDuration/v2_depth_duration_MTurk/v2_DepthDuration_HTML.html#57,57,1366,768,1366,768,8-20-2022,11-58-16,89,depth_duration_stimuli/001066_2014-06-08_22-03-20_260595134347_rgbf000066-resize_4/001066_2014-06-08_22-03-20_260595134347_rgbf000066-resize_4-target.png,250,4.2330000000000005,3,6185,256,meters,jsons/v1_VE250_randls_53.json,813350,1093898,56,Man
89,149886,DepthScenes,duration_manipulation_targetAtFixation,jsons/v1_VE250_randls_53.json,http://54.235.29.9/FacialAge/BNav_EC2/DepthDuration/v2_depth_duration_MTurk/v2_DepthDuration_HTML.html#57,57,1366,768,1366,768,8-20-2022,11-58-16,90,depth_duration_stimuli/000742_2014-06-08_18-48-09_260595134347_rgbf000164-resize_4/000742_2014-06-08_18-48-09_260595134347_rgbf000164-resize_4-target.png,250,4.632,2,5122,249,meters,jsons/v1_VE250_randls_53.json,813350,1093898,56,Man
90,149886,DepthScenes,duration_manipulation_targetAtFixation,jsons/v1_VE250_randls_53.json,http://54.235.29.9/FacialAge/BNav_EC2/DepthDuration/v2_depth_duration_MTurk/v2_DepthDuration_HTML.html#57,57,1366,768,1366,768,8-20-2022,11-58-16,91,depth_duration_stimuli/002057_2014-06-24_21-00-13_260595134347_rgbf000120-resize_1/002057_2014-06-24_21-00-13_260595134347_rgbf000120-resize_1-target.png,250,2.967,3,5328,237,meters,jsons/v1_VE250_randls_53.json,813350,1093898,56,Man
91,149886,DepthScenes,duration_manipulation_targetAtFixation,jsons/v1_VE250_randls_53.json,http://54.235.29.9/FacialAge/BNav_EC2/DepthDuration/v2_depth_duration_MTurk/v2_DepthDuration_HTML.html#57,57,1366,768,1366,768,8-20-2022,11-58-16,92,depth_duration_stimuli/000709_2014-06-08_13-51-55_260595134347_rgbf000068-resize_3/000709_2014-06-08_13-51-55_260595134347_rgbf000068-resize_3-target.png,250,1.8030000000000002,3,4770,260,meters,jsons/v1_VE250_randls_53.json,813350,1093898,56,Man
92,149886,DepthScenes,duration_manipulation_targetAtFixation,jsons/v1_VE250_randls_53.json,http://54.235.29.9/FacialAge/BNav_EC2/DepthDuration/v2_depth_duration_MTurk/v2_DepthDuration_HTML.html#57,57,1366,768,1366,768,8-20-2022,11-58-16,93,depth_duration_stimuli/002748_2014-06-22_19-07-22_094959634447_rgbf000078-resize_1/002748_2014-06-22_19-07-22_094959634447_rgbf000078-resize_1-target.png,250,4.6705,2,5568,244,meters,jsons/v1_VE250_randls_53.json,813350,1093898,56,Man
93,149886,DepthScenes,duration_manipulation_targetAtFixation,jsons/v1_VE250_randls_53.json,http://54.235.29.9/FacialAge/BNav_EC2/DepthDuration/v2_depth_duration_MTurk/v2_DepthDuration_HTML.html#57,57,1366,768,1366,768,8-20-2022,11-58-16,94,depth_duration_stimuli/002995_2014-06-15_12-31-26_094959634447_rgbf000150-resize_1/002995_2014-06-15_12-31-26_094959634447_rgbf000150-resize_1-target.png,250,3.8360000000000003,3,11711,276,meters,jsons/v1_VE250_randls_53.json,813350,1093898,56,Man
94,149886,DepthScenes,duration_manipulation_targetAtFixation,jsons/v1_VE250_randls_53.json,http://54.235.29.9/FacialAge/BNav_EC2/DepthDuration/v2_depth_duration_MTurk/v2_DepthDuration_HTML.html#57,57,1366,768,1366,768,8-20-2022,11-58-16,95,depth_duration_stimuli/002788_2014-06-22_19-36-03_094959634447_rgbf000088-resize_2/002788_2014-06-22_19-36-03_094959634447_rgbf000088-resize_2-target.png,250,1.6465,2,5063,260,meters,jsons/v1_VE250_randls_53.json,813350,1093898,56,Man
95,149886,DepthScenes,duration_manipulation_targetAtFixation,jsons/v1_VE250_randls_53.json,http://54.235.29.9/FacialAge/BNav_EC2/DepthDuration/v2_depth_duration_MTurk/v2_DepthDuration_HTML.html#57,57,1366,768,1366,768,8-20-2022,11-58-16,96,depth_duration_stimuli/000749_2014-06-08_21-55-06_260595134347_rgbf000070-resize_2/000749_2014-06-08_21-55-06_260595134347_rgbf000070-resize_2-target.png,250,2.331,3,4380,251,meters,jsons/v1_VE250_randls_53.json,813350,1093898,56,Man
96,149886,DepthScenes,duration_manipulation_targetAtFixation,jsons/v1_VE250_randls_53.json,http://54.235.29.9/FacialAge/BNav_EC2/DepthDuration/v2_depth_duration_MTurk/v2_DepthDuration_HTML.html#57,57,1366,768,1366,768,8-20-2022,11-58-16,97,depth_duration_stimuli/001199_2014-06-17_16-03-48_260595134347_rgbf000077-resize_0/001199_2014-06-17_16-03-48_260595134347_rgbf000077-resize_0-target.png,250,3.4375,3,4275,241,meters,jsons/v1_VE250_randls_53.json,813350,1093898,56,Man
97,149886,DepthScenes,duration_manipulation_targetAtFixation,jsons/v1_VE250_randls_53.json,http://54.235.29.9/FacialAge/BNav_EC2/DepthDuration/v2_depth_duration_MTurk/v2_DepthDuration_HTML.html#57,57,1366,768,1366,768,8-20-2022,11-58-16,98,depth_duration_stimuli/000502_2014-06-08_23-02-32_260595134347_rgbf000063-resize_4/000502_2014-06-08_23-02-32_260595134347_rgbf000063-resize_4-target.png,250,2.431,2,3773,249,meters,jsons/v1_VE250_randls_53.json,813350,1093898,56,Man
98,149886,DepthScenes,duration_manipulation_targetAtFixation,jsons/v1_VE250_randls_53.json,http://54.235.29.9/FacialAge/BNav_EC2/DepthDuration/v2_depth_duration_MTurk/v2_DepthDuration_HTML.html#57,57,1366,768,1366,768,8-20-2022,11-58-16,99,depth_duration_stimuli/001540_2014-06-20_17-01-05_260595134347_rgbf000086-resize_2/001540_2014-06-20_17-01-05_260595134347_rgbf000086-resize-original.jpg,250,1.459,0,3875,248,meters,jsons/v1_VE250_randls_53.json,813350,1093898,56,Man
99,149886,DepthScenes,duration_manipulation_targetAtFixation,jsons/v1_VE250_randls_53.json,http://54.235.29.9/FacialAge/BNav_EC2/DepthDuration/v2_depth_duration_MTurk/v2_DepthDuration_HTML.html#57,57,1366,768,1366,768,8-20-2022,11-58-16,100,depth_duration_stimuli/000739_2014-06-08_18-45-58_260595134347_rgbf000068-resize_1/000739_2014-06-08_18-45-58_260595134347_rgbf000068-resize_1-target.png,250,3.534,3,3515,250,meters,jsons/v1_VE250_randls_53.json,813350,1093898,56,Man
100,149886,DepthScenes,duration_manipulation_targetAtFixation,jsons/v1_VE250_randls_53.json,http://54.235.29.9/FacialAge/BNav_EC2/DepthDuration/v2_depth_duration_MTurk/v2_DepthDuration_HTML.html#57,57,1366,768,1366,768,8-20-2022,11-58-16,101,depth_duration_stimuli/000734_2014-06-08_17-39-11_260595134347_rgbf000128-resize_2/000734_2014-06-08_17-39-11_260595134347_rgbf000128-resize_2-target.png,250,4.098,3,4181,243,meters,jsons/v1_VE250_randls_53.json,813350,1093898,56,Man
101,149886,DepthScenes,duration_manipulation_targetAtFixation,jsons/v1_VE250_randls_53.json,http://54.235.29.9/FacialAge/BNav_EC2/DepthDuration/v2_depth_duration_MTurk/v2_DepthDuration_HTML.html#57,57,1366,768,1366,768,8-20-2022,11-58-16,102,depth_duration_stimuli/001016_2014-06-09_16-16-10_260595134347_rgbf000112-resize_5/001016_2014-06-09_16-16-10_260595134347_rgbf000112-resize_5-target.png,250,1.6565,3,5430,250,meters,jsons/v1_VE250_randls_53.json,813350,1093898,56,Man
102,149886,DepthScenes,duration_manipulation_targetAtFixation,jsons/v1_VE250_randls_53.json,http://54.235.29.9/FacialAge/BNav_EC2/DepthDuration/v2_depth_duration_MTurk/v2_DepthDuration_HTML.html#57,57,1366,768,1366,768,8-20-2022,11-58-16,103,depth_duration_stimuli/002340_2014-06-28_20-05-46_260595134347_rgbf000113-resize_0/002340_2014-06-28_20-05-46_260595134347_rgbf000113-resize_0-target.png,250,2.4735,4,4685,246,meters,jsons/v1_VE250_randls_53.json,813350,1093898,56,Man
103,149886,DepthScenes,duration_manipulation_targetAtFixation,jsons/v1_VE250_randls_53.json,http://54.235.29.9/FacialAge/BNav_EC2/DepthDuration/v2_depth_duration_MTurk/v2_DepthDuration_HTML.html#57,57,1366,768,1366,768,8-20-2022,11-58-16,104,depth_duration_stimuli/000506_2014-06-08_23-21-00_260595134347_rgbf000070-resize_7/000506_2014-06-08_23-21-00_260595134347_rgbf000070-resize_7-target.png,250,4.0585,2,4962,255,meters,jsons/v1_VE250_randls_53.json,813350,1093898,56,Man
104,149886,DepthScenes,duration_manipulation_targetAtFixation,jsons/v1_VE250_randls_53.json,http://54.235.29.9/FacialAge/BNav_EC2/DepthDuration/v2_depth_duration_MTurk/v2_DepthDuration_HTML.html#57,57,1366,768,1366,768,8-20-2022,11-58-16,105,depth_duration_stimuli/003079_2014-06-15_15-18-20_094959634447_rgbf000152-resize_8/003079_2014-06-15_15-18-20_094959634447_rgbf000152-resize_8-target.png,250,2.8775,3,3940,242,meters,jsons/v1_VE250_randls_53.json,813350,1093898,56,Man
105,149886,DepthScenes,duration_manipulation_targetAtFixation,jsons/v1_VE250_randls_53.json,http://54.235.29.9/FacialAge/BNav_EC2/DepthDuration/v2_depth_duration_MTurk/v2_DepthDuration_HTML.html#57,57,1366,768,1366,768,8-20-2022,11-58-16,106,depth_duration_stimuli/000447_2014-06-08_16-15-46_260595134347_rgbf000130-resize_1/000447_2014-06-08_16-15-46_260595134347_rgbf000130-resize_1-target.png,250,4.479,3,4360,260,meters,jsons/v1_VE250_randls_53.json,813350,1093898,56,Man
106,149886,DepthScenes,duration_manipulation_targetAtFixation,jsons/v1_VE250_randls_53.json,http://54.235.29.9/FacialAge/BNav_EC2/DepthDuration/v2_depth_duration_MTurk/v2_DepthDuration_HTML.html#57,57,1366,768,1366,768,8-20-2022,11-58-16,107,depth_duration_stimuli/001447_2014-06-19_17-00-32_260595134347_rgbf000082-resize_5/001447_2014-06-19_17-00-32_260595134347_rgbf000082-resize_5-target.png,250,4.13775,2,3605,262,meters,jsons/v1_VE250_randls_53.json,813350,1093898,56,Man
107,149886,DepthScenes,duration_manipulation_targetAtFixation,jsons/v1_VE250_randls_53.json,http://54.235.29.9/FacialAge/BNav_EC2/DepthDuration/v2_depth_duration_MTurk/v2_DepthDuration_HTML.html#57,57,1366,768,1366,768,8-20-2022,11-58-16,108,depth_duration_stimuli/000368_2014-06-09_15-53-01_260595134347_rgbf000155-resize_2/000368_2014-06-09_15-53-01_260595134347_rgbf000155-resize_2-target.png,250,2.4859999999999998,3,3841,253,meters,jsons/v1_VE250_randls_53.json,813350,1093898,56,Man
108,149886,DepthScenes,duration_manipulation_targetAtFixation,jsons/v1_VE250_randls_53.json,http://54.235.29.9/FacialAge/BNav_EC2/DepthDuration/v2_depth_duration_MTurk/v2_DepthDuration_HTML.html#57,57,1366,768,1366,768,8-20-2022,11-58-16,109,depth_duration_stimuli/002678_2014-06-13_16-15-32_094959634447_rgbf000151-resize_6/002678_2014-06-13_16-15-32_094959634447_rgbf000151-resize_6-target.png,250,2.1830000000000003,2,3712,248,meters,jsons/v1_VE250_randls_53.json,813350,1093898,56,Man
109,149886,DepthScenes,duration_manipulation_targetAtFixation,jsons/v1_VE250_randls_53.json,http://54.235.29.9/FacialAge/BNav_EC2/DepthDuration/v2_depth_duration_MTurk/v2_DepthDuration_HTML.html#57,57,1366,768,1366,768,8-20-2022,11-58-16,110,depth_duration_stimuli/001555_2014-06-20_17-12-10_260595134347_rgbf000065-resize_4/001555_2014-06-20_17-12-10_260595134347_rgbf000065-resize_4-target.png,250,1.633,3,3248,249,meters,jsons/v1_VE250_randls_53.json,813350,1093898,56,Man
110,149886,DepthScenes,duration_manipulation_targetAtFixation,jsons/v1_VE250_randls_53.json,http://54.235.29.9/FacialAge/BNav_EC2/DepthDuration/v2_depth_duration_MTurk/v2_DepthDuration_HTML.html#57,57,1366,768,1366,768,8-20-2022,11-58-16,111,depth_duration_stimuli/000103_2014-05-14_22-01-17_260595134347_rgbf000152-resize_5/000103_2014-05-14_22-01-17_260595134347_rgbf000152-resize_5-target.png,250,1.993,2,3161,246,meters,jsons/v1_VE250_randls_53.json,813350,1093898,56,Man
111,149886,DepthScenes,duration_manipulation_targetAtFixation,jsons/v1_VE250_randls_53.json,http://54.235.29.9/FacialAge/BNav_EC2/DepthDuration/v2_depth_duration_MTurk/v2_DepthDuration_HTML.html#57,57,1366,768,1366,768,8-20-2022,11-58-16,112,depth_duration_stimuli/002763_2014-06-22_19-13-10_094959634447_rgbf000075-resize_4/002763_2014-06-22_19-13-10_094959634447_rgbf000075-resize_4-target.png,250,1.68375,2,3075,253,meters,jsons/v1_VE250_randls_53.json,813350,1093898,56,Man
112,149886,DepthScenes,duration_manipulation_targetAtFixation,jsons/v1_VE250_randls_53.json,http://54.235.29.9/FacialAge/BNav_EC2/DepthDuration/v2_depth_duration_MTurk/v2_DepthDuration_HTML.html#57,57,1366,768,1366,768,8-20-2022,11-58-16,113,depth_duration_stimuli/002209_2014-06-28_18-36-10_260595134347_rgbf000051-resize_1/002209_2014-06-28_18-36-10_260595134347_rgbf000051-resize_1-target.png,250,2.057,3,2995,255,meters,jsons/v1_VE250_randls_53.json,813350,1093898,56,Man
113,149886,DepthScenes,duration_manipulation_targetAtFixation,jsons/v1_VE250_randls_53.json,http://54.235.29.9/FacialAge/BNav_EC2/DepthDuration/v2_depth_duration_MTurk/v2_DepthDuration_HTML.html#57,57,1366,768,1366,768,8-20-2022,11-58-16,114,depth_duration_stimuli/000436_2014-06-09_22-25-11_260595134347_rgbf000137-resize_1/000436_2014-06-09_22-25-11_260595134347_rgbf000137-resize_1-target.png,250,4.0705,2,3328,253,meters,jsons/v1_VE250_randls_53.json,813350,1093898,56,Man
114,149886,DepthScenes,duration_manipulation_targetAtFixation,jsons/v1_VE250_randls_53.json,http://54.235.29.9/FacialAge/BNav_EC2/DepthDuration/v2_depth_duration_MTurk/v2_DepthDuration_HTML.html#57,57,1366,768,1366,768,8-20-2022,11-58-16,115,depth_duration_stimuli/002444_2014-06-28_20-32-08_260595134347_rgbf000027-resize_0/002444_2014-06-28_20-32-08_260595134347_rgbf000027-resize_0-target.png,250,4.388999999999999,3,3115,262,meters,jsons/v1_VE250_randls_53.json,813350,1093898,56,Man
115,149886,DepthScenes,duration_manipulation_targetAtFixation,jsons/v1_VE250_randls_53.json,http://54.235.29.9/FacialAge/BNav_EC2/DepthDuration/v2_depth_duration_MTurk/v2_DepthDuration_HTML.html#57,57,1366,768,1366,768,8-20-2022,11-58-16,116,depth_duration_stimuli/001170_2014-06-17_15-43-44_260595134347_rgbf000096-resize_6/001170_2014-06-17_15-43-44_260595134347_rgbf000096-resize-original.jpg,250,1.1909999999999998,0,5197,241,meters,jsons/v1_VE250_randls_53.json,813350,1093898,56,Man
116,149886,DepthScenes,duration_manipulation_targetAtFixation,jsons/v1_VE250_randls_53.json,http://54.235.29.9/FacialAge/BNav_EC2/DepthDuration/v2_depth_duration_MTurk/v2_DepthDuration_HTML.html#57,57,1366,768,1366,768,8-20-2022,11-58-16,117,depth_duration_stimuli/002630_2014-06-24_14-47-50_094959634447_rgbf000055-resize_1/002630_2014-06-24_14-47-50_094959634447_rgbf000055-resize_1-target.png,250,3.0095,3,2843,251,meters,jsons/v1_VE250_randls_53.json,813350,1093898,56,Man
117,149886,DepthScenes,duration_manipulation_targetAtFixation,jsons/v1_VE250_randls_53.json,http://54.235.29.9/FacialAge/BNav_EC2/DepthDuration/v2_depth_duration_MTurk/v2_DepthDuration_HTML.html#57,57,1366,768,1366,768,8-20-2022,11-58-16,118,depth_duration_stimuli/002758_2014-06-22_19-11-20_094959634447_rgbf000128-resize_1/002758_2014-06-22_19-11-20_094959634447_rgbf000128-resize_1-target.png,250,2.555,4,3887,251,meters,jsons/v1_VE250_randls_53.json,813350,1093898,56,Man
118,149886,DepthScenes,duration_manipulation_targetAtFixation,jsons/v1_VE250_randls_53.json,http://54.235.29.9/FacialAge/BNav_EC2/DepthDuration/v2_depth_duration_MTurk/v2_DepthDuration_HTML.html#57,57,1366,768,1366,768,8-20-2022,11-58-16,119,depth_duration_stimuli/001808_2014-06-26_20-50-58_260595134347_rgbf000029-resize_1/001808_2014-06-26_20-50-58_260595134347_rgbf000029-resize_1-target.png,250,4.249,3,3555,255,meters,jsons/v1_VE250_randls_53.json,813350,1093898,56,Man
119,149886,DepthScenes,duration_manipulation_targetAtFixation,jsons/v1_VE250_randls_53.json,http://54.235.29.9/FacialAge/BNav_EC2/DepthDuration/v2_depth_duration_MTurk/v2_DepthDuration_HTML.html#57,57,1366,768,1366,768,8-20-2022,11-58-16,120,depth_duration_stimuli/001815_2014-06-26_20-52-55_260595134347_rgbf000020-resize_0/001815_2014-06-26_20-52-55_260595134347_rgbf000020-resize_0-target.png,250,3.3865,2,2851,235,meters,jsons/v1_VE250_randls_53.json,813350,1093898,56,Man
120,149886,DepthScenes,duration_manipulation_targetAtFixation,jsons/v1_VE250_randls_53.json,http://54.235.29.9/FacialAge/BNav_EC2/DepthDuration/v2_depth_duration_MTurk/v2_DepthDuration_HTML.html#57,57,1366,768,1366,768,8-20-2022,11-58-16,121,depth_duration_stimuli/000486_2014-06-09_20-47-20_260595134347_rgbf000143-resize_2/000486_2014-06-09_20-47-20_260595134347_rgbf000143-resize_2-target.png,250,4.8325,3,3157,202,meters,jsons/v1_VE250_randls_53.json,813350,1093898,56,Man
121,149886,DepthScenes,duration_manipulation_targetAtFixation,jsons/v1_VE250_randls_53.json,http://54.235.29.9/FacialAge/BNav_EC2/DepthDuration/v2_depth_duration_MTurk/v2_DepthDuration_HTML.html#57,57,1366,768,1366,768,8-20-2022,11-58-16,122,depth_duration_stimuli/003083_2014-06-15_15-21-03_094959634447_rgbf000063-resize_1/003083_2014-06-15_15-21-03_094959634447_rgbf000063-resize_1-target.png,250,4.1405,4,3424,265,meters,jsons/v1_VE250_randls_53.json,813350,1093898,56,Man
122,149886,DepthScenes,duration_manipulation_targetAtFixation,jsons/v1_VE250_randls_53.json,http://54.235.29.9/FacialAge/BNav_EC2/DepthDuration/v2_depth_duration_MTurk/v2_DepthDuration_HTML.html#57,57,1366,768,1366,768,8-20-2022,11-58-16,123,depth_duration_stimuli/001806_2014-06-26_20-50-20_260595134347_rgbf000091-resize_1/001806_2014-06-26_20-50-20_260595134347_rgbf000091-resize_1-target.png,250,2.7305,3,3667,236,meters,jsons/v1_VE250_randls_53.json,813350,1093898,56,Man
123,149886,DepthScenes,duration_manipulation_targetAtFixation,jsons/v1_VE250_randls_53.json,http://54.235.29.9/FacialAge/BNav_EC2/DepthDuration/v2_depth_duration_MTurk/v2_DepthDuration_HTML.html#57,57,1366,768,1366,768,8-20-2022,11-58-16,124,depth_duration_stimuli/001617_2014-06-20_11-35-32_260595134347_rgbf000066-resize_1/001617_2014-06-20_11-35-32_260595134347_rgbf000066-resize_1-target.png,250,3.7910000000000004,3,5810,319,meters,jsons/v1_VE250_randls_53.json,813350,1093898,56,Man
124,149886,DepthScenes,duration_manipulation_targetAtFixation,jsons/v1_VE250_randls_53.json,http://54.235.29.9/FacialAge/BNav_EC2/DepthDuration/v2_depth_duration_MTurk/v2_DepthDuration_HTML.html#57,57,1366,768,1366,768,8-20-2022,11-58-16,125,depth_duration_stimuli/001150_2014-06-17_15-27-34_260595134347_rgbf000108-resize_2/001150_2014-06-17_15-27-34_260595134347_rgbf000108-resize_2-target.png,250,4.0325,4,3296,244,meters,jsons/v1_VE250_randls_53.json,813350,1093898,56,Man
125,149886,DepthScenes,duration_manipulation_targetAtFixation,jsons/v1_VE250_randls_53.json,http://54.235.29.9/FacialAge/BNav_EC2/DepthDuration/v2_depth_duration_MTurk/v2_DepthDuration_HTML.html#57,57,1366,768,1366,768,8-20-2022,11-58-16,126,depth_duration_stimuli/000665_2014-06-09_20-42-35_260595134347_rgbf000110-resize_1/000665_2014-06-09_20-42-35_260595134347_rgbf000110-resize_1-target.png,250,3.057,3,3006,248,meters,jsons/v1_VE250_randls_53.json,813350,1093898,56,Man
126,149886,DepthScenes,duration_manipulation_targetAtFixation,jsons/v1_VE250_randls_53.json,http://54.235.29.9/FacialAge/BNav_EC2/DepthDuration/v2_depth_duration_MTurk/v2_DepthDuration_HTML.html#57,57,1366,768,1366,768,8-20-2022,11-58-16,127,depth_duration_stimuli/003534_2014-05-22_15-06-10_094959634447_rgbf000102-resize_4/003534_2014-05-22_15-06-10_094959634447_rgbf000102-resize_4-target.png,250,1.426,1,3174,240,meters,jsons/v1_VE250_randls_53.json,813350,1093898,56,Man
127,149886,DepthScenes,duration_manipulation_targetAtFixation,jsons/v1_VE250_randls_53.json,http://54.235.29.9/FacialAge/BNav_EC2/DepthDuration/v2_depth_duration_MTurk/v2_DepthDuration_HTML.html#57,57,1366,768,1366,768,8-20-2022,11-58-16,128,depth_duration_stimuli/002637_2014-06-24_14-51-13_094959634447_rgbf000066-resize_4/002637_2014-06-24_14-51-13_094959634447_rgbf000066-resize_4-target.png,250,1.9955,3,2930,252,meters,jsons/v1_VE250_randls_53.json,813350,1093898,56,Man
128,149886,DepthScenes,duration_manipulation_targetAtFixation,jsons/v1_VE250_randls_53.json,http://54.235.29.9/FacialAge/BNav_EC2/DepthDuration/v2_depth_duration_MTurk/v2_DepthDuration_HTML.html#57,57,1366,768,1366,768,8-20-2022,11-58-16,129,depth_duration_stimuli/002988_2014-06-15_12-24-20_094959634447_rgbf000150-resize_1/002988_2014-06-15_12-24-20_094959634447_rgbf000150-resize_1-target.png,250,4.7669999999999995,5,3125,253,meters,jsons/v1_VE250_randls_53.json,813350,1093898,56,Man
129,149886,DepthScenes,duration_manipulation_targetAtFixation,jsons/v1_VE250_randls_53.json,http://54.235.29.9/FacialAge/BNav_EC2/DepthDuration/v2_depth_duration_MTurk/v2_DepthDuration_HTML.html#57,57,1366,768,1366,768,8-20-2022,11-58-16,130,depth_duration_stimuli/001052_2014-06-08_18-24-54_260595134347_rgbf000130-resize_1/001052_2014-06-08_18-24-54_260595134347_rgbf000130-resize_1-target.png,250,4.1045,3,4155,285,meters,jsons/v1_VE250_randls_53.json,813350,1093898,56,Man
130,149886,DepthScenes,duration_manipulation_targetAtFixation,jsons/v1_VE250_randls_53.json,http://54.235.29.9/FacialAge/BNav_EC2/DepthDuration/v2_depth_duration_MTurk/v2_DepthDuration_HTML.html#57,57,1366,768,1366,768,8-20-2022,11-58-16,131,depth_duration_stimuli/000810_2014-06-08_17-20-01_260595134347_rgbf000105-resize_0/000810_2014-06-08_17-20-01_260595134347_rgbf000105-resize_0-target.png,250,1.4865,3,3466,243,meters,jsons/v1_VE250_randls_53.json,813350,1093898,56,Man
131,149886,DepthScenes,duration_manipulation_targetAtFixation,jsons/v1_VE250_randls_53.json,http://54.235.29.9/FacialAge/BNav_EC2/DepthDuration/v2_depth_duration_MTurk/v2_DepthDuration_HTML.html#57,57,1366,768,1366,768,8-20-2022,11-58-16,132,depth_duration_stimuli/001214_2014-06-17_16-13-55_260595134347_rgbf000111-resize_0/001214_2014-06-17_16-13-55_260595134347_rgbf000111-resize_0-target.png,250,2.6505,4,2404,248,meters,jsons/v1_VE250_randls_53.json,813350,1093898,56,Man
132,149886,DepthScenes,duration_manipulation_targetAtFixation,jsons/v1_VE250_randls_53.json,http://54.235.29.9/FacialAge/BNav_EC2/DepthDuration/v2_depth_duration_MTurk/v2_DepthDuration_HTML.html#57,57,1366,768,1366,768,8-20-2022,11-58-16,133,depth_duration_stimuli/001092_2014-06-15_17-34-58_260595134347_rgbf000171-resize_3/001092_2014-06-15_17-34-58_260595134347_rgbf000171-resize_3-target.png,250,2.6935,2,8848,248,meters,jsons/v1_VE250_randls_53.json,813350,1093898,56,Man
133,149886,DepthScenes,duration_manipulation_targetAtFixation,jsons/v1_VE250_randls_53.json,http://54.235.29.9/FacialAge/BNav_EC2/DepthDuration/v2_depth_duration_MTurk/v2_DepthDuration_HTML.html#57,57,1366,768,1366,768,8-20-2022,11-58-16,134,depth_duration_stimuli/002545_2014-06-24_13-38-53_094959634447_rgbf000080-resize_4/002545_2014-06-24_13-38-53_094959634447_rgbf000080-resize_4-target.png,250,1.9205,3,3467,260,meters,jsons/v1_VE250_randls_53.json,813350,1093898,56,Man
134,149886,DepthScenes,duration_manipulation_targetAtFixation,jsons/v1_VE250_randls_53.json,http://54.235.29.9/FacialAge/BNav_EC2/DepthDuration/v2_depth_duration_MTurk/v2_DepthDuration_HTML.html#57,57,1366,768,1366,768,8-20-2022,11-58-16,135,depth_duration_stimuli/002072_2014-06-24_21-48-06_260595134347_rgbf000115-resize_0/002072_2014-06-24_21-48-06_260595134347_rgbf000115-resize-original.jpg,250,4.702,3,2793,244,meters,jsons/v1_VE250_randls_53.json,813350,1093898,56,Man
135,149886,DepthScenes,duration_manipulation_targetAtFixation,jsons/v1_VE250_randls_53.json,http://54.235.29.9/FacialAge/BNav_EC2/DepthDuration/v2_depth_duration_MTurk/v2_DepthDuration_HTML.html#57,57,1366,768,1366,768,8-20-2022,11-58-16,136,depth_duration_stimuli/001167_2014-06-17_15-38-07_260595134347_rgbf000108-resize_0/001167_2014-06-17_15-38-07_260595134347_rgbf000108-resize_0-target.png,250,1.8505,4,5656,259,meters,jsons/v1_VE250_randls_53.json,813350,1093898,56,Man
136,149886,DepthScenes,duration_manipulation_targetAtFixation,jsons/v1_VE250_randls_53.json,http://54.235.29.9/FacialAge/BNav_EC2/DepthDuration/v2_depth_duration_MTurk/v2_DepthDuration_HTML.html#57,57,1366,768,1366,768,8-20-2022,11-58-16,137,depth_duration_stimuli/003587_2014-05-23_16-48-02_094959634447_rgbf002384-resize_2/003587_2014-05-23_16-48-02_094959634447_rgbf002384-resize_2-target.png,250,1.357,3,3421,249,meters,jsons/v1_VE250_randls_53.json,813350,1093898,56,Man
137,149886,DepthScenes,duration_manipulation_targetAtFixation,jsons/v1_VE250_randls_53.json,http://54.235.29.9/FacialAge/BNav_EC2/DepthDuration/v2_depth_duration_MTurk/v2_DepthDuration_HTML.html#57,57,1366,768,1366,768,8-20-2022,11-58-16,138,depth_duration_stimuli/000642_2014-06-08_16-59-25_260595134347_rgbf000098-resize_2/000642_2014-06-08_16-59-25_260595134347_rgbf000098-resize_2-target.png,250,2.8815,2,2897,220,meters,jsons/v1_VE250_randls_53.json,813350,1093898,56,Man
138,149886,DepthScenes,duration_manipulation_targetAtFixation,jsons/v1_VE250_randls_53.json,http://54.235.29.9/FacialAge/BNav_EC2/DepthDuration/v2_depth_duration_MTurk/v2_DepthDuration_HTML.html#57,57,1366,768,1366,768,8-20-2022,11-58-16,139,depth_duration_stimuli/002425_2014-06-28_20-27-29_260595134347_rgbf000031-resize_8/002425_2014-06-28_20-27-29_260595134347_rgbf000031-resize_8-target.png,250,3.8960000000000004,3,3577,253,meters,jsons/v1_VE250_randls_53.json,813350,1093898,56,Man
139,149886,DepthScenes,duration_manipulation_targetAtFixation,jsons/v1_VE250_randls_53.json,http://54.235.29.9/FacialAge/BNav_EC2/DepthDuration/v2_depth_duration_MTurk/v2_DepthDuration_HTML.html#57,57,1366,768,1366,768,8-20-2022,11-58-16,140,depth_duration_stimuli/000917_2014-06-09_22-45-29_260595134347_rgbf000149-resize_3/000917_2014-06-09_22-45-29_260595134347_rgbf000149-resize_3-target.png,250,4.1865,4,2664,234,meters,jsons/v1_VE250_randls_53.json,813350,1093898,56,Man
140,149886,DepthScenes,duration_manipulation_targetAtFixation,jsons/v1_VE250_randls_53.json,http://54.235.29.9/FacialAge/BNav_EC2/DepthDuration/v2_depth_duration_MTurk/v2_DepthDuration_HTML.html#57,57,1366,768,1366,768,8-20-2022,11-58-16,141,depth_duration_stimuli/002323_2014-06-28_20-01-54_260595134347_rgbf000051-resize_4/002323_2014-06-28_20-01-54_260595134347_rgbf000051-resize_4-target.png,250,3.7310000000000003,4,2938,257,meters,jsons/v1_VE250_randls_53.json,813350,1093898,56,Man
141,149886,DepthScenes,duration_manipulation_targetAtFixation,jsons/v1_VE250_randls_53.json,http://54.235.29.9/FacialAge/BNav_EC2/DepthDuration/v2_depth_duration_MTurk/v2_DepthDuration_HTML.html#57,57,1366,768,1366,768,8-20-2022,11-58-16,142,depth_duration_stimuli/000493_2014-06-09_21-01-18_260595134347_rgbf000196-resize_3/000493_2014-06-09_21-01-18_260595134347_rgbf000196-resize_3-target.png,250,3.44,3,4039,258,meters,jsons/v1_VE250_randls_53.json,813350,1093898,56,Man
142,149886,DepthScenes,duration_manipulation_targetAtFixation,jsons/v1_VE250_randls_53.json,http://54.235.29.9/FacialAge/BNav_EC2/DepthDuration/v2_depth_duration_MTurk/v2_DepthDuration_HTML.html#57,57,1366,768,1366,768,8-20-2022,11-58-16,143,depth_duration_stimuli/000191_2014-05-12_17-07-38_260595134347_rgbf000199-resize_0/000191_2014-05-12_17-07-38_260595134347_rgbf000199-resize_0-target.png,250,3.7995,4,2778,260,meters,jsons/v1_VE250_randls_53.json,813350,1093898,56,Man
143,149886,DepthScenes,duration_manipulation_targetAtFixation,jsons/v1_VE250_randls_53.json,http://54.235.29.9/FacialAge/BNav_EC2/DepthDuration/v2_depth_duration_MTurk/v2_DepthDuration_HTML.html#57,57,1366,768,1366,768,8-20-2022,11-58-16,144,depth_duration_stimuli/001056_2014-06-08_18-46-44_260595134347_rgbf000068-resize_0/001056_2014-06-08_18-46-44_260595134347_rgbf000068-resize_0-target.png,250,2.6625,5,3390,244,meters,jsons/v1_VE250_randls_53.json,813350,1093898,56,Man
144,149886,DepthScenes,duration_manipulation_targetAtFixation,jsons/v1_VE250_randls_53.json,http://54.235.29.9/FacialAge/BNav_EC2/DepthDuration/v2_depth_duration_MTurk/v2_DepthDuration_HTML.html#57,57,1366,768,1366,768,8-20-2022,11-58-16,145,depth_duration_stimuli/002199_2014-06-28_18-33-56_260595134347_rgbf000074-resize_0/002199_2014-06-28_18-33-56_260595134347_rgbf000074-resize_0-target.png,250,1.996,2,3346,246,meters,jsons/v1_VE250_randls_53.json,813350,1093898,56,Man
145,149886,DepthScenes,duration_manipulation_targetAtFixation,jsons/v1_VE250_randls_53.json,http://54.235.29.9/FacialAge/BNav_EC2/DepthDuration/v2_depth_duration_MTurk/v2_DepthDuration_HTML.html#57,57,1366,768,1366,768,8-20-2022,11-58-16,146,depth_duration_stimuli/001498_2014-06-19_17-45-14_260595134347_rgbf000129-resize_4/001498_2014-06-19_17-45-14_260595134347_rgbf000129-resize-original.jpg,250,1.4075,2,4105,249,meters,jsons/v1_VE250_randls_53.json,813350,1093898,56,Man
146,149886,DepthScenes,duration_manipulation_targetAtFixation,jsons/v1_VE250_randls_53.json,http://54.235.29.9/FacialAge/BNav_EC2/DepthDuration/v2_depth_duration_MTurk/v2_DepthDuration_HTML.html#57,57,1366,768,1366,768,8-20-2022,11-58-16,147,depth_duration_stimuli/000414_2014-06-04_19-49-13_260595134347_rgbf000044-resize_0/000414_2014-06-04_19-49-13_260595134347_rgbf000044-resize_0-target.png,250,4.329,4,3104,241,meters,jsons/v1_VE250_randls_53.json,813350,1093898,56,Man
147,149886,DepthScenes,duration_manipulation_targetAtFixation,jsons/v1_VE250_randls_53.json,http://54.235.29.9/FacialAge/BNav_EC2/DepthDuration/v2_depth_duration_MTurk/v2_DepthDuration_HTML.html#57,57,1366,768,1366,768,8-20-2022,11-58-16,148,depth_duration_stimuli/003129_2014-05-12_10-48-10_094959634447_rgbf000100-resize_0/003129_2014-05-12_10-48-10_094959634447_rgbf000100-resize_0-target.png,250,4.9305,3,2690,255,meters,jsons/v1_VE250_randls_53.json,813350,1093898,56,Man
148,149886,DepthScenes,duration_manipulation_targetAtFixation,jsons/v1_VE250_randls_53.json,http://54.235.29.9/FacialAge/BNav_EC2/DepthDuration/v2_depth_duration_MTurk/v2_DepthDuration_HTML.html#57,57,1366,768,1366,768,8-20-2022,11-58-16,149,depth_duration_stimuli/000522_2014-06-08_13-35-06_260595134347_rgbf000244-resize_1/000522_2014-06-08_13-35-06_260595134347_rgbf000244-resize_1-target.png,250,2.3715,4,4273,231,meters,jsons/v1_VE250_randls_53.json,813350,1093898,56,Man
149,149886,DepthScenes,duration_manipulation_targetAtFixation,jsons/v1_VE250_randls_53.json,http://54.235.29.9/FacialAge/BNav_EC2/DepthDuration/v2_depth_duration_MTurk/v2_DepthDuration_HTML.html#57,57,1366,768,1366,768,8-20-2022,11-58-16,150,depth_duration_stimuli/002949_2014-06-26_15-57-42_094959634447_rgbf000079-resize_1/002949_2014-06-26_15-57-42_094959634447_rgbf000079-resize_1-target.png,250,1.8915,4,3195,218,meters,jsons/v1_VE250_randls_53.json,813350,1093898,56,Man
150,149886,DepthScenes,duration_manipulation_targetAtFixation,jsons/v1_VE250_randls_53.json,http://54.235.29.9/FacialAge/BNav_EC2/DepthDuration/v2_depth_duration_MTurk/v2_DepthDuration_HTML.html#57,57,1366,768,1366,768,8-20-2022,11-58-16,151,depth_duration_stimuli/000009_2014-05-26_14-32-05_260595134347_rgbf000034-resize_3/000009_2014-05-26_14-32-05_260595134347_rgbf000034-resize_3-target.png,250,3.8715,4,3093,248,meters,jsons/v1_VE250_randls_53.json,813350,1093898,56,Man
151,149886,DepthScenes,duration_manipulation_targetAtFixation,jsons/v1_VE250_randls_53.json,http://54.235.29.9/FacialAge/BNav_EC2/DepthDuration/v2_depth_duration_MTurk/v2_DepthDuration_HTML.html#57,57,1366,768,1366,768,8-20-2022,11-58-16,152,depth_duration_stimuli/001828_2014-06-26_21-40-03_260595134347_rgbf000024-resize_0/001828_2014-06-26_21-40-03_260595134347_rgbf000024-resize_0-target.png,250,4.8260000000000005,2,3755,246,meters,jsons/v1_VE250_randls_53.json,813350,1093898,56,Man
152,149886,DepthScenes,duration_manipulation_targetAtFixation,jsons/v1_VE250_randls_53.json,http://54.235.29.9/FacialAge/BNav_EC2/DepthDuration/v2_depth_duration_MTurk/v2_DepthDuration_HTML.html#57,57,1366,768,1366,768,8-20-2022,11-58-16,153,depth_duration_stimuli/001175_2014-06-17_15-45-55_260595134347_rgbf000129-resize_4/001175_2014-06-17_15-45-55_260595134347_rgbf000129-resize_4-target.png,250,4.255,3,5235,242,meters,jsons/v1_VE250_randls_53.json,813350,1093898,56,Man
153,149886,DepthScenes,duration_manipulation_targetAtFixation,jsons/v1_VE250_randls_53.json,http://54.235.29.9/FacialAge/BNav_EC2/DepthDuration/v2_depth_duration_MTurk/v2_DepthDuration_HTML.html#57,57,1366,768,1366,768,8-20-2022,11-58-16,154,depth_duration_stimuli/003490_2014-05-21_15-50-11_094959634447_rgbf000101-resize_3/003490_2014-05-21_15-50-11_094959634447_rgbf000101-resize_3-target.png,250,3.6445,3,6172,249,meters,jsons/v1_VE250_randls_53.json,813350,1093898,56,Man
154,149886,DepthScenes,duration_manipulation_targetAtFixation,jsons/v1_VE250_randls_53.json,http://54.235.29.9/FacialAge/BNav_EC2/DepthDuration/v2_depth_duration_MTurk/v2_DepthDuration_HTML.html#57,57,1366,768,1366,768,8-20-2022,11-58-16,155,depth_duration_stimuli/000682_2014-06-08_23-14-58_260595134347_rgbf000041-resize_5/000682_2014-06-08_23-14-58_260595134347_rgbf000041-resize_5-target.png,250,2.7239999999999998,3,2618,270,meters,jsons/v1_VE250_randls_53.json,813350,1093898,56,Man
155,149886,DepthScenes,duration_manipulation_targetAtFixation,jsons/v1_VE250_randls_53.json,http://54.235.29.9/FacialAge/BNav_EC2/DepthDuration/v2_depth_duration_MTurk/v2_DepthDuration_HTML.html#57,57,1366,768,1366,768,8-20-2022,11-58-16,156,depth_duration_stimuli/001650_2014-06-20_12-09-00_260595134347_rgbf000087-resize_3/001650_2014-06-20_12-09-00_260595134347_rgbf000087-resize_3-target.png,250,1.9505,3,2794,250,meters,jsons/v1_VE250_randls_53.json,813350,1093898,56,Man
156,149886,DepthScenes,duration_manipulation_targetAtFixation,jsons/v1_VE250_randls_53.json,http://54.235.29.9/FacialAge/BNav_EC2/DepthDuration/v2_depth_duration_MTurk/v2_DepthDuration_HTML.html#57,57,1366,768,1366,768,8-20-2022,11-58-16,157,depth_duration_stimuli/001055_2014-06-08_18-45-35_260595134347_rgbf000111-resize_4/001055_2014-06-08_18-45-35_260595134347_rgbf000111-resize_4-target.png,250,2.4290000000000003,3,2890,258,meters,jsons/v1_VE250_randls_53.json,813350,1093898,56,Man
157,149886,DepthScenes,duration_manipulation_targetAtFixation,jsons/v1_VE250_randls_53.json,http://54.235.29.9/FacialAge/BNav_EC2/DepthDuration/v2_depth_duration_MTurk/v2_DepthDuration_HTML.html#57,57,1366,768,1366,768,8-20-2022,11-58-16,158,depth_duration_stimuli/000549_2014-06-08_22-10-24_260595134347_rgbf000247-resize_3/000549_2014-06-08_22-10-24_260595134347_rgbf000247-resize_3-target.png,250,1.841,4,4163,253,meters,jsons/v1_VE250_randls_53.json,813350,1093898,56,Man
158,149886,DepthScenes,duration_manipulation_targetAtFixation,jsons/v1_VE250_randls_53.json,http://54.235.29.9/FacialAge/BNav_EC2/DepthDuration/v2_depth_duration_MTurk/v2_DepthDuration_HTML.html#57,57,1366,768,1366,768,8-20-2022,11-58-16,159,depth_duration_stimuli/001417_2014-06-19_16-25-36_260595134347_rgbf000115-resize_5/001417_2014-06-19_16-25-36_260595134347_rgbf000115-resize_5-target.png,250,4.6255,4,2672,247,meters,jsons/v1_VE250_randls_53.json,813350,1093898,56,Man
159,149886,DepthScenes,duration_manipulation_targetAtFixation,jsons/v1_VE250_randls_53.json,http://54.235.29.9/FacialAge/BNav_EC2/DepthDuration/v2_depth_duration_MTurk/v2_DepthDuration_HTML.html#57,57,1366,768,1366,768,8-20-2022,11-58-16,160,depth_duration_stimuli/003081_2014-06-15_15-19-16_094959634447_rgbf000150-resize_1/003081_2014-06-15_15-19-16_094959634447_rgbf000150-resize_1-target.png,250,3.9125,3,3227,244,meters,jsons/v1_VE250_randls_53.json,813350,1093898,56,Man
160,149886,DepthScenes,duration_manipulation_targetAtFixation,jsons/v1_VE250_randls_53.json,http://54.235.29.9/FacialAge/BNav_EC2/DepthDuration/v2_depth_duration_MTurk/v2_DepthDuration_HTML.html#57,57,1366,768,1366,768,8-20-2022,11-58-16,161,depth_duration_stimuli/001029_2014-06-08_13-17-57_260595134347_rgbf000065-resize_1/001029_2014-06-08_13-17-57_260595134347_rgbf000065-resize_1-target.png,250,3.0835,3,3567,262,meters,jsons/v1_VE250_randls_53.json,813350,1093898,56,Man
161,149886,DepthScenes,duration_manipulation_targetAtFixation,jsons/v1_VE250_randls_53.json,http://54.235.29.9/FacialAge/BNav_EC2/DepthDuration/v2_depth_duration_MTurk/v2_DepthDuration_HTML.html#57,57,1366,768,1366,768,8-20-2022,11-58-16,162,depth_duration_stimuli/000677_2014-06-08_23-10-32_260595134347_rgbf000158-resize_6/000677_2014-06-08_23-10-32_260595134347_rgbf000158-resize_6-target.png,250,3.556,3,2663,247,meters,jsons/v1_VE250_randls_53.json,813350,1093898,56,Man
162,149886,DepthScenes,duration_manipulation_targetAtFixation,jsons/v1_VE250_randls_53.json,http://54.235.29.9/FacialAge/BNav_EC2/DepthDuration/v2_depth_duration_MTurk/v2_DepthDuration_HTML.html#57,57,1366,768,1366,768,8-20-2022,11-58-16,163,depth_duration_stimuli/002279_2014-06-28_18-55-32_260595134347_rgbf000040-resize_5/002279_2014-06-28_18-55-32_260595134347_rgbf000040-resize_5-target.png,250,1.5043333333333,3,3069,240,meters,jsons/v1_VE250_randls_53.json,813350,1093898,56,Man
163,149886,DepthScenes,duration_manipulation_targetAtFixation,jsons/v1_VE250_randls_53.json,http://54.235.29.9/FacialAge/BNav_EC2/DepthDuration/v2_depth_duration_MTurk/v2_DepthDuration_HTML.html#57,57,1366,768,1366,768,8-20-2022,11-58-16,164,depth_duration_stimuli/000635_2014-06-08_16-38-42_260595134347_rgbf000106-resize_1/000635_2014-06-08_16-38-42_260595134347_rgbf000106-resize_1-target.png,250,2.074,4,3308,250,meters,jsons/v1_VE250_randls_53.json,813350,1093898,56,Man
