,subjID,experimentName,versionName,sequenceName,url,selected_row,windowWidth,windowHeight,screenWidth,screenHeight,startDate,startTime,trial,stimulus,duration,actual_depth,depth_estimate,trial_RT,log_sceneDuration,unitSelection,seq_filepath,experimentTime,totalTime,age,gender
0,152479,DepthScenes,duration_manipulation_targetAtFixation,jsons/VE125_randls_29_rotated.json,http://54.235.29.9/FacialAge/BNav_EC2/DepthDuration/v2_depth_duration_MTurk/v2_DepthDuration_HTML.html#9,9,1366,657,1366,768,8-21-2022,9-45-48,1,depth_duration_stimuli/001815_2014-06-26_20-52-55_260595134347_rgbf000020-resize_0/001815_2014-06-26_20-52-55_260595134347_rgbf000020-resize_0-target.png,125,3.3865,8,2448,124,feet,jsons/VE125_randls_29_rotated.json,576201,1334319,63,Woman
1,152479,DepthScenes,duration_manipulation_targetAtFixation,jsons/VE125_randls_29_rotated.json,http://54.235.29.9/FacialAge/BNav_EC2/DepthDuration/v2_depth_duration_MTurk/v2_DepthDuration_HTML.html#9,9,1366,657,1366,768,8-21-2022,9-45-48,2,depth_duration_stimuli/001808_2014-06-26_20-50-58_260595134347_rgbf000029-resize_1/001808_2014-06-26_20-50-58_260595134347_rgbf000029-resize_1-target.png,125,4.249,5,4210,124,feet,jsons/VE125_randls_29_rotated.json,576201,1334319,63,Woman
2,152479,DepthScenes,duration_manipulation_targetAtFixation,jsons/VE125_randls_29_rotated.json,http://54.235.29.9/FacialAge/BNav_EC2/DepthDuration/v2_depth_duration_MTurk/v2_DepthDuration_HTML.html#9,9,1366,657,1366,768,8-21-2022,9-45-48,3,depth_duration_stimuli/001235_2014-06-17_16-37-36_260595134347_rgbf000084-resize_4/001235_2014-06-17_16-37-36_260595134347_rgbf000084-resize_4-target.png,125,3.6605,12,1986,124,feet,jsons/VE125_randls_29_rotated.json,576201,1334319,63,Woman
3,152479,DepthScenes,duration_manipulation_targetAtFixation,jsons/VE125_randls_29_rotated.json,http://54.235.29.9/FacialAge/BNav_EC2/DepthDuration/v2_depth_duration_MTurk/v2_DepthDuration_HTML.html#9,9,1366,657,1366,768,8-21-2022,9-45-48,4,depth_duration_stimuli/000788_2014-06-08_22-34-36_260595134347_rgbf000131-resize_1/000788_2014-06-08_22-34-36_260595134347_rgbf000131-resize_1-target.png,125,3.359,10,2835,124,feet,jsons/VE125_randls_29_rotated.json,576201,1334319,63,Woman
4,152479,DepthScenes,duration_manipulation_targetAtFixation,jsons/VE125_randls_29_rotated.json,http://54.235.29.9/FacialAge/BNav_EC2/DepthDuration/v2_depth_duration_MTurk/v2_DepthDuration_HTML.html#9,9,1366,657,1366,768,8-21-2022,9-45-48,5,depth_duration_stimuli/000665_2014-06-09_20-42-35_260595134347_rgbf000110-resize_1/000665_2014-06-09_20-42-35_260595134347_rgbf000110-resize_1-target.png,125,3.057,10,2274,124,feet,jsons/VE125_randls_29_rotated.json,576201,1334319,63,Woman
5,152479,DepthScenes,duration_manipulation_targetAtFixation,jsons/VE125_randls_29_rotated.json,http://54.235.29.9/FacialAge/BNav_EC2/DepthDuration/v2_depth_duration_MTurk/v2_DepthDuration_HTML.html#9,9,1366,657,1366,768,8-21-2022,9-45-48,6,depth_duration_stimuli/001150_2014-06-17_15-27-34_260595134347_rgbf000108-resize_2/001150_2014-06-17_15-27-34_260595134347_rgbf000108-resize_2-target.png,125,4.0325,14,2574,111,feet,jsons/VE125_randls_29_rotated.json,576201,1334319,63,Woman
6,152479,DepthScenes,duration_manipulation_targetAtFixation,jsons/VE125_randls_29_rotated.json,http://54.235.29.9/FacialAge/BNav_EC2/DepthDuration/v2_depth_duration_MTurk/v2_DepthDuration_HTML.html#9,9,1366,657,1366,768,8-21-2022,9-45-48,7,depth_duration_stimuli/002875_2014-06-01_15-19-00_094959634447_rgbf000151-resize_1/002875_2014-06-01_15-19-00_094959634447_rgbf000151-resize_1-target.png,125,1.9675,16,2866,125,feet,jsons/VE125_randls_29_rotated.json,576201,1334319,63,Woman
7,152479,DepthScenes,duration_manipulation_targetAtFixation,jsons/VE125_randls_29_rotated.json,http://54.235.29.9/FacialAge/BNav_EC2/DepthDuration/v2_depth_duration_MTurk/v2_DepthDuration_HTML.html#9,9,1366,657,1366,768,8-21-2022,9-45-48,8,depth_duration_stimuli/001011_2014-06-08_23-18-54_260595134347_rgbf000044-resize_4/001011_2014-06-08_23-18-54_260595134347_rgbf000044-resize_4-target.png,125,2.4730000000000003,11,2795,124,feet,jsons/VE125_randls_29_rotated.json,576201,1334319,63,Woman
8,152479,DepthScenes,duration_manipulation_targetAtFixation,jsons/VE125_randls_29_rotated.json,http://54.235.29.9/FacialAge/BNav_EC2/DepthDuration/v2_depth_duration_MTurk/v2_DepthDuration_HTML.html#9,9,1366,657,1366,768,8-21-2022,9-45-48,9,depth_duration_stimuli/002340_2014-06-28_20-05-46_260595134347_rgbf000113-resize_0/002340_2014-06-28_20-05-46_260595134347_rgbf000113-resize_0-target.png,125,2.4735,9,5747,125,feet,jsons/VE125_randls_29_rotated.json,576201,1334319,63,Woman
9,152479,DepthScenes,duration_manipulation_targetAtFixation,jsons/VE125_randls_29_rotated.json,http://54.235.29.9/FacialAge/BNav_EC2/DepthDuration/v2_depth_duration_MTurk/v2_DepthDuration_HTML.html#9,9,1366,657,1366,768,8-21-2022,9-45-48,10,depth_duration_stimuli/001016_2014-06-09_16-16-10_260595134347_rgbf000112-resize_5/001016_2014-06-09_16-16-10_260595134347_rgbf000112-resize_5-target.png,125,1.6565,5,3258,124,feet,jsons/VE125_randls_29_rotated.json,576201,1334319,63,Woman
10,152479,DepthScenes,duration_manipulation_targetAtFixation,jsons/VE125_randls_29_rotated.json,http://54.235.29.9/FacialAge/BNav_EC2/DepthDuration/v2_depth_duration_MTurk/v2_DepthDuration_HTML.html#9,9,1366,657,1366,768,8-21-2022,9-45-48,11,depth_duration_stimuli/000109_2014-05-14_23-41-52_260595134347_rgbf000035-resize_9/000109_2014-05-14_23-41-52_260595134347_rgbf000035-resize_9-target.png,125,1.3545,4,4818,125,feet,jsons/VE125_randls_29_rotated.json,576201,1334319,63,Woman
11,152479,DepthScenes,duration_manipulation_targetAtFixation,jsons/VE125_randls_29_rotated.json,http://54.235.29.9/FacialAge/BNav_EC2/DepthDuration/v2_depth_duration_MTurk/v2_DepthDuration_HTML.html#9,9,1366,657,1366,768,8-21-2022,9-45-48,12,depth_duration_stimuli/000470_2014-06-09_19-42-40_260595134347_rgbf000094-resize_1/000470_2014-06-09_19-42-40_260595134347_rgbf000094-resize_1-target.png,125,1.831,4,2483,125,feet,jsons/VE125_randls_29_rotated.json,576201,1334319,63,Woman
12,152479,DepthScenes,duration_manipulation_targetAtFixation,jsons/VE125_randls_29_rotated.json,http://54.235.29.9/FacialAge/BNav_EC2/DepthDuration/v2_depth_duration_MTurk/v2_DepthDuration_HTML.html#9,9,1366,657,1366,768,8-21-2022,9-45-48,13,depth_duration_stimuli/001214_2014-06-17_16-13-55_260595134347_rgbf000111-resize_0/001214_2014-06-17_16-13-55_260595134347_rgbf000111-resize_0-target.png,125,2.6505,5,2203,125,feet,jsons/VE125_randls_29_rotated.json,576201,1334319,63,Woman
13,152479,DepthScenes,duration_manipulation_targetAtFixation,jsons/VE125_randls_29_rotated.json,http://54.235.29.9/FacialAge/BNav_EC2/DepthDuration/v2_depth_duration_MTurk/v2_DepthDuration_HTML.html#9,9,1366,657,1366,768,8-21-2022,9-45-48,14,depth_duration_stimuli/000810_2014-06-08_17-20-01_260595134347_rgbf000105-resize_0/000810_2014-06-08_17-20-01_260595134347_rgbf000105-resize_0-target.png,125,1.4865,0,2162,125,feet,jsons/VE125_randls_29_rotated.json,576201,1334319,63,Woman
14,152479,DepthScenes,duration_manipulation_targetAtFixation,jsons/VE125_randls_29_rotated.json,http://54.235.29.9/FacialAge/BNav_EC2/DepthDuration/v2_depth_duration_MTurk/v2_DepthDuration_HTML.html#9,9,1366,657,1366,768,8-21-2022,9-45-48,15,depth_duration_stimuli/002209_2014-06-28_18-36-10_260595134347_rgbf000051-resize_1/002209_2014-06-28_18-36-10_260595134347_rgbf000051-resize_1-target.png,125,2.057,4,2315,124,feet,jsons/VE125_randls_29_rotated.json,576201,1334319,63,Woman
15,152479,DepthScenes,duration_manipulation_targetAtFixation,jsons/VE125_randls_29_rotated.json,http://54.235.29.9/FacialAge/BNav_EC2/DepthDuration/v2_depth_duration_MTurk/v2_DepthDuration_HTML.html#9,9,1366,657,1366,768,8-21-2022,9-45-48,16,depth_duration_stimuli/002763_2014-06-22_19-13-10_094959634447_rgbf000075-resize_4/002763_2014-06-22_19-13-10_094959634447_rgbf000075-resize_4-target.png,125,1.68375,4,2643,126,feet,jsons/VE125_randls_29_rotated.json,576201,1334319,63,Woman
16,152479,DepthScenes,duration_manipulation_targetAtFixation,jsons/VE125_randls_29_rotated.json,http://54.235.29.9/FacialAge/BNav_EC2/DepthDuration/v2_depth_duration_MTurk/v2_DepthDuration_HTML.html#9,9,1366,657,1366,768,8-21-2022,9-45-48,17,depth_duration_stimuli/002660_2014-06-13_15-44-18_094959634447_rgbf001878-resize_2/002660_2014-06-13_15-44-18_094959634447_rgbf001878-resize_2-target.png,125,3.576,8,1787,125,feet,jsons/VE125_randls_29_rotated.json,576201,1334319,63,Woman
17,152479,DepthScenes,duration_manipulation_targetAtFixation,jsons/VE125_randls_29_rotated.json,http://54.235.29.9/FacialAge/BNav_EC2/DepthDuration/v2_depth_duration_MTurk/v2_DepthDuration_HTML.html#9,9,1366,657,1366,768,8-21-2022,9-45-48,18,depth_duration_stimuli/002153_2014-06-25_21-27-18_260595134347_rgbf000038-resize_5/002153_2014-06-25_21-27-18_260595134347_rgbf000038-resize_5-target.png,125,2.505,5,2507,124,feet,jsons/VE125_randls_29_rotated.json,576201,1334319,63,Woman
18,152479,DepthScenes,duration_manipulation_targetAtFixation,jsons/VE125_randls_29_rotated.json,http://54.235.29.9/FacialAge/BNav_EC2/DepthDuration/v2_depth_duration_MTurk/v2_DepthDuration_HTML.html#9,9,1366,657,1366,768,8-21-2022,9-45-48,19,depth_duration_stimuli/001498_2014-06-19_17-45-14_260595134347_rgbf000129-resize_4/001498_2014-06-19_17-45-14_260595134347_rgbf000129-resize-original.jpg,125,1.4075,0,1667,124,feet,jsons/VE125_randls_29_rotated.json,576201,1334319,63,Woman
19,152479,DepthScenes,duration_manipulation_targetAtFixation,jsons/VE125_randls_29_rotated.json,http://54.235.29.9/FacialAge/BNav_EC2/DepthDuration/v2_depth_duration_MTurk/v2_DepthDuration_HTML.html#9,9,1366,657,1366,768,8-21-2022,9-45-48,20,depth_duration_stimuli/001571_2014-06-20_17-21-32_260595134347_rgbf000089-resize_1/001571_2014-06-20_17-21-32_260595134347_rgbf000089-resize_1-target.png,125,1.86,3,2267,124,feet,jsons/VE125_randls_29_rotated.json,576201,1334319,63,Woman
20,152479,DepthScenes,duration_manipulation_targetAtFixation,jsons/VE125_randls_29_rotated.json,http://54.235.29.9/FacialAge/BNav_EC2/DepthDuration/v2_depth_duration_MTurk/v2_DepthDuration_HTML.html#9,9,1366,657,1366,768,8-21-2022,9-45-48,21,depth_duration_stimuli/002272_2014-06-28_18-53-56_260595134347_rgbf000067-resize_2/002272_2014-06-28_18-53-56_260595134347_rgbf000067-resize_2-target.png,125,1.138,2,1827,125,feet,jsons/VE125_randls_29_rotated.json,576201,1334319,63,Woman
21,152479,DepthScenes,duration_manipulation_targetAtFixation,jsons/VE125_randls_29_rotated.json,http://54.235.29.9/FacialAge/BNav_EC2/DepthDuration/v2_depth_duration_MTurk/v2_DepthDuration_HTML.html#9,9,1366,657,1366,768,8-21-2022,9-45-48,22,depth_duration_stimuli/001828_2014-06-26_21-40-03_260595134347_rgbf000024-resize_0/001828_2014-06-26_21-40-03_260595134347_rgbf000024-resize_0-target.png,125,4.8260000000000005,5,2115,125,feet,jsons/VE125_randls_29_rotated.json,576201,1334319,63,Woman
22,152479,DepthScenes,duration_manipulation_targetAtFixation,jsons/VE125_randls_29_rotated.json,http://54.235.29.9/FacialAge/BNav_EC2/DepthDuration/v2_depth_duration_MTurk/v2_DepthDuration_HTML.html#9,9,1366,657,1366,768,8-21-2022,9-45-48,23,depth_duration_stimuli/000009_2014-05-26_14-32-05_260595134347_rgbf000034-resize_3/000009_2014-05-26_14-32-05_260595134347_rgbf000034-resize_3-target.png,125,3.8715,9,1923,124,feet,jsons/VE125_randls_29_rotated.json,576201,1334319,63,Woman
23,152479,DepthScenes,duration_manipulation_targetAtFixation,jsons/VE125_randls_29_rotated.json,http://54.235.29.9/FacialAge/BNav_EC2/DepthDuration/v2_depth_duration_MTurk/v2_DepthDuration_HTML.html#9,9,1366,657,1366,768,8-21-2022,9-45-48,24,depth_duration_stimuli/002425_2014-06-28_20-27-29_260595134347_rgbf000031-resize_8/002425_2014-06-28_20-27-29_260595134347_rgbf000031-resize_8-target.png,125,3.8960000000000004,4,2099,125,feet,jsons/VE125_randls_29_rotated.json,576201,1334319,63,Woman
24,152479,DepthScenes,duration_manipulation_targetAtFixation,jsons/VE125_randls_29_rotated.json,http://54.235.29.9/FacialAge/BNav_EC2/DepthDuration/v2_depth_duration_MTurk/v2_DepthDuration_HTML.html#9,9,1366,657,1366,768,8-21-2022,9-45-48,25,depth_duration_stimuli/000642_2014-06-08_16-59-25_260595134347_rgbf000098-resize_2/000642_2014-06-08_16-59-25_260595134347_rgbf000098-resize_2-target.png,125,2.8815,5,1939,123,feet,jsons/VE125_randls_29_rotated.json,576201,1334319,63,Woman
25,152479,DepthScenes,duration_manipulation_targetAtFixation,jsons/VE125_randls_29_rotated.json,http://54.235.29.9/FacialAge/BNav_EC2/DepthDuration/v2_depth_duration_MTurk/v2_DepthDuration_HTML.html#9,9,1366,657,1366,768,8-21-2022,9-45-48,26,depth_duration_stimuli/000927_2014-06-09_16-32-30_260595134347_rgbf000123-resize_3/000927_2014-06-09_16-32-30_260595134347_rgbf000123-resize_3-target.png,125,2.6785,9,2211,124,feet,jsons/VE125_randls_29_rotated.json,576201,1334319,63,Woman
26,152479,DepthScenes,duration_manipulation_targetAtFixation,jsons/VE125_randls_29_rotated.json,http://54.235.29.9/FacialAge/BNav_EC2/DepthDuration/v2_depth_duration_MTurk/v2_DepthDuration_HTML.html#9,9,1366,657,1366,768,8-21-2022,9-45-48,27,depth_duration_stimuli/001110_2014-06-15_17-25-28_260595134347_rgbf000150-resize_1/001110_2014-06-15_17-25-28_260595134347_rgbf000150-resize_1-target.png,125,1.7115,8,1811,125,feet,jsons/VE125_randls_29_rotated.json,576201,1334319,63,Woman
27,152479,DepthScenes,duration_manipulation_targetAtFixation,jsons/VE125_randls_29_rotated.json,http://54.235.29.9/FacialAge/BNav_EC2/DepthDuration/v2_depth_duration_MTurk/v2_DepthDuration_HTML.html#9,9,1366,657,1366,768,8-21-2022,9-45-48,28,depth_duration_stimuli/002953_2014-06-08_17-32-18_094959634447_rgbf000059-resize_5/002953_2014-06-08_17-32-18_094959634447_rgbf000059-resize_5-target.png,125,1.551,7,2299,125,feet,jsons/VE125_randls_29_rotated.json,576201,1334319,63,Woman
28,152479,DepthScenes,duration_manipulation_targetAtFixation,jsons/VE125_randls_29_rotated.json,http://54.235.29.9/FacialAge/BNav_EC2/DepthDuration/v2_depth_duration_MTurk/v2_DepthDuration_HTML.html#9,9,1366,657,1366,768,8-21-2022,9-45-48,29,depth_duration_stimuli/000878_2014-06-08_22-52-45_260595134347_rgbf000045-resize_2/000878_2014-06-08_22-52-45_260595134347_rgbf000045-resize_2-target.png,125,2.092,5,2034,125,feet,jsons/VE125_randls_29_rotated.json,576201,1334319,63,Woman
29,152479,DepthScenes,duration_manipulation_targetAtFixation,jsons/VE125_randls_29_rotated.json,http://54.235.29.9/FacialAge/BNav_EC2/DepthDuration/v2_depth_duration_MTurk/v2_DepthDuration_HTML.html#9,9,1366,657,1366,768,8-21-2022,9-45-48,30,depth_duration_stimuli/002072_2014-06-24_21-48-06_260595134347_rgbf000115-resize_0/002072_2014-06-24_21-48-06_260595134347_rgbf000115-resize-original.jpg,125,4.702,0,1625,124,feet,jsons/VE125_randls_29_rotated.json,576201,1334319,63,Woman
30,152479,DepthScenes,duration_manipulation_targetAtFixation,jsons/VE125_randls_29_rotated.json,http://54.235.29.9/FacialAge/BNav_EC2/DepthDuration/v2_depth_duration_MTurk/v2_DepthDuration_HTML.html#9,9,1366,657,1366,768,8-21-2022,9-45-48,31,depth_duration_stimuli/000635_2014-06-08_16-38-42_260595134347_rgbf000106-resize_1/000635_2014-06-08_16-38-42_260595134347_rgbf000106-resize_1-target.png,125,2.074,6,3002,123,feet,jsons/VE125_randls_29_rotated.json,576201,1334319,63,Woman
31,152479,DepthScenes,duration_manipulation_targetAtFixation,jsons/VE125_randls_29_rotated.json,http://54.235.29.9/FacialAge/BNav_EC2/DepthDuration/v2_depth_duration_MTurk/v2_DepthDuration_HTML.html#9,9,1366,657,1366,768,8-21-2022,9-45-48,32,depth_duration_stimuli/002279_2014-06-28_18-55-32_260595134347_rgbf000040-resize_5/002279_2014-06-28_18-55-32_260595134347_rgbf000040-resize_5-target.png,125,1.5043333333333,4,1827,125,feet,jsons/VE125_randls_29_rotated.json,576201,1334319,63,Woman
32,152479,DepthScenes,duration_manipulation_targetAtFixation,jsons/VE125_randls_29_rotated.json,http://54.235.29.9/FacialAge/BNav_EC2/DepthDuration/v2_depth_duration_MTurk/v2_DepthDuration_HTML.html#9,9,1366,657,1366,768,8-21-2022,9-45-48,33,depth_duration_stimuli/001516_2014-06-20_16-25-09_260595134347_rgbf000076-resize_2/001516_2014-06-20_16-25-09_260595134347_rgbf000076-resize_2-target.png,125,1.7445,10,2659,124,feet,jsons/VE125_randls_29_rotated.json,576201,1334319,63,Woman
33,152479,DepthScenes,duration_manipulation_targetAtFixation,jsons/VE125_randls_29_rotated.json,http://54.235.29.9/FacialAge/BNav_EC2/DepthDuration/v2_depth_duration_MTurk/v2_DepthDuration_HTML.html#9,9,1366,657,1366,768,8-21-2022,9-45-48,34,depth_duration_stimuli/002118_2014-06-25_20-32-08_260595134347_rgbf000078-resize_1/002118_2014-06-25_20-32-08_260595134347_rgbf000078-resize_1-target.png,125,2.6460000000000004,0,2458,125,feet,jsons/VE125_randls_29_rotated.json,576201,1334319,63,Woman
34,152479,DepthScenes,duration_manipulation_targetAtFixation,jsons/VE125_randls_29_rotated.json,http://54.235.29.9/FacialAge/BNav_EC2/DepthDuration/v2_depth_duration_MTurk/v2_DepthDuration_HTML.html#9,9,1366,657,1366,768,8-21-2022,9-45-48,35,depth_duration_stimuli/001032_2014-06-08_13-23-17_260595134347_rgbf000021-resize_3/001032_2014-06-08_13-23-17_260595134347_rgbf000021-resize_3-target.png,125,3.2725,5,3267,124,feet,jsons/VE125_randls_29_rotated.json,576201,1334319,63,Woman
35,152479,DepthScenes,duration_manipulation_targetAtFixation,jsons/VE125_randls_29_rotated.json,http://54.235.29.9/FacialAge/BNav_EC2/DepthDuration/v2_depth_duration_MTurk/v2_DepthDuration_HTML.html#9,9,1366,657,1366,768,8-21-2022,9-45-48,36,depth_duration_stimuli/001059_2014-06-08_21-53-27_260595134347_rgbf000061-resize_4/001059_2014-06-08_21-53-27_260595134347_rgbf000061-resize_4-target.png,125,2.4185,6,2000,122,feet,jsons/VE125_randls_29_rotated.json,576201,1334319,63,Woman
36,152479,DepthScenes,duration_manipulation_targetAtFixation,jsons/VE125_randls_29_rotated.json,http://54.235.29.9/FacialAge/BNav_EC2/DepthDuration/v2_depth_duration_MTurk/v2_DepthDuration_HTML.html#9,9,1366,657,1366,768,8-21-2022,9-45-48,37,depth_duration_stimuli/001650_2014-06-20_12-09-00_260595134347_rgbf000087-resize_3/001650_2014-06-20_12-09-00_260595134347_rgbf000087-resize_3-target.png,125,1.9505,6,2987,125,feet,jsons/VE125_randls_29_rotated.json,576201,1334319,63,Woman
37,152479,DepthScenes,duration_manipulation_targetAtFixation,jsons/VE125_randls_29_rotated.json,http://54.235.29.9/FacialAge/BNav_EC2/DepthDuration/v2_depth_duration_MTurk/v2_DepthDuration_HTML.html#9,9,1366,657,1366,768,8-21-2022,9-45-48,38,depth_duration_stimuli/000682_2014-06-08_23-14-58_260595134347_rgbf000041-resize_5/000682_2014-06-08_23-14-58_260595134347_rgbf000041-resize_5-target.png,125,2.7239999999999998,13,2219,125,feet,jsons/VE125_randls_29_rotated.json,576201,1334319,63,Woman
38,152479,DepthScenes,duration_manipulation_targetAtFixation,jsons/VE125_randls_29_rotated.json,http://54.235.29.9/FacialAge/BNav_EC2/DepthDuration/v2_depth_duration_MTurk/v2_DepthDuration_HTML.html#9,9,1366,657,1366,768,8-21-2022,9-45-48,39,depth_duration_stimuli/002758_2014-06-22_19-11-20_094959634447_rgbf000128-resize_1/002758_2014-06-22_19-11-20_094959634447_rgbf000128-resize_1-target.png,125,2.555,7,3435,126,feet,jsons/VE125_randls_29_rotated.json,576201,1334319,63,Woman
39,152479,DepthScenes,duration_manipulation_targetAtFixation,jsons/VE125_randls_29_rotated.json,http://54.235.29.9/FacialAge/BNav_EC2/DepthDuration/v2_depth_duration_MTurk/v2_DepthDuration_HTML.html#9,9,1366,657,1366,768,8-21-2022,9-45-48,40,depth_duration_stimuli/002630_2014-06-24_14-47-50_094959634447_rgbf000055-resize_1/002630_2014-06-24_14-47-50_094959634447_rgbf000055-resize_1-target.png,125,3.0095,15,2555,125,feet,jsons/VE125_randls_29_rotated.json,576201,1334319,63,Woman
40,152479,DepthScenes,duration_manipulation_targetAtFixation,jsons/VE125_randls_29_rotated.json,http://54.235.29.9/FacialAge/BNav_EC2/DepthDuration/v2_depth_duration_MTurk/v2_DepthDuration_HTML.html#9,9,1366,657,1366,768,8-21-2022,9-45-48,41,depth_duration_stimuli/001450_2014-06-19_17-02-03_260595134347_rgbf000203-resize_4/001450_2014-06-19_17-02-03_260595134347_rgbf000203-resize_4-target.png,125,4.0106666666667,15,2667,124,feet,jsons/VE125_randls_29_rotated.json,576201,1334319,63,Woman
41,152479,DepthScenes,duration_manipulation_targetAtFixation,jsons/VE125_randls_29_rotated.json,http://54.235.29.9/FacialAge/BNav_EC2/DepthDuration/v2_depth_duration_MTurk/v2_DepthDuration_HTML.html#9,9,1366,657,1366,768,8-21-2022,9-45-48,42,depth_duration_stimuli/001449_2014-06-19_17-01-27_260595134347_rgbf000116-resize_2/001449_2014-06-19_17-01-27_260595134347_rgbf000116-resize_2-target.png,125,3.452,14,3810,124,feet,jsons/VE125_randls_29_rotated.json,576201,1334319,63,Woman
42,152479,DepthScenes,duration_manipulation_targetAtFixation,jsons/VE125_randls_29_rotated.json,http://54.235.29.9/FacialAge/BNav_EC2/DepthDuration/v2_depth_duration_MTurk/v2_DepthDuration_HTML.html#9,9,1366,657,1366,768,8-21-2022,9-45-48,43,depth_duration_stimuli/003338_2014-05-20_11-01-23_094959634447_rgbf000051-resize_6/003338_2014-05-20_11-01-23_094959634447_rgbf000051-resize_6-target.png,125,1.693,13,2291,125,feet,jsons/VE125_randls_29_rotated.json,576201,1334319,63,Woman
43,152479,DepthScenes,duration_manipulation_targetAtFixation,jsons/VE125_randls_29_rotated.json,http://54.235.29.9/FacialAge/BNav_EC2/DepthDuration/v2_depth_duration_MTurk/v2_DepthDuration_HTML.html#9,9,1366,657,1366,768,8-21-2022,9-45-48,44,depth_duration_stimuli/002509_2014-06-24_13-19-22_094959634447_rgbf000077-resize_0/002509_2014-06-24_13-19-22_094959634447_rgbf000077-resize_0-target.png,125,1.3065,8,2923,125,feet,jsons/VE125_randls_29_rotated.json,576201,1334319,63,Woman
44,152479,DepthScenes,duration_manipulation_targetAtFixation,jsons/VE125_randls_29_rotated.json,http://54.235.29.9/FacialAge/BNav_EC2/DepthDuration/v2_depth_duration_MTurk/v2_DepthDuration_HTML.html#9,9,1366,657,1366,768,8-21-2022,9-45-48,45,depth_duration_stimuli/002136_2014-06-25_21-18-03_260595134347_rgbf000109-resize_3/002136_2014-06-25_21-18-03_260595134347_rgbf000109-resize_3-target.png,125,1.9569999999999999,3,3723,125,feet,jsons/VE125_randls_29_rotated.json,576201,1334319,63,Woman
45,152479,DepthScenes,duration_manipulation_targetAtFixation,jsons/VE125_randls_29_rotated.json,http://54.235.29.9/FacialAge/BNav_EC2/DepthDuration/v2_depth_duration_MTurk/v2_DepthDuration_HTML.html#9,9,1366,657,1366,768,8-21-2022,9-45-48,46,depth_duration_stimuli/002964_2014-06-08_17-46-11_094959634447_rgbf000091-resize_4/002964_2014-06-08_17-46-11_094959634447_rgbf000091-resize_4-target.png,125,1.6909999999999998,15,6763,126,feet,jsons/VE125_randls_29_rotated.json,576201,1334319,63,Woman
46,152479,DepthScenes,duration_manipulation_targetAtFixation,jsons/VE125_randls_29_rotated.json,http://54.235.29.9/FacialAge/BNav_EC2/DepthDuration/v2_depth_duration_MTurk/v2_DepthDuration_HTML.html#9,9,1366,657,1366,768,8-21-2022,9-45-48,47,depth_duration_stimuli/002657_2014-06-13_15-29-54_094959634447_rgbf000150-resize_1/002657_2014-06-13_15-29-54_094959634447_rgbf000150-resize_1-target.png,125,4.919,11,2410,124,feet,jsons/VE125_randls_29_rotated.json,576201,1334319,63,Woman
47,152479,DepthScenes,duration_manipulation_targetAtFixation,jsons/VE125_randls_29_rotated.json,http://54.235.29.9/FacialAge/BNav_EC2/DepthDuration/v2_depth_duration_MTurk/v2_DepthDuration_HTML.html#9,9,1366,657,1366,768,8-21-2022,9-45-48,48,depth_duration_stimuli/002375_2014-06-28_20-13-44_260595134347_rgbf000032-resize_1/002375_2014-06-28_20-13-44_260595134347_rgbf000032-resize_1-target.png,125,4.0175,12,1955,125,feet,jsons/VE125_randls_29_rotated.json,576201,1334319,63,Woman
48,152479,DepthScenes,duration_manipulation_targetAtFixation,jsons/VE125_randls_29_rotated.json,http://54.235.29.9/FacialAge/BNav_EC2/DepthDuration/v2_depth_duration_MTurk/v2_DepthDuration_HTML.html#9,9,1366,657,1366,768,8-21-2022,9-45-48,49,depth_duration_stimuli/001170_2014-06-17_15-43-44_260595134347_rgbf000096-resize_6/001170_2014-06-17_15-43-44_260595134347_rgbf000096-resize-original.jpg,125,1.1909999999999998,0,1691,124,feet,jsons/VE125_randls_29_rotated.json,576201,1334319,63,Woman
49,152479,DepthScenes,duration_manipulation_targetAtFixation,jsons/VE125_randls_29_rotated.json,http://54.235.29.9/FacialAge/BNav_EC2/DepthDuration/v2_depth_duration_MTurk/v2_DepthDuration_HTML.html#9,9,1366,657,1366,768,8-21-2022,9-45-48,50,depth_duration_stimuli/001617_2014-06-20_11-35-32_260595134347_rgbf000066-resize_1/001617_2014-06-20_11-35-32_260595134347_rgbf000066-resize_1-target.png,125,3.7910000000000004,12,2059,124,feet,jsons/VE125_randls_29_rotated.json,576201,1334319,63,Woman
50,152479,DepthScenes,duration_manipulation_targetAtFixation,jsons/VE125_randls_29_rotated.json,http://54.235.29.9/FacialAge/BNav_EC2/DepthDuration/v2_depth_duration_MTurk/v2_DepthDuration_HTML.html#9,9,1366,657,1366,768,8-21-2022,9-45-48,51,depth_duration_stimuli/001806_2014-06-26_20-50-20_260595134347_rgbf000091-resize_1/001806_2014-06-26_20-50-20_260595134347_rgbf000091-resize_1-target.png,125,2.7305,3,2347,125,feet,jsons/VE125_randls_29_rotated.json,576201,1334319,63,Woman
51,152479,DepthScenes,duration_manipulation_targetAtFixation,jsons/VE125_randls_29_rotated.json,http://54.235.29.9/FacialAge/BNav_EC2/DepthDuration/v2_depth_duration_MTurk/v2_DepthDuration_HTML.html#9,9,1366,657,1366,768,8-21-2022,9-45-48,52,depth_duration_stimuli/000854_2014-06-09_19-43-13_260595134347_rgbf000066-resize_0/000854_2014-06-09_19-43-13_260595134347_rgbf000066-resize_0-target.png,125,3.068,14,2427,125,feet,jsons/VE125_randls_29_rotated.json,576201,1334319,63,Woman
52,152479,DepthScenes,duration_manipulation_targetAtFixation,jsons/VE125_randls_29_rotated.json,http://54.235.29.9/FacialAge/BNav_EC2/DepthDuration/v2_depth_duration_MTurk/v2_DepthDuration_HTML.html#9,9,1366,657,1366,768,8-21-2022,9-45-48,53,depth_duration_stimuli/000758_2014-06-08_22-05-08_260595134347_rgbf000085-resize_0/000758_2014-06-08_22-05-08_260595134347_rgbf000085-resize_0-target.png,125,3.3810000000000002,18,2939,124,feet,jsons/VE125_randls_29_rotated.json,576201,1334319,63,Woman
53,152479,DepthScenes,duration_manipulation_targetAtFixation,jsons/VE125_randls_29_rotated.json,http://54.235.29.9/FacialAge/BNav_EC2/DepthDuration/v2_depth_duration_MTurk/v2_DepthDuration_HTML.html#9,9,1366,657,1366,768,8-21-2022,9-45-48,54,depth_duration_stimuli/003587_2014-05-23_16-48-02_094959634447_rgbf002384-resize_2/003587_2014-05-23_16-48-02_094959634447_rgbf002384-resize_2-target.png,125,1.357,4,3650,124,feet,jsons/VE125_randls_29_rotated.json,576201,1334319,63,Woman
54,152479,DepthScenes,duration_manipulation_targetAtFixation,jsons/VE125_randls_29_rotated.json,http://54.235.29.9/FacialAge/BNav_EC2/DepthDuration/v2_depth_duration_MTurk/v2_DepthDuration_HTML.html#9,9,1366,657,1366,768,8-21-2022,9-45-48,55,depth_duration_stimuli/001167_2014-06-17_15-38-07_260595134347_rgbf000108-resize_0/001167_2014-06-17_15-38-07_260595134347_rgbf000108-resize_0-target.png,125,1.8505,3,3642,123,feet,jsons/VE125_randls_29_rotated.json,576201,1334319,63,Woman
55,152479,DepthScenes,duration_manipulation_targetAtFixation,jsons/VE125_randls_29_rotated.json,http://54.235.29.9/FacialAge/BNav_EC2/DepthDuration/v2_depth_duration_MTurk/v2_DepthDuration_HTML.html#9,9,1366,657,1366,768,8-21-2022,9-45-48,56,depth_duration_stimuli/000502_2014-06-08_23-02-32_260595134347_rgbf000063-resize_4/000502_2014-06-08_23-02-32_260595134347_rgbf000063-resize_4-target.png,125,2.431,6,2267,124,feet,jsons/VE125_randls_29_rotated.json,576201,1334319,63,Woman
56,152479,DepthScenes,duration_manipulation_targetAtFixation,jsons/VE125_randls_29_rotated.json,http://54.235.29.9/FacialAge/BNav_EC2/DepthDuration/v2_depth_duration_MTurk/v2_DepthDuration_HTML.html#9,9,1366,657,1366,768,8-21-2022,9-45-48,57,depth_duration_stimuli/001199_2014-06-17_16-03-48_260595134347_rgbf000077-resize_0/001199_2014-06-17_16-03-48_260595134347_rgbf000077-resize_0-target.png,125,3.4375,7,2507,125,feet,jsons/VE125_randls_29_rotated.json,576201,1334319,63,Woman
57,152479,DepthScenes,duration_manipulation_targetAtFixation,jsons/VE125_randls_29_rotated.json,http://54.235.29.9/FacialAge/BNav_EC2/DepthDuration/v2_depth_duration_MTurk/v2_DepthDuration_HTML.html#9,9,1366,657,1366,768,8-21-2022,9-45-48,58,depth_duration_stimuli/000943_2014-06-09_19-31-07_260595134347_rgbf000128-resize_1/000943_2014-06-09_19-31-07_260595134347_rgbf000128-resize_1-target.png,125,1.9765,8,2545,124,feet,jsons/VE125_randls_29_rotated.json,576201,1334319,63,Woman
58,152479,DepthScenes,duration_manipulation_targetAtFixation,jsons/VE125_randls_29_rotated.json,http://54.235.29.9/FacialAge/BNav_EC2/DepthDuration/v2_depth_duration_MTurk/v2_DepthDuration_HTML.html#9,9,1366,657,1366,768,8-21-2022,9-45-48,59,depth_duration_stimuli/003070_2014-06-15_14-58-27_094959634447_rgbf000150-resize_3/003070_2014-06-15_14-58-27_094959634447_rgbf000150-resize_3-target.png,125,2.9415,6,2106,124,feet,jsons/VE125_randls_29_rotated.json,576201,1334319,63,Woman
59,152479,DepthScenes,duration_manipulation_targetAtFixation,jsons/VE125_randls_29_rotated.json,http://54.235.29.9/FacialAge/BNav_EC2/DepthDuration/v2_depth_duration_MTurk/v2_DepthDuration_HTML.html#9,9,1366,657,1366,768,8-21-2022,9-45-48,60,depth_duration_stimuli/002949_2014-06-26_15-57-42_094959634447_rgbf000079-resize_1/002949_2014-06-26_15-57-42_094959634447_rgbf000079-resize_1-target.png,125,1.8915,3,2499,124,feet,jsons/VE125_randls_29_rotated.json,576201,1334319,63,Woman
60,152479,DepthScenes,duration_manipulation_targetAtFixation,jsons/VE125_randls_29_rotated.json,http://54.235.29.9/FacialAge/BNav_EC2/DepthDuration/v2_depth_duration_MTurk/v2_DepthDuration_HTML.html#9,9,1366,657,1366,768,8-21-2022,9-45-48,61,depth_duration_stimuli/000522_2014-06-08_13-35-06_260595134347_rgbf000244-resize_1/000522_2014-06-08_13-35-06_260595134347_rgbf000244-resize_1-target.png,125,2.3715,2,3347,125,feet,jsons/VE125_randls_29_rotated.json,576201,1334319,63,Woman
61,152479,DepthScenes,duration_manipulation_targetAtFixation,jsons/VE125_randls_29_rotated.json,http://54.235.29.9/FacialAge/BNav_EC2/DepthDuration/v2_depth_duration_MTurk/v2_DepthDuration_HTML.html#9,9,1366,657,1366,768,8-21-2022,9-45-48,62,depth_duration_stimuli/000457_2014-06-08_16-52-43_260595134347_rgbf000199-resize_1/000457_2014-06-08_16-52-43_260595134347_rgbf000199-resize_1-target.png,125,3.6489999999999996,6,2963,124,feet,jsons/VE125_randls_29_rotated.json,576201,1334319,63,Woman
62,152479,DepthScenes,duration_manipulation_targetAtFixation,jsons/VE125_randls_29_rotated.json,http://54.235.29.9/FacialAge/BNav_EC2/DepthDuration/v2_depth_duration_MTurk/v2_DepthDuration_HTML.html#9,9,1366,657,1366,768,8-21-2022,9-45-48,63,depth_duration_stimuli/000929_2014-06-09_16-33-19_260595134347_rgbf000139-resize_0/000929_2014-06-09_16-33-19_260595134347_rgbf000139-resize_0-target.png,125,2.8680000000000003,4,3019,124,feet,jsons/VE125_randls_29_rotated.json,576201,1334319,63,Woman
63,152479,DepthScenes,duration_manipulation_targetAtFixation,jsons/VE125_randls_29_rotated.json,http://54.235.29.9/FacialAge/BNav_EC2/DepthDuration/v2_depth_duration_MTurk/v2_DepthDuration_HTML.html#9,9,1366,657,1366,768,8-21-2022,9-45-48,64,depth_duration_stimuli/001392_2014-06-19_16-07-59_260595134347_rgbf000046-resize_1/001392_2014-06-19_16-07-59_260595134347_rgbf000046-resize_1-target.png,125,4.135,5,2563,125,feet,jsons/VE125_randls_29_rotated.json,576201,1334319,63,Woman
64,152479,DepthScenes,duration_manipulation_targetAtFixation,jsons/VE125_randls_29_rotated.json,http://54.235.29.9/FacialAge/BNav_EC2/DepthDuration/v2_depth_duration_MTurk/v2_DepthDuration_HTML.html#9,9,1366,657,1366,768,8-21-2022,9-45-48,65,depth_duration_stimuli/001570_2014-06-20_17-21-09_260595134347_rgbf000135-resize_4/001570_2014-06-20_17-21-09_260595134347_rgbf000135-resize_4-target.png,125,4.467,6,2602,125,feet,jsons/VE125_randls_29_rotated.json,576201,1334319,63,Woman
65,152479,DepthScenes,duration_manipulation_targetAtFixation,jsons/VE125_randls_29_rotated.json,http://54.235.29.9/FacialAge/BNav_EC2/DepthDuration/v2_depth_duration_MTurk/v2_DepthDuration_HTML.html#9,9,1366,657,1366,768,8-21-2022,9-45-48,66,depth_duration_stimuli/001540_2014-06-20_17-01-05_260595134347_rgbf000086-resize_2/001540_2014-06-20_17-01-05_260595134347_rgbf000086-resize-original.jpg,125,1.459,0,1683,124,feet,jsons/VE125_randls_29_rotated.json,576201,1334319,63,Woman
66,152479,DepthScenes,duration_manipulation_targetAtFixation,jsons/VE125_randls_29_rotated.json,http://54.235.29.9/FacialAge/BNav_EC2/DepthDuration/v2_depth_duration_MTurk/v2_DepthDuration_HTML.html#9,9,1366,657,1366,768,8-21-2022,9-45-48,67,depth_duration_stimuli/002199_2014-06-28_18-33-56_260595134347_rgbf000074-resize_0/002199_2014-06-28_18-33-56_260595134347_rgbf000074-resize_0-target.png,125,1.996,2,1907,124,feet,jsons/VE125_randls_29_rotated.json,576201,1334319,63,Woman
67,152479,DepthScenes,duration_manipulation_targetAtFixation,jsons/VE125_randls_29_rotated.json,http://54.235.29.9/FacialAge/BNav_EC2/DepthDuration/v2_depth_duration_MTurk/v2_DepthDuration_HTML.html#9,9,1366,657,1366,768,8-21-2022,9-45-48,68,depth_duration_stimuli/001056_2014-06-08_18-46-44_260595134347_rgbf000068-resize_0/001056_2014-06-08_18-46-44_260595134347_rgbf000068-resize_0-target.png,125,2.6625,6,2683,125,feet,jsons/VE125_randls_29_rotated.json,576201,1334319,63,Woman
68,152479,DepthScenes,duration_manipulation_targetAtFixation,jsons/VE125_randls_29_rotated.json,http://54.235.29.9/FacialAge/BNav_EC2/DepthDuration/v2_depth_duration_MTurk/v2_DepthDuration_HTML.html#9,9,1366,657,1366,768,8-21-2022,9-45-48,69,depth_duration_stimuli/003495_2014-05-21_16-01-51_094959634447_rgbf000100-resize_3/003495_2014-05-21_16-01-51_094959634447_rgbf000100-resize_3-target.png,125,1.6255,4,2626,124,feet,jsons/VE125_randls_29_rotated.json,576201,1334319,63,Woman
69,152479,DepthScenes,duration_manipulation_targetAtFixation,jsons/VE125_randls_29_rotated.json,http://54.235.29.9/FacialAge/BNav_EC2/DepthDuration/v2_depth_duration_MTurk/v2_DepthDuration_HTML.html#9,9,1366,657,1366,768,8-21-2022,9-45-48,70,depth_duration_stimuli/001244_2014-06-17_16-47-45_260595134347_rgbf000030-resize_4/001244_2014-06-17_16-47-45_260595134347_rgbf000030-resize_4-target.png,125,2.0425,6,2273,124,feet,jsons/VE125_randls_29_rotated.json,576201,1334319,63,Woman
70,152479,DepthScenes,duration_manipulation_targetAtFixation,jsons/VE125_randls_29_rotated.json,http://54.235.29.9/FacialAge/BNav_EC2/DepthDuration/v2_depth_duration_MTurk/v2_DepthDuration_HTML.html#9,9,1366,657,1366,768,8-21-2022,9-45-48,71,depth_duration_stimuli/001100_2014-06-15_17-46-26_260595134347_rgbf000225-resize_2/001100_2014-06-15_17-46-26_260595134347_rgbf000225-resize_2-target.png,125,2.24,5,2011,125,feet,jsons/VE125_randls_29_rotated.json,576201,1334319,63,Woman
71,152479,DepthScenes,duration_manipulation_targetAtFixation,jsons/VE125_randls_29_rotated.json,http://54.235.29.9/FacialAge/BNav_EC2/DepthDuration/v2_depth_duration_MTurk/v2_DepthDuration_HTML.html#9,9,1366,657,1366,768,8-21-2022,9-45-48,72,depth_duration_stimuli/002784_2014-06-22_19-26-30_094959634447_rgbf000083-resize_3/002784_2014-06-22_19-26-30_094959634447_rgbf000083-resize_3-target.png,125,1.8046666666667,4,2261,125,feet,jsons/VE125_randls_29_rotated.json,576201,1334319,63,Woman
72,152479,DepthScenes,duration_manipulation_targetAtFixation,jsons/VE125_randls_29_rotated.json,http://54.235.29.9/FacialAge/BNav_EC2/DepthDuration/v2_depth_duration_MTurk/v2_DepthDuration_HTML.html#9,9,1366,657,1366,768,8-21-2022,9-45-48,73,depth_duration_stimuli/003048_2014-06-15_13-49-43_094959634447_rgbf000150-resize_1/003048_2014-06-15_13-49-43_094959634447_rgbf000150-resize_1-target.png,125,4.0035,2,2281,124,feet,jsons/VE125_randls_29_rotated.json,576201,1334319,63,Woman
73,152479,DepthScenes,duration_manipulation_targetAtFixation,jsons/VE125_randls_29_rotated.json,http://54.235.29.9/FacialAge/BNav_EC2/DepthDuration/v2_depth_duration_MTurk/v2_DepthDuration_HTML.html#9,9,1366,657,1366,768,8-21-2022,9-45-48,74,depth_duration_stimuli/002043_2014-06-24_20-29-38_260595134347_rgbf000039-resize_4/002043_2014-06-24_20-29-38_260595134347_rgbf000039-resize_4-target.png,125,2.8435,5,4451,125,feet,jsons/VE125_randls_29_rotated.json,576201,1334319,63,Woman
74,152479,DepthScenes,duration_manipulation_targetAtFixation,jsons/VE125_randls_29_rotated.json,http://54.235.29.9/FacialAge/BNav_EC2/DepthDuration/v2_depth_duration_MTurk/v2_DepthDuration_HTML.html#9,9,1366,657,1366,768,8-21-2022,9-45-48,75,depth_duration_stimuli/003079_2014-06-15_15-18-20_094959634447_rgbf000152-resize_8/003079_2014-06-15_15-18-20_094959634447_rgbf000152-resize_8-target.png,125,2.8775,6,3490,125,feet,jsons/VE125_randls_29_rotated.json,576201,1334319,63,Woman
75,152479,DepthScenes,duration_manipulation_targetAtFixation,jsons/VE125_randls_29_rotated.json,http://54.235.29.9/FacialAge/BNav_EC2/DepthDuration/v2_depth_duration_MTurk/v2_DepthDuration_HTML.html#9,9,1366,657,1366,768,8-21-2022,9-45-48,76,depth_duration_stimuli/000506_2014-06-08_23-21-00_260595134347_rgbf000070-resize_7/000506_2014-06-08_23-21-00_260595134347_rgbf000070-resize_7-target.png,125,4.0585,0,1691,125,feet,jsons/VE125_randls_29_rotated.json,576201,1334319,63,Woman
76,152479,DepthScenes,duration_manipulation_targetAtFixation,jsons/VE125_randls_29_rotated.json,http://54.235.29.9/FacialAge/BNav_EC2/DepthDuration/v2_depth_duration_MTurk/v2_DepthDuration_HTML.html#9,9,1366,657,1366,768,8-21-2022,9-45-48,77,depth_duration_stimuli/000483_2014-06-09_20-41-45_260595134347_rgbf000116-resize_4/000483_2014-06-09_20-41-45_260595134347_rgbf000116-resize_4-target.png,125,1.337,3,4315,125,feet,jsons/VE125_randls_29_rotated.json,576201,1334319,63,Woman
77,152479,DepthScenes,duration_manipulation_targetAtFixation,jsons/VE125_randls_29_rotated.json,http://54.235.29.9/FacialAge/BNav_EC2/DepthDuration/v2_depth_duration_MTurk/v2_DepthDuration_HTML.html#9,9,1366,657,1366,768,8-21-2022,9-45-48,78,depth_duration_stimuli/000469_2014-06-09_19-42-10_260595134347_rgbf000081-resize_1/000469_2014-06-09_19-42-10_260595134347_rgbf000081-resize_1-target.png,125,1.652,3,1778,125,feet,jsons/VE125_randls_29_rotated.json,576201,1334319,63,Woman
78,152479,DepthScenes,duration_manipulation_targetAtFixation,jsons/VE125_randls_29_rotated.json,http://54.235.29.9/FacialAge/BNav_EC2/DepthDuration/v2_depth_duration_MTurk/v2_DepthDuration_HTML.html#9,9,1366,657,1366,768,8-21-2022,9-45-48,79,depth_duration_stimuli/002414_2014-06-28_20-24-58_260595134347_rgbf000067-resize_4/002414_2014-06-28_20-24-58_260595134347_rgbf000067-resize_4-target.png,125,4.363,7,2067,125,feet,jsons/VE125_randls_29_rotated.json,576201,1334319,63,Woman
79,152479,DepthScenes,duration_manipulation_targetAtFixation,jsons/VE125_randls_29_rotated.json,http://54.235.29.9/FacialAge/BNav_EC2/DepthDuration/v2_depth_duration_MTurk/v2_DepthDuration_HTML.html#9,9,1366,657,1366,768,8-21-2022,9-45-48,80,depth_duration_stimuli/000773_2014-06-08_22-24-54_260595134347_rgbf000093-resize_1/000773_2014-06-08_22-24-54_260595134347_rgbf000093-resize_1-target.png,125,4.973,10,3049,124,feet,jsons/VE125_randls_29_rotated.json,576201,1334319,63,Woman
80,152479,DepthScenes,duration_manipulation_targetAtFixation,jsons/VE125_randls_29_rotated.json,http://54.235.29.9/FacialAge/BNav_EC2/DepthDuration/v2_depth_duration_MTurk/v2_DepthDuration_HTML.html#9,9,1366,657,1366,768,8-21-2022,9-45-48,81,depth_duration_stimuli/002995_2014-06-15_12-31-26_094959634447_rgbf000150-resize_1/002995_2014-06-15_12-31-26_094959634447_rgbf000150-resize_1-target.png,125,3.8360000000000003,8,4331,125,feet,jsons/VE125_randls_29_rotated.json,576201,1334319,63,Woman
81,152479,DepthScenes,duration_manipulation_targetAtFixation,jsons/VE125_randls_29_rotated.json,http://54.235.29.9/FacialAge/BNav_EC2/DepthDuration/v2_depth_duration_MTurk/v2_DepthDuration_HTML.html#9,9,1366,657,1366,768,8-21-2022,9-45-48,82,depth_duration_stimuli/002748_2014-06-22_19-07-22_094959634447_rgbf000078-resize_1/002748_2014-06-22_19-07-22_094959634447_rgbf000078-resize_1-target.png,125,4.6705,16,2594,123,feet,jsons/VE125_randls_29_rotated.json,576201,1334319,63,Woman
82,152479,DepthScenes,duration_manipulation_targetAtFixation,jsons/VE125_randls_29_rotated.json,http://54.235.29.9/FacialAge/BNav_EC2/DepthDuration/v2_depth_duration_MTurk/v2_DepthDuration_HTML.html#9,9,1366,657,1366,768,8-21-2022,9-45-48,83,depth_duration_stimuli/000137_2014-05-20_17-04-49_260595134347_rgbf000120-resize_1/000137_2014-05-20_17-04-49_260595134347_rgbf000120-resize_1-target.png,125,3.786,14,2396,125,feet,jsons/VE125_randls_29_rotated.json,576201,1334319,63,Woman
83,152479,DepthScenes,duration_manipulation_targetAtFixation,jsons/VE125_randls_29_rotated.json,http://54.235.29.9/FacialAge/BNav_EC2/DepthDuration/v2_depth_duration_MTurk/v2_DepthDuration_HTML.html#9,9,1366,657,1366,768,8-21-2022,9-45-48,84,depth_duration_stimuli/000736_2014-06-08_18-24-15_260595134347_rgbf000206-resize_3/000736_2014-06-08_18-24-15_260595134347_rgbf000206-resize_3-target.png,125,3.515,13,3002,125,feet,jsons/VE125_randls_29_rotated.json,576201,1334319,63,Woman
84,152479,DepthScenes,duration_manipulation_targetAtFixation,jsons/VE125_randls_29_rotated.json,http://54.235.29.9/FacialAge/BNav_EC2/DepthDuration/v2_depth_duration_MTurk/v2_DepthDuration_HTML.html#9,9,1366,657,1366,768,8-21-2022,9-45-48,85,depth_duration_stimuli/002344_2014-06-28_20-06-29_260595134347_rgbf000030-resize_1/002344_2014-06-28_20-06-29_260595134347_rgbf000030-resize_1-target.png,125,1.5795,3,3554,125,feet,jsons/VE125_randls_29_rotated.json,576201,1334319,63,Woman
85,152479,DepthScenes,duration_manipulation_targetAtFixation,jsons/VE125_randls_29_rotated.json,http://54.235.29.9/FacialAge/BNav_EC2/DepthDuration/v2_depth_duration_MTurk/v2_DepthDuration_HTML.html#9,9,1366,657,1366,768,8-21-2022,9-45-48,86,depth_duration_stimuli/002725_2014-06-22_11-47-51_094959634447_rgbf000070-resize_1/002725_2014-06-22_11-47-51_094959634447_rgbf000070-resize_1-target.png,125,2.195,6,3250,124,feet,jsons/VE125_randls_29_rotated.json,576201,1334319,63,Woman
86,152479,DepthScenes,duration_manipulation_targetAtFixation,jsons/VE125_randls_29_rotated.json,http://54.235.29.9/FacialAge/BNav_EC2/DepthDuration/v2_depth_duration_MTurk/v2_DepthDuration_HTML.html#9,9,1366,657,1366,768,8-21-2022,9-45-48,87,depth_duration_stimuli/002639_2014-06-24_14-51-37_094959634447_rgbf000074-resize_4/002639_2014-06-24_14-51-37_094959634447_rgbf000074-resize_4-target.png,125,4.0375,8,2091,124,feet,jsons/VE125_randls_29_rotated.json,576201,1334319,63,Woman
87,152479,DepthScenes,duration_manipulation_targetAtFixation,jsons/VE125_randls_29_rotated.json,http://54.235.29.9/FacialAge/BNav_EC2/DepthDuration/v2_depth_duration_MTurk/v2_DepthDuration_HTML.html#9,9,1366,657,1366,768,8-21-2022,9-45-48,88,depth_duration_stimuli/003292_2014-05-14_21-53-49_094959634447_rgbf000100-resize_2/003292_2014-05-14_21-53-49_094959634447_rgbf000100-resize_2-target.png,125,3.4815,13,3346,124,feet,jsons/VE125_randls_29_rotated.json,576201,1334319,63,Woman
88,152479,DepthScenes,duration_manipulation_targetAtFixation,jsons/VE125_randls_29_rotated.json,http://54.235.29.9/FacialAge/BNav_EC2/DepthDuration/v2_depth_duration_MTurk/v2_DepthDuration_HTML.html#9,9,1366,657,1366,768,8-21-2022,9-45-48,89,depth_duration_stimuli/000866_2014-06-09_20-45-42_260595134347_rgbf000139-resize_1/000866_2014-06-09_20-45-42_260595134347_rgbf000139-resize_1-target.png,125,3.2155,0,2171,124,feet,jsons/VE125_randls_29_rotated.json,576201,1334319,63,Woman
89,152479,DepthScenes,duration_manipulation_targetAtFixation,jsons/VE125_randls_29_rotated.json,http://54.235.29.9/FacialAge/BNav_EC2/DepthDuration/v2_depth_duration_MTurk/v2_DepthDuration_HTML.html#9,9,1366,657,1366,768,8-21-2022,9-45-48,90,depth_duration_stimuli/002989_2014-06-15_12-25-03_094959634447_rgbf000150-resize_3/002989_2014-06-15_12-25-03_094959634447_rgbf000150-resize_3-target.png,125,4.1975,15,2771,125,feet,jsons/VE125_randls_29_rotated.json,576201,1334319,63,Woman
90,152479,DepthScenes,duration_manipulation_targetAtFixation,jsons/VE125_randls_29_rotated.json,http://54.235.29.9/FacialAge/BNav_EC2/DepthDuration/v2_depth_duration_MTurk/v2_DepthDuration_HTML.html#9,9,1366,657,1366,768,8-21-2022,9-45-48,91,depth_duration_stimuli/002444_2014-06-28_20-32-08_260595134347_rgbf000027-resize_0/002444_2014-06-28_20-32-08_260595134347_rgbf000027-resize_0-target.png,125,4.388999999999999,16,2586,124,feet,jsons/VE125_randls_29_rotated.json,576201,1334319,63,Woman
91,152479,DepthScenes,duration_manipulation_targetAtFixation,jsons/VE125_randls_29_rotated.json,http://54.235.29.9/FacialAge/BNav_EC2/DepthDuration/v2_depth_duration_MTurk/v2_DepthDuration_HTML.html#9,9,1366,657,1366,768,8-21-2022,9-45-48,92,depth_duration_stimuli/000436_2014-06-09_22-25-11_260595134347_rgbf000137-resize_1/000436_2014-06-09_22-25-11_260595134347_rgbf000137-resize_1-target.png,125,4.0705,14,2922,124,feet,jsons/VE125_randls_29_rotated.json,576201,1334319,63,Woman
92,152479,DepthScenes,duration_manipulation_targetAtFixation,jsons/VE125_randls_29_rotated.json,http://54.235.29.9/FacialAge/BNav_EC2/DepthDuration/v2_depth_duration_MTurk/v2_DepthDuration_HTML.html#9,9,1366,657,1366,768,8-21-2022,9-45-48,93,depth_duration_stimuli/003423_2014-05-21_10-23-26_094959634447_rgbf002665-resize_2/003423_2014-05-21_10-23-26_094959634447_rgbf002665-resize_2-target.png,125,3.2575,13,1978,124,feet,jsons/VE125_randls_29_rotated.json,576201,1334319,63,Woman
93,152479,DepthScenes,duration_manipulation_targetAtFixation,jsons/VE125_randls_29_rotated.json,http://54.235.29.9/FacialAge/BNav_EC2/DepthDuration/v2_depth_duration_MTurk/v2_DepthDuration_HTML.html#9,9,1366,657,1366,768,8-21-2022,9-45-48,94,depth_duration_stimuli/002905_2014-06-03_18-04-43_094959634447_rgbf000151-resize_2/002905_2014-06-03_18-04-43_094959634447_rgbf000151-resize_2-target.png,125,2.0295,3,1995,124,feet,jsons/VE125_randls_29_rotated.json,576201,1334319,63,Woman
94,152479,DepthScenes,duration_manipulation_targetAtFixation,jsons/VE125_randls_29_rotated.json,http://54.235.29.9/FacialAge/BNav_EC2/DepthDuration/v2_depth_duration_MTurk/v2_DepthDuration_HTML.html#9,9,1366,657,1366,768,8-21-2022,9-45-48,95,depth_duration_stimuli/003081_2014-06-15_15-19-16_094959634447_rgbf000150-resize_1/003081_2014-06-15_15-19-16_094959634447_rgbf000150-resize_1-target.png,125,3.9125,8,2050,124,feet,jsons/VE125_randls_29_rotated.json,576201,1334319,63,Woman
95,152479,DepthScenes,duration_manipulation_targetAtFixation,jsons/VE125_randls_29_rotated.json,http://54.235.29.9/FacialAge/BNav_EC2/DepthDuration/v2_depth_duration_MTurk/v2_DepthDuration_HTML.html#9,9,1366,657,1366,768,8-21-2022,9-45-48,96,depth_duration_stimuli/001417_2014-06-19_16-25-36_260595134347_rgbf000115-resize_5/001417_2014-06-19_16-25-36_260595134347_rgbf000115-resize_5-target.png,125,4.6255,7,2731,125,feet,jsons/VE125_randls_29_rotated.json,576201,1334319,63,Woman
96,152479,DepthScenes,duration_manipulation_targetAtFixation,jsons/VE125_randls_29_rotated.json,http://54.235.29.9/FacialAge/BNav_EC2/DepthDuration/v2_depth_duration_MTurk/v2_DepthDuration_HTML.html#9,9,1366,657,1366,768,8-21-2022,9-45-48,97,depth_duration_stimuli/003228_2014-05-14_13-42-35_094959634447_rgbf000101-resize_1/003228_2014-05-14_13-42-35_094959634447_rgbf000101-resize_1-target.png,125,1.9680000000000002,0,3226,124,feet,jsons/VE125_randls_29_rotated.json,576201,1334319,63,Woman
97,152479,DepthScenes,duration_manipulation_targetAtFixation,jsons/VE125_randls_29_rotated.json,http://54.235.29.9/FacialAge/BNav_EC2/DepthDuration/v2_depth_duration_MTurk/v2_DepthDuration_HTML.html#9,9,1366,657,1366,768,8-21-2022,9-45-48,98,depth_duration_stimuli/002600_2014-06-24_14-27-04_094959634447_rgbf000074-resize_2/002600_2014-06-24_14-27-04_094959634447_rgbf000074-resize_2-target.png,125,2.7575,5,3179,125,feet,jsons/VE125_randls_29_rotated.json,576201,1334319,63,Woman
98,152479,DepthScenes,duration_manipulation_targetAtFixation,jsons/VE125_randls_29_rotated.json,http://54.235.29.9/FacialAge/BNav_EC2/DepthDuration/v2_depth_duration_MTurk/v2_DepthDuration_HTML.html#9,9,1366,657,1366,768,8-21-2022,9-45-48,99,depth_duration_stimuli/001222_2014-06-17_16-24-06_260595134347_rgbf000073-resize_0/001222_2014-06-17_16-24-06_260595134347_rgbf000073-resize-original.jpg,125,1.4385,0,4848,121,feet,jsons/VE125_randls_29_rotated.json,576201,1334319,63,Woman
99,152479,DepthScenes,duration_manipulation_targetAtFixation,jsons/VE125_randls_29_rotated.json,http://54.235.29.9/FacialAge/BNav_EC2/DepthDuration/v2_depth_duration_MTurk/v2_DepthDuration_HTML.html#9,9,1366,657,1366,768,8-21-2022,9-45-48,100,depth_duration_stimuli/001132_2014-06-17_14-48-54_260595134347_rgbf000100-resize_2/001132_2014-06-17_14-48-54_260595134347_rgbf000100-resize_2-target.png,125,3.753,7,2691,124,feet,jsons/VE125_randls_29_rotated.json,576201,1334319,63,Woman
100,152479,DepthScenes,duration_manipulation_targetAtFixation,jsons/VE125_randls_29_rotated.json,http://54.235.29.9/FacialAge/BNav_EC2/DepthDuration/v2_depth_duration_MTurk/v2_DepthDuration_HTML.html#9,9,1366,657,1366,768,8-21-2022,9-45-48,101,depth_duration_stimuli/001133_2014-06-17_14-49-16_260595134347_rgbf000100-resize_0/001133_2014-06-17_14-49-16_260595134347_rgbf000100-resize_0-target.png,125,4.2115,6,4115,124,feet,jsons/VE125_randls_29_rotated.json,576201,1334319,63,Woman
101,152479,DepthScenes,duration_manipulation_targetAtFixation,jsons/VE125_randls_29_rotated.json,http://54.235.29.9/FacialAge/BNav_EC2/DepthDuration/v2_depth_duration_MTurk/v2_DepthDuration_HTML.html#9,9,1366,657,1366,768,8-21-2022,9-45-48,102,depth_duration_stimuli/003010_2014-06-15_12-54-35_094959634447_rgbf000112-resize_0/003010_2014-06-15_12-54-35_094959634447_rgbf000112-resize_0-target.png,125,3.1185,16,3131,124,feet,jsons/VE125_randls_29_rotated.json,576201,1334319,63,Woman
102,152479,DepthScenes,duration_manipulation_targetAtFixation,jsons/VE125_randls_29_rotated.json,http://54.235.29.9/FacialAge/BNav_EC2/DepthDuration/v2_depth_duration_MTurk/v2_DepthDuration_HTML.html#9,9,1366,657,1366,768,8-21-2022,9-45-48,103,depth_duration_stimuli/001810_2014-06-26_20-51-35_260595134347_rgbf000040-resize_3/001810_2014-06-26_20-51-35_260595134347_rgbf000040-resize_3-target.png,125,2.2525,5,3435,124,feet,jsons/VE125_randls_29_rotated.json,576201,1334319,63,Woman
103,152479,DepthScenes,duration_manipulation_targetAtFixation,jsons/VE125_randls_29_rotated.json,http://54.235.29.9/FacialAge/BNav_EC2/DepthDuration/v2_depth_duration_MTurk/v2_DepthDuration_HTML.html#9,9,1366,657,1366,768,8-21-2022,9-45-48,104,depth_duration_stimuli/000409_2014-06-04_19-23-33_260595134347_rgbf000067-resize_0/000409_2014-06-04_19-23-33_260595134347_rgbf000067-resize_0-target.png,125,3.7335,10,5891,124,feet,jsons/VE125_randls_29_rotated.json,576201,1334319,63,Woman
104,152479,DepthScenes,duration_manipulation_targetAtFixation,jsons/VE125_randls_29_rotated.json,http://54.235.29.9/FacialAge/BNav_EC2/DepthDuration/v2_depth_duration_MTurk/v2_DepthDuration_HTML.html#9,9,1366,657,1366,768,8-21-2022,9-45-48,105,depth_duration_stimuli/002663_2014-06-13_15-50-26_094959634447_rgbf000075-resize_1/002663_2014-06-13_15-50-26_094959634447_rgbf000075-resize_1-target.png,125,4.7495,7,3179,124,feet,jsons/VE125_randls_29_rotated.json,576201,1334319,63,Woman
105,152479,DepthScenes,duration_manipulation_targetAtFixation,jsons/VE125_randls_29_rotated.json,http://54.235.29.9/FacialAge/BNav_EC2/DepthDuration/v2_depth_duration_MTurk/v2_DepthDuration_HTML.html#9,9,1366,657,1366,768,8-21-2022,9-45-48,106,depth_duration_stimuli/000734_2014-06-08_17-39-11_260595134347_rgbf000128-resize_2/000734_2014-06-08_17-39-11_260595134347_rgbf000128-resize_2-target.png,125,4.098,18,2690,125,feet,jsons/VE125_randls_29_rotated.json,576201,1334319,63,Woman
106,152479,DepthScenes,duration_manipulation_targetAtFixation,jsons/VE125_randls_29_rotated.json,http://54.235.29.9/FacialAge/BNav_EC2/DepthDuration/v2_depth_duration_MTurk/v2_DepthDuration_HTML.html#9,9,1366,657,1366,768,8-21-2022,9-45-48,107,depth_duration_stimuli/000739_2014-06-08_18-45-58_260595134347_rgbf000068-resize_1/000739_2014-06-08_18-45-58_260595134347_rgbf000068-resize_1-target.png,125,3.534,18,2426,124,feet,jsons/VE125_randls_29_rotated.json,576201,1334319,63,Woman
107,152479,DepthScenes,duration_manipulation_targetAtFixation,jsons/VE125_randls_29_rotated.json,http://54.235.29.9/FacialAge/BNav_EC2/DepthDuration/v2_depth_duration_MTurk/v2_DepthDuration_HTML.html#9,9,1366,657,1366,768,8-21-2022,9-45-48,108,depth_duration_stimuli/001447_2014-06-19_17-00-32_260595134347_rgbf000082-resize_5/001447_2014-06-19_17-00-32_260595134347_rgbf000082-resize_5-target.png,125,4.13775,15,3059,124,feet,jsons/VE125_randls_29_rotated.json,576201,1334319,63,Woman
108,152479,DepthScenes,duration_manipulation_targetAtFixation,jsons/VE125_randls_29_rotated.json,http://54.235.29.9/FacialAge/BNav_EC2/DepthDuration/v2_depth_duration_MTurk/v2_DepthDuration_HTML.html#9,9,1366,657,1366,768,8-21-2022,9-45-48,109,depth_duration_stimuli/000447_2014-06-08_16-15-46_260595134347_rgbf000130-resize_1/000447_2014-06-08_16-15-46_260595134347_rgbf000130-resize_1-target.png,125,4.479,16,2939,125,feet,jsons/VE125_randls_29_rotated.json,576201,1334319,63,Woman
109,152479,DepthScenes,duration_manipulation_targetAtFixation,jsons/VE125_randls_29_rotated.json,http://54.235.29.9/FacialAge/BNav_EC2/DepthDuration/v2_depth_duration_MTurk/v2_DepthDuration_HTML.html#9,9,1366,657,1366,768,8-21-2022,9-45-48,110,depth_duration_stimuli/000749_2014-06-08_21-55-06_260595134347_rgbf000070-resize_2/000749_2014-06-08_21-55-06_260595134347_rgbf000070-resize_2-target.png,125,2.331,14,2795,125,feet,jsons/VE125_randls_29_rotated.json,576201,1334319,63,Woman
110,152479,DepthScenes,duration_manipulation_targetAtFixation,jsons/VE125_randls_29_rotated.json,http://54.235.29.9/FacialAge/BNav_EC2/DepthDuration/v2_depth_duration_MTurk/v2_DepthDuration_HTML.html#9,9,1366,657,1366,768,8-21-2022,9-45-48,111,depth_duration_stimuli/002788_2014-06-22_19-36-03_094959634447_rgbf000088-resize_2/002788_2014-06-22_19-36-03_094959634447_rgbf000088-resize_2-target.png,125,1.6465,15,2067,125,feet,jsons/VE125_randls_29_rotated.json,576201,1334319,63,Woman
111,152479,DepthScenes,duration_manipulation_targetAtFixation,jsons/VE125_randls_29_rotated.json,http://54.235.29.9/FacialAge/BNav_EC2/DepthDuration/v2_depth_duration_MTurk/v2_DepthDuration_HTML.html#9,9,1366,657,1366,768,8-21-2022,9-45-48,112,depth_duration_stimuli/002805_2014-06-22_19-54-03_094959634447_rgbf000079-resize_1/002805_2014-06-22_19-54-03_094959634447_rgbf000079-resize_1-target.png,125,3.1439999999999997,15,2514,125,feet,jsons/VE125_randls_29_rotated.json,576201,1334319,63,Woman
112,152479,DepthScenes,duration_manipulation_targetAtFixation,jsons/VE125_randls_29_rotated.json,http://54.235.29.9/FacialAge/BNav_EC2/DepthDuration/v2_depth_duration_MTurk/v2_DepthDuration_HTML.html#9,9,1366,657,1366,768,8-21-2022,9-45-48,113,depth_duration_stimuli/000906_2014-06-08_13-35-43_260595134347_rgbf000155-resize_1/000906_2014-06-08_13-35-43_260595134347_rgbf000155-resize_1-target.png,125,2.8489999999999998,14,2739,125,feet,jsons/VE125_randls_29_rotated.json,576201,1334319,63,Woman
113,152479,DepthScenes,duration_manipulation_targetAtFixation,jsons/VE125_randls_29_rotated.json,http://54.235.29.9/FacialAge/BNav_EC2/DepthDuration/v2_depth_duration_MTurk/v2_DepthDuration_HTML.html#9,9,1366,657,1366,768,8-21-2022,9-45-48,114,depth_duration_stimuli/000103_2014-05-14_22-01-17_260595134347_rgbf000152-resize_5/000103_2014-05-14_22-01-17_260595134347_rgbf000152-resize_5-target.png,125,1.993,12,2267,132,feet,jsons/VE125_randls_29_rotated.json,576201,1334319,63,Woman
114,152479,DepthScenes,duration_manipulation_targetAtFixation,jsons/VE125_randls_29_rotated.json,http://54.235.29.9/FacialAge/BNav_EC2/DepthDuration/v2_depth_duration_MTurk/v2_DepthDuration_HTML.html#9,9,1366,657,1366,768,8-21-2022,9-45-48,115,depth_duration_stimuli/001555_2014-06-20_17-12-10_260595134347_rgbf000065-resize_4/001555_2014-06-20_17-12-10_260595134347_rgbf000065-resize_4-target.png,125,1.633,11,2202,124,feet,jsons/VE125_randls_29_rotated.json,576201,1334319,63,Woman
115,152479,DepthScenes,duration_manipulation_targetAtFixation,jsons/VE125_randls_29_rotated.json,http://54.235.29.9/FacialAge/BNav_EC2/DepthDuration/v2_depth_duration_MTurk/v2_DepthDuration_HTML.html#9,9,1366,657,1366,768,8-21-2022,9-45-48,116,depth_duration_stimuli/002103_2014-06-25_20-00-40_260595134347_rgbf000049-resize_0/002103_2014-06-25_20-00-40_260595134347_rgbf000049-resize_0-target.png,125,4.105,8,3092,125,feet,jsons/VE125_randls_29_rotated.json,576201,1334319,63,Woman
116,152479,DepthScenes,duration_manipulation_targetAtFixation,jsons/VE125_randls_29_rotated.json,http://54.235.29.9/FacialAge/BNav_EC2/DepthDuration/v2_depth_duration_MTurk/v2_DepthDuration_HTML.html#9,9,1366,657,1366,768,8-21-2022,9-45-48,117,depth_duration_stimuli/002039_2014-06-24_20-22-38_260595134347_rgbf000084-resize_1/002039_2014-06-24_20-22-38_260595134347_rgbf000084-resize_1-target.png,125,4.408,6,4427,125,feet,jsons/VE125_randls_29_rotated.json,576201,1334319,63,Woman
117,152479,DepthScenes,duration_manipulation_targetAtFixation,jsons/VE125_randls_29_rotated.json,http://54.235.29.9/FacialAge/BNav_EC2/DepthDuration/v2_depth_duration_MTurk/v2_DepthDuration_HTML.html#9,9,1366,657,1366,768,8-21-2022,9-45-48,118,depth_duration_stimuli/003129_2014-05-12_10-48-10_094959634447_rgbf000100-resize_0/003129_2014-05-12_10-48-10_094959634447_rgbf000100-resize_0-target.png,125,4.9305,11,2929,124,feet,jsons/VE125_randls_29_rotated.json,576201,1334319,63,Woman
118,152479,DepthScenes,duration_manipulation_targetAtFixation,jsons/VE125_randls_29_rotated.json,http://54.235.29.9/FacialAge/BNav_EC2/DepthDuration/v2_depth_duration_MTurk/v2_DepthDuration_HTML.html#9,9,1366,657,1366,768,8-21-2022,9-45-48,119,depth_duration_stimuli/000414_2014-06-04_19-49-13_260595134347_rgbf000044-resize_0/000414_2014-06-04_19-49-13_260595134347_rgbf000044-resize_0-target.png,125,4.329,12,2347,125,feet,jsons/VE125_randls_29_rotated.json,576201,1334319,63,Woman
119,152479,DepthScenes,duration_manipulation_targetAtFixation,jsons/VE125_randls_29_rotated.json,http://54.235.29.9/FacialAge/BNav_EC2/DepthDuration/v2_depth_duration_MTurk/v2_DepthDuration_HTML.html#9,9,1366,657,1366,768,8-21-2022,9-45-48,120,depth_duration_stimuli/000787_2014-06-08_22-33-53_260595134347_rgbf000175-resize_1/000787_2014-06-08_22-33-53_260595134347_rgbf000175-resize-original.jpg,125,4.784,0,1738,125,feet,jsons/VE125_randls_29_rotated.json,576201,1334319,63,Woman
120,152479,DepthScenes,duration_manipulation_targetAtFixation,jsons/VE125_randls_29_rotated.json,http://54.235.29.9/FacialAge/BNav_EC2/DepthDuration/v2_depth_duration_MTurk/v2_DepthDuration_HTML.html#9,9,1366,657,1366,768,8-21-2022,9-45-48,121,depth_duration_stimuli/000742_2014-06-08_18-48-09_260595134347_rgbf000164-resize_4/000742_2014-06-08_18-48-09_260595134347_rgbf000164-resize_4-target.png,125,4.632,10,4874,125,feet,jsons/VE125_randls_29_rotated.json,576201,1334319,63,Woman
121,152479,DepthScenes,duration_manipulation_targetAtFixation,jsons/VE125_randls_29_rotated.json,http://54.235.29.9/FacialAge/BNav_EC2/DepthDuration/v2_depth_duration_MTurk/v2_DepthDuration_HTML.html#9,9,1366,657,1366,768,8-21-2022,9-45-48,122,depth_duration_stimuli/001066_2014-06-08_22-03-20_260595134347_rgbf000066-resize_4/001066_2014-06-08_22-03-20_260595134347_rgbf000066-resize_4-target.png,125,4.2330000000000005,13,2234,124,feet,jsons/VE125_randls_29_rotated.json,576201,1334319,63,Woman
122,152479,DepthScenes,duration_manipulation_targetAtFixation,jsons/VE125_randls_29_rotated.json,http://54.235.29.9/FacialAge/BNav_EC2/DepthDuration/v2_depth_duration_MTurk/v2_DepthDuration_HTML.html#9,9,1366,657,1366,768,8-21-2022,9-45-48,123,depth_duration_stimuli/002323_2014-06-28_20-01-54_260595134347_rgbf000051-resize_4/002323_2014-06-28_20-01-54_260595134347_rgbf000051-resize_4-target.png,125,3.7310000000000003,18,10907,125,feet,jsons/VE125_randls_29_rotated.json,576201,1334319,63,Woman
123,152479,DepthScenes,duration_manipulation_targetAtFixation,jsons/VE125_randls_29_rotated.json,http://54.235.29.9/FacialAge/BNav_EC2/DepthDuration/v2_depth_duration_MTurk/v2_DepthDuration_HTML.html#9,9,1366,657,1366,768,8-21-2022,9-45-48,124,depth_duration_stimuli/000917_2014-06-09_22-45-29_260595134347_rgbf000149-resize_3/000917_2014-06-09_22-45-29_260595134347_rgbf000149-resize_3-target.png,125,4.1865,17,2642,125,feet,jsons/VE125_randls_29_rotated.json,576201,1334319,63,Woman
124,152479,DepthScenes,duration_manipulation_targetAtFixation,jsons/VE125_randls_29_rotated.json,http://54.235.29.9/FacialAge/BNav_EC2/DepthDuration/v2_depth_duration_MTurk/v2_DepthDuration_HTML.html#9,9,1366,657,1366,768,8-21-2022,9-45-48,125,depth_duration_stimuli/002467_2014-06-28_20-38-07_260595134347_rgbf000026-resize_2/002467_2014-06-28_20-38-07_260595134347_rgbf000026-resize_2-target.png,125,4.742,16,2011,124,feet,jsons/VE125_randls_29_rotated.json,576201,1334319,63,Woman
125,152479,DepthScenes,duration_manipulation_targetAtFixation,jsons/VE125_randls_29_rotated.json,http://54.235.29.9/FacialAge/BNav_EC2/DepthDuration/v2_depth_duration_MTurk/v2_DepthDuration_HTML.html#9,9,1366,657,1366,768,8-21-2022,9-45-48,126,depth_duration_stimuli/002570_2014-06-24_13-59-54_094959634447_rgbf000059-resize_0/002570_2014-06-24_13-59-54_094959634447_rgbf000059-resize_0-target.png,125,4.037,15,2131,125,feet,jsons/VE125_randls_29_rotated.json,576201,1334319,63,Woman
126,152479,DepthScenes,duration_manipulation_targetAtFixation,jsons/VE125_randls_29_rotated.json,http://54.235.29.9/FacialAge/BNav_EC2/DepthDuration/v2_depth_duration_MTurk/v2_DepthDuration_HTML.html#9,9,1366,657,1366,768,8-21-2022,9-45-48,127,depth_duration_stimuli/000549_2014-06-08_22-10-24_260595134347_rgbf000247-resize_3/000549_2014-06-08_22-10-24_260595134347_rgbf000247-resize_3-target.png,125,1.841,14,5611,124,feet,jsons/VE125_randls_29_rotated.json,576201,1334319,63,Woman
127,152479,DepthScenes,duration_manipulation_targetAtFixation,jsons/VE125_randls_29_rotated.json,http://54.235.29.9/FacialAge/BNav_EC2/DepthDuration/v2_depth_duration_MTurk/v2_DepthDuration_HTML.html#9,9,1366,657,1366,768,8-21-2022,9-45-48,128,depth_duration_stimuli/001055_2014-06-08_18-45-35_260595134347_rgbf000111-resize_4/001055_2014-06-08_18-45-35_260595134347_rgbf000111-resize_4-target.png,125,2.4290000000000003,17,2939,124,feet,jsons/VE125_randls_29_rotated.json,576201,1334319,63,Woman
128,152479,DepthScenes,duration_manipulation_targetAtFixation,jsons/VE125_randls_29_rotated.json,http://54.235.29.9/FacialAge/BNav_EC2/DepthDuration/v2_depth_duration_MTurk/v2_DepthDuration_HTML.html#9,9,1366,657,1366,768,8-21-2022,9-45-48,129,depth_duration_stimuli/002545_2014-06-24_13-38-53_094959634447_rgbf000080-resize_4/002545_2014-06-24_13-38-53_094959634447_rgbf000080-resize_4-target.png,125,1.9205,15,2131,124,feet,jsons/VE125_randls_29_rotated.json,576201,1334319,63,Woman
129,152479,DepthScenes,duration_manipulation_targetAtFixation,jsons/VE125_randls_29_rotated.json,http://54.235.29.9/FacialAge/BNav_EC2/DepthDuration/v2_depth_duration_MTurk/v2_DepthDuration_HTML.html#9,9,1366,657,1366,768,8-21-2022,9-45-48,130,depth_duration_stimuli/001092_2014-06-15_17-34-58_260595134347_rgbf000171-resize_3/001092_2014-06-15_17-34-58_260595134347_rgbf000171-resize_3-target.png,125,2.6935,11,2307,123,feet,jsons/VE125_randls_29_rotated.json,576201,1334319,63,Woman
130,152479,DepthScenes,duration_manipulation_targetAtFixation,jsons/VE125_randls_29_rotated.json,http://54.235.29.9/FacialAge/BNav_EC2/DepthDuration/v2_depth_duration_MTurk/v2_DepthDuration_HTML.html#9,9,1366,657,1366,768,8-21-2022,9-45-48,131,depth_duration_stimuli/000709_2014-06-08_13-51-55_260595134347_rgbf000068-resize_3/000709_2014-06-08_13-51-55_260595134347_rgbf000068-resize_3-target.png,125,1.8030000000000002,5,1907,124,feet,jsons/VE125_randls_29_rotated.json,576201,1334319,63,Woman
131,152479,DepthScenes,duration_manipulation_targetAtFixation,jsons/VE125_randls_29_rotated.json,http://54.235.29.9/FacialAge/BNav_EC2/DepthDuration/v2_depth_duration_MTurk/v2_DepthDuration_HTML.html#9,9,1366,657,1366,768,8-21-2022,9-45-48,132,depth_duration_stimuli/002057_2014-06-24_21-00-13_260595134347_rgbf000120-resize_1/002057_2014-06-24_21-00-13_260595134347_rgbf000120-resize_1-target.png,125,2.967,6,2267,125,feet,jsons/VE125_randls_29_rotated.json,576201,1334319,63,Woman
132,152479,DepthScenes,duration_manipulation_targetAtFixation,jsons/VE125_randls_29_rotated.json,http://54.235.29.9/FacialAge/BNav_EC2/DepthDuration/v2_depth_duration_MTurk/v2_DepthDuration_HTML.html#9,9,1366,657,1366,768,8-21-2022,9-45-48,133,depth_duration_stimuli/001052_2014-06-08_18-24-54_260595134347_rgbf000130-resize_1/001052_2014-06-08_18-24-54_260595134347_rgbf000130-resize_1-target.png,125,4.1045,4,4371,124,feet,jsons/VE125_randls_29_rotated.json,576201,1334319,63,Woman
133,152479,DepthScenes,duration_manipulation_targetAtFixation,jsons/VE125_randls_29_rotated.json,http://54.235.29.9/FacialAge/BNav_EC2/DepthDuration/v2_depth_duration_MTurk/v2_DepthDuration_HTML.html#9,9,1366,657,1366,768,8-21-2022,9-45-48,134,depth_duration_stimuli/002988_2014-06-15_12-24-20_094959634447_rgbf000150-resize_1/002988_2014-06-15_12-24-20_094959634447_rgbf000150-resize_1-target.png,125,4.7669999999999995,3,3083,125,feet,jsons/VE125_randls_29_rotated.json,576201,1334319,63,Woman
134,152479,DepthScenes,duration_manipulation_targetAtFixation,jsons/VE125_randls_29_rotated.json,http://54.235.29.9/FacialAge/BNav_EC2/DepthDuration/v2_depth_duration_MTurk/v2_DepthDuration_HTML.html#9,9,1366,657,1366,768,8-21-2022,9-45-48,135,depth_duration_stimuli/000375_2014-06-08_11-17-29_260595134347_rgbf000133-resize_2/000375_2014-06-08_11-17-29_260595134347_rgbf000133-resize-original.jpg,125,4.718,0,1635,126,feet,jsons/VE125_randls_29_rotated.json,576201,1334319,63,Woman
135,152479,DepthScenes,duration_manipulation_targetAtFixation,jsons/VE125_randls_29_rotated.json,http://54.235.29.9/FacialAge/BNav_EC2/DepthDuration/v2_depth_duration_MTurk/v2_DepthDuration_HTML.html#9,9,1366,657,1366,768,8-21-2022,9-45-48,136,depth_duration_stimuli/001094_2014-06-15_17-36-00_260595134347_rgbf000205-resize_0/001094_2014-06-15_17-36-00_260595134347_rgbf000205-resize_0-target.png,125,4.2175,16,2227,125,feet,jsons/VE125_randls_29_rotated.json,576201,1334319,63,Woman
136,152479,DepthScenes,duration_manipulation_targetAtFixation,jsons/VE125_randls_29_rotated.json,http://54.235.29.9/FacialAge/BNav_EC2/DepthDuration/v2_depth_duration_MTurk/v2_DepthDuration_HTML.html#9,9,1366,657,1366,768,8-21-2022,9-45-48,137,depth_duration_stimuli/000692_2014-06-08_13-09-42_260595134347_rgbf000199-resize_2/000692_2014-06-08_13-09-42_260595134347_rgbf000199-resize_2-target.png,125,3.661,15,1873,123,feet,jsons/VE125_randls_29_rotated.json,576201,1334319,63,Woman
137,152479,DepthScenes,duration_manipulation_targetAtFixation,jsons/VE125_randls_29_rotated.json,http://54.235.29.9/FacialAge/BNav_EC2/DepthDuration/v2_depth_duration_MTurk/v2_DepthDuration_HTML.html#9,9,1366,657,1366,768,8-21-2022,9-45-48,138,depth_duration_stimuli/000691_2014-06-08_13-08-50_260595134347_rgbf000132-resize_3/000691_2014-06-08_13-08-50_260595134347_rgbf000132-resize_3-target.png,125,4.1530000000000005,19,2323,124,feet,jsons/VE125_randls_29_rotated.json,576201,1334319,63,Woman
138,152479,DepthScenes,duration_manipulation_targetAtFixation,jsons/VE125_randls_29_rotated.json,http://54.235.29.9/FacialAge/BNav_EC2/DepthDuration/v2_depth_duration_MTurk/v2_DepthDuration_HTML.html#9,9,1366,657,1366,768,8-21-2022,9-45-48,139,depth_duration_stimuli/002213_2014-06-28_18-37-58_260595134347_rgbf000055-resize_1/002213_2014-06-28_18-37-58_260595134347_rgbf000055-resize_1-target.png,125,3.62,18,2547,125,feet,jsons/VE125_randls_29_rotated.json,576201,1334319,63,Woman
139,152479,DepthScenes,duration_manipulation_targetAtFixation,jsons/VE125_randls_29_rotated.json,http://54.235.29.9/FacialAge/BNav_EC2/DepthDuration/v2_depth_duration_MTurk/v2_DepthDuration_HTML.html#9,9,1366,657,1366,768,8-21-2022,9-45-48,140,depth_duration_stimuli/001136_2014-06-17_15-19-41_260595134347_rgbf000076-resize_3/001136_2014-06-17_15-19-41_260595134347_rgbf000076-resize_3-target.png,125,1.8655,6,1971,124,feet,jsons/VE125_randls_29_rotated.json,576201,1334319,63,Woman
140,152479,DepthScenes,duration_manipulation_targetAtFixation,jsons/VE125_randls_29_rotated.json,http://54.235.29.9/FacialAge/BNav_EC2/DepthDuration/v2_depth_duration_MTurk/v2_DepthDuration_HTML.html#9,9,1366,657,1366,768,8-21-2022,9-45-48,141,depth_duration_stimuli/001164_2014-06-17_15-35-46_260595134347_rgbf000085-resize_3/001164_2014-06-17_15-35-46_260595134347_rgbf000085-resize_3-target.png,125,2.354,8,2179,125,feet,jsons/VE125_randls_29_rotated.json,576201,1334319,63,Woman
141,152479,DepthScenes,duration_manipulation_targetAtFixation,jsons/VE125_randls_29_rotated.json,http://54.235.29.9/FacialAge/BNav_EC2/DepthDuration/v2_depth_duration_MTurk/v2_DepthDuration_HTML.html#9,9,1366,657,1366,768,8-21-2022,9-45-48,142,depth_duration_stimuli/003490_2014-05-21_15-50-11_094959634447_rgbf000101-resize_3/003490_2014-05-21_15-50-11_094959634447_rgbf000101-resize_3-target.png,125,3.6445,7,2531,124,feet,jsons/VE125_randls_29_rotated.json,576201,1334319,63,Woman
142,152479,DepthScenes,duration_manipulation_targetAtFixation,jsons/VE125_randls_29_rotated.json,http://54.235.29.9/FacialAge/BNav_EC2/DepthDuration/v2_depth_duration_MTurk/v2_DepthDuration_HTML.html#9,9,1366,657,1366,768,8-21-2022,9-45-48,143,depth_duration_stimuli/001175_2014-06-17_15-45-55_260595134347_rgbf000129-resize_4/001175_2014-06-17_15-45-55_260595134347_rgbf000129-resize_4-target.png,125,4.255,19,2196,126,feet,jsons/VE125_randls_29_rotated.json,576201,1334319,63,Woman
143,152479,DepthScenes,duration_manipulation_targetAtFixation,jsons/VE125_randls_29_rotated.json,http://54.235.29.9/FacialAge/BNav_EC2/DepthDuration/v2_depth_duration_MTurk/v2_DepthDuration_HTML.html#9,9,1366,657,1366,768,8-21-2022,9-45-48,144,depth_duration_stimuli/002750_2014-06-22_19-08-03_094959634447_rgbf000094-resize_4/002750_2014-06-22_19-08-03_094959634447_rgbf000094-resize_4-target.png,125,2.354,18,6963,126,feet,jsons/VE125_randls_29_rotated.json,576201,1334319,63,Woman
144,152479,DepthScenes,duration_manipulation_targetAtFixation,jsons/VE125_randls_29_rotated.json,http://54.235.29.9/FacialAge/BNav_EC2/DepthDuration/v2_depth_duration_MTurk/v2_DepthDuration_HTML.html#9,9,1366,657,1366,768,8-21-2022,9-45-48,145,depth_duration_stimuli/002549_2014-06-24_13-41-39_094959634447_rgbf000022-resize_3/002549_2014-06-24_13-41-39_094959634447_rgbf000022-resize_3-target.png,125,1.476,7,18923,124,feet,jsons/VE125_randls_29_rotated.json,576201,1334319,63,Woman
145,152479,DepthScenes,duration_manipulation_targetAtFixation,jsons/VE125_randls_29_rotated.json,http://54.235.29.9/FacialAge/BNav_EC2/DepthDuration/v2_depth_duration_MTurk/v2_DepthDuration_HTML.html#9,9,1366,657,1366,768,8-21-2022,9-45-48,146,depth_duration_stimuli/002637_2014-06-24_14-51-13_094959634447_rgbf000066-resize_4/002637_2014-06-24_14-51-13_094959634447_rgbf000066-resize_4-target.png,125,1.9955,6,2098,122,feet,jsons/VE125_randls_29_rotated.json,576201,1334319,63,Woman
146,152479,DepthScenes,duration_manipulation_targetAtFixation,jsons/VE125_randls_29_rotated.json,http://54.235.29.9/FacialAge/BNav_EC2/DepthDuration/v2_depth_duration_MTurk/v2_DepthDuration_HTML.html#9,9,1366,657,1366,768,8-21-2022,9-45-48,147,depth_duration_stimuli/003534_2014-05-22_15-06-10_094959634447_rgbf000102-resize_4/003534_2014-05-22_15-06-10_094959634447_rgbf000102-resize_4-target.png,125,1.426,5,4147,125,feet,jsons/VE125_randls_29_rotated.json,576201,1334319,63,Woman
147,152479,DepthScenes,duration_manipulation_targetAtFixation,jsons/VE125_randls_29_rotated.json,http://54.235.29.9/FacialAge/BNav_EC2/DepthDuration/v2_depth_duration_MTurk/v2_DepthDuration_HTML.html#9,9,1366,657,1366,768,8-21-2022,9-45-48,148,depth_duration_stimuli/001584_2014-06-20_11-07-43_260595134347_rgbf000002-resize_1/001584_2014-06-20_11-07-43_260595134347_rgbf000002-resize_1-target.png,125,3.53,8,1867,125,feet,jsons/VE125_randls_29_rotated.json,576201,1334319,63,Woman
148,152479,DepthScenes,duration_manipulation_targetAtFixation,jsons/VE125_randls_29_rotated.json,http://54.235.29.9/FacialAge/BNav_EC2/DepthDuration/v2_depth_duration_MTurk/v2_DepthDuration_HTML.html#9,9,1366,657,1366,768,8-21-2022,9-45-48,149,depth_duration_stimuli/003621_2014-05-23_18-06-08_094959634447_rgbf000101-resize_1/003621_2014-05-23_18-06-08_094959634447_rgbf000101-resize_1-target.png,125,3.9835,15,7123,124,feet,jsons/VE125_randls_29_rotated.json,576201,1334319,63,Woman
149,152479,DepthScenes,duration_manipulation_targetAtFixation,jsons/VE125_randls_29_rotated.json,http://54.235.29.9/FacialAge/BNav_EC2/DepthDuration/v2_depth_duration_MTurk/v2_DepthDuration_HTML.html#9,9,1366,657,1366,768,8-21-2022,9-45-48,150,depth_duration_stimuli/000780_2014-06-08_22-28-29_260595134347_rgbf000126-resize_1/000780_2014-06-08_22-28-29_260595134347_rgbf000126-resize_1-target.png,125,3.3825,14,2498,125,feet,jsons/VE125_randls_29_rotated.json,576201,1334319,63,Woman
150,152479,DepthScenes,duration_manipulation_targetAtFixation,jsons/VE125_randls_29_rotated.json,http://54.235.29.9/FacialAge/BNav_EC2/DepthDuration/v2_depth_duration_MTurk/v2_DepthDuration_HTML.html#9,9,1366,657,1366,768,8-21-2022,9-45-48,151,depth_duration_stimuli/002445_2014-06-28_20-32-16_260595134347_rgbf000029-resize_4/002445_2014-06-28_20-32-16_260595134347_rgbf000029-resize_4-target.png,125,2.5315,7,4898,124,feet,jsons/VE125_randls_29_rotated.json,576201,1334319,63,Woman
151,152479,DepthScenes,duration_manipulation_targetAtFixation,jsons/VE125_randls_29_rotated.json,http://54.235.29.9/FacialAge/BNav_EC2/DepthDuration/v2_depth_duration_MTurk/v2_DepthDuration_HTML.html#9,9,1366,657,1366,768,8-21-2022,9-45-48,152,depth_duration_stimuli/000569_2014-06-09_22-51-47_260595134347_rgbf000141-resize_3/000569_2014-06-09_22-51-47_260595134347_rgbf000141-resize-original.jpg,125,4.512,0,1595,124,feet,jsons/VE125_randls_29_rotated.json,576201,1334319,63,Woman
152,152479,DepthScenes,duration_manipulation_targetAtFixation,jsons/VE125_randls_29_rotated.json,http://54.235.29.9/FacialAge/BNav_EC2/DepthDuration/v2_depth_duration_MTurk/v2_DepthDuration_HTML.html#9,9,1366,657,1366,768,8-21-2022,9-45-48,153,depth_duration_stimuli/002678_2014-06-13_16-15-32_094959634447_rgbf000151-resize_6/002678_2014-06-13_16-15-32_094959634447_rgbf000151-resize_6-target.png,125,2.1830000000000003,13,2954,124,feet,jsons/VE125_randls_29_rotated.json,576201,1334319,63,Woman
153,152479,DepthScenes,duration_manipulation_targetAtFixation,jsons/VE125_randls_29_rotated.json,http://54.235.29.9/FacialAge/BNav_EC2/DepthDuration/v2_depth_duration_MTurk/v2_DepthDuration_HTML.html#9,9,1366,657,1366,768,8-21-2022,9-45-48,154,depth_duration_stimuli/000368_2014-06-09_15-53-01_260595134347_rgbf000155-resize_2/000368_2014-06-09_15-53-01_260595134347_rgbf000155-resize_2-target.png,125,2.4859999999999998,9,3119,122,feet,jsons/VE125_randls_29_rotated.json,576201,1334319,63,Woman
154,152479,DepthScenes,duration_manipulation_targetAtFixation,jsons/VE125_randls_29_rotated.json,http://54.235.29.9/FacialAge/BNav_EC2/DepthDuration/v2_depth_duration_MTurk/v2_DepthDuration_HTML.html#9,9,1366,657,1366,768,8-21-2022,9-45-48,155,depth_duration_stimuli/000191_2014-05-12_17-07-38_260595134347_rgbf000199-resize_0/000191_2014-05-12_17-07-38_260595134347_rgbf000199-resize_0-target.png,125,3.7995,9,2250,125,feet,jsons/VE125_randls_29_rotated.json,576201,1334319,63,Woman
155,152479,DepthScenes,duration_manipulation_targetAtFixation,jsons/VE125_randls_29_rotated.json,http://54.235.29.9/FacialAge/BNav_EC2/DepthDuration/v2_depth_duration_MTurk/v2_DepthDuration_HTML.html#9,9,1366,657,1366,768,8-21-2022,9-45-48,156,depth_duration_stimuli/000493_2014-06-09_21-01-18_260595134347_rgbf000196-resize_3/000493_2014-06-09_21-01-18_260595134347_rgbf000196-resize_3-target.png,125,3.44,12,3291,125,feet,jsons/VE125_randls_29_rotated.json,576201,1334319,63,Woman
156,152479,DepthScenes,duration_manipulation_targetAtFixation,jsons/VE125_randls_29_rotated.json,http://54.235.29.9/FacialAge/BNav_EC2/DepthDuration/v2_depth_duration_MTurk/v2_DepthDuration_HTML.html#9,9,1366,657,1366,768,8-21-2022,9-45-48,157,depth_duration_stimuli/000677_2014-06-08_23-10-32_260595134347_rgbf000158-resize_6/000677_2014-06-08_23-10-32_260595134347_rgbf000158-resize_6-target.png,125,3.556,0,5298,125,feet,jsons/VE125_randls_29_rotated.json,576201,1334319,63,Woman
157,152479,DepthScenes,duration_manipulation_targetAtFixation,jsons/VE125_randls_29_rotated.json,http://54.235.29.9/FacialAge/BNav_EC2/DepthDuration/v2_depth_duration_MTurk/v2_DepthDuration_HTML.html#9,9,1366,657,1366,768,8-21-2022,9-45-48,158,depth_duration_stimuli/001029_2014-06-08_13-17-57_260595134347_rgbf000065-resize_1/001029_2014-06-08_13-17-57_260595134347_rgbf000065-resize_1-target.png,125,3.0835,16,10467,124,feet,jsons/VE125_randls_29_rotated.json,576201,1334319,63,Woman
158,152479,DepthScenes,duration_manipulation_targetAtFixation,jsons/VE125_randls_29_rotated.json,http://54.235.29.9/FacialAge/BNav_EC2/DepthDuration/v2_depth_duration_MTurk/v2_DepthDuration_HTML.html#9,9,1366,657,1366,768,8-21-2022,9-45-48,159,depth_duration_stimuli/002568_2014-06-24_13-59-21_094959634447_rgbf000062-resize_4/002568_2014-06-24_13-59-21_094959634447_rgbf000062-resize_4-target.png,125,3.015,0,2035,125,feet,jsons/VE125_randls_29_rotated.json,576201,1334319,63,Woman
159,152479,DepthScenes,duration_manipulation_targetAtFixation,jsons/VE125_randls_29_rotated.json,http://54.235.29.9/FacialAge/BNav_EC2/DepthDuration/v2_depth_duration_MTurk/v2_DepthDuration_HTML.html#9,9,1366,657,1366,768,8-21-2022,9-45-48,160,depth_duration_stimuli/003492_2014-05-21_15-50-55_094959634447_rgbf000828-resize_1/003492_2014-05-21_15-50-55_094959634447_rgbf000828-resize_1-target.png,125,4.06875,18,2978,125,feet,jsons/VE125_randls_29_rotated.json,576201,1334319,63,Woman
160,152479,DepthScenes,duration_manipulation_targetAtFixation,jsons/VE125_randls_29_rotated.json,http://54.235.29.9/FacialAge/BNav_EC2/DepthDuration/v2_depth_duration_MTurk/v2_DepthDuration_HTML.html#9,9,1366,657,1366,768,8-21-2022,9-45-48,161,depth_duration_stimuli/000556_2014-06-09_22-42-56_260595134347_rgbf000214-resize_1/000556_2014-06-09_22-42-56_260595134347_rgbf000214-resize_1-target.png,125,4.8415,0,1676,124,feet,jsons/VE125_randls_29_rotated.json,576201,1334319,63,Woman
161,152479,DepthScenes,duration_manipulation_targetAtFixation,jsons/VE125_randls_29_rotated.json,http://54.235.29.9/FacialAge/BNav_EC2/DepthDuration/v2_depth_duration_MTurk/v2_DepthDuration_HTML.html#9,9,1366,657,1366,768,8-21-2022,9-45-48,162,depth_duration_stimuli/001158_2014-06-17_15-32-16_260595134347_rgbf000138-resize_2/001158_2014-06-17_15-32-16_260595134347_rgbf000138-resize_2-target.png,125,4.5315,11,3097,124,feet,jsons/VE125_randls_29_rotated.json,576201,1334319,63,Woman
162,152479,DepthScenes,duration_manipulation_targetAtFixation,jsons/VE125_randls_29_rotated.json,http://54.235.29.9/FacialAge/BNav_EC2/DepthDuration/v2_depth_duration_MTurk/v2_DepthDuration_HTML.html#9,9,1366,657,1366,768,8-21-2022,9-45-48,163,depth_duration_stimuli/003083_2014-06-15_15-21-03_094959634447_rgbf000063-resize_1/003083_2014-06-15_15-21-03_094959634447_rgbf000063-resize_1-target.png,125,4.1405,7,4915,124,feet,jsons/VE125_randls_29_rotated.json,576201,1334319,63,Woman
163,152479,DepthScenes,duration_manipulation_targetAtFixation,jsons/VE125_randls_29_rotated.json,http://54.235.29.9/FacialAge/BNav_EC2/DepthDuration/v2_depth_duration_MTurk/v2_DepthDuration_HTML.html#9,9,1366,657,1366,768,8-21-2022,9-45-48,164,depth_duration_stimuli/000486_2014-06-09_20-47-20_260595134347_rgbf000143-resize_2/000486_2014-06-09_20-47-20_260595134347_rgbf000143-resize_2-target.png,125,4.8325,7,2762,124,feet,jsons/VE125_randls_29_rotated.json,576201,1334319,63,Woman
