,subjID,experimentName,versionName,sequenceName,url,selected_row,windowWidth,windowHeight,screenWidth,screenHeight,startDate,startTime,trial,stimulus,duration,actual_depth,depth_estimate,trial_RT,log_sceneDuration,unitSelection,seq_filepath,experimentTime,totalTime,age,gender
0,159726,DepthScenes,duration_manipulation_targetAtFixation,jsons/VE125_randls_3_rotated.json,http://54.235.29.9/FacialAge/BNav_EC2/DepthDuration/v2_depth_duration_MTurk/v2_DepthDuration_HTML.html#32,32,919,886,1920,1080,8-21-2022,9-42-7,1,depth_duration_stimuli/000927_2014-06-09_16-32-30_260595134347_rgbf000123-resize_3/000927_2014-06-09_16-32-30_260595134347_rgbf000123-resize_3-target.png,125,2.6785,7,3429,125,feet,jsons/VE125_randls_3_rotated.json,412954,551084,39,Man
1,159726,DepthScenes,duration_manipulation_targetAtFixation,jsons/VE125_randls_3_rotated.json,http://54.235.29.9/FacialAge/BNav_EC2/DepthDuration/v2_depth_duration_MTurk/v2_DepthDuration_HTML.html#32,32,919,886,1920,1080,8-21-2022,9-42-7,2,depth_duration_stimuli/001110_2014-06-15_17-25-28_260595134347_rgbf000150-resize_1/001110_2014-06-15_17-25-28_260595134347_rgbf000150-resize_1-target.png,125,1.7115,5,8327,124,feet,jsons/VE125_randls_3_rotated.json,412954,551084,39,Man
2,159726,DepthScenes,duration_manipulation_targetAtFixation,jsons/VE125_randls_3_rotated.json,http://54.235.29.9/FacialAge/BNav_EC2/DepthDuration/v2_depth_duration_MTurk/v2_DepthDuration_HTML.html#32,32,919,886,1920,1080,8-21-2022,9-42-7,3,depth_duration_stimuli/001214_2014-06-17_16-13-55_260595134347_rgbf000111-resize_0/001214_2014-06-17_16-13-55_260595134347_rgbf000111-resize_0-target.png,125,2.6505,4,5183,125,feet,jsons/VE125_randls_3_rotated.json,412954,551084,39,Man
3,159726,DepthScenes,duration_manipulation_targetAtFixation,jsons/VE125_randls_3_rotated.json,http://54.235.29.9/FacialAge/BNav_EC2/DepthDuration/v2_depth_duration_MTurk/v2_DepthDuration_HTML.html#32,32,919,886,1920,1080,8-21-2022,9-42-7,4,depth_duration_stimuli/000810_2014-06-08_17-20-01_260595134347_rgbf000105-resize_0/000810_2014-06-08_17-20-01_260595134347_rgbf000105-resize_0-target.png,125,1.4865,5,5074,126,feet,jsons/VE125_randls_3_rotated.json,412954,551084,39,Man
4,159726,DepthScenes,duration_manipulation_targetAtFixation,jsons/VE125_randls_3_rotated.json,http://54.235.29.9/FacialAge/BNav_EC2/DepthDuration/v2_depth_duration_MTurk/v2_DepthDuration_HTML.html#32,32,919,886,1920,1080,8-21-2022,9-42-7,5,depth_duration_stimuli/001136_2014-06-17_15-19-41_260595134347_rgbf000076-resize_3/001136_2014-06-17_15-19-41_260595134347_rgbf000076-resize_3-target.png,125,1.8655,6,2397,112,feet,jsons/VE125_randls_3_rotated.json,412954,551084,39,Man
5,159726,DepthScenes,duration_manipulation_targetAtFixation,jsons/VE125_randls_3_rotated.json,http://54.235.29.9/FacialAge/BNav_EC2/DepthDuration/v2_depth_duration_MTurk/v2_DepthDuration_HTML.html#32,32,919,886,1920,1080,8-21-2022,9-42-7,6,depth_duration_stimuli/001164_2014-06-17_15-35-46_260595134347_rgbf000085-resize_3/001164_2014-06-17_15-35-46_260595134347_rgbf000085-resize_3-target.png,125,2.354,7,1857,124,feet,jsons/VE125_randls_3_rotated.json,412954,551084,39,Man
6,159726,DepthScenes,duration_manipulation_targetAtFixation,jsons/VE125_randls_3_rotated.json,http://54.235.29.9/FacialAge/BNav_EC2/DepthDuration/v2_depth_duration_MTurk/v2_DepthDuration_HTML.html#32,32,919,886,1920,1080,8-21-2022,9-42-7,7,depth_duration_stimuli/003338_2014-05-20_11-01-23_094959634447_rgbf000051-resize_6/003338_2014-05-20_11-01-23_094959634447_rgbf000051-resize_6-target.png,125,1.693,2,2367,125,feet,jsons/VE125_randls_3_rotated.json,412954,551084,39,Man
7,159726,DepthScenes,duration_manipulation_targetAtFixation,jsons/VE125_randls_3_rotated.json,http://54.235.29.9/FacialAge/BNav_EC2/DepthDuration/v2_depth_duration_MTurk/v2_DepthDuration_HTML.html#32,32,919,886,1920,1080,8-21-2022,9-42-7,8,depth_duration_stimuli/002509_2014-06-24_13-19-22_094959634447_rgbf000077-resize_0/002509_2014-06-24_13-19-22_094959634447_rgbf000077-resize_0-target.png,125,1.3065,3,1403,124,feet,jsons/VE125_randls_3_rotated.json,412954,551084,39,Man
8,159726,DepthScenes,duration_manipulation_targetAtFixation,jsons/VE125_randls_3_rotated.json,http://54.235.29.9/FacialAge/BNav_EC2/DepthDuration/v2_depth_duration_MTurk/v2_DepthDuration_HTML.html#32,32,919,886,1920,1080,8-21-2022,9-42-7,9,depth_duration_stimuli/000677_2014-06-08_23-10-32_260595134347_rgbf000158-resize_6/000677_2014-06-08_23-10-32_260595134347_rgbf000158-resize_6-target.png,125,3.556,4,2771,123,feet,jsons/VE125_randls_3_rotated.json,412954,551084,39,Man
9,159726,DepthScenes,duration_manipulation_targetAtFixation,jsons/VE125_randls_3_rotated.json,http://54.235.29.9/FacialAge/BNav_EC2/DepthDuration/v2_depth_duration_MTurk/v2_DepthDuration_HTML.html#32,32,919,886,1920,1080,8-21-2022,9-42-7,10,depth_duration_stimuli/001029_2014-06-08_13-17-57_260595134347_rgbf000065-resize_1/001029_2014-06-08_13-17-57_260595134347_rgbf000065-resize_1-target.png,125,3.0835,6,2288,124,feet,jsons/VE125_randls_3_rotated.json,412954,551084,39,Man
10,159726,DepthScenes,duration_manipulation_targetAtFixation,jsons/VE125_randls_3_rotated.json,http://54.235.29.9/FacialAge/BNav_EC2/DepthDuration/v2_depth_duration_MTurk/v2_DepthDuration_HTML.html#32,32,919,886,1920,1080,8-21-2022,9-42-7,11,depth_duration_stimuli/001650_2014-06-20_12-09-00_260595134347_rgbf000087-resize_3/001650_2014-06-20_12-09-00_260595134347_rgbf000087-resize_3-target.png,125,1.9505,3,2466,124,feet,jsons/VE125_randls_3_rotated.json,412954,551084,39,Man
11,159726,DepthScenes,duration_manipulation_targetAtFixation,jsons/VE125_randls_3_rotated.json,http://54.235.29.9/FacialAge/BNav_EC2/DepthDuration/v2_depth_duration_MTurk/v2_DepthDuration_HTML.html#32,32,919,886,1920,1080,8-21-2022,9-42-7,12,depth_duration_stimuli/000682_2014-06-08_23-14-58_260595134347_rgbf000041-resize_5/000682_2014-06-08_23-14-58_260595134347_rgbf000041-resize_5-target.png,125,2.7239999999999998,4,1590,124,feet,jsons/VE125_randls_3_rotated.json,412954,551084,39,Man
12,159726,DepthScenes,duration_manipulation_targetAtFixation,jsons/VE125_randls_3_rotated.json,http://54.235.29.9/FacialAge/BNav_EC2/DepthDuration/v2_depth_duration_MTurk/v2_DepthDuration_HTML.html#32,32,919,886,1920,1080,8-21-2022,9-42-7,13,depth_duration_stimuli/000943_2014-06-09_19-31-07_260595134347_rgbf000128-resize_1/000943_2014-06-09_19-31-07_260595134347_rgbf000128-resize_1-target.png,125,1.9765,3,1599,124,feet,jsons/VE125_randls_3_rotated.json,412954,551084,39,Man
13,159726,DepthScenes,duration_manipulation_targetAtFixation,jsons/VE125_randls_3_rotated.json,http://54.235.29.9/FacialAge/BNav_EC2/DepthDuration/v2_depth_duration_MTurk/v2_DepthDuration_HTML.html#32,32,919,886,1920,1080,8-21-2022,9-42-7,14,depth_duration_stimuli/003070_2014-06-15_14-58-27_094959634447_rgbf000150-resize_3/003070_2014-06-15_14-58-27_094959634447_rgbf000150-resize_3-target.png,125,2.9415,8,2440,126,feet,jsons/VE125_randls_3_rotated.json,412954,551084,39,Man
14,159726,DepthScenes,duration_manipulation_targetAtFixation,jsons/VE125_randls_3_rotated.json,http://54.235.29.9/FacialAge/BNav_EC2/DepthDuration/v2_depth_duration_MTurk/v2_DepthDuration_HTML.html#32,32,919,886,1920,1080,8-21-2022,9-42-7,15,depth_duration_stimuli/001392_2014-06-19_16-07-59_260595134347_rgbf000046-resize_1/001392_2014-06-19_16-07-59_260595134347_rgbf000046-resize_1-target.png,125,4.135,9,1942,124,feet,jsons/VE125_randls_3_rotated.json,412954,551084,39,Man
15,159726,DepthScenes,duration_manipulation_targetAtFixation,jsons/VE125_randls_3_rotated.json,http://54.235.29.9/FacialAge/BNav_EC2/DepthDuration/v2_depth_duration_MTurk/v2_DepthDuration_HTML.html#32,32,919,886,1920,1080,8-21-2022,9-42-7,16,depth_duration_stimuli/001570_2014-06-20_17-21-09_260595134347_rgbf000135-resize_4/001570_2014-06-20_17-21-09_260595134347_rgbf000135-resize_4-target.png,125,4.467,10,2160,123,feet,jsons/VE125_randls_3_rotated.json,412954,551084,39,Man
16,159726,DepthScenes,duration_manipulation_targetAtFixation,jsons/VE125_randls_3_rotated.json,http://54.235.29.9/FacialAge/BNav_EC2/DepthDuration/v2_depth_duration_MTurk/v2_DepthDuration_HTML.html#32,32,919,886,1920,1080,8-21-2022,9-42-7,17,depth_duration_stimuli/002750_2014-06-22_19-08-03_094959634447_rgbf000094-resize_4/002750_2014-06-22_19-08-03_094959634447_rgbf000094-resize_4-target.png,125,2.354,6,2289,123,feet,jsons/VE125_randls_3_rotated.json,412954,551084,39,Man
17,159726,DepthScenes,duration_manipulation_targetAtFixation,jsons/VE125_randls_3_rotated.json,http://54.235.29.9/FacialAge/BNav_EC2/DepthDuration/v2_depth_duration_MTurk/v2_DepthDuration_HTML.html#32,32,919,886,1920,1080,8-21-2022,9-42-7,18,depth_duration_stimuli/002549_2014-06-24_13-41-39_094959634447_rgbf000022-resize_3/002549_2014-06-24_13-41-39_094959634447_rgbf000022-resize_3-target.png,125,1.476,5,1658,124,feet,jsons/VE125_randls_3_rotated.json,412954,551084,39,Man
18,159726,DepthScenes,duration_manipulation_targetAtFixation,jsons/VE125_randls_3_rotated.json,http://54.235.29.9/FacialAge/BNav_EC2/DepthDuration/v2_depth_duration_MTurk/v2_DepthDuration_HTML.html#32,32,919,886,1920,1080,8-21-2022,9-42-7,19,depth_duration_stimuli/001498_2014-06-19_17-45-14_260595134347_rgbf000129-resize_4/001498_2014-06-19_17-45-14_260595134347_rgbf000129-resize-original.jpg,125,1.4075,0,2800,122,feet,jsons/VE125_randls_3_rotated.json,412954,551084,39,Man
19,159726,DepthScenes,duration_manipulation_targetAtFixation,jsons/VE125_randls_3_rotated.json,http://54.235.29.9/FacialAge/BNav_EC2/DepthDuration/v2_depth_duration_MTurk/v2_DepthDuration_HTML.html#32,32,919,886,1920,1080,8-21-2022,9-42-7,20,depth_duration_stimuli/002949_2014-06-26_15-57-42_094959634447_rgbf000079-resize_1/002949_2014-06-26_15-57-42_094959634447_rgbf000079-resize_1-target.png,125,1.8915,3,2152,123,feet,jsons/VE125_randls_3_rotated.json,412954,551084,39,Man
20,159726,DepthScenes,duration_manipulation_targetAtFixation,jsons/VE125_randls_3_rotated.json,http://54.235.29.9/FacialAge/BNav_EC2/DepthDuration/v2_depth_duration_MTurk/v2_DepthDuration_HTML.html#32,32,919,886,1920,1080,8-21-2022,9-42-7,21,depth_duration_stimuli/000522_2014-06-08_13-35-06_260595134347_rgbf000244-resize_1/000522_2014-06-08_13-35-06_260595134347_rgbf000244-resize_1-target.png,125,2.3715,2,2066,124,feet,jsons/VE125_randls_3_rotated.json,412954,551084,39,Man
21,159726,DepthScenes,duration_manipulation_targetAtFixation,jsons/VE125_randls_3_rotated.json,http://54.235.29.9/FacialAge/BNav_EC2/DepthDuration/v2_depth_duration_MTurk/v2_DepthDuration_HTML.html#32,32,919,886,1920,1080,8-21-2022,9-42-7,22,depth_duration_stimuli/003081_2014-06-15_15-19-16_094959634447_rgbf000150-resize_1/003081_2014-06-15_15-19-16_094959634447_rgbf000150-resize_1-target.png,125,3.9125,8,1990,111,feet,jsons/VE125_randls_3_rotated.json,412954,551084,39,Man
22,159726,DepthScenes,duration_manipulation_targetAtFixation,jsons/VE125_randls_3_rotated.json,http://54.235.29.9/FacialAge/BNav_EC2/DepthDuration/v2_depth_duration_MTurk/v2_DepthDuration_HTML.html#32,32,919,886,1920,1080,8-21-2022,9-42-7,23,depth_duration_stimuli/001417_2014-06-19_16-25-36_260595134347_rgbf000115-resize_5/001417_2014-06-19_16-25-36_260595134347_rgbf000115-resize_5-target.png,125,4.6255,9,1910,116,feet,jsons/VE125_randls_3_rotated.json,412954,551084,39,Man
23,159726,DepthScenes,duration_manipulation_targetAtFixation,jsons/VE125_randls_3_rotated.json,http://54.235.29.9/FacialAge/BNav_EC2/DepthDuration/v2_depth_duration_MTurk/v2_DepthDuration_HTML.html#32,32,919,886,1920,1080,8-21-2022,9-42-7,24,depth_duration_stimuli/002995_2014-06-15_12-31-26_094959634447_rgbf000150-resize_1/002995_2014-06-15_12-31-26_094959634447_rgbf000150-resize_1-target.png,125,3.8360000000000003,10,1999,135,feet,jsons/VE125_randls_3_rotated.json,412954,551084,39,Man
24,159726,DepthScenes,duration_manipulation_targetAtFixation,jsons/VE125_randls_3_rotated.json,http://54.235.29.9/FacialAge/BNav_EC2/DepthDuration/v2_depth_duration_MTurk/v2_DepthDuration_HTML.html#32,32,919,886,1920,1080,8-21-2022,9-42-7,25,depth_duration_stimuli/002748_2014-06-22_19-07-22_094959634447_rgbf000078-resize_1/002748_2014-06-22_19-07-22_094959634447_rgbf000078-resize_1-target.png,125,4.6705,12,1936,138,feet,jsons/VE125_randls_3_rotated.json,412954,551084,39,Man
25,159726,DepthScenes,duration_manipulation_targetAtFixation,jsons/VE125_randls_3_rotated.json,http://54.235.29.9/FacialAge/BNav_EC2/DepthDuration/v2_depth_duration_MTurk/v2_DepthDuration_HTML.html#32,32,919,886,1920,1080,8-21-2022,9-42-7,26,depth_duration_stimuli/002103_2014-06-25_20-00-40_260595134347_rgbf000049-resize_0/002103_2014-06-25_20-00-40_260595134347_rgbf000049-resize_0-target.png,125,4.105,10,1941,130,feet,jsons/VE125_randls_3_rotated.json,412954,551084,39,Man
26,159726,DepthScenes,duration_manipulation_targetAtFixation,jsons/VE125_randls_3_rotated.json,http://54.235.29.9/FacialAge/BNav_EC2/DepthDuration/v2_depth_duration_MTurk/v2_DepthDuration_HTML.html#32,32,919,886,1920,1080,8-21-2022,9-42-7,27,depth_duration_stimuli/002039_2014-06-24_20-22-38_260595134347_rgbf000084-resize_1/002039_2014-06-24_20-22-38_260595134347_rgbf000084-resize_1-target.png,125,4.408,10,2484,118,feet,jsons/VE125_randls_3_rotated.json,412954,551084,39,Man
27,159726,DepthScenes,duration_manipulation_targetAtFixation,jsons/VE125_randls_3_rotated.json,http://54.235.29.9/FacialAge/BNav_EC2/DepthDuration/v2_depth_duration_MTurk/v2_DepthDuration_HTML.html#32,32,919,886,1920,1080,8-21-2022,9-42-7,28,depth_duration_stimuli/001516_2014-06-20_16-25-09_260595134347_rgbf000076-resize_2/001516_2014-06-20_16-25-09_260595134347_rgbf000076-resize_2-target.png,125,1.7445,6,1792,135,feet,jsons/VE125_randls_3_rotated.json,412954,551084,39,Man
28,159726,DepthScenes,duration_manipulation_targetAtFixation,jsons/VE125_randls_3_rotated.json,http://54.235.29.9/FacialAge/BNav_EC2/DepthDuration/v2_depth_duration_MTurk/v2_DepthDuration_HTML.html#32,32,919,886,1920,1080,8-21-2022,9-42-7,29,depth_duration_stimuli/002118_2014-06-25_20-32-08_260595134347_rgbf000078-resize_1/002118_2014-06-25_20-32-08_260595134347_rgbf000078-resize_1-target.png,125,2.6460000000000004,8,2845,121,feet,jsons/VE125_randls_3_rotated.json,412954,551084,39,Man
29,159726,DepthScenes,duration_manipulation_targetAtFixation,jsons/VE125_randls_3_rotated.json,http://54.235.29.9/FacialAge/BNav_EC2/DepthDuration/v2_depth_duration_MTurk/v2_DepthDuration_HTML.html#32,32,919,886,1920,1080,8-21-2022,9-42-7,30,depth_duration_stimuli/002072_2014-06-24_21-48-06_260595134347_rgbf000115-resize_0/002072_2014-06-24_21-48-06_260595134347_rgbf000115-resize-original.jpg,125,4.702,0,1788,122,feet,jsons/VE125_randls_3_rotated.json,412954,551084,39,Man
30,159726,DepthScenes,duration_manipulation_targetAtFixation,jsons/VE125_randls_3_rotated.json,http://54.235.29.9/FacialAge/BNav_EC2/DepthDuration/v2_depth_duration_MTurk/v2_DepthDuration_HTML.html#32,32,919,886,1920,1080,8-21-2022,9-42-7,31,depth_duration_stimuli/001052_2014-06-08_18-24-54_260595134347_rgbf000130-resize_1/001052_2014-06-08_18-24-54_260595134347_rgbf000130-resize_1-target.png,125,4.1045,8,2113,127,feet,jsons/VE125_randls_3_rotated.json,412954,551084,39,Man
31,159726,DepthScenes,duration_manipulation_targetAtFixation,jsons/VE125_randls_3_rotated.json,http://54.235.29.9/FacialAge/BNav_EC2/DepthDuration/v2_depth_duration_MTurk/v2_DepthDuration_HTML.html#32,32,919,886,1920,1080,8-21-2022,9-42-7,32,depth_duration_stimuli/002988_2014-06-15_12-24-20_094959634447_rgbf000150-resize_1/002988_2014-06-15_12-24-20_094959634447_rgbf000150-resize_1-target.png,125,4.7669999999999995,13,2076,123,feet,jsons/VE125_randls_3_rotated.json,412954,551084,39,Man
32,159726,DepthScenes,duration_manipulation_targetAtFixation,jsons/VE125_randls_3_rotated.json,http://54.235.29.9/FacialAge/BNav_EC2/DepthDuration/v2_depth_duration_MTurk/v2_DepthDuration_HTML.html#32,32,919,886,1920,1080,8-21-2022,9-42-7,33,depth_duration_stimuli/001132_2014-06-17_14-48-54_260595134347_rgbf000100-resize_2/001132_2014-06-17_14-48-54_260595134347_rgbf000100-resize_2-target.png,125,3.753,8,1717,124,feet,jsons/VE125_randls_3_rotated.json,412954,551084,39,Man
33,159726,DepthScenes,duration_manipulation_targetAtFixation,jsons/VE125_randls_3_rotated.json,http://54.235.29.9/FacialAge/BNav_EC2/DepthDuration/v2_depth_duration_MTurk/v2_DepthDuration_HTML.html#32,32,919,886,1920,1080,8-21-2022,9-42-7,34,depth_duration_stimuli/001133_2014-06-17_14-49-16_260595134347_rgbf000100-resize_0/001133_2014-06-17_14-49-16_260595134347_rgbf000100-resize_0-target.png,125,4.2115,10,2257,115,feet,jsons/VE125_randls_3_rotated.json,412954,551084,39,Man
34,159726,DepthScenes,duration_manipulation_targetAtFixation,jsons/VE125_randls_3_rotated.json,http://54.235.29.9/FacialAge/BNav_EC2/DepthDuration/v2_depth_duration_MTurk/v2_DepthDuration_HTML.html#32,32,919,886,1920,1080,8-21-2022,9-42-7,35,depth_duration_stimuli/002639_2014-06-24_14-51-37_094959634447_rgbf000074-resize_4/002639_2014-06-24_14-51-37_094959634447_rgbf000074-resize_4-target.png,125,4.0375,13,2518,125,feet,jsons/VE125_randls_3_rotated.json,412954,551084,39,Man
35,159726,DepthScenes,duration_manipulation_targetAtFixation,jsons/VE125_randls_3_rotated.json,http://54.235.29.9/FacialAge/BNav_EC2/DepthDuration/v2_depth_duration_MTurk/v2_DepthDuration_HTML.html#32,32,919,886,1920,1080,8-21-2022,9-42-7,36,depth_duration_stimuli/003292_2014-05-14_21-53-49_094959634447_rgbf000100-resize_2/003292_2014-05-14_21-53-49_094959634447_rgbf000100-resize_2-target.png,125,3.4815,10,2205,139,feet,jsons/VE125_randls_3_rotated.json,412954,551084,39,Man
36,159726,DepthScenes,duration_manipulation_targetAtFixation,jsons/VE125_randls_3_rotated.json,http://54.235.29.9/FacialAge/BNav_EC2/DepthDuration/v2_depth_duration_MTurk/v2_DepthDuration_HTML.html#32,32,919,886,1920,1080,8-21-2022,9-42-7,37,depth_duration_stimuli/002209_2014-06-28_18-36-10_260595134347_rgbf000051-resize_1/002209_2014-06-28_18-36-10_260595134347_rgbf000051-resize_1-target.png,125,2.057,5,1854,124,feet,jsons/VE125_randls_3_rotated.json,412954,551084,39,Man
37,159726,DepthScenes,duration_manipulation_targetAtFixation,jsons/VE125_randls_3_rotated.json,http://54.235.29.9/FacialAge/BNav_EC2/DepthDuration/v2_depth_duration_MTurk/v2_DepthDuration_HTML.html#32,32,919,886,1920,1080,8-21-2022,9-42-7,38,depth_duration_stimuli/002763_2014-06-22_19-13-10_094959634447_rgbf000075-resize_4/002763_2014-06-22_19-13-10_094959634447_rgbf000075-resize_4-target.png,125,1.68375,5,1580,124,feet,jsons/VE125_randls_3_rotated.json,412954,551084,39,Man
38,159726,DepthScenes,duration_manipulation_targetAtFixation,jsons/VE125_randls_3_rotated.json,http://54.235.29.9/FacialAge/BNav_EC2/DepthDuration/v2_depth_duration_MTurk/v2_DepthDuration_HTML.html#32,32,919,886,1920,1080,8-21-2022,9-42-7,39,depth_duration_stimuli/000191_2014-05-12_17-07-38_260595134347_rgbf000199-resize_0/000191_2014-05-12_17-07-38_260595134347_rgbf000199-resize_0-target.png,125,3.7995,8,1789,112,feet,jsons/VE125_randls_3_rotated.json,412954,551084,39,Man
39,159726,DepthScenes,duration_manipulation_targetAtFixation,jsons/VE125_randls_3_rotated.json,http://54.235.29.9/FacialAge/BNav_EC2/DepthDuration/v2_depth_duration_MTurk/v2_DepthDuration_HTML.html#32,32,919,886,1920,1080,8-21-2022,9-42-7,40,depth_duration_stimuli/000493_2014-06-09_21-01-18_260595134347_rgbf000196-resize_3/000493_2014-06-09_21-01-18_260595134347_rgbf000196-resize_3-target.png,125,3.44,6,1627,124,feet,jsons/VE125_randls_3_rotated.json,412954,551084,39,Man
40,159726,DepthScenes,duration_manipulation_targetAtFixation,jsons/VE125_randls_3_rotated.json,http://54.235.29.9/FacialAge/BNav_EC2/DepthDuration/v2_depth_duration_MTurk/v2_DepthDuration_HTML.html#32,32,919,886,1920,1080,8-21-2022,9-42-7,41,depth_duration_stimuli/003079_2014-06-15_15-18-20_094959634447_rgbf000152-resize_8/003079_2014-06-15_15-18-20_094959634447_rgbf000152-resize_8-target.png,125,2.8775,6,5249,122,feet,jsons/VE125_randls_3_rotated.json,412954,551084,39,Man
41,159726,DepthScenes,duration_manipulation_targetAtFixation,jsons/VE125_randls_3_rotated.json,http://54.235.29.9/FacialAge/BNav_EC2/DepthDuration/v2_depth_duration_MTurk/v2_DepthDuration_HTML.html#32,32,919,886,1920,1080,8-21-2022,9-42-7,42,depth_duration_stimuli/000506_2014-06-08_23-21-00_260595134347_rgbf000070-resize_7/000506_2014-06-08_23-21-00_260595134347_rgbf000070-resize_7-target.png,125,4.0585,10,2221,112,feet,jsons/VE125_randls_3_rotated.json,412954,551084,39,Man
42,159726,DepthScenes,duration_manipulation_targetAtFixation,jsons/VE125_randls_3_rotated.json,http://54.235.29.9/FacialAge/BNav_EC2/DepthDuration/v2_depth_duration_MTurk/v2_DepthDuration_HTML.html#32,32,919,886,1920,1080,8-21-2022,9-42-7,43,depth_duration_stimuli/002340_2014-06-28_20-05-46_260595134347_rgbf000113-resize_0/002340_2014-06-28_20-05-46_260595134347_rgbf000113-resize_0-target.png,125,2.4735,0,1832,124,feet,jsons/VE125_randls_3_rotated.json,412954,551084,39,Man
43,159726,DepthScenes,duration_manipulation_targetAtFixation,jsons/VE125_randls_3_rotated.json,http://54.235.29.9/FacialAge/BNav_EC2/DepthDuration/v2_depth_duration_MTurk/v2_DepthDuration_HTML.html#32,32,919,886,1920,1080,8-21-2022,9-42-7,44,depth_duration_stimuli/001016_2014-06-09_16-16-10_260595134347_rgbf000112-resize_5/001016_2014-06-09_16-16-10_260595134347_rgbf000112-resize_5-target.png,125,1.6565,5,1838,124,feet,jsons/VE125_randls_3_rotated.json,412954,551084,39,Man
44,159726,DepthScenes,duration_manipulation_targetAtFixation,jsons/VE125_randls_3_rotated.json,http://54.235.29.9/FacialAge/BNav_EC2/DepthDuration/v2_depth_duration_MTurk/v2_DepthDuration_HTML.html#32,32,919,886,1920,1080,8-21-2022,9-42-7,45,depth_duration_stimuli/002657_2014-06-13_15-29-54_094959634447_rgbf000150-resize_1/002657_2014-06-13_15-29-54_094959634447_rgbf000150-resize_1-target.png,125,4.919,6,1800,122,feet,jsons/VE125_randls_3_rotated.json,412954,551084,39,Man
45,159726,DepthScenes,duration_manipulation_targetAtFixation,jsons/VE125_randls_3_rotated.json,http://54.235.29.9/FacialAge/BNav_EC2/DepthDuration/v2_depth_duration_MTurk/v2_DepthDuration_HTML.html#32,32,919,886,1920,1080,8-21-2022,9-42-7,46,depth_duration_stimuli/002375_2014-06-28_20-13-44_260595134347_rgbf000032-resize_1/002375_2014-06-28_20-13-44_260595134347_rgbf000032-resize_1-target.png,125,4.0175,7,2010,125,feet,jsons/VE125_randls_3_rotated.json,412954,551084,39,Man
46,159726,DepthScenes,duration_manipulation_targetAtFixation,jsons/VE125_randls_3_rotated.json,http://54.235.29.9/FacialAge/BNav_EC2/DepthDuration/v2_depth_duration_MTurk/v2_DepthDuration_HTML.html#32,32,919,886,1920,1080,8-21-2022,9-42-7,47,depth_duration_stimuli/003490_2014-05-21_15-50-11_094959634447_rgbf000101-resize_3/003490_2014-05-21_15-50-11_094959634447_rgbf000101-resize_3-target.png,125,3.6445,9,1990,124,feet,jsons/VE125_randls_3_rotated.json,412954,551084,39,Man
47,159726,DepthScenes,duration_manipulation_targetAtFixation,jsons/VE125_randls_3_rotated.json,http://54.235.29.9/FacialAge/BNav_EC2/DepthDuration/v2_depth_duration_MTurk/v2_DepthDuration_HTML.html#32,32,919,886,1920,1080,8-21-2022,9-42-7,48,depth_duration_stimuli/001175_2014-06-17_15-45-55_260595134347_rgbf000129-resize_4/001175_2014-06-17_15-45-55_260595134347_rgbf000129-resize_4-target.png,125,4.255,12,1828,134,feet,jsons/VE125_randls_3_rotated.json,412954,551084,39,Man
48,159726,DepthScenes,duration_manipulation_targetAtFixation,jsons/VE125_randls_3_rotated.json,http://54.235.29.9/FacialAge/BNav_EC2/DepthDuration/v2_depth_duration_MTurk/v2_DepthDuration_HTML.html#32,32,919,886,1920,1080,8-21-2022,9-42-7,49,depth_duration_stimuli/001170_2014-06-17_15-43-44_260595134347_rgbf000096-resize_6/001170_2014-06-17_15-43-44_260595134347_rgbf000096-resize-original.jpg,125,1.1909999999999998,0,1563,119,feet,jsons/VE125_randls_3_rotated.json,412954,551084,39,Man
49,159726,DepthScenes,duration_manipulation_targetAtFixation,jsons/VE125_randls_3_rotated.json,http://54.235.29.9/FacialAge/BNav_EC2/DepthDuration/v2_depth_duration_MTurk/v2_DepthDuration_HTML.html#32,32,919,886,1920,1080,8-21-2022,9-42-7,50,depth_duration_stimuli/000734_2014-06-08_17-39-11_260595134347_rgbf000128-resize_2/000734_2014-06-08_17-39-11_260595134347_rgbf000128-resize_2-target.png,125,4.098,7,1864,116,feet,jsons/VE125_randls_3_rotated.json,412954,551084,39,Man
50,159726,DepthScenes,duration_manipulation_targetAtFixation,jsons/VE125_randls_3_rotated.json,http://54.235.29.9/FacialAge/BNav_EC2/DepthDuration/v2_depth_duration_MTurk/v2_DepthDuration_HTML.html#32,32,919,886,1920,1080,8-21-2022,9-42-7,51,depth_duration_stimuli/000739_2014-06-08_18-45-58_260595134347_rgbf000068-resize_1/000739_2014-06-08_18-45-58_260595134347_rgbf000068-resize_1-target.png,125,3.534,8,1909,130,feet,jsons/VE125_randls_3_rotated.json,412954,551084,39,Man
51,159726,DepthScenes,duration_manipulation_targetAtFixation,jsons/VE125_randls_3_rotated.json,http://54.235.29.9/FacialAge/BNav_EC2/DepthDuration/v2_depth_duration_MTurk/v2_DepthDuration_HTML.html#32,32,919,886,1920,1080,8-21-2022,9-42-7,52,depth_duration_stimuli/002344_2014-06-28_20-06-29_260595134347_rgbf000030-resize_1/002344_2014-06-28_20-06-29_260595134347_rgbf000030-resize_1-target.png,125,1.5795,2,1562,124,feet,jsons/VE125_randls_3_rotated.json,412954,551084,39,Man
52,159726,DepthScenes,duration_manipulation_targetAtFixation,jsons/VE125_randls_3_rotated.json,http://54.235.29.9/FacialAge/BNav_EC2/DepthDuration/v2_depth_duration_MTurk/v2_DepthDuration_HTML.html#32,32,919,886,1920,1080,8-21-2022,9-42-7,53,depth_duration_stimuli/002725_2014-06-22_11-47-51_094959634447_rgbf000070-resize_1/002725_2014-06-22_11-47-51_094959634447_rgbf000070-resize_1-target.png,125,2.195,5,1882,117,feet,jsons/VE125_randls_3_rotated.json,412954,551084,39,Man
53,159726,DepthScenes,duration_manipulation_targetAtFixation,jsons/VE125_randls_3_rotated.json,http://54.235.29.9/FacialAge/BNav_EC2/DepthDuration/v2_depth_duration_MTurk/v2_DepthDuration_HTML.html#32,32,919,886,1920,1080,8-21-2022,9-42-7,54,depth_duration_stimuli/002444_2014-06-28_20-32-08_260595134347_rgbf000027-resize_0/002444_2014-06-28_20-32-08_260595134347_rgbf000027-resize_0-target.png,125,4.388999999999999,10,1991,131,feet,jsons/VE125_randls_3_rotated.json,412954,551084,39,Man
54,159726,DepthScenes,duration_manipulation_targetAtFixation,jsons/VE125_randls_3_rotated.json,http://54.235.29.9/FacialAge/BNav_EC2/DepthDuration/v2_depth_duration_MTurk/v2_DepthDuration_HTML.html#32,32,919,886,1920,1080,8-21-2022,9-42-7,55,depth_duration_stimuli/000436_2014-06-09_22-25-11_260595134347_rgbf000137-resize_1/000436_2014-06-09_22-25-11_260595134347_rgbf000137-resize_1-target.png,125,4.0705,12,1613,113,feet,jsons/VE125_randls_3_rotated.json,412954,551084,39,Man
55,159726,DepthScenes,duration_manipulation_targetAtFixation,jsons/VE125_randls_3_rotated.json,http://54.235.29.9/FacialAge/BNav_EC2/DepthDuration/v2_depth_duration_MTurk/v2_DepthDuration_HTML.html#32,32,919,886,1920,1080,8-21-2022,9-42-7,56,depth_duration_stimuli/000103_2014-05-14_22-01-17_260595134347_rgbf000152-resize_5/000103_2014-05-14_22-01-17_260595134347_rgbf000152-resize_5-target.png,125,1.993,8,1918,125,feet,jsons/VE125_randls_3_rotated.json,412954,551084,39,Man
56,159726,DepthScenes,duration_manipulation_targetAtFixation,jsons/VE125_randls_3_rotated.json,http://54.235.29.9/FacialAge/BNav_EC2/DepthDuration/v2_depth_duration_MTurk/v2_DepthDuration_HTML.html#32,32,919,886,1920,1080,8-21-2022,9-42-7,57,depth_duration_stimuli/001555_2014-06-20_17-12-10_260595134347_rgbf000065-resize_4/001555_2014-06-20_17-12-10_260595134347_rgbf000065-resize_4-target.png,125,1.633,4,1692,124,feet,jsons/VE125_randls_3_rotated.json,412954,551084,39,Man
57,159726,DepthScenes,duration_manipulation_targetAtFixation,jsons/VE125_randls_3_rotated.json,http://54.235.29.9/FacialAge/BNav_EC2/DepthDuration/v2_depth_duration_MTurk/v2_DepthDuration_HTML.html#32,32,919,886,1920,1080,8-21-2022,9-42-7,58,depth_duration_stimuli/000502_2014-06-08_23-02-32_260595134347_rgbf000063-resize_4/000502_2014-06-08_23-02-32_260595134347_rgbf000063-resize_4-target.png,125,2.431,7,2433,123,feet,jsons/VE125_randls_3_rotated.json,412954,551084,39,Man
58,159726,DepthScenes,duration_manipulation_targetAtFixation,jsons/VE125_randls_3_rotated.json,http://54.235.29.9/FacialAge/BNav_EC2/DepthDuration/v2_depth_duration_MTurk/v2_DepthDuration_HTML.html#32,32,919,886,1920,1080,8-21-2022,9-42-7,59,depth_duration_stimuli/001199_2014-06-17_16-03-48_260595134347_rgbf000077-resize_0/001199_2014-06-17_16-03-48_260595134347_rgbf000077-resize_0-target.png,125,3.4375,9,2204,138,feet,jsons/VE125_randls_3_rotated.json,412954,551084,39,Man
59,159726,DepthScenes,duration_manipulation_targetAtFixation,jsons/VE125_randls_3_rotated.json,http://54.235.29.9/FacialAge/BNav_EC2/DepthDuration/v2_depth_duration_MTurk/v2_DepthDuration_HTML.html#32,32,919,886,1920,1080,8-21-2022,9-42-7,60,depth_duration_stimuli/002323_2014-06-28_20-01-54_260595134347_rgbf000051-resize_4/002323_2014-06-28_20-01-54_260595134347_rgbf000051-resize_4-target.png,125,3.7310000000000003,10,1802,124,feet,jsons/VE125_randls_3_rotated.json,412954,551084,39,Man
60,159726,DepthScenes,duration_manipulation_targetAtFixation,jsons/VE125_randls_3_rotated.json,http://54.235.29.9/FacialAge/BNav_EC2/DepthDuration/v2_depth_duration_MTurk/v2_DepthDuration_HTML.html#32,32,919,886,1920,1080,8-21-2022,9-42-7,61,depth_duration_stimuli/000917_2014-06-09_22-45-29_260595134347_rgbf000149-resize_3/000917_2014-06-09_22-45-29_260595134347_rgbf000149-resize_3-target.png,125,4.1865,9,2245,125,feet,jsons/VE125_randls_3_rotated.json,412954,551084,39,Man
61,159726,DepthScenes,duration_manipulation_targetAtFixation,jsons/VE125_randls_3_rotated.json,http://54.235.29.9/FacialAge/BNav_EC2/DepthDuration/v2_depth_duration_MTurk/v2_DepthDuration_HTML.html#32,32,919,886,1920,1080,8-21-2022,9-42-7,62,depth_duration_stimuli/002136_2014-06-25_21-18-03_260595134347_rgbf000109-resize_3/002136_2014-06-25_21-18-03_260595134347_rgbf000109-resize_3-target.png,125,1.9569999999999999,5,3049,125,feet,jsons/VE125_randls_3_rotated.json,412954,551084,39,Man
62,159726,DepthScenes,duration_manipulation_targetAtFixation,jsons/VE125_randls_3_rotated.json,http://54.235.29.9/FacialAge/BNav_EC2/DepthDuration/v2_depth_duration_MTurk/v2_DepthDuration_HTML.html#32,32,919,886,1920,1080,8-21-2022,9-42-7,63,depth_duration_stimuli/002964_2014-06-08_17-46-11_094959634447_rgbf000091-resize_4/002964_2014-06-08_17-46-11_094959634447_rgbf000091-resize_4-target.png,125,1.6909999999999998,5,8028,124,feet,jsons/VE125_randls_3_rotated.json,412954,551084,39,Man
63,159726,DepthScenes,duration_manipulation_targetAtFixation,jsons/VE125_randls_3_rotated.json,http://54.235.29.9/FacialAge/BNav_EC2/DepthDuration/v2_depth_duration_MTurk/v2_DepthDuration_HTML.html#32,32,919,886,1920,1080,8-21-2022,9-42-7,64,depth_duration_stimuli/000457_2014-06-08_16-52-43_260595134347_rgbf000199-resize_1/000457_2014-06-08_16-52-43_260595134347_rgbf000199-resize_1-target.png,125,3.6489999999999996,10,3057,124,feet,jsons/VE125_randls_3_rotated.json,412954,551084,39,Man
64,159726,DepthScenes,duration_manipulation_targetAtFixation,jsons/VE125_randls_3_rotated.json,http://54.235.29.9/FacialAge/BNav_EC2/DepthDuration/v2_depth_duration_MTurk/v2_DepthDuration_HTML.html#32,32,919,886,1920,1080,8-21-2022,9-42-7,65,depth_duration_stimuli/000929_2014-06-09_16-33-19_260595134347_rgbf000139-resize_0/000929_2014-06-09_16-33-19_260595134347_rgbf000139-resize_0-target.png,125,2.8680000000000003,5,5346,125,feet,jsons/VE125_randls_3_rotated.json,412954,551084,39,Man
65,159726,DepthScenes,duration_manipulation_targetAtFixation,jsons/VE125_randls_3_rotated.json,http://54.235.29.9/FacialAge/BNav_EC2/DepthDuration/v2_depth_duration_MTurk/v2_DepthDuration_HTML.html#32,32,919,886,1920,1080,8-21-2022,9-42-7,66,depth_duration_stimuli/001540_2014-06-20_17-01-05_260595134347_rgbf000086-resize_2/001540_2014-06-20_17-01-05_260595134347_rgbf000086-resize-original.jpg,125,1.459,0,1824,123,feet,jsons/VE125_randls_3_rotated.json,412954,551084,39,Man
66,159726,DepthScenes,duration_manipulation_targetAtFixation,jsons/VE125_randls_3_rotated.json,http://54.235.29.9/FacialAge/BNav_EC2/DepthDuration/v2_depth_duration_MTurk/v2_DepthDuration_HTML.html#32,32,919,886,1920,1080,8-21-2022,9-42-7,67,depth_duration_stimuli/001447_2014-06-19_17-00-32_260595134347_rgbf000082-resize_5/001447_2014-06-19_17-00-32_260595134347_rgbf000082-resize_5-target.png,125,4.13775,5,1416,130,feet,jsons/VE125_randls_3_rotated.json,412954,551084,39,Man
67,159726,DepthScenes,duration_manipulation_targetAtFixation,jsons/VE125_randls_3_rotated.json,http://54.235.29.9/FacialAge/BNav_EC2/DepthDuration/v2_depth_duration_MTurk/v2_DepthDuration_HTML.html#32,32,919,886,1920,1080,8-21-2022,9-42-7,68,depth_duration_stimuli/000447_2014-06-08_16-15-46_260595134347_rgbf000130-resize_1/000447_2014-06-08_16-15-46_260595134347_rgbf000130-resize_1-target.png,125,4.479,10,1697,130,feet,jsons/VE125_randls_3_rotated.json,412954,551084,39,Man
68,159726,DepthScenes,duration_manipulation_targetAtFixation,jsons/VE125_randls_3_rotated.json,http://54.235.29.9/FacialAge/BNav_EC2/DepthDuration/v2_depth_duration_MTurk/v2_DepthDuration_HTML.html#32,32,919,886,1920,1080,8-21-2022,9-42-7,69,depth_duration_stimuli/002953_2014-06-08_17-32-18_094959634447_rgbf000059-resize_5/002953_2014-06-08_17-32-18_094959634447_rgbf000059-resize_5-target.png,125,1.551,5,1315,117,feet,jsons/VE125_randls_3_rotated.json,412954,551084,39,Man
69,159726,DepthScenes,duration_manipulation_targetAtFixation,jsons/VE125_randls_3_rotated.json,http://54.235.29.9/FacialAge/BNav_EC2/DepthDuration/v2_depth_duration_MTurk/v2_DepthDuration_HTML.html#32,32,919,886,1920,1080,8-21-2022,9-42-7,70,depth_duration_stimuli/000878_2014-06-08_22-52-45_260595134347_rgbf000045-resize_2/000878_2014-06-08_22-52-45_260595134347_rgbf000045-resize_2-target.png,125,2.092,8,1683,116,feet,jsons/VE125_randls_3_rotated.json,412954,551084,39,Man
70,159726,DepthScenes,duration_manipulation_targetAtFixation,jsons/VE125_randls_3_rotated.json,http://54.235.29.9/FacialAge/BNav_EC2/DepthDuration/v2_depth_duration_MTurk/v2_DepthDuration_HTML.html#32,32,919,886,1920,1080,8-21-2022,9-42-7,71,depth_duration_stimuli/001584_2014-06-20_11-07-43_260595134347_rgbf000002-resize_1/001584_2014-06-20_11-07-43_260595134347_rgbf000002-resize_1-target.png,125,3.53,12,1880,114,feet,jsons/VE125_randls_3_rotated.json,412954,551084,39,Man
71,159726,DepthScenes,duration_manipulation_targetAtFixation,jsons/VE125_randls_3_rotated.json,http://54.235.29.9/FacialAge/BNav_EC2/DepthDuration/v2_depth_duration_MTurk/v2_DepthDuration_HTML.html#32,32,919,886,1920,1080,8-21-2022,9-42-7,72,depth_duration_stimuli/003621_2014-05-23_18-06-08_094959634447_rgbf000101-resize_1/003621_2014-05-23_18-06-08_094959634447_rgbf000101-resize_1-target.png,125,3.9835,15,1924,125,feet,jsons/VE125_randls_3_rotated.json,412954,551084,39,Man
72,159726,DepthScenes,duration_manipulation_targetAtFixation,jsons/VE125_randls_3_rotated.json,http://54.235.29.9/FacialAge/BNav_EC2/DepthDuration/v2_depth_duration_MTurk/v2_DepthDuration_HTML.html#32,32,919,886,1920,1080,8-21-2022,9-42-7,73,depth_duration_stimuli/002425_2014-06-28_20-27-29_260595134347_rgbf000031-resize_8/002425_2014-06-28_20-27-29_260595134347_rgbf000031-resize_8-target.png,125,3.8960000000000004,10,1769,152,feet,jsons/VE125_randls_3_rotated.json,412954,551084,39,Man
73,159726,DepthScenes,duration_manipulation_targetAtFixation,jsons/VE125_randls_3_rotated.json,http://54.235.29.9/FacialAge/BNav_EC2/DepthDuration/v2_depth_duration_MTurk/v2_DepthDuration_HTML.html#32,32,919,886,1920,1080,8-21-2022,9-42-7,74,depth_duration_stimuli/000642_2014-06-08_16-59-25_260595134347_rgbf000098-resize_2/000642_2014-06-08_16-59-25_260595134347_rgbf000098-resize_2-target.png,125,2.8815,8,2539,123,feet,jsons/VE125_randls_3_rotated.json,412954,551084,39,Man
74,159726,DepthScenes,duration_manipulation_targetAtFixation,jsons/VE125_randls_3_rotated.json,http://54.235.29.9/FacialAge/BNav_EC2/DepthDuration/v2_depth_duration_MTurk/v2_DepthDuration_HTML.html#32,32,919,886,1920,1080,8-21-2022,9-42-7,75,depth_duration_stimuli/000691_2014-06-08_13-08-50_260595134347_rgbf000132-resize_3/000691_2014-06-08_13-08-50_260595134347_rgbf000132-resize_3-target.png,125,4.1530000000000005,12,1796,132,feet,jsons/VE125_randls_3_rotated.json,412954,551084,39,Man
75,159726,DepthScenes,duration_manipulation_targetAtFixation,jsons/VE125_randls_3_rotated.json,http://54.235.29.9/FacialAge/BNav_EC2/DepthDuration/v2_depth_duration_MTurk/v2_DepthDuration_HTML.html#32,32,919,886,1920,1080,8-21-2022,9-42-7,76,depth_duration_stimuli/002213_2014-06-28_18-37-58_260595134347_rgbf000055-resize_1/002213_2014-06-28_18-37-58_260595134347_rgbf000055-resize_1-target.png,125,3.62,12,2198,125,feet,jsons/VE125_randls_3_rotated.json,412954,551084,39,Man
76,159726,DepthScenes,duration_manipulation_targetAtFixation,jsons/VE125_randls_3_rotated.json,http://54.235.29.9/FacialAge/BNav_EC2/DepthDuration/v2_depth_duration_MTurk/v2_DepthDuration_HTML.html#32,32,919,886,1920,1080,8-21-2022,9-42-7,77,depth_duration_stimuli/000635_2014-06-08_16-38-42_260595134347_rgbf000106-resize_1/000635_2014-06-08_16-38-42_260595134347_rgbf000106-resize_1-target.png,125,2.074,7,3052,123,feet,jsons/VE125_randls_3_rotated.json,412954,551084,39,Man
77,159726,DepthScenes,duration_manipulation_targetAtFixation,jsons/VE125_randls_3_rotated.json,http://54.235.29.9/FacialAge/BNav_EC2/DepthDuration/v2_depth_duration_MTurk/v2_DepthDuration_HTML.html#32,32,919,886,1920,1080,8-21-2022,9-42-7,78,depth_duration_stimuli/002279_2014-06-28_18-55-32_260595134347_rgbf000040-resize_5/002279_2014-06-28_18-55-32_260595134347_rgbf000040-resize_5-target.png,125,1.5043333333333,3,1893,131,feet,jsons/VE125_randls_3_rotated.json,412954,551084,39,Man
78,159726,DepthScenes,duration_manipulation_targetAtFixation,jsons/VE125_randls_3_rotated.json,http://54.235.29.9/FacialAge/BNav_EC2/DepthDuration/v2_depth_duration_MTurk/v2_DepthDuration_HTML.html#32,32,919,886,1920,1080,8-21-2022,9-42-7,79,depth_duration_stimuli/002758_2014-06-22_19-11-20_094959634447_rgbf000128-resize_1/002758_2014-06-22_19-11-20_094959634447_rgbf000128-resize_1-target.png,125,2.555,5,1835,130,feet,jsons/VE125_randls_3_rotated.json,412954,551084,39,Man
79,159726,DepthScenes,duration_manipulation_targetAtFixation,jsons/VE125_randls_3_rotated.json,http://54.235.29.9/FacialAge/BNav_EC2/DepthDuration/v2_depth_duration_MTurk/v2_DepthDuration_HTML.html#32,32,919,886,1920,1080,8-21-2022,9-42-7,80,depth_duration_stimuli/002630_2014-06-24_14-47-50_094959634447_rgbf000055-resize_1/002630_2014-06-24_14-47-50_094959634447_rgbf000055-resize_1-target.png,125,3.0095,12,1552,113,feet,jsons/VE125_randls_3_rotated.json,412954,551084,39,Man
80,159726,DepthScenes,duration_manipulation_targetAtFixation,jsons/VE125_randls_3_rotated.json,http://54.235.29.9/FacialAge/BNav_EC2/DepthDuration/v2_depth_duration_MTurk/v2_DepthDuration_HTML.html#32,32,919,886,1920,1080,8-21-2022,9-42-7,81,depth_duration_stimuli/003495_2014-05-21_16-01-51_094959634447_rgbf000100-resize_3/003495_2014-05-21_16-01-51_094959634447_rgbf000100-resize_3-target.png,125,1.6255,4,1967,130,feet,jsons/VE125_randls_3_rotated.json,412954,551084,39,Man
81,159726,DepthScenes,duration_manipulation_targetAtFixation,jsons/VE125_randls_3_rotated.json,http://54.235.29.9/FacialAge/BNav_EC2/DepthDuration/v2_depth_duration_MTurk/v2_DepthDuration_HTML.html#32,32,919,886,1920,1080,8-21-2022,9-42-7,82,depth_duration_stimuli/001244_2014-06-17_16-47-45_260595134347_rgbf000030-resize_4/001244_2014-06-17_16-47-45_260595134347_rgbf000030-resize_4-target.png,125,2.0425,5,1459,122,feet,jsons/VE125_randls_3_rotated.json,412954,551084,39,Man
82,159726,DepthScenes,duration_manipulation_targetAtFixation,jsons/VE125_randls_3_rotated.json,http://54.235.29.9/FacialAge/BNav_EC2/DepthDuration/v2_depth_duration_MTurk/v2_DepthDuration_HTML.html#32,32,919,886,1920,1080,8-21-2022,9-42-7,83,depth_duration_stimuli/003083_2014-06-15_15-21-03_094959634447_rgbf000063-resize_1/003083_2014-06-15_15-21-03_094959634447_rgbf000063-resize_1-target.png,125,4.1405,10,1334,116,feet,jsons/VE125_randls_3_rotated.json,412954,551084,39,Man
83,159726,DepthScenes,duration_manipulation_targetAtFixation,jsons/VE125_randls_3_rotated.json,http://54.235.29.9/FacialAge/BNav_EC2/DepthDuration/v2_depth_duration_MTurk/v2_DepthDuration_HTML.html#32,32,919,886,1920,1080,8-21-2022,9-42-7,84,depth_duration_stimuli/000486_2014-06-09_20-47-20_260595134347_rgbf000143-resize_2/000486_2014-06-09_20-47-20_260595134347_rgbf000143-resize_2-target.png,125,4.8325,12,1750,117,feet,jsons/VE125_randls_3_rotated.json,412954,551084,39,Man
84,159726,DepthScenes,duration_manipulation_targetAtFixation,jsons/VE125_randls_3_rotated.json,http://54.235.29.9/FacialAge/BNav_EC2/DepthDuration/v2_depth_duration_MTurk/v2_DepthDuration_HTML.html#32,32,919,886,1920,1080,8-21-2022,9-42-7,85,depth_duration_stimuli/002875_2014-06-01_15-19-00_094959634447_rgbf000151-resize_1/002875_2014-06-01_15-19-00_094959634447_rgbf000151-resize_1-target.png,125,1.9675,4,1746,142,feet,jsons/VE125_randls_3_rotated.json,412954,551084,39,Man
85,159726,DepthScenes,duration_manipulation_targetAtFixation,jsons/VE125_randls_3_rotated.json,http://54.235.29.9/FacialAge/BNav_EC2/DepthDuration/v2_depth_duration_MTurk/v2_DepthDuration_HTML.html#32,32,919,886,1920,1080,8-21-2022,9-42-7,86,depth_duration_stimuli/001011_2014-06-08_23-18-54_260595134347_rgbf000044-resize_4/001011_2014-06-08_23-18-54_260595134347_rgbf000044-resize_4-target.png,125,2.4730000000000003,5,1437,115,feet,jsons/VE125_randls_3_rotated.json,412954,551084,39,Man
86,159726,DepthScenes,duration_manipulation_targetAtFixation,jsons/VE125_randls_3_rotated.json,http://54.235.29.9/FacialAge/BNav_EC2/DepthDuration/v2_depth_duration_MTurk/v2_DepthDuration_HTML.html#32,32,919,886,1920,1080,8-21-2022,9-42-7,87,depth_duration_stimuli/000665_2014-06-09_20-42-35_260595134347_rgbf000110-resize_1/000665_2014-06-09_20-42-35_260595134347_rgbf000110-resize_1-target.png,125,3.057,9,1637,120,feet,jsons/VE125_randls_3_rotated.json,412954,551084,39,Man
87,159726,DepthScenes,duration_manipulation_targetAtFixation,jsons/VE125_randls_3_rotated.json,http://54.235.29.9/FacialAge/BNav_EC2/DepthDuration/v2_depth_duration_MTurk/v2_DepthDuration_HTML.html#32,32,919,886,1920,1080,8-21-2022,9-42-7,88,depth_duration_stimuli/001150_2014-06-17_15-27-34_260595134347_rgbf000108-resize_2/001150_2014-06-17_15-27-34_260595134347_rgbf000108-resize_2-target.png,125,4.0325,8,3153,136,feet,jsons/VE125_randls_3_rotated.json,412954,551084,39,Man
88,159726,DepthScenes,duration_manipulation_targetAtFixation,jsons/VE125_randls_3_rotated.json,http://54.235.29.9/FacialAge/BNav_EC2/DepthDuration/v2_depth_duration_MTurk/v2_DepthDuration_HTML.html#32,32,919,886,1920,1080,8-21-2022,9-42-7,89,depth_duration_stimuli/002545_2014-06-24_13-38-53_094959634447_rgbf000080-resize_4/002545_2014-06-24_13-38-53_094959634447_rgbf000080-resize_4-target.png,125,1.9205,5,1387,112,feet,jsons/VE125_randls_3_rotated.json,412954,551084,39,Man
89,159726,DepthScenes,duration_manipulation_targetAtFixation,jsons/VE125_randls_3_rotated.json,http://54.235.29.9/FacialAge/BNav_EC2/DepthDuration/v2_depth_duration_MTurk/v2_DepthDuration_HTML.html#32,32,919,886,1920,1080,8-21-2022,9-42-7,90,depth_duration_stimuli/001092_2014-06-15_17-34-58_260595134347_rgbf000171-resize_3/001092_2014-06-15_17-34-58_260595134347_rgbf000171-resize_3-target.png,125,2.6935,6,1453,152,feet,jsons/VE125_randls_3_rotated.json,412954,551084,39,Man
90,159726,DepthScenes,duration_manipulation_targetAtFixation,jsons/VE125_randls_3_rotated.json,http://54.235.29.9/FacialAge/BNav_EC2/DepthDuration/v2_depth_duration_MTurk/v2_DepthDuration_HTML.html#32,32,919,886,1920,1080,8-21-2022,9-42-7,91,depth_duration_stimuli/002467_2014-06-28_20-38-07_260595134347_rgbf000026-resize_2/002467_2014-06-28_20-38-07_260595134347_rgbf000026-resize_2-target.png,125,4.742,8,1398,130,feet,jsons/VE125_randls_3_rotated.json,412954,551084,39,Man
91,159726,DepthScenes,duration_manipulation_targetAtFixation,jsons/VE125_randls_3_rotated.json,http://54.235.29.9/FacialAge/BNav_EC2/DepthDuration/v2_depth_duration_MTurk/v2_DepthDuration_HTML.html#32,32,919,886,1920,1080,8-21-2022,9-42-7,92,depth_duration_stimuli/002570_2014-06-24_13-59-54_094959634447_rgbf000059-resize_0/002570_2014-06-24_13-59-54_094959634447_rgbf000059-resize_0-target.png,125,4.037,9,1377,125,feet,jsons/VE125_randls_3_rotated.json,412954,551084,39,Man
92,159726,DepthScenes,duration_manipulation_targetAtFixation,jsons/VE125_randls_3_rotated.json,http://54.235.29.9/FacialAge/BNav_EC2/DepthDuration/v2_depth_duration_MTurk/v2_DepthDuration_HTML.html#32,32,919,886,1920,1080,8-21-2022,9-42-7,93,depth_duration_stimuli/000409_2014-06-04_19-23-33_260595134347_rgbf000067-resize_0/000409_2014-06-04_19-23-33_260595134347_rgbf000067-resize_0-target.png,125,3.7335,10,1880,123,feet,jsons/VE125_randls_3_rotated.json,412954,551084,39,Man
93,159726,DepthScenes,duration_manipulation_targetAtFixation,jsons/VE125_randls_3_rotated.json,http://54.235.29.9/FacialAge/BNav_EC2/DepthDuration/v2_depth_duration_MTurk/v2_DepthDuration_HTML.html#32,32,919,886,1920,1080,8-21-2022,9-42-7,94,depth_duration_stimuli/002663_2014-06-13_15-50-26_094959634447_rgbf000075-resize_1/002663_2014-06-13_15-50-26_094959634447_rgbf000075-resize_1-target.png,125,4.7495,12,1472,114,feet,jsons/VE125_randls_3_rotated.json,412954,551084,39,Man
94,159726,DepthScenes,duration_manipulation_targetAtFixation,jsons/VE125_randls_3_rotated.json,http://54.235.29.9/FacialAge/BNav_EC2/DepthDuration/v2_depth_duration_MTurk/v2_DepthDuration_HTML.html#32,32,919,886,1920,1080,8-21-2022,9-42-7,95,depth_duration_stimuli/001032_2014-06-08_13-23-17_260595134347_rgbf000021-resize_3/001032_2014-06-08_13-23-17_260595134347_rgbf000021-resize_3-target.png,125,3.2725,6,1257,123,feet,jsons/VE125_randls_3_rotated.json,412954,551084,39,Man
95,159726,DepthScenes,duration_manipulation_targetAtFixation,jsons/VE125_randls_3_rotated.json,http://54.235.29.9/FacialAge/BNav_EC2/DepthDuration/v2_depth_duration_MTurk/v2_DepthDuration_HTML.html#32,32,919,886,1920,1080,8-21-2022,9-42-7,96,depth_duration_stimuli/001059_2014-06-08_21-53-27_260595134347_rgbf000061-resize_4/001059_2014-06-08_21-53-27_260595134347_rgbf000061-resize_4-target.png,125,2.4185,5,1346,124,feet,jsons/VE125_randls_3_rotated.json,412954,551084,39,Man
96,159726,DepthScenes,duration_manipulation_targetAtFixation,jsons/VE125_randls_3_rotated.json,http://54.235.29.9/FacialAge/BNav_EC2/DepthDuration/v2_depth_duration_MTurk/v2_DepthDuration_HTML.html#32,32,919,886,1920,1080,8-21-2022,9-42-7,97,depth_duration_stimuli/000109_2014-05-14_23-41-52_260595134347_rgbf000035-resize_9/000109_2014-05-14_23-41-52_260595134347_rgbf000035-resize_9-target.png,125,1.3545,3,1481,138,feet,jsons/VE125_randls_3_rotated.json,412954,551084,39,Man
97,159726,DepthScenes,duration_manipulation_targetAtFixation,jsons/VE125_randls_3_rotated.json,http://54.235.29.9/FacialAge/BNav_EC2/DepthDuration/v2_depth_duration_MTurk/v2_DepthDuration_HTML.html#32,32,919,886,1920,1080,8-21-2022,9-42-7,98,depth_duration_stimuli/000470_2014-06-09_19-42-40_260595134347_rgbf000094-resize_1/000470_2014-06-09_19-42-40_260595134347_rgbf000094-resize_1-target.png,125,1.831,2,1302,121,feet,jsons/VE125_randls_3_rotated.json,412954,551084,39,Man
98,159726,DepthScenes,duration_manipulation_targetAtFixation,jsons/VE125_randls_3_rotated.json,http://54.235.29.9/FacialAge/BNav_EC2/DepthDuration/v2_depth_duration_MTurk/v2_DepthDuration_HTML.html#32,32,919,886,1920,1080,8-21-2022,9-42-7,99,depth_duration_stimuli/001222_2014-06-17_16-24-06_260595134347_rgbf000073-resize_0/001222_2014-06-17_16-24-06_260595134347_rgbf000073-resize-original.jpg,125,1.4385,0,2544,121,feet,jsons/VE125_randls_3_rotated.json,412954,551084,39,Man
99,159726,DepthScenes,duration_manipulation_targetAtFixation,jsons/VE125_randls_3_rotated.json,http://54.235.29.9/FacialAge/BNav_EC2/DepthDuration/v2_depth_duration_MTurk/v2_DepthDuration_HTML.html#32,32,919,886,1920,1080,8-21-2022,9-42-7,100,depth_duration_stimuli/002568_2014-06-24_13-59-21_094959634447_rgbf000062-resize_4/002568_2014-06-24_13-59-21_094959634447_rgbf000062-resize_4-target.png,125,3.015,6,1441,115,feet,jsons/VE125_randls_3_rotated.json,412954,551084,39,Man
100,159726,DepthScenes,duration_manipulation_targetAtFixation,jsons/VE125_randls_3_rotated.json,http://54.235.29.9/FacialAge/BNav_EC2/DepthDuration/v2_depth_duration_MTurk/v2_DepthDuration_HTML.html#32,32,919,886,1920,1080,8-21-2022,9-42-7,101,depth_duration_stimuli/003492_2014-05-21_15-50-55_094959634447_rgbf000828-resize_1/003492_2014-05-21_15-50-55_094959634447_rgbf000828-resize_1-target.png,125,4.06875,8,1653,125,feet,jsons/VE125_randls_3_rotated.json,412954,551084,39,Man
101,159726,DepthScenes,duration_manipulation_targetAtFixation,jsons/VE125_randls_3_rotated.json,http://54.235.29.9/FacialAge/BNav_EC2/DepthDuration/v2_depth_duration_MTurk/v2_DepthDuration_HTML.html#32,32,919,886,1920,1080,8-21-2022,9-42-7,102,depth_duration_stimuli/001815_2014-06-26_20-52-55_260595134347_rgbf000020-resize_0/001815_2014-06-26_20-52-55_260595134347_rgbf000020-resize_0-target.png,125,3.3865,4,1557,110,feet,jsons/VE125_randls_3_rotated.json,412954,551084,39,Man
102,159726,DepthScenes,duration_manipulation_targetAtFixation,jsons/VE125_randls_3_rotated.json,http://54.235.29.9/FacialAge/BNav_EC2/DepthDuration/v2_depth_duration_MTurk/v2_DepthDuration_HTML.html#32,32,919,886,1920,1080,8-21-2022,9-42-7,103,depth_duration_stimuli/001808_2014-06-26_20-50-58_260595134347_rgbf000029-resize_1/001808_2014-06-26_20-50-58_260595134347_rgbf000029-resize_1-target.png,125,4.249,6,1374,123,feet,jsons/VE125_randls_3_rotated.json,412954,551084,39,Man
103,159726,DepthScenes,duration_manipulation_targetAtFixation,jsons/VE125_randls_3_rotated.json,http://54.235.29.9/FacialAge/BNav_EC2/DepthDuration/v2_depth_duration_MTurk/v2_DepthDuration_HTML.html#32,32,919,886,1920,1080,8-21-2022,9-42-7,104,depth_duration_stimuli/000556_2014-06-09_22-42-56_260595134347_rgbf000214-resize_1/000556_2014-06-09_22-42-56_260595134347_rgbf000214-resize_1-target.png,125,4.8415,7,1655,124,feet,jsons/VE125_randls_3_rotated.json,412954,551084,39,Man
104,159726,DepthScenes,duration_manipulation_targetAtFixation,jsons/VE125_randls_3_rotated.json,http://54.235.29.9/FacialAge/BNav_EC2/DepthDuration/v2_depth_duration_MTurk/v2_DepthDuration_HTML.html#32,32,919,886,1920,1080,8-21-2022,9-42-7,105,depth_duration_stimuli/001158_2014-06-17_15-32-16_260595134347_rgbf000138-resize_2/001158_2014-06-17_15-32-16_260595134347_rgbf000138-resize_2-target.png,125,4.5315,12,1399,123,feet,jsons/VE125_randls_3_rotated.json,412954,551084,39,Man
105,159726,DepthScenes,duration_manipulation_targetAtFixation,jsons/VE125_randls_3_rotated.json,http://54.235.29.9/FacialAge/BNav_EC2/DepthDuration/v2_depth_duration_MTurk/v2_DepthDuration_HTML.html#32,32,919,886,1920,1080,8-21-2022,9-42-7,106,depth_duration_stimuli/001094_2014-06-15_17-36-00_260595134347_rgbf000205-resize_0/001094_2014-06-15_17-36-00_260595134347_rgbf000205-resize_0-target.png,125,4.2175,10,1544,124,feet,jsons/VE125_randls_3_rotated.json,412954,551084,39,Man
106,159726,DepthScenes,duration_manipulation_targetAtFixation,jsons/VE125_randls_3_rotated.json,http://54.235.29.9/FacialAge/BNav_EC2/DepthDuration/v2_depth_duration_MTurk/v2_DepthDuration_HTML.html#32,32,919,886,1920,1080,8-21-2022,9-42-7,107,depth_duration_stimuli/000692_2014-06-08_13-09-42_260595134347_rgbf000199-resize_2/000692_2014-06-08_13-09-42_260595134347_rgbf000199-resize_2-target.png,125,3.661,12,1355,135,feet,jsons/VE125_randls_3_rotated.json,412954,551084,39,Man
107,159726,DepthScenes,duration_manipulation_targetAtFixation,jsons/VE125_randls_3_rotated.json,http://54.235.29.9/FacialAge/BNav_EC2/DepthDuration/v2_depth_duration_MTurk/v2_DepthDuration_HTML.html#32,32,919,886,1920,1080,8-21-2022,9-42-7,108,depth_duration_stimuli/000742_2014-06-08_18-48-09_260595134347_rgbf000164-resize_4/000742_2014-06-08_18-48-09_260595134347_rgbf000164-resize_4-target.png,125,4.632,8,1282,124,feet,jsons/VE125_randls_3_rotated.json,412954,551084,39,Man
108,159726,DepthScenes,duration_manipulation_targetAtFixation,jsons/VE125_randls_3_rotated.json,http://54.235.29.9/FacialAge/BNav_EC2/DepthDuration/v2_depth_duration_MTurk/v2_DepthDuration_HTML.html#32,32,919,886,1920,1080,8-21-2022,9-42-7,109,depth_duration_stimuli/001066_2014-06-08_22-03-20_260595134347_rgbf000066-resize_4/001066_2014-06-08_22-03-20_260595134347_rgbf000066-resize_4-target.png,125,4.2330000000000005,10,4232,126,feet,jsons/VE125_randls_3_rotated.json,412954,551084,39,Man
109,159726,DepthScenes,duration_manipulation_targetAtFixation,jsons/VE125_randls_3_rotated.json,http://54.235.29.9/FacialAge/BNav_EC2/DepthDuration/v2_depth_duration_MTurk/v2_DepthDuration_HTML.html#32,32,919,886,1920,1080,8-21-2022,9-42-7,110,depth_duration_stimuli/000854_2014-06-09_19-43-13_260595134347_rgbf000066-resize_0/000854_2014-06-09_19-43-13_260595134347_rgbf000066-resize_0-target.png,125,3.068,7,1355,122,feet,jsons/VE125_randls_3_rotated.json,412954,551084,39,Man
110,159726,DepthScenes,duration_manipulation_targetAtFixation,jsons/VE125_randls_3_rotated.json,http://54.235.29.9/FacialAge/BNav_EC2/DepthDuration/v2_depth_duration_MTurk/v2_DepthDuration_HTML.html#32,32,919,886,1920,1080,8-21-2022,9-42-7,111,depth_duration_stimuli/000758_2014-06-08_22-05-08_260595134347_rgbf000085-resize_0/000758_2014-06-08_22-05-08_260595134347_rgbf000085-resize_0-target.png,125,3.3810000000000002,10,1308,118,feet,jsons/VE125_randls_3_rotated.json,412954,551084,39,Man
111,159726,DepthScenes,duration_manipulation_targetAtFixation,jsons/VE125_randls_3_rotated.json,http://54.235.29.9/FacialAge/BNav_EC2/DepthDuration/v2_depth_duration_MTurk/v2_DepthDuration_HTML.html#32,32,919,886,1920,1080,8-21-2022,9-42-7,112,depth_duration_stimuli/000866_2014-06-09_20-45-42_260595134347_rgbf000139-resize_1/000866_2014-06-09_20-45-42_260595134347_rgbf000139-resize_1-target.png,125,3.2155,0,5457,126,feet,jsons/VE125_randls_3_rotated.json,412954,551084,39,Man
112,159726,DepthScenes,duration_manipulation_targetAtFixation,jsons/VE125_randls_3_rotated.json,http://54.235.29.9/FacialAge/BNav_EC2/DepthDuration/v2_depth_duration_MTurk/v2_DepthDuration_HTML.html#32,32,919,886,1920,1080,8-21-2022,9-42-7,113,depth_duration_stimuli/002989_2014-06-15_12-25-03_094959634447_rgbf000150-resize_3/002989_2014-06-15_12-25-03_094959634447_rgbf000150-resize_3-target.png,125,4.1975,10,1510,130,feet,jsons/VE125_randls_3_rotated.json,412954,551084,39,Man
113,159726,DepthScenes,duration_manipulation_targetAtFixation,jsons/VE125_randls_3_rotated.json,http://54.235.29.9/FacialAge/BNav_EC2/DepthDuration/v2_depth_duration_MTurk/v2_DepthDuration_HTML.html#32,32,919,886,1920,1080,8-21-2022,9-42-7,114,depth_duration_stimuli/002805_2014-06-22_19-54-03_094959634447_rgbf000079-resize_1/002805_2014-06-22_19-54-03_094959634447_rgbf000079-resize_1-target.png,125,3.1439999999999997,12,1628,132,feet,jsons/VE125_randls_3_rotated.json,412954,551084,39,Man
114,159726,DepthScenes,duration_manipulation_targetAtFixation,jsons/VE125_randls_3_rotated.json,http://54.235.29.9/FacialAge/BNav_EC2/DepthDuration/v2_depth_duration_MTurk/v2_DepthDuration_HTML.html#32,32,919,886,1920,1080,8-21-2022,9-42-7,115,depth_duration_stimuli/000906_2014-06-08_13-35-43_260595134347_rgbf000155-resize_1/000906_2014-06-08_13-35-43_260595134347_rgbf000155-resize_1-target.png,125,2.8489999999999998,10,1220,126,feet,jsons/VE125_randls_3_rotated.json,412954,551084,39,Man
115,159726,DepthScenes,duration_manipulation_targetAtFixation,jsons/VE125_randls_3_rotated.json,http://54.235.29.9/FacialAge/BNav_EC2/DepthDuration/v2_depth_duration_MTurk/v2_DepthDuration_HTML.html#32,32,919,886,1920,1080,8-21-2022,9-42-7,116,depth_duration_stimuli/000483_2014-06-09_20-41-45_260595134347_rgbf000116-resize_4/000483_2014-06-09_20-41-45_260595134347_rgbf000116-resize_4-target.png,125,1.337,2,2397,127,feet,jsons/VE125_randls_3_rotated.json,412954,551084,39,Man
116,159726,DepthScenes,duration_manipulation_targetAtFixation,jsons/VE125_randls_3_rotated.json,http://54.235.29.9/FacialAge/BNav_EC2/DepthDuration/v2_depth_duration_MTurk/v2_DepthDuration_HTML.html#32,32,919,886,1920,1080,8-21-2022,9-42-7,117,depth_duration_stimuli/000469_2014-06-09_19-42-10_260595134347_rgbf000081-resize_1/000469_2014-06-09_19-42-10_260595134347_rgbf000081-resize_1-target.png,125,1.652,3,1847,122,feet,jsons/VE125_randls_3_rotated.json,412954,551084,39,Man
117,159726,DepthScenes,duration_manipulation_targetAtFixation,jsons/VE125_randls_3_rotated.json,http://54.235.29.9/FacialAge/BNav_EC2/DepthDuration/v2_depth_duration_MTurk/v2_DepthDuration_HTML.html#32,32,919,886,1920,1080,8-21-2022,9-42-7,118,depth_duration_stimuli/003423_2014-05-21_10-23-26_094959634447_rgbf002665-resize_2/003423_2014-05-21_10-23-26_094959634447_rgbf002665-resize_2-target.png,125,3.2575,10,1353,115,feet,jsons/VE125_randls_3_rotated.json,412954,551084,39,Man
118,159726,DepthScenes,duration_manipulation_targetAtFixation,jsons/VE125_randls_3_rotated.json,http://54.235.29.9/FacialAge/BNav_EC2/DepthDuration/v2_depth_duration_MTurk/v2_DepthDuration_HTML.html#32,32,919,886,1920,1080,8-21-2022,9-42-7,119,depth_duration_stimuli/002905_2014-06-03_18-04-43_094959634447_rgbf000151-resize_2/002905_2014-06-03_18-04-43_094959634447_rgbf000151-resize_2-target.png,125,2.0295,5,1390,115,feet,jsons/VE125_randls_3_rotated.json,412954,551084,39,Man
119,159726,DepthScenes,duration_manipulation_targetAtFixation,jsons/VE125_randls_3_rotated.json,http://54.235.29.9/FacialAge/BNav_EC2/DepthDuration/v2_depth_duration_MTurk/v2_DepthDuration_HTML.html#32,32,919,886,1920,1080,8-21-2022,9-42-7,120,depth_duration_stimuli/000787_2014-06-08_22-33-53_260595134347_rgbf000175-resize_1/000787_2014-06-08_22-33-53_260595134347_rgbf000175-resize-original.jpg,125,4.784,0,1606,112,feet,jsons/VE125_randls_3_rotated.json,412954,551084,39,Man
120,159726,DepthScenes,duration_manipulation_targetAtFixation,jsons/VE125_randls_3_rotated.json,http://54.235.29.9/FacialAge/BNav_EC2/DepthDuration/v2_depth_duration_MTurk/v2_DepthDuration_HTML.html#32,32,919,886,1920,1080,8-21-2022,9-42-7,121,depth_duration_stimuli/003228_2014-05-14_13-42-35_094959634447_rgbf000101-resize_1/003228_2014-05-14_13-42-35_094959634447_rgbf000101-resize_1-target.png,125,1.9680000000000002,3,1422,124,feet,jsons/VE125_randls_3_rotated.json,412954,551084,39,Man
121,159726,DepthScenes,duration_manipulation_targetAtFixation,jsons/VE125_randls_3_rotated.json,http://54.235.29.9/FacialAge/BNav_EC2/DepthDuration/v2_depth_duration_MTurk/v2_DepthDuration_HTML.html#32,32,919,886,1920,1080,8-21-2022,9-42-7,122,depth_duration_stimuli/002600_2014-06-24_14-27-04_094959634447_rgbf000074-resize_2/002600_2014-06-24_14-27-04_094959634447_rgbf000074-resize_2-target.png,125,2.7575,8,2106,118,feet,jsons/VE125_randls_3_rotated.json,412954,551084,39,Man
122,159726,DepthScenes,duration_manipulation_targetAtFixation,jsons/VE125_randls_3_rotated.json,http://54.235.29.9/FacialAge/BNav_EC2/DepthDuration/v2_depth_duration_MTurk/v2_DepthDuration_HTML.html#32,32,919,886,1920,1080,8-21-2022,9-42-7,123,depth_duration_stimuli/003010_2014-06-15_12-54-35_094959634447_rgbf000112-resize_0/003010_2014-06-15_12-54-35_094959634447_rgbf000112-resize_0-target.png,125,3.1185,10,1446,124,feet,jsons/VE125_randls_3_rotated.json,412954,551084,39,Man
123,159726,DepthScenes,duration_manipulation_targetAtFixation,jsons/VE125_randls_3_rotated.json,http://54.235.29.9/FacialAge/BNav_EC2/DepthDuration/v2_depth_duration_MTurk/v2_DepthDuration_HTML.html#32,32,919,886,1920,1080,8-21-2022,9-42-7,124,depth_duration_stimuli/001810_2014-06-26_20-51-35_260595134347_rgbf000040-resize_3/001810_2014-06-26_20-51-35_260595134347_rgbf000040-resize_3-target.png,125,2.2525,6,1462,122,feet,jsons/VE125_randls_3_rotated.json,412954,551084,39,Man
124,159726,DepthScenes,duration_manipulation_targetAtFixation,jsons/VE125_randls_3_rotated.json,http://54.235.29.9/FacialAge/BNav_EC2/DepthDuration/v2_depth_duration_MTurk/v2_DepthDuration_HTML.html#32,32,919,886,1920,1080,8-21-2022,9-42-7,125,depth_duration_stimuli/001617_2014-06-20_11-35-32_260595134347_rgbf000066-resize_1/001617_2014-06-20_11-35-32_260595134347_rgbf000066-resize_1-target.png,125,3.7910000000000004,10,1448,124,feet,jsons/VE125_randls_3_rotated.json,412954,551084,39,Man
125,159726,DepthScenes,duration_manipulation_targetAtFixation,jsons/VE125_randls_3_rotated.json,http://54.235.29.9/FacialAge/BNav_EC2/DepthDuration/v2_depth_duration_MTurk/v2_DepthDuration_HTML.html#32,32,919,886,1920,1080,8-21-2022,9-42-7,126,depth_duration_stimuli/001806_2014-06-26_20-50-20_260595134347_rgbf000091-resize_1/001806_2014-06-26_20-50-20_260595134347_rgbf000091-resize_1-target.png,125,2.7305,5,1297,125,feet,jsons/VE125_randls_3_rotated.json,412954,551084,39,Man
126,159726,DepthScenes,duration_manipulation_targetAtFixation,jsons/VE125_randls_3_rotated.json,http://54.235.29.9/FacialAge/BNav_EC2/DepthDuration/v2_depth_duration_MTurk/v2_DepthDuration_HTML.html#32,32,919,886,1920,1080,8-21-2022,9-42-7,127,depth_duration_stimuli/003048_2014-06-15_13-49-43_094959634447_rgbf000150-resize_1/003048_2014-06-15_13-49-43_094959634447_rgbf000150-resize_1-target.png,125,4.0035,10,1372,117,feet,jsons/VE125_randls_3_rotated.json,412954,551084,39,Man
127,159726,DepthScenes,duration_manipulation_targetAtFixation,jsons/VE125_randls_3_rotated.json,http://54.235.29.9/FacialAge/BNav_EC2/DepthDuration/v2_depth_duration_MTurk/v2_DepthDuration_HTML.html#32,32,919,886,1920,1080,8-21-2022,9-42-7,128,depth_duration_stimuli/002043_2014-06-24_20-29-38_260595134347_rgbf000039-resize_4/002043_2014-06-24_20-29-38_260595134347_rgbf000039-resize_4-target.png,125,2.8435,6,1591,126,feet,jsons/VE125_randls_3_rotated.json,412954,551084,39,Man
128,159726,DepthScenes,duration_manipulation_targetAtFixation,jsons/VE125_randls_3_rotated.json,http://54.235.29.9/FacialAge/BNav_EC2/DepthDuration/v2_depth_duration_MTurk/v2_DepthDuration_HTML.html#32,32,919,886,1920,1080,8-21-2022,9-42-7,129,depth_duration_stimuli/003129_2014-05-12_10-48-10_094959634447_rgbf000100-resize_0/003129_2014-05-12_10-48-10_094959634447_rgbf000100-resize_0-target.png,125,4.9305,12,1385,115,feet,jsons/VE125_randls_3_rotated.json,412954,551084,39,Man
129,159726,DepthScenes,duration_manipulation_targetAtFixation,jsons/VE125_randls_3_rotated.json,http://54.235.29.9/FacialAge/BNav_EC2/DepthDuration/v2_depth_duration_MTurk/v2_DepthDuration_HTML.html#32,32,919,886,1920,1080,8-21-2022,9-42-7,130,depth_duration_stimuli/000414_2014-06-04_19-49-13_260595134347_rgbf000044-resize_0/000414_2014-06-04_19-49-13_260595134347_rgbf000044-resize_0-target.png,125,4.329,12,1649,123,feet,jsons/VE125_randls_3_rotated.json,412954,551084,39,Man
130,159726,DepthScenes,duration_manipulation_targetAtFixation,jsons/VE125_randls_3_rotated.json,http://54.235.29.9/FacialAge/BNav_EC2/DepthDuration/v2_depth_duration_MTurk/v2_DepthDuration_HTML.html#32,32,919,886,1920,1080,8-21-2022,9-42-7,131,depth_duration_stimuli/002199_2014-06-28_18-33-56_260595134347_rgbf000074-resize_0/002199_2014-06-28_18-33-56_260595134347_rgbf000074-resize_0-target.png,125,1.996,3,1385,124,feet,jsons/VE125_randls_3_rotated.json,412954,551084,39,Man
131,159726,DepthScenes,duration_manipulation_targetAtFixation,jsons/VE125_randls_3_rotated.json,http://54.235.29.9/FacialAge/BNav_EC2/DepthDuration/v2_depth_duration_MTurk/v2_DepthDuration_HTML.html#32,32,919,886,1920,1080,8-21-2022,9-42-7,132,depth_duration_stimuli/001056_2014-06-08_18-46-44_260595134347_rgbf000068-resize_0/001056_2014-06-08_18-46-44_260595134347_rgbf000068-resize_0-target.png,125,2.6625,10,1500,123,feet,jsons/VE125_randls_3_rotated.json,412954,551084,39,Man
132,159726,DepthScenes,duration_manipulation_targetAtFixation,jsons/VE125_randls_3_rotated.json,http://54.235.29.9/FacialAge/BNav_EC2/DepthDuration/v2_depth_duration_MTurk/v2_DepthDuration_HTML.html#32,32,919,886,1920,1080,8-21-2022,9-42-7,133,depth_duration_stimuli/001828_2014-06-26_21-40-03_260595134347_rgbf000024-resize_0/001828_2014-06-26_21-40-03_260595134347_rgbf000024-resize_0-target.png,125,4.8260000000000005,7,1779,122,feet,jsons/VE125_randls_3_rotated.json,412954,551084,39,Man
133,159726,DepthScenes,duration_manipulation_targetAtFixation,jsons/VE125_randls_3_rotated.json,http://54.235.29.9/FacialAge/BNav_EC2/DepthDuration/v2_depth_duration_MTurk/v2_DepthDuration_HTML.html#32,32,919,886,1920,1080,8-21-2022,9-42-7,134,depth_duration_stimuli/000009_2014-05-26_14-32-05_260595134347_rgbf000034-resize_3/000009_2014-05-26_14-32-05_260595134347_rgbf000034-resize_3-target.png,125,3.8715,12,1582,125,feet,jsons/VE125_randls_3_rotated.json,412954,551084,39,Man
134,159726,DepthScenes,duration_manipulation_targetAtFixation,jsons/VE125_randls_3_rotated.json,http://54.235.29.9/FacialAge/BNav_EC2/DepthDuration/v2_depth_duration_MTurk/v2_DepthDuration_HTML.html#32,32,919,886,1920,1080,8-21-2022,9-42-7,135,depth_duration_stimuli/000375_2014-06-08_11-17-29_260595134347_rgbf000133-resize_2/000375_2014-06-08_11-17-29_260595134347_rgbf000133-resize-original.jpg,125,4.718,0,1279,122,feet,jsons/VE125_randls_3_rotated.json,412954,551084,39,Man
135,159726,DepthScenes,duration_manipulation_targetAtFixation,jsons/VE125_randls_3_rotated.json,http://54.235.29.9/FacialAge/BNav_EC2/DepthDuration/v2_depth_duration_MTurk/v2_DepthDuration_HTML.html#32,32,919,886,1920,1080,8-21-2022,9-42-7,136,depth_duration_stimuli/001450_2014-06-19_17-02-03_260595134347_rgbf000203-resize_4/001450_2014-06-19_17-02-03_260595134347_rgbf000203-resize_4-target.png,125,4.0106666666667,12,1932,123,feet,jsons/VE125_randls_3_rotated.json,412954,551084,39,Man
136,159726,DepthScenes,duration_manipulation_targetAtFixation,jsons/VE125_randls_3_rotated.json,http://54.235.29.9/FacialAge/BNav_EC2/DepthDuration/v2_depth_duration_MTurk/v2_DepthDuration_HTML.html#32,32,919,886,1920,1080,8-21-2022,9-42-7,137,depth_duration_stimuli/001449_2014-06-19_17-01-27_260595134347_rgbf000116-resize_2/001449_2014-06-19_17-01-27_260595134347_rgbf000116-resize_2-target.png,125,3.452,6,1972,124,feet,jsons/VE125_randls_3_rotated.json,412954,551084,39,Man
137,159726,DepthScenes,duration_manipulation_targetAtFixation,jsons/VE125_randls_3_rotated.json,http://54.235.29.9/FacialAge/BNav_EC2/DepthDuration/v2_depth_duration_MTurk/v2_DepthDuration_HTML.html#32,32,919,886,1920,1080,8-21-2022,9-42-7,138,depth_duration_stimuli/000137_2014-05-20_17-04-49_260595134347_rgbf000120-resize_1/000137_2014-05-20_17-04-49_260595134347_rgbf000120-resize_1-target.png,125,3.786,8,1414,124,feet,jsons/VE125_randls_3_rotated.json,412954,551084,39,Man
138,159726,DepthScenes,duration_manipulation_targetAtFixation,jsons/VE125_randls_3_rotated.json,http://54.235.29.9/FacialAge/BNav_EC2/DepthDuration/v2_depth_duration_MTurk/v2_DepthDuration_HTML.html#32,32,919,886,1920,1080,8-21-2022,9-42-7,139,depth_duration_stimuli/000736_2014-06-08_18-24-15_260595134347_rgbf000206-resize_3/000736_2014-06-08_18-24-15_260595134347_rgbf000206-resize_3-target.png,125,3.515,6,1306,124,feet,jsons/VE125_randls_3_rotated.json,412954,551084,39,Man
139,159726,DepthScenes,duration_manipulation_targetAtFixation,jsons/VE125_randls_3_rotated.json,http://54.235.29.9/FacialAge/BNav_EC2/DepthDuration/v2_depth_duration_MTurk/v2_DepthDuration_HTML.html#32,32,919,886,1920,1080,8-21-2022,9-42-7,140,depth_duration_stimuli/000709_2014-06-08_13-51-55_260595134347_rgbf000068-resize_3/000709_2014-06-08_13-51-55_260595134347_rgbf000068-resize_3-target.png,125,1.8030000000000002,4,1640,114,feet,jsons/VE125_randls_3_rotated.json,412954,551084,39,Man
140,159726,DepthScenes,duration_manipulation_targetAtFixation,jsons/VE125_randls_3_rotated.json,http://54.235.29.9/FacialAge/BNav_EC2/DepthDuration/v2_depth_duration_MTurk/v2_DepthDuration_HTML.html#32,32,919,886,1920,1080,8-21-2022,9-42-7,141,depth_duration_stimuli/002057_2014-06-24_21-00-13_260595134347_rgbf000120-resize_1/002057_2014-06-24_21-00-13_260595134347_rgbf000120-resize_1-target.png,125,2.967,10,1272,115,feet,jsons/VE125_randls_3_rotated.json,412954,551084,39,Man
141,159726,DepthScenes,duration_manipulation_targetAtFixation,jsons/VE125_randls_3_rotated.json,http://54.235.29.9/FacialAge/BNav_EC2/DepthDuration/v2_depth_duration_MTurk/v2_DepthDuration_HTML.html#32,32,919,886,1920,1080,8-21-2022,9-42-7,142,depth_duration_stimuli/001571_2014-06-20_17-21-32_260595134347_rgbf000089-resize_1/001571_2014-06-20_17-21-32_260595134347_rgbf000089-resize_1-target.png,125,1.86,4,1323,118,feet,jsons/VE125_randls_3_rotated.json,412954,551084,39,Man
142,159726,DepthScenes,duration_manipulation_targetAtFixation,jsons/VE125_randls_3_rotated.json,http://54.235.29.9/FacialAge/BNav_EC2/DepthDuration/v2_depth_duration_MTurk/v2_DepthDuration_HTML.html#32,32,919,886,1920,1080,8-21-2022,9-42-7,143,depth_duration_stimuli/002272_2014-06-28_18-53-56_260595134347_rgbf000067-resize_2/002272_2014-06-28_18-53-56_260595134347_rgbf000067-resize_2-target.png,125,1.138,3,1818,116,feet,jsons/VE125_randls_3_rotated.json,412954,551084,39,Man
143,159726,DepthScenes,duration_manipulation_targetAtFixation,jsons/VE125_randls_3_rotated.json,http://54.235.29.9/FacialAge/BNav_EC2/DepthDuration/v2_depth_duration_MTurk/v2_DepthDuration_HTML.html#32,32,919,886,1920,1080,8-21-2022,9-42-7,144,depth_duration_stimuli/001235_2014-06-17_16-37-36_260595134347_rgbf000084-resize_4/001235_2014-06-17_16-37-36_260595134347_rgbf000084-resize_4-target.png,125,3.6605,5,2469,126,feet,jsons/VE125_randls_3_rotated.json,412954,551084,39,Man
144,159726,DepthScenes,duration_manipulation_targetAtFixation,jsons/VE125_randls_3_rotated.json,http://54.235.29.9/FacialAge/BNav_EC2/DepthDuration/v2_depth_duration_MTurk/v2_DepthDuration_HTML.html#32,32,919,886,1920,1080,8-21-2022,9-42-7,145,depth_duration_stimuli/000788_2014-06-08_22-34-36_260595134347_rgbf000131-resize_1/000788_2014-06-08_22-34-36_260595134347_rgbf000131-resize_1-target.png,125,3.359,9,2016,131,feet,jsons/VE125_randls_3_rotated.json,412954,551084,39,Man
145,159726,DepthScenes,duration_manipulation_targetAtFixation,jsons/VE125_randls_3_rotated.json,http://54.235.29.9/FacialAge/BNav_EC2/DepthDuration/v2_depth_duration_MTurk/v2_DepthDuration_HTML.html#32,32,919,886,1920,1080,8-21-2022,9-42-7,146,depth_duration_stimuli/002660_2014-06-13_15-44-18_094959634447_rgbf001878-resize_2/002660_2014-06-13_15-44-18_094959634447_rgbf001878-resize_2-target.png,125,3.576,8,1444,137,feet,jsons/VE125_randls_3_rotated.json,412954,551084,39,Man
146,159726,DepthScenes,duration_manipulation_targetAtFixation,jsons/VE125_randls_3_rotated.json,http://54.235.29.9/FacialAge/BNav_EC2/DepthDuration/v2_depth_duration_MTurk/v2_DepthDuration_HTML.html#32,32,919,886,1920,1080,8-21-2022,9-42-7,147,depth_duration_stimuli/002153_2014-06-25_21-27-18_260595134347_rgbf000038-resize_5/002153_2014-06-25_21-27-18_260595134347_rgbf000038-resize_5-target.png,125,2.505,6,1281,130,feet,jsons/VE125_randls_3_rotated.json,412954,551084,39,Man
147,159726,DepthScenes,duration_manipulation_targetAtFixation,jsons/VE125_randls_3_rotated.json,http://54.235.29.9/FacialAge/BNav_EC2/DepthDuration/v2_depth_duration_MTurk/v2_DepthDuration_HTML.html#32,32,919,886,1920,1080,8-21-2022,9-42-7,148,depth_duration_stimuli/002414_2014-06-28_20-24-58_260595134347_rgbf000067-resize_4/002414_2014-06-28_20-24-58_260595134347_rgbf000067-resize_4-target.png,125,4.363,10,2344,121,feet,jsons/VE125_randls_3_rotated.json,412954,551084,39,Man
148,159726,DepthScenes,duration_manipulation_targetAtFixation,jsons/VE125_randls_3_rotated.json,http://54.235.29.9/FacialAge/BNav_EC2/DepthDuration/v2_depth_duration_MTurk/v2_DepthDuration_HTML.html#32,32,919,886,1920,1080,8-21-2022,9-42-7,149,depth_duration_stimuli/000773_2014-06-08_22-24-54_260595134347_rgbf000093-resize_1/000773_2014-06-08_22-24-54_260595134347_rgbf000093-resize_1-target.png,125,4.973,13,1942,116,feet,jsons/VE125_randls_3_rotated.json,412954,551084,39,Man
149,159726,DepthScenes,duration_manipulation_targetAtFixation,jsons/VE125_randls_3_rotated.json,http://54.235.29.9/FacialAge/BNav_EC2/DepthDuration/v2_depth_duration_MTurk/v2_DepthDuration_HTML.html#32,32,919,886,1920,1080,8-21-2022,9-42-7,150,depth_duration_stimuli/002637_2014-06-24_14-51-13_094959634447_rgbf000066-resize_4/002637_2014-06-24_14-51-13_094959634447_rgbf000066-resize_4-target.png,125,1.9955,6,1439,131,feet,jsons/VE125_randls_3_rotated.json,412954,551084,39,Man
150,159726,DepthScenes,duration_manipulation_targetAtFixation,jsons/VE125_randls_3_rotated.json,http://54.235.29.9/FacialAge/BNav_EC2/DepthDuration/v2_depth_duration_MTurk/v2_DepthDuration_HTML.html#32,32,919,886,1920,1080,8-21-2022,9-42-7,151,depth_duration_stimuli/003534_2014-05-22_15-06-10_094959634447_rgbf000102-resize_4/003534_2014-05-22_15-06-10_094959634447_rgbf000102-resize_4-target.png,125,1.426,5,1532,124,feet,jsons/VE125_randls_3_rotated.json,412954,551084,39,Man
151,159726,DepthScenes,duration_manipulation_targetAtFixation,jsons/VE125_randls_3_rotated.json,http://54.235.29.9/FacialAge/BNav_EC2/DepthDuration/v2_depth_duration_MTurk/v2_DepthDuration_HTML.html#32,32,919,886,1920,1080,8-21-2022,9-42-7,152,depth_duration_stimuli/000569_2014-06-09_22-51-47_260595134347_rgbf000141-resize_3/000569_2014-06-09_22-51-47_260595134347_rgbf000141-resize-original.jpg,125,4.512,0,1357,126,feet,jsons/VE125_randls_3_rotated.json,412954,551084,39,Man
152,159726,DepthScenes,duration_manipulation_targetAtFixation,jsons/VE125_randls_3_rotated.json,http://54.235.29.9/FacialAge/BNav_EC2/DepthDuration/v2_depth_duration_MTurk/v2_DepthDuration_HTML.html#32,32,919,886,1920,1080,8-21-2022,9-42-7,153,depth_duration_stimuli/000749_2014-06-08_21-55-06_260595134347_rgbf000070-resize_2/000749_2014-06-08_21-55-06_260595134347_rgbf000070-resize_2-target.png,125,2.331,5,1792,125,feet,jsons/VE125_randls_3_rotated.json,412954,551084,39,Man
153,159726,DepthScenes,duration_manipulation_targetAtFixation,jsons/VE125_randls_3_rotated.json,http://54.235.29.9/FacialAge/BNav_EC2/DepthDuration/v2_depth_duration_MTurk/v2_DepthDuration_HTML.html#32,32,919,886,1920,1080,8-21-2022,9-42-7,154,depth_duration_stimuli/002788_2014-06-22_19-36-03_094959634447_rgbf000088-resize_2/002788_2014-06-22_19-36-03_094959634447_rgbf000088-resize_2-target.png,125,1.6465,8,1634,124,feet,jsons/VE125_randls_3_rotated.json,412954,551084,39,Man
154,159726,DepthScenes,duration_manipulation_targetAtFixation,jsons/VE125_randls_3_rotated.json,http://54.235.29.9/FacialAge/BNav_EC2/DepthDuration/v2_depth_duration_MTurk/v2_DepthDuration_HTML.html#32,32,919,886,1920,1080,8-21-2022,9-42-7,155,depth_duration_stimuli/000549_2014-06-08_22-10-24_260595134347_rgbf000247-resize_3/000549_2014-06-08_22-10-24_260595134347_rgbf000247-resize_3-target.png,125,1.841,4,1467,128,feet,jsons/VE125_randls_3_rotated.json,412954,551084,39,Man
155,159726,DepthScenes,duration_manipulation_targetAtFixation,jsons/VE125_randls_3_rotated.json,http://54.235.29.9/FacialAge/BNav_EC2/DepthDuration/v2_depth_duration_MTurk/v2_DepthDuration_HTML.html#32,32,919,886,1920,1080,8-21-2022,9-42-7,156,depth_duration_stimuli/001055_2014-06-08_18-45-35_260595134347_rgbf000111-resize_4/001055_2014-06-08_18-45-35_260595134347_rgbf000111-resize_4-target.png,125,2.4290000000000003,6,1434,121,feet,jsons/VE125_randls_3_rotated.json,412954,551084,39,Man
156,159726,DepthScenes,duration_manipulation_targetAtFixation,jsons/VE125_randls_3_rotated.json,http://54.235.29.9/FacialAge/BNav_EC2/DepthDuration/v2_depth_duration_MTurk/v2_DepthDuration_HTML.html#32,32,919,886,1920,1080,8-21-2022,9-42-7,157,depth_duration_stimuli/001100_2014-06-15_17-46-26_260595134347_rgbf000225-resize_2/001100_2014-06-15_17-46-26_260595134347_rgbf000225-resize_2-target.png,125,2.24,5,1422,123,feet,jsons/VE125_randls_3_rotated.json,412954,551084,39,Man
157,159726,DepthScenes,duration_manipulation_targetAtFixation,jsons/VE125_randls_3_rotated.json,http://54.235.29.9/FacialAge/BNav_EC2/DepthDuration/v2_depth_duration_MTurk/v2_DepthDuration_HTML.html#32,32,919,886,1920,1080,8-21-2022,9-42-7,158,depth_duration_stimuli/002784_2014-06-22_19-26-30_094959634447_rgbf000083-resize_3/002784_2014-06-22_19-26-30_094959634447_rgbf000083-resize_3-target.png,125,1.8046666666667,8,2276,115,feet,jsons/VE125_randls_3_rotated.json,412954,551084,39,Man
158,159726,DepthScenes,duration_manipulation_targetAtFixation,jsons/VE125_randls_3_rotated.json,http://54.235.29.9/FacialAge/BNav_EC2/DepthDuration/v2_depth_duration_MTurk/v2_DepthDuration_HTML.html#32,32,919,886,1920,1080,8-21-2022,9-42-7,159,depth_duration_stimuli/003587_2014-05-23_16-48-02_094959634447_rgbf002384-resize_2/003587_2014-05-23_16-48-02_094959634447_rgbf002384-resize_2-target.png,125,1.357,6,1337,125,feet,jsons/VE125_randls_3_rotated.json,412954,551084,39,Man
159,159726,DepthScenes,duration_manipulation_targetAtFixation,jsons/VE125_randls_3_rotated.json,http://54.235.29.9/FacialAge/BNav_EC2/DepthDuration/v2_depth_duration_MTurk/v2_DepthDuration_HTML.html#32,32,919,886,1920,1080,8-21-2022,9-42-7,160,depth_duration_stimuli/001167_2014-06-17_15-38-07_260595134347_rgbf000108-resize_0/001167_2014-06-17_15-38-07_260595134347_rgbf000108-resize_0-target.png,125,1.8505,4,1978,123,feet,jsons/VE125_randls_3_rotated.json,412954,551084,39,Man
160,159726,DepthScenes,duration_manipulation_targetAtFixation,jsons/VE125_randls_3_rotated.json,http://54.235.29.9/FacialAge/BNav_EC2/DepthDuration/v2_depth_duration_MTurk/v2_DepthDuration_HTML.html#32,32,919,886,1920,1080,8-21-2022,9-42-7,161,depth_duration_stimuli/000780_2014-06-08_22-28-29_260595134347_rgbf000126-resize_1/000780_2014-06-08_22-28-29_260595134347_rgbf000126-resize_1-target.png,125,3.3825,12,1434,115,feet,jsons/VE125_randls_3_rotated.json,412954,551084,39,Man
161,159726,DepthScenes,duration_manipulation_targetAtFixation,jsons/VE125_randls_3_rotated.json,http://54.235.29.9/FacialAge/BNav_EC2/DepthDuration/v2_depth_duration_MTurk/v2_DepthDuration_HTML.html#32,32,919,886,1920,1080,8-21-2022,9-42-7,162,depth_duration_stimuli/002445_2014-06-28_20-32-16_260595134347_rgbf000029-resize_4/002445_2014-06-28_20-32-16_260595134347_rgbf000029-resize_4-target.png,125,2.5315,6,1345,125,feet,jsons/VE125_randls_3_rotated.json,412954,551084,39,Man
162,159726,DepthScenes,duration_manipulation_targetAtFixation,jsons/VE125_randls_3_rotated.json,http://54.235.29.9/FacialAge/BNav_EC2/DepthDuration/v2_depth_duration_MTurk/v2_DepthDuration_HTML.html#32,32,919,886,1920,1080,8-21-2022,9-42-7,163,depth_duration_stimuli/002678_2014-06-13_16-15-32_094959634447_rgbf000151-resize_6/002678_2014-06-13_16-15-32_094959634447_rgbf000151-resize_6-target.png,125,2.1830000000000003,8,1404,124,feet,jsons/VE125_randls_3_rotated.json,412954,551084,39,Man
163,159726,DepthScenes,duration_manipulation_targetAtFixation,jsons/VE125_randls_3_rotated.json,http://54.235.29.9/FacialAge/BNav_EC2/DepthDuration/v2_depth_duration_MTurk/v2_DepthDuration_HTML.html#32,32,919,886,1920,1080,8-21-2022,9-42-7,164,depth_duration_stimuli/000368_2014-06-09_15-53-01_260595134347_rgbf000155-resize_2/000368_2014-06-09_15-53-01_260595134347_rgbf000155-resize_2-target.png,125,2.4859999999999998,7,2944,122,feet,jsons/VE125_randls_3_rotated.json,412954,551084,39,Man
