,subjID,experimentName,versionName,sequenceName,url,selected_row,windowWidth,windowHeight,screenWidth,screenHeight,startDate,startTime,trial,stimulus,duration,actual_depth,depth_estimate,trial_RT,log_sceneDuration,unitSelection,seq_filepath,experimentTime,totalTime,age,gender
0,160168,DepthScenes,duration_manipulation_targetAtFixation,jsons/VE125_randls_59.json,http://54.235.29.9/FacialAge/BNav_EC2/DepthDuration/v2_depth_duration_MTurk/v2_DepthDuration_HTML.html#68,68,1280,881,1280,1024,9-19-2022,15-51-46,1,depth_duration_stimuli/000736_2014-06-08_18-24-15_260595134347_rgbf000206-resize_3/000736_2014-06-08_18-24-15_260595134347_rgbf000206-resize_3-target.png,125,3.515,2,5580,125,feet,jsons/VE125_randls_59.json,697912,1190819,47,Man
1,160168,DepthScenes,duration_manipulation_targetAtFixation,jsons/VE125_randls_59.json,http://54.235.29.9/FacialAge/BNav_EC2/DepthDuration/v2_depth_duration_MTurk/v2_DepthDuration_HTML.html#68,68,1280,881,1280,1024,9-19-2022,15-51-46,2,depth_duration_stimuli/000137_2014-05-20_17-04-49_260595134347_rgbf000120-resize_1/000137_2014-05-20_17-04-49_260595134347_rgbf000120-resize_1-target.png,125,3.786,0,3833,124,feet,jsons/VE125_randls_59.json,697912,1190819,47,Man
2,160168,DepthScenes,duration_manipulation_targetAtFixation,jsons/VE125_randls_59.json,http://54.235.29.9/FacialAge/BNav_EC2/DepthDuration/v2_depth_duration_MTurk/v2_DepthDuration_HTML.html#68,68,1280,881,1280,1024,9-19-2022,15-51-46,3,depth_duration_stimuli/003534_2014-05-22_15-06-10_094959634447_rgbf000102-resize_4/003534_2014-05-22_15-06-10_094959634447_rgbf000102-resize_4-target.png,125,1.426,3,3998,125,feet,jsons/VE125_randls_59.json,697912,1190819,47,Man
3,160168,DepthScenes,duration_manipulation_targetAtFixation,jsons/VE125_randls_59.json,http://54.235.29.9/FacialAge/BNav_EC2/DepthDuration/v2_depth_duration_MTurk/v2_DepthDuration_HTML.html#68,68,1280,881,1280,1024,9-19-2022,15-51-46,4,depth_duration_stimuli/002637_2014-06-24_14-51-13_094959634447_rgbf000066-resize_4/002637_2014-06-24_14-51-13_094959634447_rgbf000066-resize_4-target.png,125,1.9955,0,3185,132,feet,jsons/VE125_randls_59.json,697912,1190819,47,Man
4,160168,DepthScenes,duration_manipulation_targetAtFixation,jsons/VE125_randls_59.json,http://54.235.29.9/FacialAge/BNav_EC2/DepthDuration/v2_depth_duration_MTurk/v2_DepthDuration_HTML.html#68,68,1280,881,1280,1024,9-19-2022,15-51-46,5,depth_duration_stimuli/000878_2014-06-08_22-52-45_260595134347_rgbf000045-resize_2/000878_2014-06-08_22-52-45_260595134347_rgbf000045-resize_2-target.png,125,2.092,4,4631,124,feet,jsons/VE125_randls_59.json,697912,1190819,47,Man
5,160168,DepthScenes,duration_manipulation_targetAtFixation,jsons/VE125_randls_59.json,http://54.235.29.9/FacialAge/BNav_EC2/DepthDuration/v2_depth_duration_MTurk/v2_DepthDuration_HTML.html#68,68,1280,881,1280,1024,9-19-2022,15-51-46,6,depth_duration_stimuli/002953_2014-06-08_17-32-18_094959634447_rgbf000059-resize_5/002953_2014-06-08_17-32-18_094959634447_rgbf000059-resize_5-target.png,125,1.551,2,3709,123,feet,jsons/VE125_randls_59.json,697912,1190819,47,Man
6,160168,DepthScenes,duration_manipulation_targetAtFixation,jsons/VE125_randls_59.json,http://54.235.29.9/FacialAge/BNav_EC2/DepthDuration/v2_depth_duration_MTurk/v2_DepthDuration_HTML.html#68,68,1280,881,1280,1024,9-19-2022,15-51-46,7,depth_duration_stimuli/000436_2014-06-09_22-25-11_260595134347_rgbf000137-resize_1/000436_2014-06-09_22-25-11_260595134347_rgbf000137-resize_1-target.png,125,4.0705,4,6672,124,feet,jsons/VE125_randls_59.json,697912,1190819,47,Man
7,160168,DepthScenes,duration_manipulation_targetAtFixation,jsons/VE125_randls_59.json,http://54.235.29.9/FacialAge/BNav_EC2/DepthDuration/v2_depth_duration_MTurk/v2_DepthDuration_HTML.html#68,68,1280,881,1280,1024,9-19-2022,15-51-46,8,depth_duration_stimuli/002444_2014-06-28_20-32-08_260595134347_rgbf000027-resize_0/002444_2014-06-28_20-32-08_260595134347_rgbf000027-resize_0-target.png,125,4.388999999999999,3,8744,126,feet,jsons/VE125_randls_59.json,697912,1190819,47,Man
8,160168,DepthScenes,duration_manipulation_targetAtFixation,jsons/VE125_randls_59.json,http://54.235.29.9/FacialAge/BNav_EC2/DepthDuration/v2_depth_duration_MTurk/v2_DepthDuration_HTML.html#68,68,1280,881,1280,1024,9-19-2022,15-51-46,9,depth_duration_stimuli/001066_2014-06-08_22-03-20_260595134347_rgbf000066-resize_4/001066_2014-06-08_22-03-20_260595134347_rgbf000066-resize_4-target.png,125,4.2330000000000005,4,7156,124,feet,jsons/VE125_randls_59.json,697912,1190819,47,Man
9,160168,DepthScenes,duration_manipulation_targetAtFixation,jsons/VE125_randls_59.json,http://54.235.29.9/FacialAge/BNav_EC2/DepthDuration/v2_depth_duration_MTurk/v2_DepthDuration_HTML.html#68,68,1280,881,1280,1024,9-19-2022,15-51-46,10,depth_duration_stimuli/000742_2014-06-08_18-48-09_260595134347_rgbf000164-resize_4/000742_2014-06-08_18-48-09_260595134347_rgbf000164-resize_4-target.png,125,4.632,2,4558,134,feet,jsons/VE125_randls_59.json,697912,1190819,47,Man
10,160168,DepthScenes,duration_manipulation_targetAtFixation,jsons/VE125_randls_59.json,http://54.235.29.9/FacialAge/BNav_EC2/DepthDuration/v2_depth_duration_MTurk/v2_DepthDuration_HTML.html#68,68,1280,881,1280,1024,9-19-2022,15-51-46,11,depth_duration_stimuli/001808_2014-06-26_20-50-58_260595134347_rgbf000029-resize_1/001808_2014-06-26_20-50-58_260595134347_rgbf000029-resize_1-target.png,125,4.249,4,5316,124,feet,jsons/VE125_randls_59.json,697912,1190819,47,Man
11,160168,DepthScenes,duration_manipulation_targetAtFixation,jsons/VE125_randls_59.json,http://54.235.29.9/FacialAge/BNav_EC2/DepthDuration/v2_depth_duration_MTurk/v2_DepthDuration_HTML.html#68,68,1280,881,1280,1024,9-19-2022,15-51-46,12,depth_duration_stimuli/001815_2014-06-26_20-52-55_260595134347_rgbf000020-resize_0/001815_2014-06-26_20-52-55_260595134347_rgbf000020-resize_0-target.png,125,3.3865,4,4545,123,feet,jsons/VE125_randls_59.json,697912,1190819,47,Man
12,160168,DepthScenes,duration_manipulation_targetAtFixation,jsons/VE125_randls_59.json,http://54.235.29.9/FacialAge/BNav_EC2/DepthDuration/v2_depth_duration_MTurk/v2_DepthDuration_HTML.html#68,68,1280,881,1280,1024,9-19-2022,15-51-46,13,depth_duration_stimuli/000569_2014-06-09_22-51-47_260595134347_rgbf000141-resize_3/000569_2014-06-09_22-51-47_260595134347_rgbf000141-resize-original.jpg,125,4.512,0,5604,123,feet,jsons/VE125_randls_59.json,697912,1190819,47,Man
13,160168,DepthScenes,duration_manipulation_targetAtFixation,jsons/VE125_randls_59.json,http://54.235.29.9/FacialAge/BNav_EC2/DepthDuration/v2_depth_duration_MTurk/v2_DepthDuration_HTML.html#68,68,1280,881,1280,1024,9-19-2022,15-51-46,14,depth_duration_stimuli/001016_2014-06-09_16-16-10_260595134347_rgbf000112-resize_5/001016_2014-06-09_16-16-10_260595134347_rgbf000112-resize_5-target.png,125,1.6565,2,5522,124,feet,jsons/VE125_randls_59.json,697912,1190819,47,Man
14,160168,DepthScenes,duration_manipulation_targetAtFixation,jsons/VE125_randls_59.json,http://54.235.29.9/FacialAge/BNav_EC2/DepthDuration/v2_depth_duration_MTurk/v2_DepthDuration_HTML.html#68,68,1280,881,1280,1024,9-19-2022,15-51-46,15,depth_duration_stimuli/002340_2014-06-28_20-05-46_260595134347_rgbf000113-resize_0/002340_2014-06-28_20-05-46_260595134347_rgbf000113-resize_0-target.png,125,2.4735,3,3180,125,feet,jsons/VE125_randls_59.json,697912,1190819,47,Man
15,160168,DepthScenes,duration_manipulation_targetAtFixation,jsons/VE125_randls_59.json,http://54.235.29.9/FacialAge/BNav_EC2/DepthDuration/v2_depth_duration_MTurk/v2_DepthDuration_HTML.html#68,68,1280,881,1280,1024,9-19-2022,15-51-46,16,depth_duration_stimuli/002748_2014-06-22_19-07-22_094959634447_rgbf000078-resize_1/002748_2014-06-22_19-07-22_094959634447_rgbf000078-resize_1-target.png,125,4.6705,3,4756,123,feet,jsons/VE125_randls_59.json,697912,1190819,47,Man
16,160168,DepthScenes,duration_manipulation_targetAtFixation,jsons/VE125_randls_59.json,http://54.235.29.9/FacialAge/BNav_EC2/DepthDuration/v2_depth_duration_MTurk/v2_DepthDuration_HTML.html#68,68,1280,881,1280,1024,9-19-2022,15-51-46,17,depth_duration_stimuli/002995_2014-06-15_12-31-26_094959634447_rgbf000150-resize_1/002995_2014-06-15_12-31-26_094959634447_rgbf000150-resize_1-target.png,125,3.8360000000000003,3,3688,123,feet,jsons/VE125_randls_59.json,697912,1190819,47,Man
17,160168,DepthScenes,duration_manipulation_targetAtFixation,jsons/VE125_randls_59.json,http://54.235.29.9/FacialAge/BNav_EC2/DepthDuration/v2_depth_duration_MTurk/v2_DepthDuration_HTML.html#68,68,1280,881,1280,1024,9-19-2022,15-51-46,18,depth_duration_stimuli/000682_2014-06-08_23-14-58_260595134347_rgbf000041-resize_5/000682_2014-06-08_23-14-58_260595134347_rgbf000041-resize_5-target.png,125,2.7239999999999998,3,5438,126,feet,jsons/VE125_randls_59.json,697912,1190819,47,Man
18,160168,DepthScenes,duration_manipulation_targetAtFixation,jsons/VE125_randls_59.json,http://54.235.29.9/FacialAge/BNav_EC2/DepthDuration/v2_depth_duration_MTurk/v2_DepthDuration_HTML.html#68,68,1280,881,1280,1024,9-19-2022,15-51-46,19,depth_duration_stimuli/001650_2014-06-20_12-09-00_260595134347_rgbf000087-resize_3/001650_2014-06-20_12-09-00_260595134347_rgbf000087-resize_3-target.png,125,1.9505,2,4467,125,feet,jsons/VE125_randls_59.json,697912,1190819,47,Man
19,160168,DepthScenes,duration_manipulation_targetAtFixation,jsons/VE125_randls_59.json,http://54.235.29.9/FacialAge/BNav_EC2/DepthDuration/v2_depth_duration_MTurk/v2_DepthDuration_HTML.html#68,68,1280,881,1280,1024,9-19-2022,15-51-46,20,depth_duration_stimuli/001167_2014-06-17_15-38-07_260595134347_rgbf000108-resize_0/001167_2014-06-17_15-38-07_260595134347_rgbf000108-resize_0-target.png,125,1.8505,2,4609,125,feet,jsons/VE125_randls_59.json,697912,1190819,47,Man
20,160168,DepthScenes,duration_manipulation_targetAtFixation,jsons/VE125_randls_59.json,http://54.235.29.9/FacialAge/BNav_EC2/DepthDuration/v2_depth_duration_MTurk/v2_DepthDuration_HTML.html#68,68,1280,881,1280,1024,9-19-2022,15-51-46,21,depth_duration_stimuli/003587_2014-05-23_16-48-02_094959634447_rgbf002384-resize_2/003587_2014-05-23_16-48-02_094959634447_rgbf002384-resize_2-target.png,125,1.357,2,4916,123,feet,jsons/VE125_randls_59.json,697912,1190819,47,Man
21,160168,DepthScenes,duration_manipulation_targetAtFixation,jsons/VE125_randls_59.json,http://54.235.29.9/FacialAge/BNav_EC2/DepthDuration/v2_depth_duration_MTurk/v2_DepthDuration_HTML.html#68,68,1280,881,1280,1024,9-19-2022,15-51-46,22,depth_duration_stimuli/002375_2014-06-28_20-13-44_260595134347_rgbf000032-resize_1/002375_2014-06-28_20-13-44_260595134347_rgbf000032-resize_1-target.png,125,4.0175,3,4146,124,feet,jsons/VE125_randls_59.json,697912,1190819,47,Man
22,160168,DepthScenes,duration_manipulation_targetAtFixation,jsons/VE125_randls_59.json,http://54.235.29.9/FacialAge/BNav_EC2/DepthDuration/v2_depth_duration_MTurk/v2_DepthDuration_HTML.html#68,68,1280,881,1280,1024,9-19-2022,15-51-46,23,depth_duration_stimuli/002657_2014-06-13_15-29-54_094959634447_rgbf000150-resize_1/002657_2014-06-13_15-29-54_094959634447_rgbf000150-resize_1-target.png,125,4.919,3,3324,125,feet,jsons/VE125_randls_59.json,697912,1190819,47,Man
23,160168,DepthScenes,duration_manipulation_targetAtFixation,jsons/VE125_randls_59.json,http://54.235.29.9/FacialAge/BNav_EC2/DepthDuration/v2_depth_duration_MTurk/v2_DepthDuration_HTML.html#68,68,1280,881,1280,1024,9-19-2022,15-51-46,24,depth_duration_stimuli/001199_2014-06-17_16-03-48_260595134347_rgbf000077-resize_0/001199_2014-06-17_16-03-48_260595134347_rgbf000077-resize_0-target.png,125,3.4375,3,4207,123,feet,jsons/VE125_randls_59.json,697912,1190819,47,Man
24,160168,DepthScenes,duration_manipulation_targetAtFixation,jsons/VE125_randls_59.json,http://54.235.29.9/FacialAge/BNav_EC2/DepthDuration/v2_depth_duration_MTurk/v2_DepthDuration_HTML.html#68,68,1280,881,1280,1024,9-19-2022,15-51-46,25,depth_duration_stimuli/000502_2014-06-08_23-02-32_260595134347_rgbf000063-resize_4/000502_2014-06-08_23-02-32_260595134347_rgbf000063-resize_4-target.png,125,2.431,2,3856,125,feet,jsons/VE125_randls_59.json,697912,1190819,47,Man
25,160168,DepthScenes,duration_manipulation_targetAtFixation,jsons/VE125_randls_59.json,http://54.235.29.9/FacialAge/BNav_EC2/DepthDuration/v2_depth_duration_MTurk/v2_DepthDuration_HTML.html#68,68,1280,881,1280,1024,9-19-2022,15-51-46,26,depth_duration_stimuli/001164_2014-06-17_15-35-46_260595134347_rgbf000085-resize_3/001164_2014-06-17_15-35-46_260595134347_rgbf000085-resize_3-target.png,125,2.354,4,4061,125,feet,jsons/VE125_randls_59.json,697912,1190819,47,Man
26,160168,DepthScenes,duration_manipulation_targetAtFixation,jsons/VE125_randls_59.json,http://54.235.29.9/FacialAge/BNav_EC2/DepthDuration/v2_depth_duration_MTurk/v2_DepthDuration_HTML.html#68,68,1280,881,1280,1024,9-19-2022,15-51-46,27,depth_duration_stimuli/001136_2014-06-17_15-19-41_260595134347_rgbf000076-resize_3/001136_2014-06-17_15-19-41_260595134347_rgbf000076-resize_3-target.png,125,1.8655,4,4283,121,feet,jsons/VE125_randls_59.json,697912,1190819,47,Man
27,160168,DepthScenes,duration_manipulation_targetAtFixation,jsons/VE125_randls_59.json,http://54.235.29.9/FacialAge/BNav_EC2/DepthDuration/v2_depth_duration_MTurk/v2_DepthDuration_HTML.html#68,68,1280,881,1280,1024,9-19-2022,15-51-46,28,depth_duration_stimuli/002213_2014-06-28_18-37-58_260595134347_rgbf000055-resize_1/002213_2014-06-28_18-37-58_260595134347_rgbf000055-resize_1-target.png,125,3.62,4,4647,124,feet,jsons/VE125_randls_59.json,697912,1190819,47,Man
28,160168,DepthScenes,duration_manipulation_targetAtFixation,jsons/VE125_randls_59.json,http://54.235.29.9/FacialAge/BNav_EC2/DepthDuration/v2_depth_duration_MTurk/v2_DepthDuration_HTML.html#68,68,1280,881,1280,1024,9-19-2022,15-51-46,29,depth_duration_stimuli/000691_2014-06-08_13-08-50_260595134347_rgbf000132-resize_3/000691_2014-06-08_13-08-50_260595134347_rgbf000132-resize_3-target.png,125,4.1530000000000005,3,3461,125,feet,jsons/VE125_randls_59.json,697912,1190819,47,Man
29,160168,DepthScenes,duration_manipulation_targetAtFixation,jsons/VE125_randls_59.json,http://54.235.29.9/FacialAge/BNav_EC2/DepthDuration/v2_depth_duration_MTurk/v2_DepthDuration_HTML.html#68,68,1280,881,1280,1024,9-19-2022,15-51-46,30,depth_duration_stimuli/000375_2014-06-08_11-17-29_260595134347_rgbf000133-resize_2/000375_2014-06-08_11-17-29_260595134347_rgbf000133-resize-original.jpg,125,4.718,0,4606,125,feet,jsons/VE125_randls_59.json,697912,1190819,47,Man
30,160168,DepthScenes,duration_manipulation_targetAtFixation,jsons/VE125_randls_59.json,http://54.235.29.9/FacialAge/BNav_EC2/DepthDuration/v2_depth_duration_MTurk/v2_DepthDuration_HTML.html#68,68,1280,881,1280,1024,9-19-2022,15-51-46,31,depth_duration_stimuli/001110_2014-06-15_17-25-28_260595134347_rgbf000150-resize_1/001110_2014-06-15_17-25-28_260595134347_rgbf000150-resize_1-target.png,125,1.7115,2,2898,127,feet,jsons/VE125_randls_59.json,697912,1190819,47,Man
31,160168,DepthScenes,duration_manipulation_targetAtFixation,jsons/VE125_randls_59.json,http://54.235.29.9/FacialAge/BNav_EC2/DepthDuration/v2_depth_duration_MTurk/v2_DepthDuration_HTML.html#68,68,1280,881,1280,1024,9-19-2022,15-51-46,32,depth_duration_stimuli/000927_2014-06-09_16-32-30_260595134347_rgbf000123-resize_3/000927_2014-06-09_16-32-30_260595134347_rgbf000123-resize_3-target.png,125,2.6785,0,2933,124,feet,jsons/VE125_randls_59.json,697912,1190819,47,Man
32,160168,DepthScenes,duration_manipulation_targetAtFixation,jsons/VE125_randls_59.json,http://54.235.29.9/FacialAge/BNav_EC2/DepthDuration/v2_depth_duration_MTurk/v2_DepthDuration_HTML.html#68,68,1280,881,1280,1024,9-19-2022,15-51-46,33,depth_duration_stimuli/003070_2014-06-15_14-58-27_094959634447_rgbf000150-resize_3/003070_2014-06-15_14-58-27_094959634447_rgbf000150-resize_3-target.png,125,2.9415,3,3806,125,feet,jsons/VE125_randls_59.json,697912,1190819,47,Man
33,160168,DepthScenes,duration_manipulation_targetAtFixation,jsons/VE125_randls_59.json,http://54.235.29.9/FacialAge/BNav_EC2/DepthDuration/v2_depth_duration_MTurk/v2_DepthDuration_HTML.html#68,68,1280,881,1280,1024,9-19-2022,15-51-46,34,depth_duration_stimuli/000943_2014-06-09_19-31-07_260595134347_rgbf000128-resize_1/000943_2014-06-09_19-31-07_260595134347_rgbf000128-resize_1-target.png,125,1.9765,2,3221,123,feet,jsons/VE125_randls_59.json,697912,1190819,47,Man
34,160168,DepthScenes,duration_manipulation_targetAtFixation,jsons/VE125_randls_59.json,http://54.235.29.9/FacialAge/BNav_EC2/DepthDuration/v2_depth_duration_MTurk/v2_DepthDuration_HTML.html#68,68,1280,881,1280,1024,9-19-2022,15-51-46,35,depth_duration_stimuli/001449_2014-06-19_17-01-27_260595134347_rgbf000116-resize_2/001449_2014-06-19_17-01-27_260595134347_rgbf000116-resize_2-target.png,125,3.452,1,3781,125,feet,jsons/VE125_randls_59.json,697912,1190819,47,Man
35,160168,DepthScenes,duration_manipulation_targetAtFixation,jsons/VE125_randls_59.json,http://54.235.29.9/FacialAge/BNav_EC2/DepthDuration/v2_depth_duration_MTurk/v2_DepthDuration_HTML.html#68,68,1280,881,1280,1024,9-19-2022,15-51-46,36,depth_duration_stimuli/001450_2014-06-19_17-02-03_260595134347_rgbf000203-resize_4/001450_2014-06-19_17-02-03_260595134347_rgbf000203-resize_4-target.png,125,4.0106666666667,3,3516,125,feet,jsons/VE125_randls_59.json,697912,1190819,47,Man
36,160168,DepthScenes,duration_manipulation_targetAtFixation,jsons/VE125_randls_59.json,http://54.235.29.9/FacialAge/BNav_EC2/DepthDuration/v2_depth_duration_MTurk/v2_DepthDuration_HTML.html#68,68,1280,881,1280,1024,9-19-2022,15-51-46,37,depth_duration_stimuli/001150_2014-06-17_15-27-34_260595134347_rgbf000108-resize_2/001150_2014-06-17_15-27-34_260595134347_rgbf000108-resize_2-target.png,125,4.0325,3,3363,125,feet,jsons/VE125_randls_59.json,697912,1190819,47,Man
37,160168,DepthScenes,duration_manipulation_targetAtFixation,jsons/VE125_randls_59.json,http://54.235.29.9/FacialAge/BNav_EC2/DepthDuration/v2_depth_duration_MTurk/v2_DepthDuration_HTML.html#68,68,1280,881,1280,1024,9-19-2022,15-51-46,38,depth_duration_stimuli/000665_2014-06-09_20-42-35_260595134347_rgbf000110-resize_1/000665_2014-06-09_20-42-35_260595134347_rgbf000110-resize_1-target.png,125,3.057,3,3405,125,feet,jsons/VE125_randls_59.json,697912,1190819,47,Man
38,160168,DepthScenes,duration_manipulation_targetAtFixation,jsons/VE125_randls_59.json,http://54.235.29.9/FacialAge/BNav_EC2/DepthDuration/v2_depth_duration_MTurk/v2_DepthDuration_HTML.html#68,68,1280,881,1280,1024,9-19-2022,15-51-46,39,depth_duration_stimuli/002905_2014-06-03_18-04-43_094959634447_rgbf000151-resize_2/002905_2014-06-03_18-04-43_094959634447_rgbf000151-resize_2-target.png,125,2.0295,2,4431,122,feet,jsons/VE125_randls_59.json,697912,1190819,47,Man
39,160168,DepthScenes,duration_manipulation_targetAtFixation,jsons/VE125_randls_59.json,http://54.235.29.9/FacialAge/BNav_EC2/DepthDuration/v2_depth_duration_MTurk/v2_DepthDuration_HTML.html#68,68,1280,881,1280,1024,9-19-2022,15-51-46,40,depth_duration_stimuli/003423_2014-05-21_10-23-26_094959634447_rgbf002665-resize_2/003423_2014-05-21_10-23-26_094959634447_rgbf002665-resize_2-target.png,125,3.2575,0,2818,123,feet,jsons/VE125_randls_59.json,697912,1190819,47,Man
40,160168,DepthScenes,duration_manipulation_targetAtFixation,jsons/VE125_randls_59.json,http://54.235.29.9/FacialAge/BNav_EC2/DepthDuration/v2_depth_duration_MTurk/v2_DepthDuration_HTML.html#68,68,1280,881,1280,1024,9-19-2022,15-51-46,41,depth_duration_stimuli/002057_2014-06-24_21-00-13_260595134347_rgbf000120-resize_1/002057_2014-06-24_21-00-13_260595134347_rgbf000120-resize_1-target.png,125,2.967,3,3538,124,feet,jsons/VE125_randls_59.json,697912,1190819,47,Man
41,160168,DepthScenes,duration_manipulation_targetAtFixation,jsons/VE125_randls_59.json,http://54.235.29.9/FacialAge/BNav_EC2/DepthDuration/v2_depth_duration_MTurk/v2_DepthDuration_HTML.html#68,68,1280,881,1280,1024,9-19-2022,15-51-46,42,depth_duration_stimuli/000709_2014-06-08_13-51-55_260595134347_rgbf000068-resize_3/000709_2014-06-08_13-51-55_260595134347_rgbf000068-resize_3-target.png,125,1.8030000000000002,2,3292,126,feet,jsons/VE125_randls_59.json,697912,1190819,47,Man
42,160168,DepthScenes,duration_manipulation_targetAtFixation,jsons/VE125_randls_59.json,http://54.235.29.9/FacialAge/BNav_EC2/DepthDuration/v2_depth_duration_MTurk/v2_DepthDuration_HTML.html#68,68,1280,881,1280,1024,9-19-2022,15-51-46,43,depth_duration_stimuli/000469_2014-06-09_19-42-10_260595134347_rgbf000081-resize_1/000469_2014-06-09_19-42-10_260595134347_rgbf000081-resize_1-target.png,125,1.652,2,3763,124,feet,jsons/VE125_randls_59.json,697912,1190819,47,Man
43,160168,DepthScenes,duration_manipulation_targetAtFixation,jsons/VE125_randls_59.json,http://54.235.29.9/FacialAge/BNav_EC2/DepthDuration/v2_depth_duration_MTurk/v2_DepthDuration_HTML.html#68,68,1280,881,1280,1024,9-19-2022,15-51-46,44,depth_duration_stimuli/000483_2014-06-09_20-41-45_260595134347_rgbf000116-resize_4/000483_2014-06-09_20-41-45_260595134347_rgbf000116-resize_4-target.png,125,1.337,0,2765,126,feet,jsons/VE125_randls_59.json,697912,1190819,47,Man
44,160168,DepthScenes,duration_manipulation_targetAtFixation,jsons/VE125_randls_59.json,http://54.235.29.9/FacialAge/BNav_EC2/DepthDuration/v2_depth_duration_MTurk/v2_DepthDuration_HTML.html#68,68,1280,881,1280,1024,9-19-2022,15-51-46,45,depth_duration_stimuli/000787_2014-06-08_22-33-53_260595134347_rgbf000175-resize_1/000787_2014-06-08_22-33-53_260595134347_rgbf000175-resize-original.jpg,125,4.784,2,3443,126,feet,jsons/VE125_randls_59.json,697912,1190819,47,Man
45,160168,DepthScenes,duration_manipulation_targetAtFixation,jsons/VE125_randls_59.json,http://54.235.29.9/FacialAge/BNav_EC2/DepthDuration/v2_depth_duration_MTurk/v2_DepthDuration_HTML.html#68,68,1280,881,1280,1024,9-19-2022,15-51-46,46,depth_duration_stimuli/002989_2014-06-15_12-25-03_094959634447_rgbf000150-resize_3/002989_2014-06-15_12-25-03_094959634447_rgbf000150-resize_3-target.png,125,4.1975,4,3521,122,feet,jsons/VE125_randls_59.json,697912,1190819,47,Man
46,160168,DepthScenes,duration_manipulation_targetAtFixation,jsons/VE125_randls_59.json,http://54.235.29.9/FacialAge/BNav_EC2/DepthDuration/v2_depth_duration_MTurk/v2_DepthDuration_HTML.html#68,68,1280,881,1280,1024,9-19-2022,15-51-46,47,depth_duration_stimuli/000866_2014-06-09_20-45-42_260595134347_rgbf000139-resize_1/000866_2014-06-09_20-45-42_260595134347_rgbf000139-resize_1-target.png,125,3.2155,0,2682,125,feet,jsons/VE125_randls_59.json,697912,1190819,47,Man
47,160168,DepthScenes,duration_manipulation_targetAtFixation,jsons/VE125_randls_59.json,http://54.235.29.9/FacialAge/BNav_EC2/DepthDuration/v2_depth_duration_MTurk/v2_DepthDuration_HTML.html#68,68,1280,881,1280,1024,9-19-2022,15-51-46,48,depth_duration_stimuli/000906_2014-06-08_13-35-43_260595134347_rgbf000155-resize_1/000906_2014-06-08_13-35-43_260595134347_rgbf000155-resize_1-target.png,125,2.8489999999999998,3,3607,125,feet,jsons/VE125_randls_59.json,697912,1190819,47,Man
48,160168,DepthScenes,duration_manipulation_targetAtFixation,jsons/VE125_randls_59.json,http://54.235.29.9/FacialAge/BNav_EC2/DepthDuration/v2_depth_duration_MTurk/v2_DepthDuration_HTML.html#68,68,1280,881,1280,1024,9-19-2022,15-51-46,49,depth_duration_stimuli/002805_2014-06-22_19-54-03_094959634447_rgbf000079-resize_1/002805_2014-06-22_19-54-03_094959634447_rgbf000079-resize_1-target.png,125,3.1439999999999997,2,2865,125,feet,jsons/VE125_randls_59.json,697912,1190819,47,Man
49,160168,DepthScenes,duration_manipulation_targetAtFixation,jsons/VE125_randls_59.json,http://54.235.29.9/FacialAge/BNav_EC2/DepthDuration/v2_depth_duration_MTurk/v2_DepthDuration_HTML.html#68,68,1280,881,1280,1024,9-19-2022,15-51-46,50,depth_duration_stimuli/000506_2014-06-08_23-21-00_260595134347_rgbf000070-resize_7/000506_2014-06-08_23-21-00_260595134347_rgbf000070-resize_7-target.png,125,4.0585,3,3263,125,feet,jsons/VE125_randls_59.json,697912,1190819,47,Man
50,160168,DepthScenes,duration_manipulation_targetAtFixation,jsons/VE125_randls_59.json,http://54.235.29.9/FacialAge/BNav_EC2/DepthDuration/v2_depth_duration_MTurk/v2_DepthDuration_HTML.html#68,68,1280,881,1280,1024,9-19-2022,15-51-46,51,depth_duration_stimuli/003079_2014-06-15_15-18-20_094959634447_rgbf000152-resize_8/003079_2014-06-15_15-18-20_094959634447_rgbf000152-resize_8-target.png,125,2.8775,2,2880,125,feet,jsons/VE125_randls_59.json,697912,1190819,47,Man
51,160168,DepthScenes,duration_manipulation_targetAtFixation,jsons/VE125_randls_59.json,http://54.235.29.9/FacialAge/BNav_EC2/DepthDuration/v2_depth_duration_MTurk/v2_DepthDuration_HTML.html#68,68,1280,881,1280,1024,9-19-2022,15-51-46,52,depth_duration_stimuli/002509_2014-06-24_13-19-22_094959634447_rgbf000077-resize_0/002509_2014-06-24_13-19-22_094959634447_rgbf000077-resize_0-target.png,125,1.3065,1,3230,125,feet,jsons/VE125_randls_59.json,697912,1190819,47,Man
52,160168,DepthScenes,duration_manipulation_targetAtFixation,jsons/VE125_randls_59.json,http://54.235.29.9/FacialAge/BNav_EC2/DepthDuration/v2_depth_duration_MTurk/v2_DepthDuration_HTML.html#68,68,1280,881,1280,1024,9-19-2022,15-51-46,53,depth_duration_stimuli/003338_2014-05-20_11-01-23_094959634447_rgbf000051-resize_6/003338_2014-05-20_11-01-23_094959634447_rgbf000051-resize_6-target.png,125,1.693,2,2972,125,feet,jsons/VE125_randls_59.json,697912,1190819,47,Man
53,160168,DepthScenes,duration_manipulation_targetAtFixation,jsons/VE125_randls_59.json,http://54.235.29.9/FacialAge/BNav_EC2/DepthDuration/v2_depth_duration_MTurk/v2_DepthDuration_HTML.html#68,68,1280,881,1280,1024,9-19-2022,15-51-46,54,depth_duration_stimuli/001158_2014-06-17_15-32-16_260595134347_rgbf000138-resize_2/001158_2014-06-17_15-32-16_260595134347_rgbf000138-resize_2-target.png,125,4.5315,2,3476,126,feet,jsons/VE125_randls_59.json,697912,1190819,47,Man
54,160168,DepthScenes,duration_manipulation_targetAtFixation,jsons/VE125_randls_59.json,http://54.235.29.9/FacialAge/BNav_EC2/DepthDuration/v2_depth_duration_MTurk/v2_DepthDuration_HTML.html#68,68,1280,881,1280,1024,9-19-2022,15-51-46,55,depth_duration_stimuli/000556_2014-06-09_22-42-56_260595134347_rgbf000214-resize_1/000556_2014-06-09_22-42-56_260595134347_rgbf000214-resize_1-target.png,125,4.8415,3,2857,124,feet,jsons/VE125_randls_59.json,697912,1190819,47,Man
55,160168,DepthScenes,duration_manipulation_targetAtFixation,jsons/VE125_randls_59.json,http://54.235.29.9/FacialAge/BNav_EC2/DepthDuration/v2_depth_duration_MTurk/v2_DepthDuration_HTML.html#68,68,1280,881,1280,1024,9-19-2022,15-51-46,56,depth_duration_stimuli/000788_2014-06-08_22-34-36_260595134347_rgbf000131-resize_1/000788_2014-06-08_22-34-36_260595134347_rgbf000131-resize_1-target.png,125,3.359,2,3210,126,feet,jsons/VE125_randls_59.json,697912,1190819,47,Man
56,160168,DepthScenes,duration_manipulation_targetAtFixation,jsons/VE125_randls_59.json,http://54.235.29.9/FacialAge/BNav_EC2/DepthDuration/v2_depth_duration_MTurk/v2_DepthDuration_HTML.html#68,68,1280,881,1280,1024,9-19-2022,15-51-46,57,depth_duration_stimuli/001235_2014-06-17_16-37-36_260595134347_rgbf000084-resize_4/001235_2014-06-17_16-37-36_260595134347_rgbf000084-resize_4-target.png,125,3.6605,2,3237,124,feet,jsons/VE125_randls_59.json,697912,1190819,47,Man
57,160168,DepthScenes,duration_manipulation_targetAtFixation,jsons/VE125_randls_59.json,http://54.235.29.9/FacialAge/BNav_EC2/DepthDuration/v2_depth_duration_MTurk/v2_DepthDuration_HTML.html#68,68,1280,881,1280,1024,9-19-2022,15-51-46,58,depth_duration_stimuli/002153_2014-06-25_21-27-18_260595134347_rgbf000038-resize_5/002153_2014-06-25_21-27-18_260595134347_rgbf000038-resize_5-target.png,125,2.505,2,4301,124,feet,jsons/VE125_randls_59.json,697912,1190819,47,Man
58,160168,DepthScenes,duration_manipulation_targetAtFixation,jsons/VE125_randls_59.json,http://54.235.29.9/FacialAge/BNav_EC2/DepthDuration/v2_depth_duration_MTurk/v2_DepthDuration_HTML.html#68,68,1280,881,1280,1024,9-19-2022,15-51-46,59,depth_duration_stimuli/002660_2014-06-13_15-44-18_094959634447_rgbf001878-resize_2/002660_2014-06-13_15-44-18_094959634447_rgbf001878-resize_2-target.png,125,3.576,2,3747,124,feet,jsons/VE125_randls_59.json,697912,1190819,47,Man
59,160168,DepthScenes,duration_manipulation_targetAtFixation,jsons/VE125_randls_59.json,http://54.235.29.9/FacialAge/BNav_EC2/DepthDuration/v2_depth_duration_MTurk/v2_DepthDuration_HTML.html#68,68,1280,881,1280,1024,9-19-2022,15-51-46,60,depth_duration_stimuli/000810_2014-06-08_17-20-01_260595134347_rgbf000105-resize_0/000810_2014-06-08_17-20-01_260595134347_rgbf000105-resize_0-target.png,125,1.4865,3,3321,123,feet,jsons/VE125_randls_59.json,697912,1190819,47,Man
60,160168,DepthScenes,duration_manipulation_targetAtFixation,jsons/VE125_randls_59.json,http://54.235.29.9/FacialAge/BNav_EC2/DepthDuration/v2_depth_duration_MTurk/v2_DepthDuration_HTML.html#68,68,1280,881,1280,1024,9-19-2022,15-51-46,61,depth_duration_stimuli/001214_2014-06-17_16-13-55_260595134347_rgbf000111-resize_0/001214_2014-06-17_16-13-55_260595134347_rgbf000111-resize_0-target.png,125,2.6505,2,3167,125,feet,jsons/VE125_randls_59.json,697912,1190819,47,Man
61,160168,DepthScenes,duration_manipulation_targetAtFixation,jsons/VE125_randls_59.json,http://54.235.29.9/FacialAge/BNav_EC2/DepthDuration/v2_depth_duration_MTurk/v2_DepthDuration_HTML.html#68,68,1280,881,1280,1024,9-19-2022,15-51-46,62,depth_duration_stimuli/002039_2014-06-24_20-22-38_260595134347_rgbf000084-resize_1/002039_2014-06-24_20-22-38_260595134347_rgbf000084-resize_1-target.png,125,4.408,3,4847,126,feet,jsons/VE125_randls_59.json,697912,1190819,47,Man
62,160168,DepthScenes,duration_manipulation_targetAtFixation,jsons/VE125_randls_59.json,http://54.235.29.9/FacialAge/BNav_EC2/DepthDuration/v2_depth_duration_MTurk/v2_DepthDuration_HTML.html#68,68,1280,881,1280,1024,9-19-2022,15-51-46,63,depth_duration_stimuli/002103_2014-06-25_20-00-40_260595134347_rgbf000049-resize_0/002103_2014-06-25_20-00-40_260595134347_rgbf000049-resize_0-target.png,125,4.105,2,3011,125,feet,jsons/VE125_randls_59.json,697912,1190819,47,Man
63,160168,DepthScenes,duration_manipulation_targetAtFixation,jsons/VE125_randls_59.json,http://54.235.29.9/FacialAge/BNav_EC2/DepthDuration/v2_depth_duration_MTurk/v2_DepthDuration_HTML.html#68,68,1280,881,1280,1024,9-19-2022,15-51-46,64,depth_duration_stimuli/003292_2014-05-14_21-53-49_094959634447_rgbf000100-resize_2/003292_2014-05-14_21-53-49_094959634447_rgbf000100-resize_2-target.png,125,3.4815,2,4442,124,feet,jsons/VE125_randls_59.json,697912,1190819,47,Man
64,160168,DepthScenes,duration_manipulation_targetAtFixation,jsons/VE125_randls_59.json,http://54.235.29.9/FacialAge/BNav_EC2/DepthDuration/v2_depth_duration_MTurk/v2_DepthDuration_HTML.html#68,68,1280,881,1280,1024,9-19-2022,15-51-46,65,depth_duration_stimuli/002639_2014-06-24_14-51-37_094959634447_rgbf000074-resize_4/002639_2014-06-24_14-51-37_094959634447_rgbf000074-resize_4-target.png,125,4.0375,2,2948,125,feet,jsons/VE125_randls_59.json,697912,1190819,47,Man
65,160168,DepthScenes,duration_manipulation_targetAtFixation,jsons/VE125_randls_59.json,http://54.235.29.9/FacialAge/BNav_EC2/DepthDuration/v2_depth_duration_MTurk/v2_DepthDuration_HTML.html#68,68,1280,881,1280,1024,9-19-2022,15-51-46,66,depth_duration_stimuli/001222_2014-06-17_16-24-06_260595134347_rgbf000073-resize_0/001222_2014-06-17_16-24-06_260595134347_rgbf000073-resize-original.jpg,125,1.4385,0,3245,125,feet,jsons/VE125_randls_59.json,697912,1190819,47,Man
66,160168,DepthScenes,duration_manipulation_targetAtFixation,jsons/VE125_randls_59.json,http://54.235.29.9/FacialAge/BNav_EC2/DepthDuration/v2_depth_duration_MTurk/v2_DepthDuration_HTML.html#68,68,1280,881,1280,1024,9-19-2022,15-51-46,67,depth_duration_stimuli/003621_2014-05-23_18-06-08_094959634447_rgbf000101-resize_1/003621_2014-05-23_18-06-08_094959634447_rgbf000101-resize_1-target.png,125,3.9835,2,3062,113,feet,jsons/VE125_randls_59.json,697912,1190819,47,Man
67,160168,DepthScenes,duration_manipulation_targetAtFixation,jsons/VE125_randls_59.json,http://54.235.29.9/FacialAge/BNav_EC2/DepthDuration/v2_depth_duration_MTurk/v2_DepthDuration_HTML.html#68,68,1280,881,1280,1024,9-19-2022,15-51-46,68,depth_duration_stimuli/001584_2014-06-20_11-07-43_260595134347_rgbf000002-resize_1/001584_2014-06-20_11-07-43_260595134347_rgbf000002-resize_1-target.png,125,3.53,0,3803,126,feet,jsons/VE125_randls_59.json,697912,1190819,47,Man
68,160168,DepthScenes,duration_manipulation_targetAtFixation,jsons/VE125_randls_59.json,http://54.235.29.9/FacialAge/BNav_EC2/DepthDuration/v2_depth_duration_MTurk/v2_DepthDuration_HTML.html#68,68,1280,881,1280,1024,9-19-2022,15-51-46,69,depth_duration_stimuli/000773_2014-06-08_22-24-54_260595134347_rgbf000093-resize_1/000773_2014-06-08_22-24-54_260595134347_rgbf000093-resize_1-target.png,125,4.973,2,5298,124,feet,jsons/VE125_randls_59.json,697912,1190819,47,Man
69,160168,DepthScenes,duration_manipulation_targetAtFixation,jsons/VE125_randls_59.json,http://54.235.29.9/FacialAge/BNav_EC2/DepthDuration/v2_depth_duration_MTurk/v2_DepthDuration_HTML.html#68,68,1280,881,1280,1024,9-19-2022,15-51-46,70,depth_duration_stimuli/002414_2014-06-28_20-24-58_260595134347_rgbf000067-resize_4/002414_2014-06-28_20-24-58_260595134347_rgbf000067-resize_4-target.png,125,4.363,2,3281,125,feet,jsons/VE125_randls_59.json,697912,1190819,47,Man
70,160168,DepthScenes,duration_manipulation_targetAtFixation,jsons/VE125_randls_59.json,http://54.235.29.9/FacialAge/BNav_EC2/DepthDuration/v2_depth_duration_MTurk/v2_DepthDuration_HTML.html#68,68,1280,881,1280,1024,9-19-2022,15-51-46,71,depth_duration_stimuli/001806_2014-06-26_20-50-20_260595134347_rgbf000091-resize_1/001806_2014-06-26_20-50-20_260595134347_rgbf000091-resize_1-target.png,125,2.7305,2,3404,126,feet,jsons/VE125_randls_59.json,697912,1190819,47,Man
71,160168,DepthScenes,duration_manipulation_targetAtFixation,jsons/VE125_randls_59.json,http://54.235.29.9/FacialAge/BNav_EC2/DepthDuration/v2_depth_duration_MTurk/v2_DepthDuration_HTML.html#68,68,1280,881,1280,1024,9-19-2022,15-51-46,72,depth_duration_stimuli/001617_2014-06-20_11-35-32_260595134347_rgbf000066-resize_1/001617_2014-06-20_11-35-32_260595134347_rgbf000066-resize_1-target.png,125,3.7910000000000004,0,2885,128,feet,jsons/VE125_randls_59.json,697912,1190819,47,Man
72,160168,DepthScenes,duration_manipulation_targetAtFixation,jsons/VE125_randls_59.json,http://54.235.29.9/FacialAge/BNav_EC2/DepthDuration/v2_depth_duration_MTurk/v2_DepthDuration_HTML.html#68,68,1280,881,1280,1024,9-19-2022,15-51-46,73,depth_duration_stimuli/001056_2014-06-08_18-46-44_260595134347_rgbf000068-resize_0/001056_2014-06-08_18-46-44_260595134347_rgbf000068-resize_0-target.png,125,2.6625,3,5672,125,feet,jsons/VE125_randls_59.json,697912,1190819,47,Man
73,160168,DepthScenes,duration_manipulation_targetAtFixation,jsons/VE125_randls_59.json,http://54.235.29.9/FacialAge/BNav_EC2/DepthDuration/v2_depth_duration_MTurk/v2_DepthDuration_HTML.html#68,68,1280,881,1280,1024,9-19-2022,15-51-46,74,depth_duration_stimuli/002199_2014-06-28_18-33-56_260595134347_rgbf000074-resize_0/002199_2014-06-28_18-33-56_260595134347_rgbf000074-resize_0-target.png,125,1.996,2,3453,125,feet,jsons/VE125_randls_59.json,697912,1190819,47,Man
74,160168,DepthScenes,duration_manipulation_targetAtFixation,jsons/VE125_randls_59.json,http://54.235.29.9/FacialAge/BNav_EC2/DepthDuration/v2_depth_duration_MTurk/v2_DepthDuration_HTML.html#68,68,1280,881,1280,1024,9-19-2022,15-51-46,75,depth_duration_stimuli/001555_2014-06-20_17-12-10_260595134347_rgbf000065-resize_4/001555_2014-06-20_17-12-10_260595134347_rgbf000065-resize_4-target.png,125,1.633,2,3478,125,feet,jsons/VE125_randls_59.json,697912,1190819,47,Man
75,160168,DepthScenes,duration_manipulation_targetAtFixation,jsons/VE125_randls_59.json,http://54.235.29.9/FacialAge/BNav_EC2/DepthDuration/v2_depth_duration_MTurk/v2_DepthDuration_HTML.html#68,68,1280,881,1280,1024,9-19-2022,15-51-46,76,depth_duration_stimuli/000103_2014-05-14_22-01-17_260595134347_rgbf000152-resize_5/000103_2014-05-14_22-01-17_260595134347_rgbf000152-resize_5-target.png,125,1.993,0,2887,127,feet,jsons/VE125_randls_59.json,697912,1190819,47,Man
76,160168,DepthScenes,duration_manipulation_targetAtFixation,jsons/VE125_randls_59.json,http://54.235.29.9/FacialAge/BNav_EC2/DepthDuration/v2_depth_duration_MTurk/v2_DepthDuration_HTML.html#68,68,1280,881,1280,1024,9-19-2022,15-51-46,77,depth_duration_stimuli/000758_2014-06-08_22-05-08_260595134347_rgbf000085-resize_0/000758_2014-06-08_22-05-08_260595134347_rgbf000085-resize_0-target.png,125,3.3810000000000002,3,3632,123,feet,jsons/VE125_randls_59.json,697912,1190819,47,Man
77,160168,DepthScenes,duration_manipulation_targetAtFixation,jsons/VE125_randls_59.json,http://54.235.29.9/FacialAge/BNav_EC2/DepthDuration/v2_depth_duration_MTurk/v2_DepthDuration_HTML.html#68,68,1280,881,1280,1024,9-19-2022,15-51-46,78,depth_duration_stimuli/000854_2014-06-09_19-43-13_260595134347_rgbf000066-resize_0/000854_2014-06-09_19-43-13_260595134347_rgbf000066-resize_0-target.png,125,3.068,0,9039,122,feet,jsons/VE125_randls_59.json,697912,1190819,47,Man
78,160168,DepthScenes,duration_manipulation_targetAtFixation,jsons/VE125_randls_59.json,http://54.235.29.9/FacialAge/BNav_EC2/DepthDuration/v2_depth_duration_MTurk/v2_DepthDuration_HTML.html#68,68,1280,881,1280,1024,9-19-2022,15-51-46,79,depth_duration_stimuli/000692_2014-06-08_13-09-42_260595134347_rgbf000199-resize_2/000692_2014-06-08_13-09-42_260595134347_rgbf000199-resize_2-target.png,125,3.661,3,3939,135,feet,jsons/VE125_randls_59.json,697912,1190819,47,Man
79,160168,DepthScenes,duration_manipulation_targetAtFixation,jsons/VE125_randls_59.json,http://54.235.29.9/FacialAge/BNav_EC2/DepthDuration/v2_depth_duration_MTurk/v2_DepthDuration_HTML.html#68,68,1280,881,1280,1024,9-19-2022,15-51-46,80,depth_duration_stimuli/001094_2014-06-15_17-36-00_260595134347_rgbf000205-resize_0/001094_2014-06-15_17-36-00_260595134347_rgbf000205-resize_0-target.png,125,4.2175,0,3215,115,feet,jsons/VE125_randls_59.json,697912,1190819,47,Man
80,160168,DepthScenes,duration_manipulation_targetAtFixation,jsons/VE125_randls_59.json,http://54.235.29.9/FacialAge/BNav_EC2/DepthDuration/v2_depth_duration_MTurk/v2_DepthDuration_HTML.html#68,68,1280,881,1280,1024,9-19-2022,15-51-46,81,depth_duration_stimuli/002043_2014-06-24_20-29-38_260595134347_rgbf000039-resize_4/002043_2014-06-24_20-29-38_260595134347_rgbf000039-resize_4-target.png,125,2.8435,2,3473,114,feet,jsons/VE125_randls_59.json,697912,1190819,47,Man
81,160168,DepthScenes,duration_manipulation_targetAtFixation,jsons/VE125_randls_59.json,http://54.235.29.9/FacialAge/BNav_EC2/DepthDuration/v2_depth_duration_MTurk/v2_DepthDuration_HTML.html#68,68,1280,881,1280,1024,9-19-2022,15-51-46,82,depth_duration_stimuli/003048_2014-06-15_13-49-43_094959634447_rgbf000150-resize_1/003048_2014-06-15_13-49-43_094959634447_rgbf000150-resize_1-target.png,125,4.0035,0,2890,125,feet,jsons/VE125_randls_59.json,697912,1190819,47,Man
82,160168,DepthScenes,duration_manipulation_targetAtFixation,jsons/VE125_randls_59.json,http://54.235.29.9/FacialAge/BNav_EC2/DepthDuration/v2_depth_duration_MTurk/v2_DepthDuration_HTML.html#68,68,1280,881,1280,1024,9-19-2022,15-51-46,83,depth_duration_stimuli/002964_2014-06-08_17-46-11_094959634447_rgbf000091-resize_4/002964_2014-06-08_17-46-11_094959634447_rgbf000091-resize_4-target.png,125,1.6909999999999998,2,6060,122,feet,jsons/VE125_randls_59.json,697912,1190819,47,Man
83,160168,DepthScenes,duration_manipulation_targetAtFixation,jsons/VE125_randls_59.json,http://54.235.29.9/FacialAge/BNav_EC2/DepthDuration/v2_depth_duration_MTurk/v2_DepthDuration_HTML.html#68,68,1280,881,1280,1024,9-19-2022,15-51-46,84,depth_duration_stimuli/002136_2014-06-25_21-18-03_260595134347_rgbf000109-resize_3/002136_2014-06-25_21-18-03_260595134347_rgbf000109-resize_3-target.png,125,1.9569999999999999,0,2739,126,feet,jsons/VE125_randls_59.json,697912,1190819,47,Man
84,160168,DepthScenes,duration_manipulation_targetAtFixation,jsons/VE125_randls_59.json,http://54.235.29.9/FacialAge/BNav_EC2/DepthDuration/v2_depth_duration_MTurk/v2_DepthDuration_HTML.html#68,68,1280,881,1280,1024,9-19-2022,15-51-46,85,depth_duration_stimuli/000447_2014-06-08_16-15-46_260595134347_rgbf000130-resize_1/000447_2014-06-08_16-15-46_260595134347_rgbf000130-resize_1-target.png,125,4.479,3,3608,124,feet,jsons/VE125_randls_59.json,697912,1190819,47,Man
85,160168,DepthScenes,duration_manipulation_targetAtFixation,jsons/VE125_randls_59.json,http://54.235.29.9/FacialAge/BNav_EC2/DepthDuration/v2_depth_duration_MTurk/v2_DepthDuration_HTML.html#68,68,1280,881,1280,1024,9-19-2022,15-51-46,86,depth_duration_stimuli/001447_2014-06-19_17-00-32_260595134347_rgbf000082-resize_5/001447_2014-06-19_17-00-32_260595134347_rgbf000082-resize_5-target.png,125,4.13775,0,2922,125,feet,jsons/VE125_randls_59.json,697912,1190819,47,Man
86,160168,DepthScenes,duration_manipulation_targetAtFixation,jsons/VE125_randls_59.json,http://54.235.29.9/FacialAge/BNav_EC2/DepthDuration/v2_depth_duration_MTurk/v2_DepthDuration_HTML.html#68,68,1280,881,1280,1024,9-19-2022,15-51-46,87,depth_duration_stimuli/001059_2014-06-08_21-53-27_260595134347_rgbf000061-resize_4/001059_2014-06-08_21-53-27_260595134347_rgbf000061-resize_4-target.png,125,2.4185,2,3297,123,feet,jsons/VE125_randls_59.json,697912,1190819,47,Man
87,160168,DepthScenes,duration_manipulation_targetAtFixation,jsons/VE125_randls_59.json,http://54.235.29.9/FacialAge/BNav_EC2/DepthDuration/v2_depth_duration_MTurk/v2_DepthDuration_HTML.html#68,68,1280,881,1280,1024,9-19-2022,15-51-46,88,depth_duration_stimuli/001032_2014-06-08_13-23-17_260595134347_rgbf000021-resize_3/001032_2014-06-08_13-23-17_260595134347_rgbf000021-resize_3-target.png,125,3.2725,0,2746,125,feet,jsons/VE125_randls_59.json,697912,1190819,47,Man
88,160168,DepthScenes,duration_manipulation_targetAtFixation,jsons/VE125_randls_59.json,http://54.235.29.9/FacialAge/BNav_EC2/DepthDuration/v2_depth_duration_MTurk/v2_DepthDuration_HTML.html#68,68,1280,881,1280,1024,9-19-2022,15-51-46,89,depth_duration_stimuli/001092_2014-06-15_17-34-58_260595134347_rgbf000171-resize_3/001092_2014-06-15_17-34-58_260595134347_rgbf000171-resize_3-target.png,125,2.6935,2,3301,127,feet,jsons/VE125_randls_59.json,697912,1190819,47,Man
89,160168,DepthScenes,duration_manipulation_targetAtFixation,jsons/VE125_randls_59.json,http://54.235.29.9/FacialAge/BNav_EC2/DepthDuration/v2_depth_duration_MTurk/v2_DepthDuration_HTML.html#68,68,1280,881,1280,1024,9-19-2022,15-51-46,90,depth_duration_stimuli/002545_2014-06-24_13-38-53_094959634447_rgbf000080-resize_4/002545_2014-06-24_13-38-53_094959634447_rgbf000080-resize_4-target.png,125,1.9205,0,2651,125,feet,jsons/VE125_randls_59.json,697912,1190819,47,Man
90,160168,DepthScenes,duration_manipulation_targetAtFixation,jsons/VE125_randls_59.json,http://54.235.29.9/FacialAge/BNav_EC2/DepthDuration/v2_depth_duration_MTurk/v2_DepthDuration_HTML.html#68,68,1280,881,1280,1024,9-19-2022,15-51-46,91,depth_duration_stimuli/002763_2014-06-22_19-13-10_094959634447_rgbf000075-resize_4/002763_2014-06-22_19-13-10_094959634447_rgbf000075-resize_4-target.png,125,1.68375,2,3126,125,feet,jsons/VE125_randls_59.json,697912,1190819,47,Man
91,160168,DepthScenes,duration_manipulation_targetAtFixation,jsons/VE125_randls_59.json,http://54.235.29.9/FacialAge/BNav_EC2/DepthDuration/v2_depth_duration_MTurk/v2_DepthDuration_HTML.html#68,68,1280,881,1280,1024,9-19-2022,15-51-46,92,depth_duration_stimuli/002209_2014-06-28_18-36-10_260595134347_rgbf000051-resize_1/002209_2014-06-28_18-36-10_260595134347_rgbf000051-resize_1-target.png,125,2.057,2,2739,124,feet,jsons/VE125_randls_59.json,697912,1190819,47,Man
92,160168,DepthScenes,duration_manipulation_targetAtFixation,jsons/VE125_randls_59.json,http://54.235.29.9/FacialAge/BNav_EC2/DepthDuration/v2_depth_duration_MTurk/v2_DepthDuration_HTML.html#68,68,1280,881,1280,1024,9-19-2022,15-51-46,93,depth_duration_stimuli/000414_2014-06-04_19-49-13_260595134347_rgbf000044-resize_0/000414_2014-06-04_19-49-13_260595134347_rgbf000044-resize_0-target.png,125,4.329,3,3384,127,feet,jsons/VE125_randls_59.json,697912,1190819,47,Man
93,160168,DepthScenes,duration_manipulation_targetAtFixation,jsons/VE125_randls_59.json,http://54.235.29.9/FacialAge/BNav_EC2/DepthDuration/v2_depth_duration_MTurk/v2_DepthDuration_HTML.html#68,68,1280,881,1280,1024,9-19-2022,15-51-46,94,depth_duration_stimuli/003129_2014-05-12_10-48-10_094959634447_rgbf000100-resize_0/003129_2014-05-12_10-48-10_094959634447_rgbf000100-resize_0-target.png,125,4.9305,0,2733,126,feet,jsons/VE125_randls_59.json,697912,1190819,47,Man
94,160168,DepthScenes,duration_manipulation_targetAtFixation,jsons/VE125_randls_59.json,http://54.235.29.9/FacialAge/BNav_EC2/DepthDuration/v2_depth_duration_MTurk/v2_DepthDuration_HTML.html#68,68,1280,881,1280,1024,9-19-2022,15-51-46,95,depth_duration_stimuli/000929_2014-06-09_16-33-19_260595134347_rgbf000139-resize_0/000929_2014-06-09_16-33-19_260595134347_rgbf000139-resize_0-target.png,125,2.8680000000000003,2,3476,125,feet,jsons/VE125_randls_59.json,697912,1190819,47,Man
95,160168,DepthScenes,duration_manipulation_targetAtFixation,jsons/VE125_randls_59.json,http://54.235.29.9/FacialAge/BNav_EC2/DepthDuration/v2_depth_duration_MTurk/v2_DepthDuration_HTML.html#68,68,1280,881,1280,1024,9-19-2022,15-51-46,96,depth_duration_stimuli/000457_2014-06-08_16-52-43_260595134347_rgbf000199-resize_1/000457_2014-06-08_16-52-43_260595134347_rgbf000199-resize_1-target.png,125,3.6489999999999996,0,2803,125,feet,jsons/VE125_randls_59.json,697912,1190819,47,Man
96,160168,DepthScenes,duration_manipulation_targetAtFixation,jsons/VE125_randls_59.json,http://54.235.29.9/FacialAge/BNav_EC2/DepthDuration/v2_depth_duration_MTurk/v2_DepthDuration_HTML.html#68,68,1280,881,1280,1024,9-19-2022,15-51-46,97,depth_duration_stimuli/001133_2014-06-17_14-49-16_260595134347_rgbf000100-resize_0/001133_2014-06-17_14-49-16_260595134347_rgbf000100-resize_0-target.png,125,4.2115,2,3523,112,feet,jsons/VE125_randls_59.json,697912,1190819,47,Man
97,160168,DepthScenes,duration_manipulation_targetAtFixation,jsons/VE125_randls_59.json,http://54.235.29.9/FacialAge/BNav_EC2/DepthDuration/v2_depth_duration_MTurk/v2_DepthDuration_HTML.html#68,68,1280,881,1280,1024,9-19-2022,15-51-46,98,depth_duration_stimuli/001132_2014-06-17_14-48-54_260595134347_rgbf000100-resize_2/001132_2014-06-17_14-48-54_260595134347_rgbf000100-resize_2-target.png,125,3.753,0,2722,124,feet,jsons/VE125_randls_59.json,697912,1190819,47,Man
98,160168,DepthScenes,duration_manipulation_targetAtFixation,jsons/VE125_randls_59.json,http://54.235.29.9/FacialAge/BNav_EC2/DepthDuration/v2_depth_duration_MTurk/v2_DepthDuration_HTML.html#68,68,1280,881,1280,1024,9-19-2022,15-51-46,99,depth_duration_stimuli/001540_2014-06-20_17-01-05_260595134347_rgbf000086-resize_2/001540_2014-06-20_17-01-05_260595134347_rgbf000086-resize-original.jpg,125,1.459,0,3552,125,feet,jsons/VE125_randls_59.json,697912,1190819,47,Man
99,160168,DepthScenes,duration_manipulation_targetAtFixation,jsons/VE125_randls_59.json,http://54.235.29.9/FacialAge/BNav_EC2/DepthDuration/v2_depth_duration_MTurk/v2_DepthDuration_HTML.html#68,68,1280,881,1280,1024,9-19-2022,15-51-46,100,depth_duration_stimuli/002570_2014-06-24_13-59-54_094959634447_rgbf000059-resize_0/002570_2014-06-24_13-59-54_094959634447_rgbf000059-resize_0-target.png,125,4.037,3,3163,124,feet,jsons/VE125_randls_59.json,697912,1190819,47,Man
100,160168,DepthScenes,duration_manipulation_targetAtFixation,jsons/VE125_randls_59.json,http://54.235.29.9/FacialAge/BNav_EC2/DepthDuration/v2_depth_duration_MTurk/v2_DepthDuration_HTML.html#68,68,1280,881,1280,1024,9-19-2022,15-51-46,101,depth_duration_stimuli/002467_2014-06-28_20-38-07_260595134347_rgbf000026-resize_2/002467_2014-06-28_20-38-07_260595134347_rgbf000026-resize_2-target.png,125,4.742,2,2864,120,feet,jsons/VE125_randls_59.json,697912,1190819,47,Man
101,160168,DepthScenes,duration_manipulation_targetAtFixation,jsons/VE125_randls_59.json,http://54.235.29.9/FacialAge/BNav_EC2/DepthDuration/v2_depth_duration_MTurk/v2_DepthDuration_HTML.html#68,68,1280,881,1280,1024,9-19-2022,15-51-46,102,depth_duration_stimuli/001011_2014-06-08_23-18-54_260595134347_rgbf000044-resize_4/001011_2014-06-08_23-18-54_260595134347_rgbf000044-resize_4-target.png,125,2.4730000000000003,2,2788,128,feet,jsons/VE125_randls_59.json,697912,1190819,47,Man
102,160168,DepthScenes,duration_manipulation_targetAtFixation,jsons/VE125_randls_59.json,http://54.235.29.9/FacialAge/BNav_EC2/DepthDuration/v2_depth_duration_MTurk/v2_DepthDuration_HTML.html#68,68,1280,881,1280,1024,9-19-2022,15-51-46,103,depth_duration_stimuli/002875_2014-06-01_15-19-00_094959634447_rgbf000151-resize_1/002875_2014-06-01_15-19-00_094959634447_rgbf000151-resize_1-target.png,125,1.9675,2,3096,124,feet,jsons/VE125_randls_59.json,697912,1190819,47,Man
103,160168,DepthScenes,duration_manipulation_targetAtFixation,jsons/VE125_randls_59.json,http://54.235.29.9/FacialAge/BNav_EC2/DepthDuration/v2_depth_duration_MTurk/v2_DepthDuration_HTML.html#68,68,1280,881,1280,1024,9-19-2022,15-51-46,104,depth_duration_stimuli/002279_2014-06-28_18-55-32_260595134347_rgbf000040-resize_5/002279_2014-06-28_18-55-32_260595134347_rgbf000040-resize_5-target.png,125,1.5043333333333,2,3739,121,feet,jsons/VE125_randls_59.json,697912,1190819,47,Man
104,160168,DepthScenes,duration_manipulation_targetAtFixation,jsons/VE125_randls_59.json,http://54.235.29.9/FacialAge/BNav_EC2/DepthDuration/v2_depth_duration_MTurk/v2_DepthDuration_HTML.html#68,68,1280,881,1280,1024,9-19-2022,15-51-46,105,depth_duration_stimuli/000635_2014-06-08_16-38-42_260595134347_rgbf000106-resize_1/000635_2014-06-08_16-38-42_260595134347_rgbf000106-resize_1-target.png,125,2.074,0,2739,125,feet,jsons/VE125_randls_59.json,697912,1190819,47,Man
105,160168,DepthScenes,duration_manipulation_targetAtFixation,jsons/VE125_randls_59.json,http://54.235.29.9/FacialAge/BNav_EC2/DepthDuration/v2_depth_duration_MTurk/v2_DepthDuration_HTML.html#68,68,1280,881,1280,1024,9-19-2022,15-51-46,106,depth_duration_stimuli/002630_2014-06-24_14-47-50_094959634447_rgbf000055-resize_1/002630_2014-06-24_14-47-50_094959634447_rgbf000055-resize_1-target.png,125,3.0095,3,3041,123,feet,jsons/VE125_randls_59.json,697912,1190819,47,Man
106,160168,DepthScenes,duration_manipulation_targetAtFixation,jsons/VE125_randls_59.json,http://54.235.29.9/FacialAge/BNav_EC2/DepthDuration/v2_depth_duration_MTurk/v2_DepthDuration_HTML.html#68,68,1280,881,1280,1024,9-19-2022,15-51-46,107,depth_duration_stimuli/002758_2014-06-22_19-11-20_094959634447_rgbf000128-resize_1/002758_2014-06-22_19-11-20_094959634447_rgbf000128-resize_1-target.png,125,2.555,0,2744,128,feet,jsons/VE125_randls_59.json,697912,1190819,47,Man
107,160168,DepthScenes,duration_manipulation_targetAtFixation,jsons/VE125_randls_59.json,http://54.235.29.9/FacialAge/BNav_EC2/DepthDuration/v2_depth_duration_MTurk/v2_DepthDuration_HTML.html#68,68,1280,881,1280,1024,9-19-2022,15-51-46,108,depth_duration_stimuli/000642_2014-06-08_16-59-25_260595134347_rgbf000098-resize_2/000642_2014-06-08_16-59-25_260595134347_rgbf000098-resize_2-target.png,125,2.8815,2,3443,125,feet,jsons/VE125_randls_59.json,697912,1190819,47,Man
108,160168,DepthScenes,duration_manipulation_targetAtFixation,jsons/VE125_randls_59.json,http://54.235.29.9/FacialAge/BNav_EC2/DepthDuration/v2_depth_duration_MTurk/v2_DepthDuration_HTML.html#68,68,1280,881,1280,1024,9-19-2022,15-51-46,109,depth_duration_stimuli/002425_2014-06-28_20-27-29_260595134347_rgbf000031-resize_8/002425_2014-06-28_20-27-29_260595134347_rgbf000031-resize_8-target.png,125,3.8960000000000004,3,3274,121,feet,jsons/VE125_randls_59.json,697912,1190819,47,Man
109,160168,DepthScenes,duration_manipulation_targetAtFixation,jsons/VE125_randls_59.json,http://54.235.29.9/FacialAge/BNav_EC2/DepthDuration/v2_depth_duration_MTurk/v2_DepthDuration_HTML.html#68,68,1280,881,1280,1024,9-19-2022,15-51-46,110,depth_duration_stimuli/002118_2014-06-25_20-32-08_260595134347_rgbf000078-resize_1/002118_2014-06-25_20-32-08_260595134347_rgbf000078-resize_1-target.png,125,2.6460000000000004,2,3189,126,feet,jsons/VE125_randls_59.json,697912,1190819,47,Man
110,160168,DepthScenes,duration_manipulation_targetAtFixation,jsons/VE125_randls_59.json,http://54.235.29.9/FacialAge/BNav_EC2/DepthDuration/v2_depth_duration_MTurk/v2_DepthDuration_HTML.html#68,68,1280,881,1280,1024,9-19-2022,15-51-46,111,depth_duration_stimuli/001516_2014-06-20_16-25-09_260595134347_rgbf000076-resize_2/001516_2014-06-20_16-25-09_260595134347_rgbf000076-resize_2-target.png,125,1.7445,2,2908,140,feet,jsons/VE125_randls_59.json,697912,1190819,47,Man
111,160168,DepthScenes,duration_manipulation_targetAtFixation,jsons/VE125_randls_59.json,http://54.235.29.9/FacialAge/BNav_EC2/DepthDuration/v2_depth_duration_MTurk/v2_DepthDuration_HTML.html#68,68,1280,881,1280,1024,9-19-2022,15-51-46,112,depth_duration_stimuli/003492_2014-05-21_15-50-55_094959634447_rgbf000828-resize_1/003492_2014-05-21_15-50-55_094959634447_rgbf000828-resize_1-target.png,125,4.06875,3,3522,126,feet,jsons/VE125_randls_59.json,697912,1190819,47,Man
112,160168,DepthScenes,duration_manipulation_targetAtFixation,jsons/VE125_randls_59.json,http://54.235.29.9/FacialAge/BNav_EC2/DepthDuration/v2_depth_duration_MTurk/v2_DepthDuration_HTML.html#68,68,1280,881,1280,1024,9-19-2022,15-51-46,113,depth_duration_stimuli/002568_2014-06-24_13-59-21_094959634447_rgbf000062-resize_4/002568_2014-06-24_13-59-21_094959634447_rgbf000062-resize_4-target.png,125,3.015,2,4759,127,feet,jsons/VE125_randls_59.json,697912,1190819,47,Man
113,160168,DepthScenes,duration_manipulation_targetAtFixation,jsons/VE125_randls_59.json,http://54.235.29.9/FacialAge/BNav_EC2/DepthDuration/v2_depth_duration_MTurk/v2_DepthDuration_HTML.html#68,68,1280,881,1280,1024,9-19-2022,15-51-46,114,depth_duration_stimuli/001175_2014-06-17_15-45-55_260595134347_rgbf000129-resize_4/001175_2014-06-17_15-45-55_260595134347_rgbf000129-resize_4-target.png,125,4.255,4,4719,125,feet,jsons/VE125_randls_59.json,697912,1190819,47,Man
114,160168,DepthScenes,duration_manipulation_targetAtFixation,jsons/VE125_randls_59.json,http://54.235.29.9/FacialAge/BNav_EC2/DepthDuration/v2_depth_duration_MTurk/v2_DepthDuration_HTML.html#68,68,1280,881,1280,1024,9-19-2022,15-51-46,115,depth_duration_stimuli/003490_2014-05-21_15-50-11_094959634447_rgbf000101-resize_3/003490_2014-05-21_15-50-11_094959634447_rgbf000101-resize_3-target.png,125,3.6445,2,3089,125,feet,jsons/VE125_randls_59.json,697912,1190819,47,Man
115,160168,DepthScenes,duration_manipulation_targetAtFixation,jsons/VE125_randls_59.json,http://54.235.29.9/FacialAge/BNav_EC2/DepthDuration/v2_depth_duration_MTurk/v2_DepthDuration_HTML.html#68,68,1280,881,1280,1024,9-19-2022,15-51-46,116,depth_duration_stimuli/001170_2014-06-17_15-43-44_260595134347_rgbf000096-resize_6/001170_2014-06-17_15-43-44_260595134347_rgbf000096-resize-original.jpg,125,1.1909999999999998,0,3929,122,feet,jsons/VE125_randls_59.json,697912,1190819,47,Man
116,160168,DepthScenes,duration_manipulation_targetAtFixation,jsons/VE125_randls_59.json,http://54.235.29.9/FacialAge/BNav_EC2/DepthDuration/v2_depth_duration_MTurk/v2_DepthDuration_HTML.html#68,68,1280,881,1280,1024,9-19-2022,15-51-46,117,depth_duration_stimuli/000470_2014-06-09_19-42-40_260595134347_rgbf000094-resize_1/000470_2014-06-09_19-42-40_260595134347_rgbf000094-resize_1-target.png,125,1.831,3,4236,128,feet,jsons/VE125_randls_59.json,697912,1190819,47,Man
117,160168,DepthScenes,duration_manipulation_targetAtFixation,jsons/VE125_randls_59.json,http://54.235.29.9/FacialAge/BNav_EC2/DepthDuration/v2_depth_duration_MTurk/v2_DepthDuration_HTML.html#68,68,1280,881,1280,1024,9-19-2022,15-51-46,118,depth_duration_stimuli/000109_2014-05-14_23-41-52_260595134347_rgbf000035-resize_9/000109_2014-05-14_23-41-52_260595134347_rgbf000035-resize_9-target.png,125,1.3545,2,2966,124,feet,jsons/VE125_randls_59.json,697912,1190819,47,Man
118,160168,DepthScenes,duration_manipulation_targetAtFixation,jsons/VE125_randls_59.json,http://54.235.29.9/FacialAge/BNav_EC2/DepthDuration/v2_depth_duration_MTurk/v2_DepthDuration_HTML.html#68,68,1280,881,1280,1024,9-19-2022,15-51-46,119,depth_duration_stimuli/001029_2014-06-08_13-17-57_260595134347_rgbf000065-resize_1/001029_2014-06-08_13-17-57_260595134347_rgbf000065-resize_1-target.png,125,3.0835,2,3404,126,feet,jsons/VE125_randls_59.json,697912,1190819,47,Man
119,160168,DepthScenes,duration_manipulation_targetAtFixation,jsons/VE125_randls_59.json,http://54.235.29.9/FacialAge/BNav_EC2/DepthDuration/v2_depth_duration_MTurk/v2_DepthDuration_HTML.html#68,68,1280,881,1280,1024,9-19-2022,15-51-46,120,depth_duration_stimuli/000677_2014-06-08_23-10-32_260595134347_rgbf000158-resize_6/000677_2014-06-08_23-10-32_260595134347_rgbf000158-resize_6-target.png,125,3.556,0,2886,125,feet,jsons/VE125_randls_59.json,697912,1190819,47,Man
120,160168,DepthScenes,duration_manipulation_targetAtFixation,jsons/VE125_randls_59.json,http://54.235.29.9/FacialAge/BNav_EC2/DepthDuration/v2_depth_duration_MTurk/v2_DepthDuration_HTML.html#68,68,1280,881,1280,1024,9-19-2022,15-51-46,121,depth_duration_stimuli/000522_2014-06-08_13-35-06_260595134347_rgbf000244-resize_1/000522_2014-06-08_13-35-06_260595134347_rgbf000244-resize_1-target.png,125,2.3715,2,3106,125,feet,jsons/VE125_randls_59.json,697912,1190819,47,Man
121,160168,DepthScenes,duration_manipulation_targetAtFixation,jsons/VE125_randls_59.json,http://54.235.29.9/FacialAge/BNav_EC2/DepthDuration/v2_depth_duration_MTurk/v2_DepthDuration_HTML.html#68,68,1280,881,1280,1024,9-19-2022,15-51-46,122,depth_duration_stimuli/002949_2014-06-26_15-57-42_094959634447_rgbf000079-resize_1/002949_2014-06-26_15-57-42_094959634447_rgbf000079-resize_1-target.png,125,1.8915,2,3190,123,feet,jsons/VE125_randls_59.json,697912,1190819,47,Man
122,160168,DepthScenes,duration_manipulation_targetAtFixation,jsons/VE125_randls_59.json,http://54.235.29.9/FacialAge/BNav_EC2/DepthDuration/v2_depth_duration_MTurk/v2_DepthDuration_HTML.html#68,68,1280,881,1280,1024,9-19-2022,15-51-46,123,depth_duration_stimuli/000917_2014-06-09_22-45-29_260595134347_rgbf000149-resize_3/000917_2014-06-09_22-45-29_260595134347_rgbf000149-resize_3-target.png,125,4.1865,3,3567,129,feet,jsons/VE125_randls_59.json,697912,1190819,47,Man
123,160168,DepthScenes,duration_manipulation_targetAtFixation,jsons/VE125_randls_59.json,http://54.235.29.9/FacialAge/BNav_EC2/DepthDuration/v2_depth_duration_MTurk/v2_DepthDuration_HTML.html#68,68,1280,881,1280,1024,9-19-2022,15-51-46,124,depth_duration_stimuli/002323_2014-06-28_20-01-54_260595134347_rgbf000051-resize_4/002323_2014-06-28_20-01-54_260595134347_rgbf000051-resize_4-target.png,125,3.7310000000000003,2,2899,112,feet,jsons/VE125_randls_59.json,697912,1190819,47,Man
124,160168,DepthScenes,duration_manipulation_targetAtFixation,jsons/VE125_randls_59.json,http://54.235.29.9/FacialAge/BNav_EC2/DepthDuration/v2_depth_duration_MTurk/v2_DepthDuration_HTML.html#68,68,1280,881,1280,1024,9-19-2022,15-51-46,125,depth_duration_stimuli/000486_2014-06-09_20-47-20_260595134347_rgbf000143-resize_2/000486_2014-06-09_20-47-20_260595134347_rgbf000143-resize_2-target.png,125,4.8325,3,3734,123,feet,jsons/VE125_randls_59.json,697912,1190819,47,Man
125,160168,DepthScenes,duration_manipulation_targetAtFixation,jsons/VE125_randls_59.json,http://54.235.29.9/FacialAge/BNav_EC2/DepthDuration/v2_depth_duration_MTurk/v2_DepthDuration_HTML.html#68,68,1280,881,1280,1024,9-19-2022,15-51-46,126,depth_duration_stimuli/003083_2014-06-15_15-21-03_094959634447_rgbf000063-resize_1/003083_2014-06-15_15-21-03_094959634447_rgbf000063-resize_1-target.png,125,4.1405,2,2918,123,feet,jsons/VE125_randls_59.json,697912,1190819,47,Man
126,160168,DepthScenes,duration_manipulation_targetAtFixation,jsons/VE125_randls_59.json,http://54.235.29.9/FacialAge/BNav_EC2/DepthDuration/v2_depth_duration_MTurk/v2_DepthDuration_HTML.html#68,68,1280,881,1280,1024,9-19-2022,15-51-46,127,depth_duration_stimuli/001810_2014-06-26_20-51-35_260595134347_rgbf000040-resize_3/001810_2014-06-26_20-51-35_260595134347_rgbf000040-resize_3-target.png,125,2.2525,2,9288,124,feet,jsons/VE125_randls_59.json,697912,1190819,47,Man
127,160168,DepthScenes,duration_manipulation_targetAtFixation,jsons/VE125_randls_59.json,http://54.235.29.9/FacialAge/BNav_EC2/DepthDuration/v2_depth_duration_MTurk/v2_DepthDuration_HTML.html#68,68,1280,881,1280,1024,9-19-2022,15-51-46,128,depth_duration_stimuli/003010_2014-06-15_12-54-35_094959634447_rgbf000112-resize_0/003010_2014-06-15_12-54-35_094959634447_rgbf000112-resize_0-target.png,125,3.1185,4,3662,120,feet,jsons/VE125_randls_59.json,697912,1190819,47,Man
128,160168,DepthScenes,duration_manipulation_targetAtFixation,jsons/VE125_randls_59.json,http://54.235.29.9/FacialAge/BNav_EC2/DepthDuration/v2_depth_duration_MTurk/v2_DepthDuration_HTML.html#68,68,1280,881,1280,1024,9-19-2022,15-51-46,129,depth_duration_stimuli/002549_2014-06-24_13-41-39_094959634447_rgbf000022-resize_3/002549_2014-06-24_13-41-39_094959634447_rgbf000022-resize_3-target.png,125,1.476,2,3977,123,feet,jsons/VE125_randls_59.json,697912,1190819,47,Man
129,160168,DepthScenes,duration_manipulation_targetAtFixation,jsons/VE125_randls_59.json,http://54.235.29.9/FacialAge/BNav_EC2/DepthDuration/v2_depth_duration_MTurk/v2_DepthDuration_HTML.html#68,68,1280,881,1280,1024,9-19-2022,15-51-46,130,depth_duration_stimuli/002750_2014-06-22_19-08-03_094959634447_rgbf000094-resize_4/002750_2014-06-22_19-08-03_094959634447_rgbf000094-resize_4-target.png,125,2.354,2,2867,126,feet,jsons/VE125_randls_59.json,697912,1190819,47,Man
130,160168,DepthScenes,duration_manipulation_targetAtFixation,jsons/VE125_randls_59.json,http://54.235.29.9/FacialAge/BNav_EC2/DepthDuration/v2_depth_duration_MTurk/v2_DepthDuration_HTML.html#68,68,1280,881,1280,1024,9-19-2022,15-51-46,131,depth_duration_stimuli/002784_2014-06-22_19-26-30_094959634447_rgbf000083-resize_3/002784_2014-06-22_19-26-30_094959634447_rgbf000083-resize_3-target.png,125,1.8046666666667,3,3874,125,feet,jsons/VE125_randls_59.json,697912,1190819,47,Man
131,160168,DepthScenes,duration_manipulation_targetAtFixation,jsons/VE125_randls_59.json,http://54.235.29.9/FacialAge/BNav_EC2/DepthDuration/v2_depth_duration_MTurk/v2_DepthDuration_HTML.html#68,68,1280,881,1280,1024,9-19-2022,15-51-46,132,depth_duration_stimuli/001100_2014-06-15_17-46-26_260595134347_rgbf000225-resize_2/001100_2014-06-15_17-46-26_260595134347_rgbf000225-resize_2-target.png,125,2.24,2,2987,123,feet,jsons/VE125_randls_59.json,697912,1190819,47,Man
132,160168,DepthScenes,duration_manipulation_targetAtFixation,jsons/VE125_randls_59.json,http://54.235.29.9/FacialAge/BNav_EC2/DepthDuration/v2_depth_duration_MTurk/v2_DepthDuration_HTML.html#68,68,1280,881,1280,1024,9-19-2022,15-51-46,133,depth_duration_stimuli/002725_2014-06-22_11-47-51_094959634447_rgbf000070-resize_1/002725_2014-06-22_11-47-51_094959634447_rgbf000070-resize_1-target.png,125,2.195,3,3837,123,feet,jsons/VE125_randls_59.json,697912,1190819,47,Man
133,160168,DepthScenes,duration_manipulation_targetAtFixation,jsons/VE125_randls_59.json,http://54.235.29.9/FacialAge/BNav_EC2/DepthDuration/v2_depth_duration_MTurk/v2_DepthDuration_HTML.html#68,68,1280,881,1280,1024,9-19-2022,15-51-46,134,depth_duration_stimuli/002344_2014-06-28_20-06-29_260595134347_rgbf000030-resize_1/002344_2014-06-28_20-06-29_260595134347_rgbf000030-resize_1-target.png,125,1.5795,3,3052,128,feet,jsons/VE125_randls_59.json,697912,1190819,47,Man
134,160168,DepthScenes,duration_manipulation_targetAtFixation,jsons/VE125_randls_59.json,http://54.235.29.9/FacialAge/BNav_EC2/DepthDuration/v2_depth_duration_MTurk/v2_DepthDuration_HTML.html#68,68,1280,881,1280,1024,9-19-2022,15-51-46,135,depth_duration_stimuli/002072_2014-06-24_21-48-06_260595134347_rgbf000115-resize_0/002072_2014-06-24_21-48-06_260595134347_rgbf000115-resize-original.jpg,125,4.702,0,3378,126,feet,jsons/VE125_randls_59.json,697912,1190819,47,Man
135,160168,DepthScenes,duration_manipulation_targetAtFixation,jsons/VE125_randls_59.json,http://54.235.29.9/FacialAge/BNav_EC2/DepthDuration/v2_depth_duration_MTurk/v2_DepthDuration_HTML.html#68,68,1280,881,1280,1024,9-19-2022,15-51-46,136,depth_duration_stimuli/001570_2014-06-20_17-21-09_260595134347_rgbf000135-resize_4/001570_2014-06-20_17-21-09_260595134347_rgbf000135-resize_4-target.png,125,4.467,3,3635,222,feet,jsons/VE125_randls_59.json,697912,1190819,47,Man
136,160168,DepthScenes,duration_manipulation_targetAtFixation,jsons/VE125_randls_59.json,http://54.235.29.9/FacialAge/BNav_EC2/DepthDuration/v2_depth_duration_MTurk/v2_DepthDuration_HTML.html#68,68,1280,881,1280,1024,9-19-2022,15-51-46,137,depth_duration_stimuli/001392_2014-06-19_16-07-59_260595134347_rgbf000046-resize_1/001392_2014-06-19_16-07-59_260595134347_rgbf000046-resize_1-target.png,125,4.135,2,9635,125,feet,jsons/VE125_randls_59.json,697912,1190819,47,Man
137,160168,DepthScenes,duration_manipulation_targetAtFixation,jsons/VE125_randls_59.json,http://54.235.29.9/FacialAge/BNav_EC2/DepthDuration/v2_depth_duration_MTurk/v2_DepthDuration_HTML.html#68,68,1280,881,1280,1024,9-19-2022,15-51-46,138,depth_duration_stimuli/002663_2014-06-13_15-50-26_094959634447_rgbf000075-resize_1/002663_2014-06-13_15-50-26_094959634447_rgbf000075-resize_1-target.png,125,4.7495,3,4027,125,feet,jsons/VE125_randls_59.json,697912,1190819,47,Man
138,160168,DepthScenes,duration_manipulation_targetAtFixation,jsons/VE125_randls_59.json,http://54.235.29.9/FacialAge/BNav_EC2/DepthDuration/v2_depth_duration_MTurk/v2_DepthDuration_HTML.html#68,68,1280,881,1280,1024,9-19-2022,15-51-46,139,depth_duration_stimuli/000409_2014-06-04_19-23-33_260595134347_rgbf000067-resize_0/000409_2014-06-04_19-23-33_260595134347_rgbf000067-resize_0-target.png,125,3.7335,2,3320,125,feet,jsons/VE125_randls_59.json,697912,1190819,47,Man
139,160168,DepthScenes,duration_manipulation_targetAtFixation,jsons/VE125_randls_59.json,http://54.235.29.9/FacialAge/BNav_EC2/DepthDuration/v2_depth_duration_MTurk/v2_DepthDuration_HTML.html#68,68,1280,881,1280,1024,9-19-2022,15-51-46,140,depth_duration_stimuli/000009_2014-05-26_14-32-05_260595134347_rgbf000034-resize_3/000009_2014-05-26_14-32-05_260595134347_rgbf000034-resize_3-target.png,125,3.8715,3,3704,124,feet,jsons/VE125_randls_59.json,697912,1190819,47,Man
140,160168,DepthScenes,duration_manipulation_targetAtFixation,jsons/VE125_randls_59.json,http://54.235.29.9/FacialAge/BNav_EC2/DepthDuration/v2_depth_duration_MTurk/v2_DepthDuration_HTML.html#68,68,1280,881,1280,1024,9-19-2022,15-51-46,141,depth_duration_stimuli/001828_2014-06-26_21-40-03_260595134347_rgbf000024-resize_0/001828_2014-06-26_21-40-03_260595134347_rgbf000024-resize_0-target.png,125,4.8260000000000005,0,2891,128,feet,jsons/VE125_randls_59.json,697912,1190819,47,Man
141,160168,DepthScenes,duration_manipulation_targetAtFixation,jsons/VE125_randls_59.json,http://54.235.29.9/FacialAge/BNav_EC2/DepthDuration/v2_depth_duration_MTurk/v2_DepthDuration_HTML.html#68,68,1280,881,1280,1024,9-19-2022,15-51-46,142,depth_duration_stimuli/002272_2014-06-28_18-53-56_260595134347_rgbf000067-resize_2/002272_2014-06-28_18-53-56_260595134347_rgbf000067-resize_2-target.png,125,1.138,2,4146,124,feet,jsons/VE125_randls_59.json,697912,1190819,47,Man
142,160168,DepthScenes,duration_manipulation_targetAtFixation,jsons/VE125_randls_59.json,http://54.235.29.9/FacialAge/BNav_EC2/DepthDuration/v2_depth_duration_MTurk/v2_DepthDuration_HTML.html#68,68,1280,881,1280,1024,9-19-2022,15-51-46,143,depth_duration_stimuli/001571_2014-06-20_17-21-32_260595134347_rgbf000089-resize_1/001571_2014-06-20_17-21-32_260595134347_rgbf000089-resize_1-target.png,125,1.86,2,5692,125,feet,jsons/VE125_randls_59.json,697912,1190819,47,Man
143,160168,DepthScenes,duration_manipulation_targetAtFixation,jsons/VE125_randls_59.json,http://54.235.29.9/FacialAge/BNav_EC2/DepthDuration/v2_depth_duration_MTurk/v2_DepthDuration_HTML.html#68,68,1280,881,1280,1024,9-19-2022,15-51-46,144,depth_duration_stimuli/002600_2014-06-24_14-27-04_094959634447_rgbf000074-resize_2/002600_2014-06-24_14-27-04_094959634447_rgbf000074-resize_2-target.png,125,2.7575,2,4285,124,feet,jsons/VE125_randls_59.json,697912,1190819,47,Man
144,160168,DepthScenes,duration_manipulation_targetAtFixation,jsons/VE125_randls_59.json,http://54.235.29.9/FacialAge/BNav_EC2/DepthDuration/v2_depth_duration_MTurk/v2_DepthDuration_HTML.html#68,68,1280,881,1280,1024,9-19-2022,15-51-46,145,depth_duration_stimuli/003228_2014-05-14_13-42-35_094959634447_rgbf000101-resize_1/003228_2014-05-14_13-42-35_094959634447_rgbf000101-resize_1-target.png,125,1.9680000000000002,1,3180,125,feet,jsons/VE125_randls_59.json,697912,1190819,47,Man
145,160168,DepthScenes,duration_manipulation_targetAtFixation,jsons/VE125_randls_59.json,http://54.235.29.9/FacialAge/BNav_EC2/DepthDuration/v2_depth_duration_MTurk/v2_DepthDuration_HTML.html#68,68,1280,881,1280,1024,9-19-2022,15-51-46,146,depth_duration_stimuli/001498_2014-06-19_17-45-14_260595134347_rgbf000129-resize_4/001498_2014-06-19_17-45-14_260595134347_rgbf000129-resize-original.jpg,125,1.4075,0,3100,125,feet,jsons/VE125_randls_59.json,697912,1190819,47,Man
146,160168,DepthScenes,duration_manipulation_targetAtFixation,jsons/VE125_randls_59.json,http://54.235.29.9/FacialAge/BNav_EC2/DepthDuration/v2_depth_duration_MTurk/v2_DepthDuration_HTML.html#68,68,1280,881,1280,1024,9-19-2022,15-51-46,147,depth_duration_stimuli/002445_2014-06-28_20-32-16_260595134347_rgbf000029-resize_4/002445_2014-06-28_20-32-16_260595134347_rgbf000029-resize_4-target.png,125,2.5315,2,3109,106,feet,jsons/VE125_randls_59.json,697912,1190819,47,Man
147,160168,DepthScenes,duration_manipulation_targetAtFixation,jsons/VE125_randls_59.json,http://54.235.29.9/FacialAge/BNav_EC2/DepthDuration/v2_depth_duration_MTurk/v2_DepthDuration_HTML.html#68,68,1280,881,1280,1024,9-19-2022,15-51-46,148,depth_duration_stimuli/000780_2014-06-08_22-28-29_260595134347_rgbf000126-resize_1/000780_2014-06-08_22-28-29_260595134347_rgbf000126-resize_1-target.png,125,3.3825,2,4027,125,feet,jsons/VE125_randls_59.json,697912,1190819,47,Man
148,160168,DepthScenes,duration_manipulation_targetAtFixation,jsons/VE125_randls_59.json,http://54.235.29.9/FacialAge/BNav_EC2/DepthDuration/v2_depth_duration_MTurk/v2_DepthDuration_HTML.html#68,68,1280,881,1280,1024,9-19-2022,15-51-46,149,depth_duration_stimuli/001417_2014-06-19_16-25-36_260595134347_rgbf000115-resize_5/001417_2014-06-19_16-25-36_260595134347_rgbf000115-resize_5-target.png,125,4.6255,3,3038,124,feet,jsons/VE125_randls_59.json,697912,1190819,47,Man
149,160168,DepthScenes,duration_manipulation_targetAtFixation,jsons/VE125_randls_59.json,http://54.235.29.9/FacialAge/BNav_EC2/DepthDuration/v2_depth_duration_MTurk/v2_DepthDuration_HTML.html#68,68,1280,881,1280,1024,9-19-2022,15-51-46,150,depth_duration_stimuli/003081_2014-06-15_15-19-16_094959634447_rgbf000150-resize_1/003081_2014-06-15_15-19-16_094959634447_rgbf000150-resize_1-target.png,125,3.9125,2,2901,131,feet,jsons/VE125_randls_59.json,697912,1190819,47,Man
150,160168,DepthScenes,duration_manipulation_targetAtFixation,jsons/VE125_randls_59.json,http://54.235.29.9/FacialAge/BNav_EC2/DepthDuration/v2_depth_duration_MTurk/v2_DepthDuration_HTML.html#68,68,1280,881,1280,1024,9-19-2022,15-51-46,151,depth_duration_stimuli/001244_2014-06-17_16-47-45_260595134347_rgbf000030-resize_4/001244_2014-06-17_16-47-45_260595134347_rgbf000030-resize_4-target.png,125,2.0425,2,3516,125,feet,jsons/VE125_randls_59.json,697912,1190819,47,Man
151,160168,DepthScenes,duration_manipulation_targetAtFixation,jsons/VE125_randls_59.json,http://54.235.29.9/FacialAge/BNav_EC2/DepthDuration/v2_depth_duration_MTurk/v2_DepthDuration_HTML.html#68,68,1280,881,1280,1024,9-19-2022,15-51-46,152,depth_duration_stimuli/003495_2014-05-21_16-01-51_094959634447_rgbf000100-resize_3/003495_2014-05-21_16-01-51_094959634447_rgbf000100-resize_3-target.png,125,1.6255,2,3139,125,feet,jsons/VE125_randls_59.json,697912,1190819,47,Man
152,160168,DepthScenes,duration_manipulation_targetAtFixation,jsons/VE125_randls_59.json,http://54.235.29.9/FacialAge/BNav_EC2/DepthDuration/v2_depth_duration_MTurk/v2_DepthDuration_HTML.html#68,68,1280,881,1280,1024,9-19-2022,15-51-46,153,depth_duration_stimuli/000368_2014-06-09_15-53-01_260595134347_rgbf000155-resize_2/000368_2014-06-09_15-53-01_260595134347_rgbf000155-resize_2-target.png,125,2.4859999999999998,3,3337,124,feet,jsons/VE125_randls_59.json,697912,1190819,47,Man
153,160168,DepthScenes,duration_manipulation_targetAtFixation,jsons/VE125_randls_59.json,http://54.235.29.9/FacialAge/BNav_EC2/DepthDuration/v2_depth_duration_MTurk/v2_DepthDuration_HTML.html#68,68,1280,881,1280,1024,9-19-2022,15-51-46,154,depth_duration_stimuli/002678_2014-06-13_16-15-32_094959634447_rgbf000151-resize_6/002678_2014-06-13_16-15-32_094959634447_rgbf000151-resize_6-target.png,125,2.1830000000000003,2,2931,121,feet,jsons/VE125_randls_59.json,697912,1190819,47,Man
154,160168,DepthScenes,duration_manipulation_targetAtFixation,jsons/VE125_randls_59.json,http://54.235.29.9/FacialAge/BNav_EC2/DepthDuration/v2_depth_duration_MTurk/v2_DepthDuration_HTML.html#68,68,1280,881,1280,1024,9-19-2022,15-51-46,155,depth_duration_stimuli/000493_2014-06-09_21-01-18_260595134347_rgbf000196-resize_3/000493_2014-06-09_21-01-18_260595134347_rgbf000196-resize_3-target.png,125,3.44,3,2940,123,feet,jsons/VE125_randls_59.json,697912,1190819,47,Man
155,160168,DepthScenes,duration_manipulation_targetAtFixation,jsons/VE125_randls_59.json,http://54.235.29.9/FacialAge/BNav_EC2/DepthDuration/v2_depth_duration_MTurk/v2_DepthDuration_HTML.html#68,68,1280,881,1280,1024,9-19-2022,15-51-46,156,depth_duration_stimuli/000191_2014-05-12_17-07-38_260595134347_rgbf000199-resize_0/000191_2014-05-12_17-07-38_260595134347_rgbf000199-resize_0-target.png,125,3.7995,0,2763,126,feet,jsons/VE125_randls_59.json,697912,1190819,47,Man
156,160168,DepthScenes,duration_manipulation_targetAtFixation,jsons/VE125_randls_59.json,http://54.235.29.9/FacialAge/BNav_EC2/DepthDuration/v2_depth_duration_MTurk/v2_DepthDuration_HTML.html#68,68,1280,881,1280,1024,9-19-2022,15-51-46,157,depth_duration_stimuli/002988_2014-06-15_12-24-20_094959634447_rgbf000150-resize_1/002988_2014-06-15_12-24-20_094959634447_rgbf000150-resize_1-target.png,125,4.7669999999999995,4,3219,124,feet,jsons/VE125_randls_59.json,697912,1190819,47,Man
157,160168,DepthScenes,duration_manipulation_targetAtFixation,jsons/VE125_randls_59.json,http://54.235.29.9/FacialAge/BNav_EC2/DepthDuration/v2_depth_duration_MTurk/v2_DepthDuration_HTML.html#68,68,1280,881,1280,1024,9-19-2022,15-51-46,158,depth_duration_stimuli/001052_2014-06-08_18-24-54_260595134347_rgbf000130-resize_1/001052_2014-06-08_18-24-54_260595134347_rgbf000130-resize_1-target.png,125,4.1045,2,3265,116,feet,jsons/VE125_randls_59.json,697912,1190819,47,Man
158,160168,DepthScenes,duration_manipulation_targetAtFixation,jsons/VE125_randls_59.json,http://54.235.29.9/FacialAge/BNav_EC2/DepthDuration/v2_depth_duration_MTurk/v2_DepthDuration_HTML.html#68,68,1280,881,1280,1024,9-19-2022,15-51-46,159,depth_duration_stimuli/002788_2014-06-22_19-36-03_094959634447_rgbf000088-resize_2/002788_2014-06-22_19-36-03_094959634447_rgbf000088-resize_2-target.png,125,1.6465,3,3656,127,feet,jsons/VE125_randls_59.json,697912,1190819,47,Man
159,160168,DepthScenes,duration_manipulation_targetAtFixation,jsons/VE125_randls_59.json,http://54.235.29.9/FacialAge/BNav_EC2/DepthDuration/v2_depth_duration_MTurk/v2_DepthDuration_HTML.html#68,68,1280,881,1280,1024,9-19-2022,15-51-46,160,depth_duration_stimuli/000749_2014-06-08_21-55-06_260595134347_rgbf000070-resize_2/000749_2014-06-08_21-55-06_260595134347_rgbf000070-resize_2-target.png,125,2.331,2,3102,124,feet,jsons/VE125_randls_59.json,697912,1190819,47,Man
160,160168,DepthScenes,duration_manipulation_targetAtFixation,jsons/VE125_randls_59.json,http://54.235.29.9/FacialAge/BNav_EC2/DepthDuration/v2_depth_duration_MTurk/v2_DepthDuration_HTML.html#68,68,1280,881,1280,1024,9-19-2022,15-51-46,161,depth_duration_stimuli/000739_2014-06-08_18-45-58_260595134347_rgbf000068-resize_1/000739_2014-06-08_18-45-58_260595134347_rgbf000068-resize_1-target.png,125,3.534,4,4115,125,feet,jsons/VE125_randls_59.json,697912,1190819,47,Man
161,160168,DepthScenes,duration_manipulation_targetAtFixation,jsons/VE125_randls_59.json,http://54.235.29.9/FacialAge/BNav_EC2/DepthDuration/v2_depth_duration_MTurk/v2_DepthDuration_HTML.html#68,68,1280,881,1280,1024,9-19-2022,15-51-46,162,depth_duration_stimuli/000734_2014-06-08_17-39-11_260595134347_rgbf000128-resize_2/000734_2014-06-08_17-39-11_260595134347_rgbf000128-resize_2-target.png,125,4.098,3,3497,124,feet,jsons/VE125_randls_59.json,697912,1190819,47,Man
162,160168,DepthScenes,duration_manipulation_targetAtFixation,jsons/VE125_randls_59.json,http://54.235.29.9/FacialAge/BNav_EC2/DepthDuration/v2_depth_duration_MTurk/v2_DepthDuration_HTML.html#68,68,1280,881,1280,1024,9-19-2022,15-51-46,163,depth_duration_stimuli/001055_2014-06-08_18-45-35_260595134347_rgbf000111-resize_4/001055_2014-06-08_18-45-35_260595134347_rgbf000111-resize_4-target.png,125,2.4290000000000003,3,4010,134,feet,jsons/VE125_randls_59.json,697912,1190819,47,Man
163,160168,DepthScenes,duration_manipulation_targetAtFixation,jsons/VE125_randls_59.json,http://54.235.29.9/FacialAge/BNav_EC2/DepthDuration/v2_depth_duration_MTurk/v2_DepthDuration_HTML.html#68,68,1280,881,1280,1024,9-19-2022,15-51-46,164,depth_duration_stimuli/000549_2014-06-08_22-10-24_260595134347_rgbf000247-resize_3/000549_2014-06-08_22-10-24_260595134347_rgbf000247-resize_3-target.png,125,1.841,3,3281,124,feet,jsons/VE125_randls_59.json,697912,1190819,47,Man
