,subjID,experimentName,versionName,sequenceName,url,selected_row,windowWidth,windowHeight,screenWidth,screenHeight,startDate,startTime,trial,stimulus,duration,actual_depth,depth_estimate,trial_RT,log_sceneDuration,unitSelection,seq_filepath,experimentTime,totalTime,age,gender
0,163803,DepthScenes,duration_manipulation_targetAtFixation,jsons/VE125_randls_9.json,http://54.235.29.9/FacialAge/BNav_EC2/DepthDuration/v2_depth_duration_MTurk/v2_DepthDuration_HTML.html#136,136,1440,789,1440,900,8-21-2022,9-48-29,1,depth_duration_stimuli/000470_2014-06-09_19-42-40_260595134347_rgbf000094-resize_1/000470_2014-06-09_19-42-40_260595134347_rgbf000094-resize_1-target.png,125,1.831,52,3240,124,meters,jsons/VE125_randls_9.json,1241097,1387050,35,Man
1,163803,DepthScenes,duration_manipulation_targetAtFixation,jsons/VE125_randls_9.json,http://54.235.29.9/FacialAge/BNav_EC2/DepthDuration/v2_depth_duration_MTurk/v2_DepthDuration_HTML.html#136,136,1440,789,1440,900,8-21-2022,9-48-29,2,depth_duration_stimuli/000109_2014-05-14_23-41-52_260595134347_rgbf000035-resize_9/000109_2014-05-14_23-41-52_260595134347_rgbf000035-resize_9-target.png,125,1.3545,52,614496,125,meters,jsons/VE125_randls_9.json,1241097,1387050,35,Man
2,163803,DepthScenes,duration_manipulation_targetAtFixation,jsons/VE125_randls_9.json,http://54.235.29.9/FacialAge/BNav_EC2/DepthDuration/v2_depth_duration_MTurk/v2_DepthDuration_HTML.html#136,136,1440,789,1440,900,8-21-2022,9-48-29,3,depth_duration_stimuli/000758_2014-06-08_22-05-08_260595134347_rgbf000085-resize_0/000758_2014-06-08_22-05-08_260595134347_rgbf000085-resize_0-target.png,125,3.3810000000000002,55,3106,124,meters,jsons/VE125_randls_9.json,1241097,1387050,35,Man
3,163803,DepthScenes,duration_manipulation_targetAtFixation,jsons/VE125_randls_9.json,http://54.235.29.9/FacialAge/BNav_EC2/DepthDuration/v2_depth_duration_MTurk/v2_DepthDuration_HTML.html#136,136,1440,789,1440,900,8-21-2022,9-48-29,4,depth_duration_stimuli/000854_2014-06-09_19-43-13_260595134347_rgbf000066-resize_0/000854_2014-06-09_19-43-13_260595134347_rgbf000066-resize_0-target.png,125,3.068,35,3075,125,meters,jsons/VE125_randls_9.json,1241097,1387050,35,Man
4,163803,DepthScenes,duration_manipulation_targetAtFixation,jsons/VE125_randls_9.json,http://54.235.29.9/FacialAge/BNav_EC2/DepthDuration/v2_depth_duration_MTurk/v2_DepthDuration_HTML.html#136,136,1440,789,1440,900,8-21-2022,9-48-29,5,depth_duration_stimuli/002905_2014-06-03_18-04-43_094959634447_rgbf000151-resize_2/002905_2014-06-03_18-04-43_094959634447_rgbf000151-resize_2-target.png,125,2.0295,30,2642,125,meters,jsons/VE125_randls_9.json,1241097,1387050,35,Man
5,163803,DepthScenes,duration_manipulation_targetAtFixation,jsons/VE125_randls_9.json,http://54.235.29.9/FacialAge/BNav_EC2/DepthDuration/v2_depth_duration_MTurk/v2_DepthDuration_HTML.html#136,136,1440,789,1440,900,8-21-2022,9-48-29,6,depth_duration_stimuli/003423_2014-05-21_10-23-26_094959634447_rgbf002665-resize_2/003423_2014-05-21_10-23-26_094959634447_rgbf002665-resize_2-target.png,125,3.2575,35,2923,125,meters,jsons/VE125_randls_9.json,1241097,1387050,35,Man
6,163803,DepthScenes,duration_manipulation_targetAtFixation,jsons/VE125_randls_9.json,http://54.235.29.9/FacialAge/BNav_EC2/DepthDuration/v2_depth_duration_MTurk/v2_DepthDuration_HTML.html#136,136,1440,789,1440,900,8-21-2022,9-48-29,7,depth_duration_stimuli/002118_2014-06-25_20-32-08_260595134347_rgbf000078-resize_1/002118_2014-06-25_20-32-08_260595134347_rgbf000078-resize_1-target.png,125,2.6460000000000004,33,2730,125,meters,jsons/VE125_randls_9.json,1241097,1387050,35,Man
7,163803,DepthScenes,duration_manipulation_targetAtFixation,jsons/VE125_randls_9.json,http://54.235.29.9/FacialAge/BNav_EC2/DepthDuration/v2_depth_duration_MTurk/v2_DepthDuration_HTML.html#136,136,1440,789,1440,900,8-21-2022,9-48-29,8,depth_duration_stimuli/001516_2014-06-20_16-25-09_260595134347_rgbf000076-resize_2/001516_2014-06-20_16-25-09_260595134347_rgbf000076-resize_2-target.png,125,1.7445,42,2560,124,meters,jsons/VE125_randls_9.json,1241097,1387050,35,Man
8,163803,DepthScenes,duration_manipulation_targetAtFixation,jsons/VE125_randls_9.json,http://54.235.29.9/FacialAge/BNav_EC2/DepthDuration/v2_depth_duration_MTurk/v2_DepthDuration_HTML.html#136,136,1440,789,1440,900,8-21-2022,9-48-29,9,depth_duration_stimuli/002549_2014-06-24_13-41-39_094959634447_rgbf000022-resize_3/002549_2014-06-24_13-41-39_094959634447_rgbf000022-resize_3-target.png,125,1.476,30,3292,125,meters,jsons/VE125_randls_9.json,1241097,1387050,35,Man
9,163803,DepthScenes,duration_manipulation_targetAtFixation,jsons/VE125_randls_9.json,http://54.235.29.9/FacialAge/BNav_EC2/DepthDuration/v2_depth_duration_MTurk/v2_DepthDuration_HTML.html#136,136,1440,789,1440,900,8-21-2022,9-48-29,10,depth_duration_stimuli/002750_2014-06-22_19-08-03_094959634447_rgbf000094-resize_4/002750_2014-06-22_19-08-03_094959634447_rgbf000094-resize_4-target.png,125,2.354,40,6756,126,meters,jsons/VE125_randls_9.json,1241097,1387050,35,Man
10,163803,DepthScenes,duration_manipulation_targetAtFixation,jsons/VE125_randls_9.json,http://54.235.29.9/FacialAge/BNav_EC2/DepthDuration/v2_depth_duration_MTurk/v2_DepthDuration_HTML.html#136,136,1440,789,1440,900,8-21-2022,9-48-29,11,depth_duration_stimuli/000469_2014-06-09_19-42-10_260595134347_rgbf000081-resize_1/000469_2014-06-09_19-42-10_260595134347_rgbf000081-resize_1-target.png,125,1.652,40,4473,124,meters,jsons/VE125_randls_9.json,1241097,1387050,35,Man
11,163803,DepthScenes,duration_manipulation_targetAtFixation,jsons/VE125_randls_9.json,http://54.235.29.9/FacialAge/BNav_EC2/DepthDuration/v2_depth_duration_MTurk/v2_DepthDuration_HTML.html#136,136,1440,789,1440,900,8-21-2022,9-48-29,12,depth_duration_stimuli/000483_2014-06-09_20-41-45_260595134347_rgbf000116-resize_4/000483_2014-06-09_20-41-45_260595134347_rgbf000116-resize_4-target.png,125,1.337,0,2874,125,meters,jsons/VE125_randls_9.json,1241097,1387050,35,Man
12,163803,DepthScenes,duration_manipulation_targetAtFixation,jsons/VE125_randls_9.json,http://54.235.29.9/FacialAge/BNav_EC2/DepthDuration/v2_depth_duration_MTurk/v2_DepthDuration_HTML.html#136,136,1440,789,1440,900,8-21-2022,9-48-29,13,depth_duration_stimuli/000569_2014-06-09_22-51-47_260595134347_rgbf000141-resize_3/000569_2014-06-09_22-51-47_260595134347_rgbf000141-resize-original.jpg,125,4.512,0,2119,113,meters,jsons/VE125_randls_9.json,1241097,1387050,35,Man
13,163803,DepthScenes,duration_manipulation_targetAtFixation,jsons/VE125_randls_9.json,http://54.235.29.9/FacialAge/BNav_EC2/DepthDuration/v2_depth_duration_MTurk/v2_DepthDuration_HTML.html#136,136,1440,789,1440,900,8-21-2022,9-48-29,14,depth_duration_stimuli/002663_2014-06-13_15-50-26_094959634447_rgbf000075-resize_1/002663_2014-06-13_15-50-26_094959634447_rgbf000075-resize_1-target.png,125,4.7495,50,5066,124,meters,jsons/VE125_randls_9.json,1241097,1387050,35,Man
14,163803,DepthScenes,duration_manipulation_targetAtFixation,jsons/VE125_randls_9.json,http://54.235.29.9/FacialAge/BNav_EC2/DepthDuration/v2_depth_duration_MTurk/v2_DepthDuration_HTML.html#136,136,1440,789,1440,900,8-21-2022,9-48-29,15,depth_duration_stimuli/000409_2014-06-04_19-23-33_260595134347_rgbf000067-resize_0/000409_2014-06-04_19-23-33_260595134347_rgbf000067-resize_0-target.png,125,3.7335,35,2651,124,meters,jsons/VE125_randls_9.json,1241097,1387050,35,Man
15,163803,DepthScenes,duration_manipulation_targetAtFixation,jsons/VE125_randls_9.json,http://54.235.29.9/FacialAge/BNav_EC2/DepthDuration/v2_depth_duration_MTurk/v2_DepthDuration_HTML.html#136,136,1440,789,1440,900,8-21-2022,9-48-29,16,depth_duration_stimuli/002964_2014-06-08_17-46-11_094959634447_rgbf000091-resize_4/002964_2014-06-08_17-46-11_094959634447_rgbf000091-resize_4-target.png,125,1.6909999999999998,30,5059,126,meters,jsons/VE125_randls_9.json,1241097,1387050,35,Man
16,163803,DepthScenes,duration_manipulation_targetAtFixation,jsons/VE125_randls_9.json,http://54.235.29.9/FacialAge/BNav_EC2/DepthDuration/v2_depth_duration_MTurk/v2_DepthDuration_HTML.html#136,136,1440,789,1440,900,8-21-2022,9-48-29,17,depth_duration_stimuli/002136_2014-06-25_21-18-03_260595134347_rgbf000109-resize_3/002136_2014-06-25_21-18-03_260595134347_rgbf000109-resize_3-target.png,125,1.9569999999999999,35,2699,125,meters,jsons/VE125_randls_9.json,1241097,1387050,35,Man
17,163803,DepthScenes,duration_manipulation_targetAtFixation,jsons/VE125_randls_9.json,http://54.235.29.9/FacialAge/BNav_EC2/DepthDuration/v2_depth_duration_MTurk/v2_DepthDuration_HTML.html#136,136,1440,789,1440,900,8-21-2022,9-48-29,18,depth_duration_stimuli/002763_2014-06-22_19-13-10_094959634447_rgbf000075-resize_4/002763_2014-06-22_19-13-10_094959634447_rgbf000075-resize_4-target.png,125,1.68375,10,2508,126,meters,jsons/VE125_randls_9.json,1241097,1387050,35,Man
18,163803,DepthScenes,duration_manipulation_targetAtFixation,jsons/VE125_randls_9.json,http://54.235.29.9/FacialAge/BNav_EC2/DepthDuration/v2_depth_duration_MTurk/v2_DepthDuration_HTML.html#136,136,1440,789,1440,900,8-21-2022,9-48-29,19,depth_duration_stimuli/002209_2014-06-28_18-36-10_260595134347_rgbf000051-resize_1/002209_2014-06-28_18-36-10_260595134347_rgbf000051-resize_1-target.png,125,2.057,35,5341,126,meters,jsons/VE125_randls_9.json,1241097,1387050,35,Man
19,163803,DepthScenes,duration_manipulation_targetAtFixation,jsons/VE125_randls_9.json,http://54.235.29.9/FacialAge/BNav_EC2/DepthDuration/v2_depth_duration_MTurk/v2_DepthDuration_HTML.html#136,136,1440,789,1440,900,8-21-2022,9-48-29,20,depth_duration_stimuli/003534_2014-05-22_15-06-10_094959634447_rgbf000102-resize_4/003534_2014-05-22_15-06-10_094959634447_rgbf000102-resize_4-target.png,125,1.426,15,2905,126,meters,jsons/VE125_randls_9.json,1241097,1387050,35,Man
20,163803,DepthScenes,duration_manipulation_targetAtFixation,jsons/VE125_randls_9.json,http://54.235.29.9/FacialAge/BNav_EC2/DepthDuration/v2_depth_duration_MTurk/v2_DepthDuration_HTML.html#136,136,1440,789,1440,900,8-21-2022,9-48-29,21,depth_duration_stimuli/002637_2014-06-24_14-51-13_094959634447_rgbf000066-resize_4/002637_2014-06-24_14-51-13_094959634447_rgbf000066-resize_4-target.png,125,1.9955,35,3251,125,meters,jsons/VE125_randls_9.json,1241097,1387050,35,Man
21,163803,DepthScenes,duration_manipulation_targetAtFixation,jsons/VE125_randls_9.json,http://54.235.29.9/FacialAge/BNav_EC2/DepthDuration/v2_depth_duration_MTurk/v2_DepthDuration_HTML.html#136,136,1440,789,1440,900,8-21-2022,9-48-29,22,depth_duration_stimuli/001167_2014-06-17_15-38-07_260595134347_rgbf000108-resize_0/001167_2014-06-17_15-38-07_260595134347_rgbf000108-resize_0-target.png,125,1.8505,30,2530,126,meters,jsons/VE125_randls_9.json,1241097,1387050,35,Man
22,163803,DepthScenes,duration_manipulation_targetAtFixation,jsons/VE125_randls_9.json,http://54.235.29.9/FacialAge/BNav_EC2/DepthDuration/v2_depth_duration_MTurk/v2_DepthDuration_HTML.html#136,136,1440,789,1440,900,8-21-2022,9-48-29,23,depth_duration_stimuli/003587_2014-05-23_16-48-02_094959634447_rgbf002384-resize_2/003587_2014-05-23_16-48-02_094959634447_rgbf002384-resize_2-target.png,125,1.357,15,2843,126,meters,jsons/VE125_randls_9.json,1241097,1387050,35,Man
23,163803,DepthScenes,duration_manipulation_targetAtFixation,jsons/VE125_randls_9.json,http://54.235.29.9/FacialAge/BNav_EC2/DepthDuration/v2_depth_duration_MTurk/v2_DepthDuration_HTML.html#136,136,1440,789,1440,900,8-21-2022,9-48-29,24,depth_duration_stimuli/000878_2014-06-08_22-52-45_260595134347_rgbf000045-resize_2/000878_2014-06-08_22-52-45_260595134347_rgbf000045-resize_2-target.png,125,2.092,55,3715,126,meters,jsons/VE125_randls_9.json,1241097,1387050,35,Man
24,163803,DepthScenes,duration_manipulation_targetAtFixation,jsons/VE125_randls_9.json,http://54.235.29.9/FacialAge/BNav_EC2/DepthDuration/v2_depth_duration_MTurk/v2_DepthDuration_HTML.html#136,136,1440,789,1440,900,8-21-2022,9-48-29,25,depth_duration_stimuli/002953_2014-06-08_17-32-18_094959634447_rgbf000059-resize_5/002953_2014-06-08_17-32-18_094959634447_rgbf000059-resize_5-target.png,125,1.551,35,2522,124,meters,jsons/VE125_randls_9.json,1241097,1387050,35,Man
25,163803,DepthScenes,duration_manipulation_targetAtFixation,jsons/VE125_randls_9.json,http://54.235.29.9/FacialAge/BNav_EC2/DepthDuration/v2_depth_duration_MTurk/v2_DepthDuration_HTML.html#136,136,1440,789,1440,900,8-21-2022,9-48-29,26,depth_duration_stimuli/001417_2014-06-19_16-25-36_260595134347_rgbf000115-resize_5/001417_2014-06-19_16-25-36_260595134347_rgbf000115-resize_5-target.png,125,4.6255,55,2811,126,meters,jsons/VE125_randls_9.json,1241097,1387050,35,Man
26,163803,DepthScenes,duration_manipulation_targetAtFixation,jsons/VE125_randls_9.json,http://54.235.29.9/FacialAge/BNav_EC2/DepthDuration/v2_depth_duration_MTurk/v2_DepthDuration_HTML.html#136,136,1440,789,1440,900,8-21-2022,9-48-29,27,depth_duration_stimuli/003081_2014-06-15_15-19-16_094959634447_rgbf000150-resize_1/003081_2014-06-15_15-19-16_094959634447_rgbf000150-resize_1-target.png,125,3.9125,50,2946,126,meters,jsons/VE125_randls_9.json,1241097,1387050,35,Man
27,163803,DepthScenes,duration_manipulation_targetAtFixation,jsons/VE125_randls_9.json,http://54.235.29.9/FacialAge/BNav_EC2/DepthDuration/v2_depth_duration_MTurk/v2_DepthDuration_HTML.html#136,136,1440,789,1440,900,8-21-2022,9-48-29,28,depth_duration_stimuli/001092_2014-06-15_17-34-58_260595134347_rgbf000171-resize_3/001092_2014-06-15_17-34-58_260595134347_rgbf000171-resize_3-target.png,125,2.6935,35,3387,125,meters,jsons/VE125_randls_9.json,1241097,1387050,35,Man
28,163803,DepthScenes,duration_manipulation_targetAtFixation,jsons/VE125_randls_9.json,http://54.235.29.9/FacialAge/BNav_EC2/DepthDuration/v2_depth_duration_MTurk/v2_DepthDuration_HTML.html#136,136,1440,789,1440,900,8-21-2022,9-48-29,29,depth_duration_stimuli/002545_2014-06-24_13-38-53_094959634447_rgbf000080-resize_4/002545_2014-06-24_13-38-53_094959634447_rgbf000080-resize_4-target.png,125,1.9205,55,2691,125,meters,jsons/VE125_randls_9.json,1241097,1387050,35,Man
29,163803,DepthScenes,duration_manipulation_targetAtFixation,jsons/VE125_randls_9.json,http://54.235.29.9/FacialAge/BNav_EC2/DepthDuration/v2_depth_duration_MTurk/v2_DepthDuration_HTML.html#136,136,1440,789,1440,900,8-21-2022,9-48-29,30,depth_duration_stimuli/000375_2014-06-08_11-17-29_260595134347_rgbf000133-resize_2/000375_2014-06-08_11-17-29_260595134347_rgbf000133-resize-original.jpg,125,4.718,0,2858,126,meters,jsons/VE125_randls_9.json,1241097,1387050,35,Man
30,163803,DepthScenes,duration_manipulation_targetAtFixation,jsons/VE125_randls_9.json,http://54.235.29.9/FacialAge/BNav_EC2/DepthDuration/v2_depth_duration_MTurk/v2_DepthDuration_HTML.html#136,136,1440,789,1440,900,8-21-2022,9-48-29,31,depth_duration_stimuli/003070_2014-06-15_14-58-27_094959634447_rgbf000150-resize_3/003070_2014-06-15_14-58-27_094959634447_rgbf000150-resize_3-target.png,125,2.9415,45,15299,126,meters,jsons/VE125_randls_9.json,1241097,1387050,35,Man
31,163803,DepthScenes,duration_manipulation_targetAtFixation,jsons/VE125_randls_9.json,http://54.235.29.9/FacialAge/BNav_EC2/DepthDuration/v2_depth_duration_MTurk/v2_DepthDuration_HTML.html#136,136,1440,789,1440,900,8-21-2022,9-48-29,32,depth_duration_stimuli/000943_2014-06-09_19-31-07_260595134347_rgbf000128-resize_1/000943_2014-06-09_19-31-07_260595134347_rgbf000128-resize_1-target.png,125,1.9765,35,2801,124,meters,jsons/VE125_randls_9.json,1241097,1387050,35,Man
32,163803,DepthScenes,duration_manipulation_targetAtFixation,jsons/VE125_randls_9.json,http://54.235.29.9/FacialAge/BNav_EC2/DepthDuration/v2_depth_duration_MTurk/v2_DepthDuration_HTML.html#136,136,1440,789,1440,900,8-21-2022,9-48-29,33,depth_duration_stimuli/001110_2014-06-15_17-25-28_260595134347_rgbf000150-resize_1/001110_2014-06-15_17-25-28_260595134347_rgbf000150-resize_1-target.png,125,1.7115,33,2419,124,meters,jsons/VE125_randls_9.json,1241097,1387050,35,Man
33,163803,DepthScenes,duration_manipulation_targetAtFixation,jsons/VE125_randls_9.json,http://54.235.29.9/FacialAge/BNav_EC2/DepthDuration/v2_depth_duration_MTurk/v2_DepthDuration_HTML.html#136,136,1440,789,1440,900,8-21-2022,9-48-29,34,depth_duration_stimuli/000927_2014-06-09_16-32-30_260595134347_rgbf000123-resize_3/000927_2014-06-09_16-32-30_260595134347_rgbf000123-resize_3-target.png,125,2.6785,35,2844,124,meters,jsons/VE125_randls_9.json,1241097,1387050,35,Man
34,163803,DepthScenes,duration_manipulation_targetAtFixation,jsons/VE125_randls_9.json,http://54.235.29.9/FacialAge/BNav_EC2/DepthDuration/v2_depth_duration_MTurk/v2_DepthDuration_HTML.html#136,136,1440,789,1440,900,8-21-2022,9-48-29,35,depth_duration_stimuli/001244_2014-06-17_16-47-45_260595134347_rgbf000030-resize_4/001244_2014-06-17_16-47-45_260595134347_rgbf000030-resize_4-target.png,125,2.0425,34,3307,125,meters,jsons/VE125_randls_9.json,1241097,1387050,35,Man
35,163803,DepthScenes,duration_manipulation_targetAtFixation,jsons/VE125_randls_9.json,http://54.235.29.9/FacialAge/BNav_EC2/DepthDuration/v2_depth_duration_MTurk/v2_DepthDuration_HTML.html#136,136,1440,789,1440,900,8-21-2022,9-48-29,36,depth_duration_stimuli/003495_2014-05-21_16-01-51_094959634447_rgbf000100-resize_3/003495_2014-05-21_16-01-51_094959634447_rgbf000100-resize_3-target.png,125,1.6255,25,2532,125,meters,jsons/VE125_randls_9.json,1241097,1387050,35,Man
36,163803,DepthScenes,duration_manipulation_targetAtFixation,jsons/VE125_randls_9.json,http://54.235.29.9/FacialAge/BNav_EC2/DepthDuration/v2_depth_duration_MTurk/v2_DepthDuration_HTML.html#136,136,1440,789,1440,900,8-21-2022,9-48-29,37,depth_duration_stimuli/002039_2014-06-24_20-22-38_260595134347_rgbf000084-resize_1/002039_2014-06-24_20-22-38_260595134347_rgbf000084-resize_1-target.png,125,4.408,45,2620,125,meters,jsons/VE125_randls_9.json,1241097,1387050,35,Man
37,163803,DepthScenes,duration_manipulation_targetAtFixation,jsons/VE125_randls_9.json,http://54.235.29.9/FacialAge/BNav_EC2/DepthDuration/v2_depth_duration_MTurk/v2_DepthDuration_HTML.html#136,136,1440,789,1440,900,8-21-2022,9-48-29,38,depth_duration_stimuli/002103_2014-06-25_20-00-40_260595134347_rgbf000049-resize_0/002103_2014-06-25_20-00-40_260595134347_rgbf000049-resize_0-target.png,125,4.105,45,3563,124,meters,jsons/VE125_randls_9.json,1241097,1387050,35,Man
38,163803,DepthScenes,duration_manipulation_targetAtFixation,jsons/VE125_randls_9.json,http://54.235.29.9/FacialAge/BNav_EC2/DepthDuration/v2_depth_duration_MTurk/v2_DepthDuration_HTML.html#136,136,1440,789,1440,900,8-21-2022,9-48-29,39,depth_duration_stimuli/001133_2014-06-17_14-49-16_260595134347_rgbf000100-resize_0/001133_2014-06-17_14-49-16_260595134347_rgbf000100-resize_0-target.png,125,4.2115,45,2716,125,meters,jsons/VE125_randls_9.json,1241097,1387050,35,Man
39,163803,DepthScenes,duration_manipulation_targetAtFixation,jsons/VE125_randls_9.json,http://54.235.29.9/FacialAge/BNav_EC2/DepthDuration/v2_depth_duration_MTurk/v2_DepthDuration_HTML.html#136,136,1440,789,1440,900,8-21-2022,9-48-29,40,depth_duration_stimuli/001132_2014-06-17_14-48-54_260595134347_rgbf000100-resize_2/001132_2014-06-17_14-48-54_260595134347_rgbf000100-resize_2-target.png,125,3.753,56,20674,124,meters,jsons/VE125_randls_9.json,1241097,1387050,35,Man
40,163803,DepthScenes,duration_manipulation_targetAtFixation,jsons/VE125_randls_9.json,http://54.235.29.9/FacialAge/BNav_EC2/DepthDuration/v2_depth_duration_MTurk/v2_DepthDuration_HTML.html#136,136,1440,789,1440,900,8-21-2022,9-48-29,41,depth_duration_stimuli/003621_2014-05-23_18-06-08_094959634447_rgbf000101-resize_1/003621_2014-05-23_18-06-08_094959634447_rgbf000101-resize_1-target.png,125,3.9835,52,3483,126,meters,jsons/VE125_randls_9.json,1241097,1387050,35,Man
41,163803,DepthScenes,duration_manipulation_targetAtFixation,jsons/VE125_randls_9.json,http://54.235.29.9/FacialAge/BNav_EC2/DepthDuration/v2_depth_duration_MTurk/v2_DepthDuration_HTML.html#136,136,1440,789,1440,900,8-21-2022,9-48-29,42,depth_duration_stimuli/001584_2014-06-20_11-07-43_260595134347_rgbf000002-resize_1/001584_2014-06-20_11-07-43_260595134347_rgbf000002-resize_1-target.png,125,3.53,60,2699,125,meters,jsons/VE125_randls_9.json,1241097,1387050,35,Man
42,163803,DepthScenes,duration_manipulation_targetAtFixation,jsons/VE125_randls_9.json,http://54.235.29.9/FacialAge/BNav_EC2/DepthDuration/v2_depth_duration_MTurk/v2_DepthDuration_HTML.html#136,136,1440,789,1440,900,8-21-2022,9-48-29,43,depth_duration_stimuli/001808_2014-06-26_20-50-58_260595134347_rgbf000029-resize_1/001808_2014-06-26_20-50-58_260595134347_rgbf000029-resize_1-target.png,125,4.249,65,2762,124,meters,jsons/VE125_randls_9.json,1241097,1387050,35,Man
43,163803,DepthScenes,duration_manipulation_targetAtFixation,jsons/VE125_randls_9.json,http://54.235.29.9/FacialAge/BNav_EC2/DepthDuration/v2_depth_duration_MTurk/v2_DepthDuration_HTML.html#136,136,1440,789,1440,900,8-21-2022,9-48-29,44,depth_duration_stimuli/001815_2014-06-26_20-52-55_260595134347_rgbf000020-resize_0/001815_2014-06-26_20-52-55_260595134347_rgbf000020-resize_0-target.png,125,3.3865,60,2395,126,meters,jsons/VE125_randls_9.json,1241097,1387050,35,Man
44,163803,DepthScenes,duration_manipulation_targetAtFixation,jsons/VE125_randls_9.json,http://54.235.29.9/FacialAge/BNav_EC2/DepthDuration/v2_depth_duration_MTurk/v2_DepthDuration_HTML.html#136,136,1440,789,1440,900,8-21-2022,9-48-29,45,depth_duration_stimuli/000787_2014-06-08_22-33-53_260595134347_rgbf000175-resize_1/000787_2014-06-08_22-33-53_260595134347_rgbf000175-resize-original.jpg,125,4.784,0,2427,125,meters,jsons/VE125_randls_9.json,1241097,1387050,35,Man
45,163803,DepthScenes,duration_manipulation_targetAtFixation,jsons/VE125_randls_9.json,http://54.235.29.9/FacialAge/BNav_EC2/DepthDuration/v2_depth_duration_MTurk/v2_DepthDuration_HTML.html#136,136,1440,789,1440,900,8-21-2022,9-48-29,46,depth_duration_stimuli/001199_2014-06-17_16-03-48_260595134347_rgbf000077-resize_0/001199_2014-06-17_16-03-48_260595134347_rgbf000077-resize_0-target.png,125,3.4375,55,3012,124,meters,jsons/VE125_randls_9.json,1241097,1387050,35,Man
46,163803,DepthScenes,duration_manipulation_targetAtFixation,jsons/VE125_randls_9.json,http://54.235.29.9/FacialAge/BNav_EC2/DepthDuration/v2_depth_duration_MTurk/v2_DepthDuration_HTML.html#136,136,1440,789,1440,900,8-21-2022,9-48-29,47,depth_duration_stimuli/000502_2014-06-08_23-02-32_260595134347_rgbf000063-resize_4/000502_2014-06-08_23-02-32_260595134347_rgbf000063-resize_4-target.png,125,2.431,35,2443,125,meters,jsons/VE125_randls_9.json,1241097,1387050,35,Man
47,163803,DepthScenes,duration_manipulation_targetAtFixation,jsons/VE125_randls_9.json,http://54.235.29.9/FacialAge/BNav_EC2/DepthDuration/v2_depth_duration_MTurk/v2_DepthDuration_HTML.html#136,136,1440,789,1440,900,8-21-2022,9-48-29,48,depth_duration_stimuli/000788_2014-06-08_22-34-36_260595134347_rgbf000131-resize_1/000788_2014-06-08_22-34-36_260595134347_rgbf000131-resize_1-target.png,125,3.359,30,4211,125,meters,jsons/VE125_randls_9.json,1241097,1387050,35,Man
48,163803,DepthScenes,duration_manipulation_targetAtFixation,jsons/VE125_randls_9.json,http://54.235.29.9/FacialAge/BNav_EC2/DepthDuration/v2_depth_duration_MTurk/v2_DepthDuration_HTML.html#136,136,1440,789,1440,900,8-21-2022,9-48-29,49,depth_duration_stimuli/001235_2014-06-17_16-37-36_260595134347_rgbf000084-resize_4/001235_2014-06-17_16-37-36_260595134347_rgbf000084-resize_4-target.png,125,3.6605,45,3635,126,meters,jsons/VE125_randls_9.json,1241097,1387050,35,Man
49,163803,DepthScenes,duration_manipulation_targetAtFixation,jsons/VE125_randls_9.json,http://54.235.29.9/FacialAge/BNav_EC2/DepthDuration/v2_depth_duration_MTurk/v2_DepthDuration_HTML.html#136,136,1440,789,1440,900,8-21-2022,9-48-29,50,depth_duration_stimuli/000493_2014-06-09_21-01-18_260595134347_rgbf000196-resize_3/000493_2014-06-09_21-01-18_260595134347_rgbf000196-resize_3-target.png,125,3.44,45,2828,125,meters,jsons/VE125_randls_9.json,1241097,1387050,35,Man
50,163803,DepthScenes,duration_manipulation_targetAtFixation,jsons/VE125_randls_9.json,http://54.235.29.9/FacialAge/BNav_EC2/DepthDuration/v2_depth_duration_MTurk/v2_DepthDuration_HTML.html#136,136,1440,789,1440,900,8-21-2022,9-48-29,51,depth_duration_stimuli/000191_2014-05-12_17-07-38_260595134347_rgbf000199-resize_0/000191_2014-05-12_17-07-38_260595134347_rgbf000199-resize_0-target.png,125,3.7995,46,3627,126,meters,jsons/VE125_randls_9.json,1241097,1387050,35,Man
51,163803,DepthScenes,duration_manipulation_targetAtFixation,jsons/VE125_randls_9.json,http://54.235.29.9/FacialAge/BNav_EC2/DepthDuration/v2_depth_duration_MTurk/v2_DepthDuration_HTML.html#136,136,1440,789,1440,900,8-21-2022,9-48-29,52,depth_duration_stimuli/002748_2014-06-22_19-07-22_094959634447_rgbf000078-resize_1/002748_2014-06-22_19-07-22_094959634447_rgbf000078-resize_1-target.png,125,4.6705,53,3419,125,meters,jsons/VE125_randls_9.json,1241097,1387050,35,Man
52,163803,DepthScenes,duration_manipulation_targetAtFixation,jsons/VE125_randls_9.json,http://54.235.29.9/FacialAge/BNav_EC2/DepthDuration/v2_depth_duration_MTurk/v2_DepthDuration_HTML.html#136,136,1440,789,1440,900,8-21-2022,9-48-29,53,depth_duration_stimuli/002995_2014-06-15_12-31-26_094959634447_rgbf000150-resize_1/002995_2014-06-15_12-31-26_094959634447_rgbf000150-resize_1-target.png,125,3.8360000000000003,0,4171,126,meters,jsons/VE125_randls_9.json,1241097,1387050,35,Man
53,163803,DepthScenes,duration_manipulation_targetAtFixation,jsons/VE125_randls_9.json,http://54.235.29.9/FacialAge/BNav_EC2/DepthDuration/v2_depth_duration_MTurk/v2_DepthDuration_HTML.html#136,136,1440,789,1440,900,8-21-2022,9-48-29,54,depth_duration_stimuli/001059_2014-06-08_21-53-27_260595134347_rgbf000061-resize_4/001059_2014-06-08_21-53-27_260595134347_rgbf000061-resize_4-target.png,125,2.4185,30,6419,126,meters,jsons/VE125_randls_9.json,1241097,1387050,35,Man
54,163803,DepthScenes,duration_manipulation_targetAtFixation,jsons/VE125_randls_9.json,http://54.235.29.9/FacialAge/BNav_EC2/DepthDuration/v2_depth_duration_MTurk/v2_DepthDuration_HTML.html#136,136,1440,789,1440,900,8-21-2022,9-48-29,55,depth_duration_stimuli/001032_2014-06-08_13-23-17_260595134347_rgbf000021-resize_3/001032_2014-06-08_13-23-17_260595134347_rgbf000021-resize_3-target.png,125,3.2725,25,2554,125,meters,jsons/VE125_randls_9.json,1241097,1387050,35,Man
55,163803,DepthScenes,duration_manipulation_targetAtFixation,jsons/VE125_randls_9.json,http://54.235.29.9/FacialAge/BNav_EC2/DepthDuration/v2_depth_duration_MTurk/v2_DepthDuration_HTML.html#136,136,1440,789,1440,900,8-21-2022,9-48-29,56,depth_duration_stimuli/002600_2014-06-24_14-27-04_094959634447_rgbf000074-resize_2/002600_2014-06-24_14-27-04_094959634447_rgbf000074-resize_2-target.png,125,2.7575,33,4731,126,meters,jsons/VE125_randls_9.json,1241097,1387050,35,Man
56,163803,DepthScenes,duration_manipulation_targetAtFixation,jsons/VE125_randls_9.json,http://54.235.29.9/FacialAge/BNav_EC2/DepthDuration/v2_depth_duration_MTurk/v2_DepthDuration_HTML.html#136,136,1440,789,1440,900,8-21-2022,9-48-29,57,depth_duration_stimuli/003228_2014-05-14_13-42-35_094959634447_rgbf000101-resize_1/003228_2014-05-14_13-42-35_094959634447_rgbf000101-resize_1-target.png,125,1.9680000000000002,16,2627,125,meters,jsons/VE125_randls_9.json,1241097,1387050,35,Man
57,163803,DepthScenes,duration_manipulation_targetAtFixation,jsons/VE125_randls_9.json,http://54.235.29.9/FacialAge/BNav_EC2/DepthDuration/v2_depth_duration_MTurk/v2_DepthDuration_HTML.html#136,136,1440,789,1440,900,8-21-2022,9-48-29,58,depth_duration_stimuli/001150_2014-06-17_15-27-34_260595134347_rgbf000108-resize_2/001150_2014-06-17_15-27-34_260595134347_rgbf000108-resize_2-target.png,125,4.0325,56,2972,125,meters,jsons/VE125_randls_9.json,1241097,1387050,35,Man
58,163803,DepthScenes,duration_manipulation_targetAtFixation,jsons/VE125_randls_9.json,http://54.235.29.9/FacialAge/BNav_EC2/DepthDuration/v2_depth_duration_MTurk/v2_DepthDuration_HTML.html#136,136,1440,789,1440,900,8-21-2022,9-48-29,59,depth_duration_stimuli/000665_2014-06-09_20-42-35_260595134347_rgbf000110-resize_1/000665_2014-06-09_20-42-35_260595134347_rgbf000110-resize_1-target.png,125,3.057,45,3124,119,meters,jsons/VE125_randls_9.json,1241097,1387050,35,Man
59,163803,DepthScenes,duration_manipulation_targetAtFixation,jsons/VE125_randls_9.json,http://54.235.29.9/FacialAge/BNav_EC2/DepthDuration/v2_depth_duration_MTurk/v2_DepthDuration_HTML.html#136,136,1440,789,1440,900,8-21-2022,9-48-29,60,depth_duration_stimuli/002445_2014-06-28_20-32-16_260595134347_rgbf000029-resize_4/002445_2014-06-28_20-32-16_260595134347_rgbf000029-resize_4-target.png,125,2.5315,42,5146,125,meters,jsons/VE125_randls_9.json,1241097,1387050,35,Man
60,163803,DepthScenes,duration_manipulation_targetAtFixation,jsons/VE125_randls_9.json,http://54.235.29.9/FacialAge/BNav_EC2/DepthDuration/v2_depth_duration_MTurk/v2_DepthDuration_HTML.html#136,136,1440,789,1440,900,8-21-2022,9-48-29,61,depth_duration_stimuli/000780_2014-06-08_22-28-29_260595134347_rgbf000126-resize_1/000780_2014-06-08_22-28-29_260595134347_rgbf000126-resize_1-target.png,125,3.3825,42,5145,125,meters,jsons/VE125_randls_9.json,1241097,1387050,35,Man
61,163803,DepthScenes,duration_manipulation_targetAtFixation,jsons/VE125_randls_9.json,http://54.235.29.9/FacialAge/BNav_EC2/DepthDuration/v2_depth_duration_MTurk/v2_DepthDuration_HTML.html#136,136,1440,789,1440,900,8-21-2022,9-48-29,62,depth_duration_stimuli/001164_2014-06-17_15-35-46_260595134347_rgbf000085-resize_3/001164_2014-06-17_15-35-46_260595134347_rgbf000085-resize_3-target.png,125,2.354,0,3418,124,meters,jsons/VE125_randls_9.json,1241097,1387050,35,Man
62,163803,DepthScenes,duration_manipulation_targetAtFixation,jsons/VE125_randls_9.json,http://54.235.29.9/FacialAge/BNav_EC2/DepthDuration/v2_depth_duration_MTurk/v2_DepthDuration_HTML.html#136,136,1440,789,1440,900,8-21-2022,9-48-29,63,depth_duration_stimuli/001136_2014-06-17_15-19-41_260595134347_rgbf000076-resize_3/001136_2014-06-17_15-19-41_260595134347_rgbf000076-resize_3-target.png,125,1.8655,36,3626,125,meters,jsons/VE125_randls_9.json,1241097,1387050,35,Man
63,163803,DepthScenes,duration_manipulation_targetAtFixation,jsons/VE125_randls_9.json,http://54.235.29.9/FacialAge/BNav_EC2/DepthDuration/v2_depth_duration_MTurk/v2_DepthDuration_HTML.html#136,136,1440,789,1440,900,8-21-2022,9-48-29,64,depth_duration_stimuli/002375_2014-06-28_20-13-44_260595134347_rgbf000032-resize_1/002375_2014-06-28_20-13-44_260595134347_rgbf000032-resize_1-target.png,125,4.0175,34,2906,126,meters,jsons/VE125_randls_9.json,1241097,1387050,35,Man
64,163803,DepthScenes,duration_manipulation_targetAtFixation,jsons/VE125_randls_9.json,http://54.235.29.9/FacialAge/BNav_EC2/DepthDuration/v2_depth_duration_MTurk/v2_DepthDuration_HTML.html#136,136,1440,789,1440,900,8-21-2022,9-48-29,65,depth_duration_stimuli/002657_2014-06-13_15-29-54_094959634447_rgbf000150-resize_1/002657_2014-06-13_15-29-54_094959634447_rgbf000150-resize_1-target.png,125,4.919,36,3026,126,meters,jsons/VE125_randls_9.json,1241097,1387050,35,Man
65,163803,DepthScenes,duration_manipulation_targetAtFixation,jsons/VE125_randls_9.json,http://54.235.29.9/FacialAge/BNav_EC2/DepthDuration/v2_depth_duration_MTurk/v2_DepthDuration_HTML.html#136,136,1440,789,1440,900,8-21-2022,9-48-29,66,depth_duration_stimuli/001222_2014-06-17_16-24-06_260595134347_rgbf000073-resize_0/001222_2014-06-17_16-24-06_260595134347_rgbf000073-resize-original.jpg,125,1.4385,0,2610,125,meters,jsons/VE125_randls_9.json,1241097,1387050,35,Man
66,163803,DepthScenes,duration_manipulation_targetAtFixation,jsons/VE125_randls_9.json,http://54.235.29.9/FacialAge/BNav_EC2/DepthDuration/v2_depth_duration_MTurk/v2_DepthDuration_HTML.html#136,136,1440,789,1440,900,8-21-2022,9-48-29,67,depth_duration_stimuli/000692_2014-06-08_13-09-42_260595134347_rgbf000199-resize_2/000692_2014-06-08_13-09-42_260595134347_rgbf000199-resize_2-target.png,125,3.661,45,3548,126,meters,jsons/VE125_randls_9.json,1241097,1387050,35,Man
67,163803,DepthScenes,duration_manipulation_targetAtFixation,jsons/VE125_randls_9.json,http://54.235.29.9/FacialAge/BNav_EC2/DepthDuration/v2_depth_duration_MTurk/v2_DepthDuration_HTML.html#136,136,1440,789,1440,900,8-21-2022,9-48-29,68,depth_duration_stimuli/001094_2014-06-15_17-36-00_260595134347_rgbf000205-resize_0/001094_2014-06-15_17-36-00_260595134347_rgbf000205-resize_0-target.png,125,4.2175,56,2611,126,meters,jsons/VE125_randls_9.json,1241097,1387050,35,Man
68,163803,DepthScenes,duration_manipulation_targetAtFixation,jsons/VE125_randls_9.json,http://54.235.29.9/FacialAge/BNav_EC2/DepthDuration/v2_depth_duration_MTurk/v2_DepthDuration_HTML.html#136,136,1440,789,1440,900,8-21-2022,9-48-29,69,depth_duration_stimuli/000486_2014-06-09_20-47-20_260595134347_rgbf000143-resize_2/000486_2014-06-09_20-47-20_260595134347_rgbf000143-resize_2-target.png,125,4.8325,60,2603,125,meters,jsons/VE125_randls_9.json,1241097,1387050,35,Man
69,163803,DepthScenes,duration_manipulation_targetAtFixation,jsons/VE125_randls_9.json,http://54.235.29.9/FacialAge/BNav_EC2/DepthDuration/v2_depth_duration_MTurk/v2_DepthDuration_HTML.html#136,136,1440,789,1440,900,8-21-2022,9-48-29,70,depth_duration_stimuli/003083_2014-06-15_15-21-03_094959634447_rgbf000063-resize_1/003083_2014-06-15_15-21-03_094959634447_rgbf000063-resize_1-target.png,125,4.1405,65,2435,126,meters,jsons/VE125_randls_9.json,1241097,1387050,35,Man
70,163803,DepthScenes,duration_manipulation_targetAtFixation,jsons/VE125_randls_9.json,http://54.235.29.9/FacialAge/BNav_EC2/DepthDuration/v2_depth_duration_MTurk/v2_DepthDuration_HTML.html#136,136,1440,789,1440,900,8-21-2022,9-48-29,71,depth_duration_stimuli/000522_2014-06-08_13-35-06_260595134347_rgbf000244-resize_1/000522_2014-06-08_13-35-06_260595134347_rgbf000244-resize_1-target.png,125,2.3715,52,2786,125,meters,jsons/VE125_randls_9.json,1241097,1387050,35,Man
71,163803,DepthScenes,duration_manipulation_targetAtFixation,jsons/VE125_randls_9.json,http://54.235.29.9/FacialAge/BNav_EC2/DepthDuration/v2_depth_duration_MTurk/v2_DepthDuration_HTML.html#136,136,1440,789,1440,900,8-21-2022,9-48-29,72,depth_duration_stimuli/002949_2014-06-26_15-57-42_094959634447_rgbf000079-resize_1/002949_2014-06-26_15-57-42_094959634447_rgbf000079-resize_1-target.png,125,1.8915,50,2515,125,meters,jsons/VE125_randls_9.json,1241097,1387050,35,Man
72,163803,DepthScenes,duration_manipulation_targetAtFixation,jsons/VE125_randls_9.json,http://54.235.29.9/FacialAge/BNav_EC2/DepthDuration/v2_depth_duration_MTurk/v2_DepthDuration_HTML.html#136,136,1440,789,1440,900,8-21-2022,9-48-29,73,depth_duration_stimuli/003492_2014-05-21_15-50-55_094959634447_rgbf000828-resize_1/003492_2014-05-21_15-50-55_094959634447_rgbf000828-resize_1-target.png,125,4.06875,60,2706,125,meters,jsons/VE125_randls_9.json,1241097,1387050,35,Man
73,163803,DepthScenes,duration_manipulation_targetAtFixation,jsons/VE125_randls_9.json,http://54.235.29.9/FacialAge/BNav_EC2/DepthDuration/v2_depth_duration_MTurk/v2_DepthDuration_HTML.html#136,136,1440,789,1440,900,8-21-2022,9-48-29,74,depth_duration_stimuli/002568_2014-06-24_13-59-21_094959634447_rgbf000062-resize_4/002568_2014-06-24_13-59-21_094959634447_rgbf000062-resize_4-target.png,125,3.015,62,2554,125,meters,jsons/VE125_randls_9.json,1241097,1387050,35,Man
74,163803,DepthScenes,duration_manipulation_targetAtFixation,jsons/VE125_randls_9.json,http://54.235.29.9/FacialAge/BNav_EC2/DepthDuration/v2_depth_duration_MTurk/v2_DepthDuration_HTML.html#136,136,1440,789,1440,900,8-21-2022,9-48-29,75,depth_duration_stimuli/001029_2014-06-08_13-17-57_260595134347_rgbf000065-resize_1/001029_2014-06-08_13-17-57_260595134347_rgbf000065-resize_1-target.png,125,3.0835,59,3507,126,meters,jsons/VE125_randls_9.json,1241097,1387050,35,Man
75,163803,DepthScenes,duration_manipulation_targetAtFixation,jsons/VE125_randls_9.json,http://54.235.29.9/FacialAge/BNav_EC2/DepthDuration/v2_depth_duration_MTurk/v2_DepthDuration_HTML.html#136,136,1440,789,1440,900,8-21-2022,9-48-29,76,depth_duration_stimuli/000677_2014-06-08_23-10-32_260595134347_rgbf000158-resize_6/000677_2014-06-08_23-10-32_260595134347_rgbf000158-resize_6-target.png,125,3.556,59,2651,126,meters,jsons/VE125_randls_9.json,1241097,1387050,35,Man
76,163803,DepthScenes,duration_manipulation_targetAtFixation,jsons/VE125_randls_9.json,http://54.235.29.9/FacialAge/BNav_EC2/DepthDuration/v2_depth_duration_MTurk/v2_DepthDuration_HTML.html#136,136,1440,789,1440,900,8-21-2022,9-48-29,77,depth_duration_stimuli/002788_2014-06-22_19-36-03_094959634447_rgbf000088-resize_2/002788_2014-06-22_19-36-03_094959634447_rgbf000088-resize_2-target.png,125,1.6465,52,2787,126,meters,jsons/VE125_randls_9.json,1241097,1387050,35,Man
77,163803,DepthScenes,duration_manipulation_targetAtFixation,jsons/VE125_randls_9.json,http://54.235.29.9/FacialAge/BNav_EC2/DepthDuration/v2_depth_duration_MTurk/v2_DepthDuration_HTML.html#136,136,1440,789,1440,900,8-21-2022,9-48-29,78,depth_duration_stimuli/000749_2014-06-08_21-55-06_260595134347_rgbf000070-resize_2/000749_2014-06-08_21-55-06_260595134347_rgbf000070-resize_2-target.png,125,2.331,50,2531,126,meters,jsons/VE125_randls_9.json,1241097,1387050,35,Man
78,163803,DepthScenes,duration_manipulation_targetAtFixation,jsons/VE125_randls_9.json,http://54.235.29.9/FacialAge/BNav_EC2/DepthDuration/v2_depth_duration_MTurk/v2_DepthDuration_HTML.html#136,136,1440,789,1440,900,8-21-2022,9-48-29,79,depth_duration_stimuli/002272_2014-06-28_18-53-56_260595134347_rgbf000067-resize_2/002272_2014-06-28_18-53-56_260595134347_rgbf000067-resize_2-target.png,125,1.138,35,2755,126,meters,jsons/VE125_randls_9.json,1241097,1387050,35,Man
79,163803,DepthScenes,duration_manipulation_targetAtFixation,jsons/VE125_randls_9.json,http://54.235.29.9/FacialAge/BNav_EC2/DepthDuration/v2_depth_duration_MTurk/v2_DepthDuration_HTML.html#136,136,1440,789,1440,900,8-21-2022,9-48-29,80,depth_duration_stimuli/001571_2014-06-20_17-21-32_260595134347_rgbf000089-resize_1/001571_2014-06-20_17-21-32_260595134347_rgbf000089-resize_1-target.png,125,1.86,30,2291,126,meters,jsons/VE125_randls_9.json,1241097,1387050,35,Man
80,163803,DepthScenes,duration_manipulation_targetAtFixation,jsons/VE125_randls_9.json,http://54.235.29.9/FacialAge/BNav_EC2/DepthDuration/v2_depth_duration_MTurk/v2_DepthDuration_HTML.html#136,136,1440,789,1440,900,8-21-2022,9-48-29,81,depth_duration_stimuli/001055_2014-06-08_18-45-35_260595134347_rgbf000111-resize_4/001055_2014-06-08_18-45-35_260595134347_rgbf000111-resize_4-target.png,125,2.4290000000000003,65,2478,120,meters,jsons/VE125_randls_9.json,1241097,1387050,35,Man
81,163803,DepthScenes,duration_manipulation_targetAtFixation,jsons/VE125_randls_9.json,http://54.235.29.9/FacialAge/BNav_EC2/DepthDuration/v2_depth_duration_MTurk/v2_DepthDuration_HTML.html#136,136,1440,789,1440,900,8-21-2022,9-48-29,82,depth_duration_stimuli/000549_2014-06-08_22-10-24_260595134347_rgbf000247-resize_3/000549_2014-06-08_22-10-24_260595134347_rgbf000247-resize_3-target.png,125,1.841,32,2666,126,meters,jsons/VE125_randls_9.json,1241097,1387050,35,Man
82,163803,DepthScenes,duration_manipulation_targetAtFixation,jsons/VE125_randls_9.json,http://54.235.29.9/FacialAge/BNav_EC2/DepthDuration/v2_depth_duration_MTurk/v2_DepthDuration_HTML.html#136,136,1440,789,1440,900,8-21-2022,9-48-29,83,depth_duration_stimuli/002784_2014-06-22_19-26-30_094959634447_rgbf000083-resize_3/002784_2014-06-22_19-26-30_094959634447_rgbf000083-resize_3-target.png,125,1.8046666666667,34,3195,126,meters,jsons/VE125_randls_9.json,1241097,1387050,35,Man
83,163803,DepthScenes,duration_manipulation_targetAtFixation,jsons/VE125_randls_9.json,http://54.235.29.9/FacialAge/BNav_EC2/DepthDuration/v2_depth_duration_MTurk/v2_DepthDuration_HTML.html#136,136,1440,789,1440,900,8-21-2022,9-48-29,84,depth_duration_stimuli/001100_2014-06-15_17-46-26_260595134347_rgbf000225-resize_2/001100_2014-06-15_17-46-26_260595134347_rgbf000225-resize_2-target.png,125,2.24,30,3187,126,meters,jsons/VE125_randls_9.json,1241097,1387050,35,Man
84,163803,DepthScenes,duration_manipulation_targetAtFixation,jsons/VE125_randls_9.json,http://54.235.29.9/FacialAge/BNav_EC2/DepthDuration/v2_depth_duration_MTurk/v2_DepthDuration_HTML.html#136,136,1440,789,1440,900,8-21-2022,9-48-29,85,depth_duration_stimuli/001016_2014-06-09_16-16-10_260595134347_rgbf000112-resize_5/001016_2014-06-09_16-16-10_260595134347_rgbf000112-resize_5-target.png,125,1.6565,45,2571,126,meters,jsons/VE125_randls_9.json,1241097,1387050,35,Man
85,163803,DepthScenes,duration_manipulation_targetAtFixation,jsons/VE125_randls_9.json,http://54.235.29.9/FacialAge/BNav_EC2/DepthDuration/v2_depth_duration_MTurk/v2_DepthDuration_HTML.html#136,136,1440,789,1440,900,8-21-2022,9-48-29,86,depth_duration_stimuli/002340_2014-06-28_20-05-46_260595134347_rgbf000113-resize_0/002340_2014-06-28_20-05-46_260595134347_rgbf000113-resize_0-target.png,125,2.4735,65,2507,126,meters,jsons/VE125_randls_9.json,1241097,1387050,35,Man
86,163803,DepthScenes,duration_manipulation_targetAtFixation,jsons/VE125_randls_9.json,http://54.235.29.9/FacialAge/BNav_EC2/DepthDuration/v2_depth_duration_MTurk/v2_DepthDuration_HTML.html#136,136,1440,789,1440,900,8-21-2022,9-48-29,87,depth_duration_stimuli/002043_2014-06-24_20-29-38_260595134347_rgbf000039-resize_4/002043_2014-06-24_20-29-38_260595134347_rgbf000039-resize_4-target.png,125,2.8435,64,2548,126,meters,jsons/VE125_randls_9.json,1241097,1387050,35,Man
87,163803,DepthScenes,duration_manipulation_targetAtFixation,jsons/VE125_randls_9.json,http://54.235.29.9/FacialAge/BNav_EC2/DepthDuration/v2_depth_duration_MTurk/v2_DepthDuration_HTML.html#136,136,1440,789,1440,900,8-21-2022,9-48-29,88,depth_duration_stimuli/003048_2014-06-15_13-49-43_094959634447_rgbf000150-resize_1/003048_2014-06-15_13-49-43_094959634447_rgbf000150-resize_1-target.png,125,4.0035,65,3155,125,meters,jsons/VE125_randls_9.json,1241097,1387050,35,Man
88,163803,DepthScenes,duration_manipulation_targetAtFixation,jsons/VE125_randls_9.json,http://54.235.29.9/FacialAge/BNav_EC2/DepthDuration/v2_depth_duration_MTurk/v2_DepthDuration_HTML.html#136,136,1440,789,1440,900,8-21-2022,9-48-29,89,depth_duration_stimuli/002570_2014-06-24_13-59-54_094959634447_rgbf000059-resize_0/002570_2014-06-24_13-59-54_094959634447_rgbf000059-resize_0-target.png,125,4.037,60,2428,126,meters,jsons/VE125_randls_9.json,1241097,1387050,35,Man
89,163803,DepthScenes,duration_manipulation_targetAtFixation,jsons/VE125_randls_9.json,http://54.235.29.9/FacialAge/BNav_EC2/DepthDuration/v2_depth_duration_MTurk/v2_DepthDuration_HTML.html#136,136,1440,789,1440,900,8-21-2022,9-48-29,90,depth_duration_stimuli/002467_2014-06-28_20-38-07_260595134347_rgbf000026-resize_2/002467_2014-06-28_20-38-07_260595134347_rgbf000026-resize_2-target.png,125,4.742,63,2659,126,meters,jsons/VE125_randls_9.json,1241097,1387050,35,Man
90,163803,DepthScenes,duration_manipulation_targetAtFixation,jsons/VE125_randls_9.json,http://54.235.29.9/FacialAge/BNav_EC2/DepthDuration/v2_depth_duration_MTurk/v2_DepthDuration_HTML.html#136,136,1440,789,1440,900,8-21-2022,9-48-29,91,depth_duration_stimuli/000736_2014-06-08_18-24-15_260595134347_rgbf000206-resize_3/000736_2014-06-08_18-24-15_260595134347_rgbf000206-resize_3-target.png,125,3.515,58,2746,126,meters,jsons/VE125_randls_9.json,1241097,1387050,35,Man
91,163803,DepthScenes,duration_manipulation_targetAtFixation,jsons/VE125_randls_9.json,http://54.235.29.9/FacialAge/BNav_EC2/DepthDuration/v2_depth_duration_MTurk/v2_DepthDuration_HTML.html#136,136,1440,789,1440,900,8-21-2022,9-48-29,92,depth_duration_stimuli/000137_2014-05-20_17-04-49_260595134347_rgbf000120-resize_1/000137_2014-05-20_17-04-49_260595134347_rgbf000120-resize_1-target.png,125,3.786,63,2516,126,meters,jsons/VE125_randls_9.json,1241097,1387050,35,Man
92,163803,DepthScenes,duration_manipulation_targetAtFixation,jsons/VE125_randls_9.json,http://54.235.29.9/FacialAge/BNav_EC2/DepthDuration/v2_depth_duration_MTurk/v2_DepthDuration_HTML.html#136,136,1440,789,1440,900,8-21-2022,9-48-29,93,depth_duration_stimuli/001806_2014-06-26_20-50-20_260595134347_rgbf000091-resize_1/001806_2014-06-26_20-50-20_260595134347_rgbf000091-resize_1-target.png,125,2.7305,35,2313,125,meters,jsons/VE125_randls_9.json,1241097,1387050,35,Man
93,163803,DepthScenes,duration_manipulation_targetAtFixation,jsons/VE125_randls_9.json,http://54.235.29.9/FacialAge/BNav_EC2/DepthDuration/v2_depth_duration_MTurk/v2_DepthDuration_HTML.html#136,136,1440,789,1440,900,8-21-2022,9-48-29,94,depth_duration_stimuli/001617_2014-06-20_11-35-32_260595134347_rgbf000066-resize_1/001617_2014-06-20_11-35-32_260595134347_rgbf000066-resize_1-target.png,125,3.7910000000000004,43,4244,126,meters,jsons/VE125_randls_9.json,1241097,1387050,35,Man
94,163803,DepthScenes,duration_manipulation_targetAtFixation,jsons/VE125_randls_9.json,http://54.235.29.9/FacialAge/BNav_EC2/DepthDuration/v2_depth_duration_MTurk/v2_DepthDuration_HTML.html#136,136,1440,789,1440,900,8-21-2022,9-48-29,95,depth_duration_stimuli/001810_2014-06-26_20-51-35_260595134347_rgbf000040-resize_3/001810_2014-06-26_20-51-35_260595134347_rgbf000040-resize_3-target.png,125,2.2525,36,2563,126,meters,jsons/VE125_randls_9.json,1241097,1387050,35,Man
95,163803,DepthScenes,duration_manipulation_targetAtFixation,jsons/VE125_randls_9.json,http://54.235.29.9/FacialAge/BNav_EC2/DepthDuration/v2_depth_duration_MTurk/v2_DepthDuration_HTML.html#136,136,1440,789,1440,900,8-21-2022,9-48-29,96,depth_duration_stimuli/003010_2014-06-15_12-54-35_094959634447_rgbf000112-resize_0/003010_2014-06-15_12-54-35_094959634447_rgbf000112-resize_0-target.png,125,3.1185,62,5139,125,meters,jsons/VE125_randls_9.json,1241097,1387050,35,Man
96,163803,DepthScenes,duration_manipulation_targetAtFixation,jsons/VE125_randls_9.json,http://54.235.29.9/FacialAge/BNav_EC2/DepthDuration/v2_depth_duration_MTurk/v2_DepthDuration_HTML.html#136,136,1440,789,1440,900,8-21-2022,9-48-29,97,depth_duration_stimuli/000009_2014-05-26_14-32-05_260595134347_rgbf000034-resize_3/000009_2014-05-26_14-32-05_260595134347_rgbf000034-resize_3-target.png,125,3.8715,65,2826,126,meters,jsons/VE125_randls_9.json,1241097,1387050,35,Man
97,163803,DepthScenes,duration_manipulation_targetAtFixation,jsons/VE125_randls_9.json,http://54.235.29.9/FacialAge/BNav_EC2/DepthDuration/v2_depth_duration_MTurk/v2_DepthDuration_HTML.html#136,136,1440,789,1440,900,8-21-2022,9-48-29,98,depth_duration_stimuli/001828_2014-06-26_21-40-03_260595134347_rgbf000024-resize_0/001828_2014-06-26_21-40-03_260595134347_rgbf000024-resize_0-target.png,125,4.8260000000000005,62,2626,126,meters,jsons/VE125_randls_9.json,1241097,1387050,35,Man
98,163803,DepthScenes,duration_manipulation_targetAtFixation,jsons/VE125_randls_9.json,http://54.235.29.9/FacialAge/BNav_EC2/DepthDuration/v2_depth_duration_MTurk/v2_DepthDuration_HTML.html#136,136,1440,789,1440,900,8-21-2022,9-48-29,99,depth_duration_stimuli/001540_2014-06-20_17-01-05_260595134347_rgbf000086-resize_2/001540_2014-06-20_17-01-05_260595134347_rgbf000086-resize-original.jpg,125,1.459,0,2426,126,meters,jsons/VE125_randls_9.json,1241097,1387050,35,Man
99,163803,DepthScenes,duration_manipulation_targetAtFixation,jsons/VE125_randls_9.json,http://54.235.29.9/FacialAge/BNav_EC2/DepthDuration/v2_depth_duration_MTurk/v2_DepthDuration_HTML.html#136,136,1440,789,1440,900,8-21-2022,9-48-29,100,depth_duration_stimuli/000917_2014-06-09_22-45-29_260595134347_rgbf000149-resize_3/000917_2014-06-09_22-45-29_260595134347_rgbf000149-resize_3-target.png,125,4.1865,60,2562,125,meters,jsons/VE125_randls_9.json,1241097,1387050,35,Man
100,163803,DepthScenes,duration_manipulation_targetAtFixation,jsons/VE125_randls_9.json,http://54.235.29.9/FacialAge/BNav_EC2/DepthDuration/v2_depth_duration_MTurk/v2_DepthDuration_HTML.html#136,136,1440,789,1440,900,8-21-2022,9-48-29,101,depth_duration_stimuli/002323_2014-06-28_20-01-54_260595134347_rgbf000051-resize_4/002323_2014-06-28_20-01-54_260595134347_rgbf000051-resize_4-target.png,125,3.7310000000000003,56,3137,125,meters,jsons/VE125_randls_9.json,1241097,1387050,35,Man
101,163803,DepthScenes,duration_manipulation_targetAtFixation,jsons/VE125_randls_9.json,http://54.235.29.9/FacialAge/BNav_EC2/DepthDuration/v2_depth_duration_MTurk/v2_DepthDuration_HTML.html#136,136,1440,789,1440,900,8-21-2022,9-48-29,102,depth_duration_stimuli/002509_2014-06-24_13-19-22_094959634447_rgbf000077-resize_0/002509_2014-06-24_13-19-22_094959634447_rgbf000077-resize_0-target.png,125,1.3065,34,2763,126,meters,jsons/VE125_randls_9.json,1241097,1387050,35,Man
102,163803,DepthScenes,duration_manipulation_targetAtFixation,jsons/VE125_randls_9.json,http://54.235.29.9/FacialAge/BNav_EC2/DepthDuration/v2_depth_duration_MTurk/v2_DepthDuration_HTML.html#136,136,1440,789,1440,900,8-21-2022,9-48-29,103,depth_duration_stimuli/003338_2014-05-20_11-01-23_094959634447_rgbf000051-resize_6/003338_2014-05-20_11-01-23_094959634447_rgbf000051-resize_6-target.png,125,1.693,36,2666,125,meters,jsons/VE125_randls_9.json,1241097,1387050,35,Man
103,163803,DepthScenes,duration_manipulation_targetAtFixation,jsons/VE125_randls_9.json,http://54.235.29.9/FacialAge/BNav_EC2/DepthDuration/v2_depth_duration_MTurk/v2_DepthDuration_HTML.html#136,136,1440,789,1440,900,8-21-2022,9-48-29,104,depth_duration_stimuli/002988_2014-06-15_12-24-20_094959634447_rgbf000150-resize_1/002988_2014-06-15_12-24-20_094959634447_rgbf000150-resize_1-target.png,125,4.7669999999999995,56,2858,126,meters,jsons/VE125_randls_9.json,1241097,1387050,35,Man
104,163803,DepthScenes,duration_manipulation_targetAtFixation,jsons/VE125_randls_9.json,http://54.235.29.9/FacialAge/BNav_EC2/DepthDuration/v2_depth_duration_MTurk/v2_DepthDuration_HTML.html#136,136,1440,789,1440,900,8-21-2022,9-48-29,105,depth_duration_stimuli/001052_2014-06-08_18-24-54_260595134347_rgbf000130-resize_1/001052_2014-06-08_18-24-54_260595134347_rgbf000130-resize_1-target.png,125,4.1045,62,2579,125,meters,jsons/VE125_randls_9.json,1241097,1387050,35,Man
105,163803,DepthScenes,duration_manipulation_targetAtFixation,jsons/VE125_randls_9.json,http://54.235.29.9/FacialAge/BNav_EC2/DepthDuration/v2_depth_duration_MTurk/v2_DepthDuration_HTML.html#136,136,1440,789,1440,900,8-21-2022,9-48-29,106,depth_duration_stimuli/001555_2014-06-20_17-12-10_260595134347_rgbf000065-resize_4/001555_2014-06-20_17-12-10_260595134347_rgbf000065-resize_4-target.png,125,1.633,30,2355,125,meters,jsons/VE125_randls_9.json,1241097,1387050,35,Man
106,163803,DepthScenes,duration_manipulation_targetAtFixation,jsons/VE125_randls_9.json,http://54.235.29.9/FacialAge/BNav_EC2/DepthDuration/v2_depth_duration_MTurk/v2_DepthDuration_HTML.html#136,136,1440,789,1440,900,8-21-2022,9-48-29,107,depth_duration_stimuli/000103_2014-05-14_22-01-17_260595134347_rgbf000152-resize_5/000103_2014-05-14_22-01-17_260595134347_rgbf000152-resize_5-target.png,125,1.993,46,2723,125,meters,jsons/VE125_randls_9.json,1241097,1387050,35,Man
107,163803,DepthScenes,duration_manipulation_targetAtFixation,jsons/VE125_randls_9.json,http://54.235.29.9/FacialAge/BNav_EC2/DepthDuration/v2_depth_duration_MTurk/v2_DepthDuration_HTML.html#136,136,1440,789,1440,900,8-21-2022,9-48-29,108,depth_duration_stimuli/000929_2014-06-09_16-33-19_260595134347_rgbf000139-resize_0/000929_2014-06-09_16-33-19_260595134347_rgbf000139-resize_0-target.png,125,2.8680000000000003,36,2866,126,meters,jsons/VE125_randls_9.json,1241097,1387050,35,Man
108,163803,DepthScenes,duration_manipulation_targetAtFixation,jsons/VE125_randls_9.json,http://54.235.29.9/FacialAge/BNav_EC2/DepthDuration/v2_depth_duration_MTurk/v2_DepthDuration_HTML.html#136,136,1440,789,1440,900,8-21-2022,9-48-29,109,depth_duration_stimuli/000457_2014-06-08_16-52-43_260595134347_rgbf000199-resize_1/000457_2014-06-08_16-52-43_260595134347_rgbf000199-resize_1-target.png,125,3.6489999999999996,45,3043,126,meters,jsons/VE125_randls_9.json,1241097,1387050,35,Man
109,163803,DepthScenes,duration_manipulation_targetAtFixation,jsons/VE125_randls_9.json,http://54.235.29.9/FacialAge/BNav_EC2/DepthDuration/v2_depth_duration_MTurk/v2_DepthDuration_HTML.html#136,136,1440,789,1440,900,8-21-2022,9-48-29,110,depth_duration_stimuli/002213_2014-06-28_18-37-58_260595134347_rgbf000055-resize_1/002213_2014-06-28_18-37-58_260595134347_rgbf000055-resize_1-target.png,125,3.62,59,2995,126,meters,jsons/VE125_randls_9.json,1241097,1387050,35,Man
110,163803,DepthScenes,duration_manipulation_targetAtFixation,jsons/VE125_randls_9.json,http://54.235.29.9/FacialAge/BNav_EC2/DepthDuration/v2_depth_duration_MTurk/v2_DepthDuration_HTML.html#136,136,1440,789,1440,900,8-21-2022,9-48-29,111,depth_duration_stimuli/000691_2014-06-08_13-08-50_260595134347_rgbf000132-resize_3/000691_2014-06-08_13-08-50_260595134347_rgbf000132-resize_3-target.png,125,4.1530000000000005,46,3659,138,meters,jsons/VE125_randls_9.json,1241097,1387050,35,Man
111,163803,DepthScenes,duration_manipulation_targetAtFixation,jsons/VE125_randls_9.json,http://54.235.29.9/FacialAge/BNav_EC2/DepthDuration/v2_depth_duration_MTurk/v2_DepthDuration_HTML.html#136,136,1440,789,1440,900,8-21-2022,9-48-29,112,depth_duration_stimuli/002153_2014-06-25_21-27-18_260595134347_rgbf000038-resize_5/002153_2014-06-25_21-27-18_260595134347_rgbf000038-resize_5-target.png,125,2.505,36,2499,118,meters,jsons/VE125_randls_9.json,1241097,1387050,35,Man
112,163803,DepthScenes,duration_manipulation_targetAtFixation,jsons/VE125_randls_9.json,http://54.235.29.9/FacialAge/BNav_EC2/DepthDuration/v2_depth_duration_MTurk/v2_DepthDuration_HTML.html#136,136,1440,789,1440,900,8-21-2022,9-48-29,113,depth_duration_stimuli/002660_2014-06-13_15-44-18_094959634447_rgbf001878-resize_2/002660_2014-06-13_15-44-18_094959634447_rgbf001878-resize_2-target.png,125,3.576,35,2883,126,meters,jsons/VE125_randls_9.json,1241097,1387050,35,Man
113,163803,DepthScenes,duration_manipulation_targetAtFixation,jsons/VE125_randls_9.json,http://54.235.29.9/FacialAge/BNav_EC2/DepthDuration/v2_depth_duration_MTurk/v2_DepthDuration_HTML.html#136,136,1440,789,1440,900,8-21-2022,9-48-29,114,depth_duration_stimuli/000810_2014-06-08_17-20-01_260595134347_rgbf000105-resize_0/000810_2014-06-08_17-20-01_260595134347_rgbf000105-resize_0-target.png,125,1.4865,36,2978,130,meters,jsons/VE125_randls_9.json,1241097,1387050,35,Man
114,163803,DepthScenes,duration_manipulation_targetAtFixation,jsons/VE125_randls_9.json,http://54.235.29.9/FacialAge/BNav_EC2/DepthDuration/v2_depth_duration_MTurk/v2_DepthDuration_HTML.html#136,136,1440,789,1440,900,8-21-2022,9-48-29,115,depth_duration_stimuli/001214_2014-06-17_16-13-55_260595134347_rgbf000111-resize_0/001214_2014-06-17_16-13-55_260595134347_rgbf000111-resize_0-target.png,125,2.6505,36,8973,119,meters,jsons/VE125_randls_9.json,1241097,1387050,35,Man
115,163803,DepthScenes,duration_manipulation_targetAtFixation,jsons/VE125_randls_9.json,http://54.235.29.9/FacialAge/BNav_EC2/DepthDuration/v2_depth_duration_MTurk/v2_DepthDuration_HTML.html#136,136,1440,789,1440,900,8-21-2022,9-48-29,116,depth_duration_stimuli/001170_2014-06-17_15-43-44_260595134347_rgbf000096-resize_6/001170_2014-06-17_15-43-44_260595134347_rgbf000096-resize-original.jpg,125,1.1909999999999998,0,2963,126,meters,jsons/VE125_randls_9.json,1241097,1387050,35,Man
116,163803,DepthScenes,duration_manipulation_targetAtFixation,jsons/VE125_randls_9.json,http://54.235.29.9/FacialAge/BNav_EC2/DepthDuration/v2_depth_duration_MTurk/v2_DepthDuration_HTML.html#136,136,1440,789,1440,900,8-21-2022,9-48-29,117,depth_duration_stimuli/000642_2014-06-08_16-59-25_260595134347_rgbf000098-resize_2/000642_2014-06-08_16-59-25_260595134347_rgbf000098-resize_2-target.png,125,2.8815,36,2978,125,meters,jsons/VE125_randls_9.json,1241097,1387050,35,Man
117,163803,DepthScenes,duration_manipulation_targetAtFixation,jsons/VE125_randls_9.json,http://54.235.29.9/FacialAge/BNav_EC2/DepthDuration/v2_depth_duration_MTurk/v2_DepthDuration_HTML.html#136,136,1440,789,1440,900,8-21-2022,9-48-29,118,depth_duration_stimuli/002425_2014-06-28_20-27-29_260595134347_rgbf000031-resize_8/002425_2014-06-28_20-27-29_260595134347_rgbf000031-resize_8-target.png,125,3.8960000000000004,54,3434,124,meters,jsons/VE125_randls_9.json,1241097,1387050,35,Man
118,163803,DepthScenes,duration_manipulation_targetAtFixation,jsons/VE125_randls_9.json,http://54.235.29.9/FacialAge/BNav_EC2/DepthDuration/v2_depth_duration_MTurk/v2_DepthDuration_HTML.html#136,136,1440,789,1440,900,8-21-2022,9-48-29,119,depth_duration_stimuli/002057_2014-06-24_21-00-13_260595134347_rgbf000120-resize_1/002057_2014-06-24_21-00-13_260595134347_rgbf000120-resize_1-target.png,125,2.967,65,2435,125,meters,jsons/VE125_randls_9.json,1241097,1387050,35,Man
119,163803,DepthScenes,duration_manipulation_targetAtFixation,jsons/VE125_randls_9.json,http://54.235.29.9/FacialAge/BNav_EC2/DepthDuration/v2_depth_duration_MTurk/v2_DepthDuration_HTML.html#136,136,1440,789,1440,900,8-21-2022,9-48-29,120,depth_duration_stimuli/000709_2014-06-08_13-51-55_260595134347_rgbf000068-resize_3/000709_2014-06-08_13-51-55_260595134347_rgbf000068-resize_3-target.png,125,1.8030000000000002,68,2483,124,meters,jsons/VE125_randls_9.json,1241097,1387050,35,Man
120,163803,DepthScenes,duration_manipulation_targetAtFixation,jsons/VE125_randls_9.json,http://54.235.29.9/FacialAge/BNav_EC2/DepthDuration/v2_depth_duration_MTurk/v2_DepthDuration_HTML.html#136,136,1440,789,1440,900,8-21-2022,9-48-29,121,depth_duration_stimuli/001011_2014-06-08_23-18-54_260595134347_rgbf000044-resize_4/001011_2014-06-08_23-18-54_260595134347_rgbf000044-resize_4-target.png,125,2.4730000000000003,62,2772,126,meters,jsons/VE125_randls_9.json,1241097,1387050,35,Man
121,163803,DepthScenes,duration_manipulation_targetAtFixation,jsons/VE125_randls_9.json,http://54.235.29.9/FacialAge/BNav_EC2/DepthDuration/v2_depth_duration_MTurk/v2_DepthDuration_HTML.html#136,136,1440,789,1440,900,8-21-2022,9-48-29,122,depth_duration_stimuli/002875_2014-06-01_15-19-00_094959634447_rgbf000151-resize_1/002875_2014-06-01_15-19-00_094959634447_rgbf000151-resize_1-target.png,125,1.9675,60,2273,125,meters,jsons/VE125_randls_9.json,1241097,1387050,35,Man
122,163803,DepthScenes,duration_manipulation_targetAtFixation,jsons/VE125_randls_9.json,http://54.235.29.9/FacialAge/BNav_EC2/DepthDuration/v2_depth_duration_MTurk/v2_DepthDuration_HTML.html#136,136,1440,789,1440,900,8-21-2022,9-48-29,123,depth_duration_stimuli/001056_2014-06-08_18-46-44_260595134347_rgbf000068-resize_0/001056_2014-06-08_18-46-44_260595134347_rgbf000068-resize_0-target.png,125,2.6625,54,2587,125,meters,jsons/VE125_randls_9.json,1241097,1387050,35,Man
123,163803,DepthScenes,duration_manipulation_targetAtFixation,jsons/VE125_randls_9.json,http://54.235.29.9/FacialAge/BNav_EC2/DepthDuration/v2_depth_duration_MTurk/v2_DepthDuration_HTML.html#136,136,1440,789,1440,900,8-21-2022,9-48-29,124,depth_duration_stimuli/002199_2014-06-28_18-33-56_260595134347_rgbf000074-resize_0/002199_2014-06-28_18-33-56_260595134347_rgbf000074-resize_0-target.png,125,1.996,35,2295,114,meters,jsons/VE125_randls_9.json,1241097,1387050,35,Man
124,163803,DepthScenes,duration_manipulation_targetAtFixation,jsons/VE125_randls_9.json,http://54.235.29.9/FacialAge/BNav_EC2/DepthDuration/v2_depth_duration_MTurk/v2_DepthDuration_HTML.html#136,136,1440,789,1440,900,8-21-2022,9-48-29,125,depth_duration_stimuli/000436_2014-06-09_22-25-11_260595134347_rgbf000137-resize_1/000436_2014-06-09_22-25-11_260595134347_rgbf000137-resize_1-target.png,125,4.0705,54,2382,114,meters,jsons/VE125_randls_9.json,1241097,1387050,35,Man
125,163803,DepthScenes,duration_manipulation_targetAtFixation,jsons/VE125_randls_9.json,http://54.235.29.9/FacialAge/BNav_EC2/DepthDuration/v2_depth_duration_MTurk/v2_DepthDuration_HTML.html#136,136,1440,789,1440,900,8-21-2022,9-48-29,126,depth_duration_stimuli/002444_2014-06-28_20-32-08_260595134347_rgbf000027-resize_0/002444_2014-06-28_20-32-08_260595134347_rgbf000027-resize_0-target.png,125,4.388999999999999,50,2506,123,meters,jsons/VE125_randls_9.json,1241097,1387050,35,Man
126,163803,DepthScenes,duration_manipulation_targetAtFixation,jsons/VE125_randls_9.json,http://54.235.29.9/FacialAge/BNav_EC2/DepthDuration/v2_depth_duration_MTurk/v2_DepthDuration_HTML.html#136,136,1440,789,1440,900,8-21-2022,9-48-29,127,depth_duration_stimuli/000739_2014-06-08_18-45-58_260595134347_rgbf000068-resize_1/000739_2014-06-08_18-45-58_260595134347_rgbf000068-resize_1-target.png,125,3.534,56,2445,135,meters,jsons/VE125_randls_9.json,1241097,1387050,35,Man
127,163803,DepthScenes,duration_manipulation_targetAtFixation,jsons/VE125_randls_9.json,http://54.235.29.9/FacialAge/BNav_EC2/DepthDuration/v2_depth_duration_MTurk/v2_DepthDuration_HTML.html#136,136,1440,789,1440,900,8-21-2022,9-48-29,128,depth_duration_stimuli/000734_2014-06-08_17-39-11_260595134347_rgbf000128-resize_2/000734_2014-06-08_17-39-11_260595134347_rgbf000128-resize_2-target.png,125,4.098,54,2347,120,meters,jsons/VE125_randls_9.json,1241097,1387050,35,Man
128,163803,DepthScenes,duration_manipulation_targetAtFixation,jsons/VE125_randls_9.json,http://54.235.29.9/FacialAge/BNav_EC2/DepthDuration/v2_depth_duration_MTurk/v2_DepthDuration_HTML.html#136,136,1440,789,1440,900,8-21-2022,9-48-29,129,depth_duration_stimuli/001066_2014-06-08_22-03-20_260595134347_rgbf000066-resize_4/001066_2014-06-08_22-03-20_260595134347_rgbf000066-resize_4-target.png,125,4.2330000000000005,60,2443,126,meters,jsons/VE125_randls_9.json,1241097,1387050,35,Man
129,163803,DepthScenes,duration_manipulation_targetAtFixation,jsons/VE125_randls_9.json,http://54.235.29.9/FacialAge/BNav_EC2/DepthDuration/v2_depth_duration_MTurk/v2_DepthDuration_HTML.html#136,136,1440,789,1440,900,8-21-2022,9-48-29,130,depth_duration_stimuli/000742_2014-06-08_18-48-09_260595134347_rgbf000164-resize_4/000742_2014-06-08_18-48-09_260595134347_rgbf000164-resize_4-target.png,125,4.632,55,2451,126,meters,jsons/VE125_randls_9.json,1241097,1387050,35,Man
130,163803,DepthScenes,duration_manipulation_targetAtFixation,jsons/VE125_randls_9.json,http://54.235.29.9/FacialAge/BNav_EC2/DepthDuration/v2_depth_duration_MTurk/v2_DepthDuration_HTML.html#136,136,1440,789,1440,900,8-21-2022,9-48-29,131,depth_duration_stimuli/000368_2014-06-09_15-53-01_260595134347_rgbf000155-resize_2/000368_2014-06-09_15-53-01_260595134347_rgbf000155-resize_2-target.png,125,2.4859999999999998,32,2467,126,meters,jsons/VE125_randls_9.json,1241097,1387050,35,Man
131,163803,DepthScenes,duration_manipulation_targetAtFixation,jsons/VE125_randls_9.json,http://54.235.29.9/FacialAge/BNav_EC2/DepthDuration/v2_depth_duration_MTurk/v2_DepthDuration_HTML.html#136,136,1440,789,1440,900,8-21-2022,9-48-29,132,depth_duration_stimuli/002678_2014-06-13_16-15-32_094959634447_rgbf000151-resize_6/002678_2014-06-13_16-15-32_094959634447_rgbf000151-resize_6-target.png,125,2.1830000000000003,45,2499,126,meters,jsons/VE125_randls_9.json,1241097,1387050,35,Man
132,163803,DepthScenes,duration_manipulation_targetAtFixation,jsons/VE125_randls_9.json,http://54.235.29.9/FacialAge/BNav_EC2/DepthDuration/v2_depth_duration_MTurk/v2_DepthDuration_HTML.html#136,136,1440,789,1440,900,8-21-2022,9-48-29,133,depth_duration_stimuli/000682_2014-06-08_23-14-58_260595134347_rgbf000041-resize_5/000682_2014-06-08_23-14-58_260595134347_rgbf000041-resize_5-target.png,125,2.7239999999999998,42,4939,126,meters,jsons/VE125_randls_9.json,1241097,1387050,35,Man
133,163803,DepthScenes,duration_manipulation_targetAtFixation,jsons/VE125_randls_9.json,http://54.235.29.9/FacialAge/BNav_EC2/DepthDuration/v2_depth_duration_MTurk/v2_DepthDuration_HTML.html#136,136,1440,789,1440,900,8-21-2022,9-48-29,134,depth_duration_stimuli/001650_2014-06-20_12-09-00_260595134347_rgbf000087-resize_3/001650_2014-06-20_12-09-00_260595134347_rgbf000087-resize_3-target.png,125,1.9505,30,2546,124,meters,jsons/VE125_randls_9.json,1241097,1387050,35,Man
134,163803,DepthScenes,duration_manipulation_targetAtFixation,jsons/VE125_randls_9.json,http://54.235.29.9/FacialAge/BNav_EC2/DepthDuration/v2_depth_duration_MTurk/v2_DepthDuration_HTML.html#136,136,1440,789,1440,900,8-21-2022,9-48-29,135,depth_duration_stimuli/002072_2014-06-24_21-48-06_260595134347_rgbf000115-resize_0/002072_2014-06-24_21-48-06_260595134347_rgbf000115-resize-original.jpg,125,4.702,0,2555,135,meters,jsons/VE125_randls_9.json,1241097,1387050,35,Man
135,163803,DepthScenes,duration_manipulation_targetAtFixation,jsons/VE125_randls_9.json,http://54.235.29.9/FacialAge/BNav_EC2/DepthDuration/v2_depth_duration_MTurk/v2_DepthDuration_HTML.html#136,136,1440,789,1440,900,8-21-2022,9-48-29,136,depth_duration_stimuli/001158_2014-06-17_15-32-16_260595134347_rgbf000138-resize_2/001158_2014-06-17_15-32-16_260595134347_rgbf000138-resize_2-target.png,125,4.5315,45,2371,124,meters,jsons/VE125_randls_9.json,1241097,1387050,35,Man
136,163803,DepthScenes,duration_manipulation_targetAtFixation,jsons/VE125_randls_9.json,http://54.235.29.9/FacialAge/BNav_EC2/DepthDuration/v2_depth_duration_MTurk/v2_DepthDuration_HTML.html#136,136,1440,789,1440,900,8-21-2022,9-48-29,137,depth_duration_stimuli/000556_2014-06-09_22-42-56_260595134347_rgbf000214-resize_1/000556_2014-06-09_22-42-56_260595134347_rgbf000214-resize_1-target.png,125,4.8415,52,2290,125,meters,jsons/VE125_randls_9.json,1241097,1387050,35,Man
137,163803,DepthScenes,duration_manipulation_targetAtFixation,jsons/VE125_randls_9.json,http://54.235.29.9/FacialAge/BNav_EC2/DepthDuration/v2_depth_duration_MTurk/v2_DepthDuration_HTML.html#136,136,1440,789,1440,900,8-21-2022,9-48-29,138,depth_duration_stimuli/002279_2014-06-28_18-55-32_260595134347_rgbf000040-resize_5/002279_2014-06-28_18-55-32_260595134347_rgbf000040-resize_5-target.png,125,1.5043333333333,43,2579,126,meters,jsons/VE125_randls_9.json,1241097,1387050,35,Man
138,163803,DepthScenes,duration_manipulation_targetAtFixation,jsons/VE125_randls_9.json,http://54.235.29.9/FacialAge/BNav_EC2/DepthDuration/v2_depth_duration_MTurk/v2_DepthDuration_HTML.html#136,136,1440,789,1440,900,8-21-2022,9-48-29,139,depth_duration_stimuli/000635_2014-06-08_16-38-42_260595134347_rgbf000106-resize_1/000635_2014-06-08_16-38-42_260595134347_rgbf000106-resize_1-target.png,125,2.074,52,2465,125,meters,jsons/VE125_randls_9.json,1241097,1387050,35,Man
139,163803,DepthScenes,duration_manipulation_targetAtFixation,jsons/VE125_randls_9.json,http://54.235.29.9/FacialAge/BNav_EC2/DepthDuration/v2_depth_duration_MTurk/v2_DepthDuration_HTML.html#136,136,1440,789,1440,900,8-21-2022,9-48-29,140,depth_duration_stimuli/000906_2014-06-08_13-35-43_260595134347_rgbf000155-resize_1/000906_2014-06-08_13-35-43_260595134347_rgbf000155-resize_1-target.png,125,2.8489999999999998,50,2416,122,meters,jsons/VE125_randls_9.json,1241097,1387050,35,Man
140,163803,DepthScenes,duration_manipulation_targetAtFixation,jsons/VE125_randls_9.json,http://54.235.29.9/FacialAge/BNav_EC2/DepthDuration/v2_depth_duration_MTurk/v2_DepthDuration_HTML.html#136,136,1440,789,1440,900,8-21-2022,9-48-29,141,depth_duration_stimuli/002805_2014-06-22_19-54-03_094959634447_rgbf000079-resize_1/002805_2014-06-22_19-54-03_094959634447_rgbf000079-resize_1-target.png,125,3.1439999999999997,51,5738,139,meters,jsons/VE125_randls_9.json,1241097,1387050,35,Man
141,163803,DepthScenes,duration_manipulation_targetAtFixation,jsons/VE125_randls_9.json,http://54.235.29.9/FacialAge/BNav_EC2/DepthDuration/v2_depth_duration_MTurk/v2_DepthDuration_HTML.html#136,136,1440,789,1440,900,8-21-2022,9-48-29,142,depth_duration_stimuli/003292_2014-05-14_21-53-49_094959634447_rgbf000100-resize_2/003292_2014-05-14_21-53-49_094959634447_rgbf000100-resize_2-target.png,125,3.4815,36,3043,126,meters,jsons/VE125_randls_9.json,1241097,1387050,35,Man
142,163803,DepthScenes,duration_manipulation_targetAtFixation,jsons/VE125_randls_9.json,http://54.235.29.9/FacialAge/BNav_EC2/DepthDuration/v2_depth_duration_MTurk/v2_DepthDuration_HTML.html#136,136,1440,789,1440,900,8-21-2022,9-48-29,143,depth_duration_stimuli/002639_2014-06-24_14-51-37_094959634447_rgbf000074-resize_4/002639_2014-06-24_14-51-37_094959634447_rgbf000074-resize_4-target.png,125,4.0375,42,2627,128,meters,jsons/VE125_randls_9.json,1241097,1387050,35,Man
143,163803,DepthScenes,duration_manipulation_targetAtFixation,jsons/VE125_randls_9.json,http://54.235.29.9/FacialAge/BNav_EC2/DepthDuration/v2_depth_duration_MTurk/v2_DepthDuration_HTML.html#136,136,1440,789,1440,900,8-21-2022,9-48-29,144,depth_duration_stimuli/001570_2014-06-20_17-21-09_260595134347_rgbf000135-resize_4/001570_2014-06-20_17-21-09_260595134347_rgbf000135-resize_4-target.png,125,4.467,40,21954,125,meters,jsons/VE125_randls_9.json,1241097,1387050,35,Man
144,163803,DepthScenes,duration_manipulation_targetAtFixation,jsons/VE125_randls_9.json,http://54.235.29.9/FacialAge/BNav_EC2/DepthDuration/v2_depth_duration_MTurk/v2_DepthDuration_HTML.html#136,136,1440,789,1440,900,8-21-2022,9-48-29,145,depth_duration_stimuli/001392_2014-06-19_16-07-59_260595134347_rgbf000046-resize_1/001392_2014-06-19_16-07-59_260595134347_rgbf000046-resize_1-target.png,125,4.135,45,3105,123,meters,jsons/VE125_randls_9.json,1241097,1387050,35,Man
145,163803,DepthScenes,duration_manipulation_targetAtFixation,jsons/VE125_randls_9.json,http://54.235.29.9/FacialAge/BNav_EC2/DepthDuration/v2_depth_duration_MTurk/v2_DepthDuration_HTML.html#136,136,1440,789,1440,900,8-21-2022,9-48-29,146,depth_duration_stimuli/001498_2014-06-19_17-45-14_260595134347_rgbf000129-resize_4/001498_2014-06-19_17-45-14_260595134347_rgbf000129-resize-original.jpg,125,1.4075,0,2499,126,meters,jsons/VE125_randls_9.json,1241097,1387050,35,Man
146,163803,DepthScenes,duration_manipulation_targetAtFixation,jsons/VE125_randls_9.json,http://54.235.29.9/FacialAge/BNav_EC2/DepthDuration/v2_depth_duration_MTurk/v2_DepthDuration_HTML.html#136,136,1440,789,1440,900,8-21-2022,9-48-29,147,depth_duration_stimuli/002989_2014-06-15_12-25-03_094959634447_rgbf000150-resize_3/002989_2014-06-15_12-25-03_094959634447_rgbf000150-resize_3-target.png,125,4.1975,46,2843,126,meters,jsons/VE125_randls_9.json,1241097,1387050,35,Man
147,163803,DepthScenes,duration_manipulation_targetAtFixation,jsons/VE125_randls_9.json,http://54.235.29.9/FacialAge/BNav_EC2/DepthDuration/v2_depth_duration_MTurk/v2_DepthDuration_HTML.html#136,136,1440,789,1440,900,8-21-2022,9-48-29,148,depth_duration_stimuli/000866_2014-06-09_20-45-42_260595134347_rgbf000139-resize_1/000866_2014-06-09_20-45-42_260595134347_rgbf000139-resize_1-target.png,125,3.2155,45,2539,126,meters,jsons/VE125_randls_9.json,1241097,1387050,35,Man
148,163803,DepthScenes,duration_manipulation_targetAtFixation,jsons/VE125_randls_9.json,http://54.235.29.9/FacialAge/BNav_EC2/DepthDuration/v2_depth_duration_MTurk/v2_DepthDuration_HTML.html#136,136,1440,789,1440,900,8-21-2022,9-48-29,149,depth_duration_stimuli/000506_2014-06-08_23-21-00_260595134347_rgbf000070-resize_7/000506_2014-06-08_23-21-00_260595134347_rgbf000070-resize_7-target.png,125,4.0585,50,5732,125,meters,jsons/VE125_randls_9.json,1241097,1387050,35,Man
149,163803,DepthScenes,duration_manipulation_targetAtFixation,jsons/VE125_randls_9.json,http://54.235.29.9/FacialAge/BNav_EC2/DepthDuration/v2_depth_duration_MTurk/v2_DepthDuration_HTML.html#136,136,1440,789,1440,900,8-21-2022,9-48-29,150,depth_duration_stimuli/003079_2014-06-15_15-18-20_094959634447_rgbf000152-resize_8/003079_2014-06-15_15-18-20_094959634447_rgbf000152-resize_8-target.png,125,2.8775,60,2443,126,meters,jsons/VE125_randls_9.json,1241097,1387050,35,Man
150,163803,DepthScenes,duration_manipulation_targetAtFixation,jsons/VE125_randls_9.json,http://54.235.29.9/FacialAge/BNav_EC2/DepthDuration/v2_depth_duration_MTurk/v2_DepthDuration_HTML.html#136,136,1440,789,1440,900,8-21-2022,9-48-29,151,depth_duration_stimuli/001449_2014-06-19_17-01-27_260595134347_rgbf000116-resize_2/001449_2014-06-19_17-01-27_260595134347_rgbf000116-resize_2-target.png,125,3.452,59,3036,126,meters,jsons/VE125_randls_9.json,1241097,1387050,35,Man
151,163803,DepthScenes,duration_manipulation_targetAtFixation,jsons/VE125_randls_9.json,http://54.235.29.9/FacialAge/BNav_EC2/DepthDuration/v2_depth_duration_MTurk/v2_DepthDuration_HTML.html#136,136,1440,789,1440,900,8-21-2022,9-48-29,152,depth_duration_stimuli/001450_2014-06-19_17-02-03_260595134347_rgbf000203-resize_4/001450_2014-06-19_17-02-03_260595134347_rgbf000203-resize_4-target.png,125,4.0106666666667,52,2561,126,meters,jsons/VE125_randls_9.json,1241097,1387050,35,Man
152,163803,DepthScenes,duration_manipulation_targetAtFixation,jsons/VE125_randls_9.json,http://54.235.29.9/FacialAge/BNav_EC2/DepthDuration/v2_depth_duration_MTurk/v2_DepthDuration_HTML.html#136,136,1440,789,1440,900,8-21-2022,9-48-29,153,depth_duration_stimuli/000773_2014-06-08_22-24-54_260595134347_rgbf000093-resize_1/000773_2014-06-08_22-24-54_260595134347_rgbf000093-resize_1-target.png,125,4.973,48,3179,126,meters,jsons/VE125_randls_9.json,1241097,1387050,35,Man
153,163803,DepthScenes,duration_manipulation_targetAtFixation,jsons/VE125_randls_9.json,http://54.235.29.9/FacialAge/BNav_EC2/DepthDuration/v2_depth_duration_MTurk/v2_DepthDuration_HTML.html#136,136,1440,789,1440,900,8-21-2022,9-48-29,154,depth_duration_stimuli/002414_2014-06-28_20-24-58_260595134347_rgbf000067-resize_4/002414_2014-06-28_20-24-58_260595134347_rgbf000067-resize_4-target.png,125,4.363,45,2602,126,meters,jsons/VE125_randls_9.json,1241097,1387050,35,Man
154,163803,DepthScenes,duration_manipulation_targetAtFixation,jsons/VE125_randls_9.json,http://54.235.29.9/FacialAge/BNav_EC2/DepthDuration/v2_depth_duration_MTurk/v2_DepthDuration_HTML.html#136,136,1440,789,1440,900,8-21-2022,9-48-29,155,depth_duration_stimuli/002630_2014-06-24_14-47-50_094959634447_rgbf000055-resize_1/002630_2014-06-24_14-47-50_094959634447_rgbf000055-resize_1-target.png,125,3.0095,40,2547,126,meters,jsons/VE125_randls_9.json,1241097,1387050,35,Man
155,163803,DepthScenes,duration_manipulation_targetAtFixation,jsons/VE125_randls_9.json,http://54.235.29.9/FacialAge/BNav_EC2/DepthDuration/v2_depth_duration_MTurk/v2_DepthDuration_HTML.html#136,136,1440,789,1440,900,8-21-2022,9-48-29,156,depth_duration_stimuli/002758_2014-06-22_19-11-20_094959634447_rgbf000128-resize_1/002758_2014-06-22_19-11-20_094959634447_rgbf000128-resize_1-target.png,125,2.555,35,2403,126,meters,jsons/VE125_randls_9.json,1241097,1387050,35,Man
156,163803,DepthScenes,duration_manipulation_targetAtFixation,jsons/VE125_randls_9.json,http://54.235.29.9/FacialAge/BNav_EC2/DepthDuration/v2_depth_duration_MTurk/v2_DepthDuration_HTML.html#136,136,1440,789,1440,900,8-21-2022,9-48-29,157,depth_duration_stimuli/000447_2014-06-08_16-15-46_260595134347_rgbf000130-resize_1/000447_2014-06-08_16-15-46_260595134347_rgbf000130-resize_1-target.png,125,4.479,32,2987,126,meters,jsons/VE125_randls_9.json,1241097,1387050,35,Man
157,163803,DepthScenes,duration_manipulation_targetAtFixation,jsons/VE125_randls_9.json,http://54.235.29.9/FacialAge/BNav_EC2/DepthDuration/v2_depth_duration_MTurk/v2_DepthDuration_HTML.html#136,136,1440,789,1440,900,8-21-2022,9-48-29,158,depth_duration_stimuli/001447_2014-06-19_17-00-32_260595134347_rgbf000082-resize_5/001447_2014-06-19_17-00-32_260595134347_rgbf000082-resize_5-target.png,125,4.13775,30,2282,126,meters,jsons/VE125_randls_9.json,1241097,1387050,35,Man
158,163803,DepthScenes,duration_manipulation_targetAtFixation,jsons/VE125_randls_9.json,http://54.235.29.9/FacialAge/BNav_EC2/DepthDuration/v2_depth_duration_MTurk/v2_DepthDuration_HTML.html#136,136,1440,789,1440,900,8-21-2022,9-48-29,159,depth_duration_stimuli/000414_2014-06-04_19-49-13_260595134347_rgbf000044-resize_0/000414_2014-06-04_19-49-13_260595134347_rgbf000044-resize_0-target.png,125,4.329,45,2507,126,meters,jsons/VE125_randls_9.json,1241097,1387050,35,Man
159,163803,DepthScenes,duration_manipulation_targetAtFixation,jsons/VE125_randls_9.json,http://54.235.29.9/FacialAge/BNav_EC2/DepthDuration/v2_depth_duration_MTurk/v2_DepthDuration_HTML.html#136,136,1440,789,1440,900,8-21-2022,9-48-29,160,depth_duration_stimuli/003129_2014-05-12_10-48-10_094959634447_rgbf000100-resize_0/003129_2014-05-12_10-48-10_094959634447_rgbf000100-resize_0-target.png,125,4.9305,48,2714,126,meters,jsons/VE125_randls_9.json,1241097,1387050,35,Man
160,163803,DepthScenes,duration_manipulation_targetAtFixation,jsons/VE125_randls_9.json,http://54.235.29.9/FacialAge/BNav_EC2/DepthDuration/v2_depth_duration_MTurk/v2_DepthDuration_HTML.html#136,136,1440,789,1440,900,8-21-2022,9-48-29,161,depth_duration_stimuli/002725_2014-06-22_11-47-51_094959634447_rgbf000070-resize_1/002725_2014-06-22_11-47-51_094959634447_rgbf000070-resize_1-target.png,125,2.195,45,2596,126,meters,jsons/VE125_randls_9.json,1241097,1387050,35,Man
161,163803,DepthScenes,duration_manipulation_targetAtFixation,jsons/VE125_randls_9.json,http://54.235.29.9/FacialAge/BNav_EC2/DepthDuration/v2_depth_duration_MTurk/v2_DepthDuration_HTML.html#136,136,1440,789,1440,900,8-21-2022,9-48-29,162,depth_duration_stimuli/002344_2014-06-28_20-06-29_260595134347_rgbf000030-resize_1/002344_2014-06-28_20-06-29_260595134347_rgbf000030-resize_1-target.png,125,1.5795,36,2706,126,meters,jsons/VE125_randls_9.json,1241097,1387050,35,Man
162,163803,DepthScenes,duration_manipulation_targetAtFixation,jsons/VE125_randls_9.json,http://54.235.29.9/FacialAge/BNav_EC2/DepthDuration/v2_depth_duration_MTurk/v2_DepthDuration_HTML.html#136,136,1440,789,1440,900,8-21-2022,9-48-29,163,depth_duration_stimuli/001175_2014-06-17_15-45-55_260595134347_rgbf000129-resize_4/001175_2014-06-17_15-45-55_260595134347_rgbf000129-resize_4-target.png,125,4.255,48,2827,126,meters,jsons/VE125_randls_9.json,1241097,1387050,35,Man
163,163803,DepthScenes,duration_manipulation_targetAtFixation,jsons/VE125_randls_9.json,http://54.235.29.9/FacialAge/BNav_EC2/DepthDuration/v2_depth_duration_MTurk/v2_DepthDuration_HTML.html#136,136,1440,789,1440,900,8-21-2022,9-48-29,164,depth_duration_stimuli/003490_2014-05-21_15-50-11_094959634447_rgbf000101-resize_3/003490_2014-05-21_15-50-11_094959634447_rgbf000101-resize_3-target.png,125,3.6445,49,2564,126,meters,jsons/VE125_randls_9.json,1241097,1387050,35,Man
