,subjID,experimentName,versionName,sequenceName,url,selected_row,windowWidth,windowHeight,screenWidth,screenHeight,startDate,startTime,trial,stimulus,duration,actual_depth,depth_estimate,trial_RT,log_sceneDuration,unitSelection,seq_filepath,experimentTime,totalTime,age,gender
0,164563,DepthScenes,duration_manipulation_targetAtFixation,jsons/v1_VE1000_randls_76_rotated.json,http://54.235.29.9/FacialAge/BNav_EC2/DepthDuration/v2_depth_duration_MTurk/v2_DepthDuration_HTML.html#217,217,1707,781,1366,768,9-18-2022,13-3-35,1,depth_duration_stimuli/001100_2014-06-15_17-46-26_260595134347_rgbf000225-resize_2/001100_2014-06-15_17-46-26_260595134347_rgbf000225-resize_2-target.png,1000,2.24,3.0,4218,1000,feet,jsons/v1_VE1000_randls_76_rotated.json,1292839,1522231,28,Woman
1,164563,DepthScenes,duration_manipulation_targetAtFixation,jsons/v1_VE1000_randls_76_rotated.json,http://54.235.29.9/FacialAge/BNav_EC2/DepthDuration/v2_depth_duration_MTurk/v2_DepthDuration_HTML.html#217,217,1707,781,1366,768,9-18-2022,13-3-35,2,depth_duration_stimuli/002784_2014-06-22_19-26-30_094959634447_rgbf000083-resize_3/002784_2014-06-22_19-26-30_094959634447_rgbf000083-resize_3-target.png,1000,1.8046666666667,3.5,4522,998,feet,jsons/v1_VE1000_randls_76_rotated.json,1292839,1522231,28,Woman
2,164563,DepthScenes,duration_manipulation_targetAtFixation,jsons/v1_VE1000_randls_76_rotated.json,http://54.235.29.9/FacialAge/BNav_EC2/DepthDuration/v2_depth_duration_MTurk/v2_DepthDuration_HTML.html#217,217,1707,781,1366,768,9-18-2022,13-3-35,3,depth_duration_stimuli/002467_2014-06-28_20-38-07_260595134347_rgbf000026-resize_2/002467_2014-06-28_20-38-07_260595134347_rgbf000026-resize_2-target.png,1000,4.742,6.0,4531,1007,feet,jsons/v1_VE1000_randls_76_rotated.json,1292839,1522231,28,Woman
3,164563,DepthScenes,duration_manipulation_targetAtFixation,jsons/v1_VE1000_randls_76_rotated.json,http://54.235.29.9/FacialAge/BNav_EC2/DepthDuration/v2_depth_duration_MTurk/v2_DepthDuration_HTML.html#217,217,1707,781,1366,768,9-18-2022,13-3-35,4,depth_duration_stimuli/002570_2014-06-24_13-59-54_094959634447_rgbf000059-resize_0/002570_2014-06-24_13-59-54_094959634447_rgbf000059-resize_0-target.png,1000,4.037,8.0,5652,1005,feet,jsons/v1_VE1000_randls_76_rotated.json,1292839,1522231,28,Woman
4,164563,DepthScenes,duration_manipulation_targetAtFixation,jsons/v1_VE1000_randls_76_rotated.json,http://54.235.29.9/FacialAge/BNav_EC2/DepthDuration/v2_depth_duration_MTurk/v2_DepthDuration_HTML.html#217,217,1707,781,1366,768,9-18-2022,13-3-35,5,depth_duration_stimuli/003079_2014-06-15_15-18-20_094959634447_rgbf000152-resize_8/003079_2014-06-15_15-18-20_094959634447_rgbf000152-resize_8-target.png,1000,2.8775,11.0,7209,998,feet,jsons/v1_VE1000_randls_76_rotated.json,1292839,1522231,28,Woman
5,164563,DepthScenes,duration_manipulation_targetAtFixation,jsons/v1_VE1000_randls_76_rotated.json,http://54.235.29.9/FacialAge/BNav_EC2/DepthDuration/v2_depth_duration_MTurk/v2_DepthDuration_HTML.html#217,217,1707,781,1366,768,9-18-2022,13-3-35,6,depth_duration_stimuli/000506_2014-06-08_23-21-00_260595134347_rgbf000070-resize_7/000506_2014-06-08_23-21-00_260595134347_rgbf000070-resize_7-target.png,1000,4.0585,9.0,5603,1001,feet,jsons/v1_VE1000_randls_76_rotated.json,1292839,1522231,28,Woman
6,164563,DepthScenes,duration_manipulation_targetAtFixation,jsons/v1_VE1000_randls_76_rotated.json,http://54.235.29.9/FacialAge/BNav_EC2/DepthDuration/v2_depth_duration_MTurk/v2_DepthDuration_HTML.html#217,217,1707,781,1366,768,9-18-2022,13-3-35,7,depth_duration_stimuli/000749_2014-06-08_21-55-06_260595134347_rgbf000070-resize_2/000749_2014-06-08_21-55-06_260595134347_rgbf000070-resize_2-target.png,1000,2.331,7.0,7773,993,feet,jsons/v1_VE1000_randls_76_rotated.json,1292839,1522231,28,Woman
7,164563,DepthScenes,duration_manipulation_targetAtFixation,jsons/v1_VE1000_randls_76_rotated.json,http://54.235.29.9/FacialAge/BNav_EC2/DepthDuration/v2_depth_duration_MTurk/v2_DepthDuration_HTML.html#217,217,1707,781,1366,768,9-18-2022,13-3-35,8,depth_duration_stimuli/002788_2014-06-22_19-36-03_094959634447_rgbf000088-resize_2/002788_2014-06-22_19-36-03_094959634447_rgbf000088-resize_2-target.png,1000,1.6465,10.0,4939,992,feet,jsons/v1_VE1000_randls_76_rotated.json,1292839,1522231,28,Woman
8,164563,DepthScenes,duration_manipulation_targetAtFixation,jsons/v1_VE1000_randls_76_rotated.json,http://54.235.29.9/FacialAge/BNav_EC2/DepthDuration/v2_depth_duration_MTurk/v2_DepthDuration_HTML.html#217,217,1707,781,1366,768,9-18-2022,13-3-35,9,depth_duration_stimuli/002995_2014-06-15_12-31-26_094959634447_rgbf000150-resize_1/002995_2014-06-15_12-31-26_094959634447_rgbf000150-resize_1-target.png,1000,3.8360000000000003,8.0,4245,998,feet,jsons/v1_VE1000_randls_76_rotated.json,1292839,1522231,28,Woman
9,164563,DepthScenes,duration_manipulation_targetAtFixation,jsons/v1_VE1000_randls_76_rotated.json,http://54.235.29.9/FacialAge/BNav_EC2/DepthDuration/v2_depth_duration_MTurk/v2_DepthDuration_HTML.html#217,217,1707,781,1366,768,9-18-2022,13-3-35,10,depth_duration_stimuli/002748_2014-06-22_19-07-22_094959634447_rgbf000078-resize_1/002748_2014-06-22_19-07-22_094959634447_rgbf000078-resize_1-target.png,1000,4.6705,12.0,4249,999,feet,jsons/v1_VE1000_randls_76_rotated.json,1292839,1522231,28,Woman
10,164563,DepthScenes,duration_manipulation_targetAtFixation,jsons/v1_VE1000_randls_76_rotated.json,http://54.235.29.9/FacialAge/BNav_EC2/DepthDuration/v2_depth_duration_MTurk/v2_DepthDuration_HTML.html#217,217,1707,781,1366,768,9-18-2022,13-3-35,11,depth_duration_stimuli/002568_2014-06-24_13-59-21_094959634447_rgbf000062-resize_4/002568_2014-06-24_13-59-21_094959634447_rgbf000062-resize_4-target.png,1000,3.015,9.0,5074,999,feet,jsons/v1_VE1000_randls_76_rotated.json,1292839,1522231,28,Woman
11,164563,DepthScenes,duration_manipulation_targetAtFixation,jsons/v1_VE1000_randls_76_rotated.json,http://54.235.29.9/FacialAge/BNav_EC2/DepthDuration/v2_depth_duration_MTurk/v2_DepthDuration_HTML.html#217,217,1707,781,1366,768,9-18-2022,13-3-35,12,depth_duration_stimuli/003492_2014-05-21_15-50-55_094959634447_rgbf000828-resize_1/003492_2014-05-21_15-50-55_094959634447_rgbf000828-resize_1-target.png,1000,4.06875,8.5,4800,998,feet,jsons/v1_VE1000_randls_76_rotated.json,1292839,1522231,28,Woman
12,164563,DepthScenes,duration_manipulation_targetAtFixation,jsons/v1_VE1000_randls_76_rotated.json,http://54.235.29.9/FacialAge/BNav_EC2/DepthDuration/v2_depth_duration_MTurk/v2_DepthDuration_HTML.html#217,217,1707,781,1366,768,9-18-2022,13-3-35,13,depth_duration_stimuli/001235_2014-06-17_16-37-36_260595134347_rgbf000084-resize_4/001235_2014-06-17_16-37-36_260595134347_rgbf000084-resize_4-target.png,1000,3.6605,7.0,4063,998,feet,jsons/v1_VE1000_randls_76_rotated.json,1292839,1522231,28,Woman
13,164563,DepthScenes,duration_manipulation_targetAtFixation,jsons/v1_VE1000_randls_76_rotated.json,http://54.235.29.9/FacialAge/BNav_EC2/DepthDuration/v2_depth_duration_MTurk/v2_DepthDuration_HTML.html#217,217,1707,781,1366,768,9-18-2022,13-3-35,14,depth_duration_stimuli/000788_2014-06-08_22-34-36_260595134347_rgbf000131-resize_1/000788_2014-06-08_22-34-36_260595134347_rgbf000131-resize_1-target.png,1000,3.359,4.0,3956,1013,feet,jsons/v1_VE1000_randls_76_rotated.json,1292839,1522231,28,Woman
14,164563,DepthScenes,duration_manipulation_targetAtFixation,jsons/v1_VE1000_randls_76_rotated.json,http://54.235.29.9/FacialAge/BNav_EC2/DepthDuration/v2_depth_duration_MTurk/v2_DepthDuration_HTML.html#217,217,1707,781,1366,768,9-18-2022,13-3-35,15,depth_duration_stimuli/003129_2014-05-12_10-48-10_094959634447_rgbf000100-resize_0/003129_2014-05-12_10-48-10_094959634447_rgbf000100-resize_0-target.png,1000,4.9305,6.0,6050,1007,feet,jsons/v1_VE1000_randls_76_rotated.json,1292839,1522231,28,Woman
15,164563,DepthScenes,duration_manipulation_targetAtFixation,jsons/v1_VE1000_randls_76_rotated.json,http://54.235.29.9/FacialAge/BNav_EC2/DepthDuration/v2_depth_duration_MTurk/v2_DepthDuration_HTML.html#217,217,1707,781,1366,768,9-18-2022,13-3-35,16,depth_duration_stimuli/000414_2014-06-04_19-49-13_260595134347_rgbf000044-resize_0/000414_2014-06-04_19-49-13_260595134347_rgbf000044-resize_0-target.png,1000,4.329,10.0,6176,1000,feet,jsons/v1_VE1000_randls_76_rotated.json,1292839,1522231,28,Woman
16,164563,DepthScenes,duration_manipulation_targetAtFixation,jsons/v1_VE1000_randls_76_rotated.json,http://54.235.29.9/FacialAge/BNav_EC2/DepthDuration/v2_depth_duration_MTurk/v2_DepthDuration_HTML.html#217,217,1707,781,1366,768,9-18-2022,13-3-35,17,depth_duration_stimuli/001132_2014-06-17_14-48-54_260595134347_rgbf000100-resize_2/001132_2014-06-17_14-48-54_260595134347_rgbf000100-resize_2-target.png,1000,3.753,12.0,4292,1000,feet,jsons/v1_VE1000_randls_76_rotated.json,1292839,1522231,28,Woman
17,164563,DepthScenes,duration_manipulation_targetAtFixation,jsons/v1_VE1000_randls_76_rotated.json,http://54.235.29.9/FacialAge/BNav_EC2/DepthDuration/v2_depth_duration_MTurk/v2_DepthDuration_HTML.html#217,217,1707,781,1366,768,9-18-2022,13-3-35,18,depth_duration_stimuli/001133_2014-06-17_14-49-16_260595134347_rgbf000100-resize_0/001133_2014-06-17_14-49-16_260595134347_rgbf000100-resize_0-target.png,1000,4.2115,11.0,4084,1002,feet,jsons/v1_VE1000_randls_76_rotated.json,1292839,1522231,28,Woman
18,164563,DepthScenes,duration_manipulation_targetAtFixation,jsons/v1_VE1000_randls_76_rotated.json,http://54.235.29.9/FacialAge/BNav_EC2/DepthDuration/v2_depth_duration_MTurk/v2_DepthDuration_HTML.html#217,217,1707,781,1366,768,9-18-2022,13-3-35,19,depth_duration_stimuli/001498_2014-06-19_17-45-14_260595134347_rgbf000129-resize_4/001498_2014-06-19_17-45-14_260595134347_rgbf000129-resize-original.jpg,1000,1.4075,0.0,4208,1012,feet,jsons/v1_VE1000_randls_76_rotated.json,1292839,1522231,28,Woman
19,164563,DepthScenes,duration_manipulation_targetAtFixation,jsons/v1_VE1000_randls_76_rotated.json,http://54.235.29.9/FacialAge/BNav_EC2/DepthDuration/v2_depth_duration_MTurk/v2_DepthDuration_HTML.html#217,217,1707,781,1366,768,9-18-2022,13-3-35,20,depth_duration_stimuli/000665_2014-06-09_20-42-35_260595134347_rgbf000110-resize_1/000665_2014-06-09_20-42-35_260595134347_rgbf000110-resize_1-target.png,1000,3.057,7.0,4358,1022,feet,jsons/v1_VE1000_randls_76_rotated.json,1292839,1522231,28,Woman
20,164563,DepthScenes,duration_manipulation_targetAtFixation,jsons/v1_VE1000_randls_76_rotated.json,http://54.235.29.9/FacialAge/BNav_EC2/DepthDuration/v2_depth_duration_MTurk/v2_DepthDuration_HTML.html#217,217,1707,781,1366,768,9-18-2022,13-3-35,21,depth_duration_stimuli/001150_2014-06-17_15-27-34_260595134347_rgbf000108-resize_2/001150_2014-06-17_15-27-34_260595134347_rgbf000108-resize_2-target.png,1000,4.0325,8.0,4133,1006,feet,jsons/v1_VE1000_randls_76_rotated.json,1292839,1522231,28,Woman
21,164563,DepthScenes,duration_manipulation_targetAtFixation,jsons/v1_VE1000_randls_76_rotated.json,http://54.235.29.9/FacialAge/BNav_EC2/DepthDuration/v2_depth_duration_MTurk/v2_DepthDuration_HTML.html#217,217,1707,781,1366,768,9-18-2022,13-3-35,22,depth_duration_stimuli/003495_2014-05-21_16-01-51_094959634447_rgbf000100-resize_3/003495_2014-05-21_16-01-51_094959634447_rgbf000100-resize_3-target.png,1000,1.6255,3.0,4649,1013,feet,jsons/v1_VE1000_randls_76_rotated.json,1292839,1522231,28,Woman
22,164563,DepthScenes,duration_manipulation_targetAtFixation,jsons/v1_VE1000_randls_76_rotated.json,http://54.235.29.9/FacialAge/BNav_EC2/DepthDuration/v2_depth_duration_MTurk/v2_DepthDuration_HTML.html#217,217,1707,781,1366,768,9-18-2022,13-3-35,23,depth_duration_stimuli/001244_2014-06-17_16-47-45_260595134347_rgbf000030-resize_4/001244_2014-06-17_16-47-45_260595134347_rgbf000030-resize_4-target.png,1000,2.0425,5.0,4210,1002,feet,jsons/v1_VE1000_randls_76_rotated.json,1292839,1522231,28,Woman
23,164563,DepthScenes,duration_manipulation_targetAtFixation,jsons/v1_VE1000_randls_76_rotated.json,http://54.235.29.9/FacialAge/BNav_EC2/DepthDuration/v2_depth_duration_MTurk/v2_DepthDuration_HTML.html#217,217,1707,781,1366,768,9-18-2022,13-3-35,24,depth_duration_stimuli/000734_2014-06-08_17-39-11_260595134347_rgbf000128-resize_2/000734_2014-06-08_17-39-11_260595134347_rgbf000128-resize_2-target.png,1000,4.098,7.0,4193,990,feet,jsons/v1_VE1000_randls_76_rotated.json,1292839,1522231,28,Woman
24,164563,DepthScenes,duration_manipulation_targetAtFixation,jsons/v1_VE1000_randls_76_rotated.json,http://54.235.29.9/FacialAge/BNav_EC2/DepthDuration/v2_depth_duration_MTurk/v2_DepthDuration_HTML.html#217,217,1707,781,1366,768,9-18-2022,13-3-35,25,depth_duration_stimuli/000739_2014-06-08_18-45-58_260595134347_rgbf000068-resize_1/000739_2014-06-08_18-45-58_260595134347_rgbf000068-resize_1-target.png,1000,3.534,8.0,4144,1007,feet,jsons/v1_VE1000_randls_76_rotated.json,1292839,1522231,28,Woman
25,164563,DepthScenes,duration_manipulation_targetAtFixation,jsons/v1_VE1000_randls_76_rotated.json,http://54.235.29.9/FacialAge/BNav_EC2/DepthDuration/v2_depth_duration_MTurk/v2_DepthDuration_HTML.html#217,217,1707,781,1366,768,9-18-2022,13-3-35,26,depth_duration_stimuli/000137_2014-05-20_17-04-49_260595134347_rgbf000120-resize_1/000137_2014-05-20_17-04-49_260595134347_rgbf000120-resize_1-target.png,1000,3.786,9.0,4387,1002,feet,jsons/v1_VE1000_randls_76_rotated.json,1292839,1522231,28,Woman
26,164563,DepthScenes,duration_manipulation_targetAtFixation,jsons/v1_VE1000_randls_76_rotated.json,http://54.235.29.9/FacialAge/BNav_EC2/DepthDuration/v2_depth_duration_MTurk/v2_DepthDuration_HTML.html#217,217,1707,781,1366,768,9-18-2022,13-3-35,27,depth_duration_stimuli/000736_2014-06-08_18-24-15_260595134347_rgbf000206-resize_3/000736_2014-06-08_18-24-15_260595134347_rgbf000206-resize_3-target.png,1000,3.515,5.0,4066,999,feet,jsons/v1_VE1000_randls_76_rotated.json,1292839,1522231,28,Woman
27,164563,DepthScenes,duration_manipulation_targetAtFixation,jsons/v1_VE1000_randls_76_rotated.json,http://54.235.29.9/FacialAge/BNav_EC2/DepthDuration/v2_depth_duration_MTurk/v2_DepthDuration_HTML.html#217,217,1707,781,1366,768,9-18-2022,13-3-35,28,depth_duration_stimuli/001450_2014-06-19_17-02-03_260595134347_rgbf000203-resize_4/001450_2014-06-19_17-02-03_260595134347_rgbf000203-resize_4-target.png,1000,4.0106666666667,7.0,89855,1014,feet,jsons/v1_VE1000_randls_76_rotated.json,1292839,1522231,28,Woman
28,164563,DepthScenes,duration_manipulation_targetAtFixation,jsons/v1_VE1000_randls_76_rotated.json,http://54.235.29.9/FacialAge/BNav_EC2/DepthDuration/v2_depth_duration_MTurk/v2_DepthDuration_HTML.html#217,217,1707,781,1366,768,9-18-2022,13-3-35,29,depth_duration_stimuli/001449_2014-06-19_17-01-27_260595134347_rgbf000116-resize_2/001449_2014-06-19_17-01-27_260595134347_rgbf000116-resize_2-target.png,1000,3.452,8.0,4240,1003,feet,jsons/v1_VE1000_randls_76_rotated.json,1292839,1522231,28,Woman
29,164563,DepthScenes,duration_manipulation_targetAtFixation,jsons/v1_VE1000_randls_76_rotated.json,http://54.235.29.9/FacialAge/BNav_EC2/DepthDuration/v2_depth_duration_MTurk/v2_DepthDuration_HTML.html#217,217,1707,781,1366,768,9-18-2022,13-3-35,30,depth_duration_stimuli/002072_2014-06-24_21-48-06_260595134347_rgbf000115-resize_0/002072_2014-06-24_21-48-06_260595134347_rgbf000115-resize-original.jpg,1000,4.702,0.0,4392,998,feet,jsons/v1_VE1000_randls_76_rotated.json,1292839,1522231,28,Woman
30,164563,DepthScenes,duration_manipulation_targetAtFixation,jsons/v1_VE1000_randls_76_rotated.json,http://54.235.29.9/FacialAge/BNav_EC2/DepthDuration/v2_depth_duration_MTurk/v2_DepthDuration_HTML.html#217,217,1707,781,1366,768,9-18-2022,13-3-35,31,depth_duration_stimuli/000483_2014-06-09_20-41-45_260595134347_rgbf000116-resize_4/000483_2014-06-09_20-41-45_260595134347_rgbf000116-resize_4-target.png,1000,1.337,2.0,4025,1012,feet,jsons/v1_VE1000_randls_76_rotated.json,1292839,1522231,28,Woman
31,164563,DepthScenes,duration_manipulation_targetAtFixation,jsons/v1_VE1000_randls_76_rotated.json,http://54.235.29.9/FacialAge/BNav_EC2/DepthDuration/v2_depth_duration_MTurk/v2_DepthDuration_HTML.html#217,217,1707,781,1366,768,9-18-2022,13-3-35,32,depth_duration_stimuli/000469_2014-06-09_19-42-10_260595134347_rgbf000081-resize_1/000469_2014-06-09_19-42-10_260595134347_rgbf000081-resize_1-target.png,1000,1.652,3.0,5088,998,feet,jsons/v1_VE1000_randls_76_rotated.json,1292839,1522231,28,Woman
32,164563,DepthScenes,duration_manipulation_targetAtFixation,jsons/v1_VE1000_randls_76_rotated.json,http://54.235.29.9/FacialAge/BNav_EC2/DepthDuration/v2_depth_duration_MTurk/v2_DepthDuration_HTML.html#217,217,1707,781,1366,768,9-18-2022,13-3-35,33,depth_duration_stimuli/002545_2014-06-24_13-38-53_094959634447_rgbf000080-resize_4/002545_2014-06-24_13-38-53_094959634447_rgbf000080-resize_4-target.png,1000,1.9205,5.0,4543,999,feet,jsons/v1_VE1000_randls_76_rotated.json,1292839,1522231,28,Woman
33,164563,DepthScenes,duration_manipulation_targetAtFixation,jsons/v1_VE1000_randls_76_rotated.json,http://54.235.29.9/FacialAge/BNav_EC2/DepthDuration/v2_depth_duration_MTurk/v2_DepthDuration_HTML.html#217,217,1707,781,1366,768,9-18-2022,13-3-35,34,depth_duration_stimuli/001092_2014-06-15_17-34-58_260595134347_rgbf000171-resize_3/001092_2014-06-15_17-34-58_260595134347_rgbf000171-resize_3-target.png,1000,2.6935,4.0,3924,999,feet,jsons/v1_VE1000_randls_76_rotated.json,1292839,1522231,28,Woman
34,164563,DepthScenes,duration_manipulation_targetAtFixation,jsons/v1_VE1000_randls_76_rotated.json,http://54.235.29.9/FacialAge/BNav_EC2/DepthDuration/v2_depth_duration_MTurk/v2_DepthDuration_HTML.html#217,217,1707,781,1366,768,9-18-2022,13-3-35,35,depth_duration_stimuli/000635_2014-06-08_16-38-42_260595134347_rgbf000106-resize_1/000635_2014-06-08_16-38-42_260595134347_rgbf000106-resize_1-target.png,1000,2.074,8.0,5195,986,feet,jsons/v1_VE1000_randls_76_rotated.json,1292839,1522231,28,Woman
35,164563,DepthScenes,duration_manipulation_targetAtFixation,jsons/v1_VE1000_randls_76_rotated.json,http://54.235.29.9/FacialAge/BNav_EC2/DepthDuration/v2_depth_duration_MTurk/v2_DepthDuration_HTML.html#217,217,1707,781,1366,768,9-18-2022,13-3-35,36,depth_duration_stimuli/002279_2014-06-28_18-55-32_260595134347_rgbf000040-resize_5/002279_2014-06-28_18-55-32_260595134347_rgbf000040-resize_5-target.png,1000,1.5043333333333,2.0,4290,1004,feet,jsons/v1_VE1000_randls_76_rotated.json,1292839,1522231,28,Woman
36,164563,DepthScenes,duration_manipulation_targetAtFixation,jsons/v1_VE1000_randls_76_rotated.json,http://54.235.29.9/FacialAge/BNav_EC2/DepthDuration/v2_depth_duration_MTurk/v2_DepthDuration_HTML.html#217,217,1707,781,1366,768,9-18-2022,13-3-35,37,depth_duration_stimuli/000191_2014-05-12_17-07-38_260595134347_rgbf000199-resize_0/000191_2014-05-12_17-07-38_260595134347_rgbf000199-resize_0-target.png,1000,3.7995,10.0,4139,1004,feet,jsons/v1_VE1000_randls_76_rotated.json,1292839,1522231,28,Woman
37,164563,DepthScenes,duration_manipulation_targetAtFixation,jsons/v1_VE1000_randls_76_rotated.json,http://54.235.29.9/FacialAge/BNav_EC2/DepthDuration/v2_depth_duration_MTurk/v2_DepthDuration_HTML.html#217,217,1707,781,1366,768,9-18-2022,13-3-35,38,depth_duration_stimuli/000493_2014-06-09_21-01-18_260595134347_rgbf000196-resize_3/000493_2014-06-09_21-01-18_260595134347_rgbf000196-resize_3-target.png,1000,3.44,9.0,4063,998,feet,jsons/v1_VE1000_randls_76_rotated.json,1292839,1522231,28,Woman
38,164563,DepthScenes,duration_manipulation_targetAtFixation,jsons/v1_VE1000_randls_76_rotated.json,http://54.235.29.9/FacialAge/BNav_EC2/DepthDuration/v2_depth_duration_MTurk/v2_DepthDuration_HTML.html#217,217,1707,781,1366,768,9-18-2022,13-3-35,39,depth_duration_stimuli/003490_2014-05-21_15-50-11_094959634447_rgbf000101-resize_3/003490_2014-05-21_15-50-11_094959634447_rgbf000101-resize_3-target.png,1000,3.6445,8.0,3965,999,feet,jsons/v1_VE1000_randls_76_rotated.json,1292839,1522231,28,Woman
39,164563,DepthScenes,duration_manipulation_targetAtFixation,jsons/v1_VE1000_randls_76_rotated.json,http://54.235.29.9/FacialAge/BNav_EC2/DepthDuration/v2_depth_duration_MTurk/v2_DepthDuration_HTML.html#217,217,1707,781,1366,768,9-18-2022,13-3-35,40,depth_duration_stimuli/001175_2014-06-17_15-45-55_260595134347_rgbf000129-resize_4/001175_2014-06-17_15-45-55_260595134347_rgbf000129-resize_4-target.png,1000,4.255,11.0,4102,997,feet,jsons/v1_VE1000_randls_76_rotated.json,1292839,1522231,28,Woman
40,164563,DepthScenes,duration_manipulation_targetAtFixation,jsons/v1_VE1000_randls_76_rotated.json,http://54.235.29.9/FacialAge/BNav_EC2/DepthDuration/v2_depth_duration_MTurk/v2_DepthDuration_HTML.html#217,217,1707,781,1366,768,9-18-2022,13-3-35,41,depth_duration_stimuli/003010_2014-06-15_12-54-35_094959634447_rgbf000112-resize_0/003010_2014-06-15_12-54-35_094959634447_rgbf000112-resize_0-target.png,1000,3.1185,13.0,4853,1006,feet,jsons/v1_VE1000_randls_76_rotated.json,1292839,1522231,28,Woman
41,164563,DepthScenes,duration_manipulation_targetAtFixation,jsons/v1_VE1000_randls_76_rotated.json,http://54.235.29.9/FacialAge/BNav_EC2/DepthDuration/v2_depth_duration_MTurk/v2_DepthDuration_HTML.html#217,217,1707,781,1366,768,9-18-2022,13-3-35,42,depth_duration_stimuli/001810_2014-06-26_20-51-35_260595134347_rgbf000040-resize_3/001810_2014-06-26_20-51-35_260595134347_rgbf000040-resize_3-target.png,1000,2.2525,4.0,4231,972,feet,jsons/v1_VE1000_randls_76_rotated.json,1292839,1522231,28,Woman
42,164563,DepthScenes,duration_manipulation_targetAtFixation,jsons/v1_VE1000_randls_76_rotated.json,http://54.235.29.9/FacialAge/BNav_EC2/DepthDuration/v2_depth_duration_MTurk/v2_DepthDuration_HTML.html#217,217,1707,781,1366,768,9-18-2022,13-3-35,43,depth_duration_stimuli/001815_2014-06-26_20-52-55_260595134347_rgbf000020-resize_0/001815_2014-06-26_20-52-55_260595134347_rgbf000020-resize_0-target.png,1000,3.3865,8.0,5152,998,feet,jsons/v1_VE1000_randls_76_rotated.json,1292839,1522231,28,Woman
43,164563,DepthScenes,duration_manipulation_targetAtFixation,jsons/v1_VE1000_randls_76_rotated.json,http://54.235.29.9/FacialAge/BNav_EC2/DepthDuration/v2_depth_duration_MTurk/v2_DepthDuration_HTML.html#217,217,1707,781,1366,768,9-18-2022,13-3-35,44,depth_duration_stimuli/001808_2014-06-26_20-50-58_260595134347_rgbf000029-resize_1/001808_2014-06-26_20-50-58_260595134347_rgbf000029-resize_1-target.png,1000,4.249,14.0,9296,975,feet,jsons/v1_VE1000_randls_76_rotated.json,1292839,1522231,28,Woman
44,164563,DepthScenes,duration_manipulation_targetAtFixation,jsons/v1_VE1000_randls_76_rotated.json,http://54.235.29.9/FacialAge/BNav_EC2/DepthDuration/v2_depth_duration_MTurk/v2_DepthDuration_HTML.html#217,217,1707,781,1366,768,9-18-2022,13-3-35,45,depth_duration_stimuli/000780_2014-06-08_22-28-29_260595134347_rgbf000126-resize_1/000780_2014-06-08_22-28-29_260595134347_rgbf000126-resize_1-target.png,1000,3.3825,11.0,4188,1001,feet,jsons/v1_VE1000_randls_76_rotated.json,1292839,1522231,28,Woman
45,164563,DepthScenes,duration_manipulation_targetAtFixation,jsons/v1_VE1000_randls_76_rotated.json,http://54.235.29.9/FacialAge/BNav_EC2/DepthDuration/v2_depth_duration_MTurk/v2_DepthDuration_HTML.html#217,217,1707,781,1366,768,9-18-2022,13-3-35,46,depth_duration_stimuli/002445_2014-06-28_20-32-16_260595134347_rgbf000029-resize_4/002445_2014-06-28_20-32-16_260595134347_rgbf000029-resize_4-target.png,1000,2.5315,4.0,3828,986,feet,jsons/v1_VE1000_randls_76_rotated.json,1292839,1522231,28,Woman
46,164563,DepthScenes,duration_manipulation_targetAtFixation,jsons/v1_VE1000_randls_76_rotated.json,http://54.235.29.9/FacialAge/BNav_EC2/DepthDuration/v2_depth_duration_MTurk/v2_DepthDuration_HTML.html#217,217,1707,781,1366,768,9-18-2022,13-3-35,47,depth_duration_stimuli/001617_2014-06-20_11-35-32_260595134347_rgbf000066-resize_1/001617_2014-06-20_11-35-32_260595134347_rgbf000066-resize_1-target.png,1000,3.7910000000000004,9.0,5159,996,feet,jsons/v1_VE1000_randls_76_rotated.json,1292839,1522231,28,Woman
47,164563,DepthScenes,duration_manipulation_targetAtFixation,jsons/v1_VE1000_randls_76_rotated.json,http://54.235.29.9/FacialAge/BNav_EC2/DepthDuration/v2_depth_duration_MTurk/v2_DepthDuration_HTML.html#217,217,1707,781,1366,768,9-18-2022,13-3-35,48,depth_duration_stimuli/001806_2014-06-26_20-50-20_260595134347_rgbf000091-resize_1/001806_2014-06-26_20-50-20_260595134347_rgbf000091-resize_1-target.png,1000,2.7305,4.0,4294,987,feet,jsons/v1_VE1000_randls_76_rotated.json,1292839,1522231,28,Woman
48,164563,DepthScenes,duration_manipulation_targetAtFixation,jsons/v1_VE1000_randls_76_rotated.json,http://54.235.29.9/FacialAge/BNav_EC2/DepthDuration/v2_depth_duration_MTurk/v2_DepthDuration_HTML.html#217,217,1707,781,1366,768,9-18-2022,13-3-35,49,depth_duration_stimuli/001170_2014-06-17_15-43-44_260595134347_rgbf000096-resize_6/001170_2014-06-17_15-43-44_260595134347_rgbf000096-resize-original.jpg,1000,1.1909999999999998,0.0,4075,998,feet,jsons/v1_VE1000_randls_76_rotated.json,1292839,1522231,28,Woman
49,164563,DepthScenes,duration_manipulation_targetAtFixation,jsons/v1_VE1000_randls_76_rotated.json,http://54.235.29.9/FacialAge/BNav_EC2/DepthDuration/v2_depth_duration_MTurk/v2_DepthDuration_HTML.html#217,217,1707,781,1366,768,9-18-2022,13-3-35,50,depth_duration_stimuli/000927_2014-06-09_16-32-30_260595134347_rgbf000123-resize_3/000927_2014-06-09_16-32-30_260595134347_rgbf000123-resize_3-target.png,1000,2.6785,8.0,5000,998,feet,jsons/v1_VE1000_randls_76_rotated.json,1292839,1522231,28,Woman
50,164563,DepthScenes,duration_manipulation_targetAtFixation,jsons/v1_VE1000_randls_76_rotated.json,http://54.235.29.9/FacialAge/BNav_EC2/DepthDuration/v2_depth_duration_MTurk/v2_DepthDuration_HTML.html#217,217,1707,781,1366,768,9-18-2022,13-3-35,51,depth_duration_stimuli/001110_2014-06-15_17-25-28_260595134347_rgbf000150-resize_1/001110_2014-06-15_17-25-28_260595134347_rgbf000150-resize_1-target.png,1000,1.7115,5.0,7405,998,feet,jsons/v1_VE1000_randls_76_rotated.json,1292839,1522231,28,Woman
51,164563,DepthScenes,duration_manipulation_targetAtFixation,jsons/v1_VE1000_randls_76_rotated.json,http://54.235.29.9/FacialAge/BNav_EC2/DepthDuration/v2_depth_duration_MTurk/v2_DepthDuration_HTML.html#217,217,1707,781,1366,768,9-18-2022,13-3-35,52,depth_duration_stimuli/002758_2014-06-22_19-11-20_094959634447_rgbf000128-resize_1/002758_2014-06-22_19-11-20_094959634447_rgbf000128-resize_1-target.png,1000,2.555,4.0,4049,998,feet,jsons/v1_VE1000_randls_76_rotated.json,1292839,1522231,28,Woman
52,164563,DepthScenes,duration_manipulation_targetAtFixation,jsons/v1_VE1000_randls_76_rotated.json,http://54.235.29.9/FacialAge/BNav_EC2/DepthDuration/v2_depth_duration_MTurk/v2_DepthDuration_HTML.html#217,217,1707,781,1366,768,9-18-2022,13-3-35,53,depth_duration_stimuli/002630_2014-06-24_14-47-50_094959634447_rgbf000055-resize_1/002630_2014-06-24_14-47-50_094959634447_rgbf000055-resize_1-target.png,1000,3.0095,8.0,4560,988,feet,jsons/v1_VE1000_randls_76_rotated.json,1292839,1522231,28,Woman
53,164563,DepthScenes,duration_manipulation_targetAtFixation,jsons/v1_VE1000_randls_76_rotated.json,http://54.235.29.9/FacialAge/BNav_EC2/DepthDuration/v2_depth_duration_MTurk/v2_DepthDuration_HTML.html#217,217,1707,781,1366,768,9-18-2022,13-3-35,54,depth_duration_stimuli/002875_2014-06-01_15-19-00_094959634447_rgbf000151-resize_1/002875_2014-06-01_15-19-00_094959634447_rgbf000151-resize_1-target.png,1000,1.9675,8.0,4131,996,feet,jsons/v1_VE1000_randls_76_rotated.json,1292839,1522231,28,Woman
54,164563,DepthScenes,duration_manipulation_targetAtFixation,jsons/v1_VE1000_randls_76_rotated.json,http://54.235.29.9/FacialAge/BNav_EC2/DepthDuration/v2_depth_duration_MTurk/v2_DepthDuration_HTML.html#217,217,1707,781,1366,768,9-18-2022,13-3-35,55,depth_duration_stimuli/001011_2014-06-08_23-18-54_260595134347_rgbf000044-resize_4/001011_2014-06-08_23-18-54_260595134347_rgbf000044-resize_4-target.png,1000,2.4730000000000003,6.0,4297,1008,feet,jsons/v1_VE1000_randls_76_rotated.json,1292839,1522231,28,Woman
55,164563,DepthScenes,duration_manipulation_targetAtFixation,jsons/v1_VE1000_randls_76_rotated.json,http://54.235.29.9/FacialAge/BNav_EC2/DepthDuration/v2_depth_duration_MTurk/v2_DepthDuration_HTML.html#217,217,1707,781,1366,768,9-18-2022,13-3-35,56,depth_duration_stimuli/000691_2014-06-08_13-08-50_260595134347_rgbf000132-resize_3/000691_2014-06-08_13-08-50_260595134347_rgbf000132-resize_3-target.png,1000,4.1530000000000005,5.0,4065,1007,feet,jsons/v1_VE1000_randls_76_rotated.json,1292839,1522231,28,Woman
56,164563,DepthScenes,duration_manipulation_targetAtFixation,jsons/v1_VE1000_randls_76_rotated.json,http://54.235.29.9/FacialAge/BNav_EC2/DepthDuration/v2_depth_duration_MTurk/v2_DepthDuration_HTML.html#217,217,1707,781,1366,768,9-18-2022,13-3-35,57,depth_duration_stimuli/002213_2014-06-28_18-37-58_260595134347_rgbf000055-resize_1/002213_2014-06-28_18-37-58_260595134347_rgbf000055-resize_1-target.png,1000,3.62,7.0,4296,995,feet,jsons/v1_VE1000_randls_76_rotated.json,1292839,1522231,28,Woman
57,164563,DepthScenes,duration_manipulation_targetAtFixation,jsons/v1_VE1000_randls_76_rotated.json,http://54.235.29.9/FacialAge/BNav_EC2/DepthDuration/v2_depth_duration_MTurk/v2_DepthDuration_HTML.html#217,217,1707,781,1366,768,9-18-2022,13-3-35,58,depth_duration_stimuli/002805_2014-06-22_19-54-03_094959634447_rgbf000079-resize_1/002805_2014-06-22_19-54-03_094959634447_rgbf000079-resize_1-target.png,1000,3.1439999999999997,8.0,4239,999,feet,jsons/v1_VE1000_randls_76_rotated.json,1292839,1522231,28,Woman
58,164563,DepthScenes,duration_manipulation_targetAtFixation,jsons/v1_VE1000_randls_76_rotated.json,http://54.235.29.9/FacialAge/BNav_EC2/DepthDuration/v2_depth_duration_MTurk/v2_DepthDuration_HTML.html#217,217,1707,781,1366,768,9-18-2022,13-3-35,59,depth_duration_stimuli/000906_2014-06-08_13-35-43_260595134347_rgbf000155-resize_1/000906_2014-06-08_13-35-43_260595134347_rgbf000155-resize_1-target.png,1000,2.8489999999999998,9.0,4224,1000,feet,jsons/v1_VE1000_randls_76_rotated.json,1292839,1522231,28,Woman
59,164563,DepthScenes,duration_manipulation_targetAtFixation,jsons/v1_VE1000_randls_76_rotated.json,http://54.235.29.9/FacialAge/BNav_EC2/DepthDuration/v2_depth_duration_MTurk/v2_DepthDuration_HTML.html#217,217,1707,781,1366,768,9-18-2022,13-3-35,60,depth_duration_stimuli/001032_2014-06-08_13-23-17_260595134347_rgbf000021-resize_3/001032_2014-06-08_13-23-17_260595134347_rgbf000021-resize_3-target.png,1000,3.2725,5.0,4575,996,feet,jsons/v1_VE1000_randls_76_rotated.json,1292839,1522231,28,Woman
60,164563,DepthScenes,duration_manipulation_targetAtFixation,jsons/v1_VE1000_randls_76_rotated.json,http://54.235.29.9/FacialAge/BNav_EC2/DepthDuration/v2_depth_duration_MTurk/v2_DepthDuration_HTML.html#217,217,1707,781,1366,768,9-18-2022,13-3-35,61,depth_duration_stimuli/001059_2014-06-08_21-53-27_260595134347_rgbf000061-resize_4/001059_2014-06-08_21-53-27_260595134347_rgbf000061-resize_4-target.png,1000,2.4185,4.0,4074,998,feet,jsons/v1_VE1000_randls_76_rotated.json,1292839,1522231,28,Woman
61,164563,DepthScenes,duration_manipulation_targetAtFixation,jsons/v1_VE1000_randls_76_rotated.json,http://54.235.29.9/FacialAge/BNav_EC2/DepthDuration/v2_depth_duration_MTurk/v2_DepthDuration_HTML.html#217,217,1707,781,1366,768,9-18-2022,13-3-35,62,depth_duration_stimuli/002639_2014-06-24_14-51-37_094959634447_rgbf000074-resize_4/002639_2014-06-24_14-51-37_094959634447_rgbf000074-resize_4-target.png,1000,4.0375,6.0,4215,995,feet,jsons/v1_VE1000_randls_76_rotated.json,1292839,1522231,28,Woman
62,164563,DepthScenes,duration_manipulation_targetAtFixation,jsons/v1_VE1000_randls_76_rotated.json,http://54.235.29.9/FacialAge/BNav_EC2/DepthDuration/v2_depth_duration_MTurk/v2_DepthDuration_HTML.html#217,217,1707,781,1366,768,9-18-2022,13-3-35,63,depth_duration_stimuli/003292_2014-05-14_21-53-49_094959634447_rgbf000100-resize_2/003292_2014-05-14_21-53-49_094959634447_rgbf000100-resize_2-target.png,1000,3.4815,4.0,4089,996,feet,jsons/v1_VE1000_randls_76_rotated.json,1292839,1522231,28,Woman
63,164563,DepthScenes,duration_manipulation_targetAtFixation,jsons/v1_VE1000_randls_76_rotated.json,http://54.235.29.9/FacialAge/BNav_EC2/DepthDuration/v2_depth_duration_MTurk/v2_DepthDuration_HTML.html#217,217,1707,781,1366,768,9-18-2022,13-3-35,64,depth_duration_stimuli/000103_2014-05-14_22-01-17_260595134347_rgbf000152-resize_5/000103_2014-05-14_22-01-17_260595134347_rgbf000152-resize_5-target.png,1000,1.993,7.0,4854,999,feet,jsons/v1_VE1000_randls_76_rotated.json,1292839,1522231,28,Woman
64,164563,DepthScenes,duration_manipulation_targetAtFixation,jsons/v1_VE1000_randls_76_rotated.json,http://54.235.29.9/FacialAge/BNav_EC2/DepthDuration/v2_depth_duration_MTurk/v2_DepthDuration_HTML.html#217,217,1707,781,1366,768,9-18-2022,13-3-35,65,depth_duration_stimuli/001555_2014-06-20_17-12-10_260595134347_rgbf000065-resize_4/001555_2014-06-20_17-12-10_260595134347_rgbf000065-resize_4-target.png,1000,1.633,2.0,4808,999,feet,jsons/v1_VE1000_randls_76_rotated.json,1292839,1522231,28,Woman
65,164563,DepthScenes,duration_manipulation_targetAtFixation,jsons/v1_VE1000_randls_76_rotated.json,http://54.235.29.9/FacialAge/BNav_EC2/DepthDuration/v2_depth_duration_MTurk/v2_DepthDuration_HTML.html#217,217,1707,781,1366,768,9-18-2022,13-3-35,66,depth_duration_stimuli/001540_2014-06-20_17-01-05_260595134347_rgbf000086-resize_2/001540_2014-06-20_17-01-05_260595134347_rgbf000086-resize-original.jpg,1000,1.459,0.0,4223,999,feet,jsons/v1_VE1000_randls_76_rotated.json,1292839,1522231,28,Woman
66,164563,DepthScenes,duration_manipulation_targetAtFixation,jsons/v1_VE1000_randls_76_rotated.json,http://54.235.29.9/FacialAge/BNav_EC2/DepthDuration/v2_depth_duration_MTurk/v2_DepthDuration_HTML.html#217,217,1707,781,1366,768,9-18-2022,13-3-35,67,depth_duration_stimuli/000709_2014-06-08_13-51-55_260595134347_rgbf000068-resize_3/000709_2014-06-08_13-51-55_260595134347_rgbf000068-resize_3-target.png,1000,1.8030000000000002,10.0,4399,998,feet,jsons/v1_VE1000_randls_76_rotated.json,1292839,1522231,28,Woman
67,164563,DepthScenes,duration_manipulation_targetAtFixation,jsons/v1_VE1000_randls_76_rotated.json,http://54.235.29.9/FacialAge/BNav_EC2/DepthDuration/v2_depth_duration_MTurk/v2_DepthDuration_HTML.html#217,217,1707,781,1366,768,9-18-2022,13-3-35,68,depth_duration_stimuli/002057_2014-06-24_21-00-13_260595134347_rgbf000120-resize_1/002057_2014-06-24_21-00-13_260595134347_rgbf000120-resize_1-target.png,1000,2.967,12.0,4609,1004,feet,jsons/v1_VE1000_randls_76_rotated.json,1292839,1522231,28,Woman
68,164563,DepthScenes,duration_manipulation_targetAtFixation,jsons/v1_VE1000_randls_76_rotated.json,http://54.235.29.9/FacialAge/BNav_EC2/DepthDuration/v2_depth_duration_MTurk/v2_DepthDuration_HTML.html#217,217,1707,781,1366,768,9-18-2022,13-3-35,69,depth_duration_stimuli/001136_2014-06-17_15-19-41_260595134347_rgbf000076-resize_3/001136_2014-06-17_15-19-41_260595134347_rgbf000076-resize_3-target.png,1000,1.8655,11.0,3919,1000,feet,jsons/v1_VE1000_randls_76_rotated.json,1292839,1522231,28,Woman
69,164563,DepthScenes,duration_manipulation_targetAtFixation,jsons/v1_VE1000_randls_76_rotated.json,http://54.235.29.9/FacialAge/BNav_EC2/DepthDuration/v2_depth_duration_MTurk/v2_DepthDuration_HTML.html#217,217,1707,781,1366,768,9-18-2022,13-3-35,70,depth_duration_stimuli/001164_2014-06-17_15-35-46_260595134347_rgbf000085-resize_3/001164_2014-06-17_15-35-46_260595134347_rgbf000085-resize_3-target.png,1000,2.354,10.0,4353,976,feet,jsons/v1_VE1000_randls_76_rotated.json,1292839,1522231,28,Woman
70,164563,DepthScenes,duration_manipulation_targetAtFixation,jsons/v1_VE1000_randls_76_rotated.json,http://54.235.29.9/FacialAge/BNav_EC2/DepthDuration/v2_depth_duration_MTurk/v2_DepthDuration_HTML.html#217,217,1707,781,1366,768,9-18-2022,13-3-35,71,depth_duration_stimuli/002637_2014-06-24_14-51-13_094959634447_rgbf000066-resize_4/002637_2014-06-24_14-51-13_094959634447_rgbf000066-resize_4-target.png,1000,1.9955,9.0,3880,992,feet,jsons/v1_VE1000_randls_76_rotated.json,1292839,1522231,28,Woman
71,164563,DepthScenes,duration_manipulation_targetAtFixation,jsons/v1_VE1000_randls_76_rotated.json,http://54.235.29.9/FacialAge/BNav_EC2/DepthDuration/v2_depth_duration_MTurk/v2_DepthDuration_HTML.html#217,217,1707,781,1366,768,9-18-2022,13-3-35,72,depth_duration_stimuli/003534_2014-05-22_15-06-10_094959634447_rgbf000102-resize_4/003534_2014-05-22_15-06-10_094959634447_rgbf000102-resize_4-target.png,1000,1.426,2.0,4199,990,feet,jsons/v1_VE1000_randls_76_rotated.json,1292839,1522231,28,Woman
72,164563,DepthScenes,duration_manipulation_targetAtFixation,jsons/v1_VE1000_randls_76_rotated.json,http://54.235.29.9/FacialAge/BNav_EC2/DepthDuration/v2_depth_duration_MTurk/v2_DepthDuration_HTML.html#217,217,1707,781,1366,768,9-18-2022,13-3-35,73,depth_duration_stimuli/002136_2014-06-25_21-18-03_260595134347_rgbf000109-resize_3/002136_2014-06-25_21-18-03_260595134347_rgbf000109-resize_3-target.png,1000,1.9569999999999999,4.0,4098,996,feet,jsons/v1_VE1000_randls_76_rotated.json,1292839,1522231,28,Woman
73,164563,DepthScenes,duration_manipulation_targetAtFixation,jsons/v1_VE1000_randls_76_rotated.json,http://54.235.29.9/FacialAge/BNav_EC2/DepthDuration/v2_depth_duration_MTurk/v2_DepthDuration_HTML.html#217,217,1707,781,1366,768,9-18-2022,13-3-35,74,depth_duration_stimuli/002964_2014-06-08_17-46-11_094959634447_rgbf000091-resize_4/002964_2014-06-08_17-46-11_094959634447_rgbf000091-resize_4-target.png,1000,1.6909999999999998,3.0,4005,1001,feet,jsons/v1_VE1000_randls_76_rotated.json,1292839,1522231,28,Woman
74,164563,DepthScenes,duration_manipulation_targetAtFixation,jsons/v1_VE1000_randls_76_rotated.json,http://54.235.29.9/FacialAge/BNav_EC2/DepthDuration/v2_depth_duration_MTurk/v2_DepthDuration_HTML.html#217,217,1707,781,1366,768,9-18-2022,13-3-35,75,depth_duration_stimuli/000854_2014-06-09_19-43-13_260595134347_rgbf000066-resize_0/000854_2014-06-09_19-43-13_260595134347_rgbf000066-resize_0-target.png,1000,3.068,5.0,4278,980,feet,jsons/v1_VE1000_randls_76_rotated.json,1292839,1522231,28,Woman
75,164563,DepthScenes,duration_manipulation_targetAtFixation,jsons/v1_VE1000_randls_76_rotated.json,http://54.235.29.9/FacialAge/BNav_EC2/DepthDuration/v2_depth_duration_MTurk/v2_DepthDuration_HTML.html#217,217,1707,781,1366,768,9-18-2022,13-3-35,76,depth_duration_stimuli/000758_2014-06-08_22-05-08_260595134347_rgbf000085-resize_0/000758_2014-06-08_22-05-08_260595134347_rgbf000085-resize_0-target.png,1000,3.3810000000000002,7.0,7889,996,feet,jsons/v1_VE1000_randls_76_rotated.json,1292839,1522231,28,Woman
76,164563,DepthScenes,duration_manipulation_targetAtFixation,jsons/v1_VE1000_randls_76_rotated.json,http://54.235.29.9/FacialAge/BNav_EC2/DepthDuration/v2_depth_duration_MTurk/v2_DepthDuration_HTML.html#217,217,1707,781,1366,768,9-18-2022,13-3-35,77,depth_duration_stimuli/003081_2014-06-15_15-19-16_094959634447_rgbf000150-resize_1/003081_2014-06-15_15-19-16_094959634447_rgbf000150-resize_1-target.png,1000,3.9125,5.0,4922,996,feet,jsons/v1_VE1000_randls_76_rotated.json,1292839,1522231,28,Woman
77,164563,DepthScenes,duration_manipulation_targetAtFixation,jsons/v1_VE1000_randls_76_rotated.json,http://54.235.29.9/FacialAge/BNav_EC2/DepthDuration/v2_depth_duration_MTurk/v2_DepthDuration_HTML.html#217,217,1707,781,1366,768,9-18-2022,13-3-35,78,depth_duration_stimuli/001417_2014-06-19_16-25-36_260595134347_rgbf000115-resize_5/001417_2014-06-19_16-25-36_260595134347_rgbf000115-resize_5-target.png,1000,4.6255,7.0,4995,1001,feet,jsons/v1_VE1000_randls_76_rotated.json,1292839,1522231,28,Woman
78,164563,DepthScenes,duration_manipulation_targetAtFixation,jsons/v1_VE1000_randls_76_rotated.json,http://54.235.29.9/FacialAge/BNav_EC2/DepthDuration/v2_depth_duration_MTurk/v2_DepthDuration_HTML.html#217,217,1707,781,1366,768,9-18-2022,13-3-35,79,depth_duration_stimuli/001094_2014-06-15_17-36-00_260595134347_rgbf000205-resize_0/001094_2014-06-15_17-36-00_260595134347_rgbf000205-resize_0-target.png,1000,4.2175,9.0,4108,1002,feet,jsons/v1_VE1000_randls_76_rotated.json,1292839,1522231,28,Woman
79,164563,DepthScenes,duration_manipulation_targetAtFixation,jsons/v1_VE1000_randls_76_rotated.json,http://54.235.29.9/FacialAge/BNav_EC2/DepthDuration/v2_depth_duration_MTurk/v2_DepthDuration_HTML.html#217,217,1707,781,1366,768,9-18-2022,13-3-35,80,depth_duration_stimuli/000692_2014-06-08_13-09-42_260595134347_rgbf000199-resize_2/000692_2014-06-08_13-09-42_260595134347_rgbf000199-resize_2-target.png,1000,3.661,8.0,4438,999,feet,jsons/v1_VE1000_randls_76_rotated.json,1292839,1522231,28,Woman
80,164563,DepthScenes,duration_manipulation_targetAtFixation,jsons/v1_VE1000_randls_76_rotated.json,http://54.235.29.9/FacialAge/BNav_EC2/DepthDuration/v2_depth_duration_MTurk/v2_DepthDuration_HTML.html#217,217,1707,781,1366,768,9-18-2022,13-3-35,81,depth_duration_stimuli/001516_2014-06-20_16-25-09_260595134347_rgbf000076-resize_2/001516_2014-06-20_16-25-09_260595134347_rgbf000076-resize_2-target.png,1000,1.7445,8.5,5470,970,feet,jsons/v1_VE1000_randls_76_rotated.json,1292839,1522231,28,Woman
81,164563,DepthScenes,duration_manipulation_targetAtFixation,jsons/v1_VE1000_randls_76_rotated.json,http://54.235.29.9/FacialAge/BNav_EC2/DepthDuration/v2_depth_duration_MTurk/v2_DepthDuration_HTML.html#217,217,1707,781,1366,768,9-18-2022,13-3-35,82,depth_duration_stimuli/002118_2014-06-25_20-32-08_260595134347_rgbf000078-resize_1/002118_2014-06-25_20-32-08_260595134347_rgbf000078-resize_1-target.png,1000,2.6460000000000004,4.0,6579,1002,feet,jsons/v1_VE1000_randls_76_rotated.json,1292839,1522231,28,Woman
82,164563,DepthScenes,duration_manipulation_targetAtFixation,jsons/v1_VE1000_randls_76_rotated.json,http://54.235.29.9/FacialAge/BNav_EC2/DepthDuration/v2_depth_duration_MTurk/v2_DepthDuration_HTML.html#217,217,1707,781,1366,768,9-18-2022,13-3-35,83,depth_duration_stimuli/001392_2014-06-19_16-07-59_260595134347_rgbf000046-resize_1/001392_2014-06-19_16-07-59_260595134347_rgbf000046-resize_1-target.png,1000,4.135,12.0,10663,999,feet,jsons/v1_VE1000_randls_76_rotated.json,1292839,1522231,28,Woman
83,164563,DepthScenes,duration_manipulation_targetAtFixation,jsons/v1_VE1000_randls_76_rotated.json,http://54.235.29.9/FacialAge/BNav_EC2/DepthDuration/v2_depth_duration_MTurk/v2_DepthDuration_HTML.html#217,217,1707,781,1366,768,9-18-2022,13-3-35,84,depth_duration_stimuli/001570_2014-06-20_17-21-09_260595134347_rgbf000135-resize_4/001570_2014-06-20_17-21-09_260595134347_rgbf000135-resize_4-target.png,1000,4.467,14.0,4789,1008,feet,jsons/v1_VE1000_randls_76_rotated.json,1292839,1522231,28,Woman
84,164563,DepthScenes,duration_manipulation_targetAtFixation,jsons/v1_VE1000_randls_76_rotated.json,http://54.235.29.9/FacialAge/BNav_EC2/DepthDuration/v2_depth_duration_MTurk/v2_DepthDuration_HTML.html#217,217,1707,781,1366,768,9-18-2022,13-3-35,85,depth_duration_stimuli/001828_2014-06-26_21-40-03_260595134347_rgbf000024-resize_0/001828_2014-06-26_21-40-03_260595134347_rgbf000024-resize_0-target.png,1000,4.8260000000000005,11.0,5731,998,feet,jsons/v1_VE1000_randls_76_rotated.json,1292839,1522231,28,Woman
85,164563,DepthScenes,duration_manipulation_targetAtFixation,jsons/v1_VE1000_randls_76_rotated.json,http://54.235.29.9/FacialAge/BNav_EC2/DepthDuration/v2_depth_duration_MTurk/v2_DepthDuration_HTML.html#217,217,1707,781,1366,768,9-18-2022,13-3-35,86,depth_duration_stimuli/000009_2014-05-26_14-32-05_260595134347_rgbf000034-resize_3/000009_2014-05-26_14-32-05_260595134347_rgbf000034-resize_3-target.png,1000,3.8715,16.0,6937,998,feet,jsons/v1_VE1000_randls_76_rotated.json,1292839,1522231,28,Woman
86,164563,DepthScenes,duration_manipulation_targetAtFixation,jsons/v1_VE1000_randls_76_rotated.json,http://54.235.29.9/FacialAge/BNav_EC2/DepthDuration/v2_depth_duration_MTurk/v2_DepthDuration_HTML.html#217,217,1707,781,1366,768,9-18-2022,13-3-35,87,depth_duration_stimuli/002340_2014-06-28_20-05-46_260595134347_rgbf000113-resize_0/002340_2014-06-28_20-05-46_260595134347_rgbf000113-resize_0-target.png,1000,2.4735,15.0,5178,1002,feet,jsons/v1_VE1000_randls_76_rotated.json,1292839,1522231,28,Woman
87,164563,DepthScenes,duration_manipulation_targetAtFixation,jsons/v1_VE1000_randls_76_rotated.json,http://54.235.29.9/FacialAge/BNav_EC2/DepthDuration/v2_depth_duration_MTurk/v2_DepthDuration_HTML.html#217,217,1707,781,1366,768,9-18-2022,13-3-35,88,depth_duration_stimuli/001016_2014-06-09_16-16-10_260595134347_rgbf000112-resize_5/001016_2014-06-09_16-16-10_260595134347_rgbf000112-resize_5-target.png,1000,1.6565,13.0,4652,1008,feet,jsons/v1_VE1000_randls_76_rotated.json,1292839,1522231,28,Woman
88,164563,DepthScenes,duration_manipulation_targetAtFixation,jsons/v1_VE1000_randls_76_rotated.json,http://54.235.29.9/FacialAge/BNav_EC2/DepthDuration/v2_depth_duration_MTurk/v2_DepthDuration_HTML.html#217,217,1707,781,1366,768,9-18-2022,13-3-35,89,depth_duration_stimuli/002660_2014-06-13_15-44-18_094959634447_rgbf001878-resize_2/002660_2014-06-13_15-44-18_094959634447_rgbf001878-resize_2-target.png,1000,3.576,11.0,4935,999,feet,jsons/v1_VE1000_randls_76_rotated.json,1292839,1522231,28,Woman
89,164563,DepthScenes,duration_manipulation_targetAtFixation,jsons/v1_VE1000_randls_76_rotated.json,http://54.235.29.9/FacialAge/BNav_EC2/DepthDuration/v2_depth_duration_MTurk/v2_DepthDuration_HTML.html#217,217,1707,781,1366,768,9-18-2022,13-3-35,90,depth_duration_stimuli/002153_2014-06-25_21-27-18_260595134347_rgbf000038-resize_5/002153_2014-06-25_21-27-18_260595134347_rgbf000038-resize_5-target.png,1000,2.505,6.0,4037,1001,feet,jsons/v1_VE1000_randls_76_rotated.json,1292839,1522231,28,Woman
90,164563,DepthScenes,duration_manipulation_targetAtFixation,jsons/v1_VE1000_randls_76_rotated.json,http://54.235.29.9/FacialAge/BNav_EC2/DepthDuration/v2_depth_duration_MTurk/v2_DepthDuration_HTML.html#217,217,1707,781,1366,768,9-18-2022,13-3-35,91,depth_duration_stimuli/000409_2014-06-04_19-23-33_260595134347_rgbf000067-resize_0/000409_2014-06-04_19-23-33_260595134347_rgbf000067-resize_0-target.png,1000,3.7335,5.0,5927,1000,feet,jsons/v1_VE1000_randls_76_rotated.json,1292839,1522231,28,Woman
91,164563,DepthScenes,duration_manipulation_targetAtFixation,jsons/v1_VE1000_randls_76_rotated.json,http://54.235.29.9/FacialAge/BNav_EC2/DepthDuration/v2_depth_duration_MTurk/v2_DepthDuration_HTML.html#217,217,1707,781,1366,768,9-18-2022,13-3-35,92,depth_duration_stimuli/002663_2014-06-13_15-50-26_094959634447_rgbf000075-resize_1/002663_2014-06-13_15-50-26_094959634447_rgbf000075-resize_1-target.png,1000,4.7495,14.0,312057,1001,feet,jsons/v1_VE1000_randls_76_rotated.json,1292839,1522231,28,Woman
92,164563,DepthScenes,duration_manipulation_targetAtFixation,jsons/v1_VE1000_randls_76_rotated.json,http://54.235.29.9/FacialAge/BNav_EC2/DepthDuration/v2_depth_duration_MTurk/v2_DepthDuration_HTML.html#217,217,1707,781,1366,768,9-18-2022,13-3-35,93,depth_duration_stimuli/002657_2014-06-13_15-29-54_094959634447_rgbf000150-resize_1/002657_2014-06-13_15-29-54_094959634447_rgbf000150-resize_1-target.png,1000,4.919,9.0,5312,998,feet,jsons/v1_VE1000_randls_76_rotated.json,1292839,1522231,28,Woman
93,164563,DepthScenes,duration_manipulation_targetAtFixation,jsons/v1_VE1000_randls_76_rotated.json,http://54.235.29.9/FacialAge/BNav_EC2/DepthDuration/v2_depth_duration_MTurk/v2_DepthDuration_HTML.html#217,217,1707,781,1366,768,9-18-2022,13-3-35,94,depth_duration_stimuli/002375_2014-06-28_20-13-44_260595134347_rgbf000032-resize_1/002375_2014-06-28_20-13-44_260595134347_rgbf000032-resize_1-target.png,1000,4.0175,8.0,4140,999,feet,jsons/v1_VE1000_randls_76_rotated.json,1292839,1522231,28,Woman
94,164563,DepthScenes,duration_manipulation_targetAtFixation,jsons/v1_VE1000_randls_76_rotated.json,http://54.235.29.9/FacialAge/BNav_EC2/DepthDuration/v2_depth_duration_MTurk/v2_DepthDuration_HTML.html#217,217,1707,781,1366,768,9-18-2022,13-3-35,95,depth_duration_stimuli/002103_2014-06-25_20-00-40_260595134347_rgbf000049-resize_0/002103_2014-06-25_20-00-40_260595134347_rgbf000049-resize_0-target.png,1000,4.105,9.0,5187,998,feet,jsons/v1_VE1000_randls_76_rotated.json,1292839,1522231,28,Woman
95,164563,DepthScenes,duration_manipulation_targetAtFixation,jsons/v1_VE1000_randls_76_rotated.json,http://54.235.29.9/FacialAge/BNav_EC2/DepthDuration/v2_depth_duration_MTurk/v2_DepthDuration_HTML.html#217,217,1707,781,1366,768,9-18-2022,13-3-35,96,depth_duration_stimuli/002039_2014-06-24_20-22-38_260595134347_rgbf000084-resize_1/002039_2014-06-24_20-22-38_260595134347_rgbf000084-resize_1-target.png,1000,4.408,16.0,5677,988,feet,jsons/v1_VE1000_randls_76_rotated.json,1292839,1522231,28,Woman
96,164563,DepthScenes,duration_manipulation_targetAtFixation,jsons/v1_VE1000_randls_76_rotated.json,http://54.235.29.9/FacialAge/BNav_EC2/DepthDuration/v2_depth_duration_MTurk/v2_DepthDuration_HTML.html#217,217,1707,781,1366,768,9-18-2022,13-3-35,97,depth_duration_stimuli/001214_2014-06-17_16-13-55_260595134347_rgbf000111-resize_0/001214_2014-06-17_16-13-55_260595134347_rgbf000111-resize_0-target.png,1000,2.6505,9.0,4818,998,feet,jsons/v1_VE1000_randls_76_rotated.json,1292839,1522231,28,Woman
97,164563,DepthScenes,duration_manipulation_targetAtFixation,jsons/v1_VE1000_randls_76_rotated.json,http://54.235.29.9/FacialAge/BNav_EC2/DepthDuration/v2_depth_duration_MTurk/v2_DepthDuration_HTML.html#217,217,1707,781,1366,768,9-18-2022,13-3-35,98,depth_duration_stimuli/000810_2014-06-08_17-20-01_260595134347_rgbf000105-resize_0/000810_2014-06-08_17-20-01_260595134347_rgbf000105-resize_0-target.png,1000,1.4865,11.0,4843,1003,feet,jsons/v1_VE1000_randls_76_rotated.json,1292839,1522231,28,Woman
98,164563,DepthScenes,duration_manipulation_targetAtFixation,jsons/v1_VE1000_randls_76_rotated.json,http://54.235.29.9/FacialAge/BNav_EC2/DepthDuration/v2_depth_duration_MTurk/v2_DepthDuration_HTML.html#217,217,1707,781,1366,768,9-18-2022,13-3-35,99,depth_duration_stimuli/001222_2014-06-17_16-24-06_260595134347_rgbf000073-resize_0/001222_2014-06-17_16-24-06_260595134347_rgbf000073-resize-original.jpg,1000,1.4385,0.0,5084,1001,feet,jsons/v1_VE1000_randls_76_rotated.json,1292839,1522231,28,Woman
99,164563,DepthScenes,duration_manipulation_targetAtFixation,jsons/v1_VE1000_randls_76_rotated.json,http://54.235.29.9/FacialAge/BNav_EC2/DepthDuration/v2_depth_duration_MTurk/v2_DepthDuration_HTML.html#217,217,1707,781,1366,768,9-18-2022,13-3-35,100,depth_duration_stimuli/000549_2014-06-08_22-10-24_260595134347_rgbf000247-resize_3/000549_2014-06-08_22-10-24_260595134347_rgbf000247-resize_3-target.png,1000,1.841,2.0,5016,1017,feet,jsons/v1_VE1000_randls_76_rotated.json,1292839,1522231,28,Woman
100,164563,DepthScenes,duration_manipulation_targetAtFixation,jsons/v1_VE1000_randls_76_rotated.json,http://54.235.29.9/FacialAge/BNav_EC2/DepthDuration/v2_depth_duration_MTurk/v2_DepthDuration_HTML.html#217,217,1707,781,1366,768,9-18-2022,13-3-35,101,depth_duration_stimuli/001055_2014-06-08_18-45-35_260595134347_rgbf000111-resize_4/001055_2014-06-08_18-45-35_260595134347_rgbf000111-resize_4-target.png,1000,2.4290000000000003,17.0,5227,1000,feet,jsons/v1_VE1000_randls_76_rotated.json,1292839,1522231,28,Woman
101,164563,DepthScenes,duration_manipulation_targetAtFixation,jsons/v1_VE1000_randls_76_rotated.json,http://54.235.29.9/FacialAge/BNav_EC2/DepthDuration/v2_depth_duration_MTurk/v2_DepthDuration_HTML.html#217,217,1707,781,1366,768,9-18-2022,13-3-35,102,depth_duration_stimuli/001584_2014-06-20_11-07-43_260595134347_rgbf000002-resize_1/001584_2014-06-20_11-07-43_260595134347_rgbf000002-resize_1-target.png,1000,3.53,9.0,4716,1001,feet,jsons/v1_VE1000_randls_76_rotated.json,1292839,1522231,28,Woman
102,164563,DepthScenes,duration_manipulation_targetAtFixation,jsons/v1_VE1000_randls_76_rotated.json,http://54.235.29.9/FacialAge/BNav_EC2/DepthDuration/v2_depth_duration_MTurk/v2_DepthDuration_HTML.html#217,217,1707,781,1366,768,9-18-2022,13-3-35,103,depth_duration_stimuli/003621_2014-05-23_18-06-08_094959634447_rgbf000101-resize_1/003621_2014-05-23_18-06-08_094959634447_rgbf000101-resize_1-target.png,1000,3.9835,11.0,4867,999,feet,jsons/v1_VE1000_randls_76_rotated.json,1292839,1522231,28,Woman
103,164563,DepthScenes,duration_manipulation_targetAtFixation,jsons/v1_VE1000_randls_76_rotated.json,http://54.235.29.9/FacialAge/BNav_EC2/DepthDuration/v2_depth_duration_MTurk/v2_DepthDuration_HTML.html#217,217,1707,781,1366,768,9-18-2022,13-3-35,104,depth_duration_stimuli/002444_2014-06-28_20-32-08_260595134347_rgbf000027-resize_0/002444_2014-06-28_20-32-08_260595134347_rgbf000027-resize_0-target.png,1000,4.388999999999999,10.0,5144,998,feet,jsons/v1_VE1000_randls_76_rotated.json,1292839,1522231,28,Woman
104,164563,DepthScenes,duration_manipulation_targetAtFixation,jsons/v1_VE1000_randls_76_rotated.json,http://54.235.29.9/FacialAge/BNav_EC2/DepthDuration/v2_depth_duration_MTurk/v2_DepthDuration_HTML.html#217,217,1707,781,1366,768,9-18-2022,13-3-35,105,depth_duration_stimuli/000436_2014-06-09_22-25-11_260595134347_rgbf000137-resize_1/000436_2014-06-09_22-25-11_260595134347_rgbf000137-resize_1-target.png,1000,4.0705,12.0,5132,999,feet,jsons/v1_VE1000_randls_76_rotated.json,1292839,1522231,28,Woman
105,164563,DepthScenes,duration_manipulation_targetAtFixation,jsons/v1_VE1000_randls_76_rotated.json,http://54.235.29.9/FacialAge/BNav_EC2/DepthDuration/v2_depth_duration_MTurk/v2_DepthDuration_HTML.html#217,217,1707,781,1366,768,9-18-2022,13-3-35,106,depth_duration_stimuli/003338_2014-05-20_11-01-23_094959634447_rgbf000051-resize_6/003338_2014-05-20_11-01-23_094959634447_rgbf000051-resize_6-target.png,1000,1.693,4.0,4736,999,feet,jsons/v1_VE1000_randls_76_rotated.json,1292839,1522231,28,Woman
106,164563,DepthScenes,duration_manipulation_targetAtFixation,jsons/v1_VE1000_randls_76_rotated.json,http://54.235.29.9/FacialAge/BNav_EC2/DepthDuration/v2_depth_duration_MTurk/v2_DepthDuration_HTML.html#217,217,1707,781,1366,768,9-18-2022,13-3-35,107,depth_duration_stimuli/002509_2014-06-24_13-19-22_094959634447_rgbf000077-resize_0/002509_2014-06-24_13-19-22_094959634447_rgbf000077-resize_0-target.png,1000,1.3065,3.0,4648,1009,feet,jsons/v1_VE1000_randls_76_rotated.json,1292839,1522231,28,Woman
107,164563,DepthScenes,duration_manipulation_targetAtFixation,jsons/v1_VE1000_randls_76_rotated.json,http://54.235.29.9/FacialAge/BNav_EC2/DepthDuration/v2_depth_duration_MTurk/v2_DepthDuration_HTML.html#217,217,1707,781,1366,768,9-18-2022,13-3-35,108,depth_duration_stimuli/002949_2014-06-26_15-57-42_094959634447_rgbf000079-resize_1/002949_2014-06-26_15-57-42_094959634447_rgbf000079-resize_1-target.png,1000,1.8915,5.0,4618,1015,feet,jsons/v1_VE1000_randls_76_rotated.json,1292839,1522231,28,Woman
108,164563,DepthScenes,duration_manipulation_targetAtFixation,jsons/v1_VE1000_randls_76_rotated.json,http://54.235.29.9/FacialAge/BNav_EC2/DepthDuration/v2_depth_duration_MTurk/v2_DepthDuration_HTML.html#217,217,1707,781,1366,768,9-18-2022,13-3-35,109,depth_duration_stimuli/000522_2014-06-08_13-35-06_260595134347_rgbf000244-resize_1/000522_2014-06-08_13-35-06_260595134347_rgbf000244-resize_1-target.png,1000,2.3715,2.0,5026,999,feet,jsons/v1_VE1000_randls_76_rotated.json,1292839,1522231,28,Woman
109,164563,DepthScenes,duration_manipulation_targetAtFixation,jsons/v1_VE1000_randls_76_rotated.json,http://54.235.29.9/FacialAge/BNav_EC2/DepthDuration/v2_depth_duration_MTurk/v2_DepthDuration_HTML.html#217,217,1707,781,1366,768,9-18-2022,13-3-35,110,depth_duration_stimuli/001052_2014-06-08_18-24-54_260595134347_rgbf000130-resize_1/001052_2014-06-08_18-24-54_260595134347_rgbf000130-resize_1-target.png,1000,4.1045,11.0,6348,1013,feet,jsons/v1_VE1000_randls_76_rotated.json,1292839,1522231,28,Woman
110,164563,DepthScenes,duration_manipulation_targetAtFixation,jsons/v1_VE1000_randls_76_rotated.json,http://54.235.29.9/FacialAge/BNav_EC2/DepthDuration/v2_depth_duration_MTurk/v2_DepthDuration_HTML.html#217,217,1707,781,1366,768,9-18-2022,13-3-35,111,depth_duration_stimuli/002988_2014-06-15_12-24-20_094959634447_rgbf000150-resize_1/002988_2014-06-15_12-24-20_094959634447_rgbf000150-resize_1-target.png,1000,4.7669999999999995,10.0,18427,999,feet,jsons/v1_VE1000_randls_76_rotated.json,1292839,1522231,28,Woman
111,164563,DepthScenes,duration_manipulation_targetAtFixation,jsons/v1_VE1000_randls_76_rotated.json,http://54.235.29.9/FacialAge/BNav_EC2/DepthDuration/v2_depth_duration_MTurk/v2_DepthDuration_HTML.html#217,217,1707,781,1366,768,9-18-2022,13-3-35,112,depth_duration_stimuli/000109_2014-05-14_23-41-52_260595134347_rgbf000035-resize_9/000109_2014-05-14_23-41-52_260595134347_rgbf000035-resize_9-target.png,1000,1.3545,2.0,5389,999,feet,jsons/v1_VE1000_randls_76_rotated.json,1292839,1522231,28,Woman
112,164563,DepthScenes,duration_manipulation_targetAtFixation,jsons/v1_VE1000_randls_76_rotated.json,http://54.235.29.9/FacialAge/BNav_EC2/DepthDuration/v2_depth_duration_MTurk/v2_DepthDuration_HTML.html#217,217,1707,781,1366,768,9-18-2022,13-3-35,113,depth_duration_stimuli/000470_2014-06-09_19-42-40_260595134347_rgbf000094-resize_1/000470_2014-06-09_19-42-40_260595134347_rgbf000094-resize_1-target.png,1000,1.831,5.0,5096,1002,feet,jsons/v1_VE1000_randls_76_rotated.json,1292839,1522231,28,Woman
113,164563,DepthScenes,duration_manipulation_targetAtFixation,jsons/v1_VE1000_randls_76_rotated.json,http://54.235.29.9/FacialAge/BNav_EC2/DepthDuration/v2_depth_duration_MTurk/v2_DepthDuration_HTML.html#217,217,1707,781,1366,768,9-18-2022,13-3-35,114,depth_duration_stimuli/002209_2014-06-28_18-36-10_260595134347_rgbf000051-resize_1/002209_2014-06-28_18-36-10_260595134347_rgbf000051-resize_1-target.png,1000,2.057,4.0,4752,1000,feet,jsons/v1_VE1000_randls_76_rotated.json,1292839,1522231,28,Woman
114,164563,DepthScenes,duration_manipulation_targetAtFixation,jsons/v1_VE1000_randls_76_rotated.json,http://54.235.29.9/FacialAge/BNav_EC2/DepthDuration/v2_depth_duration_MTurk/v2_DepthDuration_HTML.html#217,217,1707,781,1366,768,9-18-2022,13-3-35,115,depth_duration_stimuli/002763_2014-06-22_19-13-10_094959634447_rgbf000075-resize_4/002763_2014-06-22_19-13-10_094959634447_rgbf000075-resize_4-target.png,1000,1.68375,6.0,4927,999,feet,jsons/v1_VE1000_randls_76_rotated.json,1292839,1522231,28,Woman
115,164563,DepthScenes,duration_manipulation_targetAtFixation,jsons/v1_VE1000_randls_76_rotated.json,http://54.235.29.9/FacialAge/BNav_EC2/DepthDuration/v2_depth_duration_MTurk/v2_DepthDuration_HTML.html#217,217,1707,781,1366,768,9-18-2022,13-3-35,116,depth_duration_stimuli/001650_2014-06-20_12-09-00_260595134347_rgbf000087-resize_3/001650_2014-06-20_12-09-00_260595134347_rgbf000087-resize_3-target.png,1000,1.9505,2.0,4243,1001,feet,jsons/v1_VE1000_randls_76_rotated.json,1292839,1522231,28,Woman
116,164563,DepthScenes,duration_manipulation_targetAtFixation,jsons/v1_VE1000_randls_76_rotated.json,http://54.235.29.9/FacialAge/BNav_EC2/DepthDuration/v2_depth_duration_MTurk/v2_DepthDuration_HTML.html#217,217,1707,781,1366,768,9-18-2022,13-3-35,117,depth_duration_stimuli/000682_2014-06-08_23-14-58_260595134347_rgbf000041-resize_5/000682_2014-06-08_23-14-58_260595134347_rgbf000041-resize_5-target.png,1000,2.7239999999999998,5.0,17809,1013,feet,jsons/v1_VE1000_randls_76_rotated.json,1292839,1522231,28,Woman
117,164563,DepthScenes,duration_manipulation_targetAtFixation,jsons/v1_VE1000_randls_76_rotated.json,http://54.235.29.9/FacialAge/BNav_EC2/DepthDuration/v2_depth_duration_MTurk/v2_DepthDuration_HTML.html#217,217,1707,781,1366,768,9-18-2022,13-3-35,118,depth_duration_stimuli/002425_2014-06-28_20-27-29_260595134347_rgbf000031-resize_8/002425_2014-06-28_20-27-29_260595134347_rgbf000031-resize_8-target.png,1000,3.8960000000000004,11.0,4892,999,feet,jsons/v1_VE1000_randls_76_rotated.json,1292839,1522231,28,Woman
118,164563,DepthScenes,duration_manipulation_targetAtFixation,jsons/v1_VE1000_randls_76_rotated.json,http://54.235.29.9/FacialAge/BNav_EC2/DepthDuration/v2_depth_duration_MTurk/v2_DepthDuration_HTML.html#217,217,1707,781,1366,768,9-18-2022,13-3-35,119,depth_duration_stimuli/000642_2014-06-08_16-59-25_260595134347_rgbf000098-resize_2/000642_2014-06-08_16-59-25_260595134347_rgbf000098-resize_2-target.png,1000,2.8815,6.0,4943,998,feet,jsons/v1_VE1000_randls_76_rotated.json,1292839,1522231,28,Woman
119,164563,DepthScenes,duration_manipulation_targetAtFixation,jsons/v1_VE1000_randls_76_rotated.json,http://54.235.29.9/FacialAge/BNav_EC2/DepthDuration/v2_depth_duration_MTurk/v2_DepthDuration_HTML.html#217,217,1707,781,1366,768,9-18-2022,13-3-35,120,depth_duration_stimuli/000787_2014-06-08_22-33-53_260595134347_rgbf000175-resize_1/000787_2014-06-08_22-33-53_260595134347_rgbf000175-resize-original.jpg,1000,4.784,0.0,4929,997,feet,jsons/v1_VE1000_randls_76_rotated.json,1292839,1522231,28,Woman
120,164563,DepthScenes,duration_manipulation_targetAtFixation,jsons/v1_VE1000_randls_76_rotated.json,http://54.235.29.9/FacialAge/BNav_EC2/DepthDuration/v2_depth_duration_MTurk/v2_DepthDuration_HTML.html#217,217,1707,781,1366,768,9-18-2022,13-3-35,121,depth_duration_stimuli/002199_2014-06-28_18-33-56_260595134347_rgbf000074-resize_0/002199_2014-06-28_18-33-56_260595134347_rgbf000074-resize_0-target.png,1000,1.996,3.0,4514,991,feet,jsons/v1_VE1000_randls_76_rotated.json,1292839,1522231,28,Woman
121,164563,DepthScenes,duration_manipulation_targetAtFixation,jsons/v1_VE1000_randls_76_rotated.json,http://54.235.29.9/FacialAge/BNav_EC2/DepthDuration/v2_depth_duration_MTurk/v2_DepthDuration_HTML.html#217,217,1707,781,1366,768,9-18-2022,13-3-35,122,depth_duration_stimuli/001056_2014-06-08_18-46-44_260595134347_rgbf000068-resize_0/001056_2014-06-08_18-46-44_260595134347_rgbf000068-resize_0-target.png,1000,2.6625,6.0,4757,984,feet,jsons/v1_VE1000_randls_76_rotated.json,1292839,1522231,28,Woman
122,164563,DepthScenes,duration_manipulation_targetAtFixation,jsons/v1_VE1000_randls_76_rotated.json,http://54.235.29.9/FacialAge/BNav_EC2/DepthDuration/v2_depth_duration_MTurk/v2_DepthDuration_HTML.html#217,217,1707,781,1366,768,9-18-2022,13-3-35,123,depth_duration_stimuli/001571_2014-06-20_17-21-32_260595134347_rgbf000089-resize_1/001571_2014-06-20_17-21-32_260595134347_rgbf000089-resize_1-target.png,1000,1.86,5.0,4540,1002,feet,jsons/v1_VE1000_randls_76_rotated.json,1292839,1522231,28,Woman
123,164563,DepthScenes,duration_manipulation_targetAtFixation,jsons/v1_VE1000_randls_76_rotated.json,http://54.235.29.9/FacialAge/BNav_EC2/DepthDuration/v2_depth_duration_MTurk/v2_DepthDuration_HTML.html#217,217,1707,781,1366,768,9-18-2022,13-3-35,124,depth_duration_stimuli/002272_2014-06-28_18-53-56_260595134347_rgbf000067-resize_2/002272_2014-06-28_18-53-56_260595134347_rgbf000067-resize_2-target.png,1000,1.138,4.0,4352,999,feet,jsons/v1_VE1000_randls_76_rotated.json,1292839,1522231,28,Woman
124,164563,DepthScenes,duration_manipulation_targetAtFixation,jsons/v1_VE1000_randls_76_rotated.json,http://54.235.29.9/FacialAge/BNav_EC2/DepthDuration/v2_depth_duration_MTurk/v2_DepthDuration_HTML.html#217,217,1707,781,1366,768,9-18-2022,13-3-35,125,depth_duration_stimuli/001447_2014-06-19_17-00-32_260595134347_rgbf000082-resize_5/001447_2014-06-19_17-00-32_260595134347_rgbf000082-resize_5-target.png,1000,4.13775,7.0,4378,1000,feet,jsons/v1_VE1000_randls_76_rotated.json,1292839,1522231,28,Woman
125,164563,DepthScenes,duration_manipulation_targetAtFixation,jsons/v1_VE1000_randls_76_rotated.json,http://54.235.29.9/FacialAge/BNav_EC2/DepthDuration/v2_depth_duration_MTurk/v2_DepthDuration_HTML.html#217,217,1707,781,1366,768,9-18-2022,13-3-35,126,depth_duration_stimuli/000447_2014-06-08_16-15-46_260595134347_rgbf000130-resize_1/000447_2014-06-08_16-15-46_260595134347_rgbf000130-resize_1-target.png,1000,4.479,8.0,4327,982,feet,jsons/v1_VE1000_randls_76_rotated.json,1292839,1522231,28,Woman
126,164563,DepthScenes,duration_manipulation_targetAtFixation,jsons/v1_VE1000_randls_76_rotated.json,http://54.235.29.9/FacialAge/BNav_EC2/DepthDuration/v2_depth_duration_MTurk/v2_DepthDuration_HTML.html#217,217,1707,781,1366,768,9-18-2022,13-3-35,127,depth_duration_stimuli/002414_2014-06-28_20-24-58_260595134347_rgbf000067-resize_4/002414_2014-06-28_20-24-58_260595134347_rgbf000067-resize_4-target.png,1000,4.363,9.0,4849,1013,feet,jsons/v1_VE1000_randls_76_rotated.json,1292839,1522231,28,Woman
127,164563,DepthScenes,duration_manipulation_targetAtFixation,jsons/v1_VE1000_randls_76_rotated.json,http://54.235.29.9/FacialAge/BNav_EC2/DepthDuration/v2_depth_duration_MTurk/v2_DepthDuration_HTML.html#217,217,1707,781,1366,768,9-18-2022,13-3-35,128,depth_duration_stimuli/000773_2014-06-08_22-24-54_260595134347_rgbf000093-resize_1/000773_2014-06-08_22-24-54_260595134347_rgbf000093-resize_1-target.png,1000,4.973,10.0,6056,991,feet,jsons/v1_VE1000_randls_76_rotated.json,1292839,1522231,28,Woman
128,164563,DepthScenes,duration_manipulation_targetAtFixation,jsons/v1_VE1000_randls_76_rotated.json,http://54.235.29.9/FacialAge/BNav_EC2/DepthDuration/v2_depth_duration_MTurk/v2_DepthDuration_HTML.html#217,217,1707,781,1366,768,9-18-2022,13-3-35,129,depth_duration_stimuli/003587_2014-05-23_16-48-02_094959634447_rgbf002384-resize_2/003587_2014-05-23_16-48-02_094959634447_rgbf002384-resize_2-target.png,1000,1.357,2.0,4116,994,feet,jsons/v1_VE1000_randls_76_rotated.json,1292839,1522231,28,Woman
129,164563,DepthScenes,duration_manipulation_targetAtFixation,jsons/v1_VE1000_randls_76_rotated.json,http://54.235.29.9/FacialAge/BNav_EC2/DepthDuration/v2_depth_duration_MTurk/v2_DepthDuration_HTML.html#217,217,1707,781,1366,768,9-18-2022,13-3-35,130,depth_duration_stimuli/001167_2014-06-17_15-38-07_260595134347_rgbf000108-resize_0/001167_2014-06-17_15-38-07_260595134347_rgbf000108-resize_0-target.png,1000,1.8505,3.0,4486,1006,feet,jsons/v1_VE1000_randls_76_rotated.json,1292839,1522231,28,Woman
130,164563,DepthScenes,duration_manipulation_targetAtFixation,jsons/v1_VE1000_randls_76_rotated.json,http://54.235.29.9/FacialAge/BNav_EC2/DepthDuration/v2_depth_duration_MTurk/v2_DepthDuration_HTML.html#217,217,1707,781,1366,768,9-18-2022,13-3-35,131,depth_duration_stimuli/003083_2014-06-15_15-21-03_094959634447_rgbf000063-resize_1/003083_2014-06-15_15-21-03_094959634447_rgbf000063-resize_1-target.png,1000,4.1405,16.0,5180,1002,feet,jsons/v1_VE1000_randls_76_rotated.json,1292839,1522231,28,Woman
131,164563,DepthScenes,duration_manipulation_targetAtFixation,jsons/v1_VE1000_randls_76_rotated.json,http://54.235.29.9/FacialAge/BNav_EC2/DepthDuration/v2_depth_duration_MTurk/v2_DepthDuration_HTML.html#217,217,1707,781,1366,768,9-18-2022,13-3-35,132,depth_duration_stimuli/000486_2014-06-09_20-47-20_260595134347_rgbf000143-resize_2/000486_2014-06-09_20-47-20_260595134347_rgbf000143-resize_2-target.png,1000,4.8325,8.0,5071,988,feet,jsons/v1_VE1000_randls_76_rotated.json,1292839,1522231,28,Woman
132,164563,DepthScenes,duration_manipulation_targetAtFixation,jsons/v1_VE1000_randls_76_rotated.json,http://54.235.29.9/FacialAge/BNav_EC2/DepthDuration/v2_depth_duration_MTurk/v2_DepthDuration_HTML.html#217,217,1707,781,1366,768,9-18-2022,13-3-35,133,depth_duration_stimuli/000502_2014-06-08_23-02-32_260595134347_rgbf000063-resize_4/000502_2014-06-08_23-02-32_260595134347_rgbf000063-resize_4-target.png,1000,2.431,5.0,4437,994,feet,jsons/v1_VE1000_randls_76_rotated.json,1292839,1522231,28,Woman
133,164563,DepthScenes,duration_manipulation_targetAtFixation,jsons/v1_VE1000_randls_76_rotated.json,http://54.235.29.9/FacialAge/BNav_EC2/DepthDuration/v2_depth_duration_MTurk/v2_DepthDuration_HTML.html#217,217,1707,781,1366,768,9-18-2022,13-3-35,134,depth_duration_stimuli/001199_2014-06-17_16-03-48_260595134347_rgbf000077-resize_0/001199_2014-06-17_16-03-48_260595134347_rgbf000077-resize_0-target.png,1000,3.4375,7.0,4882,998,feet,jsons/v1_VE1000_randls_76_rotated.json,1292839,1522231,28,Woman
134,164563,DepthScenes,duration_manipulation_targetAtFixation,jsons/v1_VE1000_randls_76_rotated.json,http://54.235.29.9/FacialAge/BNav_EC2/DepthDuration/v2_depth_duration_MTurk/v2_DepthDuration_HTML.html#217,217,1707,781,1366,768,9-18-2022,13-3-35,135,depth_duration_stimuli/000375_2014-06-08_11-17-29_260595134347_rgbf000133-resize_2/000375_2014-06-08_11-17-29_260595134347_rgbf000133-resize-original.jpg,1000,4.718,0.0,5814,990,feet,jsons/v1_VE1000_randls_76_rotated.json,1292839,1522231,28,Woman
135,164563,DepthScenes,duration_manipulation_targetAtFixation,jsons/v1_VE1000_randls_76_rotated.json,http://54.235.29.9/FacialAge/BNav_EC2/DepthDuration/v2_depth_duration_MTurk/v2_DepthDuration_HTML.html#217,217,1707,781,1366,768,9-18-2022,13-3-35,136,depth_duration_stimuli/003228_2014-05-14_13-42-35_094959634447_rgbf000101-resize_1/003228_2014-05-14_13-42-35_094959634447_rgbf000101-resize_1-target.png,1000,1.9680000000000002,3.0,4849,999,feet,jsons/v1_VE1000_randls_76_rotated.json,1292839,1522231,28,Woman
136,164563,DepthScenes,duration_manipulation_targetAtFixation,jsons/v1_VE1000_randls_76_rotated.json,http://54.235.29.9/FacialAge/BNav_EC2/DepthDuration/v2_depth_duration_MTurk/v2_DepthDuration_HTML.html#217,217,1707,781,1366,768,9-18-2022,13-3-35,137,depth_duration_stimuli/002600_2014-06-24_14-27-04_094959634447_rgbf000074-resize_2/002600_2014-06-24_14-27-04_094959634447_rgbf000074-resize_2-target.png,1000,2.7575,5.0,5154,1000,feet,jsons/v1_VE1000_randls_76_rotated.json,1292839,1522231,28,Woman
137,164563,DepthScenes,duration_manipulation_targetAtFixation,jsons/v1_VE1000_randls_76_rotated.json,http://54.235.29.9/FacialAge/BNav_EC2/DepthDuration/v2_depth_duration_MTurk/v2_DepthDuration_HTML.html#217,217,1707,781,1366,768,9-18-2022,13-3-35,138,depth_duration_stimuli/000457_2014-06-08_16-52-43_260595134347_rgbf000199-resize_1/000457_2014-06-08_16-52-43_260595134347_rgbf000199-resize_1-target.png,1000,3.6489999999999996,9.0,5126,1001,feet,jsons/v1_VE1000_randls_76_rotated.json,1292839,1522231,28,Woman
138,164563,DepthScenes,duration_manipulation_targetAtFixation,jsons/v1_VE1000_randls_76_rotated.json,http://54.235.29.9/FacialAge/BNav_EC2/DepthDuration/v2_depth_duration_MTurk/v2_DepthDuration_HTML.html#217,217,1707,781,1366,768,9-18-2022,13-3-35,139,depth_duration_stimuli/000929_2014-06-09_16-33-19_260595134347_rgbf000139-resize_0/000929_2014-06-09_16-33-19_260595134347_rgbf000139-resize_0-target.png,1000,2.8680000000000003,5.0,3877,998,feet,jsons/v1_VE1000_randls_76_rotated.json,1292839,1522231,28,Woman
139,164563,DepthScenes,duration_manipulation_targetAtFixation,jsons/v1_VE1000_randls_76_rotated.json,http://54.235.29.9/FacialAge/BNav_EC2/DepthDuration/v2_depth_duration_MTurk/v2_DepthDuration_HTML.html#217,217,1707,781,1366,768,9-18-2022,13-3-35,140,depth_duration_stimuli/000943_2014-06-09_19-31-07_260595134347_rgbf000128-resize_1/000943_2014-06-09_19-31-07_260595134347_rgbf000128-resize_1-target.png,1000,1.9765,6.0,5076,999,feet,jsons/v1_VE1000_randls_76_rotated.json,1292839,1522231,28,Woman
140,164563,DepthScenes,duration_manipulation_targetAtFixation,jsons/v1_VE1000_randls_76_rotated.json,http://54.235.29.9/FacialAge/BNav_EC2/DepthDuration/v2_depth_duration_MTurk/v2_DepthDuration_HTML.html#217,217,1707,781,1366,768,9-18-2022,13-3-35,141,depth_duration_stimuli/003070_2014-06-15_14-58-27_094959634447_rgbf000150-resize_3/003070_2014-06-15_14-58-27_094959634447_rgbf000150-resize_3-target.png,1000,2.9415,4.0,5216,1000,feet,jsons/v1_VE1000_randls_76_rotated.json,1292839,1522231,28,Woman
141,164563,DepthScenes,duration_manipulation_targetAtFixation,jsons/v1_VE1000_randls_76_rotated.json,http://54.235.29.9/FacialAge/BNav_EC2/DepthDuration/v2_depth_duration_MTurk/v2_DepthDuration_HTML.html#217,217,1707,781,1366,768,9-18-2022,13-3-35,142,depth_duration_stimuli/002750_2014-06-22_19-08-03_094959634447_rgbf000094-resize_4/002750_2014-06-22_19-08-03_094959634447_rgbf000094-resize_4-target.png,1000,2.354,7.0,3677,1013,feet,jsons/v1_VE1000_randls_76_rotated.json,1292839,1522231,28,Woman
142,164563,DepthScenes,duration_manipulation_targetAtFixation,jsons/v1_VE1000_randls_76_rotated.json,http://54.235.29.9/FacialAge/BNav_EC2/DepthDuration/v2_depth_duration_MTurk/v2_DepthDuration_HTML.html#217,217,1707,781,1366,768,9-18-2022,13-3-35,143,depth_duration_stimuli/002549_2014-06-24_13-41-39_094959634447_rgbf000022-resize_3/002549_2014-06-24_13-41-39_094959634447_rgbf000022-resize_3-target.png,1000,1.476,4.0,4532,991,feet,jsons/v1_VE1000_randls_76_rotated.json,1292839,1522231,28,Woman
143,164563,DepthScenes,duration_manipulation_targetAtFixation,jsons/v1_VE1000_randls_76_rotated.json,http://54.235.29.9/FacialAge/BNav_EC2/DepthDuration/v2_depth_duration_MTurk/v2_DepthDuration_HTML.html#217,217,1707,781,1366,768,9-18-2022,13-3-35,144,depth_duration_stimuli/002678_2014-06-13_16-15-32_094959634447_rgbf000151-resize_6/002678_2014-06-13_16-15-32_094959634447_rgbf000151-resize_6-target.png,1000,2.1830000000000003,7.0,4324,983,feet,jsons/v1_VE1000_randls_76_rotated.json,1292839,1522231,28,Woman
144,164563,DepthScenes,duration_manipulation_targetAtFixation,jsons/v1_VE1000_randls_76_rotated.json,http://54.235.29.9/FacialAge/BNav_EC2/DepthDuration/v2_depth_duration_MTurk/v2_DepthDuration_HTML.html#217,217,1707,781,1366,768,9-18-2022,13-3-35,145,depth_duration_stimuli/000368_2014-06-09_15-53-01_260595134347_rgbf000155-resize_2/000368_2014-06-09_15-53-01_260595134347_rgbf000155-resize_2-target.png,1000,2.4859999999999998,3.0,4131,1001,feet,jsons/v1_VE1000_randls_76_rotated.json,1292839,1522231,28,Woman
145,164563,DepthScenes,duration_manipulation_targetAtFixation,jsons/v1_VE1000_randls_76_rotated.json,http://54.235.29.9/FacialAge/BNav_EC2/DepthDuration/v2_depth_duration_MTurk/v2_DepthDuration_HTML.html#217,217,1707,781,1366,768,9-18-2022,13-3-35,146,depth_duration_stimuli/000742_2014-06-08_18-48-09_260595134347_rgbf000164-resize_4/000742_2014-06-08_18-48-09_260595134347_rgbf000164-resize_4-target.png,1000,4.632,14.0,4553,1010,feet,jsons/v1_VE1000_randls_76_rotated.json,1292839,1522231,28,Woman
146,164563,DepthScenes,duration_manipulation_targetAtFixation,jsons/v1_VE1000_randls_76_rotated.json,http://54.235.29.9/FacialAge/BNav_EC2/DepthDuration/v2_depth_duration_MTurk/v2_DepthDuration_HTML.html#217,217,1707,781,1366,768,9-18-2022,13-3-35,147,depth_duration_stimuli/001066_2014-06-08_22-03-20_260595134347_rgbf000066-resize_4/001066_2014-06-08_22-03-20_260595134347_rgbf000066-resize_4-target.png,1000,4.2330000000000005,16.0,4917,1003,feet,jsons/v1_VE1000_randls_76_rotated.json,1292839,1522231,28,Woman
147,164563,DepthScenes,duration_manipulation_targetAtFixation,jsons/v1_VE1000_randls_76_rotated.json,http://54.235.29.9/FacialAge/BNav_EC2/DepthDuration/v2_depth_duration_MTurk/v2_DepthDuration_HTML.html#217,217,1707,781,1366,768,9-18-2022,13-3-35,148,depth_duration_stimuli/003048_2014-06-15_13-49-43_094959634447_rgbf000150-resize_1/003048_2014-06-15_13-49-43_094959634447_rgbf000150-resize_1-target.png,1000,4.0035,12.0,5144,990,feet,jsons/v1_VE1000_randls_76_rotated.json,1292839,1522231,28,Woman
148,164563,DepthScenes,duration_manipulation_targetAtFixation,jsons/v1_VE1000_randls_76_rotated.json,http://54.235.29.9/FacialAge/BNav_EC2/DepthDuration/v2_depth_duration_MTurk/v2_DepthDuration_HTML.html#217,217,1707,781,1366,768,9-18-2022,13-3-35,149,depth_duration_stimuli/002043_2014-06-24_20-29-38_260595134347_rgbf000039-resize_4/002043_2014-06-24_20-29-38_260595134347_rgbf000039-resize_4-target.png,1000,2.8435,15.0,4521,987,feet,jsons/v1_VE1000_randls_76_rotated.json,1292839,1522231,28,Woman
149,164563,DepthScenes,duration_manipulation_targetAtFixation,jsons/v1_VE1000_randls_76_rotated.json,http://54.235.29.9/FacialAge/BNav_EC2/DepthDuration/v2_depth_duration_MTurk/v2_DepthDuration_HTML.html#217,217,1707,781,1366,768,9-18-2022,13-3-35,150,depth_duration_stimuli/000677_2014-06-08_23-10-32_260595134347_rgbf000158-resize_6/000677_2014-06-08_23-10-32_260595134347_rgbf000158-resize_6-target.png,1000,3.556,9.0,4427,1000,feet,jsons/v1_VE1000_randls_76_rotated.json,1292839,1522231,28,Woman
150,164563,DepthScenes,duration_manipulation_targetAtFixation,jsons/v1_VE1000_randls_76_rotated.json,http://54.235.29.9/FacialAge/BNav_EC2/DepthDuration/v2_depth_duration_MTurk/v2_DepthDuration_HTML.html#217,217,1707,781,1366,768,9-18-2022,13-3-35,151,depth_duration_stimuli/001029_2014-06-08_13-17-57_260595134347_rgbf000065-resize_1/001029_2014-06-08_13-17-57_260595134347_rgbf000065-resize_1-target.png,1000,3.0835,11.0,5163,997,feet,jsons/v1_VE1000_randls_76_rotated.json,1292839,1522231,28,Woman
151,164563,DepthScenes,duration_manipulation_targetAtFixation,jsons/v1_VE1000_randls_76_rotated.json,http://54.235.29.9/FacialAge/BNav_EC2/DepthDuration/v2_depth_duration_MTurk/v2_DepthDuration_HTML.html#217,217,1707,781,1366,768,9-18-2022,13-3-35,152,depth_duration_stimuli/000569_2014-06-09_22-51-47_260595134347_rgbf000141-resize_3/000569_2014-06-09_22-51-47_260595134347_rgbf000141-resize-original.jpg,1000,4.512,0.0,4783,1007,feet,jsons/v1_VE1000_randls_76_rotated.json,1292839,1522231,28,Woman
152,164563,DepthScenes,duration_manipulation_targetAtFixation,jsons/v1_VE1000_randls_76_rotated.json,http://54.235.29.9/FacialAge/BNav_EC2/DepthDuration/v2_depth_duration_MTurk/v2_DepthDuration_HTML.html#217,217,1707,781,1366,768,9-18-2022,13-3-35,153,depth_duration_stimuli/002953_2014-06-08_17-32-18_094959634447_rgbf000059-resize_5/002953_2014-06-08_17-32-18_094959634447_rgbf000059-resize_5-target.png,1000,1.551,3.0,4327,1003,feet,jsons/v1_VE1000_randls_76_rotated.json,1292839,1522231,28,Woman
153,164563,DepthScenes,duration_manipulation_targetAtFixation,jsons/v1_VE1000_randls_76_rotated.json,http://54.235.29.9/FacialAge/BNav_EC2/DepthDuration/v2_depth_duration_MTurk/v2_DepthDuration_HTML.html#217,217,1707,781,1366,768,9-18-2022,13-3-35,154,depth_duration_stimuli/000878_2014-06-08_22-52-45_260595134347_rgbf000045-resize_2/000878_2014-06-08_22-52-45_260595134347_rgbf000045-resize_2-target.png,1000,2.092,7.0,4664,1001,feet,jsons/v1_VE1000_randls_76_rotated.json,1292839,1522231,28,Woman
154,164563,DepthScenes,duration_manipulation_targetAtFixation,jsons/v1_VE1000_randls_76_rotated.json,http://54.235.29.9/FacialAge/BNav_EC2/DepthDuration/v2_depth_duration_MTurk/v2_DepthDuration_HTML.html#217,217,1707,781,1366,768,9-18-2022,13-3-35,155,depth_duration_stimuli/002323_2014-06-28_20-01-54_260595134347_rgbf000051-resize_4/002323_2014-06-28_20-01-54_260595134347_rgbf000051-resize_4-target.png,1000,3.7310000000000003,8.0,4607,1006,feet,jsons/v1_VE1000_randls_76_rotated.json,1292839,1522231,28,Woman
155,164563,DepthScenes,duration_manipulation_targetAtFixation,jsons/v1_VE1000_randls_76_rotated.json,http://54.235.29.9/FacialAge/BNav_EC2/DepthDuration/v2_depth_duration_MTurk/v2_DepthDuration_HTML.html#217,217,1707,781,1366,768,9-18-2022,13-3-35,156,depth_duration_stimuli/000917_2014-06-09_22-45-29_260595134347_rgbf000149-resize_3/000917_2014-06-09_22-45-29_260595134347_rgbf000149-resize_3-target.png,1000,4.1865,9.0,5043,1000,feet,jsons/v1_VE1000_randls_76_rotated.json,1292839,1522231,28,Woman
156,164563,DepthScenes,duration_manipulation_targetAtFixation,jsons/v1_VE1000_randls_76_rotated.json,http://54.235.29.9/FacialAge/BNav_EC2/DepthDuration/v2_depth_duration_MTurk/v2_DepthDuration_HTML.html#217,217,1707,781,1366,768,9-18-2022,13-3-35,157,depth_duration_stimuli/000556_2014-06-09_22-42-56_260595134347_rgbf000214-resize_1/000556_2014-06-09_22-42-56_260595134347_rgbf000214-resize_1-target.png,1000,4.8415,10.0,5077,996,feet,jsons/v1_VE1000_randls_76_rotated.json,1292839,1522231,28,Woman
157,164563,DepthScenes,duration_manipulation_targetAtFixation,jsons/v1_VE1000_randls_76_rotated.json,http://54.235.29.9/FacialAge/BNav_EC2/DepthDuration/v2_depth_duration_MTurk/v2_DepthDuration_HTML.html#217,217,1707,781,1366,768,9-18-2022,13-3-35,158,depth_duration_stimuli/001158_2014-06-17_15-32-16_260595134347_rgbf000138-resize_2/001158_2014-06-17_15-32-16_260595134347_rgbf000138-resize_2-target.png,1000,4.5315,14.0,4885,1005,feet,jsons/v1_VE1000_randls_76_rotated.json,1292839,1522231,28,Woman
158,164563,DepthScenes,duration_manipulation_targetAtFixation,jsons/v1_VE1000_randls_76_rotated.json,http://54.235.29.9/FacialAge/BNav_EC2/DepthDuration/v2_depth_duration_MTurk/v2_DepthDuration_HTML.html#217,217,1707,781,1366,768,9-18-2022,13-3-35,159,depth_duration_stimuli/002344_2014-06-28_20-06-29_260595134347_rgbf000030-resize_1/002344_2014-06-28_20-06-29_260595134347_rgbf000030-resize_1-target.png,1000,1.5795,2.0,4863,998,feet,jsons/v1_VE1000_randls_76_rotated.json,1292839,1522231,28,Woman
159,164563,DepthScenes,duration_manipulation_targetAtFixation,jsons/v1_VE1000_randls_76_rotated.json,http://54.235.29.9/FacialAge/BNav_EC2/DepthDuration/v2_depth_duration_MTurk/v2_DepthDuration_HTML.html#217,217,1707,781,1366,768,9-18-2022,13-3-35,160,depth_duration_stimuli/002725_2014-06-22_11-47-51_094959634447_rgbf000070-resize_1/002725_2014-06-22_11-47-51_094959634447_rgbf000070-resize_1-target.png,1000,2.195,8.0,4477,1002,feet,jsons/v1_VE1000_randls_76_rotated.json,1292839,1522231,28,Woman
160,164563,DepthScenes,duration_manipulation_targetAtFixation,jsons/v1_VE1000_randls_76_rotated.json,http://54.235.29.9/FacialAge/BNav_EC2/DepthDuration/v2_depth_duration_MTurk/v2_DepthDuration_HTML.html#217,217,1707,781,1366,768,9-18-2022,13-3-35,161,depth_duration_stimuli/000866_2014-06-09_20-45-42_260595134347_rgbf000139-resize_1/000866_2014-06-09_20-45-42_260595134347_rgbf000139-resize_1-target.png,1000,3.2155,11.0,4765,1010,feet,jsons/v1_VE1000_randls_76_rotated.json,1292839,1522231,28,Woman
161,164563,DepthScenes,duration_manipulation_targetAtFixation,jsons/v1_VE1000_randls_76_rotated.json,http://54.235.29.9/FacialAge/BNav_EC2/DepthDuration/v2_depth_duration_MTurk/v2_DepthDuration_HTML.html#217,217,1707,781,1366,768,9-18-2022,13-3-35,162,depth_duration_stimuli/002989_2014-06-15_12-25-03_094959634447_rgbf000150-resize_3/002989_2014-06-15_12-25-03_094959634447_rgbf000150-resize_3-target.png,1000,4.1975,15.0,4838,999,feet,jsons/v1_VE1000_randls_76_rotated.json,1292839,1522231,28,Woman
162,164563,DepthScenes,duration_manipulation_targetAtFixation,jsons/v1_VE1000_randls_76_rotated.json,http://54.235.29.9/FacialAge/BNav_EC2/DepthDuration/v2_depth_duration_MTurk/v2_DepthDuration_HTML.html#217,217,1707,781,1366,768,9-18-2022,13-3-35,163,depth_duration_stimuli/003423_2014-05-21_10-23-26_094959634447_rgbf002665-resize_2/003423_2014-05-21_10-23-26_094959634447_rgbf002665-resize_2-target.png,1000,3.2575,10.0,5795,1004,feet,jsons/v1_VE1000_randls_76_rotated.json,1292839,1522231,28,Woman
163,164563,DepthScenes,duration_manipulation_targetAtFixation,jsons/v1_VE1000_randls_76_rotated.json,http://54.235.29.9/FacialAge/BNav_EC2/DepthDuration/v2_depth_duration_MTurk/v2_DepthDuration_HTML.html#217,217,1707,781,1366,768,9-18-2022,13-3-35,164,depth_duration_stimuli/002905_2014-06-03_18-04-43_094959634447_rgbf000151-resize_2/002905_2014-06-03_18-04-43_094959634447_rgbf000151-resize_2-target.png,1000,2.0295,9.0,4530,1006,feet,jsons/v1_VE1000_randls_76_rotated.json,1292839,1522231,28,Woman
