,subjID,experimentName,versionName,sequenceName,url,selected_row,windowWidth,windowHeight,screenWidth,screenHeight,startDate,startTime,trial,stimulus,duration,actual_depth,depth_estimate,trial_RT,log_sceneDuration,unitSelection,seq_filepath,experimentTime,totalTime,age,gender
0,165253,DepthScenes,duration_manipulation_targetAtFixation,jsons/VE125_randls_11.json,http://54.235.29.9/FacialAge/BNav_EC2/DepthDuration/v2_depth_duration_MTurk/v2_DepthDuration_HTML.html#101,101,1920,929,1920,1080,8-21-2022,6-36-59,1,depth_duration_stimuli/000414_2014-06-04_19-49-13_260595134347_rgbf000044-resize_0/000414_2014-06-04_19-49-13_260595134347_rgbf000044-resize_0-target.png,125,4.329,9,11273,125,feet,jsons/VE125_randls_11.json,559903,753393,58,Man
1,165253,DepthScenes,duration_manipulation_targetAtFixation,jsons/VE125_randls_11.json,http://54.235.29.9/FacialAge/BNav_EC2/DepthDuration/v2_depth_duration_MTurk/v2_DepthDuration_HTML.html#101,101,1920,929,1920,1080,8-21-2022,6-36-59,2,depth_duration_stimuli/003129_2014-05-12_10-48-10_094959634447_rgbf000100-resize_0/003129_2014-05-12_10-48-10_094959634447_rgbf000100-resize_0-target.png,125,4.9305,8,3376,122,feet,jsons/VE125_randls_11.json,559903,753393,58,Man
2,165253,DepthScenes,duration_manipulation_targetAtFixation,jsons/VE125_randls_11.json,http://54.235.29.9/FacialAge/BNav_EC2/DepthDuration/v2_depth_duration_MTurk/v2_DepthDuration_HTML.html#101,101,1920,929,1920,1080,8-21-2022,6-36-59,3,depth_duration_stimuli/002153_2014-06-25_21-27-18_260595134347_rgbf000038-resize_5/002153_2014-06-25_21-27-18_260595134347_rgbf000038-resize_5-target.png,125,2.505,5,3722,126,feet,jsons/VE125_randls_11.json,559903,753393,58,Man
3,165253,DepthScenes,duration_manipulation_targetAtFixation,jsons/VE125_randls_11.json,http://54.235.29.9/FacialAge/BNav_EC2/DepthDuration/v2_depth_duration_MTurk/v2_DepthDuration_HTML.html#101,101,1920,929,1920,1080,8-21-2022,6-36-59,4,depth_duration_stimuli/002660_2014-06-13_15-44-18_094959634447_rgbf001878-resize_2/002660_2014-06-13_15-44-18_094959634447_rgbf001878-resize_2-target.png,125,3.576,8,3360,125,feet,jsons/VE125_randls_11.json,559903,753393,58,Man
4,165253,DepthScenes,duration_manipulation_targetAtFixation,jsons/VE125_randls_11.json,http://54.235.29.9/FacialAge/BNav_EC2/DepthDuration/v2_depth_duration_MTurk/v2_DepthDuration_HTML.html#101,101,1920,929,1920,1080,8-21-2022,6-36-59,5,depth_duration_stimuli/002788_2014-06-22_19-36-03_094959634447_rgbf000088-resize_2/002788_2014-06-22_19-36-03_094959634447_rgbf000088-resize_2-target.png,125,1.6465,7,4238,136,feet,jsons/VE125_randls_11.json,559903,753393,58,Man
5,165253,DepthScenes,duration_manipulation_targetAtFixation,jsons/VE125_randls_11.json,http://54.235.29.9/FacialAge/BNav_EC2/DepthDuration/v2_depth_duration_MTurk/v2_DepthDuration_HTML.html#101,101,1920,929,1920,1080,8-21-2022,6-36-59,6,depth_duration_stimuli/000749_2014-06-08_21-55-06_260595134347_rgbf000070-resize_2/000749_2014-06-08_21-55-06_260595134347_rgbf000070-resize_2-target.png,125,2.331,6,4615,139,feet,jsons/VE125_randls_11.json,559903,753393,58,Man
6,165253,DepthScenes,duration_manipulation_targetAtFixation,jsons/VE125_randls_11.json,http://54.235.29.9/FacialAge/BNav_EC2/DepthDuration/v2_depth_duration_MTurk/v2_DepthDuration_HTML.html#101,101,1920,929,1920,1080,8-21-2022,6-36-59,7,depth_duration_stimuli/000810_2014-06-08_17-20-01_260595134347_rgbf000105-resize_0/000810_2014-06-08_17-20-01_260595134347_rgbf000105-resize_0-target.png,125,1.4865,9,3130,123,feet,jsons/VE125_randls_11.json,559903,753393,58,Man
7,165253,DepthScenes,duration_manipulation_targetAtFixation,jsons/VE125_randls_11.json,http://54.235.29.9/FacialAge/BNav_EC2/DepthDuration/v2_depth_duration_MTurk/v2_DepthDuration_HTML.html#101,101,1920,929,1920,1080,8-21-2022,6-36-59,8,depth_duration_stimuli/001214_2014-06-17_16-13-55_260595134347_rgbf000111-resize_0/001214_2014-06-17_16-13-55_260595134347_rgbf000111-resize_0-target.png,125,2.6505,6,2887,124,feet,jsons/VE125_randls_11.json,559903,753393,58,Man
8,165253,DepthScenes,duration_manipulation_targetAtFixation,jsons/VE125_randls_11.json,http://54.235.29.9/FacialAge/BNav_EC2/DepthDuration/v2_depth_duration_MTurk/v2_DepthDuration_HTML.html#101,101,1920,929,1920,1080,8-21-2022,6-36-59,9,depth_duration_stimuli/000736_2014-06-08_18-24-15_260595134347_rgbf000206-resize_3/000736_2014-06-08_18-24-15_260595134347_rgbf000206-resize_3-target.png,125,3.515,5,3121,124,feet,jsons/VE125_randls_11.json,559903,753393,58,Man
9,165253,DepthScenes,duration_manipulation_targetAtFixation,jsons/VE125_randls_11.json,http://54.235.29.9/FacialAge/BNav_EC2/DepthDuration/v2_depth_duration_MTurk/v2_DepthDuration_HTML.html#101,101,1920,929,1920,1080,8-21-2022,6-36-59,10,depth_duration_stimuli/000137_2014-05-20_17-04-49_260595134347_rgbf000120-resize_1/000137_2014-05-20_17-04-49_260595134347_rgbf000120-resize_1-target.png,125,3.786,8,2640,126,feet,jsons/VE125_randls_11.json,559903,753393,58,Man
10,165253,DepthScenes,duration_manipulation_targetAtFixation,jsons/VE125_randls_11.json,http://54.235.29.9/FacialAge/BNav_EC2/DepthDuration/v2_depth_duration_MTurk/v2_DepthDuration_HTML.html#101,101,1920,929,1920,1080,8-21-2022,6-36-59,11,depth_duration_stimuli/001110_2014-06-15_17-25-28_260595134347_rgbf000150-resize_1/001110_2014-06-15_17-25-28_260595134347_rgbf000150-resize_1-target.png,125,1.7115,4,2681,125,feet,jsons/VE125_randls_11.json,559903,753393,58,Man
11,165253,DepthScenes,duration_manipulation_targetAtFixation,jsons/VE125_randls_11.json,http://54.235.29.9/FacialAge/BNav_EC2/DepthDuration/v2_depth_duration_MTurk/v2_DepthDuration_HTML.html#101,101,1920,929,1920,1080,8-21-2022,6-36-59,12,depth_duration_stimuli/000927_2014-06-09_16-32-30_260595134347_rgbf000123-resize_3/000927_2014-06-09_16-32-30_260595134347_rgbf000123-resize_3-target.png,125,2.6785,8,2385,125,feet,jsons/VE125_randls_11.json,559903,753393,58,Man
12,165253,DepthScenes,duration_manipulation_targetAtFixation,jsons/VE125_randls_11.json,http://54.235.29.9/FacialAge/BNav_EC2/DepthDuration/v2_depth_duration_MTurk/v2_DepthDuration_HTML.html#101,101,1920,929,1920,1080,8-21-2022,6-36-59,13,depth_duration_stimuli/000569_2014-06-09_22-51-47_260595134347_rgbf000141-resize_3/000569_2014-06-09_22-51-47_260595134347_rgbf000141-resize-original.jpg,125,4.512,9,2313,123,feet,jsons/VE125_randls_11.json,559903,753393,58,Man
13,165253,DepthScenes,duration_manipulation_targetAtFixation,jsons/VE125_randls_11.json,http://54.235.29.9/FacialAge/BNav_EC2/DepthDuration/v2_depth_duration_MTurk/v2_DepthDuration_HTML.html#101,101,1920,929,1920,1080,8-21-2022,6-36-59,14,depth_duration_stimuli/002509_2014-06-24_13-19-22_094959634447_rgbf000077-resize_0/002509_2014-06-24_13-19-22_094959634447_rgbf000077-resize_0-target.png,125,1.3065,7,3105,123,feet,jsons/VE125_randls_11.json,559903,753393,58,Man
14,165253,DepthScenes,duration_manipulation_targetAtFixation,jsons/VE125_randls_11.json,http://54.235.29.9/FacialAge/BNav_EC2/DepthDuration/v2_depth_duration_MTurk/v2_DepthDuration_HTML.html#101,101,1920,929,1920,1080,8-21-2022,6-36-59,15,depth_duration_stimuli/003338_2014-05-20_11-01-23_094959634447_rgbf000051-resize_6/003338_2014-05-20_11-01-23_094959634447_rgbf000051-resize_6-target.png,125,1.693,4,3101,125,feet,jsons/VE125_randls_11.json,559903,753393,58,Man
15,165253,DepthScenes,duration_manipulation_targetAtFixation,jsons/VE125_randls_11.json,http://54.235.29.9/FacialAge/BNav_EC2/DepthDuration/v2_depth_duration_MTurk/v2_DepthDuration_HTML.html#101,101,1920,929,1920,1080,8-21-2022,6-36-59,16,depth_duration_stimuli/002905_2014-06-03_18-04-43_094959634447_rgbf000151-resize_2/002905_2014-06-03_18-04-43_094959634447_rgbf000151-resize_2-target.png,125,2.0295,3,4303,124,feet,jsons/VE125_randls_11.json,559903,753393,58,Man
16,165253,DepthScenes,duration_manipulation_targetAtFixation,jsons/VE125_randls_11.json,http://54.235.29.9/FacialAge/BNav_EC2/DepthDuration/v2_depth_duration_MTurk/v2_DepthDuration_HTML.html#101,101,1920,929,1920,1080,8-21-2022,6-36-59,17,depth_duration_stimuli/003423_2014-05-21_10-23-26_094959634447_rgbf002665-resize_2/003423_2014-05-21_10-23-26_094959634447_rgbf002665-resize_2-target.png,125,3.2575,8,2612,121,feet,jsons/VE125_randls_11.json,559903,753393,58,Man
17,165253,DepthScenes,duration_manipulation_targetAtFixation,jsons/VE125_randls_11.json,http://54.235.29.9/FacialAge/BNav_EC2/DepthDuration/v2_depth_duration_MTurk/v2_DepthDuration_HTML.html#101,101,1920,929,1920,1080,8-21-2022,6-36-59,18,depth_duration_stimuli/000878_2014-06-08_22-52-45_260595134347_rgbf000045-resize_2/000878_2014-06-08_22-52-45_260595134347_rgbf000045-resize_2-target.png,125,2.092,6,2628,123,feet,jsons/VE125_randls_11.json,559903,753393,58,Man
18,165253,DepthScenes,duration_manipulation_targetAtFixation,jsons/VE125_randls_11.json,http://54.235.29.9/FacialAge/BNav_EC2/DepthDuration/v2_depth_duration_MTurk/v2_DepthDuration_HTML.html#101,101,1920,929,1920,1080,8-21-2022,6-36-59,19,depth_duration_stimuli/002953_2014-06-08_17-32-18_094959634447_rgbf000059-resize_5/002953_2014-06-08_17-32-18_094959634447_rgbf000059-resize_5-target.png,125,1.551,4,2426,122,feet,jsons/VE125_randls_11.json,559903,753393,58,Man
19,165253,DepthScenes,duration_manipulation_targetAtFixation,jsons/VE125_randls_11.json,http://54.235.29.9/FacialAge/BNav_EC2/DepthDuration/v2_depth_duration_MTurk/v2_DepthDuration_HTML.html#101,101,1920,929,1920,1080,8-21-2022,6-36-59,20,depth_duration_stimuli/002272_2014-06-28_18-53-56_260595134347_rgbf000067-resize_2/002272_2014-06-28_18-53-56_260595134347_rgbf000067-resize_2-target.png,125,1.138,3,2253,140,feet,jsons/VE125_randls_11.json,559903,753393,58,Man
20,165253,DepthScenes,duration_manipulation_targetAtFixation,jsons/VE125_randls_11.json,http://54.235.29.9/FacialAge/BNav_EC2/DepthDuration/v2_depth_duration_MTurk/v2_DepthDuration_HTML.html#101,101,1920,929,1920,1080,8-21-2022,6-36-59,21,depth_duration_stimuli/001571_2014-06-20_17-21-32_260595134347_rgbf000089-resize_1/001571_2014-06-20_17-21-32_260595134347_rgbf000089-resize_1-target.png,125,1.86,4,2317,125,feet,jsons/VE125_randls_11.json,559903,753393,58,Man
21,165253,DepthScenes,duration_manipulation_targetAtFixation,jsons/VE125_randls_11.json,http://54.235.29.9/FacialAge/BNav_EC2/DepthDuration/v2_depth_duration_MTurk/v2_DepthDuration_HTML.html#101,101,1920,929,1920,1080,8-21-2022,6-36-59,22,depth_duration_stimuli/001055_2014-06-08_18-45-35_260595134347_rgbf000111-resize_4/001055_2014-06-08_18-45-35_260595134347_rgbf000111-resize_4-target.png,125,2.4290000000000003,9,2265,125,feet,jsons/VE125_randls_11.json,559903,753393,58,Man
22,165253,DepthScenes,duration_manipulation_targetAtFixation,jsons/VE125_randls_11.json,http://54.235.29.9/FacialAge/BNav_EC2/DepthDuration/v2_depth_duration_MTurk/v2_DepthDuration_HTML.html#101,101,1920,929,1920,1080,8-21-2022,6-36-59,23,depth_duration_stimuli/000549_2014-06-08_22-10-24_260595134347_rgbf000247-resize_3/000549_2014-06-08_22-10-24_260595134347_rgbf000247-resize_3-target.png,125,1.841,2,2434,125,feet,jsons/VE125_randls_11.json,559903,753393,58,Man
23,165253,DepthScenes,duration_manipulation_targetAtFixation,jsons/VE125_randls_11.json,http://54.235.29.9/FacialAge/BNav_EC2/DepthDuration/v2_depth_duration_MTurk/v2_DepthDuration_HTML.html#101,101,1920,929,1920,1080,8-21-2022,6-36-59,24,depth_duration_stimuli/002725_2014-06-22_11-47-51_094959634447_rgbf000070-resize_1/002725_2014-06-22_11-47-51_094959634447_rgbf000070-resize_1-target.png,125,2.195,8,2492,122,feet,jsons/VE125_randls_11.json,559903,753393,58,Man
24,165253,DepthScenes,duration_manipulation_targetAtFixation,jsons/VE125_randls_11.json,http://54.235.29.9/FacialAge/BNav_EC2/DepthDuration/v2_depth_duration_MTurk/v2_DepthDuration_HTML.html#101,101,1920,929,1920,1080,8-21-2022,6-36-59,25,depth_duration_stimuli/002344_2014-06-28_20-06-29_260595134347_rgbf000030-resize_1/002344_2014-06-28_20-06-29_260595134347_rgbf000030-resize_1-target.png,125,1.5795,3,2613,123,feet,jsons/VE125_randls_11.json,559903,753393,58,Man
25,165253,DepthScenes,duration_manipulation_targetAtFixation,jsons/VE125_randls_11.json,http://54.235.29.9/FacialAge/BNav_EC2/DepthDuration/v2_depth_duration_MTurk/v2_DepthDuration_HTML.html#101,101,1920,929,1920,1080,8-21-2022,6-36-59,26,depth_duration_stimuli/003292_2014-05-14_21-53-49_094959634447_rgbf000100-resize_2/003292_2014-05-14_21-53-49_094959634447_rgbf000100-resize_2-target.png,125,3.4815,5,2347,127,feet,jsons/VE125_randls_11.json,559903,753393,58,Man
26,165253,DepthScenes,duration_manipulation_targetAtFixation,jsons/VE125_randls_11.json,http://54.235.29.9/FacialAge/BNav_EC2/DepthDuration/v2_depth_duration_MTurk/v2_DepthDuration_HTML.html#101,101,1920,929,1920,1080,8-21-2022,6-36-59,27,depth_duration_stimuli/002639_2014-06-24_14-51-37_094959634447_rgbf000074-resize_4/002639_2014-06-24_14-51-37_094959634447_rgbf000074-resize_4-target.png,125,4.0375,6,2316,123,feet,jsons/VE125_randls_11.json,559903,753393,58,Man
27,165253,DepthScenes,duration_manipulation_targetAtFixation,jsons/VE125_randls_11.json,http://54.235.29.9/FacialAge/BNav_EC2/DepthDuration/v2_depth_duration_MTurk/v2_DepthDuration_HTML.html#101,101,1920,929,1920,1080,8-21-2022,6-36-59,28,depth_duration_stimuli/000739_2014-06-08_18-45-58_260595134347_rgbf000068-resize_1/000739_2014-06-08_18-45-58_260595134347_rgbf000068-resize_1-target.png,125,3.534,8,2404,124,feet,jsons/VE125_randls_11.json,559903,753393,58,Man
28,165253,DepthScenes,duration_manipulation_targetAtFixation,jsons/VE125_randls_11.json,http://54.235.29.9/FacialAge/BNav_EC2/DepthDuration/v2_depth_duration_MTurk/v2_DepthDuration_HTML.html#101,101,1920,929,1920,1080,8-21-2022,6-36-59,29,depth_duration_stimuli/000734_2014-06-08_17-39-11_260595134347_rgbf000128-resize_2/000734_2014-06-08_17-39-11_260595134347_rgbf000128-resize_2-target.png,125,4.098,8,2241,130,feet,jsons/VE125_randls_11.json,559903,753393,58,Man
29,165253,DepthScenes,duration_manipulation_targetAtFixation,jsons/VE125_randls_11.json,http://54.235.29.9/FacialAge/BNav_EC2/DepthDuration/v2_depth_duration_MTurk/v2_DepthDuration_HTML.html#101,101,1920,929,1920,1080,8-21-2022,6-36-59,30,depth_duration_stimuli/000375_2014-06-08_11-17-29_260595134347_rgbf000133-resize_2/000375_2014-06-08_11-17-29_260595134347_rgbf000133-resize-original.jpg,125,4.718,7,2471,122,feet,jsons/VE125_randls_11.json,559903,753393,58,Man
30,165253,DepthScenes,duration_manipulation_targetAtFixation,jsons/VE125_randls_11.json,http://54.235.29.9/FacialAge/BNav_EC2/DepthDuration/v2_depth_duration_MTurk/v2_DepthDuration_HTML.html#101,101,1920,929,1920,1080,8-21-2022,6-36-59,31,depth_duration_stimuli/002630_2014-06-24_14-47-50_094959634447_rgbf000055-resize_1/002630_2014-06-24_14-47-50_094959634447_rgbf000055-resize_1-target.png,125,3.0095,9,2355,125,feet,jsons/VE125_randls_11.json,559903,753393,58,Man
31,165253,DepthScenes,duration_manipulation_targetAtFixation,jsons/VE125_randls_11.json,http://54.235.29.9/FacialAge/BNav_EC2/DepthDuration/v2_depth_duration_MTurk/v2_DepthDuration_HTML.html#101,101,1920,929,1920,1080,8-21-2022,6-36-59,32,depth_duration_stimuli/002758_2014-06-22_19-11-20_094959634447_rgbf000128-resize_1/002758_2014-06-22_19-11-20_094959634447_rgbf000128-resize_1-target.png,125,2.555,5,2624,125,feet,jsons/VE125_randls_11.json,559903,753393,58,Man
32,165253,DepthScenes,duration_manipulation_targetAtFixation,jsons/VE125_randls_11.json,http://54.235.29.9/FacialAge/BNav_EC2/DepthDuration/v2_depth_duration_MTurk/v2_DepthDuration_HTML.html#101,101,1920,929,1920,1080,8-21-2022,6-36-59,33,depth_duration_stimuli/000447_2014-06-08_16-15-46_260595134347_rgbf000130-resize_1/000447_2014-06-08_16-15-46_260595134347_rgbf000130-resize_1-target.png,125,4.479,8,2225,124,feet,jsons/VE125_randls_11.json,559903,753393,58,Man
33,165253,DepthScenes,duration_manipulation_targetAtFixation,jsons/VE125_randls_11.json,http://54.235.29.9/FacialAge/BNav_EC2/DepthDuration/v2_depth_duration_MTurk/v2_DepthDuration_HTML.html#101,101,1920,929,1920,1080,8-21-2022,6-36-59,34,depth_duration_stimuli/001447_2014-06-19_17-00-32_260595134347_rgbf000082-resize_5/001447_2014-06-19_17-00-32_260595134347_rgbf000082-resize_5-target.png,125,4.13775,7,2759,125,feet,jsons/VE125_randls_11.json,559903,753393,58,Man
34,165253,DepthScenes,duration_manipulation_targetAtFixation,jsons/VE125_randls_11.json,http://54.235.29.9/FacialAge/BNav_EC2/DepthDuration/v2_depth_duration_MTurk/v2_DepthDuration_HTML.html#101,101,1920,929,1920,1080,8-21-2022,6-36-59,35,depth_duration_stimuli/000906_2014-06-08_13-35-43_260595134347_rgbf000155-resize_1/000906_2014-06-08_13-35-43_260595134347_rgbf000155-resize_1-target.png,125,2.8489999999999998,9,2213,121,feet,jsons/VE125_randls_11.json,559903,753393,58,Man
35,165253,DepthScenes,duration_manipulation_targetAtFixation,jsons/VE125_randls_11.json,http://54.235.29.9/FacialAge/BNav_EC2/DepthDuration/v2_depth_duration_MTurk/v2_DepthDuration_HTML.html#101,101,1920,929,1920,1080,8-21-2022,6-36-59,36,depth_duration_stimuli/002805_2014-06-22_19-54-03_094959634447_rgbf000079-resize_1/002805_2014-06-22_19-54-03_094959634447_rgbf000079-resize_1-target.png,125,3.1439999999999997,8,2441,126,feet,jsons/VE125_randls_11.json,559903,753393,58,Man
36,165253,DepthScenes,duration_manipulation_targetAtFixation,jsons/VE125_randls_11.json,http://54.235.29.9/FacialAge/BNav_EC2/DepthDuration/v2_depth_duration_MTurk/v2_DepthDuration_HTML.html#101,101,1920,929,1920,1080,8-21-2022,6-36-59,37,depth_duration_stimuli/002445_2014-06-28_20-32-16_260595134347_rgbf000029-resize_4/002445_2014-06-28_20-32-16_260595134347_rgbf000029-resize_4-target.png,125,2.5315,4,2434,124,feet,jsons/VE125_randls_11.json,559903,753393,58,Man
37,165253,DepthScenes,duration_manipulation_targetAtFixation,jsons/VE125_randls_11.json,http://54.235.29.9/FacialAge/BNav_EC2/DepthDuration/v2_depth_duration_MTurk/v2_DepthDuration_HTML.html#101,101,1920,929,1920,1080,8-21-2022,6-36-59,38,depth_duration_stimuli/000780_2014-06-08_22-28-29_260595134347_rgbf000126-resize_1/000780_2014-06-08_22-28-29_260595134347_rgbf000126-resize_1-target.png,125,3.3825,8,2614,123,feet,jsons/VE125_randls_11.json,559903,753393,58,Man
38,165253,DepthScenes,duration_manipulation_targetAtFixation,jsons/VE125_randls_11.json,http://54.235.29.9/FacialAge/BNav_EC2/DepthDuration/v2_depth_duration_MTurk/v2_DepthDuration_HTML.html#101,101,1920,929,1920,1080,8-21-2022,6-36-59,39,depth_duration_stimuli/002279_2014-06-28_18-55-32_260595134347_rgbf000040-resize_5/002279_2014-06-28_18-55-32_260595134347_rgbf000040-resize_5-target.png,125,1.5043333333333,4,2054,123,feet,jsons/VE125_randls_11.json,559903,753393,58,Man
39,165253,DepthScenes,duration_manipulation_targetAtFixation,jsons/VE125_randls_11.json,http://54.235.29.9/FacialAge/BNav_EC2/DepthDuration/v2_depth_duration_MTurk/v2_DepthDuration_HTML.html#101,101,1920,929,1920,1080,8-21-2022,6-36-59,40,depth_duration_stimuli/000635_2014-06-08_16-38-42_260595134347_rgbf000106-resize_1/000635_2014-06-08_16-38-42_260595134347_rgbf000106-resize_1-target.png,125,2.074,8,2207,123,feet,jsons/VE125_randls_11.json,559903,753393,58,Man
40,165253,DepthScenes,duration_manipulation_targetAtFixation,jsons/VE125_randls_11.json,http://54.235.29.9/FacialAge/BNav_EC2/DepthDuration/v2_depth_duration_MTurk/v2_DepthDuration_HTML.html#101,101,1920,929,1920,1080,8-21-2022,6-36-59,41,depth_duration_stimuli/001175_2014-06-17_15-45-55_260595134347_rgbf000129-resize_4/001175_2014-06-17_15-45-55_260595134347_rgbf000129-resize_4-target.png,125,4.255,10,2838,124,feet,jsons/VE125_randls_11.json,559903,753393,58,Man
41,165253,DepthScenes,duration_manipulation_targetAtFixation,jsons/VE125_randls_11.json,http://54.235.29.9/FacialAge/BNav_EC2/DepthDuration/v2_depth_duration_MTurk/v2_DepthDuration_HTML.html#101,101,1920,929,1920,1080,8-21-2022,6-36-59,42,depth_duration_stimuli/003490_2014-05-21_15-50-11_094959634447_rgbf000101-resize_3/003490_2014-05-21_15-50-11_094959634447_rgbf000101-resize_3-target.png,125,3.6445,6,2562,122,feet,jsons/VE125_randls_11.json,559903,753393,58,Man
42,165253,DepthScenes,duration_manipulation_targetAtFixation,jsons/VE125_randls_11.json,http://54.235.29.9/FacialAge/BNav_EC2/DepthDuration/v2_depth_duration_MTurk/v2_DepthDuration_HTML.html#101,101,1920,929,1920,1080,8-21-2022,6-36-59,43,depth_duration_stimuli/002964_2014-06-08_17-46-11_094959634447_rgbf000091-resize_4/002964_2014-06-08_17-46-11_094959634447_rgbf000091-resize_4-target.png,125,1.6909999999999998,2,2282,124,feet,jsons/VE125_randls_11.json,559903,753393,58,Man
43,165253,DepthScenes,duration_manipulation_targetAtFixation,jsons/VE125_randls_11.json,http://54.235.29.9/FacialAge/BNav_EC2/DepthDuration/v2_depth_duration_MTurk/v2_DepthDuration_HTML.html#101,101,1920,929,1920,1080,8-21-2022,6-36-59,44,depth_duration_stimuli/002136_2014-06-25_21-18-03_260595134347_rgbf000109-resize_3/002136_2014-06-25_21-18-03_260595134347_rgbf000109-resize_3-target.png,125,1.9569999999999999,4,2329,125,feet,jsons/VE125_randls_11.json,559903,753393,58,Man
44,165253,DepthScenes,duration_manipulation_targetAtFixation,jsons/VE125_randls_11.json,http://54.235.29.9/FacialAge/BNav_EC2/DepthDuration/v2_depth_duration_MTurk/v2_DepthDuration_HTML.html#101,101,1920,929,1920,1080,8-21-2022,6-36-59,45,depth_duration_stimuli/000787_2014-06-08_22-33-53_260595134347_rgbf000175-resize_1/000787_2014-06-08_22-33-53_260595134347_rgbf000175-resize-original.jpg,125,4.784,0,2787,123,feet,jsons/VE125_randls_11.json,559903,753393,58,Man
45,165253,DepthScenes,duration_manipulation_targetAtFixation,jsons/VE125_randls_11.json,http://54.235.29.9/FacialAge/BNav_EC2/DepthDuration/v2_depth_duration_MTurk/v2_DepthDuration_HTML.html#101,101,1920,929,1920,1080,8-21-2022,6-36-59,46,depth_duration_stimuli/000682_2014-06-08_23-14-58_260595134347_rgbf000041-resize_5/000682_2014-06-08_23-14-58_260595134347_rgbf000041-resize_5-target.png,125,2.7239999999999998,4,2641,125,feet,jsons/VE125_randls_11.json,559903,753393,58,Man
46,165253,DepthScenes,duration_manipulation_targetAtFixation,jsons/VE125_randls_11.json,http://54.235.29.9/FacialAge/BNav_EC2/DepthDuration/v2_depth_duration_MTurk/v2_DepthDuration_HTML.html#101,101,1920,929,1920,1080,8-21-2022,6-36-59,47,depth_duration_stimuli/001650_2014-06-20_12-09-00_260595134347_rgbf000087-resize_3/001650_2014-06-20_12-09-00_260595134347_rgbf000087-resize_3-target.png,125,1.9505,2,2030,124,feet,jsons/VE125_randls_11.json,559903,753393,58,Man
47,165253,DepthScenes,duration_manipulation_targetAtFixation,jsons/VE125_randls_11.json,http://54.235.29.9/FacialAge/BNav_EC2/DepthDuration/v2_depth_duration_MTurk/v2_DepthDuration_HTML.html#101,101,1920,929,1920,1080,8-21-2022,6-36-59,48,depth_duration_stimuli/001059_2014-06-08_21-53-27_260595134347_rgbf000061-resize_4/001059_2014-06-08_21-53-27_260595134347_rgbf000061-resize_4-target.png,125,2.4185,6,2347,124,feet,jsons/VE125_randls_11.json,559903,753393,58,Man
48,165253,DepthScenes,duration_manipulation_targetAtFixation,jsons/VE125_randls_11.json,http://54.235.29.9/FacialAge/BNav_EC2/DepthDuration/v2_depth_duration_MTurk/v2_DepthDuration_HTML.html#101,101,1920,929,1920,1080,8-21-2022,6-36-59,49,depth_duration_stimuli/001032_2014-06-08_13-23-17_260595134347_rgbf000021-resize_3/001032_2014-06-08_13-23-17_260595134347_rgbf000021-resize_3-target.png,125,3.2725,3,2147,124,feet,jsons/VE125_randls_11.json,559903,753393,58,Man
49,165253,DepthScenes,duration_manipulation_targetAtFixation,jsons/VE125_randls_11.json,http://54.235.29.9/FacialAge/BNav_EC2/DepthDuration/v2_depth_duration_MTurk/v2_DepthDuration_HTML.html#101,101,1920,929,1920,1080,8-21-2022,6-36-59,50,depth_duration_stimuli/000929_2014-06-09_16-33-19_260595134347_rgbf000139-resize_0/000929_2014-06-09_16-33-19_260595134347_rgbf000139-resize_0-target.png,125,2.8680000000000003,5,2126,124,feet,jsons/VE125_randls_11.json,559903,753393,58,Man
50,165253,DepthScenes,duration_manipulation_targetAtFixation,jsons/VE125_randls_11.json,http://54.235.29.9/FacialAge/BNav_EC2/DepthDuration/v2_depth_duration_MTurk/v2_DepthDuration_HTML.html#101,101,1920,929,1920,1080,8-21-2022,6-36-59,51,depth_duration_stimuli/000457_2014-06-08_16-52-43_260595134347_rgbf000199-resize_1/000457_2014-06-08_16-52-43_260595134347_rgbf000199-resize_1-target.png,125,3.6489999999999996,8,2193,123,feet,jsons/VE125_randls_11.json,559903,753393,58,Man
51,165253,DepthScenes,duration_manipulation_targetAtFixation,jsons/VE125_randls_11.json,http://54.235.29.9/FacialAge/BNav_EC2/DepthDuration/v2_depth_duration_MTurk/v2_DepthDuration_HTML.html#101,101,1920,929,1920,1080,8-21-2022,6-36-59,52,depth_duration_stimuli/000692_2014-06-08_13-09-42_260595134347_rgbf000199-resize_2/000692_2014-06-08_13-09-42_260595134347_rgbf000199-resize_2-target.png,125,3.661,9,3190,139,feet,jsons/VE125_randls_11.json,559903,753393,58,Man
52,165253,DepthScenes,duration_manipulation_targetAtFixation,jsons/VE125_randls_11.json,http://54.235.29.9/FacialAge/BNav_EC2/DepthDuration/v2_depth_duration_MTurk/v2_DepthDuration_HTML.html#101,101,1920,929,1920,1080,8-21-2022,6-36-59,53,depth_duration_stimuli/001094_2014-06-15_17-36-00_260595134347_rgbf000205-resize_0/001094_2014-06-15_17-36-00_260595134347_rgbf000205-resize_0-target.png,125,4.2175,8,3762,113,feet,jsons/VE125_randls_11.json,559903,753393,58,Man
53,165253,DepthScenes,duration_manipulation_targetAtFixation,jsons/VE125_randls_11.json,http://54.235.29.9/FacialAge/BNav_EC2/DepthDuration/v2_depth_duration_MTurk/v2_DepthDuration_HTML.html#101,101,1920,929,1920,1080,8-21-2022,6-36-59,54,depth_duration_stimuli/000493_2014-06-09_21-01-18_260595134347_rgbf000196-resize_3/000493_2014-06-09_21-01-18_260595134347_rgbf000196-resize_3-target.png,125,3.44,9,2821,122,feet,jsons/VE125_randls_11.json,559903,753393,58,Man
54,165253,DepthScenes,duration_manipulation_targetAtFixation,jsons/VE125_randls_11.json,http://54.235.29.9/FacialAge/BNav_EC2/DepthDuration/v2_depth_duration_MTurk/v2_DepthDuration_HTML.html#101,101,1920,929,1920,1080,8-21-2022,6-36-59,55,depth_duration_stimuli/000191_2014-05-12_17-07-38_260595134347_rgbf000199-resize_0/000191_2014-05-12_17-07-38_260595134347_rgbf000199-resize_0-target.png,125,3.7995,11,2695,123,feet,jsons/VE125_randls_11.json,559903,753393,58,Man
55,165253,DepthScenes,duration_manipulation_targetAtFixation,jsons/VE125_randls_11.json,http://54.235.29.9/FacialAge/BNav_EC2/DepthDuration/v2_depth_duration_MTurk/v2_DepthDuration_HTML.html#101,101,1920,929,1920,1080,8-21-2022,6-36-59,56,depth_duration_stimuli/001449_2014-06-19_17-01-27_260595134347_rgbf000116-resize_2/001449_2014-06-19_17-01-27_260595134347_rgbf000116-resize_2-target.png,125,3.452,10,2478,122,feet,jsons/VE125_randls_11.json,559903,753393,58,Man
56,165253,DepthScenes,duration_manipulation_targetAtFixation,jsons/VE125_randls_11.json,http://54.235.29.9/FacialAge/BNav_EC2/DepthDuration/v2_depth_duration_MTurk/v2_DepthDuration_HTML.html#101,101,1920,929,1920,1080,8-21-2022,6-36-59,57,depth_duration_stimuli/001450_2014-06-19_17-02-03_260595134347_rgbf000203-resize_4/001450_2014-06-19_17-02-03_260595134347_rgbf000203-resize_4-target.png,125,4.0106666666667,9,3137,123,feet,jsons/VE125_randls_11.json,559903,753393,58,Man
57,165253,DepthScenes,duration_manipulation_targetAtFixation,jsons/VE125_randls_11.json,http://54.235.29.9/FacialAge/BNav_EC2/DepthDuration/v2_depth_duration_MTurk/v2_DepthDuration_HTML.html#101,101,1920,929,1920,1080,8-21-2022,6-36-59,58,depth_duration_stimuli/001199_2014-06-17_16-03-48_260595134347_rgbf000077-resize_0/001199_2014-06-17_16-03-48_260595134347_rgbf000077-resize_0-target.png,125,3.4375,8,3574,123,feet,jsons/VE125_randls_11.json,559903,753393,58,Man
58,165253,DepthScenes,duration_manipulation_targetAtFixation,jsons/VE125_randls_11.json,http://54.235.29.9/FacialAge/BNav_EC2/DepthDuration/v2_depth_duration_MTurk/v2_DepthDuration_HTML.html#101,101,1920,929,1920,1080,8-21-2022,6-36-59,59,depth_duration_stimuli/000502_2014-06-08_23-02-32_260595134347_rgbf000063-resize_4/000502_2014-06-08_23-02-32_260595134347_rgbf000063-resize_4-target.png,125,2.431,6,3297,119,feet,jsons/VE125_randls_11.json,559903,753393,58,Man
59,165253,DepthScenes,duration_manipulation_targetAtFixation,jsons/VE125_randls_11.json,http://54.235.29.9/FacialAge/BNav_EC2/DepthDuration/v2_depth_duration_MTurk/v2_DepthDuration_HTML.html#101,101,1920,929,1920,1080,8-21-2022,6-36-59,60,depth_duration_stimuli/001016_2014-06-09_16-16-10_260595134347_rgbf000112-resize_5/001016_2014-06-09_16-16-10_260595134347_rgbf000112-resize_5-target.png,125,1.6565,5,2867,125,feet,jsons/VE125_randls_11.json,559903,753393,58,Man
60,165253,DepthScenes,duration_manipulation_targetAtFixation,jsons/VE125_randls_11.json,http://54.235.29.9/FacialAge/BNav_EC2/DepthDuration/v2_depth_duration_MTurk/v2_DepthDuration_HTML.html#101,101,1920,929,1920,1080,8-21-2022,6-36-59,61,depth_duration_stimuli/002340_2014-06-28_20-05-46_260595134347_rgbf000113-resize_0/002340_2014-06-28_20-05-46_260595134347_rgbf000113-resize_0-target.png,125,2.4735,8,2520,124,feet,jsons/VE125_randls_11.json,559903,753393,58,Man
61,165253,DepthScenes,duration_manipulation_targetAtFixation,jsons/VE125_randls_11.json,http://54.235.29.9/FacialAge/BNav_EC2/DepthDuration/v2_depth_duration_MTurk/v2_DepthDuration_HTML.html#101,101,1920,929,1920,1080,8-21-2022,6-36-59,62,depth_duration_stimuli/000469_2014-06-09_19-42-10_260595134347_rgbf000081-resize_1/000469_2014-06-09_19-42-10_260595134347_rgbf000081-resize_1-target.png,125,1.652,3,2508,139,feet,jsons/VE125_randls_11.json,559903,753393,58,Man
62,165253,DepthScenes,duration_manipulation_targetAtFixation,jsons/VE125_randls_11.json,http://54.235.29.9/FacialAge/BNav_EC2/DepthDuration/v2_depth_duration_MTurk/v2_DepthDuration_HTML.html#101,101,1920,929,1920,1080,8-21-2022,6-36-59,63,depth_duration_stimuli/000483_2014-06-09_20-41-45_260595134347_rgbf000116-resize_4/000483_2014-06-09_20-41-45_260595134347_rgbf000116-resize_4-target.png,125,1.337,2,2254,123,feet,jsons/VE125_randls_11.json,559903,753393,58,Man
63,165253,DepthScenes,duration_manipulation_targetAtFixation,jsons/VE125_randls_11.json,http://54.235.29.9/FacialAge/BNav_EC2/DepthDuration/v2_depth_duration_MTurk/v2_DepthDuration_HTML.html#101,101,1920,929,1920,1080,8-21-2022,6-36-59,64,depth_duration_stimuli/002570_2014-06-24_13-59-54_094959634447_rgbf000059-resize_0/002570_2014-06-24_13-59-54_094959634447_rgbf000059-resize_0-target.png,125,4.037,8,2247,124,feet,jsons/VE125_randls_11.json,559903,753393,58,Man
64,165253,DepthScenes,duration_manipulation_targetAtFixation,jsons/VE125_randls_11.json,http://54.235.29.9/FacialAge/BNav_EC2/DepthDuration/v2_depth_duration_MTurk/v2_DepthDuration_HTML.html#101,101,1920,929,1920,1080,8-21-2022,6-36-59,65,depth_duration_stimuli/002467_2014-06-28_20-38-07_260595134347_rgbf000026-resize_2/002467_2014-06-28_20-38-07_260595134347_rgbf000026-resize_2-target.png,125,4.742,9,2185,137,feet,jsons/VE125_randls_11.json,559903,753393,58,Man
65,165253,DepthScenes,duration_manipulation_targetAtFixation,jsons/VE125_randls_11.json,http://54.235.29.9/FacialAge/BNav_EC2/DepthDuration/v2_depth_duration_MTurk/v2_DepthDuration_HTML.html#101,101,1920,929,1920,1080,8-21-2022,6-36-59,66,depth_duration_stimuli/001222_2014-06-17_16-24-06_260595134347_rgbf000073-resize_0/001222_2014-06-17_16-24-06_260595134347_rgbf000073-resize-original.jpg,125,1.4385,0,3064,124,feet,jsons/VE125_randls_11.json,559903,753393,58,Man
66,165253,DepthScenes,duration_manipulation_targetAtFixation,jsons/VE125_randls_11.json,http://54.235.29.9/FacialAge/BNav_EC2/DepthDuration/v2_depth_duration_MTurk/v2_DepthDuration_HTML.html#101,101,1920,929,1920,1080,8-21-2022,6-36-59,67,depth_duration_stimuli/001066_2014-06-08_22-03-20_260595134347_rgbf000066-resize_4/001066_2014-06-08_22-03-20_260595134347_rgbf000066-resize_4-target.png,125,4.2330000000000005,8,2241,125,feet,jsons/VE125_randls_11.json,559903,753393,58,Man
67,165253,DepthScenes,duration_manipulation_targetAtFixation,jsons/VE125_randls_11.json,http://54.235.29.9/FacialAge/BNav_EC2/DepthDuration/v2_depth_duration_MTurk/v2_DepthDuration_HTML.html#101,101,1920,929,1920,1080,8-21-2022,6-36-59,68,depth_duration_stimuli/000742_2014-06-08_18-48-09_260595134347_rgbf000164-resize_4/000742_2014-06-08_18-48-09_260595134347_rgbf000164-resize_4-target.png,125,4.632,7,2268,125,feet,jsons/VE125_randls_11.json,559903,753393,58,Man
68,165253,DepthScenes,duration_manipulation_targetAtFixation,jsons/VE125_randls_11.json,http://54.235.29.9/FacialAge/BNav_EC2/DepthDuration/v2_depth_duration_MTurk/v2_DepthDuration_HTML.html#101,101,1920,929,1920,1080,8-21-2022,6-36-59,69,depth_duration_stimuli/000436_2014-06-09_22-25-11_260595134347_rgbf000137-resize_1/000436_2014-06-09_22-25-11_260595134347_rgbf000137-resize_1-target.png,125,4.0705,11,2552,124,feet,jsons/VE125_randls_11.json,559903,753393,58,Man
69,165253,DepthScenes,duration_manipulation_targetAtFixation,jsons/VE125_randls_11.json,http://54.235.29.9/FacialAge/BNav_EC2/DepthDuration/v2_depth_duration_MTurk/v2_DepthDuration_HTML.html#101,101,1920,929,1920,1080,8-21-2022,6-36-59,70,depth_duration_stimuli/002444_2014-06-28_20-32-08_260595134347_rgbf000027-resize_0/002444_2014-06-28_20-32-08_260595134347_rgbf000027-resize_0-target.png,125,4.388999999999999,9,2412,124,feet,jsons/VE125_randls_11.json,559903,753393,58,Man
70,165253,DepthScenes,duration_manipulation_targetAtFixation,jsons/VE125_randls_11.json,http://54.235.29.9/FacialAge/BNav_EC2/DepthDuration/v2_depth_duration_MTurk/v2_DepthDuration_HTML.html#101,101,1920,929,1920,1080,8-21-2022,6-36-59,71,depth_duration_stimuli/001056_2014-06-08_18-46-44_260595134347_rgbf000068-resize_0/001056_2014-06-08_18-46-44_260595134347_rgbf000068-resize_0-target.png,125,2.6625,0,7969,125,feet,jsons/VE125_randls_11.json,559903,753393,58,Man
71,165253,DepthScenes,duration_manipulation_targetAtFixation,jsons/VE125_randls_11.json,http://54.235.29.9/FacialAge/BNav_EC2/DepthDuration/v2_depth_duration_MTurk/v2_DepthDuration_HTML.html#101,101,1920,929,1920,1080,8-21-2022,6-36-59,72,depth_duration_stimuli/002199_2014-06-28_18-33-56_260595134347_rgbf000074-resize_0/002199_2014-06-28_18-33-56_260595134347_rgbf000074-resize_0-target.png,125,1.996,3,2950,140,feet,jsons/VE125_randls_11.json,559903,753393,58,Man
72,165253,DepthScenes,duration_manipulation_targetAtFixation,jsons/VE125_randls_11.json,http://54.235.29.9/FacialAge/BNav_EC2/DepthDuration/v2_depth_duration_MTurk/v2_DepthDuration_HTML.html#101,101,1920,929,1920,1080,8-21-2022,6-36-59,73,depth_duration_stimuli/001164_2014-06-17_15-35-46_260595134347_rgbf000085-resize_3/001164_2014-06-17_15-35-46_260595134347_rgbf000085-resize_3-target.png,125,2.354,8,2495,124,feet,jsons/VE125_randls_11.json,559903,753393,58,Man
73,165253,DepthScenes,duration_manipulation_targetAtFixation,jsons/VE125_randls_11.json,http://54.235.29.9/FacialAge/BNav_EC2/DepthDuration/v2_depth_duration_MTurk/v2_DepthDuration_HTML.html#101,101,1920,929,1920,1080,8-21-2022,6-36-59,74,depth_duration_stimuli/001136_2014-06-17_15-19-41_260595134347_rgbf000076-resize_3/001136_2014-06-17_15-19-41_260595134347_rgbf000076-resize_3-target.png,125,1.8655,8,2898,125,feet,jsons/VE125_randls_11.json,559903,753393,58,Man
74,165253,DepthScenes,duration_manipulation_targetAtFixation,jsons/VE125_randls_11.json,http://54.235.29.9/FacialAge/BNav_EC2/DepthDuration/v2_depth_duration_MTurk/v2_DepthDuration_HTML.html#101,101,1920,929,1920,1080,8-21-2022,6-36-59,75,depth_duration_stimuli/003492_2014-05-21_15-50-55_094959634447_rgbf000828-resize_1/003492_2014-05-21_15-50-55_094959634447_rgbf000828-resize_1-target.png,125,4.06875,11,4193,124,feet,jsons/VE125_randls_11.json,559903,753393,58,Man
75,165253,DepthScenes,duration_manipulation_targetAtFixation,jsons/VE125_randls_11.json,http://54.235.29.9/FacialAge/BNav_EC2/DepthDuration/v2_depth_duration_MTurk/v2_DepthDuration_HTML.html#101,101,1920,929,1920,1080,8-21-2022,6-36-59,76,depth_duration_stimuli/002568_2014-06-24_13-59-21_094959634447_rgbf000062-resize_4/002568_2014-06-24_13-59-21_094959634447_rgbf000062-resize_4-target.png,125,3.015,9,3595,110,feet,jsons/VE125_randls_11.json,559903,753393,58,Man
76,165253,DepthScenes,duration_manipulation_targetAtFixation,jsons/VE125_randls_11.json,http://54.235.29.9/FacialAge/BNav_EC2/DepthDuration/v2_depth_duration_MTurk/v2_DepthDuration_HTML.html#101,101,1920,929,1920,1080,8-21-2022,6-36-59,77,depth_duration_stimuli/002748_2014-06-22_19-07-22_094959634447_rgbf000078-resize_1/002748_2014-06-22_19-07-22_094959634447_rgbf000078-resize_1-target.png,125,4.6705,15,3000,123,feet,jsons/VE125_randls_11.json,559903,753393,58,Man
77,165253,DepthScenes,duration_manipulation_targetAtFixation,jsons/VE125_randls_11.json,http://54.235.29.9/FacialAge/BNav_EC2/DepthDuration/v2_depth_duration_MTurk/v2_DepthDuration_HTML.html#101,101,1920,929,1920,1080,8-21-2022,6-36-59,78,depth_duration_stimuli/002995_2014-06-15_12-31-26_094959634447_rgbf000150-resize_1/002995_2014-06-15_12-31-26_094959634447_rgbf000150-resize_1-target.png,125,3.8360000000000003,9,2695,124,feet,jsons/VE125_randls_11.json,559903,753393,58,Man
78,165253,DepthScenes,duration_manipulation_targetAtFixation,jsons/VE125_randls_11.json,http://54.235.29.9/FacialAge/BNav_EC2/DepthDuration/v2_depth_duration_MTurk/v2_DepthDuration_HTML.html#101,101,1920,929,1920,1080,8-21-2022,6-36-59,79,depth_duration_stimuli/002988_2014-06-15_12-24-20_094959634447_rgbf000150-resize_1/002988_2014-06-15_12-24-20_094959634447_rgbf000150-resize_1-target.png,125,4.7669999999999995,12,2635,124,feet,jsons/VE125_randls_11.json,559903,753393,58,Man
79,165253,DepthScenes,duration_manipulation_targetAtFixation,jsons/VE125_randls_11.json,http://54.235.29.9/FacialAge/BNav_EC2/DepthDuration/v2_depth_duration_MTurk/v2_DepthDuration_HTML.html#101,101,1920,929,1920,1080,8-21-2022,6-36-59,80,depth_duration_stimuli/001052_2014-06-08_18-24-54_260595134347_rgbf000130-resize_1/001052_2014-06-08_18-24-54_260595134347_rgbf000130-resize_1-target.png,125,4.1045,13,2763,122,feet,jsons/VE125_randls_11.json,559903,753393,58,Man
80,165253,DepthScenes,duration_manipulation_targetAtFixation,jsons/VE125_randls_11.json,http://54.235.29.9/FacialAge/BNav_EC2/DepthDuration/v2_depth_duration_MTurk/v2_DepthDuration_HTML.html#101,101,1920,929,1920,1080,8-21-2022,6-36-59,81,depth_duration_stimuli/001808_2014-06-26_20-50-58_260595134347_rgbf000029-resize_1/001808_2014-06-26_20-50-58_260595134347_rgbf000029-resize_1-target.png,125,4.249,19,2991,124,feet,jsons/VE125_randls_11.json,559903,753393,58,Man
81,165253,DepthScenes,duration_manipulation_targetAtFixation,jsons/VE125_randls_11.json,http://54.235.29.9/FacialAge/BNav_EC2/DepthDuration/v2_depth_duration_MTurk/v2_DepthDuration_HTML.html#101,101,1920,929,1920,1080,8-21-2022,6-36-59,82,depth_duration_stimuli/001815_2014-06-26_20-52-55_260595134347_rgbf000020-resize_0/001815_2014-06-26_20-52-55_260595134347_rgbf000020-resize_0-target.png,125,3.3865,18,3150,138,feet,jsons/VE125_randls_11.json,559903,753393,58,Man
82,165253,DepthScenes,duration_manipulation_targetAtFixation,jsons/VE125_randls_11.json,http://54.235.29.9/FacialAge/BNav_EC2/DepthDuration/v2_depth_duration_MTurk/v2_DepthDuration_HTML.html#101,101,1920,929,1920,1080,8-21-2022,6-36-59,83,depth_duration_stimuli/001806_2014-06-26_20-50-20_260595134347_rgbf000091-resize_1/001806_2014-06-26_20-50-20_260595134347_rgbf000091-resize_1-target.png,125,2.7305,3,2769,124,feet,jsons/VE125_randls_11.json,559903,753393,58,Man
83,165253,DepthScenes,duration_manipulation_targetAtFixation,jsons/VE125_randls_11.json,http://54.235.29.9/FacialAge/BNav_EC2/DepthDuration/v2_depth_duration_MTurk/v2_DepthDuration_HTML.html#101,101,1920,929,1920,1080,8-21-2022,6-36-59,84,depth_duration_stimuli/001617_2014-06-20_11-35-32_260595134347_rgbf000066-resize_1/001617_2014-06-20_11-35-32_260595134347_rgbf000066-resize_1-target.png,125,3.7910000000000004,11,2273,128,feet,jsons/VE125_randls_11.json,559903,753393,58,Man
84,165253,DepthScenes,duration_manipulation_targetAtFixation,jsons/VE125_randls_11.json,http://54.235.29.9/FacialAge/BNav_EC2/DepthDuration/v2_depth_duration_MTurk/v2_DepthDuration_HTML.html#101,101,1920,929,1920,1080,8-21-2022,6-36-59,85,depth_duration_stimuli/000758_2014-06-08_22-05-08_260595134347_rgbf000085-resize_0/000758_2014-06-08_22-05-08_260595134347_rgbf000085-resize_0-target.png,125,3.3810000000000002,9,2696,123,feet,jsons/VE125_randls_11.json,559903,753393,58,Man
85,165253,DepthScenes,duration_manipulation_targetAtFixation,jsons/VE125_randls_11.json,http://54.235.29.9/FacialAge/BNav_EC2/DepthDuration/v2_depth_duration_MTurk/v2_DepthDuration_HTML.html#101,101,1920,929,1920,1080,8-21-2022,6-36-59,86,depth_duration_stimuli/000854_2014-06-09_19-43-13_260595134347_rgbf000066-resize_0/000854_2014-06-09_19-43-13_260595134347_rgbf000066-resize_0-target.png,125,3.068,8,3026,125,feet,jsons/VE125_randls_11.json,559903,753393,58,Man
86,165253,DepthScenes,duration_manipulation_targetAtFixation,jsons/VE125_randls_11.json,http://54.235.29.9/FacialAge/BNav_EC2/DepthDuration/v2_depth_duration_MTurk/v2_DepthDuration_HTML.html#101,101,1920,929,1920,1080,8-21-2022,6-36-59,87,depth_duration_stimuli/002600_2014-06-24_14-27-04_094959634447_rgbf000074-resize_2/002600_2014-06-24_14-27-04_094959634447_rgbf000074-resize_2-target.png,125,2.7575,9,3396,126,feet,jsons/VE125_randls_11.json,559903,753393,58,Man
87,165253,DepthScenes,duration_manipulation_targetAtFixation,jsons/VE125_randls_11.json,http://54.235.29.9/FacialAge/BNav_EC2/DepthDuration/v2_depth_duration_MTurk/v2_DepthDuration_HTML.html#101,101,1920,929,1920,1080,8-21-2022,6-36-59,88,depth_duration_stimuli/003228_2014-05-14_13-42-35_094959634447_rgbf000101-resize_1/003228_2014-05-14_13-42-35_094959634447_rgbf000101-resize_1-target.png,125,1.9680000000000002,8,4849,126,feet,jsons/VE125_randls_11.json,559903,753393,58,Man
88,165253,DepthScenes,duration_manipulation_targetAtFixation,jsons/VE125_randls_11.json,http://54.235.29.9/FacialAge/BNav_EC2/DepthDuration/v2_depth_duration_MTurk/v2_DepthDuration_HTML.html#101,101,1920,929,1920,1080,8-21-2022,6-36-59,89,depth_duration_stimuli/001244_2014-06-17_16-47-45_260595134347_rgbf000030-resize_4/001244_2014-06-17_16-47-45_260595134347_rgbf000030-resize_4-target.png,125,2.0425,6,5607,139,feet,jsons/VE125_randls_11.json,559903,753393,58,Man
89,165253,DepthScenes,duration_manipulation_targetAtFixation,jsons/VE125_randls_11.json,http://54.235.29.9/FacialAge/BNav_EC2/DepthDuration/v2_depth_duration_MTurk/v2_DepthDuration_HTML.html#101,101,1920,929,1920,1080,8-21-2022,6-36-59,90,depth_duration_stimuli/003495_2014-05-21_16-01-51_094959634447_rgbf000100-resize_3/003495_2014-05-21_16-01-51_094959634447_rgbf000100-resize_3-target.png,125,1.6255,5,2366,125,feet,jsons/VE125_randls_11.json,559903,753393,58,Man
90,165253,DepthScenes,duration_manipulation_targetAtFixation,jsons/VE125_randls_11.json,http://54.235.29.9/FacialAge/BNav_EC2/DepthDuration/v2_depth_duration_MTurk/v2_DepthDuration_HTML.html#101,101,1920,929,1920,1080,8-21-2022,6-36-59,91,depth_duration_stimuli/000506_2014-06-08_23-21-00_260595134347_rgbf000070-resize_7/000506_2014-06-08_23-21-00_260595134347_rgbf000070-resize_7-target.png,125,4.0585,8,2481,125,feet,jsons/VE125_randls_11.json,559903,753393,58,Man
91,165253,DepthScenes,duration_manipulation_targetAtFixation,jsons/VE125_randls_11.json,http://54.235.29.9/FacialAge/BNav_EC2/DepthDuration/v2_depth_duration_MTurk/v2_DepthDuration_HTML.html#101,101,1920,929,1920,1080,8-21-2022,6-36-59,92,depth_duration_stimuli/003079_2014-06-15_15-18-20_094959634447_rgbf000152-resize_8/003079_2014-06-15_15-18-20_094959634447_rgbf000152-resize_8-target.png,125,2.8775,19,3499,139,feet,jsons/VE125_randls_11.json,559903,753393,58,Man
92,165253,DepthScenes,duration_manipulation_targetAtFixation,jsons/VE125_randls_11.json,http://54.235.29.9/FacialAge/BNav_EC2/DepthDuration/v2_depth_duration_MTurk/v2_DepthDuration_HTML.html#101,101,1920,929,1920,1080,8-21-2022,6-36-59,93,depth_duration_stimuli/002989_2014-06-15_12-25-03_094959634447_rgbf000150-resize_3/002989_2014-06-15_12-25-03_094959634447_rgbf000150-resize_3-target.png,125,4.1975,17,3175,124,feet,jsons/VE125_randls_11.json,559903,753393,58,Man
93,165253,DepthScenes,duration_manipulation_targetAtFixation,jsons/VE125_randls_11.json,http://54.235.29.9/FacialAge/BNav_EC2/DepthDuration/v2_depth_duration_MTurk/v2_DepthDuration_HTML.html#101,101,1920,929,1920,1080,8-21-2022,6-36-59,94,depth_duration_stimuli/000866_2014-06-09_20-45-42_260595134347_rgbf000139-resize_1/000866_2014-06-09_20-45-42_260595134347_rgbf000139-resize_1-target.png,125,3.2155,12,2425,124,feet,jsons/VE125_randls_11.json,559903,753393,58,Man
94,165253,DepthScenes,duration_manipulation_targetAtFixation,jsons/VE125_randls_11.json,http://54.235.29.9/FacialAge/BNav_EC2/DepthDuration/v2_depth_duration_MTurk/v2_DepthDuration_HTML.html#101,101,1920,929,1920,1080,8-21-2022,6-36-59,95,depth_duration_stimuli/001029_2014-06-08_13-17-57_260595134347_rgbf000065-resize_1/001029_2014-06-08_13-17-57_260595134347_rgbf000065-resize_1-target.png,125,3.0835,11,2362,124,feet,jsons/VE125_randls_11.json,559903,753393,58,Man
95,165253,DepthScenes,duration_manipulation_targetAtFixation,jsons/VE125_randls_11.json,http://54.235.29.9/FacialAge/BNav_EC2/DepthDuration/v2_depth_duration_MTurk/v2_DepthDuration_HTML.html#101,101,1920,929,1920,1080,8-21-2022,6-36-59,96,depth_duration_stimuli/000677_2014-06-08_23-10-32_260595134347_rgbf000158-resize_6/000677_2014-06-08_23-10-32_260595134347_rgbf000158-resize_6-target.png,125,3.556,13,2931,124,feet,jsons/VE125_randls_11.json,559903,753393,58,Man
96,165253,DepthScenes,duration_manipulation_targetAtFixation,jsons/VE125_randls_11.json,http://54.235.29.9/FacialAge/BNav_EC2/DepthDuration/v2_depth_duration_MTurk/v2_DepthDuration_HTML.html#101,101,1920,929,1920,1080,8-21-2022,6-36-59,97,depth_duration_stimuli/002549_2014-06-24_13-41-39_094959634447_rgbf000022-resize_3/002549_2014-06-24_13-41-39_094959634447_rgbf000022-resize_3-target.png,125,1.476,6,2236,122,feet,jsons/VE125_randls_11.json,559903,753393,58,Man
97,165253,DepthScenes,duration_manipulation_targetAtFixation,jsons/VE125_randls_11.json,http://54.235.29.9/FacialAge/BNav_EC2/DepthDuration/v2_depth_duration_MTurk/v2_DepthDuration_HTML.html#101,101,1920,929,1920,1080,8-21-2022,6-36-59,98,depth_duration_stimuli/002750_2014-06-22_19-08-03_094959634447_rgbf000094-resize_4/002750_2014-06-22_19-08-03_094959634447_rgbf000094-resize_4-target.png,125,2.354,18,3091,124,feet,jsons/VE125_randls_11.json,559903,753393,58,Man
98,165253,DepthScenes,duration_manipulation_targetAtFixation,jsons/VE125_randls_11.json,http://54.235.29.9/FacialAge/BNav_EC2/DepthDuration/v2_depth_duration_MTurk/v2_DepthDuration_HTML.html#101,101,1920,929,1920,1080,8-21-2022,6-36-59,99,depth_duration_stimuli/001540_2014-06-20_17-01-05_260595134347_rgbf000086-resize_2/001540_2014-06-20_17-01-05_260595134347_rgbf000086-resize-original.jpg,125,1.459,0,2368,123,feet,jsons/VE125_randls_11.json,559903,753393,58,Man
99,165253,DepthScenes,duration_manipulation_targetAtFixation,jsons/VE125_randls_11.json,http://54.235.29.9/FacialAge/BNav_EC2/DepthDuration/v2_depth_duration_MTurk/v2_DepthDuration_HTML.html#101,101,1920,929,1920,1080,8-21-2022,6-36-59,100,depth_duration_stimuli/001417_2014-06-19_16-25-36_260595134347_rgbf000115-resize_5/001417_2014-06-19_16-25-36_260595134347_rgbf000115-resize_5-target.png,125,4.6255,11,4447,125,feet,jsons/VE125_randls_11.json,559903,753393,58,Man
100,165253,DepthScenes,duration_manipulation_targetAtFixation,jsons/VE125_randls_11.json,http://54.235.29.9/FacialAge/BNav_EC2/DepthDuration/v2_depth_duration_MTurk/v2_DepthDuration_HTML.html#101,101,1920,929,1920,1080,8-21-2022,6-36-59,101,depth_duration_stimuli/003081_2014-06-15_15-19-16_094959634447_rgbf000150-resize_1/003081_2014-06-15_15-19-16_094959634447_rgbf000150-resize_1-target.png,125,3.9125,9,3132,123,feet,jsons/VE125_randls_11.json,559903,753393,58,Man
101,165253,DepthScenes,duration_manipulation_targetAtFixation,jsons/VE125_randls_11.json,http://54.235.29.9/FacialAge/BNav_EC2/DepthDuration/v2_depth_duration_MTurk/v2_DepthDuration_HTML.html#101,101,1920,929,1920,1080,8-21-2022,6-36-59,102,depth_duration_stimuli/000522_2014-06-08_13-35-06_260595134347_rgbf000244-resize_1/000522_2014-06-08_13-35-06_260595134347_rgbf000244-resize_1-target.png,125,2.3715,5,2284,124,feet,jsons/VE125_randls_11.json,559903,753393,58,Man
102,165253,DepthScenes,duration_manipulation_targetAtFixation,jsons/VE125_randls_11.json,http://54.235.29.9/FacialAge/BNav_EC2/DepthDuration/v2_depth_duration_MTurk/v2_DepthDuration_HTML.html#101,101,1920,929,1920,1080,8-21-2022,6-36-59,103,depth_duration_stimuli/002949_2014-06-26_15-57-42_094959634447_rgbf000079-resize_1/002949_2014-06-26_15-57-42_094959634447_rgbf000079-resize_1-target.png,125,1.8915,6,2638,125,feet,jsons/VE125_randls_11.json,559903,753393,58,Man
103,165253,DepthScenes,duration_manipulation_targetAtFixation,jsons/VE125_randls_11.json,http://54.235.29.9/FacialAge/BNav_EC2/DepthDuration/v2_depth_duration_MTurk/v2_DepthDuration_HTML.html#101,101,1920,929,1920,1080,8-21-2022,6-36-59,104,depth_duration_stimuli/002375_2014-06-28_20-13-44_260595134347_rgbf000032-resize_1/002375_2014-06-28_20-13-44_260595134347_rgbf000032-resize_1-target.png,125,4.0175,8,3088,124,feet,jsons/VE125_randls_11.json,559903,753393,58,Man
104,165253,DepthScenes,duration_manipulation_targetAtFixation,jsons/VE125_randls_11.json,http://54.235.29.9/FacialAge/BNav_EC2/DepthDuration/v2_depth_duration_MTurk/v2_DepthDuration_HTML.html#101,101,1920,929,1920,1080,8-21-2022,6-36-59,105,depth_duration_stimuli/002657_2014-06-13_15-29-54_094959634447_rgbf000150-resize_1/002657_2014-06-13_15-29-54_094959634447_rgbf000150-resize_1-target.png,125,4.919,8,2814,123,feet,jsons/VE125_randls_11.json,559903,753393,58,Man
105,165253,DepthScenes,duration_manipulation_targetAtFixation,jsons/VE125_randls_11.json,http://54.235.29.9/FacialAge/BNav_EC2/DepthDuration/v2_depth_duration_MTurk/v2_DepthDuration_HTML.html#101,101,1920,929,1920,1080,8-21-2022,6-36-59,106,depth_duration_stimuli/002213_2014-06-28_18-37-58_260595134347_rgbf000055-resize_1/002213_2014-06-28_18-37-58_260595134347_rgbf000055-resize_1-target.png,125,3.62,12,2837,127,feet,jsons/VE125_randls_11.json,559903,753393,58,Man
106,165253,DepthScenes,duration_manipulation_targetAtFixation,jsons/VE125_randls_11.json,http://54.235.29.9/FacialAge/BNav_EC2/DepthDuration/v2_depth_duration_MTurk/v2_DepthDuration_HTML.html#101,101,1920,929,1920,1080,8-21-2022,6-36-59,107,depth_duration_stimuli/000691_2014-06-08_13-08-50_260595134347_rgbf000132-resize_3/000691_2014-06-08_13-08-50_260595134347_rgbf000132-resize_3-target.png,125,4.1530000000000005,17,4347,138,feet,jsons/VE125_randls_11.json,559903,753393,58,Man
107,165253,DepthScenes,duration_manipulation_targetAtFixation,jsons/VE125_randls_11.json,http://54.235.29.9/FacialAge/BNav_EC2/DepthDuration/v2_depth_duration_MTurk/v2_DepthDuration_HTML.html#101,101,1920,929,1920,1080,8-21-2022,6-36-59,108,depth_duration_stimuli/001570_2014-06-20_17-21-09_260595134347_rgbf000135-resize_4/001570_2014-06-20_17-21-09_260595134347_rgbf000135-resize_4-target.png,125,4.467,12,2961,110,feet,jsons/VE125_randls_11.json,559903,753393,58,Man
108,165253,DepthScenes,duration_manipulation_targetAtFixation,jsons/VE125_randls_11.json,http://54.235.29.9/FacialAge/BNav_EC2/DepthDuration/v2_depth_duration_MTurk/v2_DepthDuration_HTML.html#101,101,1920,929,1920,1080,8-21-2022,6-36-59,109,depth_duration_stimuli/001392_2014-06-19_16-07-59_260595134347_rgbf000046-resize_1/001392_2014-06-19_16-07-59_260595134347_rgbf000046-resize_1-target.png,125,4.135,17,2598,130,feet,jsons/VE125_randls_11.json,559903,753393,58,Man
109,165253,DepthScenes,duration_manipulation_targetAtFixation,jsons/VE125_randls_11.json,http://54.235.29.9/FacialAge/BNav_EC2/DepthDuration/v2_depth_duration_MTurk/v2_DepthDuration_HTML.html#101,101,1920,929,1920,1080,8-21-2022,6-36-59,110,depth_duration_stimuli/001150_2014-06-17_15-27-34_260595134347_rgbf000108-resize_2/001150_2014-06-17_15-27-34_260595134347_rgbf000108-resize_2-target.png,125,4.0325,18,2751,135,feet,jsons/VE125_randls_11.json,559903,753393,58,Man
110,165253,DepthScenes,duration_manipulation_targetAtFixation,jsons/VE125_randls_11.json,http://54.235.29.9/FacialAge/BNav_EC2/DepthDuration/v2_depth_duration_MTurk/v2_DepthDuration_HTML.html#101,101,1920,929,1920,1080,8-21-2022,6-36-59,111,depth_duration_stimuli/000665_2014-06-09_20-42-35_260595134347_rgbf000110-resize_1/000665_2014-06-09_20-42-35_260595134347_rgbf000110-resize_1-target.png,125,3.057,10,2868,124,feet,jsons/VE125_randls_11.json,559903,753393,58,Man
111,165253,DepthScenes,duration_manipulation_targetAtFixation,jsons/VE125_randls_11.json,http://54.235.29.9/FacialAge/BNav_EC2/DepthDuration/v2_depth_duration_MTurk/v2_DepthDuration_HTML.html#101,101,1920,929,1920,1080,8-21-2022,6-36-59,112,depth_duration_stimuli/001133_2014-06-17_14-49-16_260595134347_rgbf000100-resize_0/001133_2014-06-17_14-49-16_260595134347_rgbf000100-resize_0-target.png,125,4.2115,9,2370,124,feet,jsons/VE125_randls_11.json,559903,753393,58,Man
112,165253,DepthScenes,duration_manipulation_targetAtFixation,jsons/VE125_randls_11.json,http://54.235.29.9/FacialAge/BNav_EC2/DepthDuration/v2_depth_duration_MTurk/v2_DepthDuration_HTML.html#101,101,1920,929,1920,1080,8-21-2022,6-36-59,113,depth_duration_stimuli/001132_2014-06-17_14-48-54_260595134347_rgbf000100-resize_2/001132_2014-06-17_14-48-54_260595134347_rgbf000100-resize_2-target.png,125,3.753,12,2549,126,feet,jsons/VE125_randls_11.json,559903,753393,58,Man
113,165253,DepthScenes,duration_manipulation_targetAtFixation,jsons/VE125_randls_11.json,http://54.235.29.9/FacialAge/BNav_EC2/DepthDuration/v2_depth_duration_MTurk/v2_DepthDuration_HTML.html#101,101,1920,929,1920,1080,8-21-2022,6-36-59,114,depth_duration_stimuli/001011_2014-06-08_23-18-54_260595134347_rgbf000044-resize_4/001011_2014-06-08_23-18-54_260595134347_rgbf000044-resize_4-target.png,125,2.4730000000000003,15,3277,123,feet,jsons/VE125_randls_11.json,559903,753393,58,Man
114,165253,DepthScenes,duration_manipulation_targetAtFixation,jsons/VE125_randls_11.json,http://54.235.29.9/FacialAge/BNav_EC2/DepthDuration/v2_depth_duration_MTurk/v2_DepthDuration_HTML.html#101,101,1920,929,1920,1080,8-21-2022,6-36-59,115,depth_duration_stimuli/002875_2014-06-01_15-19-00_094959634447_rgbf000151-resize_1/002875_2014-06-01_15-19-00_094959634447_rgbf000151-resize_1-target.png,125,1.9675,16,3428,123,feet,jsons/VE125_randls_11.json,559903,753393,58,Man
115,165253,DepthScenes,duration_manipulation_targetAtFixation,jsons/VE125_randls_11.json,http://54.235.29.9/FacialAge/BNav_EC2/DepthDuration/v2_depth_duration_MTurk/v2_DepthDuration_HTML.html#101,101,1920,929,1920,1080,8-21-2022,6-36-59,116,depth_duration_stimuli/001170_2014-06-17_15-43-44_260595134347_rgbf000096-resize_6/001170_2014-06-17_15-43-44_260595134347_rgbf000096-resize-original.jpg,125,1.1909999999999998,6,3425,124,feet,jsons/VE125_randls_11.json,559903,753393,58,Man
116,165253,DepthScenes,duration_manipulation_targetAtFixation,jsons/VE125_randls_11.json,http://54.235.29.9/FacialAge/BNav_EC2/DepthDuration/v2_depth_duration_MTurk/v2_DepthDuration_HTML.html#101,101,1920,929,1920,1080,8-21-2022,6-36-59,117,depth_duration_stimuli/002784_2014-06-22_19-26-30_094959634447_rgbf000083-resize_3/002784_2014-06-22_19-26-30_094959634447_rgbf000083-resize_3-target.png,125,1.8046666666667,8,3533,123,feet,jsons/VE125_randls_11.json,559903,753393,58,Man
117,165253,DepthScenes,duration_manipulation_targetAtFixation,jsons/VE125_randls_11.json,http://54.235.29.9/FacialAge/BNav_EC2/DepthDuration/v2_depth_duration_MTurk/v2_DepthDuration_HTML.html#101,101,1920,929,1920,1080,8-21-2022,6-36-59,118,depth_duration_stimuli/001100_2014-06-15_17-46-26_260595134347_rgbf000225-resize_2/001100_2014-06-15_17-46-26_260595134347_rgbf000225-resize_2-target.png,125,2.24,6,4386,123,feet,jsons/VE125_randls_11.json,559903,753393,58,Man
118,165253,DepthScenes,duration_manipulation_targetAtFixation,jsons/VE125_randls_11.json,http://54.235.29.9/FacialAge/BNav_EC2/DepthDuration/v2_depth_duration_MTurk/v2_DepthDuration_HTML.html#101,101,1920,929,1920,1080,8-21-2022,6-36-59,119,depth_duration_stimuli/000470_2014-06-09_19-42-40_260595134347_rgbf000094-resize_1/000470_2014-06-09_19-42-40_260595134347_rgbf000094-resize_1-target.png,125,1.831,4,2357,126,feet,jsons/VE125_randls_11.json,559903,753393,58,Man
119,165253,DepthScenes,duration_manipulation_targetAtFixation,jsons/VE125_randls_11.json,http://54.235.29.9/FacialAge/BNav_EC2/DepthDuration/v2_depth_duration_MTurk/v2_DepthDuration_HTML.html#101,101,1920,929,1920,1080,8-21-2022,6-36-59,120,depth_duration_stimuli/000109_2014-05-14_23-41-52_260595134347_rgbf000035-resize_9/000109_2014-05-14_23-41-52_260595134347_rgbf000035-resize_9-target.png,125,1.3545,5,2376,125,feet,jsons/VE125_randls_11.json,559903,753393,58,Man
120,165253,DepthScenes,duration_manipulation_targetAtFixation,jsons/VE125_randls_11.json,http://54.235.29.9/FacialAge/BNav_EC2/DepthDuration/v2_depth_duration_MTurk/v2_DepthDuration_HTML.html#101,101,1920,929,1920,1080,8-21-2022,6-36-59,121,depth_duration_stimuli/002663_2014-06-13_15-50-26_094959634447_rgbf000075-resize_1/002663_2014-06-13_15-50-26_094959634447_rgbf000075-resize_1-target.png,125,4.7495,5,3054,133,feet,jsons/VE125_randls_11.json,559903,753393,58,Man
121,165253,DepthScenes,duration_manipulation_targetAtFixation,jsons/VE125_randls_11.json,http://54.235.29.9/FacialAge/BNav_EC2/DepthDuration/v2_depth_duration_MTurk/v2_DepthDuration_HTML.html#101,101,1920,929,1920,1080,8-21-2022,6-36-59,122,depth_duration_stimuli/000409_2014-06-04_19-23-33_260595134347_rgbf000067-resize_0/000409_2014-06-04_19-23-33_260595134347_rgbf000067-resize_0-target.png,125,3.7335,12,2554,125,feet,jsons/VE125_randls_11.json,559903,753393,58,Man
122,165253,DepthScenes,duration_manipulation_targetAtFixation,jsons/VE125_randls_11.json,http://54.235.29.9/FacialAge/BNav_EC2/DepthDuration/v2_depth_duration_MTurk/v2_DepthDuration_HTML.html#101,101,1920,929,1920,1080,8-21-2022,6-36-59,123,depth_duration_stimuli/001158_2014-06-17_15-32-16_260595134347_rgbf000138-resize_2/001158_2014-06-17_15-32-16_260595134347_rgbf000138-resize_2-target.png,125,4.5315,18,2768,123,feet,jsons/VE125_randls_11.json,559903,753393,58,Man
123,165253,DepthScenes,duration_manipulation_targetAtFixation,jsons/VE125_randls_11.json,http://54.235.29.9/FacialAge/BNav_EC2/DepthDuration/v2_depth_duration_MTurk/v2_DepthDuration_HTML.html#101,101,1920,929,1920,1080,8-21-2022,6-36-59,124,depth_duration_stimuli/000556_2014-06-09_22-42-56_260595134347_rgbf000214-resize_1/000556_2014-06-09_22-42-56_260595134347_rgbf000214-resize_1-target.png,125,4.8415,14,2761,135,feet,jsons/VE125_randls_11.json,559903,753393,58,Man
124,165253,DepthScenes,duration_manipulation_targetAtFixation,jsons/VE125_randls_11.json,http://54.235.29.9/FacialAge/BNav_EC2/DepthDuration/v2_depth_duration_MTurk/v2_DepthDuration_HTML.html#101,101,1920,929,1920,1080,8-21-2022,6-36-59,125,depth_duration_stimuli/002763_2014-06-22_19-13-10_094959634447_rgbf000075-resize_4/002763_2014-06-22_19-13-10_094959634447_rgbf000075-resize_4-target.png,125,1.68375,12,2352,123,feet,jsons/VE125_randls_11.json,559903,753393,58,Man
125,165253,DepthScenes,duration_manipulation_targetAtFixation,jsons/VE125_randls_11.json,http://54.235.29.9/FacialAge/BNav_EC2/DepthDuration/v2_depth_duration_MTurk/v2_DepthDuration_HTML.html#101,101,1920,929,1920,1080,8-21-2022,6-36-59,126,depth_duration_stimuli/002209_2014-06-28_18-36-10_260595134347_rgbf000051-resize_1/002209_2014-06-28_18-36-10_260595134347_rgbf000051-resize_1-target.png,125,2.057,10,2599,123,feet,jsons/VE125_randls_11.json,559903,753393,58,Man
126,165253,DepthScenes,duration_manipulation_targetAtFixation,jsons/VE125_randls_11.json,http://54.235.29.9/FacialAge/BNav_EC2/DepthDuration/v2_depth_duration_MTurk/v2_DepthDuration_HTML.html#101,101,1920,929,1920,1080,8-21-2022,6-36-59,127,depth_duration_stimuli/000773_2014-06-08_22-24-54_260595134347_rgbf000093-resize_1/000773_2014-06-08_22-24-54_260595134347_rgbf000093-resize_1-target.png,125,4.973,11,2475,125,feet,jsons/VE125_randls_11.json,559903,753393,58,Man
127,165253,DepthScenes,duration_manipulation_targetAtFixation,jsons/VE125_randls_11.json,http://54.235.29.9/FacialAge/BNav_EC2/DepthDuration/v2_depth_duration_MTurk/v2_DepthDuration_HTML.html#101,101,1920,929,1920,1080,8-21-2022,6-36-59,128,depth_duration_stimuli/002414_2014-06-28_20-24-58_260595134347_rgbf000067-resize_4/002414_2014-06-28_20-24-58_260595134347_rgbf000067-resize_4-target.png,125,4.363,13,3373,122,feet,jsons/VE125_randls_11.json,559903,753393,58,Man
128,165253,DepthScenes,duration_manipulation_targetAtFixation,jsons/VE125_randls_11.json,http://54.235.29.9/FacialAge/BNav_EC2/DepthDuration/v2_depth_duration_MTurk/v2_DepthDuration_HTML.html#101,101,1920,929,1920,1080,8-21-2022,6-36-59,129,depth_duration_stimuli/000642_2014-06-08_16-59-25_260595134347_rgbf000098-resize_2/000642_2014-06-08_16-59-25_260595134347_rgbf000098-resize_2-target.png,125,2.8815,10,3576,115,feet,jsons/VE125_randls_11.json,559903,753393,58,Man
129,165253,DepthScenes,duration_manipulation_targetAtFixation,jsons/VE125_randls_11.json,http://54.235.29.9/FacialAge/BNav_EC2/DepthDuration/v2_depth_duration_MTurk/v2_DepthDuration_HTML.html#101,101,1920,929,1920,1080,8-21-2022,6-36-59,130,depth_duration_stimuli/002425_2014-06-28_20-27-29_260595134347_rgbf000031-resize_8/002425_2014-06-28_20-27-29_260595134347_rgbf000031-resize_8-target.png,125,3.8960000000000004,12,2513,125,feet,jsons/VE125_randls_11.json,559903,753393,58,Man
130,165253,DepthScenes,duration_manipulation_targetAtFixation,jsons/VE125_randls_11.json,http://54.235.29.9/FacialAge/BNav_EC2/DepthDuration/v2_depth_duration_MTurk/v2_DepthDuration_HTML.html#101,101,1920,929,1920,1080,8-21-2022,6-36-59,131,depth_duration_stimuli/003070_2014-06-15_14-58-27_094959634447_rgbf000150-resize_3/003070_2014-06-15_14-58-27_094959634447_rgbf000150-resize_3-target.png,125,2.9415,10,2576,123,feet,jsons/VE125_randls_11.json,559903,753393,58,Man
131,165253,DepthScenes,duration_manipulation_targetAtFixation,jsons/VE125_randls_11.json,http://54.235.29.9/FacialAge/BNav_EC2/DepthDuration/v2_depth_duration_MTurk/v2_DepthDuration_HTML.html#101,101,1920,929,1920,1080,8-21-2022,6-36-59,132,depth_duration_stimuli/000943_2014-06-09_19-31-07_260595134347_rgbf000128-resize_1/000943_2014-06-09_19-31-07_260595134347_rgbf000128-resize_1-target.png,125,1.9765,9,3041,124,feet,jsons/VE125_randls_11.json,559903,753393,58,Man
132,165253,DepthScenes,duration_manipulation_targetAtFixation,jsons/VE125_randls_11.json,http://54.235.29.9/FacialAge/BNav_EC2/DepthDuration/v2_depth_duration_MTurk/v2_DepthDuration_HTML.html#101,101,1920,929,1920,1080,8-21-2022,6-36-59,133,depth_duration_stimuli/002039_2014-06-24_20-22-38_260595134347_rgbf000084-resize_1/002039_2014-06-24_20-22-38_260595134347_rgbf000084-resize_1-target.png,125,4.408,10,2676,123,feet,jsons/VE125_randls_11.json,559903,753393,58,Man
133,165253,DepthScenes,duration_manipulation_targetAtFixation,jsons/VE125_randls_11.json,http://54.235.29.9/FacialAge/BNav_EC2/DepthDuration/v2_depth_duration_MTurk/v2_DepthDuration_HTML.html#101,101,1920,929,1920,1080,8-21-2022,6-36-59,134,depth_duration_stimuli/002103_2014-06-25_20-00-40_260595134347_rgbf000049-resize_0/002103_2014-06-25_20-00-40_260595134347_rgbf000049-resize_0-target.png,125,4.105,20,2544,122,feet,jsons/VE125_randls_11.json,559903,753393,58,Man
134,165253,DepthScenes,duration_manipulation_targetAtFixation,jsons/VE125_randls_11.json,http://54.235.29.9/FacialAge/BNav_EC2/DepthDuration/v2_depth_duration_MTurk/v2_DepthDuration_HTML.html#101,101,1920,929,1920,1080,8-21-2022,6-36-59,135,depth_duration_stimuli/002072_2014-06-24_21-48-06_260595134347_rgbf000115-resize_0/002072_2014-06-24_21-48-06_260595134347_rgbf000115-resize-original.jpg,125,4.702,0,2057,123,feet,jsons/VE125_randls_11.json,559903,753393,58,Man
135,165253,DepthScenes,duration_manipulation_targetAtFixation,jsons/VE125_randls_11.json,http://54.235.29.9/FacialAge/BNav_EC2/DepthDuration/v2_depth_duration_MTurk/v2_DepthDuration_HTML.html#101,101,1920,929,1920,1080,8-21-2022,6-36-59,136,depth_duration_stimuli/003621_2014-05-23_18-06-08_094959634447_rgbf000101-resize_1/003621_2014-05-23_18-06-08_094959634447_rgbf000101-resize_1-target.png,125,3.9835,13,2649,125,feet,jsons/VE125_randls_11.json,559903,753393,58,Man
136,165253,DepthScenes,duration_manipulation_targetAtFixation,jsons/VE125_randls_11.json,http://54.235.29.9/FacialAge/BNav_EC2/DepthDuration/v2_depth_duration_MTurk/v2_DepthDuration_HTML.html#101,101,1920,929,1920,1080,8-21-2022,6-36-59,137,depth_duration_stimuli/001584_2014-06-20_11-07-43_260595134347_rgbf000002-resize_1/001584_2014-06-20_11-07-43_260595134347_rgbf000002-resize_1-target.png,125,3.53,18,3057,137,feet,jsons/VE125_randls_11.json,559903,753393,58,Man
137,165253,DepthScenes,duration_manipulation_targetAtFixation,jsons/VE125_randls_11.json,http://54.235.29.9/FacialAge/BNav_EC2/DepthDuration/v2_depth_duration_MTurk/v2_DepthDuration_HTML.html#101,101,1920,929,1920,1080,8-21-2022,6-36-59,138,depth_duration_stimuli/003534_2014-05-22_15-06-10_094959634447_rgbf000102-resize_4/003534_2014-05-22_15-06-10_094959634447_rgbf000102-resize_4-target.png,125,1.426,6,2741,124,feet,jsons/VE125_randls_11.json,559903,753393,58,Man
138,165253,DepthScenes,duration_manipulation_targetAtFixation,jsons/VE125_randls_11.json,http://54.235.29.9/FacialAge/BNav_EC2/DepthDuration/v2_depth_duration_MTurk/v2_DepthDuration_HTML.html#101,101,1920,929,1920,1080,8-21-2022,6-36-59,139,depth_duration_stimuli/002637_2014-06-24_14-51-13_094959634447_rgbf000066-resize_4/002637_2014-06-24_14-51-13_094959634447_rgbf000066-resize_4-target.png,125,1.9955,8,3057,125,feet,jsons/VE125_randls_11.json,559903,753393,58,Man
139,165253,DepthScenes,duration_manipulation_targetAtFixation,jsons/VE125_randls_11.json,http://54.235.29.9/FacialAge/BNav_EC2/DepthDuration/v2_depth_duration_MTurk/v2_DepthDuration_HTML.html#101,101,1920,929,1920,1080,8-21-2022,6-36-59,140,depth_duration_stimuli/000486_2014-06-09_20-47-20_260595134347_rgbf000143-resize_2/000486_2014-06-09_20-47-20_260595134347_rgbf000143-resize_2-target.png,125,4.8325,9,3562,126,feet,jsons/VE125_randls_11.json,559903,753393,58,Man
140,165253,DepthScenes,duration_manipulation_targetAtFixation,jsons/VE125_randls_11.json,http://54.235.29.9/FacialAge/BNav_EC2/DepthDuration/v2_depth_duration_MTurk/v2_DepthDuration_HTML.html#101,101,1920,929,1920,1080,8-21-2022,6-36-59,141,depth_duration_stimuli/003083_2014-06-15_15-21-03_094959634447_rgbf000063-resize_1/003083_2014-06-15_15-21-03_094959634447_rgbf000063-resize_1-target.png,125,4.1405,13,2778,120,feet,jsons/VE125_randls_11.json,559903,753393,58,Man
141,165253,DepthScenes,duration_manipulation_targetAtFixation,jsons/VE125_randls_11.json,http://54.235.29.9/FacialAge/BNav_EC2/DepthDuration/v2_depth_duration_MTurk/v2_DepthDuration_HTML.html#101,101,1920,929,1920,1080,8-21-2022,6-36-59,142,depth_duration_stimuli/000788_2014-06-08_22-34-36_260595134347_rgbf000131-resize_1/000788_2014-06-08_22-34-36_260595134347_rgbf000131-resize_1-target.png,125,3.359,8,2933,125,feet,jsons/VE125_randls_11.json,559903,753393,58,Man
142,165253,DepthScenes,duration_manipulation_targetAtFixation,jsons/VE125_randls_11.json,http://54.235.29.9/FacialAge/BNav_EC2/DepthDuration/v2_depth_duration_MTurk/v2_DepthDuration_HTML.html#101,101,1920,929,1920,1080,8-21-2022,6-36-59,143,depth_duration_stimuli/001235_2014-06-17_16-37-36_260595134347_rgbf000084-resize_4/001235_2014-06-17_16-37-36_260595134347_rgbf000084-resize_4-target.png,125,3.6605,12,2289,125,feet,jsons/VE125_randls_11.json,559903,753393,58,Man
143,165253,DepthScenes,duration_manipulation_targetAtFixation,jsons/VE125_randls_11.json,http://54.235.29.9/FacialAge/BNav_EC2/DepthDuration/v2_depth_duration_MTurk/v2_DepthDuration_HTML.html#101,101,1920,929,1920,1080,8-21-2022,6-36-59,144,depth_duration_stimuli/000368_2014-06-09_15-53-01_260595134347_rgbf000155-resize_2/000368_2014-06-09_15-53-01_260595134347_rgbf000155-resize_2-target.png,125,2.4859999999999998,9,2497,126,feet,jsons/VE125_randls_11.json,559903,753393,58,Man
144,165253,DepthScenes,duration_manipulation_targetAtFixation,jsons/VE125_randls_11.json,http://54.235.29.9/FacialAge/BNav_EC2/DepthDuration/v2_depth_duration_MTurk/v2_DepthDuration_HTML.html#101,101,1920,929,1920,1080,8-21-2022,6-36-59,145,depth_duration_stimuli/002678_2014-06-13_16-15-32_094959634447_rgbf000151-resize_6/002678_2014-06-13_16-15-32_094959634447_rgbf000151-resize_6-target.png,125,2.1830000000000003,15,2856,126,feet,jsons/VE125_randls_11.json,559903,753393,58,Man
145,165253,DepthScenes,duration_manipulation_targetAtFixation,jsons/VE125_randls_11.json,http://54.235.29.9/FacialAge/BNav_EC2/DepthDuration/v2_depth_duration_MTurk/v2_DepthDuration_HTML.html#101,101,1920,929,1920,1080,8-21-2022,6-36-59,146,depth_duration_stimuli/001498_2014-06-19_17-45-14_260595134347_rgbf000129-resize_4/001498_2014-06-19_17-45-14_260595134347_rgbf000129-resize-original.jpg,125,1.4075,0,2233,124,feet,jsons/VE125_randls_11.json,559903,753393,58,Man
146,165253,DepthScenes,duration_manipulation_targetAtFixation,jsons/VE125_randls_11.json,http://54.235.29.9/FacialAge/BNav_EC2/DepthDuration/v2_depth_duration_MTurk/v2_DepthDuration_HTML.html#101,101,1920,929,1920,1080,8-21-2022,6-36-59,147,depth_duration_stimuli/001167_2014-06-17_15-38-07_260595134347_rgbf000108-resize_0/001167_2014-06-17_15-38-07_260595134347_rgbf000108-resize_0-target.png,125,1.8505,8,2206,125,feet,jsons/VE125_randls_11.json,559903,753393,58,Man
147,165253,DepthScenes,duration_manipulation_targetAtFixation,jsons/VE125_randls_11.json,http://54.235.29.9/FacialAge/BNav_EC2/DepthDuration/v2_depth_duration_MTurk/v2_DepthDuration_HTML.html#101,101,1920,929,1920,1080,8-21-2022,6-36-59,148,depth_duration_stimuli/003587_2014-05-23_16-48-02_094959634447_rgbf002384-resize_2/003587_2014-05-23_16-48-02_094959634447_rgbf002384-resize_2-target.png,125,1.357,4,3275,138,feet,jsons/VE125_randls_11.json,559903,753393,58,Man
148,165253,DepthScenes,duration_manipulation_targetAtFixation,jsons/VE125_randls_11.json,http://54.235.29.9/FacialAge/BNav_EC2/DepthDuration/v2_depth_duration_MTurk/v2_DepthDuration_HTML.html#101,101,1920,929,1920,1080,8-21-2022,6-36-59,149,depth_duration_stimuli/002118_2014-06-25_20-32-08_260595134347_rgbf000078-resize_1/002118_2014-06-25_20-32-08_260595134347_rgbf000078-resize_1-target.png,125,2.6460000000000004,10,2917,125,feet,jsons/VE125_randls_11.json,559903,753393,58,Man
149,165253,DepthScenes,duration_manipulation_targetAtFixation,jsons/VE125_randls_11.json,http://54.235.29.9/FacialAge/BNav_EC2/DepthDuration/v2_depth_duration_MTurk/v2_DepthDuration_HTML.html#101,101,1920,929,1920,1080,8-21-2022,6-36-59,150,depth_duration_stimuli/001516_2014-06-20_16-25-09_260595134347_rgbf000076-resize_2/001516_2014-06-20_16-25-09_260595134347_rgbf000076-resize_2-target.png,125,1.7445,9,3404,125,feet,jsons/VE125_randls_11.json,559903,753393,58,Man
150,165253,DepthScenes,duration_manipulation_targetAtFixation,jsons/VE125_randls_11.json,http://54.235.29.9/FacialAge/BNav_EC2/DepthDuration/v2_depth_duration_MTurk/v2_DepthDuration_HTML.html#101,101,1920,929,1920,1080,8-21-2022,6-36-59,151,depth_duration_stimuli/002057_2014-06-24_21-00-13_260595134347_rgbf000120-resize_1/002057_2014-06-24_21-00-13_260595134347_rgbf000120-resize_1-target.png,125,2.967,12,2310,123,feet,jsons/VE125_randls_11.json,559903,753393,58,Man
151,165253,DepthScenes,duration_manipulation_targetAtFixation,jsons/VE125_randls_11.json,http://54.235.29.9/FacialAge/BNav_EC2/DepthDuration/v2_depth_duration_MTurk/v2_DepthDuration_HTML.html#101,101,1920,929,1920,1080,8-21-2022,6-36-59,152,depth_duration_stimuli/000709_2014-06-08_13-51-55_260595134347_rgbf000068-resize_3/000709_2014-06-08_13-51-55_260595134347_rgbf000068-resize_3-target.png,125,1.8030000000000002,10,2349,124,feet,jsons/VE125_randls_11.json,559903,753393,58,Man
152,165253,DepthScenes,duration_manipulation_targetAtFixation,jsons/VE125_randls_11.json,http://54.235.29.9/FacialAge/BNav_EC2/DepthDuration/v2_depth_duration_MTurk/v2_DepthDuration_HTML.html#101,101,1920,929,1920,1080,8-21-2022,6-36-59,153,depth_duration_stimuli/000009_2014-05-26_14-32-05_260595134347_rgbf000034-resize_3/000009_2014-05-26_14-32-05_260595134347_rgbf000034-resize_3-target.png,125,3.8715,15,3465,123,feet,jsons/VE125_randls_11.json,559903,753393,58,Man
153,165253,DepthScenes,duration_manipulation_targetAtFixation,jsons/VE125_randls_11.json,http://54.235.29.9/FacialAge/BNav_EC2/DepthDuration/v2_depth_duration_MTurk/v2_DepthDuration_HTML.html#101,101,1920,929,1920,1080,8-21-2022,6-36-59,154,depth_duration_stimuli/001828_2014-06-26_21-40-03_260595134347_rgbf000024-resize_0/001828_2014-06-26_21-40-03_260595134347_rgbf000024-resize_0-target.png,125,4.8260000000000005,10,2747,118,feet,jsons/VE125_randls_11.json,559903,753393,58,Man
154,165253,DepthScenes,duration_manipulation_targetAtFixation,jsons/VE125_randls_11.json,http://54.235.29.9/FacialAge/BNav_EC2/DepthDuration/v2_depth_duration_MTurk/v2_DepthDuration_HTML.html#101,101,1920,929,1920,1080,8-21-2022,6-36-59,155,depth_duration_stimuli/000917_2014-06-09_22-45-29_260595134347_rgbf000149-resize_3/000917_2014-06-09_22-45-29_260595134347_rgbf000149-resize_3-target.png,125,4.1865,15,3888,125,feet,jsons/VE125_randls_11.json,559903,753393,58,Man
155,165253,DepthScenes,duration_manipulation_targetAtFixation,jsons/VE125_randls_11.json,http://54.235.29.9/FacialAge/BNav_EC2/DepthDuration/v2_depth_duration_MTurk/v2_DepthDuration_HTML.html#101,101,1920,929,1920,1080,8-21-2022,6-36-59,156,depth_duration_stimuli/002323_2014-06-28_20-01-54_260595134347_rgbf000051-resize_4/002323_2014-06-28_20-01-54_260595134347_rgbf000051-resize_4-target.png,125,3.7310000000000003,14,3240,123,feet,jsons/VE125_randls_11.json,559903,753393,58,Man
156,165253,DepthScenes,duration_manipulation_targetAtFixation,jsons/VE125_randls_11.json,http://54.235.29.9/FacialAge/BNav_EC2/DepthDuration/v2_depth_duration_MTurk/v2_DepthDuration_HTML.html#101,101,1920,929,1920,1080,8-21-2022,6-36-59,157,depth_duration_stimuli/001092_2014-06-15_17-34-58_260595134347_rgbf000171-resize_3/001092_2014-06-15_17-34-58_260595134347_rgbf000171-resize_3-target.png,125,2.6935,9,3408,139,feet,jsons/VE125_randls_11.json,559903,753393,58,Man
157,165253,DepthScenes,duration_manipulation_targetAtFixation,jsons/VE125_randls_11.json,http://54.235.29.9/FacialAge/BNav_EC2/DepthDuration/v2_depth_duration_MTurk/v2_DepthDuration_HTML.html#101,101,1920,929,1920,1080,8-21-2022,6-36-59,158,depth_duration_stimuli/002545_2014-06-24_13-38-53_094959634447_rgbf000080-resize_4/002545_2014-06-24_13-38-53_094959634447_rgbf000080-resize_4-target.png,125,1.9205,8,2645,124,feet,jsons/VE125_randls_11.json,559903,753393,58,Man
158,165253,DepthScenes,duration_manipulation_targetAtFixation,jsons/VE125_randls_11.json,http://54.235.29.9/FacialAge/BNav_EC2/DepthDuration/v2_depth_duration_MTurk/v2_DepthDuration_HTML.html#101,101,1920,929,1920,1080,8-21-2022,6-36-59,159,depth_duration_stimuli/002043_2014-06-24_20-29-38_260595134347_rgbf000039-resize_4/002043_2014-06-24_20-29-38_260595134347_rgbf000039-resize_4-target.png,125,2.8435,12,2759,124,feet,jsons/VE125_randls_11.json,559903,753393,58,Man
159,165253,DepthScenes,duration_manipulation_targetAtFixation,jsons/VE125_randls_11.json,http://54.235.29.9/FacialAge/BNav_EC2/DepthDuration/v2_depth_duration_MTurk/v2_DepthDuration_HTML.html#101,101,1920,929,1920,1080,8-21-2022,6-36-59,160,depth_duration_stimuli/003048_2014-06-15_13-49-43_094959634447_rgbf000150-resize_1/003048_2014-06-15_13-49-43_094959634447_rgbf000150-resize_1-target.png,125,4.0035,13,2559,123,feet,jsons/VE125_randls_11.json,559903,753393,58,Man
160,165253,DepthScenes,duration_manipulation_targetAtFixation,jsons/VE125_randls_11.json,http://54.235.29.9/FacialAge/BNav_EC2/DepthDuration/v2_depth_duration_MTurk/v2_DepthDuration_HTML.html#101,101,1920,929,1920,1080,8-21-2022,6-36-59,161,depth_duration_stimuli/001555_2014-06-20_17-12-10_260595134347_rgbf000065-resize_4/001555_2014-06-20_17-12-10_260595134347_rgbf000065-resize_4-target.png,125,1.633,5,2664,126,feet,jsons/VE125_randls_11.json,559903,753393,58,Man
161,165253,DepthScenes,duration_manipulation_targetAtFixation,jsons/VE125_randls_11.json,http://54.235.29.9/FacialAge/BNav_EC2/DepthDuration/v2_depth_duration_MTurk/v2_DepthDuration_HTML.html#101,101,1920,929,1920,1080,8-21-2022,6-36-59,162,depth_duration_stimuli/000103_2014-05-14_22-01-17_260595134347_rgbf000152-resize_5/000103_2014-05-14_22-01-17_260595134347_rgbf000152-resize_5-target.png,125,1.993,8,2335,124,feet,jsons/VE125_randls_11.json,559903,753393,58,Man
162,165253,DepthScenes,duration_manipulation_targetAtFixation,jsons/VE125_randls_11.json,http://54.235.29.9/FacialAge/BNav_EC2/DepthDuration/v2_depth_duration_MTurk/v2_DepthDuration_HTML.html#101,101,1920,929,1920,1080,8-21-2022,6-36-59,163,depth_duration_stimuli/001810_2014-06-26_20-51-35_260595134347_rgbf000040-resize_3/001810_2014-06-26_20-51-35_260595134347_rgbf000040-resize_3-target.png,125,2.2525,6,2398,125,feet,jsons/VE125_randls_11.json,559903,753393,58,Man
163,165253,DepthScenes,duration_manipulation_targetAtFixation,jsons/VE125_randls_11.json,http://54.235.29.9/FacialAge/BNav_EC2/DepthDuration/v2_depth_duration_MTurk/v2_DepthDuration_HTML.html#101,101,1920,929,1920,1080,8-21-2022,6-36-59,164,depth_duration_stimuli/003010_2014-06-15_12-54-35_094959634447_rgbf000112-resize_0/003010_2014-06-15_12-54-35_094959634447_rgbf000112-resize_0-target.png,125,3.1185,20,2786,125,feet,jsons/VE125_randls_11.json,559903,753393,58,Man
