,subjID,experimentName,versionName,sequenceName,url,selected_row,windowWidth,windowHeight,screenWidth,screenHeight,startDate,startTime,trial,stimulus,duration,actual_depth,depth_estimate,trial_RT,log_sceneDuration,unitSelection,seq_filepath,experimentTime,totalTime,age,gender
0,165894,DepthScenes,duration_manipulation_targetAtFixation,jsons/v1_VE1000_randls_60_rotated.json,http://54.235.29.9/FacialAge/BNav_EC2/DepthDuration/v2_depth_duration_MTurk/v2_DepthDuration_HTML.html#328,328,1412,794,1412,794,8-29-2022,15-4-49,1,depth_duration_stimuli/001032_2014-06-08_13-23-17_260595134347_rgbf000021-resize_3/001032_2014-06-08_13-23-17_260595134347_rgbf000021-resize_3-target.png,1000,3.2725,0,4839,1003,meters,jsons/v1_VE1000_randls_60_rotated.json,628823,736378,35,Man
1,165894,DepthScenes,duration_manipulation_targetAtFixation,jsons/v1_VE1000_randls_60_rotated.json,http://54.235.29.9/FacialAge/BNav_EC2/DepthDuration/v2_depth_duration_MTurk/v2_DepthDuration_HTML.html#328,328,1412,794,1412,794,8-29-2022,15-4-49,2,depth_duration_stimuli/001059_2014-06-08_21-53-27_260595134347_rgbf000061-resize_4/001059_2014-06-08_21-53-27_260595134347_rgbf000061-resize_4-target.png,1000,2.4185,1,2870,988,meters,jsons/v1_VE1000_randls_60_rotated.json,628823,736378,35,Man
2,165894,DepthScenes,duration_manipulation_targetAtFixation,jsons/v1_VE1000_randls_60_rotated.json,http://54.235.29.9/FacialAge/BNav_EC2/DepthDuration/v2_depth_duration_MTurk/v2_DepthDuration_HTML.html#328,328,1412,794,1412,794,8-29-2022,15-4-49,3,depth_duration_stimuli/003083_2014-06-15_15-21-03_094959634447_rgbf000063-resize_1/003083_2014-06-15_15-21-03_094959634447_rgbf000063-resize_1-target.png,1000,4.1405,2,4016,986,meters,jsons/v1_VE1000_randls_60_rotated.json,628823,736378,35,Man
3,165894,DepthScenes,duration_manipulation_targetAtFixation,jsons/v1_VE1000_randls_60_rotated.json,http://54.235.29.9/FacialAge/BNav_EC2/DepthDuration/v2_depth_duration_MTurk/v2_DepthDuration_HTML.html#328,328,1412,794,1412,794,8-29-2022,15-4-49,4,depth_duration_stimuli/000486_2014-06-09_20-47-20_260595134347_rgbf000143-resize_2/000486_2014-06-09_20-47-20_260595134347_rgbf000143-resize_2-target.png,1000,4.8325,0,3414,999,meters,jsons/v1_VE1000_randls_60_rotated.json,628823,736378,35,Man
4,165894,DepthScenes,duration_manipulation_targetAtFixation,jsons/v1_VE1000_randls_60_rotated.json,http://54.235.29.9/FacialAge/BNav_EC2/DepthDuration/v2_depth_duration_MTurk/v2_DepthDuration_HTML.html#328,328,1412,794,1412,794,8-29-2022,15-4-49,5,depth_duration_stimuli/000709_2014-06-08_13-51-55_260595134347_rgbf000068-resize_3/000709_2014-06-08_13-51-55_260595134347_rgbf000068-resize_3-target.png,1000,1.8030000000000002,12,3435,999,meters,jsons/v1_VE1000_randls_60_rotated.json,628823,736378,35,Man
5,165894,DepthScenes,duration_manipulation_targetAtFixation,jsons/v1_VE1000_randls_60_rotated.json,http://54.235.29.9/FacialAge/BNav_EC2/DepthDuration/v2_depth_duration_MTurk/v2_DepthDuration_HTML.html#328,328,1412,794,1412,794,8-29-2022,15-4-49,6,depth_duration_stimuli/002057_2014-06-24_21-00-13_260595134347_rgbf000120-resize_1/002057_2014-06-24_21-00-13_260595134347_rgbf000120-resize_1-target.png,1000,2.967,0,3030,989,meters,jsons/v1_VE1000_randls_60_rotated.json,628823,736378,35,Man
6,165894,DepthScenes,duration_manipulation_targetAtFixation,jsons/v1_VE1000_randls_60_rotated.json,http://54.235.29.9/FacialAge/BNav_EC2/DepthDuration/v2_depth_duration_MTurk/v2_DepthDuration_HTML.html#328,328,1412,794,1412,794,8-29-2022,15-4-49,7,depth_duration_stimuli/001214_2014-06-17_16-13-55_260595134347_rgbf000111-resize_0/001214_2014-06-17_16-13-55_260595134347_rgbf000111-resize_0-target.png,1000,2.6505,1,2991,1000,meters,jsons/v1_VE1000_randls_60_rotated.json,628823,736378,35,Man
7,165894,DepthScenes,duration_manipulation_targetAtFixation,jsons/v1_VE1000_randls_60_rotated.json,http://54.235.29.9/FacialAge/BNav_EC2/DepthDuration/v2_depth_duration_MTurk/v2_DepthDuration_HTML.html#328,328,1412,794,1412,794,8-29-2022,15-4-49,8,depth_duration_stimuli/000810_2014-06-08_17-20-01_260595134347_rgbf000105-resize_0/000810_2014-06-08_17-20-01_260595134347_rgbf000105-resize_0-target.png,1000,1.4865,0,3225,1003,meters,jsons/v1_VE1000_randls_60_rotated.json,628823,736378,35,Man
8,165894,DepthScenes,duration_manipulation_targetAtFixation,jsons/v1_VE1000_randls_60_rotated.json,http://54.235.29.9/FacialAge/BNav_EC2/DepthDuration/v2_depth_duration_MTurk/v2_DepthDuration_HTML.html#328,328,1412,794,1412,794,8-29-2022,15-4-49,9,depth_duration_stimuli/003048_2014-06-15_13-49-43_094959634447_rgbf000150-resize_1/003048_2014-06-15_13-49-43_094959634447_rgbf000150-resize_1-target.png,1000,4.0035,1,2980,980,meters,jsons/v1_VE1000_randls_60_rotated.json,628823,736378,35,Man
9,165894,DepthScenes,duration_manipulation_targetAtFixation,jsons/v1_VE1000_randls_60_rotated.json,http://54.235.29.9/FacialAge/BNav_EC2/DepthDuration/v2_depth_duration_MTurk/v2_DepthDuration_HTML.html#328,328,1070,602,1070,602,8-29-2022,15-4-49,10,depth_duration_stimuli/002043_2014-06-24_20-29-38_260595134347_rgbf000039-resize_4/002043_2014-06-24_20-29-38_260595134347_rgbf000039-resize_4-target.png,1000,2.8435,1,3601,1014,meters,jsons/v1_VE1000_randls_60_rotated.json,628823,736378,35,Man
10,165894,DepthScenes,duration_manipulation_targetAtFixation,jsons/v1_VE1000_randls_60_rotated.json,http://54.235.29.9/FacialAge/BNav_EC2/DepthDuration/v2_depth_duration_MTurk/v2_DepthDuration_HTML.html#328,328,1070,602,1070,602,8-29-2022,15-4-49,11,depth_duration_stimuli/001136_2014-06-17_15-19-41_260595134347_rgbf000076-resize_3/001136_2014-06-17_15-19-41_260595134347_rgbf000076-resize_3-target.png,1000,1.8655,0,2819,996,meters,jsons/v1_VE1000_randls_60_rotated.json,628823,736378,35,Man
11,165894,DepthScenes,duration_manipulation_targetAtFixation,jsons/v1_VE1000_randls_60_rotated.json,http://54.235.29.9/FacialAge/BNav_EC2/DepthDuration/v2_depth_duration_MTurk/v2_DepthDuration_HTML.html#328,328,1070,602,1070,602,8-29-2022,15-4-49,12,depth_duration_stimuli/001164_2014-06-17_15-35-46_260595134347_rgbf000085-resize_3/001164_2014-06-17_15-35-46_260595134347_rgbf000085-resize_3-target.png,1000,2.354,0,3282,999,meters,jsons/v1_VE1000_randls_60_rotated.json,628823,736378,35,Man
12,165894,DepthScenes,duration_manipulation_targetAtFixation,jsons/v1_VE1000_randls_60_rotated.json,http://54.235.29.9/FacialAge/BNav_EC2/DepthDuration/v2_depth_duration_MTurk/v2_DepthDuration_HTML.html#328,328,1070,602,1070,602,8-29-2022,15-4-49,13,depth_duration_stimuli/000483_2014-06-09_20-41-45_260595134347_rgbf000116-resize_4/000483_2014-06-09_20-41-45_260595134347_rgbf000116-resize_4-target.png,1000,1.337,0,3078,988,meters,jsons/v1_VE1000_randls_60_rotated.json,628823,736378,35,Man
13,165894,DepthScenes,duration_manipulation_targetAtFixation,jsons/v1_VE1000_randls_60_rotated.json,http://54.235.29.9/FacialAge/BNav_EC2/DepthDuration/v2_depth_duration_MTurk/v2_DepthDuration_HTML.html#328,328,1070,602,1070,602,8-29-2022,15-4-49,14,depth_duration_stimuli/000469_2014-06-09_19-42-10_260595134347_rgbf000081-resize_1/000469_2014-06-09_19-42-10_260595134347_rgbf000081-resize_1-target.png,1000,1.652,1,3027,999,meters,jsons/v1_VE1000_randls_60_rotated.json,628823,736378,35,Man
14,165894,DepthScenes,duration_manipulation_targetAtFixation,jsons/v1_VE1000_randls_60_rotated.json,http://54.235.29.9/FacialAge/BNav_EC2/DepthDuration/v2_depth_duration_MTurk/v2_DepthDuration_HTML.html#328,328,1070,602,1070,602,8-29-2022,15-4-49,15,depth_duration_stimuli/002414_2014-06-28_20-24-58_260595134347_rgbf000067-resize_4/002414_2014-06-28_20-24-58_260595134347_rgbf000067-resize_4-target.png,1000,4.363,0,3192,986,meters,jsons/v1_VE1000_randls_60_rotated.json,628823,736378,35,Man
15,165894,DepthScenes,duration_manipulation_targetAtFixation,jsons/v1_VE1000_randls_60_rotated.json,http://54.235.29.9/FacialAge/BNav_EC2/DepthDuration/v2_depth_duration_MTurk/v2_DepthDuration_HTML.html#328,328,1070,602,1070,602,8-29-2022,15-4-49,16,depth_duration_stimuli/000773_2014-06-08_22-24-54_260595134347_rgbf000093-resize_1/000773_2014-06-08_22-24-54_260595134347_rgbf000093-resize_1-target.png,1000,4.973,0,2677,998,meters,jsons/v1_VE1000_randls_60_rotated.json,628823,736378,35,Man
16,165894,DepthScenes,duration_manipulation_targetAtFixation,jsons/v1_VE1000_randls_60_rotated.json,http://54.235.29.9/FacialAge/BNav_EC2/DepthDuration/v2_depth_duration_MTurk/v2_DepthDuration_HTML.html#328,328,1070,602,1070,602,8-29-2022,15-4-49,17,depth_duration_stimuli/001392_2014-06-19_16-07-59_260595134347_rgbf000046-resize_1/001392_2014-06-19_16-07-59_260595134347_rgbf000046-resize_1-target.png,1000,4.135,0,2750,1003,meters,jsons/v1_VE1000_randls_60_rotated.json,628823,736378,35,Man
17,165894,DepthScenes,duration_manipulation_targetAtFixation,jsons/v1_VE1000_randls_60_rotated.json,http://54.235.29.9/FacialAge/BNav_EC2/DepthDuration/v2_depth_duration_MTurk/v2_DepthDuration_HTML.html#328,328,1070,602,1070,602,8-29-2022,15-4-49,18,depth_duration_stimuli/001570_2014-06-20_17-21-09_260595134347_rgbf000135-resize_4/001570_2014-06-20_17-21-09_260595134347_rgbf000135-resize_4-target.png,1000,4.467,0,3885,999,meters,jsons/v1_VE1000_randls_60_rotated.json,628823,736378,35,Man
18,165894,DepthScenes,duration_manipulation_targetAtFixation,jsons/v1_VE1000_randls_60_rotated.json,http://54.235.29.9/FacialAge/BNav_EC2/DepthDuration/v2_depth_duration_MTurk/v2_DepthDuration_HTML.html#328,328,1070,602,1070,602,8-29-2022,15-4-49,19,depth_duration_stimuli/001498_2014-06-19_17-45-14_260595134347_rgbf000129-resize_4/001498_2014-06-19_17-45-14_260595134347_rgbf000129-resize-original.jpg,1000,1.4075,0,3280,1004,meters,jsons/v1_VE1000_randls_60_rotated.json,628823,736378,35,Man
19,165894,DepthScenes,duration_manipulation_targetAtFixation,jsons/v1_VE1000_randls_60_rotated.json,http://54.235.29.9/FacialAge/BNav_EC2/DepthDuration/v2_depth_duration_MTurk/v2_DepthDuration_HTML.html#328,328,1070,602,1070,602,8-29-2022,15-4-49,20,depth_duration_stimuli/002639_2014-06-24_14-51-37_094959634447_rgbf000074-resize_4/002639_2014-06-24_14-51-37_094959634447_rgbf000074-resize_4-target.png,1000,4.0375,1,4298,999,meters,jsons/v1_VE1000_randls_60_rotated.json,628823,736378,35,Man
20,165894,DepthScenes,duration_manipulation_targetAtFixation,jsons/v1_VE1000_randls_60_rotated.json,http://54.235.29.9/FacialAge/BNav_EC2/DepthDuration/v2_depth_duration_MTurk/v2_DepthDuration_HTML.html#328,328,1070,602,1070,602,8-29-2022,15-4-49,21,depth_duration_stimuli/003292_2014-05-14_21-53-49_094959634447_rgbf000100-resize_2/003292_2014-05-14_21-53-49_094959634447_rgbf000100-resize_2-target.png,1000,3.4815,1,2817,999,meters,jsons/v1_VE1000_randls_60_rotated.json,628823,736378,35,Man
21,165894,DepthScenes,duration_manipulation_targetAtFixation,jsons/v1_VE1000_randls_60_rotated.json,http://54.235.29.9/FacialAge/BNav_EC2/DepthDuration/v2_depth_duration_MTurk/v2_DepthDuration_HTML.html#328,328,1070,602,1070,602,8-29-2022,15-4-49,22,depth_duration_stimuli/000635_2014-06-08_16-38-42_260595134347_rgbf000106-resize_1/000635_2014-06-08_16-38-42_260595134347_rgbf000106-resize_1-target.png,1000,2.074,2,2895,1015,meters,jsons/v1_VE1000_randls_60_rotated.json,628823,736378,35,Man
22,165894,DepthScenes,duration_manipulation_targetAtFixation,jsons/v1_VE1000_randls_60_rotated.json,http://54.235.29.9/FacialAge/BNav_EC2/DepthDuration/v2_depth_duration_MTurk/v2_DepthDuration_HTML.html#328,328,1070,602,1070,602,8-29-2022,15-4-49,23,depth_duration_stimuli/002279_2014-06-28_18-55-32_260595134347_rgbf000040-resize_5/002279_2014-06-28_18-55-32_260595134347_rgbf000040-resize_5-target.png,1000,1.5043333333333,0,3079,998,meters,jsons/v1_VE1000_randls_60_rotated.json,628823,736378,35,Man
23,165894,DepthScenes,duration_manipulation_targetAtFixation,jsons/v1_VE1000_randls_60_rotated.json,http://54.235.29.9/FacialAge/BNav_EC2/DepthDuration/v2_depth_duration_MTurk/v2_DepthDuration_HTML.html#328,328,1070,602,1070,602,8-29-2022,15-4-49,24,depth_duration_stimuli/000742_2014-06-08_18-48-09_260595134347_rgbf000164-resize_4/000742_2014-06-08_18-48-09_260595134347_rgbf000164-resize_4-target.png,1000,4.632,1,2902,999,meters,jsons/v1_VE1000_randls_60_rotated.json,628823,736378,35,Man
24,165894,DepthScenes,duration_manipulation_targetAtFixation,jsons/v1_VE1000_randls_60_rotated.json,http://54.235.29.9/FacialAge/BNav_EC2/DepthDuration/v2_depth_duration_MTurk/v2_DepthDuration_HTML.html#328,328,1070,602,1070,602,8-29-2022,15-4-49,25,depth_duration_stimuli/001066_2014-06-08_22-03-20_260595134347_rgbf000066-resize_4/001066_2014-06-08_22-03-20_260595134347_rgbf000066-resize_4-target.png,1000,4.2330000000000005,1,2729,985,meters,jsons/v1_VE1000_randls_60_rotated.json,628823,736378,35,Man
25,165894,DepthScenes,duration_manipulation_targetAtFixation,jsons/v1_VE1000_randls_60_rotated.json,http://54.235.29.9/FacialAge/BNav_EC2/DepthDuration/v2_depth_duration_MTurk/v2_DepthDuration_HTML.html#328,328,1070,602,1070,602,8-29-2022,15-4-49,26,depth_duration_stimuli/003423_2014-05-21_10-23-26_094959634447_rgbf002665-resize_2/003423_2014-05-21_10-23-26_094959634447_rgbf002665-resize_2-target.png,1000,3.2575,0,3978,998,meters,jsons/v1_VE1000_randls_60_rotated.json,628823,736378,35,Man
26,165894,DepthScenes,duration_manipulation_targetAtFixation,jsons/v1_VE1000_randls_60_rotated.json,http://54.235.29.9/FacialAge/BNav_EC2/DepthDuration/v2_depth_duration_MTurk/v2_DepthDuration_HTML.html#328,328,1070,602,1070,602,8-29-2022,15-4-49,27,depth_duration_stimuli/002905_2014-06-03_18-04-43_094959634447_rgbf000151-resize_2/002905_2014-06-03_18-04-43_094959634447_rgbf000151-resize_2-target.png,1000,2.0295,0,3492,991,meters,jsons/v1_VE1000_randls_60_rotated.json,628823,736378,35,Man
27,165894,DepthScenes,duration_manipulation_targetAtFixation,jsons/v1_VE1000_randls_60_rotated.json,http://54.235.29.9/FacialAge/BNav_EC2/DepthDuration/v2_depth_duration_MTurk/v2_DepthDuration_HTML.html#328,328,1070,602,1070,602,8-29-2022,15-4-49,28,depth_duration_stimuli/001828_2014-06-26_21-40-03_260595134347_rgbf000024-resize_0/001828_2014-06-26_21-40-03_260595134347_rgbf000024-resize_0-target.png,1000,4.8260000000000005,1,3346,1005,meters,jsons/v1_VE1000_randls_60_rotated.json,628823,736378,35,Man
28,165894,DepthScenes,duration_manipulation_targetAtFixation,jsons/v1_VE1000_randls_60_rotated.json,http://54.235.29.9/FacialAge/BNav_EC2/DepthDuration/v2_depth_duration_MTurk/v2_DepthDuration_HTML.html#328,328,1070,602,1070,602,8-29-2022,15-4-49,29,depth_duration_stimuli/000009_2014-05-26_14-32-05_260595134347_rgbf000034-resize_3/000009_2014-05-26_14-32-05_260595134347_rgbf000034-resize_3-target.png,1000,3.8715,2,3001,995,meters,jsons/v1_VE1000_randls_60_rotated.json,628823,736378,35,Man
29,165894,DepthScenes,duration_manipulation_targetAtFixation,jsons/v1_VE1000_randls_60_rotated.json,http://54.235.29.9/FacialAge/BNav_EC2/DepthDuration/v2_depth_duration_MTurk/v2_DepthDuration_HTML.html#328,328,1070,602,1070,602,8-29-2022,15-4-49,30,depth_duration_stimuli/002072_2014-06-24_21-48-06_260595134347_rgbf000115-resize_0/002072_2014-06-24_21-48-06_260595134347_rgbf000115-resize-original.jpg,1000,4.702,0,3012,999,meters,jsons/v1_VE1000_randls_60_rotated.json,628823,736378,35,Man
30,165894,DepthScenes,duration_manipulation_targetAtFixation,jsons/v1_VE1000_randls_60_rotated.json,http://54.235.29.9/FacialAge/BNav_EC2/DepthDuration/v2_depth_duration_MTurk/v2_DepthDuration_HTML.html#328,328,1070,602,1070,602,8-29-2022,15-4-49,31,depth_duration_stimuli/002444_2014-06-28_20-32-08_260595134347_rgbf000027-resize_0/002444_2014-06-28_20-32-08_260595134347_rgbf000027-resize_0-target.png,1000,4.388999999999999,0,3320,983,meters,jsons/v1_VE1000_randls_60_rotated.json,628823,736378,35,Man
31,165894,DepthScenes,duration_manipulation_targetAtFixation,jsons/v1_VE1000_randls_60_rotated.json,http://54.235.29.9/FacialAge/BNav_EC2/DepthDuration/v2_depth_duration_MTurk/v2_DepthDuration_HTML.html#328,328,1070,602,1070,602,8-29-2022,15-4-49,32,depth_duration_stimuli/000436_2014-06-09_22-25-11_260595134347_rgbf000137-resize_1/000436_2014-06-09_22-25-11_260595134347_rgbf000137-resize_1-target.png,1000,4.0705,0,3095,1015,meters,jsons/v1_VE1000_randls_60_rotated.json,628823,736378,35,Man
32,165894,DepthScenes,duration_manipulation_targetAtFixation,jsons/v1_VE1000_randls_60_rotated.json,http://54.235.29.9/FacialAge/BNav_EC2/DepthDuration/v2_depth_duration_MTurk/v2_DepthDuration_HTML.html#328,328,1070,602,1070,602,8-29-2022,15-4-49,33,depth_duration_stimuli/000927_2014-06-09_16-32-30_260595134347_rgbf000123-resize_3/000927_2014-06-09_16-32-30_260595134347_rgbf000123-resize_3-target.png,1000,2.6785,0,3578,999,meters,jsons/v1_VE1000_randls_60_rotated.json,628823,736378,35,Man
33,165894,DepthScenes,duration_manipulation_targetAtFixation,jsons/v1_VE1000_randls_60_rotated.json,http://54.235.29.9/FacialAge/BNav_EC2/DepthDuration/v2_depth_duration_MTurk/v2_DepthDuration_HTML.html#328,328,1070,602,1070,602,8-29-2022,15-4-49,34,depth_duration_stimuli/001110_2014-06-15_17-25-28_260595134347_rgbf000150-resize_1/001110_2014-06-15_17-25-28_260595134347_rgbf000150-resize_1-target.png,1000,1.7115,0,6441,1000,meters,jsons/v1_VE1000_randls_60_rotated.json,628823,736378,35,Man
34,165894,DepthScenes,duration_manipulation_targetAtFixation,jsons/v1_VE1000_randls_60_rotated.json,http://54.235.29.9/FacialAge/BNav_EC2/DepthDuration/v2_depth_duration_MTurk/v2_DepthDuration_HTML.html#328,328,1070,602,1070,602,8-29-2022,15-4-49,35,depth_duration_stimuli/003495_2014-05-21_16-01-51_094959634447_rgbf000100-resize_3/003495_2014-05-21_16-01-51_094959634447_rgbf000100-resize_3-target.png,1000,1.6255,1,3445,999,meters,jsons/v1_VE1000_randls_60_rotated.json,628823,736378,35,Man
35,165894,DepthScenes,duration_manipulation_targetAtFixation,jsons/v1_VE1000_randls_60_rotated.json,http://54.235.29.9/FacialAge/BNav_EC2/DepthDuration/v2_depth_duration_MTurk/v2_DepthDuration_HTML.html#328,328,1070,602,1070,602,8-29-2022,15-4-49,36,depth_duration_stimuli/001244_2014-06-17_16-47-45_260595134347_rgbf000030-resize_4/001244_2014-06-17_16-47-45_260595134347_rgbf000030-resize_4-target.png,1000,2.0425,2,3692,1004,meters,jsons/v1_VE1000_randls_60_rotated.json,628823,736378,35,Man
36,165894,DepthScenes,duration_manipulation_targetAtFixation,jsons/v1_VE1000_randls_60_rotated.json,http://54.235.29.9/FacialAge/BNav_EC2/DepthDuration/v2_depth_duration_MTurk/v2_DepthDuration_HTML.html#328,328,1070,602,1070,602,8-29-2022,15-4-49,37,depth_duration_stimuli/001815_2014-06-26_20-52-55_260595134347_rgbf000020-resize_0/001815_2014-06-26_20-52-55_260595134347_rgbf000020-resize_0-target.png,1000,3.3865,2,3039,983,meters,jsons/v1_VE1000_randls_60_rotated.json,628823,736378,35,Man
37,165894,DepthScenes,duration_manipulation_targetAtFixation,jsons/v1_VE1000_randls_60_rotated.json,http://54.235.29.9/FacialAge/BNav_EC2/DepthDuration/v2_depth_duration_MTurk/v2_DepthDuration_HTML.html#328,328,1070,602,1070,602,8-29-2022,15-4-49,38,depth_duration_stimuli/001808_2014-06-26_20-50-58_260595134347_rgbf000029-resize_1/001808_2014-06-26_20-50-58_260595134347_rgbf000029-resize_1-target.png,1000,4.249,0,2980,999,meters,jsons/v1_VE1000_randls_60_rotated.json,628823,736378,35,Man
38,165894,DepthScenes,duration_manipulation_targetAtFixation,jsons/v1_VE1000_randls_60_rotated.json,http://54.235.29.9/FacialAge/BNav_EC2/DepthDuration/v2_depth_duration_MTurk/v2_DepthDuration_HTML.html#328,328,1070,602,1070,602,8-29-2022,15-4-49,39,depth_duration_stimuli/001052_2014-06-08_18-24-54_260595134347_rgbf000130-resize_1/001052_2014-06-08_18-24-54_260595134347_rgbf000130-resize_1-target.png,1000,4.1045,1,3747,984,meters,jsons/v1_VE1000_randls_60_rotated.json,628823,736378,35,Man
39,165894,DepthScenes,duration_manipulation_targetAtFixation,jsons/v1_VE1000_randls_60_rotated.json,http://54.235.29.9/FacialAge/BNav_EC2/DepthDuration/v2_depth_duration_MTurk/v2_DepthDuration_HTML.html#328,328,1070,602,1070,602,8-29-2022,15-4-49,40,depth_duration_stimuli/002988_2014-06-15_12-24-20_094959634447_rgbf000150-resize_1/002988_2014-06-15_12-24-20_094959634447_rgbf000150-resize_1-target.png,1000,4.7669999999999995,1,2841,1003,meters,jsons/v1_VE1000_randls_60_rotated.json,628823,736378,35,Man
40,165894,DepthScenes,duration_manipulation_targetAtFixation,jsons/v1_VE1000_randls_60_rotated.json,http://54.235.29.9/FacialAge/BNav_EC2/DepthDuration/v2_depth_duration_MTurk/v2_DepthDuration_HTML.html#328,328,1070,602,1070,602,8-29-2022,15-4-49,41,depth_duration_stimuli/001571_2014-06-20_17-21-32_260595134347_rgbf000089-resize_1/001571_2014-06-20_17-21-32_260595134347_rgbf000089-resize_1-target.png,1000,1.86,0,4052,998,meters,jsons/v1_VE1000_randls_60_rotated.json,628823,736378,35,Man
41,165894,DepthScenes,duration_manipulation_targetAtFixation,jsons/v1_VE1000_randls_60_rotated.json,http://54.235.29.9/FacialAge/BNav_EC2/DepthDuration/v2_depth_duration_MTurk/v2_DepthDuration_HTML.html#328,328,1070,602,1070,602,8-29-2022,15-4-49,42,depth_duration_stimuli/002272_2014-06-28_18-53-56_260595134347_rgbf000067-resize_2/002272_2014-06-28_18-53-56_260595134347_rgbf000067-resize_2-target.png,1000,1.138,0,2819,998,meters,jsons/v1_VE1000_randls_60_rotated.json,628823,736378,35,Man
42,165894,DepthScenes,duration_manipulation_targetAtFixation,jsons/v1_VE1000_randls_60_rotated.json,http://54.235.29.9/FacialAge/BNav_EC2/DepthDuration/v2_depth_duration_MTurk/v2_DepthDuration_HTML.html#328,328,1070,602,1070,602,8-29-2022,15-4-49,43,depth_duration_stimuli/002678_2014-06-13_16-15-32_094959634447_rgbf000151-resize_6/002678_2014-06-13_16-15-32_094959634447_rgbf000151-resize_6-target.png,1000,2.1830000000000003,1,4558,999,meters,jsons/v1_VE1000_randls_60_rotated.json,628823,736378,35,Man
43,165894,DepthScenes,duration_manipulation_targetAtFixation,jsons/v1_VE1000_randls_60_rotated.json,http://54.235.29.9/FacialAge/BNav_EC2/DepthDuration/v2_depth_duration_MTurk/v2_DepthDuration_HTML.html#328,328,1070,602,1070,602,8-29-2022,15-4-49,44,depth_duration_stimuli/000368_2014-06-09_15-53-01_260595134347_rgbf000155-resize_2/000368_2014-06-09_15-53-01_260595134347_rgbf000155-resize_2-target.png,1000,2.4859999999999998,1,3209,996,meters,jsons/v1_VE1000_randls_60_rotated.json,628823,736378,35,Man
44,165894,DepthScenes,duration_manipulation_targetAtFixation,jsons/v1_VE1000_randls_60_rotated.json,http://54.235.29.9/FacialAge/BNav_EC2/DepthDuration/v2_depth_duration_MTurk/v2_DepthDuration_HTML.html#328,328,1070,602,1070,602,8-29-2022,15-4-49,45,depth_duration_stimuli/001650_2014-06-20_12-09-00_260595134347_rgbf000087-resize_3/001650_2014-06-20_12-09-00_260595134347_rgbf000087-resize_3-target.png,1000,1.9505,1,3124,1000,meters,jsons/v1_VE1000_randls_60_rotated.json,628823,736378,35,Man
45,165894,DepthScenes,duration_manipulation_targetAtFixation,jsons/v1_VE1000_randls_60_rotated.json,http://54.235.29.9/FacialAge/BNav_EC2/DepthDuration/v2_depth_duration_MTurk/v2_DepthDuration_HTML.html#328,328,1070,602,1070,602,8-29-2022,15-4-49,46,depth_duration_stimuli/000682_2014-06-08_23-14-58_260595134347_rgbf000041-resize_5/000682_2014-06-08_23-14-58_260595134347_rgbf000041-resize_5-target.png,1000,2.7239999999999998,0,2981,1000,meters,jsons/v1_VE1000_randls_60_rotated.json,628823,736378,35,Man
46,165894,DepthScenes,duration_manipulation_targetAtFixation,jsons/v1_VE1000_randls_60_rotated.json,http://54.235.29.9/FacialAge/BNav_EC2/DepthDuration/v2_depth_duration_MTurk/v2_DepthDuration_HTML.html#328,328,1070,602,1070,602,8-29-2022,15-4-49,47,depth_duration_stimuli/000943_2014-06-09_19-31-07_260595134347_rgbf000128-resize_1/000943_2014-06-09_19-31-07_260595134347_rgbf000128-resize_1-target.png,1000,1.9765,0,2800,1015,meters,jsons/v1_VE1000_randls_60_rotated.json,628823,736378,35,Man
47,165894,DepthScenes,duration_manipulation_targetAtFixation,jsons/v1_VE1000_randls_60_rotated.json,http://54.235.29.9/FacialAge/BNav_EC2/DepthDuration/v2_depth_duration_MTurk/v2_DepthDuration_HTML.html#328,328,1070,602,1070,602,8-29-2022,15-4-49,48,depth_duration_stimuli/003070_2014-06-15_14-58-27_094959634447_rgbf000150-resize_3/003070_2014-06-15_14-58-27_094959634447_rgbf000150-resize_3-target.png,1000,2.9415,0,2964,1014,meters,jsons/v1_VE1000_randls_60_rotated.json,628823,736378,35,Man
48,165894,DepthScenes,duration_manipulation_targetAtFixation,jsons/v1_VE1000_randls_60_rotated.json,http://54.235.29.9/FacialAge/BNav_EC2/DepthDuration/v2_depth_duration_MTurk/v2_DepthDuration_HTML.html#328,328,1070,602,1070,602,8-29-2022,15-4-49,49,depth_duration_stimuli/001170_2014-06-17_15-43-44_260595134347_rgbf000096-resize_6/001170_2014-06-17_15-43-44_260595134347_rgbf000096-resize-original.jpg,1000,1.1909999999999998,0,3104,999,meters,jsons/v1_VE1000_randls_60_rotated.json,628823,736378,35,Man
49,165894,DepthScenes,duration_manipulation_targetAtFixation,jsons/v1_VE1000_randls_60_rotated.json,http://54.235.29.9/FacialAge/BNav_EC2/DepthDuration/v2_depth_duration_MTurk/v2_DepthDuration_HTML.html#328,328,1070,602,1070,602,8-29-2022,15-4-49,50,depth_duration_stimuli/000677_2014-06-08_23-10-32_260595134347_rgbf000158-resize_6/000677_2014-06-08_23-10-32_260595134347_rgbf000158-resize_6-target.png,1000,3.556,0,3102,999,meters,jsons/v1_VE1000_randls_60_rotated.json,628823,736378,35,Man
50,165894,DepthScenes,duration_manipulation_targetAtFixation,jsons/v1_VE1000_randls_60_rotated.json,http://54.235.29.9/FacialAge/BNav_EC2/DepthDuration/v2_depth_duration_MTurk/v2_DepthDuration_HTML.html#328,328,1070,602,1070,602,8-29-2022,15-4-49,51,depth_duration_stimuli/001029_2014-06-08_13-17-57_260595134347_rgbf000065-resize_1/001029_2014-06-08_13-17-57_260595134347_rgbf000065-resize_1-target.png,1000,3.0835,0,3017,1003,meters,jsons/v1_VE1000_randls_60_rotated.json,628823,736378,35,Man
51,165894,DepthScenes,duration_manipulation_targetAtFixation,jsons/v1_VE1000_randls_60_rotated.json,http://54.235.29.9/FacialAge/BNav_EC2/DepthDuration/v2_depth_duration_MTurk/v2_DepthDuration_HTML.html#328,328,1070,602,1070,602,8-29-2022,15-4-49,52,depth_duration_stimuli/002340_2014-06-28_20-05-46_260595134347_rgbf000113-resize_0/002340_2014-06-28_20-05-46_260595134347_rgbf000113-resize_0-target.png,1000,2.4735,0,2609,998,meters,jsons/v1_VE1000_randls_60_rotated.json,628823,736378,35,Man
52,165894,DepthScenes,duration_manipulation_targetAtFixation,jsons/v1_VE1000_randls_60_rotated.json,http://54.235.29.9/FacialAge/BNav_EC2/DepthDuration/v2_depth_duration_MTurk/v2_DepthDuration_HTML.html#328,328,1070,602,1070,602,8-29-2022,15-4-49,53,depth_duration_stimuli/001016_2014-06-09_16-16-10_260595134347_rgbf000112-resize_5/001016_2014-06-09_16-16-10_260595134347_rgbf000112-resize_5-target.png,1000,1.6565,0,2566,1002,meters,jsons/v1_VE1000_randls_60_rotated.json,628823,736378,35,Man
53,165894,DepthScenes,duration_manipulation_targetAtFixation,jsons/v1_VE1000_randls_60_rotated.json,http://54.235.29.9/FacialAge/BNav_EC2/DepthDuration/v2_depth_duration_MTurk/v2_DepthDuration_HTML.html#328,328,1070,602,1070,602,8-29-2022,15-4-49,54,depth_duration_stimuli/001617_2014-06-20_11-35-32_260595134347_rgbf000066-resize_1/001617_2014-06-20_11-35-32_260595134347_rgbf000066-resize_1-target.png,1000,3.7910000000000004,0,2640,999,meters,jsons/v1_VE1000_randls_60_rotated.json,628823,736378,35,Man
54,165894,DepthScenes,duration_manipulation_targetAtFixation,jsons/v1_VE1000_randls_60_rotated.json,http://54.235.29.9/FacialAge/BNav_EC2/DepthDuration/v2_depth_duration_MTurk/v2_DepthDuration_HTML.html#328,328,1070,602,1070,602,8-29-2022,15-4-49,55,depth_duration_stimuli/001806_2014-06-26_20-50-20_260595134347_rgbf000091-resize_1/001806_2014-06-26_20-50-20_260595134347_rgbf000091-resize_1-target.png,1000,2.7305,1,4482,999,meters,jsons/v1_VE1000_randls_60_rotated.json,628823,736378,35,Man
55,165894,DepthScenes,duration_manipulation_targetAtFixation,jsons/v1_VE1000_randls_60_rotated.json,http://54.235.29.9/FacialAge/BNav_EC2/DepthDuration/v2_depth_duration_MTurk/v2_DepthDuration_HTML.html#328,328,1070,602,1070,602,8-29-2022,15-4-49,56,depth_duration_stimuli/001100_2014-06-15_17-46-26_260595134347_rgbf000225-resize_2/001100_2014-06-15_17-46-26_260595134347_rgbf000225-resize_2-target.png,1000,2.24,2,2981,999,meters,jsons/v1_VE1000_randls_60_rotated.json,628823,736378,35,Man
56,165894,DepthScenes,duration_manipulation_targetAtFixation,jsons/v1_VE1000_randls_60_rotated.json,http://54.235.29.9/FacialAge/BNav_EC2/DepthDuration/v2_depth_duration_MTurk/v2_DepthDuration_HTML.html#328,328,1070,602,1070,602,8-29-2022,15-4-49,57,depth_duration_stimuli/002784_2014-06-22_19-26-30_094959634447_rgbf000083-resize_3/002784_2014-06-22_19-26-30_094959634447_rgbf000083-resize_3-target.png,1000,1.8046666666667,2,2793,1000,meters,jsons/v1_VE1000_randls_60_rotated.json,628823,736378,35,Man
57,165894,DepthScenes,duration_manipulation_targetAtFixation,jsons/v1_VE1000_randls_60_rotated.json,http://54.235.29.9/FacialAge/BNav_EC2/DepthDuration/v2_depth_duration_MTurk/v2_DepthDuration_HTML.html#328,328,1070,602,1070,602,8-29-2022,15-4-49,58,depth_duration_stimuli/001584_2014-06-20_11-07-43_260595134347_rgbf000002-resize_1/001584_2014-06-20_11-07-43_260595134347_rgbf000002-resize_1-target.png,1000,3.53,2,2845,1000,meters,jsons/v1_VE1000_randls_60_rotated.json,628823,736378,35,Man
58,165894,DepthScenes,duration_manipulation_targetAtFixation,jsons/v1_VE1000_randls_60_rotated.json,http://54.235.29.9/FacialAge/BNav_EC2/DepthDuration/v2_depth_duration_MTurk/v2_DepthDuration_HTML.html#328,328,1070,602,1070,602,8-29-2022,15-4-49,59,depth_duration_stimuli/003621_2014-05-23_18-06-08_094959634447_rgbf000101-resize_1/003621_2014-05-23_18-06-08_094959634447_rgbf000101-resize_1-target.png,1000,3.9835,2,2703,999,meters,jsons/v1_VE1000_randls_60_rotated.json,628823,736378,35,Man
59,165894,DepthScenes,duration_manipulation_targetAtFixation,jsons/v1_VE1000_randls_60_rotated.json,http://54.235.29.9/FacialAge/BNav_EC2/DepthDuration/v2_depth_duration_MTurk/v2_DepthDuration_HTML.html#328,328,1070,602,1070,602,8-29-2022,15-4-49,60,depth_duration_stimuli/001094_2014-06-15_17-36-00_260595134347_rgbf000205-resize_0/001094_2014-06-15_17-36-00_260595134347_rgbf000205-resize_0-target.png,1000,4.2175,0,2757,999,meters,jsons/v1_VE1000_randls_60_rotated.json,628823,736378,35,Man
60,165894,DepthScenes,duration_manipulation_targetAtFixation,jsons/v1_VE1000_randls_60_rotated.json,http://54.235.29.9/FacialAge/BNav_EC2/DepthDuration/v2_depth_duration_MTurk/v2_DepthDuration_HTML.html#328,328,1070,602,1070,602,8-29-2022,15-4-49,61,depth_duration_stimuli/000692_2014-06-08_13-09-42_260595134347_rgbf000199-resize_2/000692_2014-06-08_13-09-42_260595134347_rgbf000199-resize_2-target.png,1000,3.661,0,3659,999,meters,jsons/v1_VE1000_randls_60_rotated.json,628823,736378,35,Man
61,165894,DepthScenes,duration_manipulation_targetAtFixation,jsons/v1_VE1000_randls_60_rotated.json,http://54.235.29.9/FacialAge/BNav_EC2/DepthDuration/v2_depth_duration_MTurk/v2_DepthDuration_HTML.html#328,328,1070,602,1070,602,8-29-2022,15-4-49,62,depth_duration_stimuli/000137_2014-05-20_17-04-49_260595134347_rgbf000120-resize_1/000137_2014-05-20_17-04-49_260595134347_rgbf000120-resize_1-target.png,1000,3.786,1,2542,999,meters,jsons/v1_VE1000_randls_60_rotated.json,628823,736378,35,Man
62,165894,DepthScenes,duration_manipulation_targetAtFixation,jsons/v1_VE1000_randls_60_rotated.json,http://54.235.29.9/FacialAge/BNav_EC2/DepthDuration/v2_depth_duration_MTurk/v2_DepthDuration_HTML.html#328,328,1070,602,1070,602,8-29-2022,15-4-49,63,depth_duration_stimuli/000736_2014-06-08_18-24-15_260595134347_rgbf000206-resize_3/000736_2014-06-08_18-24-15_260595134347_rgbf000206-resize_3-target.png,1000,3.515,0,2679,1015,meters,jsons/v1_VE1000_randls_60_rotated.json,628823,736378,35,Man
63,165894,DepthScenes,duration_manipulation_targetAtFixation,jsons/v1_VE1000_randls_60_rotated.json,http://54.235.29.9/FacialAge/BNav_EC2/DepthDuration/v2_depth_duration_MTurk/v2_DepthDuration_HTML.html#328,328,1070,602,1070,602,8-29-2022,15-4-49,64,depth_duration_stimuli/001132_2014-06-17_14-48-54_260595134347_rgbf000100-resize_2/001132_2014-06-17_14-48-54_260595134347_rgbf000100-resize_2-target.png,1000,3.753,0,2685,1002,meters,jsons/v1_VE1000_randls_60_rotated.json,628823,736378,35,Man
64,165894,DepthScenes,duration_manipulation_targetAtFixation,jsons/v1_VE1000_randls_60_rotated.json,http://54.235.29.9/FacialAge/BNav_EC2/DepthDuration/v2_depth_duration_MTurk/v2_DepthDuration_HTML.html#328,328,1070,602,1070,602,8-29-2022,15-4-49,65,depth_duration_stimuli/001133_2014-06-17_14-49-16_260595134347_rgbf000100-resize_0/001133_2014-06-17_14-49-16_260595134347_rgbf000100-resize_0-target.png,1000,4.2115,0,4093,1000,meters,jsons/v1_VE1000_randls_60_rotated.json,628823,736378,35,Man
65,165894,DepthScenes,duration_manipulation_targetAtFixation,jsons/v1_VE1000_randls_60_rotated.json,http://54.235.29.9/FacialAge/BNav_EC2/DepthDuration/v2_depth_duration_MTurk/v2_DepthDuration_HTML.html#328,328,1070,602,1070,602,8-29-2022,15-4-49,66,depth_duration_stimuli/001540_2014-06-20_17-01-05_260595134347_rgbf000086-resize_2/001540_2014-06-20_17-01-05_260595134347_rgbf000086-resize-original.jpg,1000,1.459,1,2593,1000,meters,jsons/v1_VE1000_randls_60_rotated.json,628823,736378,35,Man
66,165894,DepthScenes,duration_manipulation_targetAtFixation,jsons/v1_VE1000_randls_60_rotated.json,http://54.235.29.9/FacialAge/BNav_EC2/DepthDuration/v2_depth_duration_MTurk/v2_DepthDuration_HTML.html#328,328,1070,602,1070,602,8-29-2022,15-4-49,67,depth_duration_stimuli/002136_2014-06-25_21-18-03_260595134347_rgbf000109-resize_3/002136_2014-06-25_21-18-03_260595134347_rgbf000109-resize_3-target.png,1000,1.9569999999999999,0,3570,991,meters,jsons/v1_VE1000_randls_60_rotated.json,628823,736378,35,Man
67,165894,DepthScenes,duration_manipulation_targetAtFixation,jsons/v1_VE1000_randls_60_rotated.json,http://54.235.29.9/FacialAge/BNav_EC2/DepthDuration/v2_depth_duration_MTurk/v2_DepthDuration_HTML.html#328,328,1070,602,1070,602,8-29-2022,15-4-49,68,depth_duration_stimuli/002964_2014-06-08_17-46-11_094959634447_rgbf000091-resize_4/002964_2014-06-08_17-46-11_094959634447_rgbf000091-resize_4-target.png,1000,1.6909999999999998,0,2957,1000,meters,jsons/v1_VE1000_randls_60_rotated.json,628823,736378,35,Man
68,165894,DepthScenes,duration_manipulation_targetAtFixation,jsons/v1_VE1000_randls_60_rotated.json,http://54.235.29.9/FacialAge/BNav_EC2/DepthDuration/v2_depth_duration_MTurk/v2_DepthDuration_HTML.html#328,328,1070,602,1070,602,8-29-2022,15-4-49,69,depth_duration_stimuli/001235_2014-06-17_16-37-36_260595134347_rgbf000084-resize_4/001235_2014-06-17_16-37-36_260595134347_rgbf000084-resize_4-target.png,1000,3.6605,0,2891,1004,meters,jsons/v1_VE1000_randls_60_rotated.json,628823,736378,35,Man
69,165894,DepthScenes,duration_manipulation_targetAtFixation,jsons/v1_VE1000_randls_60_rotated.json,http://54.235.29.9/FacialAge/BNav_EC2/DepthDuration/v2_depth_duration_MTurk/v2_DepthDuration_HTML.html#328,328,1070,602,1070,602,8-29-2022,15-4-49,70,depth_duration_stimuli/000788_2014-06-08_22-34-36_260595134347_rgbf000131-resize_1/000788_2014-06-08_22-34-36_260595134347_rgbf000131-resize_1-target.png,1000,3.359,0,2970,996,meters,jsons/v1_VE1000_randls_60_rotated.json,628823,736378,35,Man
70,165894,DepthScenes,duration_manipulation_targetAtFixation,jsons/v1_VE1000_randls_60_rotated.json,http://54.235.29.9/FacialAge/BNav_EC2/DepthDuration/v2_depth_duration_MTurk/v2_DepthDuration_HTML.html#328,328,1070,602,1070,602,8-29-2022,15-4-49,71,depth_duration_stimuli/000103_2014-05-14_22-01-17_260595134347_rgbf000152-resize_5/000103_2014-05-14_22-01-17_260595134347_rgbf000152-resize_5-target.png,1000,1.993,0,3256,982,meters,jsons/v1_VE1000_randls_60_rotated.json,628823,736378,35,Man
71,165894,DepthScenes,duration_manipulation_targetAtFixation,jsons/v1_VE1000_randls_60_rotated.json,http://54.235.29.9/FacialAge/BNav_EC2/DepthDuration/v2_depth_duration_MTurk/v2_DepthDuration_HTML.html#328,328,1070,602,1070,602,8-29-2022,15-4-49,72,depth_duration_stimuli/001555_2014-06-20_17-12-10_260595134347_rgbf000065-resize_4/001555_2014-06-20_17-12-10_260595134347_rgbf000065-resize_4-target.png,1000,1.633,1,2464,999,meters,jsons/v1_VE1000_randls_60_rotated.json,628823,736378,35,Man
72,165894,DepthScenes,duration_manipulation_targetAtFixation,jsons/v1_VE1000_randls_60_rotated.json,http://54.235.29.9/FacialAge/BNav_EC2/DepthDuration/v2_depth_duration_MTurk/v2_DepthDuration_HTML.html#328,328,1070,602,1070,602,8-29-2022,15-4-49,73,depth_duration_stimuli/000409_2014-06-04_19-23-33_260595134347_rgbf000067-resize_0/000409_2014-06-04_19-23-33_260595134347_rgbf000067-resize_0-target.png,1000,3.7335,2,2880,1015,meters,jsons/v1_VE1000_randls_60_rotated.json,628823,736378,35,Man
73,165894,DepthScenes,duration_manipulation_targetAtFixation,jsons/v1_VE1000_randls_60_rotated.json,http://54.235.29.9/FacialAge/BNav_EC2/DepthDuration/v2_depth_duration_MTurk/v2_DepthDuration_HTML.html#328,328,1070,602,1070,602,8-29-2022,15-4-49,74,depth_duration_stimuli/002663_2014-06-13_15-50-26_094959634447_rgbf000075-resize_1/002663_2014-06-13_15-50-26_094959634447_rgbf000075-resize_1-target.png,1000,4.7495,2,2777,1000,meters,jsons/v1_VE1000_randls_60_rotated.json,628823,736378,35,Man
74,165894,DepthScenes,duration_manipulation_targetAtFixation,jsons/v1_VE1000_randls_60_rotated.json,http://54.235.29.9/FacialAge/BNav_EC2/DepthDuration/v2_depth_duration_MTurk/v2_DepthDuration_HTML.html#328,328,1070,602,1070,602,8-29-2022,15-4-49,75,depth_duration_stimuli/002953_2014-06-08_17-32-18_094959634447_rgbf000059-resize_5/002953_2014-06-08_17-32-18_094959634447_rgbf000059-resize_5-target.png,1000,1.551,0,2663,999,meters,jsons/v1_VE1000_randls_60_rotated.json,628823,736378,35,Man
75,165894,DepthScenes,duration_manipulation_targetAtFixation,jsons/v1_VE1000_randls_60_rotated.json,http://54.235.29.9/FacialAge/BNav_EC2/DepthDuration/v2_depth_duration_MTurk/v2_DepthDuration_HTML.html#328,328,1070,602,1070,602,8-29-2022,15-4-49,76,depth_duration_stimuli/000878_2014-06-08_22-52-45_260595134347_rgbf000045-resize_2/000878_2014-06-08_22-52-45_260595134347_rgbf000045-resize_2-target.png,1000,2.092,0,2426,1015,meters,jsons/v1_VE1000_randls_60_rotated.json,628823,736378,35,Man
76,165894,DepthScenes,duration_manipulation_targetAtFixation,jsons/v1_VE1000_randls_60_rotated.json,http://54.235.29.9/FacialAge/BNav_EC2/DepthDuration/v2_depth_duration_MTurk/v2_DepthDuration_HTML.html#328,328,1070,602,1070,602,8-29-2022,15-4-49,77,depth_duration_stimuli/000191_2014-05-12_17-07-38_260595134347_rgbf000199-resize_0/000191_2014-05-12_17-07-38_260595134347_rgbf000199-resize_0-target.png,1000,3.7995,0,3252,999,meters,jsons/v1_VE1000_randls_60_rotated.json,628823,736378,35,Man
77,165894,DepthScenes,duration_manipulation_targetAtFixation,jsons/v1_VE1000_randls_60_rotated.json,http://54.235.29.9/FacialAge/BNav_EC2/DepthDuration/v2_depth_duration_MTurk/v2_DepthDuration_HTML.html#328,328,1070,602,1070,602,8-29-2022,15-4-49,78,depth_duration_stimuli/000493_2014-06-09_21-01-18_260595134347_rgbf000196-resize_3/000493_2014-06-09_21-01-18_260595134347_rgbf000196-resize_3-target.png,1000,3.44,0,2725,999,meters,jsons/v1_VE1000_randls_60_rotated.json,628823,736378,35,Man
78,165894,DepthScenes,duration_manipulation_targetAtFixation,jsons/v1_VE1000_randls_60_rotated.json,http://54.235.29.9/FacialAge/BNav_EC2/DepthDuration/v2_depth_duration_MTurk/v2_DepthDuration_HTML.html#328,328,1070,602,1070,602,8-29-2022,15-4-49,79,depth_duration_stimuli/002323_2014-06-28_20-01-54_260595134347_rgbf000051-resize_4/002323_2014-06-28_20-01-54_260595134347_rgbf000051-resize_4-target.png,1000,3.7310000000000003,0,2665,999,meters,jsons/v1_VE1000_randls_60_rotated.json,628823,736378,35,Man
79,165894,DepthScenes,duration_manipulation_targetAtFixation,jsons/v1_VE1000_randls_60_rotated.json,http://54.235.29.9/FacialAge/BNav_EC2/DepthDuration/v2_depth_duration_MTurk/v2_DepthDuration_HTML.html#328,328,1070,602,1070,602,8-29-2022,15-4-49,80,depth_duration_stimuli/000917_2014-06-09_22-45-29_260595134347_rgbf000149-resize_3/000917_2014-06-09_22-45-29_260595134347_rgbf000149-resize_3-target.png,1000,4.1865,0,2614,1008,meters,jsons/v1_VE1000_randls_60_rotated.json,628823,736378,35,Man
80,165894,DepthScenes,duration_manipulation_targetAtFixation,jsons/v1_VE1000_randls_60_rotated.json,http://54.235.29.9/FacialAge/BNav_EC2/DepthDuration/v2_depth_duration_MTurk/v2_DepthDuration_HTML.html#328,328,1070,602,1070,602,8-29-2022,15-4-49,81,depth_duration_stimuli/002467_2014-06-28_20-38-07_260595134347_rgbf000026-resize_2/002467_2014-06-28_20-38-07_260595134347_rgbf000026-resize_2-target.png,1000,4.742,1,3747,999,meters,jsons/v1_VE1000_randls_60_rotated.json,628823,736378,35,Man
81,165894,DepthScenes,duration_manipulation_targetAtFixation,jsons/v1_VE1000_randls_60_rotated.json,http://54.235.29.9/FacialAge/BNav_EC2/DepthDuration/v2_depth_duration_MTurk/v2_DepthDuration_HTML.html#328,328,1070,602,1070,602,8-29-2022,15-4-49,82,depth_duration_stimuli/002570_2014-06-24_13-59-54_094959634447_rgbf000059-resize_0/002570_2014-06-24_13-59-54_094959634447_rgbf000059-resize_0-target.png,1000,4.037,1,2643,1000,meters,jsons/v1_VE1000_randls_60_rotated.json,628823,736378,35,Man
82,165894,DepthScenes,duration_manipulation_targetAtFixation,jsons/v1_VE1000_randls_60_rotated.json,http://54.235.29.9/FacialAge/BNav_EC2/DepthDuration/v2_depth_duration_MTurk/v2_DepthDuration_HTML.html#328,328,1070,602,1070,602,8-29-2022,15-4-49,83,depth_duration_stimuli/001516_2014-06-20_16-25-09_260595134347_rgbf000076-resize_2/001516_2014-06-20_16-25-09_260595134347_rgbf000076-resize_2-target.png,1000,1.7445,1,3260,999,meters,jsons/v1_VE1000_randls_60_rotated.json,628823,736378,35,Man
83,165894,DepthScenes,duration_manipulation_targetAtFixation,jsons/v1_VE1000_randls_60_rotated.json,http://54.235.29.9/FacialAge/BNav_EC2/DepthDuration/v2_depth_duration_MTurk/v2_DepthDuration_HTML.html#328,328,1070,602,1070,602,8-29-2022,15-4-49,84,depth_duration_stimuli/002118_2014-06-25_20-32-08_260595134347_rgbf000078-resize_1/002118_2014-06-25_20-32-08_260595134347_rgbf000078-resize_1-target.png,1000,2.6460000000000004,0,2596,999,meters,jsons/v1_VE1000_randls_60_rotated.json,628823,736378,35,Man
84,165894,DepthScenes,duration_manipulation_targetAtFixation,jsons/v1_VE1000_randls_60_rotated.json,http://54.235.29.9/FacialAge/BNav_EC2/DepthDuration/v2_depth_duration_MTurk/v2_DepthDuration_HTML.html#328,328,1070,602,1070,602,8-29-2022,15-4-49,85,depth_duration_stimuli/002657_2014-06-13_15-29-54_094959634447_rgbf000150-resize_1/002657_2014-06-13_15-29-54_094959634447_rgbf000150-resize_1-target.png,1000,4.919,3,3787,982,meters,jsons/v1_VE1000_randls_60_rotated.json,628823,736378,35,Man
85,165894,DepthScenes,duration_manipulation_targetAtFixation,jsons/v1_VE1000_randls_60_rotated.json,http://54.235.29.9/FacialAge/BNav_EC2/DepthDuration/v2_depth_duration_MTurk/v2_DepthDuration_HTML.html#328,328,1070,602,1070,602,8-29-2022,15-4-49,86,depth_duration_stimuli/002375_2014-06-28_20-13-44_260595134347_rgbf000032-resize_1/002375_2014-06-28_20-13-44_260595134347_rgbf000032-resize_1-target.png,1000,4.0175,2,2601,975,meters,jsons/v1_VE1000_randls_60_rotated.json,628823,736378,35,Man
86,165894,DepthScenes,duration_manipulation_targetAtFixation,jsons/v1_VE1000_randls_60_rotated.json,http://54.235.29.9/FacialAge/BNav_EC2/DepthDuration/v2_depth_duration_MTurk/v2_DepthDuration_HTML.html#328,328,1070,602,1070,602,8-29-2022,15-4-49,87,depth_duration_stimuli/003010_2014-06-15_12-54-35_094959634447_rgbf000112-resize_0/003010_2014-06-15_12-54-35_094959634447_rgbf000112-resize_0-target.png,1000,3.1185,1,2816,1003,meters,jsons/v1_VE1000_randls_60_rotated.json,628823,736378,35,Man
87,165894,DepthScenes,duration_manipulation_targetAtFixation,jsons/v1_VE1000_randls_60_rotated.json,http://54.235.29.9/FacialAge/BNav_EC2/DepthDuration/v2_depth_duration_MTurk/v2_DepthDuration_HTML.html#328,328,1070,602,1070,602,8-29-2022,15-4-49,88,depth_duration_stimuli/001810_2014-06-26_20-51-35_260595134347_rgbf000040-resize_3/001810_2014-06-26_20-51-35_260595134347_rgbf000040-resize_3-target.png,1000,2.2525,1,3595,999,meters,jsons/v1_VE1000_randls_60_rotated.json,628823,736378,35,Man
88,165894,DepthScenes,duration_manipulation_targetAtFixation,jsons/v1_VE1000_randls_60_rotated.json,http://54.235.29.9/FacialAge/BNav_EC2/DepthDuration/v2_depth_duration_MTurk/v2_DepthDuration_HTML.html#328,328,1070,602,1070,602,8-29-2022,15-4-49,89,depth_duration_stimuli/001450_2014-06-19_17-02-03_260595134347_rgbf000203-resize_4/001450_2014-06-19_17-02-03_260595134347_rgbf000203-resize_4-target.png,1000,4.0106666666667,0,2936,1000,meters,jsons/v1_VE1000_randls_60_rotated.json,628823,736378,35,Man
89,165894,DepthScenes,duration_manipulation_targetAtFixation,jsons/v1_VE1000_randls_60_rotated.json,http://54.235.29.9/FacialAge/BNav_EC2/DepthDuration/v2_depth_duration_MTurk/v2_DepthDuration_HTML.html#328,328,1070,602,1070,602,8-29-2022,15-4-49,90,depth_duration_stimuli/001449_2014-06-19_17-01-27_260595134347_rgbf000116-resize_2/001449_2014-06-19_17-01-27_260595134347_rgbf000116-resize_2-target.png,1000,3.452,0,2682,983,meters,jsons/v1_VE1000_randls_60_rotated.json,628823,736378,35,Man
90,165894,DepthScenes,duration_manipulation_targetAtFixation,jsons/v1_VE1000_randls_60_rotated.json,http://54.235.29.9/FacialAge/BNav_EC2/DepthDuration/v2_depth_duration_MTurk/v2_DepthDuration_HTML.html#328,328,1070,602,1070,602,8-29-2022,15-4-49,91,depth_duration_stimuli/003338_2014-05-20_11-01-23_094959634447_rgbf000051-resize_6/003338_2014-05-20_11-01-23_094959634447_rgbf000051-resize_6-target.png,1000,1.693,0,2671,1002,meters,jsons/v1_VE1000_randls_60_rotated.json,628823,736378,35,Man
91,165894,DepthScenes,duration_manipulation_targetAtFixation,jsons/v1_VE1000_randls_60_rotated.json,http://54.235.29.9/FacialAge/BNav_EC2/DepthDuration/v2_depth_duration_MTurk/v2_DepthDuration_HTML.html#328,328,1070,602,1070,602,8-29-2022,15-4-49,92,depth_duration_stimuli/002509_2014-06-24_13-19-22_094959634447_rgbf000077-resize_0/002509_2014-06-24_13-19-22_094959634447_rgbf000077-resize_0-target.png,1000,1.3065,0,2724,999,meters,jsons/v1_VE1000_randls_60_rotated.json,628823,736378,35,Man
92,165894,DepthScenes,duration_manipulation_targetAtFixation,jsons/v1_VE1000_randls_60_rotated.json,http://54.235.29.9/FacialAge/BNav_EC2/DepthDuration/v2_depth_duration_MTurk/v2_DepthDuration_HTML.html#328,328,1070,602,1070,602,8-29-2022,15-4-49,93,depth_duration_stimuli/003081_2014-06-15_15-19-16_094959634447_rgbf000150-resize_1/003081_2014-06-15_15-19-16_094959634447_rgbf000150-resize_1-target.png,1000,3.9125,0,3953,999,meters,jsons/v1_VE1000_randls_60_rotated.json,628823,736378,35,Man
93,165894,DepthScenes,duration_manipulation_targetAtFixation,jsons/v1_VE1000_randls_60_rotated.json,http://54.235.29.9/FacialAge/BNav_EC2/DepthDuration/v2_depth_duration_MTurk/v2_DepthDuration_HTML.html#328,328,1070,602,1070,602,8-29-2022,15-4-49,94,depth_duration_stimuli/001417_2014-06-19_16-25-36_260595134347_rgbf000115-resize_5/001417_2014-06-19_16-25-36_260595134347_rgbf000115-resize_5-target.png,1000,4.6255,0,3257,1002,meters,jsons/v1_VE1000_randls_60_rotated.json,628823,736378,35,Man
94,165894,DepthScenes,duration_manipulation_targetAtFixation,jsons/v1_VE1000_randls_60_rotated.json,http://54.235.29.9/FacialAge/BNav_EC2/DepthDuration/v2_depth_duration_MTurk/v2_DepthDuration_HTML.html#328,328,1070,602,1070,602,8-29-2022,15-4-49,95,depth_duration_stimuli/002758_2014-06-22_19-11-20_094959634447_rgbf000128-resize_1/002758_2014-06-22_19-11-20_094959634447_rgbf000128-resize_1-target.png,1000,2.555,0,2819,999,meters,jsons/v1_VE1000_randls_60_rotated.json,628823,736378,35,Man
95,165894,DepthScenes,duration_manipulation_targetAtFixation,jsons/v1_VE1000_randls_60_rotated.json,http://54.235.29.9/FacialAge/BNav_EC2/DepthDuration/v2_depth_duration_MTurk/v2_DepthDuration_HTML.html#328,328,1070,602,1070,602,8-29-2022,15-4-49,96,depth_duration_stimuli/002630_2014-06-24_14-47-50_094959634447_rgbf000055-resize_1/002630_2014-06-24_14-47-50_094959634447_rgbf000055-resize_1-target.png,1000,3.0095,0,2736,1000,meters,jsons/v1_VE1000_randls_60_rotated.json,628823,736378,35,Man
96,165894,DepthScenes,duration_manipulation_targetAtFixation,jsons/v1_VE1000_randls_60_rotated.json,http://54.235.29.9/FacialAge/BNav_EC2/DepthDuration/v2_depth_duration_MTurk/v2_DepthDuration_HTML.html#328,328,1070,602,1070,602,8-29-2022,15-4-49,97,depth_duration_stimuli/002805_2014-06-22_19-54-03_094959634447_rgbf000079-resize_1/002805_2014-06-22_19-54-03_094959634447_rgbf000079-resize_1-target.png,1000,3.1439999999999997,0,2833,986,meters,jsons/v1_VE1000_randls_60_rotated.json,628823,736378,35,Man
97,165894,DepthScenes,duration_manipulation_targetAtFixation,jsons/v1_VE1000_randls_60_rotated.json,http://54.235.29.9/FacialAge/BNav_EC2/DepthDuration/v2_depth_duration_MTurk/v2_DepthDuration_HTML.html#328,328,1070,602,1070,602,8-29-2022,15-4-49,98,depth_duration_stimuli/000906_2014-06-08_13-35-43_260595134347_rgbf000155-resize_1/000906_2014-06-08_13-35-43_260595134347_rgbf000155-resize_1-target.png,1000,2.8489999999999998,0,2782,1000,meters,jsons/v1_VE1000_randls_60_rotated.json,628823,736378,35,Man
98,165894,DepthScenes,duration_manipulation_targetAtFixation,jsons/v1_VE1000_randls_60_rotated.json,http://54.235.29.9/FacialAge/BNav_EC2/DepthDuration/v2_depth_duration_MTurk/v2_DepthDuration_HTML.html#328,328,1070,602,1070,602,8-29-2022,15-4-49,99,depth_duration_stimuli/001222_2014-06-17_16-24-06_260595134347_rgbf000073-resize_0/001222_2014-06-17_16-24-06_260595134347_rgbf000073-resize-original.jpg,1000,1.4385,0,2668,994,meters,jsons/v1_VE1000_randls_60_rotated.json,628823,736378,35,Man
99,165894,DepthScenes,duration_manipulation_targetAtFixation,jsons/v1_VE1000_randls_60_rotated.json,http://54.235.29.9/FacialAge/BNav_EC2/DepthDuration/v2_depth_duration_MTurk/v2_DepthDuration_HTML.html#328,328,1070,602,1070,602,8-29-2022,15-4-49,100,depth_duration_stimuli/002344_2014-06-28_20-06-29_260595134347_rgbf000030-resize_1/002344_2014-06-28_20-06-29_260595134347_rgbf000030-resize_1-target.png,1000,1.5795,0,2530,1015,meters,jsons/v1_VE1000_randls_60_rotated.json,628823,736378,35,Man
100,165894,DepthScenes,duration_manipulation_targetAtFixation,jsons/v1_VE1000_randls_60_rotated.json,http://54.235.29.9/FacialAge/BNav_EC2/DepthDuration/v2_depth_duration_MTurk/v2_DepthDuration_HTML.html#328,328,1070,602,1070,602,8-29-2022,15-4-49,101,depth_duration_stimuli/002725_2014-06-22_11-47-51_094959634447_rgbf000070-resize_1/002725_2014-06-22_11-47-51_094959634447_rgbf000070-resize_1-target.png,1000,2.195,0,3024,999,meters,jsons/v1_VE1000_randls_60_rotated.json,628823,736378,35,Man
101,165894,DepthScenes,duration_manipulation_targetAtFixation,jsons/v1_VE1000_randls_60_rotated.json,http://54.235.29.9/FacialAge/BNav_EC2/DepthDuration/v2_depth_duration_MTurk/v2_DepthDuration_HTML.html#328,328,1070,602,1070,602,8-29-2022,15-4-49,102,depth_duration_stimuli/000749_2014-06-08_21-55-06_260595134347_rgbf000070-resize_2/000749_2014-06-08_21-55-06_260595134347_rgbf000070-resize_2-target.png,1000,2.331,0,3134,1003,meters,jsons/v1_VE1000_randls_60_rotated.json,628823,736378,35,Man
102,165894,DepthScenes,duration_manipulation_targetAtFixation,jsons/v1_VE1000_randls_60_rotated.json,http://54.235.29.9/FacialAge/BNav_EC2/DepthDuration/v2_depth_duration_MTurk/v2_DepthDuration_HTML.html#328,328,1070,602,1070,602,8-29-2022,15-4-49,103,depth_duration_stimuli/002788_2014-06-22_19-36-03_094959634447_rgbf000088-resize_2/002788_2014-06-22_19-36-03_094959634447_rgbf000088-resize_2-target.png,1000,1.6465,0,2755,995,meters,jsons/v1_VE1000_randls_60_rotated.json,628823,736378,35,Man
103,165894,DepthScenes,duration_manipulation_targetAtFixation,jsons/v1_VE1000_randls_60_rotated.json,http://54.235.29.9/FacialAge/BNav_EC2/DepthDuration/v2_depth_duration_MTurk/v2_DepthDuration_HTML.html#328,328,1070,602,1070,602,8-29-2022,15-4-49,104,depth_duration_stimuli/000549_2014-06-08_22-10-24_260595134347_rgbf000247-resize_3/000549_2014-06-08_22-10-24_260595134347_rgbf000247-resize_3-target.png,1000,1.841,0,2365,1000,meters,jsons/v1_VE1000_randls_60_rotated.json,628823,736378,35,Man
104,165894,DepthScenes,duration_manipulation_targetAtFixation,jsons/v1_VE1000_randls_60_rotated.json,http://54.235.29.9/FacialAge/BNav_EC2/DepthDuration/v2_depth_duration_MTurk/v2_DepthDuration_HTML.html#328,328,1070,602,1070,602,8-29-2022,15-4-49,105,depth_duration_stimuli/001055_2014-06-08_18-45-35_260595134347_rgbf000111-resize_4/001055_2014-06-08_18-45-35_260595134347_rgbf000111-resize_4-target.png,1000,2.4290000000000003,1,2785,980,meters,jsons/v1_VE1000_randls_60_rotated.json,628823,736378,35,Man
105,165894,DepthScenes,duration_manipulation_targetAtFixation,jsons/v1_VE1000_randls_60_rotated.json,http://54.235.29.9/FacialAge/BNav_EC2/DepthDuration/v2_depth_duration_MTurk/v2_DepthDuration_HTML.html#328,328,1070,602,1070,602,8-29-2022,15-4-49,106,depth_duration_stimuli/000691_2014-06-08_13-08-50_260595134347_rgbf000132-resize_3/000691_2014-06-08_13-08-50_260595134347_rgbf000132-resize_3-target.png,1000,4.1530000000000005,2,2824,1004,meters,jsons/v1_VE1000_randls_60_rotated.json,628823,736378,35,Man
106,165894,DepthScenes,duration_manipulation_targetAtFixation,jsons/v1_VE1000_randls_60_rotated.json,http://54.235.29.9/FacialAge/BNav_EC2/DepthDuration/v2_depth_duration_MTurk/v2_DepthDuration_HTML.html#328,328,1070,602,1070,602,8-29-2022,15-4-49,107,depth_duration_stimuli/002213_2014-06-28_18-37-58_260595134347_rgbf000055-resize_1/002213_2014-06-28_18-37-58_260595134347_rgbf000055-resize_1-target.png,1000,3.62,1,2544,999,meters,jsons/v1_VE1000_randls_60_rotated.json,628823,736378,35,Man
107,165894,DepthScenes,duration_manipulation_targetAtFixation,jsons/v1_VE1000_randls_60_rotated.json,http://54.235.29.9/FacialAge/BNav_EC2/DepthDuration/v2_depth_duration_MTurk/v2_DepthDuration_HTML.html#328,328,1070,602,1070,602,8-29-2022,15-4-49,108,depth_duration_stimuli/000109_2014-05-14_23-41-52_260595134347_rgbf000035-resize_9/000109_2014-05-14_23-41-52_260595134347_rgbf000035-resize_9-target.png,1000,1.3545,2,3290,1015,meters,jsons/v1_VE1000_randls_60_rotated.json,628823,736378,35,Man
108,165894,DepthScenes,duration_manipulation_targetAtFixation,jsons/v1_VE1000_randls_60_rotated.json,http://54.235.29.9/FacialAge/BNav_EC2/DepthDuration/v2_depth_duration_MTurk/v2_DepthDuration_HTML.html#328,328,1070,602,1070,602,8-29-2022,15-4-49,109,depth_duration_stimuli/000470_2014-06-09_19-42-40_260595134347_rgbf000094-resize_1/000470_2014-06-09_19-42-40_260595134347_rgbf000094-resize_1-target.png,1000,1.831,1,3798,1000,meters,jsons/v1_VE1000_randls_60_rotated.json,628823,736378,35,Man
109,165894,DepthScenes,duration_manipulation_targetAtFixation,jsons/v1_VE1000_randls_60_rotated.json,http://54.235.29.9/FacialAge/BNav_EC2/DepthDuration/v2_depth_duration_MTurk/v2_DepthDuration_HTML.html#328,328,1070,602,1070,602,8-29-2022,15-4-49,110,depth_duration_stimuli/003490_2014-05-21_15-50-11_094959634447_rgbf000101-resize_3/003490_2014-05-21_15-50-11_094959634447_rgbf000101-resize_3-target.png,1000,3.6445,1,2550,999,meters,jsons/v1_VE1000_randls_60_rotated.json,628823,736378,35,Man
110,165894,DepthScenes,duration_manipulation_targetAtFixation,jsons/v1_VE1000_randls_60_rotated.json,http://54.235.29.9/FacialAge/BNav_EC2/DepthDuration/v2_depth_duration_MTurk/v2_DepthDuration_HTML.html#328,328,1070,602,1070,602,8-29-2022,15-4-49,111,depth_duration_stimuli/001175_2014-06-17_15-45-55_260595134347_rgbf000129-resize_4/001175_2014-06-17_15-45-55_260595134347_rgbf000129-resize_4-target.png,1000,4.255,2,3174,1000,meters,jsons/v1_VE1000_randls_60_rotated.json,628823,736378,35,Man
111,165894,DepthScenes,duration_manipulation_targetAtFixation,jsons/v1_VE1000_randls_60_rotated.json,http://54.235.29.9/FacialAge/BNav_EC2/DepthDuration/v2_depth_duration_MTurk/v2_DepthDuration_HTML.html#328,328,1070,602,1070,602,8-29-2022,15-4-49,112,depth_duration_stimuli/003129_2014-05-12_10-48-10_094959634447_rgbf000100-resize_0/003129_2014-05-12_10-48-10_094959634447_rgbf000100-resize_0-target.png,1000,4.9305,0,4884,1000,meters,jsons/v1_VE1000_randls_60_rotated.json,628823,736378,35,Man
112,165894,DepthScenes,duration_manipulation_targetAtFixation,jsons/v1_VE1000_randls_60_rotated.json,http://54.235.29.9/FacialAge/BNav_EC2/DepthDuration/v2_depth_duration_MTurk/v2_DepthDuration_HTML.html#328,328,1070,602,1070,602,8-29-2022,15-4-49,113,depth_duration_stimuli/000414_2014-06-04_19-49-13_260595134347_rgbf000044-resize_0/000414_2014-06-04_19-49-13_260595134347_rgbf000044-resize_0-target.png,1000,4.329,0,5283,998,meters,jsons/v1_VE1000_randls_60_rotated.json,628823,736378,35,Man
113,165894,DepthScenes,duration_manipulation_targetAtFixation,jsons/v1_VE1000_randls_60_rotated.json,http://54.235.29.9/FacialAge/BNav_EC2/DepthDuration/v2_depth_duration_MTurk/v2_DepthDuration_HTML.html#328,328,1070,602,1070,602,8-29-2022,15-4-49,114,depth_duration_stimuli/002949_2014-06-26_15-57-42_094959634447_rgbf000079-resize_1/002949_2014-06-26_15-57-42_094959634447_rgbf000079-resize_1-target.png,1000,1.8915,0,3174,1000,meters,jsons/v1_VE1000_randls_60_rotated.json,628823,736378,35,Man
114,165894,DepthScenes,duration_manipulation_targetAtFixation,jsons/v1_VE1000_randls_60_rotated.json,http://54.235.29.9/FacialAge/BNav_EC2/DepthDuration/v2_depth_duration_MTurk/v2_DepthDuration_HTML.html#328,328,1070,602,1070,602,8-29-2022,15-4-49,115,depth_duration_stimuli/000522_2014-06-08_13-35-06_260595134347_rgbf000244-resize_1/000522_2014-06-08_13-35-06_260595134347_rgbf000244-resize_1-target.png,1000,2.3715,0,2668,1000,meters,jsons/v1_VE1000_randls_60_rotated.json,628823,736378,35,Man
115,165894,DepthScenes,duration_manipulation_targetAtFixation,jsons/v1_VE1000_randls_60_rotated.json,http://54.235.29.9/FacialAge/BNav_EC2/DepthDuration/v2_depth_duration_MTurk/v2_DepthDuration_HTML.html#328,328,1070,602,1070,602,8-29-2022,15-4-49,116,depth_duration_stimuli/002660_2014-06-13_15-44-18_094959634447_rgbf001878-resize_2/002660_2014-06-13_15-44-18_094959634447_rgbf001878-resize_2-target.png,1000,3.576,1,3056,982,meters,jsons/v1_VE1000_randls_60_rotated.json,628823,736378,35,Man
116,165894,DepthScenes,duration_manipulation_targetAtFixation,jsons/v1_VE1000_randls_60_rotated.json,http://54.235.29.9/FacialAge/BNav_EC2/DepthDuration/v2_depth_duration_MTurk/v2_DepthDuration_HTML.html#328,328,1070,602,1070,602,8-29-2022,15-4-49,117,depth_duration_stimuli/002153_2014-06-25_21-27-18_260595134347_rgbf000038-resize_5/002153_2014-06-25_21-27-18_260595134347_rgbf000038-resize_5-target.png,1000,2.505,2,2554,999,meters,jsons/v1_VE1000_randls_60_rotated.json,628823,736378,35,Man
117,165894,DepthScenes,duration_manipulation_targetAtFixation,jsons/v1_VE1000_randls_60_rotated.json,http://54.235.29.9/FacialAge/BNav_EC2/DepthDuration/v2_depth_duration_MTurk/v2_DepthDuration_HTML.html#328,328,1070,602,1070,602,8-29-2022,15-4-49,118,depth_duration_stimuli/000854_2014-06-09_19-43-13_260595134347_rgbf000066-resize_0/000854_2014-06-09_19-43-13_260595134347_rgbf000066-resize_0-target.png,1000,3.068,1,2943,1000,meters,jsons/v1_VE1000_randls_60_rotated.json,628823,736378,35,Man
118,165894,DepthScenes,duration_manipulation_targetAtFixation,jsons/v1_VE1000_randls_60_rotated.json,http://54.235.29.9/FacialAge/BNav_EC2/DepthDuration/v2_depth_duration_MTurk/v2_DepthDuration_HTML.html#328,328,1070,602,1070,602,8-29-2022,15-4-49,119,depth_duration_stimuli/000758_2014-06-08_22-05-08_260595134347_rgbf000085-resize_0/000758_2014-06-08_22-05-08_260595134347_rgbf000085-resize_0-target.png,1000,3.3810000000000002,0,2659,1014,meters,jsons/v1_VE1000_randls_60_rotated.json,628823,736378,35,Man
119,165894,DepthScenes,duration_manipulation_targetAtFixation,jsons/v1_VE1000_randls_60_rotated.json,http://54.235.29.9/FacialAge/BNav_EC2/DepthDuration/v2_depth_duration_MTurk/v2_DepthDuration_HTML.html#328,328,1070,602,1070,602,8-29-2022,15-4-49,120,depth_duration_stimuli/000787_2014-06-08_22-33-53_260595134347_rgbf000175-resize_1/000787_2014-06-08_22-33-53_260595134347_rgbf000175-resize-original.jpg,1000,4.784,1,2971,999,meters,jsons/v1_VE1000_randls_60_rotated.json,628823,736378,35,Man
120,165894,DepthScenes,duration_manipulation_targetAtFixation,jsons/v1_VE1000_randls_60_rotated.json,http://54.235.29.9/FacialAge/BNav_EC2/DepthDuration/v2_depth_duration_MTurk/v2_DepthDuration_HTML.html#328,328,1070,602,1070,602,8-29-2022,15-4-49,121,depth_duration_stimuli/002545_2014-06-24_13-38-53_094959634447_rgbf000080-resize_4/002545_2014-06-24_13-38-53_094959634447_rgbf000080-resize_4-target.png,1000,1.9205,0,2779,984,meters,jsons/v1_VE1000_randls_60_rotated.json,628823,736378,35,Man
121,165894,DepthScenes,duration_manipulation_targetAtFixation,jsons/v1_VE1000_randls_60_rotated.json,http://54.235.29.9/FacialAge/BNav_EC2/DepthDuration/v2_depth_duration_MTurk/v2_DepthDuration_HTML.html#328,328,1070,602,1070,602,8-29-2022,15-4-49,122,depth_duration_stimuli/001092_2014-06-15_17-34-58_260595134347_rgbf000171-resize_3/001092_2014-06-15_17-34-58_260595134347_rgbf000171-resize_3-target.png,1000,2.6935,0,2554,996,meters,jsons/v1_VE1000_randls_60_rotated.json,628823,736378,35,Man
122,165894,DepthScenes,duration_manipulation_targetAtFixation,jsons/v1_VE1000_randls_60_rotated.json,http://54.235.29.9/FacialAge/BNav_EC2/DepthDuration/v2_depth_duration_MTurk/v2_DepthDuration_HTML.html#328,328,1070,602,1070,602,8-29-2022,15-4-49,123,depth_duration_stimuli/003079_2014-06-15_15-18-20_094959634447_rgbf000152-resize_8/003079_2014-06-15_15-18-20_094959634447_rgbf000152-resize_8-target.png,1000,2.8775,0,2884,998,meters,jsons/v1_VE1000_randls_60_rotated.json,628823,736378,35,Man
123,165894,DepthScenes,duration_manipulation_targetAtFixation,jsons/v1_VE1000_randls_60_rotated.json,http://54.235.29.9/FacialAge/BNav_EC2/DepthDuration/v2_depth_duration_MTurk/v2_DepthDuration_HTML.html#328,328,1070,602,1070,602,8-29-2022,15-4-49,124,depth_duration_stimuli/000506_2014-06-08_23-21-00_260595134347_rgbf000070-resize_7/000506_2014-06-08_23-21-00_260595134347_rgbf000070-resize_7-target.png,1000,4.0585,0,2419,977,meters,jsons/v1_VE1000_randls_60_rotated.json,628823,736378,35,Man
124,165894,DepthScenes,duration_manipulation_targetAtFixation,jsons/v1_VE1000_randls_60_rotated.json,http://54.235.29.9/FacialAge/BNav_EC2/DepthDuration/v2_depth_duration_MTurk/v2_DepthDuration_HTML.html#328,328,1070,602,1070,602,8-29-2022,15-4-49,125,depth_duration_stimuli/003228_2014-05-14_13-42-35_094959634447_rgbf000101-resize_1/003228_2014-05-14_13-42-35_094959634447_rgbf000101-resize_1-target.png,1000,1.9680000000000002,0,2403,1002,meters,jsons/v1_VE1000_randls_60_rotated.json,628823,736378,35,Man
125,165894,DepthScenes,duration_manipulation_targetAtFixation,jsons/v1_VE1000_randls_60_rotated.json,http://54.235.29.9/FacialAge/BNav_EC2/DepthDuration/v2_depth_duration_MTurk/v2_DepthDuration_HTML.html#328,328,1070,602,1070,602,8-29-2022,15-4-49,126,depth_duration_stimuli/002600_2014-06-24_14-27-04_094959634447_rgbf000074-resize_2/002600_2014-06-24_14-27-04_094959634447_rgbf000074-resize_2-target.png,1000,2.7575,0,2605,1000,meters,jsons/v1_VE1000_randls_60_rotated.json,628823,736378,35,Man
126,165894,DepthScenes,duration_manipulation_targetAtFixation,jsons/v1_VE1000_randls_60_rotated.json,http://54.235.29.9/FacialAge/BNav_EC2/DepthDuration/v2_depth_duration_MTurk/v2_DepthDuration_HTML.html#328,328,1070,602,1070,602,8-29-2022,15-4-49,127,depth_duration_stimuli/001447_2014-06-19_17-00-32_260595134347_rgbf000082-resize_5/001447_2014-06-19_17-00-32_260595134347_rgbf000082-resize_5-target.png,1000,4.13775,0,4804,999,meters,jsons/v1_VE1000_randls_60_rotated.json,628823,736378,35,Man
127,165894,DepthScenes,duration_manipulation_targetAtFixation,jsons/v1_VE1000_randls_60_rotated.json,http://54.235.29.9/FacialAge/BNav_EC2/DepthDuration/v2_depth_duration_MTurk/v2_DepthDuration_HTML.html#328,328,1070,602,1070,602,8-29-2022,15-4-49,128,depth_duration_stimuli/000447_2014-06-08_16-15-46_260595134347_rgbf000130-resize_1/000447_2014-06-08_16-15-46_260595134347_rgbf000130-resize_1-target.png,1000,4.479,0,3091,950,meters,jsons/v1_VE1000_randls_60_rotated.json,628823,736378,35,Man
128,165894,DepthScenes,duration_manipulation_targetAtFixation,jsons/v1_VE1000_randls_60_rotated.json,http://54.235.29.9/FacialAge/BNav_EC2/DepthDuration/v2_depth_duration_MTurk/v2_DepthDuration_HTML.html#328,328,1070,602,1070,602,8-29-2022,15-4-49,129,depth_duration_stimuli/002425_2014-06-28_20-27-29_260595134347_rgbf000031-resize_8/002425_2014-06-28_20-27-29_260595134347_rgbf000031-resize_8-target.png,1000,3.8960000000000004,0,2556,999,meters,jsons/v1_VE1000_randls_60_rotated.json,628823,736378,35,Man
129,165894,DepthScenes,duration_manipulation_targetAtFixation,jsons/v1_VE1000_randls_60_rotated.json,http://54.235.29.9/FacialAge/BNav_EC2/DepthDuration/v2_depth_duration_MTurk/v2_DepthDuration_HTML.html#328,328,1070,602,1070,602,8-29-2022,15-4-49,130,depth_duration_stimuli/000642_2014-06-08_16-59-25_260595134347_rgbf000098-resize_2/000642_2014-06-08_16-59-25_260595134347_rgbf000098-resize_2-target.png,1000,2.8815,0,2879,986,meters,jsons/v1_VE1000_randls_60_rotated.json,628823,736378,35,Man
130,165894,DepthScenes,duration_manipulation_targetAtFixation,jsons/v1_VE1000_randls_60_rotated.json,http://54.235.29.9/FacialAge/BNav_EC2/DepthDuration/v2_depth_duration_MTurk/v2_DepthDuration_HTML.html#328,328,1070,602,1070,602,8-29-2022,15-4-49,131,depth_duration_stimuli/002875_2014-06-01_15-19-00_094959634447_rgbf000151-resize_1/002875_2014-06-01_15-19-00_094959634447_rgbf000151-resize_1-target.png,1000,1.9675,0,2576,1000,meters,jsons/v1_VE1000_randls_60_rotated.json,628823,736378,35,Man
131,165894,DepthScenes,duration_manipulation_targetAtFixation,jsons/v1_VE1000_randls_60_rotated.json,http://54.235.29.9/FacialAge/BNav_EC2/DepthDuration/v2_depth_duration_MTurk/v2_DepthDuration_HTML.html#328,328,1070,602,1070,602,8-29-2022,15-4-49,132,depth_duration_stimuli/001011_2014-06-08_23-18-54_260595134347_rgbf000044-resize_4/001011_2014-06-08_23-18-54_260595134347_rgbf000044-resize_4-target.png,1000,2.4730000000000003,0,2889,998,meters,jsons/v1_VE1000_randls_60_rotated.json,628823,736378,35,Man
132,165894,DepthScenes,duration_manipulation_targetAtFixation,jsons/v1_VE1000_randls_60_rotated.json,http://54.235.29.9/FacialAge/BNav_EC2/DepthDuration/v2_depth_duration_MTurk/v2_DepthDuration_HTML.html#328,328,1070,602,1070,602,8-29-2022,15-4-49,133,depth_duration_stimuli/002568_2014-06-24_13-59-21_094959634447_rgbf000062-resize_4/002568_2014-06-24_13-59-21_094959634447_rgbf000062-resize_4-target.png,1000,3.015,0,2700,1001,meters,jsons/v1_VE1000_randls_60_rotated.json,628823,736378,35,Man
133,165894,DepthScenes,duration_manipulation_targetAtFixation,jsons/v1_VE1000_randls_60_rotated.json,http://54.235.29.9/FacialAge/BNav_EC2/DepthDuration/v2_depth_duration_MTurk/v2_DepthDuration_HTML.html#328,328,1070,602,1070,602,8-29-2022,15-4-49,134,depth_duration_stimuli/003492_2014-05-21_15-50-55_094959634447_rgbf000828-resize_1/003492_2014-05-21_15-50-55_094959634447_rgbf000828-resize_1-target.png,1000,4.06875,0,2800,1015,meters,jsons/v1_VE1000_randls_60_rotated.json,628823,736378,35,Man
134,165894,DepthScenes,duration_manipulation_targetAtFixation,jsons/v1_VE1000_randls_60_rotated.json,http://54.235.29.9/FacialAge/BNav_EC2/DepthDuration/v2_depth_duration_MTurk/v2_DepthDuration_HTML.html#328,328,1070,602,1070,602,8-29-2022,15-4-49,135,depth_duration_stimuli/000375_2014-06-08_11-17-29_260595134347_rgbf000133-resize_2/000375_2014-06-08_11-17-29_260595134347_rgbf000133-resize-original.jpg,1000,4.718,0,2803,1015,meters,jsons/v1_VE1000_randls_60_rotated.json,628823,736378,35,Man
135,165894,DepthScenes,duration_manipulation_targetAtFixation,jsons/v1_VE1000_randls_60_rotated.json,http://54.235.29.9/FacialAge/BNav_EC2/DepthDuration/v2_depth_duration_MTurk/v2_DepthDuration_HTML.html#328,328,1070,602,1070,602,8-29-2022,15-4-49,136,depth_duration_stimuli/002199_2014-06-28_18-33-56_260595134347_rgbf000074-resize_0/002199_2014-06-28_18-33-56_260595134347_rgbf000074-resize_0-target.png,1000,1.996,0,2747,1005,meters,jsons/v1_VE1000_randls_60_rotated.json,628823,736378,35,Man
136,165894,DepthScenes,duration_manipulation_targetAtFixation,jsons/v1_VE1000_randls_60_rotated.json,http://54.235.29.9/FacialAge/BNav_EC2/DepthDuration/v2_depth_duration_MTurk/v2_DepthDuration_HTML.html#328,328,1070,602,1070,602,8-29-2022,15-4-49,137,depth_duration_stimuli/001056_2014-06-08_18-46-44_260595134347_rgbf000068-resize_0/001056_2014-06-08_18-46-44_260595134347_rgbf000068-resize_0-target.png,1000,2.6625,0,2585,1002,meters,jsons/v1_VE1000_randls_60_rotated.json,628823,736378,35,Man
137,165894,DepthScenes,duration_manipulation_targetAtFixation,jsons/v1_VE1000_randls_60_rotated.json,http://54.235.29.9/FacialAge/BNav_EC2/DepthDuration/v2_depth_duration_MTurk/v2_DepthDuration_HTML.html#328,328,1070,602,1070,602,8-29-2022,15-4-49,138,depth_duration_stimuli/000866_2014-06-09_20-45-42_260595134347_rgbf000139-resize_1/000866_2014-06-09_20-45-42_260595134347_rgbf000139-resize_1-target.png,1000,3.2155,0,2792,999,meters,jsons/v1_VE1000_randls_60_rotated.json,628823,736378,35,Man
138,165894,DepthScenes,duration_manipulation_targetAtFixation,jsons/v1_VE1000_randls_60_rotated.json,http://54.235.29.9/FacialAge/BNav_EC2/DepthDuration/v2_depth_duration_MTurk/v2_DepthDuration_HTML.html#328,328,1070,602,1070,602,8-29-2022,15-4-49,139,depth_duration_stimuli/002989_2014-06-15_12-25-03_094959634447_rgbf000150-resize_3/002989_2014-06-15_12-25-03_094959634447_rgbf000150-resize_3-target.png,1000,4.1975,0,2608,990,meters,jsons/v1_VE1000_randls_60_rotated.json,628823,736378,35,Man
139,165894,DepthScenes,duration_manipulation_targetAtFixation,jsons/v1_VE1000_randls_60_rotated.json,http://54.235.29.9/FacialAge/BNav_EC2/DepthDuration/v2_depth_duration_MTurk/v2_DepthDuration_HTML.html#328,328,1070,602,1070,602,8-29-2022,15-4-49,140,depth_duration_stimuli/003587_2014-05-23_16-48-02_094959634447_rgbf002384-resize_2/003587_2014-05-23_16-48-02_094959634447_rgbf002384-resize_2-target.png,1000,1.357,0,2685,1000,meters,jsons/v1_VE1000_randls_60_rotated.json,628823,736378,35,Man
140,165894,DepthScenes,duration_manipulation_targetAtFixation,jsons/v1_VE1000_randls_60_rotated.json,http://54.235.29.9/FacialAge/BNav_EC2/DepthDuration/v2_depth_duration_MTurk/v2_DepthDuration_HTML.html#328,328,1070,602,1070,602,8-29-2022,15-4-49,141,depth_duration_stimuli/001167_2014-06-17_15-38-07_260595134347_rgbf000108-resize_0/001167_2014-06-17_15-38-07_260595134347_rgbf000108-resize_0-target.png,1000,1.8505,0,2424,1000,meters,jsons/v1_VE1000_randls_60_rotated.json,628823,736378,35,Man
141,165894,DepthScenes,duration_manipulation_targetAtFixation,jsons/v1_VE1000_randls_60_rotated.json,http://54.235.29.9/FacialAge/BNav_EC2/DepthDuration/v2_depth_duration_MTurk/v2_DepthDuration_HTML.html#328,328,1070,602,1070,602,8-29-2022,15-4-49,142,depth_duration_stimuli/002103_2014-06-25_20-00-40_260595134347_rgbf000049-resize_0/002103_2014-06-25_20-00-40_260595134347_rgbf000049-resize_0-target.png,1000,4.105,0,2454,999,meters,jsons/v1_VE1000_randls_60_rotated.json,628823,736378,35,Man
142,165894,DepthScenes,duration_manipulation_targetAtFixation,jsons/v1_VE1000_randls_60_rotated.json,http://54.235.29.9/FacialAge/BNav_EC2/DepthDuration/v2_depth_duration_MTurk/v2_DepthDuration_HTML.html#328,328,1070,602,1070,602,8-29-2022,15-4-49,143,depth_duration_stimuli/002039_2014-06-24_20-22-38_260595134347_rgbf000084-resize_1/002039_2014-06-24_20-22-38_260595134347_rgbf000084-resize_1-target.png,1000,4.408,0,2843,987,meters,jsons/v1_VE1000_randls_60_rotated.json,628823,736378,35,Man
143,165894,DepthScenes,duration_manipulation_targetAtFixation,jsons/v1_VE1000_randls_60_rotated.json,http://54.235.29.9/FacialAge/BNav_EC2/DepthDuration/v2_depth_duration_MTurk/v2_DepthDuration_HTML.html#328,328,1070,602,1070,602,8-29-2022,15-4-49,144,depth_duration_stimuli/000780_2014-06-08_22-28-29_260595134347_rgbf000126-resize_1/000780_2014-06-08_22-28-29_260595134347_rgbf000126-resize_1-target.png,1000,3.3825,0,2657,1002,meters,jsons/v1_VE1000_randls_60_rotated.json,628823,736378,35,Man
144,165894,DepthScenes,duration_manipulation_targetAtFixation,jsons/v1_VE1000_randls_60_rotated.json,http://54.235.29.9/FacialAge/BNav_EC2/DepthDuration/v2_depth_duration_MTurk/v2_DepthDuration_HTML.html#328,328,1070,602,1070,602,8-29-2022,15-4-49,145,depth_duration_stimuli/002445_2014-06-28_20-32-16_260595134347_rgbf000029-resize_4/002445_2014-06-28_20-32-16_260595134347_rgbf000029-resize_4-target.png,1000,2.5315,0,2668,1000,meters,jsons/v1_VE1000_randls_60_rotated.json,628823,736378,35,Man
145,165894,DepthScenes,duration_manipulation_targetAtFixation,jsons/v1_VE1000_randls_60_rotated.json,http://54.235.29.9/FacialAge/BNav_EC2/DepthDuration/v2_depth_duration_MTurk/v2_DepthDuration_HTML.html#328,328,1070,602,1070,602,8-29-2022,15-4-49,146,depth_duration_stimuli/000665_2014-06-09_20-42-35_260595134347_rgbf000110-resize_1/000665_2014-06-09_20-42-35_260595134347_rgbf000110-resize_1-target.png,1000,3.057,0,3231,999,meters,jsons/v1_VE1000_randls_60_rotated.json,628823,736378,35,Man
146,165894,DepthScenes,duration_manipulation_targetAtFixation,jsons/v1_VE1000_randls_60_rotated.json,http://54.235.29.9/FacialAge/BNav_EC2/DepthDuration/v2_depth_duration_MTurk/v2_DepthDuration_HTML.html#328,328,1070,602,1070,602,8-29-2022,15-4-49,147,depth_duration_stimuli/001150_2014-06-17_15-27-34_260595134347_rgbf000108-resize_2/001150_2014-06-17_15-27-34_260595134347_rgbf000108-resize_2-target.png,1000,4.0325,0,2689,1000,meters,jsons/v1_VE1000_randls_60_rotated.json,628823,736378,35,Man
147,165894,DepthScenes,duration_manipulation_targetAtFixation,jsons/v1_VE1000_randls_60_rotated.json,http://54.235.29.9/FacialAge/BNav_EC2/DepthDuration/v2_depth_duration_MTurk/v2_DepthDuration_HTML.html#328,328,1070,602,1070,602,8-29-2022,15-4-49,148,depth_duration_stimuli/000734_2014-06-08_17-39-11_260595134347_rgbf000128-resize_2/000734_2014-06-08_17-39-11_260595134347_rgbf000128-resize_2-target.png,1000,4.098,0,2955,1000,meters,jsons/v1_VE1000_randls_60_rotated.json,628823,736378,35,Man
148,165894,DepthScenes,duration_manipulation_targetAtFixation,jsons/v1_VE1000_randls_60_rotated.json,http://54.235.29.9/FacialAge/BNav_EC2/DepthDuration/v2_depth_duration_MTurk/v2_DepthDuration_HTML.html#328,328,1070,602,1070,602,8-29-2022,15-4-49,149,depth_duration_stimuli/000739_2014-06-08_18-45-58_260595134347_rgbf000068-resize_1/000739_2014-06-08_18-45-58_260595134347_rgbf000068-resize_1-target.png,1000,3.534,0,4038,993,meters,jsons/v1_VE1000_randls_60_rotated.json,628823,736378,35,Man
149,165894,DepthScenes,duration_manipulation_targetAtFixation,jsons/v1_VE1000_randls_60_rotated.json,http://54.235.29.9/FacialAge/BNav_EC2/DepthDuration/v2_depth_duration_MTurk/v2_DepthDuration_HTML.html#328,328,1070,602,1070,602,8-29-2022,15-4-49,150,depth_duration_stimuli/000502_2014-06-08_23-02-32_260595134347_rgbf000063-resize_4/000502_2014-06-08_23-02-32_260595134347_rgbf000063-resize_4-target.png,1000,2.431,0,3231,983,meters,jsons/v1_VE1000_randls_60_rotated.json,628823,736378,35,Man
150,165894,DepthScenes,duration_manipulation_targetAtFixation,jsons/v1_VE1000_randls_60_rotated.json,http://54.235.29.9/FacialAge/BNav_EC2/DepthDuration/v2_depth_duration_MTurk/v2_DepthDuration_HTML.html#328,328,1070,602,1070,602,8-29-2022,15-4-49,151,depth_duration_stimuli/001199_2014-06-17_16-03-48_260595134347_rgbf000077-resize_0/001199_2014-06-17_16-03-48_260595134347_rgbf000077-resize_0-target.png,1000,3.4375,0,2836,994,meters,jsons/v1_VE1000_randls_60_rotated.json,628823,736378,35,Man
151,165894,DepthScenes,duration_manipulation_targetAtFixation,jsons/v1_VE1000_randls_60_rotated.json,http://54.235.29.9/FacialAge/BNav_EC2/DepthDuration/v2_depth_duration_MTurk/v2_DepthDuration_HTML.html#328,328,1070,602,1070,602,8-29-2022,15-4-49,152,depth_duration_stimuli/000569_2014-06-09_22-51-47_260595134347_rgbf000141-resize_3/000569_2014-06-09_22-51-47_260595134347_rgbf000141-resize-original.jpg,1000,4.512,0,2769,1000,meters,jsons/v1_VE1000_randls_60_rotated.json,628823,736378,35,Man
152,165894,DepthScenes,duration_manipulation_targetAtFixation,jsons/v1_VE1000_randls_60_rotated.json,http://54.235.29.9/FacialAge/BNav_EC2/DepthDuration/v2_depth_duration_MTurk/v2_DepthDuration_HTML.html#328,328,1070,602,1070,602,8-29-2022,15-4-49,153,depth_duration_stimuli/002750_2014-06-22_19-08-03_094959634447_rgbf000094-resize_4/002750_2014-06-22_19-08-03_094959634447_rgbf000094-resize_4-target.png,1000,2.354,0,2536,999,meters,jsons/v1_VE1000_randls_60_rotated.json,628823,736378,35,Man
153,165894,DepthScenes,duration_manipulation_targetAtFixation,jsons/v1_VE1000_randls_60_rotated.json,http://54.235.29.9/FacialAge/BNav_EC2/DepthDuration/v2_depth_duration_MTurk/v2_DepthDuration_HTML.html#328,328,1070,602,1070,602,8-29-2022,15-4-49,154,depth_duration_stimuli/002549_2014-06-24_13-41-39_094959634447_rgbf000022-resize_3/002549_2014-06-24_13-41-39_094959634447_rgbf000022-resize_3-target.png,1000,1.476,0,2487,999,meters,jsons/v1_VE1000_randls_60_rotated.json,628823,736378,35,Man
154,165894,DepthScenes,duration_manipulation_targetAtFixation,jsons/v1_VE1000_randls_60_rotated.json,http://54.235.29.9/FacialAge/BNav_EC2/DepthDuration/v2_depth_duration_MTurk/v2_DepthDuration_HTML.html#328,328,1070,602,1070,602,8-29-2022,15-4-49,155,depth_duration_stimuli/000556_2014-06-09_22-42-56_260595134347_rgbf000214-resize_1/000556_2014-06-09_22-42-56_260595134347_rgbf000214-resize_1-target.png,1000,4.8415,0,10162,984,meters,jsons/v1_VE1000_randls_60_rotated.json,628823,736378,35,Man
155,165894,DepthScenes,duration_manipulation_targetAtFixation,jsons/v1_VE1000_randls_60_rotated.json,http://54.235.29.9/FacialAge/BNav_EC2/DepthDuration/v2_depth_duration_MTurk/v2_DepthDuration_HTML.html#328,328,1070,602,1070,602,8-29-2022,15-4-49,156,depth_duration_stimuli/001158_2014-06-17_15-32-16_260595134347_rgbf000138-resize_2/001158_2014-06-17_15-32-16_260595134347_rgbf000138-resize_2-target.png,1000,4.5315,0,3129,993,meters,jsons/v1_VE1000_randls_60_rotated.json,628823,736378,35,Man
156,165894,DepthScenes,duration_manipulation_targetAtFixation,jsons/v1_VE1000_randls_60_rotated.json,http://54.235.29.9/FacialAge/BNav_EC2/DepthDuration/v2_depth_duration_MTurk/v2_DepthDuration_HTML.html#328,328,1070,602,1070,602,8-29-2022,15-4-49,157,depth_duration_stimuli/002637_2014-06-24_14-51-13_094959634447_rgbf000066-resize_4/002637_2014-06-24_14-51-13_094959634447_rgbf000066-resize_4-target.png,1000,1.9955,0,2609,999,meters,jsons/v1_VE1000_randls_60_rotated.json,628823,736378,35,Man
157,165894,DepthScenes,duration_manipulation_targetAtFixation,jsons/v1_VE1000_randls_60_rotated.json,http://54.235.29.9/FacialAge/BNav_EC2/DepthDuration/v2_depth_duration_MTurk/v2_DepthDuration_HTML.html#328,328,1070,602,1070,602,8-29-2022,15-4-49,158,depth_duration_stimuli/003534_2014-05-22_15-06-10_094959634447_rgbf000102-resize_4/003534_2014-05-22_15-06-10_094959634447_rgbf000102-resize_4-target.png,1000,1.426,0,40262,999,meters,jsons/v1_VE1000_randls_60_rotated.json,628823,736378,35,Man
158,165894,DepthScenes,duration_manipulation_targetAtFixation,jsons/v1_VE1000_randls_60_rotated.json,http://54.235.29.9/FacialAge/BNav_EC2/DepthDuration/v2_depth_duration_MTurk/v2_DepthDuration_HTML.html#328,328,1070,602,1070,602,8-29-2022,15-4-49,159,depth_duration_stimuli/002209_2014-06-28_18-36-10_260595134347_rgbf000051-resize_1/002209_2014-06-28_18-36-10_260595134347_rgbf000051-resize_1-target.png,1000,2.057,0,2576,1016,meters,jsons/v1_VE1000_randls_60_rotated.json,628823,736378,35,Man
159,165894,DepthScenes,duration_manipulation_targetAtFixation,jsons/v1_VE1000_randls_60_rotated.json,http://54.235.29.9/FacialAge/BNav_EC2/DepthDuration/v2_depth_duration_MTurk/v2_DepthDuration_HTML.html#328,328,1070,602,1070,602,8-29-2022,15-4-49,160,depth_duration_stimuli/002763_2014-06-22_19-13-10_094959634447_rgbf000075-resize_4/002763_2014-06-22_19-13-10_094959634447_rgbf000075-resize_4-target.png,1000,1.68375,0,2731,998,meters,jsons/v1_VE1000_randls_60_rotated.json,628823,736378,35,Man
160,165894,DepthScenes,duration_manipulation_targetAtFixation,jsons/v1_VE1000_randls_60_rotated.json,http://54.235.29.9/FacialAge/BNav_EC2/DepthDuration/v2_depth_duration_MTurk/v2_DepthDuration_HTML.html#328,328,1070,602,1070,602,8-29-2022,15-4-49,161,depth_duration_stimuli/002995_2014-06-15_12-31-26_094959634447_rgbf000150-resize_1/002995_2014-06-15_12-31-26_094959634447_rgbf000150-resize_1-target.png,1000,3.8360000000000003,0,3040,998,meters,jsons/v1_VE1000_randls_60_rotated.json,628823,736378,35,Man
161,165894,DepthScenes,duration_manipulation_targetAtFixation,jsons/v1_VE1000_randls_60_rotated.json,http://54.235.29.9/FacialAge/BNav_EC2/DepthDuration/v2_depth_duration_MTurk/v2_DepthDuration_HTML.html#328,328,1070,602,1070,602,8-29-2022,15-4-49,162,depth_duration_stimuli/002748_2014-06-22_19-07-22_094959634447_rgbf000078-resize_1/002748_2014-06-22_19-07-22_094959634447_rgbf000078-resize_1-target.png,1000,4.6705,0,2461,999,meters,jsons/v1_VE1000_randls_60_rotated.json,628823,736378,35,Man
162,165894,DepthScenes,duration_manipulation_targetAtFixation,jsons/v1_VE1000_randls_60_rotated.json,http://54.235.29.9/FacialAge/BNav_EC2/DepthDuration/v2_depth_duration_MTurk/v2_DepthDuration_HTML.html#328,328,1070,602,1070,602,8-29-2022,15-4-49,163,depth_duration_stimuli/000457_2014-06-08_16-52-43_260595134347_rgbf000199-resize_1/000457_2014-06-08_16-52-43_260595134347_rgbf000199-resize_1-target.png,1000,3.6489999999999996,0,2828,1000,meters,jsons/v1_VE1000_randls_60_rotated.json,628823,736378,35,Man
163,165894,DepthScenes,duration_manipulation_targetAtFixation,jsons/v1_VE1000_randls_60_rotated.json,http://54.235.29.9/FacialAge/BNav_EC2/DepthDuration/v2_depth_duration_MTurk/v2_DepthDuration_HTML.html#328,328,1070,602,1070,602,8-29-2022,15-4-49,164,depth_duration_stimuli/000929_2014-06-09_16-33-19_260595134347_rgbf000139-resize_0/000929_2014-06-09_16-33-19_260595134347_rgbf000139-resize_0-target.png,1000,2.8680000000000003,0,2324,1000,meters,jsons/v1_VE1000_randls_60_rotated.json,628823,736378,35,Man
