,subjID,experimentName,versionName,sequenceName,url,selected_row,windowWidth,windowHeight,screenWidth,screenHeight,startDate,startTime,trial,stimulus,duration,actual_depth,depth_estimate,trial_RT,log_sceneDuration,unitSelection,seq_filepath,experimentTime,totalTime,age,gender
0,165862,DepthScenes,duration_manipulation_targetAtFixation,jsons/v1_VE250_randls_34.json,http://54.235.29.9/FacialAge/BNav_EC2/DepthDuration/v2_depth_duration_MTurk/v2_DepthDuration_HTML.html#11,11,1366,625,1366,768,8-29-2022,14-30-31,1,depth_duration_stimuli/000739_2014-06-08_18-45-58_260595134347_rgbf000068-resize_1/000739_2014-06-08_18-45-58_260595134347_rgbf000068-resize_1-target.png,250,3.534,2,3754,237,meters,jsons/v1_VE250_randls_34.json,643593,1143747,57,Woman
1,165862,DepthScenes,duration_manipulation_targetAtFixation,jsons/v1_VE250_randls_34.json,http://54.235.29.9/FacialAge/BNav_EC2/DepthDuration/v2_depth_duration_MTurk/v2_DepthDuration_HTML.html#11,11,1366,625,1366,768,8-29-2022,14-30-31,2,depth_duration_stimuli/000734_2014-06-08_17-39-11_260595134347_rgbf000128-resize_2/000734_2014-06-08_17-39-11_260595134347_rgbf000128-resize_2-target.png,250,4.098,1,2932,248,meters,jsons/v1_VE250_randls_34.json,643593,1143747,57,Woman
2,165862,DepthScenes,duration_manipulation_targetAtFixation,jsons/v1_VE250_randls_34.json,http://54.235.29.9/FacialAge/BNav_EC2/DepthDuration/v2_depth_duration_MTurk/v2_DepthDuration_HTML.html#11,11,1366,625,1366,768,8-29-2022,14-30-31,3,depth_duration_stimuli/000788_2014-06-08_22-34-36_260595134347_rgbf000131-resize_1/000788_2014-06-08_22-34-36_260595134347_rgbf000131-resize_1-target.png,250,3.359,2,3014,246,meters,jsons/v1_VE250_randls_34.json,643593,1143747,57,Woman
3,165862,DepthScenes,duration_manipulation_targetAtFixation,jsons/v1_VE250_randls_34.json,http://54.235.29.9/FacialAge/BNav_EC2/DepthDuration/v2_depth_duration_MTurk/v2_DepthDuration_HTML.html#11,11,1366,625,1366,768,8-29-2022,14-30-31,4,depth_duration_stimuli/001235_2014-06-17_16-37-36_260595134347_rgbf000084-resize_4/001235_2014-06-17_16-37-36_260595134347_rgbf000084-resize_4-target.png,250,3.6605,5,3423,218,meters,jsons/v1_VE250_randls_34.json,643593,1143747,57,Woman
4,165862,DepthScenes,duration_manipulation_targetAtFixation,jsons/v1_VE250_randls_34.json,http://54.235.29.9/FacialAge/BNav_EC2/DepthDuration/v2_depth_duration_MTurk/v2_DepthDuration_HTML.html#11,11,1366,625,1366,768,8-29-2022,14-30-31,5,depth_duration_stimuli/000493_2014-06-09_21-01-18_260595134347_rgbf000196-resize_3/000493_2014-06-09_21-01-18_260595134347_rgbf000196-resize_3-target.png,250,3.44,4,3669,252,meters,jsons/v1_VE250_randls_34.json,643593,1143747,57,Woman
5,165862,DepthScenes,duration_manipulation_targetAtFixation,jsons/v1_VE250_randls_34.json,http://54.235.29.9/FacialAge/BNav_EC2/DepthDuration/v2_depth_duration_MTurk/v2_DepthDuration_HTML.html#11,11,1366,625,1366,768,8-29-2022,14-30-31,6,depth_duration_stimuli/000191_2014-05-12_17-07-38_260595134347_rgbf000199-resize_0/000191_2014-05-12_17-07-38_260595134347_rgbf000199-resize_0-target.png,250,3.7995,6,2962,247,meters,jsons/v1_VE250_randls_34.json,643593,1143747,57,Woman
6,165862,DepthScenes,duration_manipulation_targetAtFixation,jsons/v1_VE250_randls_34.json,http://54.235.29.9/FacialAge/BNav_EC2/DepthDuration/v2_depth_duration_MTurk/v2_DepthDuration_HTML.html#11,11,1366,625,1366,768,8-29-2022,14-30-31,7,depth_duration_stimuli/002213_2014-06-28_18-37-58_260595134347_rgbf000055-resize_1/002213_2014-06-28_18-37-58_260595134347_rgbf000055-resize_1-target.png,250,3.62,5,3625,250,meters,jsons/v1_VE250_randls_34.json,643593,1143747,57,Woman
7,165862,DepthScenes,duration_manipulation_targetAtFixation,jsons/v1_VE250_randls_34.json,http://54.235.29.9/FacialAge/BNav_EC2/DepthDuration/v2_depth_duration_MTurk/v2_DepthDuration_HTML.html#11,11,1366,625,1366,768,8-29-2022,14-30-31,8,depth_duration_stimuli/000691_2014-06-08_13-08-50_260595134347_rgbf000132-resize_3/000691_2014-06-08_13-08-50_260595134347_rgbf000132-resize_3-target.png,250,4.1530000000000005,2,3133,247,meters,jsons/v1_VE250_randls_34.json,643593,1143747,57,Woman
8,165862,DepthScenes,duration_manipulation_targetAtFixation,jsons/v1_VE250_randls_34.json,http://54.235.29.9/FacialAge/BNav_EC2/DepthDuration/v2_depth_duration_MTurk/v2_DepthDuration_HTML.html#11,11,1366,625,1366,768,8-29-2022,14-30-31,9,depth_duration_stimuli/002663_2014-06-13_15-50-26_094959634447_rgbf000075-resize_1/002663_2014-06-13_15-50-26_094959634447_rgbf000075-resize_1-target.png,250,4.7495,6,3197,262,meters,jsons/v1_VE250_randls_34.json,643593,1143747,57,Woman
9,165862,DepthScenes,duration_manipulation_targetAtFixation,jsons/v1_VE250_randls_34.json,http://54.235.29.9/FacialAge/BNav_EC2/DepthDuration/v2_depth_duration_MTurk/v2_DepthDuration_HTML.html#11,11,1366,625,1366,768,8-29-2022,14-30-31,10,depth_duration_stimuli/000409_2014-06-04_19-23-33_260595134347_rgbf000067-resize_0/000409_2014-06-04_19-23-33_260595134347_rgbf000067-resize_0-target.png,250,3.7335,4,3217,246,meters,jsons/v1_VE250_randls_34.json,643593,1143747,57,Woman
10,165862,DepthScenes,duration_manipulation_targetAtFixation,jsons/v1_VE250_randls_34.json,http://54.235.29.9/FacialAge/BNav_EC2/DepthDuration/v2_depth_duration_MTurk/v2_DepthDuration_HTML.html#11,11,1366,625,1366,768,8-29-2022,14-30-31,11,depth_duration_stimuli/000486_2014-06-09_20-47-20_260595134347_rgbf000143-resize_2/000486_2014-06-09_20-47-20_260595134347_rgbf000143-resize_2-target.png,250,4.8325,4,2859,118,meters,jsons/v1_VE250_randls_34.json,643593,1143747,57,Woman
11,165862,DepthScenes,duration_manipulation_targetAtFixation,jsons/v1_VE250_randls_34.json,http://54.235.29.9/FacialAge/BNav_EC2/DepthDuration/v2_depth_duration_MTurk/v2_DepthDuration_HTML.html#11,11,1366,625,1366,768,8-29-2022,14-30-31,12,depth_duration_stimuli/003083_2014-06-15_15-21-03_094959634447_rgbf000063-resize_1/003083_2014-06-15_15-21-03_094959634447_rgbf000063-resize_1-target.png,250,4.1405,5,3256,235,meters,jsons/v1_VE250_randls_34.json,643593,1143747,57,Woman
12,165862,DepthScenes,duration_manipulation_targetAtFixation,jsons/v1_VE250_randls_34.json,http://54.235.29.9/FacialAge/BNav_EC2/DepthDuration/v2_depth_duration_MTurk/v2_DepthDuration_HTML.html#11,11,1366,625,1366,768,8-29-2022,14-30-31,13,depth_duration_stimuli/000569_2014-06-09_22-51-47_260595134347_rgbf000141-resize_3/000569_2014-06-09_22-51-47_260595134347_rgbf000141-resize-original.jpg,250,4.512,0,4232,240,meters,jsons/v1_VE250_randls_34.json,643593,1143747,57,Woman
13,165862,DepthScenes,duration_manipulation_targetAtFixation,jsons/v1_VE250_randls_34.json,http://54.235.29.9/FacialAge/BNav_EC2/DepthDuration/v2_depth_duration_MTurk/v2_DepthDuration_HTML.html#11,11,1366,625,1366,768,8-29-2022,14-30-31,14,depth_duration_stimuli/000522_2014-06-08_13-35-06_260595134347_rgbf000244-resize_1/000522_2014-06-08_13-35-06_260595134347_rgbf000244-resize_1-target.png,250,2.3715,2,3103,241,meters,jsons/v1_VE250_randls_34.json,643593,1143747,57,Woman
14,165862,DepthScenes,duration_manipulation_targetAtFixation,jsons/v1_VE250_randls_34.json,http://54.235.29.9/FacialAge/BNav_EC2/DepthDuration/v2_depth_duration_MTurk/v2_DepthDuration_HTML.html#11,11,1366,625,1366,768,8-29-2022,14-30-31,15,depth_duration_stimuli/002949_2014-06-26_15-57-42_094959634447_rgbf000079-resize_1/002949_2014-06-26_15-57-42_094959634447_rgbf000079-resize_1-target.png,250,1.8915,2,3255,437,meters,jsons/v1_VE250_randls_34.json,643593,1143747,57,Woman
15,165862,DepthScenes,duration_manipulation_targetAtFixation,jsons/v1_VE250_randls_34.json,http://54.235.29.9/FacialAge/BNav_EC2/DepthDuration/v2_depth_duration_MTurk/v2_DepthDuration_HTML.html#11,11,1366,625,1366,768,8-29-2022,14-30-31,16,depth_duration_stimuli/001570_2014-06-20_17-21-09_260595134347_rgbf000135-resize_4/001570_2014-06-20_17-21-09_260595134347_rgbf000135-resize_4-target.png,250,4.467,5,6738,242,meters,jsons/v1_VE250_randls_34.json,643593,1143747,57,Woman
16,165862,DepthScenes,duration_manipulation_targetAtFixation,jsons/v1_VE250_randls_34.json,http://54.235.29.9/FacialAge/BNav_EC2/DepthDuration/v2_depth_duration_MTurk/v2_DepthDuration_HTML.html#11,11,1366,625,1366,768,8-29-2022,14-30-31,17,depth_duration_stimuli/001392_2014-06-19_16-07-59_260595134347_rgbf000046-resize_1/001392_2014-06-19_16-07-59_260595134347_rgbf000046-resize_1-target.png,250,4.135,5,10278,265,meters,jsons/v1_VE250_randls_34.json,643593,1143747,57,Woman
17,165862,DepthScenes,duration_manipulation_targetAtFixation,jsons/v1_VE250_randls_34.json,http://54.235.29.9/FacialAge/BNav_EC2/DepthDuration/v2_depth_duration_MTurk/v2_DepthDuration_HTML.html#11,11,1366,625,1366,768,8-29-2022,14-30-31,18,depth_duration_stimuli/001158_2014-06-17_15-32-16_260595134347_rgbf000138-resize_2/001158_2014-06-17_15-32-16_260595134347_rgbf000138-resize_2-target.png,250,4.5315,5,3573,217,meters,jsons/v1_VE250_randls_34.json,643593,1143747,57,Woman
18,165862,DepthScenes,duration_manipulation_targetAtFixation,jsons/v1_VE250_randls_34.json,http://54.235.29.9/FacialAge/BNav_EC2/DepthDuration/v2_depth_duration_MTurk/v2_DepthDuration_HTML.html#11,11,1366,625,1366,768,8-29-2022,14-30-31,19,depth_duration_stimuli/000556_2014-06-09_22-42-56_260595134347_rgbf000214-resize_1/000556_2014-06-09_22-42-56_260595134347_rgbf000214-resize_1-target.png,250,4.8415,4,2917,249,meters,jsons/v1_VE250_randls_34.json,643593,1143747,57,Woman
19,165862,DepthScenes,duration_manipulation_targetAtFixation,jsons/v1_VE250_randls_34.json,http://54.235.29.9/FacialAge/BNav_EC2/DepthDuration/v2_depth_duration_MTurk/v2_DepthDuration_HTML.html#11,11,1366,625,1366,768,8-29-2022,14-30-31,20,depth_duration_stimuli/002118_2014-06-25_20-32-08_260595134347_rgbf000078-resize_1/002118_2014-06-25_20-32-08_260595134347_rgbf000078-resize_1-target.png,250,2.6460000000000004,2,3156,249,meters,jsons/v1_VE250_randls_34.json,643593,1143747,57,Woman
20,165862,DepthScenes,duration_manipulation_targetAtFixation,jsons/v1_VE250_randls_34.json,http://54.235.29.9/FacialAge/BNav_EC2/DepthDuration/v2_depth_duration_MTurk/v2_DepthDuration_HTML.html#11,11,1366,625,1366,768,8-29-2022,14-30-31,21,depth_duration_stimuli/001516_2014-06-20_16-25-09_260595134347_rgbf000076-resize_2/001516_2014-06-20_16-25-09_260595134347_rgbf000076-resize_2-target.png,250,1.7445,5,3247,173,meters,jsons/v1_VE250_randls_34.json,643593,1143747,57,Woman
21,165862,DepthScenes,duration_manipulation_targetAtFixation,jsons/v1_VE250_randls_34.json,http://54.235.29.9/FacialAge/BNav_EC2/DepthDuration/v2_depth_duration_MTurk/v2_DepthDuration_HTML.html#11,11,1366,625,1366,768,8-29-2022,14-30-31,22,depth_duration_stimuli/000773_2014-06-08_22-24-54_260595134347_rgbf000093-resize_1/000773_2014-06-08_22-24-54_260595134347_rgbf000093-resize_1-target.png,250,4.973,5,8512,242,meters,jsons/v1_VE250_randls_34.json,643593,1143747,57,Woman
22,165862,DepthScenes,duration_manipulation_targetAtFixation,jsons/v1_VE250_randls_34.json,http://54.235.29.9/FacialAge/BNav_EC2/DepthDuration/v2_depth_duration_MTurk/v2_DepthDuration_HTML.html#11,11,1366,625,1366,768,8-29-2022,14-30-31,23,depth_duration_stimuli/002414_2014-06-28_20-24-58_260595134347_rgbf000067-resize_4/002414_2014-06-28_20-24-58_260595134347_rgbf000067-resize_4-target.png,250,4.363,4,3085,250,meters,jsons/v1_VE250_randls_34.json,643593,1143747,57,Woman
23,165862,DepthScenes,duration_manipulation_targetAtFixation,jsons/v1_VE250_randls_34.json,http://54.235.29.9/FacialAge/BNav_EC2/DepthDuration/v2_depth_duration_MTurk/v2_DepthDuration_HTML.html#11,11,1366,625,1366,768,8-29-2022,14-30-31,24,depth_duration_stimuli/002375_2014-06-28_20-13-44_260595134347_rgbf000032-resize_1/002375_2014-06-28_20-13-44_260595134347_rgbf000032-resize_1-target.png,250,4.0175,2,3222,259,meters,jsons/v1_VE250_randls_34.json,643593,1143747,57,Woman
24,165862,DepthScenes,duration_manipulation_targetAtFixation,jsons/v1_VE250_randls_34.json,http://54.235.29.9/FacialAge/BNav_EC2/DepthDuration/v2_depth_duration_MTurk/v2_DepthDuration_HTML.html#11,11,1366,625,1366,768,8-29-2022,14-30-31,25,depth_duration_stimuli/002657_2014-06-13_15-29-54_094959634447_rgbf000150-resize_1/002657_2014-06-13_15-29-54_094959634447_rgbf000150-resize_1-target.png,250,4.919,2,2858,263,meters,jsons/v1_VE250_randls_34.json,643593,1143747,57,Woman
25,165862,DepthScenes,duration_manipulation_targetAtFixation,jsons/v1_VE250_randls_34.json,http://54.235.29.9/FacialAge/BNav_EC2/DepthDuration/v2_depth_duration_MTurk/v2_DepthDuration_HTML.html#11,11,1366,625,1366,768,8-29-2022,14-30-31,26,depth_duration_stimuli/002057_2014-06-24_21-00-13_260595134347_rgbf000120-resize_1/002057_2014-06-24_21-00-13_260595134347_rgbf000120-resize_1-target.png,250,2.967,4,2899,249,meters,jsons/v1_VE250_randls_34.json,643593,1143747,57,Woman
26,165862,DepthScenes,duration_manipulation_targetAtFixation,jsons/v1_VE250_randls_34.json,http://54.235.29.9/FacialAge/BNav_EC2/DepthDuration/v2_depth_duration_MTurk/v2_DepthDuration_HTML.html#11,11,1366,625,1366,768,8-29-2022,14-30-31,27,depth_duration_stimuli/000709_2014-06-08_13-51-55_260595134347_rgbf000068-resize_3/000709_2014-06-08_13-51-55_260595134347_rgbf000068-resize_3-target.png,250,1.8030000000000002,5,3306,224,meters,jsons/v1_VE250_randls_34.json,643593,1143747,57,Woman
27,165862,DepthScenes,duration_manipulation_targetAtFixation,jsons/v1_VE250_randls_34.json,http://54.235.29.9/FacialAge/BNav_EC2/DepthDuration/v2_depth_duration_MTurk/v2_DepthDuration_HTML.html#11,11,1366,625,1366,768,8-29-2022,14-30-31,28,depth_duration_stimuli/001167_2014-06-17_15-38-07_260595134347_rgbf000108-resize_0/001167_2014-06-17_15-38-07_260595134347_rgbf000108-resize_0-target.png,250,1.8505,2,2831,257,meters,jsons/v1_VE250_randls_34.json,643593,1143747,57,Woman
28,165862,DepthScenes,duration_manipulation_targetAtFixation,jsons/v1_VE250_randls_34.json,http://54.235.29.9/FacialAge/BNav_EC2/DepthDuration/v2_depth_duration_MTurk/v2_DepthDuration_HTML.html#11,11,1366,625,1366,768,8-29-2022,14-30-31,29,depth_duration_stimuli/003587_2014-05-23_16-48-02_094959634447_rgbf002384-resize_2/003587_2014-05-23_16-48-02_094959634447_rgbf002384-resize_2-target.png,250,1.357,5,2886,303,meters,jsons/v1_VE250_randls_34.json,643593,1143747,57,Woman
29,165862,DepthScenes,duration_manipulation_targetAtFixation,jsons/v1_VE250_randls_34.json,http://54.235.29.9/FacialAge/BNav_EC2/DepthDuration/v2_depth_duration_MTurk/v2_DepthDuration_HTML.html#11,11,1366,625,1366,768,8-29-2022,14-30-31,30,depth_duration_stimuli/000375_2014-06-08_11-17-29_260595134347_rgbf000133-resize_2/000375_2014-06-08_11-17-29_260595134347_rgbf000133-resize-original.jpg,250,4.718,0,2989,241,meters,jsons/v1_VE250_randls_34.json,643593,1143747,57,Woman
30,165862,DepthScenes,duration_manipulation_targetAtFixation,jsons/v1_VE250_randls_34.json,http://54.235.29.9/FacialAge/BNav_EC2/DepthDuration/v2_depth_duration_MTurk/v2_DepthDuration_HTML.html#11,11,1366,625,1366,768,8-29-2022,14-30-31,31,depth_duration_stimuli/000414_2014-06-04_19-49-13_260595134347_rgbf000044-resize_0/000414_2014-06-04_19-49-13_260595134347_rgbf000044-resize_0-target.png,250,4.329,5,2572,247,meters,jsons/v1_VE250_randls_34.json,643593,1143747,57,Woman
31,165862,DepthScenes,duration_manipulation_targetAtFixation,jsons/v1_VE250_randls_34.json,http://54.235.29.9/FacialAge/BNav_EC2/DepthDuration/v2_depth_duration_MTurk/v2_DepthDuration_HTML.html#11,11,1366,625,1366,768,8-29-2022,14-30-31,32,depth_duration_stimuli/003129_2014-05-12_10-48-10_094959634447_rgbf000100-resize_0/003129_2014-05-12_10-48-10_094959634447_rgbf000100-resize_0-target.png,250,4.9305,0,3128,85,meters,jsons/v1_VE250_randls_34.json,643593,1143747,57,Woman
32,165862,DepthScenes,duration_manipulation_targetAtFixation,jsons/v1_VE250_randls_34.json,http://54.235.29.9/FacialAge/BNav_EC2/DepthDuration/v2_depth_duration_MTurk/v2_DepthDuration_HTML.html#11,11,1366,625,1366,768,8-29-2022,14-30-31,33,depth_duration_stimuli/001449_2014-06-19_17-01-27_260595134347_rgbf000116-resize_2/001449_2014-06-19_17-01-27_260595134347_rgbf000116-resize_2-target.png,250,3.452,5,3264,257,meters,jsons/v1_VE250_randls_34.json,643593,1143747,57,Woman
33,165862,DepthScenes,duration_manipulation_targetAtFixation,jsons/v1_VE250_randls_34.json,http://54.235.29.9/FacialAge/BNav_EC2/DepthDuration/v2_depth_duration_MTurk/v2_DepthDuration_HTML.html#11,11,1366,625,1366,768,8-29-2022,14-30-31,34,depth_duration_stimuli/001450_2014-06-19_17-02-03_260595134347_rgbf000203-resize_4/001450_2014-06-19_17-02-03_260595134347_rgbf000203-resize_4-target.png,250,4.0106666666667,5,2755,249,meters,jsons/v1_VE250_randls_34.json,643593,1143747,57,Woman
34,165862,DepthScenes,duration_manipulation_targetAtFixation,jsons/v1_VE250_randls_34.json,http://54.235.29.9/FacialAge/BNav_EC2/DepthDuration/v2_depth_duration_MTurk/v2_DepthDuration_HTML.html#11,11,1366,625,1366,768,8-29-2022,14-30-31,35,depth_duration_stimuli/001133_2014-06-17_14-49-16_260595134347_rgbf000100-resize_0/001133_2014-06-17_14-49-16_260595134347_rgbf000100-resize_0-target.png,250,4.2115,4,4380,264,meters,jsons/v1_VE250_randls_34.json,643593,1143747,57,Woman
35,165862,DepthScenes,duration_manipulation_targetAtFixation,jsons/v1_VE250_randls_34.json,http://54.235.29.9/FacialAge/BNav_EC2/DepthDuration/v2_depth_duration_MTurk/v2_DepthDuration_HTML.html#11,11,1366,625,1366,768,8-29-2022,14-30-31,36,depth_duration_stimuli/001132_2014-06-17_14-48-54_260595134347_rgbf000100-resize_2/001132_2014-06-17_14-48-54_260595134347_rgbf000100-resize_2-target.png,250,3.753,5,3013,237,meters,jsons/v1_VE250_randls_34.json,643593,1143747,57,Woman
36,165862,DepthScenes,duration_manipulation_targetAtFixation,jsons/v1_VE250_randls_34.json,http://54.235.29.9/FacialAge/BNav_EC2/DepthDuration/v2_depth_duration_MTurk/v2_DepthDuration_HTML.html#11,11,1366,625,1366,768,8-29-2022,14-30-31,37,depth_duration_stimuli/000470_2014-06-09_19-42-40_260595134347_rgbf000094-resize_1/000470_2014-06-09_19-42-40_260595134347_rgbf000094-resize_1-target.png,250,1.831,1,3202,249,meters,jsons/v1_VE250_randls_34.json,643593,1143747,57,Woman
37,165862,DepthScenes,duration_manipulation_targetAtFixation,jsons/v1_VE250_randls_34.json,http://54.235.29.9/FacialAge/BNav_EC2/DepthDuration/v2_depth_duration_MTurk/v2_DepthDuration_HTML.html#11,11,1366,625,1366,768,8-29-2022,14-30-31,38,depth_duration_stimuli/000109_2014-05-14_23-41-52_260595134347_rgbf000035-resize_9/000109_2014-05-14_23-41-52_260595134347_rgbf000035-resize_9-target.png,250,1.3545,2,2539,248,meters,jsons/v1_VE250_randls_34.json,643593,1143747,57,Woman
38,165862,DepthScenes,duration_manipulation_targetAtFixation,jsons/v1_VE250_randls_34.json,http://54.235.29.9/FacialAge/BNav_EC2/DepthDuration/v2_depth_duration_MTurk/v2_DepthDuration_HTML.html#11,11,1366,625,1366,768,8-29-2022,14-30-31,39,depth_duration_stimuli/000469_2014-06-09_19-42-10_260595134347_rgbf000081-resize_1/000469_2014-06-09_19-42-10_260595134347_rgbf000081-resize_1-target.png,250,1.652,5,5207,111,meters,jsons/v1_VE250_randls_34.json,643593,1143747,57,Woman
39,165862,DepthScenes,duration_manipulation_targetAtFixation,jsons/v1_VE250_randls_34.json,http://54.235.29.9/FacialAge/BNav_EC2/DepthDuration/v2_depth_duration_MTurk/v2_DepthDuration_HTML.html#11,11,1366,625,1366,768,8-29-2022,14-30-31,40,depth_duration_stimuli/000483_2014-06-09_20-41-45_260595134347_rgbf000116-resize_4/000483_2014-06-09_20-41-45_260595134347_rgbf000116-resize_4-target.png,250,1.337,2,2999,250,meters,jsons/v1_VE250_randls_34.json,643593,1143747,57,Woman
40,165862,DepthScenes,duration_manipulation_targetAtFixation,jsons/v1_VE250_randls_34.json,http://54.235.29.9/FacialAge/BNav_EC2/DepthDuration/v2_depth_duration_MTurk/v2_DepthDuration_HTML.html#11,11,1366,625,1366,768,8-29-2022,14-30-31,41,depth_duration_stimuli/002784_2014-06-22_19-26-30_094959634447_rgbf000083-resize_3/002784_2014-06-22_19-26-30_094959634447_rgbf000083-resize_3-target.png,250,1.8046666666667,5,3115,241,meters,jsons/v1_VE250_randls_34.json,643593,1143747,57,Woman
41,165862,DepthScenes,duration_manipulation_targetAtFixation,jsons/v1_VE250_randls_34.json,http://54.235.29.9/FacialAge/BNav_EC2/DepthDuration/v2_depth_duration_MTurk/v2_DepthDuration_HTML.html#11,11,1366,625,1366,768,8-29-2022,14-30-31,42,depth_duration_stimuli/001100_2014-06-15_17-46-26_260595134347_rgbf000225-resize_2/001100_2014-06-15_17-46-26_260595134347_rgbf000225-resize_2-target.png,250,2.24,5,3305,205,meters,jsons/v1_VE250_randls_34.json,643593,1143747,57,Woman
42,165862,DepthScenes,duration_manipulation_targetAtFixation,jsons/v1_VE250_randls_34.json,http://54.235.29.9/FacialAge/BNav_EC2/DepthDuration/v2_depth_duration_MTurk/v2_DepthDuration_HTML.html#11,11,1366,625,1366,768,8-29-2022,14-30-31,43,depth_duration_stimuli/002989_2014-06-15_12-25-03_094959634447_rgbf000150-resize_3/002989_2014-06-15_12-25-03_094959634447_rgbf000150-resize_3-target.png,250,4.1975,5,2568,239,meters,jsons/v1_VE250_randls_34.json,643593,1143747,57,Woman
43,165862,DepthScenes,duration_manipulation_targetAtFixation,jsons/v1_VE250_randls_34.json,http://54.235.29.9/FacialAge/BNav_EC2/DepthDuration/v2_depth_duration_MTurk/v2_DepthDuration_HTML.html#11,11,1366,625,1366,768,8-29-2022,14-30-31,44,depth_duration_stimuli/000866_2014-06-09_20-45-42_260595134347_rgbf000139-resize_1/000866_2014-06-09_20-45-42_260595134347_rgbf000139-resize_1-target.png,250,3.2155,5,2948,213,meters,jsons/v1_VE250_randls_34.json,643593,1143747,57,Woman
44,165862,DepthScenes,duration_manipulation_targetAtFixation,jsons/v1_VE250_randls_34.json,http://54.235.29.9/FacialAge/BNav_EC2/DepthDuration/v2_depth_duration_MTurk/v2_DepthDuration_HTML.html#11,11,1366,625,1366,768,8-29-2022,14-30-31,45,depth_duration_stimuli/000787_2014-06-08_22-33-53_260595134347_rgbf000175-resize_1/000787_2014-06-08_22-33-53_260595134347_rgbf000175-resize-original.jpg,250,4.784,0,4975,252,meters,jsons/v1_VE250_randls_34.json,643593,1143747,57,Woman
45,165862,DepthScenes,duration_manipulation_targetAtFixation,jsons/v1_VE250_randls_34.json,http://54.235.29.9/FacialAge/BNav_EC2/DepthDuration/v2_depth_duration_MTurk/v2_DepthDuration_HTML.html#11,11,1366,625,1366,768,8-29-2022,14-30-31,46,depth_duration_stimuli/003070_2014-06-15_14-58-27_094959634447_rgbf000150-resize_3/003070_2014-06-15_14-58-27_094959634447_rgbf000150-resize_3-target.png,250,2.9415,0,6203,249,meters,jsons/v1_VE250_randls_34.json,643593,1143747,57,Woman
46,165862,DepthScenes,duration_manipulation_targetAtFixation,jsons/v1_VE250_randls_34.json,http://54.235.29.9/FacialAge/BNav_EC2/DepthDuration/v2_depth_duration_MTurk/v2_DepthDuration_HTML.html#11,11,1366,625,1366,768,8-29-2022,14-30-31,47,depth_duration_stimuli/000943_2014-06-09_19-31-07_260595134347_rgbf000128-resize_1/000943_2014-06-09_19-31-07_260595134347_rgbf000128-resize_1-target.png,250,1.9765,4,11394,250,meters,jsons/v1_VE250_randls_34.json,643593,1143747,57,Woman
47,165862,DepthScenes,duration_manipulation_targetAtFixation,jsons/v1_VE250_randls_34.json,http://54.235.29.9/FacialAge/BNav_EC2/DepthDuration/v2_depth_duration_MTurk/v2_DepthDuration_HTML.html#11,11,1366,625,1366,768,8-29-2022,14-30-31,48,depth_duration_stimuli/003292_2014-05-14_21-53-49_094959634447_rgbf000100-resize_2/003292_2014-05-14_21-53-49_094959634447_rgbf000100-resize_2-target.png,250,3.4815,1,3736,256,meters,jsons/v1_VE250_randls_34.json,643593,1143747,57,Woman
48,165862,DepthScenes,duration_manipulation_targetAtFixation,jsons/v1_VE250_randls_34.json,http://54.235.29.9/FacialAge/BNav_EC2/DepthDuration/v2_depth_duration_MTurk/v2_DepthDuration_HTML.html#11,11,1366,625,1366,768,8-29-2022,14-30-31,49,depth_duration_stimuli/002639_2014-06-24_14-51-37_094959634447_rgbf000074-resize_4/002639_2014-06-24_14-51-37_094959634447_rgbf000074-resize_4-target.png,250,4.0375,5,5030,507,meters,jsons/v1_VE250_randls_34.json,643593,1143747,57,Woman
49,165862,DepthScenes,duration_manipulation_targetAtFixation,jsons/v1_VE250_randls_34.json,http://54.235.29.9/FacialAge/BNav_EC2/DepthDuration/v2_depth_duration_MTurk/v2_DepthDuration_HTML.html#11,11,1366,625,1366,768,8-29-2022,14-30-31,50,depth_duration_stimuli/002570_2014-06-24_13-59-54_094959634447_rgbf000059-resize_0/002570_2014-06-24_13-59-54_094959634447_rgbf000059-resize_0-target.png,250,4.037,2,6745,249,meters,jsons/v1_VE250_randls_34.json,643593,1143747,57,Woman
50,165862,DepthScenes,duration_manipulation_targetAtFixation,jsons/v1_VE250_randls_34.json,http://54.235.29.9/FacialAge/BNav_EC2/DepthDuration/v2_depth_duration_MTurk/v2_DepthDuration_HTML.html#11,11,1366,625,1366,768,8-29-2022,14-30-31,51,depth_duration_stimuli/002467_2014-06-28_20-38-07_260595134347_rgbf000026-resize_2/002467_2014-06-28_20-38-07_260595134347_rgbf000026-resize_2-target.png,250,4.742,5,2790,247,meters,jsons/v1_VE250_randls_34.json,643593,1143747,57,Woman
51,165862,DepthScenes,duration_manipulation_targetAtFixation,jsons/v1_VE250_randls_34.json,http://54.235.29.9/FacialAge/BNav_EC2/DepthDuration/v2_depth_duration_MTurk/v2_DepthDuration_HTML.html#11,11,1366,625,1366,768,8-29-2022,14-30-31,52,depth_duration_stimuli/000917_2014-06-09_22-45-29_260595134347_rgbf000149-resize_3/000917_2014-06-09_22-45-29_260595134347_rgbf000149-resize_3-target.png,250,4.1865,5,5071,248,meters,jsons/v1_VE250_randls_34.json,643593,1143747,57,Woman
52,165862,DepthScenes,duration_manipulation_targetAtFixation,jsons/v1_VE250_randls_34.json,http://54.235.29.9/FacialAge/BNav_EC2/DepthDuration/v2_depth_duration_MTurk/v2_DepthDuration_HTML.html#11,11,1366,625,1366,768,8-29-2022,14-30-31,53,depth_duration_stimuli/002323_2014-06-28_20-01-54_260595134347_rgbf000051-resize_4/002323_2014-06-28_20-01-54_260595134347_rgbf000051-resize_4-target.png,250,3.7310000000000003,4,3993,252,meters,jsons/v1_VE250_randls_34.json,643593,1143747,57,Woman
53,165862,DepthScenes,duration_manipulation_targetAtFixation,jsons/v1_VE250_randls_34.json,http://54.235.29.9/FacialAge/BNav_EC2/DepthDuration/v2_depth_duration_MTurk/v2_DepthDuration_HTML.html#11,11,1366,625,1366,768,8-29-2022,14-30-31,54,depth_duration_stimuli/003492_2014-05-21_15-50-55_094959634447_rgbf000828-resize_1/003492_2014-05-21_15-50-55_094959634447_rgbf000828-resize_1-target.png,250,4.06875,4,6891,260,meters,jsons/v1_VE250_randls_34.json,643593,1143747,57,Woman
54,165862,DepthScenes,duration_manipulation_targetAtFixation,jsons/v1_VE250_randls_34.json,http://54.235.29.9/FacialAge/BNav_EC2/DepthDuration/v2_depth_duration_MTurk/v2_DepthDuration_HTML.html#11,11,1366,625,1366,768,8-29-2022,14-30-31,55,depth_duration_stimuli/002568_2014-06-24_13-59-21_094959634447_rgbf000062-resize_4/002568_2014-06-24_13-59-21_094959634447_rgbf000062-resize_4-target.png,250,3.015,5,2488,190,meters,jsons/v1_VE250_randls_34.json,643593,1143747,57,Woman
55,165862,DepthScenes,duration_manipulation_targetAtFixation,jsons/v1_VE250_randls_34.json,http://54.235.29.9/FacialAge/BNav_EC2/DepthDuration/v2_depth_duration_MTurk/v2_DepthDuration_HTML.html#11,11,1366,625,1366,768,8-29-2022,14-30-31,56,depth_duration_stimuli/001011_2014-06-08_23-18-54_260595134347_rgbf000044-resize_4/001011_2014-06-08_23-18-54_260595134347_rgbf000044-resize_4-target.png,250,2.4730000000000003,4,3059,112,meters,jsons/v1_VE250_randls_34.json,643593,1143747,57,Woman
56,165862,DepthScenes,duration_manipulation_targetAtFixation,jsons/v1_VE250_randls_34.json,http://54.235.29.9/FacialAge/BNav_EC2/DepthDuration/v2_depth_duration_MTurk/v2_DepthDuration_HTML.html#11,11,1366,625,1366,768,8-29-2022,14-30-31,57,depth_duration_stimuli/002875_2014-06-01_15-19-00_094959634447_rgbf000151-resize_1/002875_2014-06-01_15-19-00_094959634447_rgbf000151-resize_1-target.png,250,1.9675,6,3318,259,meters,jsons/v1_VE250_randls_34.json,643593,1143747,57,Woman
57,165862,DepthScenes,duration_manipulation_targetAtFixation,jsons/v1_VE250_randls_34.json,http://54.235.29.9/FacialAge/BNav_EC2/DepthDuration/v2_depth_duration_MTurk/v2_DepthDuration_HTML.html#11,11,1366,625,1366,768,8-29-2022,14-30-31,58,depth_duration_stimuli/001016_2014-06-09_16-16-10_260595134347_rgbf000112-resize_5/001016_2014-06-09_16-16-10_260595134347_rgbf000112-resize_5-target.png,250,1.6565,4,2579,246,meters,jsons/v1_VE250_randls_34.json,643593,1143747,57,Woman
58,165862,DepthScenes,duration_manipulation_targetAtFixation,jsons/v1_VE250_randls_34.json,http://54.235.29.9/FacialAge/BNav_EC2/DepthDuration/v2_depth_duration_MTurk/v2_DepthDuration_HTML.html#11,11,1366,625,1366,768,8-29-2022,14-30-31,59,depth_duration_stimuli/002340_2014-06-28_20-05-46_260595134347_rgbf000113-resize_0/002340_2014-06-28_20-05-46_260595134347_rgbf000113-resize_0-target.png,250,2.4735,5,2478,254,meters,jsons/v1_VE250_randls_34.json,643593,1143747,57,Woman
59,165862,DepthScenes,duration_manipulation_targetAtFixation,jsons/v1_VE250_randls_34.json,http://54.235.29.9/FacialAge/BNav_EC2/DepthDuration/v2_depth_duration_MTurk/v2_DepthDuration_HTML.html#11,11,1366,625,1366,768,8-29-2022,14-30-31,60,depth_duration_stimuli/001808_2014-06-26_20-50-58_260595134347_rgbf000029-resize_1/001808_2014-06-26_20-50-58_260595134347_rgbf000029-resize_1-target.png,250,4.249,5,2189,262,meters,jsons/v1_VE250_randls_34.json,643593,1143747,57,Woman
60,165862,DepthScenes,duration_manipulation_targetAtFixation,jsons/v1_VE250_randls_34.json,http://54.235.29.9/FacialAge/BNav_EC2/DepthDuration/v2_depth_duration_MTurk/v2_DepthDuration_HTML.html#11,11,1366,625,1366,768,8-29-2022,14-30-31,61,depth_duration_stimuli/001815_2014-06-26_20-52-55_260595134347_rgbf000020-resize_0/001815_2014-06-26_20-52-55_260595134347_rgbf000020-resize_0-target.png,250,3.3865,6,3385,252,meters,jsons/v1_VE250_randls_34.json,643593,1143747,57,Woman
61,165862,DepthScenes,duration_manipulation_targetAtFixation,jsons/v1_VE250_randls_34.json,http://54.235.29.9/FacialAge/BNav_EC2/DepthDuration/v2_depth_duration_MTurk/v2_DepthDuration_HTML.html#11,11,1366,625,1366,768,8-29-2022,14-30-31,62,depth_duration_stimuli/001092_2014-06-15_17-34-58_260595134347_rgbf000171-resize_3/001092_2014-06-15_17-34-58_260595134347_rgbf000171-resize_3-target.png,250,2.6935,1,3213,250,meters,jsons/v1_VE250_randls_34.json,643593,1143747,57,Woman
62,165862,DepthScenes,duration_manipulation_targetAtFixation,jsons/v1_VE250_randls_34.json,http://54.235.29.9/FacialAge/BNav_EC2/DepthDuration/v2_depth_duration_MTurk/v2_DepthDuration_HTML.html#11,11,1366,625,1366,768,8-29-2022,14-30-31,63,depth_duration_stimuli/002545_2014-06-24_13-38-53_094959634447_rgbf000080-resize_4/002545_2014-06-24_13-38-53_094959634447_rgbf000080-resize_4-target.png,250,1.9205,2,2831,248,meters,jsons/v1_VE250_randls_34.json,643593,1143747,57,Woman
63,165862,DepthScenes,duration_manipulation_targetAtFixation,jsons/v1_VE250_randls_34.json,http://54.235.29.9/FacialAge/BNav_EC2/DepthDuration/v2_depth_duration_MTurk/v2_DepthDuration_HTML.html#11,11,1366,625,1366,768,8-29-2022,14-30-31,64,depth_duration_stimuli/001199_2014-06-17_16-03-48_260595134347_rgbf000077-resize_0/001199_2014-06-17_16-03-48_260595134347_rgbf000077-resize_0-target.png,250,3.4375,5,4126,243,meters,jsons/v1_VE250_randls_34.json,643593,1143747,57,Woman
64,165862,DepthScenes,duration_manipulation_targetAtFixation,jsons/v1_VE250_randls_34.json,http://54.235.29.9/FacialAge/BNav_EC2/DepthDuration/v2_depth_duration_MTurk/v2_DepthDuration_HTML.html#11,11,1366,625,1366,768,8-29-2022,14-30-31,65,depth_duration_stimuli/000502_2014-06-08_23-02-32_260595134347_rgbf000063-resize_4/000502_2014-06-08_23-02-32_260595134347_rgbf000063-resize_4-target.png,250,2.431,4,2621,240,meters,jsons/v1_VE250_randls_34.json,643593,1143747,57,Woman
65,165862,DepthScenes,duration_manipulation_targetAtFixation,jsons/v1_VE250_randls_34.json,http://54.235.29.9/FacialAge/BNav_EC2/DepthDuration/v2_depth_duration_MTurk/v2_DepthDuration_HTML.html#11,11,1366,625,1366,768,8-29-2022,14-30-31,66,depth_duration_stimuli/001222_2014-06-17_16-24-06_260595134347_rgbf000073-resize_0/001222_2014-06-17_16-24-06_260595134347_rgbf000073-resize-original.jpg,250,1.4385,0,6050,248,meters,jsons/v1_VE250_randls_34.json,643593,1143747,57,Woman
66,165862,DepthScenes,duration_manipulation_targetAtFixation,jsons/v1_VE250_randls_34.json,http://54.235.29.9/FacialAge/BNav_EC2/DepthDuration/v2_depth_duration_MTurk/v2_DepthDuration_HTML.html#11,11,1366,625,1366,768,8-29-2022,14-30-31,67,depth_duration_stimuli/002788_2014-06-22_19-36-03_094959634447_rgbf000088-resize_2/002788_2014-06-22_19-36-03_094959634447_rgbf000088-resize_2-target.png,250,1.6465,5,3075,251,meters,jsons/v1_VE250_randls_34.json,643593,1143747,57,Woman
67,165862,DepthScenes,duration_manipulation_targetAtFixation,jsons/v1_VE250_randls_34.json,http://54.235.29.9/FacialAge/BNav_EC2/DepthDuration/v2_depth_duration_MTurk/v2_DepthDuration_HTML.html#11,11,1366,625,1366,768,8-29-2022,14-30-31,68,depth_duration_stimuli/000749_2014-06-08_21-55-06_260595134347_rgbf000070-resize_2/000749_2014-06-08_21-55-06_260595134347_rgbf000070-resize_2-target.png,250,2.331,6,4373,322,meters,jsons/v1_VE250_randls_34.json,643593,1143747,57,Woman
68,165862,DepthScenes,duration_manipulation_targetAtFixation,jsons/v1_VE250_randls_34.json,http://54.235.29.9/FacialAge/BNav_EC2/DepthDuration/v2_depth_duration_MTurk/v2_DepthDuration_HTML.html#11,11,1366,625,1366,768,8-29-2022,14-30-31,69,depth_duration_stimuli/001055_2014-06-08_18-45-35_260595134347_rgbf000111-resize_4/001055_2014-06-08_18-45-35_260595134347_rgbf000111-resize_4-target.png,250,2.4290000000000003,6,2521,243,meters,jsons/v1_VE250_randls_34.json,643593,1143747,57,Woman
69,165862,DepthScenes,duration_manipulation_targetAtFixation,jsons/v1_VE250_randls_34.json,http://54.235.29.9/FacialAge/BNav_EC2/DepthDuration/v2_depth_duration_MTurk/v2_DepthDuration_HTML.html#11,11,1366,625,1366,768,8-29-2022,14-30-31,70,depth_duration_stimuli/000549_2014-06-08_22-10-24_260595134347_rgbf000247-resize_3/000549_2014-06-08_22-10-24_260595134347_rgbf000247-resize_3-target.png,250,1.841,5,2630,233,meters,jsons/v1_VE250_randls_34.json,643593,1143747,57,Woman
70,165862,DepthScenes,duration_manipulation_targetAtFixation,jsons/v1_VE250_randls_34.json,http://54.235.29.9/FacialAge/BNav_EC2/DepthDuration/v2_depth_duration_MTurk/v2_DepthDuration_HTML.html#11,11,1366,625,1366,768,8-29-2022,14-30-31,71,depth_duration_stimuli/000506_2014-06-08_23-21-00_260595134347_rgbf000070-resize_7/000506_2014-06-08_23-21-00_260595134347_rgbf000070-resize_7-target.png,250,4.0585,5,2778,249,meters,jsons/v1_VE250_randls_34.json,643593,1143747,57,Woman
71,165862,DepthScenes,duration_manipulation_targetAtFixation,jsons/v1_VE250_randls_34.json,http://54.235.29.9/FacialAge/BNav_EC2/DepthDuration/v2_depth_duration_MTurk/v2_DepthDuration_HTML.html#11,11,1366,625,1366,768,8-29-2022,14-30-31,72,depth_duration_stimuli/003079_2014-06-15_15-18-20_094959634447_rgbf000152-resize_8/003079_2014-06-15_15-18-20_094959634447_rgbf000152-resize_8-target.png,250,2.8775,8,3308,269,meters,jsons/v1_VE250_randls_34.json,643593,1143747,57,Woman
72,165862,DepthScenes,duration_manipulation_targetAtFixation,jsons/v1_VE250_randls_34.json,http://54.235.29.9/FacialAge/BNav_EC2/DepthDuration/v2_depth_duration_MTurk/v2_DepthDuration_HTML.html#11,11,1366,625,1366,768,8-29-2022,14-30-31,73,depth_duration_stimuli/000368_2014-06-09_15-53-01_260595134347_rgbf000155-resize_2/000368_2014-06-09_15-53-01_260595134347_rgbf000155-resize_2-target.png,250,2.4859999999999998,5,2358,248,meters,jsons/v1_VE250_randls_34.json,643593,1143747,57,Woman
73,165862,DepthScenes,duration_manipulation_targetAtFixation,jsons/v1_VE250_randls_34.json,http://54.235.29.9/FacialAge/BNav_EC2/DepthDuration/v2_depth_duration_MTurk/v2_DepthDuration_HTML.html#11,11,1366,625,1366,768,8-29-2022,14-30-31,74,depth_duration_stimuli/002678_2014-06-13_16-15-32_094959634447_rgbf000151-resize_6/002678_2014-06-13_16-15-32_094959634447_rgbf000151-resize_6-target.png,250,2.1830000000000003,5,2469,250,meters,jsons/v1_VE250_randls_34.json,643593,1143747,57,Woman
74,165862,DepthScenes,duration_manipulation_targetAtFixation,jsons/v1_VE250_randls_34.json,http://54.235.29.9/FacialAge/BNav_EC2/DepthDuration/v2_depth_duration_MTurk/v2_DepthDuration_HTML.html#11,11,1366,625,1366,768,8-29-2022,14-30-31,75,depth_duration_stimuli/002445_2014-06-28_20-32-16_260595134347_rgbf000029-resize_4/002445_2014-06-28_20-32-16_260595134347_rgbf000029-resize_4-target.png,250,2.5315,6,2615,239,meters,jsons/v1_VE250_randls_34.json,643593,1143747,57,Woman
75,165862,DepthScenes,duration_manipulation_targetAtFixation,jsons/v1_VE250_randls_34.json,http://54.235.29.9/FacialAge/BNav_EC2/DepthDuration/v2_depth_duration_MTurk/v2_DepthDuration_HTML.html#11,11,1366,625,1366,768,8-29-2022,14-30-31,76,depth_duration_stimuli/000780_2014-06-08_22-28-29_260595134347_rgbf000126-resize_1/000780_2014-06-08_22-28-29_260595134347_rgbf000126-resize_1-target.png,250,3.3825,4,4555,249,meters,jsons/v1_VE250_randls_34.json,643593,1143747,57,Woman
76,165862,DepthScenes,duration_manipulation_targetAtFixation,jsons/v1_VE250_randls_34.json,http://54.235.29.9/FacialAge/BNav_EC2/DepthDuration/v2_depth_duration_MTurk/v2_DepthDuration_HTML.html#11,11,1366,625,1366,768,8-29-2022,14-30-31,77,depth_duration_stimuli/002153_2014-06-25_21-27-18_260595134347_rgbf000038-resize_5/002153_2014-06-25_21-27-18_260595134347_rgbf000038-resize_5-target.png,250,2.505,5,3383,707,meters,jsons/v1_VE250_randls_34.json,643593,1143747,57,Woman
77,165862,DepthScenes,duration_manipulation_targetAtFixation,jsons/v1_VE250_randls_34.json,http://54.235.29.9/FacialAge/BNav_EC2/DepthDuration/v2_depth_duration_MTurk/v2_DepthDuration_HTML.html#11,11,1366,625,1366,768,8-29-2022,14-30-31,78,depth_duration_stimuli/002660_2014-06-13_15-44-18_094959634447_rgbf001878-resize_2/002660_2014-06-13_15-44-18_094959634447_rgbf001878-resize_2-target.png,250,3.576,0,3271,240,meters,jsons/v1_VE250_randls_34.json,643593,1143747,57,Woman
78,165862,DepthScenes,duration_manipulation_targetAtFixation,jsons/v1_VE250_randls_34.json,http://54.235.29.9/FacialAge/BNav_EC2/DepthDuration/v2_depth_duration_MTurk/v2_DepthDuration_HTML.html#11,11,1366,625,1366,768,8-29-2022,14-30-31,79,depth_duration_stimuli/000682_2014-06-08_23-14-58_260595134347_rgbf000041-resize_5/000682_2014-06-08_23-14-58_260595134347_rgbf000041-resize_5-target.png,250,2.7239999999999998,5,8500,260,meters,jsons/v1_VE250_randls_34.json,643593,1143747,57,Woman
79,165862,DepthScenes,duration_manipulation_targetAtFixation,jsons/v1_VE250_randls_34.json,http://54.235.29.9/FacialAge/BNav_EC2/DepthDuration/v2_depth_duration_MTurk/v2_DepthDuration_HTML.html#11,11,1366,625,1366,768,8-29-2022,14-30-31,80,depth_duration_stimuli/001650_2014-06-20_12-09-00_260595134347_rgbf000087-resize_3/001650_2014-06-20_12-09-00_260595134347_rgbf000087-resize_3-target.png,250,1.9505,2,3191,245,meters,jsons/v1_VE250_randls_34.json,643593,1143747,57,Woman
80,165862,DepthScenes,duration_manipulation_targetAtFixation,jsons/v1_VE250_randls_34.json,http://54.235.29.9/FacialAge/BNav_EC2/DepthDuration/v2_depth_duration_MTurk/v2_DepthDuration_HTML.html#11,11,1366,625,1366,768,8-29-2022,14-30-31,81,depth_duration_stimuli/003621_2014-05-23_18-06-08_094959634447_rgbf000101-resize_1/003621_2014-05-23_18-06-08_094959634447_rgbf000101-resize_1-target.png,250,3.9835,0,3073,0,meters,jsons/v1_VE250_randls_34.json,643593,1143747,57,Woman
81,165862,DepthScenes,duration_manipulation_targetAtFixation,jsons/v1_VE250_randls_34.json,http://54.235.29.9/FacialAge/BNav_EC2/DepthDuration/v2_depth_duration_MTurk/v2_DepthDuration_HTML.html#11,11,1366,625,1366,768,8-29-2022,14-30-31,82,depth_duration_stimuli/001584_2014-06-20_11-07-43_260595134347_rgbf000002-resize_1/001584_2014-06-20_11-07-43_260595134347_rgbf000002-resize_1-target.png,250,3.53,3,6073,248,meters,jsons/v1_VE250_randls_34.json,643593,1143747,57,Woman
82,165862,DepthScenes,duration_manipulation_targetAtFixation,jsons/v1_VE250_randls_34.json,http://54.235.29.9/FacialAge/BNav_EC2/DepthDuration/v2_depth_duration_MTurk/v2_DepthDuration_HTML.html#11,11,1366,625,1366,768,8-29-2022,14-30-31,83,depth_duration_stimuli/000009_2014-05-26_14-32-05_260595134347_rgbf000034-resize_3/000009_2014-05-26_14-32-05_260595134347_rgbf000034-resize_3-target.png,250,3.8715,5,3452,294,meters,jsons/v1_VE250_randls_34.json,643593,1143747,57,Woman
83,165862,DepthScenes,duration_manipulation_targetAtFixation,jsons/v1_VE250_randls_34.json,http://54.235.29.9/FacialAge/BNav_EC2/DepthDuration/v2_depth_duration_MTurk/v2_DepthDuration_HTML.html#11,11,1366,625,1366,768,8-29-2022,14-30-31,84,depth_duration_stimuli/001828_2014-06-26_21-40-03_260595134347_rgbf000024-resize_0/001828_2014-06-26_21-40-03_260595134347_rgbf000024-resize_0-target.png,250,4.8260000000000005,8,3570,232,meters,jsons/v1_VE250_randls_34.json,643593,1143747,57,Woman
84,165862,DepthScenes,duration_manipulation_targetAtFixation,jsons/v1_VE250_randls_34.json,http://54.235.29.9/FacialAge/BNav_EC2/DepthDuration/v2_depth_duration_MTurk/v2_DepthDuration_HTML.html#11,11,1366,625,1366,768,8-29-2022,14-30-31,85,depth_duration_stimuli/002279_2014-06-28_18-55-32_260595134347_rgbf000040-resize_5/002279_2014-06-28_18-55-32_260595134347_rgbf000040-resize_5-target.png,250,1.5043333333333,5,12371,255,meters,jsons/v1_VE250_randls_34.json,643593,1143747,57,Woman
85,165862,DepthScenes,duration_manipulation_targetAtFixation,jsons/v1_VE250_randls_34.json,http://54.235.29.9/FacialAge/BNav_EC2/DepthDuration/v2_depth_duration_MTurk/v2_DepthDuration_HTML.html#11,11,1366,625,1366,768,8-29-2022,14-30-31,86,depth_duration_stimuli/000635_2014-06-08_16-38-42_260595134347_rgbf000106-resize_1/000635_2014-06-08_16-38-42_260595134347_rgbf000106-resize_1-target.png,250,2.074,5,2610,248,meters,jsons/v1_VE250_randls_34.json,643593,1143747,57,Woman
86,165862,DepthScenes,duration_manipulation_targetAtFixation,jsons/v1_VE250_randls_34.json,http://54.235.29.9/FacialAge/BNav_EC2/DepthDuration/v2_depth_duration_MTurk/v2_DepthDuration_HTML.html#11,11,1366,625,1366,768,8-29-2022,14-30-31,87,depth_duration_stimuli/002905_2014-06-03_18-04-43_094959634447_rgbf000151-resize_2/002905_2014-06-03_18-04-43_094959634447_rgbf000151-resize_2-target.png,250,2.0295,3,2800,256,meters,jsons/v1_VE250_randls_34.json,643593,1143747,57,Woman
87,165862,DepthScenes,duration_manipulation_targetAtFixation,jsons/v1_VE250_randls_34.json,http://54.235.29.9/FacialAge/BNav_EC2/DepthDuration/v2_depth_duration_MTurk/v2_DepthDuration_HTML.html#11,11,1366,625,1366,768,8-29-2022,14-30-31,88,depth_duration_stimuli/003423_2014-05-21_10-23-26_094959634447_rgbf002665-resize_2/003423_2014-05-21_10-23-26_094959634447_rgbf002665-resize_2-target.png,250,3.2575,3,2273,227,meters,jsons/v1_VE250_randls_34.json,643593,1143747,57,Woman
88,165862,DepthScenes,duration_manipulation_targetAtFixation,jsons/v1_VE250_randls_34.json,http://54.235.29.9/FacialAge/BNav_EC2/DepthDuration/v2_depth_duration_MTurk/v2_DepthDuration_HTML.html#11,11,1366,625,1366,768,8-29-2022,14-30-31,89,depth_duration_stimuli/001175_2014-06-17_15-45-55_260595134347_rgbf000129-resize_4/001175_2014-06-17_15-45-55_260595134347_rgbf000129-resize_4-target.png,250,4.255,5,2264,248,meters,jsons/v1_VE250_randls_34.json,643593,1143747,57,Woman
89,165862,DepthScenes,duration_manipulation_targetAtFixation,jsons/v1_VE250_randls_34.json,http://54.235.29.9/FacialAge/BNav_EC2/DepthDuration/v2_depth_duration_MTurk/v2_DepthDuration_HTML.html#11,11,1366,625,1366,768,8-29-2022,14-30-31,90,depth_duration_stimuli/003490_2014-05-21_15-50-11_094959634447_rgbf000101-resize_3/003490_2014-05-21_15-50-11_094959634447_rgbf000101-resize_3-target.png,250,3.6445,5,2706,238,meters,jsons/v1_VE250_randls_34.json,643593,1143747,57,Woman
90,165862,DepthScenes,duration_manipulation_targetAtFixation,jsons/v1_VE250_randls_34.json,http://54.235.29.9/FacialAge/BNav_EC2/DepthDuration/v2_depth_duration_MTurk/v2_DepthDuration_HTML.html#11,11,1366,625,1366,768,8-29-2022,14-30-31,91,depth_duration_stimuli/002509_2014-06-24_13-19-22_094959634447_rgbf000077-resize_0/002509_2014-06-24_13-19-22_094959634447_rgbf000077-resize_0-target.png,250,1.3065,3,2295,235,meters,jsons/v1_VE250_randls_34.json,643593,1143747,57,Woman
91,165862,DepthScenes,duration_manipulation_targetAtFixation,jsons/v1_VE250_randls_34.json,http://54.235.29.9/FacialAge/BNav_EC2/DepthDuration/v2_depth_duration_MTurk/v2_DepthDuration_HTML.html#11,11,1366,625,1366,768,8-29-2022,14-30-31,92,depth_duration_stimuli/003338_2014-05-20_11-01-23_094959634447_rgbf000051-resize_6/003338_2014-05-20_11-01-23_094959634447_rgbf000051-resize_6-target.png,250,1.693,3,2181,240,meters,jsons/v1_VE250_randls_34.json,643593,1143747,57,Woman
92,165862,DepthScenes,duration_manipulation_targetAtFixation,jsons/v1_VE250_randls_34.json,http://54.235.29.9/FacialAge/BNav_EC2/DepthDuration/v2_depth_duration_MTurk/v2_DepthDuration_HTML.html#11,11,1366,625,1366,768,8-29-2022,14-30-31,93,depth_duration_stimuli/000906_2014-06-08_13-35-43_260595134347_rgbf000155-resize_1/000906_2014-06-08_13-35-43_260595134347_rgbf000155-resize_1-target.png,250,2.8489999999999998,3,2587,257,meters,jsons/v1_VE250_randls_34.json,643593,1143747,57,Woman
93,165862,DepthScenes,duration_manipulation_targetAtFixation,jsons/v1_VE250_randls_34.json,http://54.235.29.9/FacialAge/BNav_EC2/DepthDuration/v2_depth_duration_MTurk/v2_DepthDuration_HTML.html#11,11,1366,625,1366,768,8-29-2022,14-30-31,94,depth_duration_stimuli/002805_2014-06-22_19-54-03_094959634447_rgbf000079-resize_1/002805_2014-06-22_19-54-03_094959634447_rgbf000079-resize_1-target.png,250,3.1439999999999997,5,2519,250,meters,jsons/v1_VE250_randls_34.json,643593,1143747,57,Woman
94,165862,DepthScenes,duration_manipulation_targetAtFixation,jsons/v1_VE250_randls_34.json,http://54.235.29.9/FacialAge/BNav_EC2/DepthDuration/v2_depth_duration_MTurk/v2_DepthDuration_HTML.html#11,11,1366,625,1366,768,8-29-2022,14-30-31,95,depth_duration_stimuli/001056_2014-06-08_18-46-44_260595134347_rgbf000068-resize_0/001056_2014-06-08_18-46-44_260595134347_rgbf000068-resize_0-target.png,250,2.6625,5,2741,191,meters,jsons/v1_VE250_randls_34.json,643593,1143747,57,Woman
95,165862,DepthScenes,duration_manipulation_targetAtFixation,jsons/v1_VE250_randls_34.json,http://54.235.29.9/FacialAge/BNav_EC2/DepthDuration/v2_depth_duration_MTurk/v2_DepthDuration_HTML.html#11,11,1366,625,1366,768,8-29-2022,14-30-31,96,depth_duration_stimuli/002199_2014-06-28_18-33-56_260595134347_rgbf000074-resize_0/002199_2014-06-28_18-33-56_260595134347_rgbf000074-resize_0-target.png,250,1.996,3,2696,256,meters,jsons/v1_VE250_randls_34.json,643593,1143747,57,Woman
96,165862,DepthScenes,duration_manipulation_targetAtFixation,jsons/v1_VE250_randls_34.json,http://54.235.29.9/FacialAge/BNav_EC2/DepthDuration/v2_depth_duration_MTurk/v2_DepthDuration_HTML.html#11,11,1366,625,1366,768,8-29-2022,14-30-31,97,depth_duration_stimuli/001066_2014-06-08_22-03-20_260595134347_rgbf000066-resize_4/001066_2014-06-08_22-03-20_260595134347_rgbf000066-resize_4-target.png,250,4.2330000000000005,5,2339,251,meters,jsons/v1_VE250_randls_34.json,643593,1143747,57,Woman
97,165862,DepthScenes,duration_manipulation_targetAtFixation,jsons/v1_VE250_randls_34.json,http://54.235.29.9/FacialAge/BNav_EC2/DepthDuration/v2_depth_duration_MTurk/v2_DepthDuration_HTML.html#11,11,1366,625,1366,768,8-29-2022,14-30-31,98,depth_duration_stimuli/000742_2014-06-08_18-48-09_260595134347_rgbf000164-resize_4/000742_2014-06-08_18-48-09_260595134347_rgbf000164-resize_4-target.png,250,4.632,3,3143,249,meters,jsons/v1_VE250_randls_34.json,643593,1143747,57,Woman
98,165862,DepthScenes,duration_manipulation_targetAtFixation,jsons/v1_VE250_randls_34.json,http://54.235.29.9/FacialAge/BNav_EC2/DepthDuration/v2_depth_duration_MTurk/v2_DepthDuration_HTML.html#11,11,1366,625,1366,768,8-29-2022,14-30-31,99,depth_duration_stimuli/001540_2014-06-20_17-01-05_260595134347_rgbf000086-resize_2/001540_2014-06-20_17-01-05_260595134347_rgbf000086-resize-original.jpg,250,1.459,5,3518,249,meters,jsons/v1_VE250_randls_34.json,643593,1143747,57,Woman
99,165862,DepthScenes,duration_manipulation_targetAtFixation,jsons/v1_VE250_randls_34.json,http://54.235.29.9/FacialAge/BNav_EC2/DepthDuration/v2_depth_duration_MTurk/v2_DepthDuration_HTML.html#11,11,1366,625,1366,768,8-29-2022,14-30-31,100,depth_duration_stimuli/002039_2014-06-24_20-22-38_260595134347_rgbf000084-resize_1/002039_2014-06-24_20-22-38_260595134347_rgbf000084-resize_1-target.png,250,4.408,5,2769,260,meters,jsons/v1_VE250_randls_34.json,643593,1143747,57,Woman
100,165862,DepthScenes,duration_manipulation_targetAtFixation,jsons/v1_VE250_randls_34.json,http://54.235.29.9/FacialAge/BNav_EC2/DepthDuration/v2_depth_duration_MTurk/v2_DepthDuration_HTML.html#11,11,1366,625,1366,768,8-29-2022,14-30-31,101,depth_duration_stimuli/002103_2014-06-25_20-00-40_260595134347_rgbf000049-resize_0/002103_2014-06-25_20-00-40_260595134347_rgbf000049-resize_0-target.png,250,4.105,5,2751,229,meters,jsons/v1_VE250_randls_34.json,643593,1143747,57,Woman
101,165862,DepthScenes,duration_manipulation_targetAtFixation,jsons/v1_VE250_randls_34.json,http://54.235.29.9/FacialAge/BNav_EC2/DepthDuration/v2_depth_duration_MTurk/v2_DepthDuration_HTML.html#11,11,1366,625,1366,768,8-29-2022,14-30-31,102,depth_duration_stimuli/002748_2014-06-22_19-07-22_094959634447_rgbf000078-resize_1/002748_2014-06-22_19-07-22_094959634447_rgbf000078-resize_1-target.png,250,4.6705,5,3160,233,meters,jsons/v1_VE250_randls_34.json,643593,1143747,57,Woman
102,165862,DepthScenes,duration_manipulation_targetAtFixation,jsons/v1_VE250_randls_34.json,http://54.235.29.9/FacialAge/BNav_EC2/DepthDuration/v2_depth_duration_MTurk/v2_DepthDuration_HTML.html#11,11,1366,625,1366,768,8-29-2022,14-30-31,103,depth_duration_stimuli/002995_2014-06-15_12-31-26_094959634447_rgbf000150-resize_1/002995_2014-06-15_12-31-26_094959634447_rgbf000150-resize_1-target.png,250,3.8360000000000003,6,4504,258,meters,jsons/v1_VE250_randls_34.json,643593,1143747,57,Woman
103,165862,DepthScenes,duration_manipulation_targetAtFixation,jsons/v1_VE250_randls_34.json,http://54.235.29.9/FacialAge/BNav_EC2/DepthDuration/v2_depth_duration_MTurk/v2_DepthDuration_HTML.html#11,11,1366,625,1366,768,8-29-2022,14-30-31,104,depth_duration_stimuli/001810_2014-06-26_20-51-35_260595134347_rgbf000040-resize_3/001810_2014-06-26_20-51-35_260595134347_rgbf000040-resize_3-target.png,250,2.2525,6,2374,255,meters,jsons/v1_VE250_randls_34.json,643593,1143747,57,Woman
104,165862,DepthScenes,duration_manipulation_targetAtFixation,jsons/v1_VE250_randls_34.json,http://54.235.29.9/FacialAge/BNav_EC2/DepthDuration/v2_depth_duration_MTurk/v2_DepthDuration_HTML.html#11,11,1366,625,1366,768,8-29-2022,14-30-31,105,depth_duration_stimuli/003010_2014-06-15_12-54-35_094959634447_rgbf000112-resize_0/003010_2014-06-15_12-54-35_094959634447_rgbf000112-resize_0-target.png,250,3.1185,6,2561,250,meters,jsons/v1_VE250_randls_34.json,643593,1143747,57,Woman
105,165862,DepthScenes,duration_manipulation_targetAtFixation,jsons/v1_VE250_randls_34.json,http://54.235.29.9/FacialAge/BNav_EC2/DepthDuration/v2_depth_duration_MTurk/v2_DepthDuration_HTML.html#11,11,1366,625,1366,768,8-29-2022,14-30-31,106,depth_duration_stimuli/001110_2014-06-15_17-25-28_260595134347_rgbf000150-resize_1/001110_2014-06-15_17-25-28_260595134347_rgbf000150-resize_1-target.png,250,1.7115,5,3717,533,meters,jsons/v1_VE250_randls_34.json,643593,1143747,57,Woman
106,165862,DepthScenes,duration_manipulation_targetAtFixation,jsons/v1_VE250_randls_34.json,http://54.235.29.9/FacialAge/BNav_EC2/DepthDuration/v2_depth_duration_MTurk/v2_DepthDuration_HTML.html#11,11,1366,625,1366,768,8-29-2022,14-30-31,107,depth_duration_stimuli/000927_2014-06-09_16-32-30_260595134347_rgbf000123-resize_3/000927_2014-06-09_16-32-30_260595134347_rgbf000123-resize_3-target.png,250,2.6785,5,2772,258,meters,jsons/v1_VE250_randls_34.json,643593,1143747,57,Woman
107,165862,DepthScenes,duration_manipulation_targetAtFixation,jsons/v1_VE250_randls_34.json,http://54.235.29.9/FacialAge/BNav_EC2/DepthDuration/v2_depth_duration_MTurk/v2_DepthDuration_HTML.html#11,11,1366,625,1366,768,8-29-2022,14-30-31,108,depth_duration_stimuli/002549_2014-06-24_13-41-39_094959634447_rgbf000022-resize_3/002549_2014-06-24_13-41-39_094959634447_rgbf000022-resize_3-target.png,250,1.476,6,2965,256,meters,jsons/v1_VE250_randls_34.json,643593,1143747,57,Woman
108,165862,DepthScenes,duration_manipulation_targetAtFixation,jsons/v1_VE250_randls_34.json,http://54.235.29.9/FacialAge/BNav_EC2/DepthDuration/v2_depth_duration_MTurk/v2_DepthDuration_HTML.html#11,11,1366,625,1366,768,8-29-2022,14-30-31,109,depth_duration_stimuli/002750_2014-06-22_19-08-03_094959634447_rgbf000094-resize_4/002750_2014-06-22_19-08-03_094959634447_rgbf000094-resize_4-target.png,250,2.354,5,2298,257,meters,jsons/v1_VE250_randls_34.json,643593,1143747,57,Woman
109,165862,DepthScenes,duration_manipulation_targetAtFixation,jsons/v1_VE250_randls_34.json,http://54.235.29.9/FacialAge/BNav_EC2/DepthDuration/v2_depth_duration_MTurk/v2_DepthDuration_HTML.html#11,11,1366,625,1366,768,8-29-2022,14-30-31,110,depth_duration_stimuli/000736_2014-06-08_18-24-15_260595134347_rgbf000206-resize_3/000736_2014-06-08_18-24-15_260595134347_rgbf000206-resize_3-target.png,250,3.515,5,2250,260,meters,jsons/v1_VE250_randls_34.json,643593,1143747,57,Woman
110,165862,DepthScenes,duration_manipulation_targetAtFixation,jsons/v1_VE250_randls_34.json,http://54.235.29.9/FacialAge/BNav_EC2/DepthDuration/v2_depth_duration_MTurk/v2_DepthDuration_HTML.html#11,11,1366,625,1366,768,8-29-2022,14-30-31,111,depth_duration_stimuli/000137_2014-05-20_17-04-49_260595134347_rgbf000120-resize_1/000137_2014-05-20_17-04-49_260595134347_rgbf000120-resize_1-target.png,250,3.786,6,2484,242,meters,jsons/v1_VE250_randls_34.json,643593,1143747,57,Woman
111,165862,DepthScenes,duration_manipulation_targetAtFixation,jsons/v1_VE250_randls_34.json,http://54.235.29.9/FacialAge/BNav_EC2/DepthDuration/v2_depth_duration_MTurk/v2_DepthDuration_HTML.html#11,11,1366,625,1366,768,8-29-2022,14-30-31,112,depth_duration_stimuli/002964_2014-06-08_17-46-11_094959634447_rgbf000091-resize_4/002964_2014-06-08_17-46-11_094959634447_rgbf000091-resize_4-target.png,250,1.6909999999999998,5,2184,209,meters,jsons/v1_VE250_randls_34.json,643593,1143747,57,Woman
112,165862,DepthScenes,duration_manipulation_targetAtFixation,jsons/v1_VE250_randls_34.json,http://54.235.29.9/FacialAge/BNav_EC2/DepthDuration/v2_depth_duration_MTurk/v2_DepthDuration_HTML.html#11,11,1366,625,1366,768,8-29-2022,14-30-31,113,depth_duration_stimuli/002136_2014-06-25_21-18-03_260595134347_rgbf000109-resize_3/002136_2014-06-25_21-18-03_260595134347_rgbf000109-resize_3-target.png,250,1.9569999999999999,5,2752,262,meters,jsons/v1_VE250_randls_34.json,643593,1143747,57,Woman
113,165862,DepthScenes,duration_manipulation_targetAtFixation,jsons/v1_VE250_randls_34.json,http://54.235.29.9/FacialAge/BNav_EC2/DepthDuration/v2_depth_duration_MTurk/v2_DepthDuration_HTML.html#11,11,1366,625,1366,768,8-29-2022,14-30-31,114,depth_duration_stimuli/001164_2014-06-17_15-35-46_260595134347_rgbf000085-resize_3/001164_2014-06-17_15-35-46_260595134347_rgbf000085-resize_3-target.png,250,2.354,6,2663,250,meters,jsons/v1_VE250_randls_34.json,643593,1143747,57,Woman
114,165862,DepthScenes,duration_manipulation_targetAtFixation,jsons/v1_VE250_randls_34.json,http://54.235.29.9/FacialAge/BNav_EC2/DepthDuration/v2_depth_duration_MTurk/v2_DepthDuration_HTML.html#11,11,1366,625,1366,768,8-29-2022,14-30-31,115,depth_duration_stimuli/001136_2014-06-17_15-19-41_260595134347_rgbf000076-resize_3/001136_2014-06-17_15-19-41_260595134347_rgbf000076-resize_3-target.png,250,1.8655,4,3131,261,meters,jsons/v1_VE250_randls_34.json,643593,1143747,57,Woman
115,165862,DepthScenes,duration_manipulation_targetAtFixation,jsons/v1_VE250_randls_34.json,http://54.235.29.9/FacialAge/BNav_EC2/DepthDuration/v2_depth_duration_MTurk/v2_DepthDuration_HTML.html#11,11,1366,625,1366,768,8-29-2022,14-30-31,116,depth_duration_stimuli/001170_2014-06-17_15-43-44_260595134347_rgbf000096-resize_6/001170_2014-06-17_15-43-44_260595134347_rgbf000096-resize-original.jpg,250,1.1909999999999998,6,2446,249,meters,jsons/v1_VE250_randls_34.json,643593,1143747,57,Woman
116,165862,DepthScenes,duration_manipulation_targetAtFixation,jsons/v1_VE250_randls_34.json,http://54.235.29.9/FacialAge/BNav_EC2/DepthDuration/v2_depth_duration_MTurk/v2_DepthDuration_HTML.html#11,11,1366,625,1366,768,8-29-2022,14-30-31,117,depth_duration_stimuli/001150_2014-06-17_15-27-34_260595134347_rgbf000108-resize_2/001150_2014-06-17_15-27-34_260595134347_rgbf000108-resize_2-target.png,250,4.0325,5,2364,238,meters,jsons/v1_VE250_randls_34.json,643593,1143747,57,Woman
117,165862,DepthScenes,duration_manipulation_targetAtFixation,jsons/v1_VE250_randls_34.json,http://54.235.29.9/FacialAge/BNav_EC2/DepthDuration/v2_depth_duration_MTurk/v2_DepthDuration_HTML.html#11,11,1366,625,1366,768,8-29-2022,14-30-31,118,depth_duration_stimuli/000665_2014-06-09_20-42-35_260595134347_rgbf000110-resize_1/000665_2014-06-09_20-42-35_260595134347_rgbf000110-resize_1-target.png,250,3.057,4,2532,250,meters,jsons/v1_VE250_randls_34.json,643593,1143747,57,Woman
118,165862,DepthScenes,duration_manipulation_targetAtFixation,jsons/v1_VE250_randls_34.json,http://54.235.29.9/FacialAge/BNav_EC2/DepthDuration/v2_depth_duration_MTurk/v2_DepthDuration_HTML.html#11,11,1366,625,1366,768,8-29-2022,14-30-31,119,depth_duration_stimuli/000692_2014-06-08_13-09-42_260595134347_rgbf000199-resize_2/000692_2014-06-08_13-09-42_260595134347_rgbf000199-resize_2-target.png,250,3.661,5,2679,247,meters,jsons/v1_VE250_randls_34.json,643593,1143747,57,Woman
119,165862,DepthScenes,duration_manipulation_targetAtFixation,jsons/v1_VE250_randls_34.json,http://54.235.29.9/FacialAge/BNav_EC2/DepthDuration/v2_depth_duration_MTurk/v2_DepthDuration_HTML.html#11,11,1366,625,1366,768,8-29-2022,14-30-31,120,depth_duration_stimuli/001094_2014-06-15_17-36-00_260595134347_rgbf000205-resize_0/001094_2014-06-15_17-36-00_260595134347_rgbf000205-resize_0-target.png,250,4.2175,4,2919,153,meters,jsons/v1_VE250_randls_34.json,643593,1143747,57,Woman
120,165862,DepthScenes,duration_manipulation_targetAtFixation,jsons/v1_VE250_randls_34.json,http://54.235.29.9/FacialAge/BNav_EC2/DepthDuration/v2_depth_duration_MTurk/v2_DepthDuration_HTML.html#11,11,1366,625,1366,768,8-29-2022,14-30-31,121,depth_duration_stimuli/001029_2014-06-08_13-17-57_260595134347_rgbf000065-resize_1/001029_2014-06-08_13-17-57_260595134347_rgbf000065-resize_1-target.png,250,3.0835,6,3170,263,meters,jsons/v1_VE250_randls_34.json,643593,1143747,57,Woman
121,165862,DepthScenes,duration_manipulation_targetAtFixation,jsons/v1_VE250_randls_34.json,http://54.235.29.9/FacialAge/BNav_EC2/DepthDuration/v2_depth_duration_MTurk/v2_DepthDuration_HTML.html#11,11,1366,625,1366,768,8-29-2022,14-30-31,122,depth_duration_stimuli/000677_2014-06-08_23-10-32_260595134347_rgbf000158-resize_6/000677_2014-06-08_23-10-32_260595134347_rgbf000158-resize_6-target.png,250,3.556,4,2141,249,meters,jsons/v1_VE250_randls_34.json,643593,1143747,57,Woman
122,165862,DepthScenes,duration_manipulation_targetAtFixation,jsons/v1_VE250_randls_34.json,http://54.235.29.9/FacialAge/BNav_EC2/DepthDuration/v2_depth_duration_MTurk/v2_DepthDuration_HTML.html#11,11,1366,625,1366,768,8-29-2022,14-30-31,123,depth_duration_stimuli/000878_2014-06-08_22-52-45_260595134347_rgbf000045-resize_2/000878_2014-06-08_22-52-45_260595134347_rgbf000045-resize_2-target.png,250,2.092,6,2193,348,meters,jsons/v1_VE250_randls_34.json,643593,1143747,57,Woman
123,165862,DepthScenes,duration_manipulation_targetAtFixation,jsons/v1_VE250_randls_34.json,http://54.235.29.9/FacialAge/BNav_EC2/DepthDuration/v2_depth_duration_MTurk/v2_DepthDuration_HTML.html#11,11,1366,625,1366,768,8-29-2022,14-30-31,124,depth_duration_stimuli/002953_2014-06-08_17-32-18_094959634447_rgbf000059-resize_5/002953_2014-06-08_17-32-18_094959634447_rgbf000059-resize_5-target.png,250,1.551,3,2530,248,meters,jsons/v1_VE250_randls_34.json,643593,1143747,57,Woman
124,165862,DepthScenes,duration_manipulation_targetAtFixation,jsons/v1_VE250_randls_34.json,http://54.235.29.9/FacialAge/BNav_EC2/DepthDuration/v2_depth_duration_MTurk/v2_DepthDuration_HTML.html#11,11,1366,625,1366,768,8-29-2022,14-30-31,125,depth_duration_stimuli/000929_2014-06-09_16-33-19_260595134347_rgbf000139-resize_0/000929_2014-06-09_16-33-19_260595134347_rgbf000139-resize_0-target.png,250,2.8680000000000003,3,2330,244,meters,jsons/v1_VE250_randls_34.json,643593,1143747,57,Woman
125,165862,DepthScenes,duration_manipulation_targetAtFixation,jsons/v1_VE250_randls_34.json,http://54.235.29.9/FacialAge/BNav_EC2/DepthDuration/v2_depth_duration_MTurk/v2_DepthDuration_HTML.html#11,11,1366,625,1366,768,8-29-2022,14-30-31,126,depth_duration_stimuli/000457_2014-06-08_16-52-43_260595134347_rgbf000199-resize_1/000457_2014-06-08_16-52-43_260595134347_rgbf000199-resize_1-target.png,250,3.6489999999999996,3,2827,241,meters,jsons/v1_VE250_randls_34.json,643593,1143747,57,Woman
126,165862,DepthScenes,duration_manipulation_targetAtFixation,jsons/v1_VE250_randls_34.json,http://54.235.29.9/FacialAge/BNav_EC2/DepthDuration/v2_depth_duration_MTurk/v2_DepthDuration_HTML.html#11,11,1366,625,1366,768,8-29-2022,14-30-31,127,depth_duration_stimuli/001417_2014-06-19_16-25-36_260595134347_rgbf000115-resize_5/001417_2014-06-19_16-25-36_260595134347_rgbf000115-resize_5-target.png,250,4.6255,4,5939,249,meters,jsons/v1_VE250_randls_34.json,643593,1143747,57,Woman
127,165862,DepthScenes,duration_manipulation_targetAtFixation,jsons/v1_VE250_randls_34.json,http://54.235.29.9/FacialAge/BNav_EC2/DepthDuration/v2_depth_duration_MTurk/v2_DepthDuration_HTML.html#11,11,1366,625,1366,768,8-29-2022,14-30-31,128,depth_duration_stimuli/003081_2014-06-15_15-19-16_094959634447_rgbf000150-resize_1/003081_2014-06-15_15-19-16_094959634447_rgbf000150-resize_1-target.png,250,3.9125,3,2400,253,meters,jsons/v1_VE250_randls_34.json,643593,1143747,57,Woman
128,165862,DepthScenes,duration_manipulation_targetAtFixation,jsons/v1_VE250_randls_34.json,http://54.235.29.9/FacialAge/BNav_EC2/DepthDuration/v2_depth_duration_MTurk/v2_DepthDuration_HTML.html#11,11,1366,625,1366,768,8-29-2022,14-30-31,129,depth_duration_stimuli/002725_2014-06-22_11-47-51_094959634447_rgbf000070-resize_1/002725_2014-06-22_11-47-51_094959634447_rgbf000070-resize_1-target.png,250,2.195,4,3674,237,meters,jsons/v1_VE250_randls_34.json,643593,1143747,57,Woman
129,165862,DepthScenes,duration_manipulation_targetAtFixation,jsons/v1_VE250_randls_34.json,http://54.235.29.9/FacialAge/BNav_EC2/DepthDuration/v2_depth_duration_MTurk/v2_DepthDuration_HTML.html#11,11,1366,625,1366,768,8-29-2022,14-30-31,130,depth_duration_stimuli/002344_2014-06-28_20-06-29_260595134347_rgbf000030-resize_1/002344_2014-06-28_20-06-29_260595134347_rgbf000030-resize_1-target.png,250,1.5795,3,6758,258,meters,jsons/v1_VE250_randls_34.json,643593,1143747,57,Woman
130,165862,DepthScenes,duration_manipulation_targetAtFixation,jsons/v1_VE250_randls_34.json,http://54.235.29.9/FacialAge/BNav_EC2/DepthDuration/v2_depth_duration_MTurk/v2_DepthDuration_HTML.html#11,11,1366,625,1366,768,8-29-2022,14-30-31,131,depth_duration_stimuli/002630_2014-06-24_14-47-50_094959634447_rgbf000055-resize_1/002630_2014-06-24_14-47-50_094959634447_rgbf000055-resize_1-target.png,250,3.0095,3,2251,245,meters,jsons/v1_VE250_randls_34.json,643593,1143747,57,Woman
131,165862,DepthScenes,duration_manipulation_targetAtFixation,jsons/v1_VE250_randls_34.json,http://54.235.29.9/FacialAge/BNav_EC2/DepthDuration/v2_depth_duration_MTurk/v2_DepthDuration_HTML.html#11,11,1366,625,1366,768,8-29-2022,14-30-31,132,depth_duration_stimuli/002758_2014-06-22_19-11-20_094959634447_rgbf000128-resize_1/002758_2014-06-22_19-11-20_094959634447_rgbf000128-resize_1-target.png,250,2.555,4,2752,250,meters,jsons/v1_VE250_randls_34.json,643593,1143747,57,Woman
132,165862,DepthScenes,duration_manipulation_targetAtFixation,jsons/v1_VE250_randls_34.json,http://54.235.29.9/FacialAge/BNav_EC2/DepthDuration/v2_depth_duration_MTurk/v2_DepthDuration_HTML.html#11,11,1366,625,1366,768,8-29-2022,14-30-31,133,depth_duration_stimuli/002763_2014-06-22_19-13-10_094959634447_rgbf000075-resize_4/002763_2014-06-22_19-13-10_094959634447_rgbf000075-resize_4-target.png,250,1.68375,3,2580,226,meters,jsons/v1_VE250_randls_34.json,643593,1143747,57,Woman
133,165862,DepthScenes,duration_manipulation_targetAtFixation,jsons/v1_VE250_randls_34.json,http://54.235.29.9/FacialAge/BNav_EC2/DepthDuration/v2_depth_duration_MTurk/v2_DepthDuration_HTML.html#11,11,1366,625,1366,768,8-29-2022,14-30-31,134,depth_duration_stimuli/002209_2014-06-28_18-36-10_260595134347_rgbf000051-resize_1/002209_2014-06-28_18-36-10_260595134347_rgbf000051-resize_1-target.png,250,2.057,3,4208,255,meters,jsons/v1_VE250_randls_34.json,643593,1143747,57,Woman
134,165862,DepthScenes,duration_manipulation_targetAtFixation,jsons/v1_VE250_randls_34.json,http://54.235.29.9/FacialAge/BNav_EC2/DepthDuration/v2_depth_duration_MTurk/v2_DepthDuration_HTML.html#11,11,1366,625,1366,768,8-29-2022,14-30-31,135,depth_duration_stimuli/002072_2014-06-24_21-48-06_260595134347_rgbf000115-resize_0/002072_2014-06-24_21-48-06_260595134347_rgbf000115-resize-original.jpg,250,4.702,0,4575,206,meters,jsons/v1_VE250_randls_34.json,643593,1143747,57,Woman
135,165862,DepthScenes,duration_manipulation_targetAtFixation,jsons/v1_VE250_randls_34.json,http://54.235.29.9/FacialAge/BNav_EC2/DepthDuration/v2_depth_duration_MTurk/v2_DepthDuration_HTML.html#11,11,1366,625,1366,768,8-29-2022,14-30-31,136,depth_duration_stimuli/002988_2014-06-15_12-24-20_094959634447_rgbf000150-resize_1/002988_2014-06-15_12-24-20_094959634447_rgbf000150-resize_1-target.png,250,4.7669999999999995,2,3579,246,meters,jsons/v1_VE250_randls_34.json,643593,1143747,57,Woman
136,165862,DepthScenes,duration_manipulation_targetAtFixation,jsons/v1_VE250_randls_34.json,http://54.235.29.9/FacialAge/BNav_EC2/DepthDuration/v2_depth_duration_MTurk/v2_DepthDuration_HTML.html#11,11,1366,625,1366,768,8-29-2022,14-30-31,137,depth_duration_stimuli/001052_2014-06-08_18-24-54_260595134347_rgbf000130-resize_1/001052_2014-06-08_18-24-54_260595134347_rgbf000130-resize_1-target.png,250,4.1045,4,2421,239,meters,jsons/v1_VE250_randls_34.json,643593,1143747,57,Woman
137,165862,DepthScenes,duration_manipulation_targetAtFixation,jsons/v1_VE250_randls_34.json,http://54.235.29.9/FacialAge/BNav_EC2/DepthDuration/v2_depth_duration_MTurk/v2_DepthDuration_HTML.html#11,11,1366,625,1366,768,8-29-2022,14-30-31,138,depth_duration_stimuli/000758_2014-06-08_22-05-08_260595134347_rgbf000085-resize_0/000758_2014-06-08_22-05-08_260595134347_rgbf000085-resize_0-target.png,250,3.3810000000000002,2,2457,247,meters,jsons/v1_VE250_randls_34.json,643593,1143747,57,Woman
138,165862,DepthScenes,duration_manipulation_targetAtFixation,jsons/v1_VE250_randls_34.json,http://54.235.29.9/FacialAge/BNav_EC2/DepthDuration/v2_depth_duration_MTurk/v2_DepthDuration_HTML.html#11,11,1366,625,1366,768,8-29-2022,14-30-31,139,depth_duration_stimuli/000854_2014-06-09_19-43-13_260595134347_rgbf000066-resize_0/000854_2014-06-09_19-43-13_260595134347_rgbf000066-resize_0-target.png,250,3.068,5,2144,261,meters,jsons/v1_VE250_randls_34.json,643593,1143747,57,Woman
139,165862,DepthScenes,duration_manipulation_targetAtFixation,jsons/v1_VE250_randls_34.json,http://54.235.29.9/FacialAge/BNav_EC2/DepthDuration/v2_depth_duration_MTurk/v2_DepthDuration_HTML.html#11,11,1366,625,1366,768,8-29-2022,14-30-31,140,depth_duration_stimuli/000447_2014-06-08_16-15-46_260595134347_rgbf000130-resize_1/000447_2014-06-08_16-15-46_260595134347_rgbf000130-resize_1-target.png,250,4.479,5,2437,263,meters,jsons/v1_VE250_randls_34.json,643593,1143747,57,Woman
140,165862,DepthScenes,duration_manipulation_targetAtFixation,jsons/v1_VE250_randls_34.json,http://54.235.29.9/FacialAge/BNav_EC2/DepthDuration/v2_depth_duration_MTurk/v2_DepthDuration_HTML.html#11,11,1366,625,1366,768,8-29-2022,14-30-31,141,depth_duration_stimuli/001447_2014-06-19_17-00-32_260595134347_rgbf000082-resize_5/001447_2014-06-19_17-00-32_260595134347_rgbf000082-resize_5-target.png,250,4.13775,5,2762,248,meters,jsons/v1_VE250_randls_34.json,643593,1143747,57,Woman
141,165862,DepthScenes,duration_manipulation_targetAtFixation,jsons/v1_VE250_randls_34.json,http://54.235.29.9/FacialAge/BNav_EC2/DepthDuration/v2_depth_duration_MTurk/v2_DepthDuration_HTML.html#11,11,1366,625,1366,768,8-29-2022,14-30-31,142,depth_duration_stimuli/003534_2014-05-22_15-06-10_094959634447_rgbf000102-resize_4/003534_2014-05-22_15-06-10_094959634447_rgbf000102-resize_4-target.png,250,1.426,6,2907,258,meters,jsons/v1_VE250_randls_34.json,643593,1143747,57,Woman
142,165862,DepthScenes,duration_manipulation_targetAtFixation,jsons/v1_VE250_randls_34.json,http://54.235.29.9/FacialAge/BNav_EC2/DepthDuration/v2_depth_duration_MTurk/v2_DepthDuration_HTML.html#11,11,1366,625,1366,768,8-29-2022,14-30-31,143,depth_duration_stimuli/002637_2014-06-24_14-51-13_094959634447_rgbf000066-resize_4/002637_2014-06-24_14-51-13_094959634447_rgbf000066-resize_4-target.png,250,1.9955,5,3205,259,meters,jsons/v1_VE250_randls_34.json,643593,1143747,57,Woman
143,165862,DepthScenes,duration_manipulation_targetAtFixation,jsons/v1_VE250_randls_34.json,http://54.235.29.9/FacialAge/BNav_EC2/DepthDuration/v2_depth_duration_MTurk/v2_DepthDuration_HTML.html#11,11,1366,625,1366,768,8-29-2022,14-30-31,144,depth_duration_stimuli/000436_2014-06-09_22-25-11_260595134347_rgbf000137-resize_1/000436_2014-06-09_22-25-11_260595134347_rgbf000137-resize_1-target.png,250,4.0705,3,2642,242,meters,jsons/v1_VE250_randls_34.json,643593,1143747,57,Woman
144,165862,DepthScenes,duration_manipulation_targetAtFixation,jsons/v1_VE250_randls_34.json,http://54.235.29.9/FacialAge/BNav_EC2/DepthDuration/v2_depth_duration_MTurk/v2_DepthDuration_HTML.html#11,11,1366,625,1366,768,8-29-2022,14-30-31,145,depth_duration_stimuli/002444_2014-06-28_20-32-08_260595134347_rgbf000027-resize_0/002444_2014-06-28_20-32-08_260595134347_rgbf000027-resize_0-target.png,250,4.388999999999999,0,5183,101,meters,jsons/v1_VE250_randls_34.json,643593,1143747,57,Woman
145,165862,DepthScenes,duration_manipulation_targetAtFixation,jsons/v1_VE250_randls_34.json,http://54.235.29.9/FacialAge/BNav_EC2/DepthDuration/v2_depth_duration_MTurk/v2_DepthDuration_HTML.html#11,11,1366,625,1366,768,8-29-2022,14-30-31,146,depth_duration_stimuli/001498_2014-06-19_17-45-14_260595134347_rgbf000129-resize_4/001498_2014-06-19_17-45-14_260595134347_rgbf000129-resize-original.jpg,250,1.4075,0,2789,236,meters,jsons/v1_VE250_randls_34.json,643593,1143747,57,Woman
146,165862,DepthScenes,duration_manipulation_targetAtFixation,jsons/v1_VE250_randls_34.json,http://54.235.29.9/FacialAge/BNav_EC2/DepthDuration/v2_depth_duration_MTurk/v2_DepthDuration_HTML.html#11,11,1366,625,1366,768,8-29-2022,14-30-31,147,depth_duration_stimuli/000810_2014-06-08_17-20-01_260595134347_rgbf000105-resize_0/000810_2014-06-08_17-20-01_260595134347_rgbf000105-resize_0-target.png,250,1.4865,4,3390,221,meters,jsons/v1_VE250_randls_34.json,643593,1143747,57,Woman
147,165862,DepthScenes,duration_manipulation_targetAtFixation,jsons/v1_VE250_randls_34.json,http://54.235.29.9/FacialAge/BNav_EC2/DepthDuration/v2_depth_duration_MTurk/v2_DepthDuration_HTML.html#11,11,1366,625,1366,768,8-29-2022,14-30-31,148,depth_duration_stimuli/001214_2014-06-17_16-13-55_260595134347_rgbf000111-resize_0/001214_2014-06-17_16-13-55_260595134347_rgbf000111-resize_0-target.png,250,2.6505,5,2290,257,meters,jsons/v1_VE250_randls_34.json,643593,1143747,57,Woman
148,165862,DepthScenes,duration_manipulation_targetAtFixation,jsons/v1_VE250_randls_34.json,http://54.235.29.9/FacialAge/BNav_EC2/DepthDuration/v2_depth_duration_MTurk/v2_DepthDuration_HTML.html#11,11,1366,625,1366,768,8-29-2022,14-30-31,149,depth_duration_stimuli/002043_2014-06-24_20-29-38_260595134347_rgbf000039-resize_4/002043_2014-06-24_20-29-38_260595134347_rgbf000039-resize_4-target.png,250,2.8435,5,2367,259,meters,jsons/v1_VE250_randls_34.json,643593,1143747,57,Woman
149,165862,DepthScenes,duration_manipulation_targetAtFixation,jsons/v1_VE250_randls_34.json,http://54.235.29.9/FacialAge/BNav_EC2/DepthDuration/v2_depth_duration_MTurk/v2_DepthDuration_HTML.html#11,11,1366,625,1366,768,8-29-2022,14-30-31,150,depth_duration_stimuli/003048_2014-06-15_13-49-43_094959634447_rgbf000150-resize_1/003048_2014-06-15_13-49-43_094959634447_rgbf000150-resize_1-target.png,250,4.0035,7,2821,254,meters,jsons/v1_VE250_randls_34.json,643593,1143747,57,Woman
150,165862,DepthScenes,duration_manipulation_targetAtFixation,jsons/v1_VE250_randls_34.json,http://54.235.29.9/FacialAge/BNav_EC2/DepthDuration/v2_depth_duration_MTurk/v2_DepthDuration_HTML.html#11,11,1366,625,1366,768,8-29-2022,14-30-31,151,depth_duration_stimuli/002272_2014-06-28_18-53-56_260595134347_rgbf000067-resize_2/002272_2014-06-28_18-53-56_260595134347_rgbf000067-resize_2-target.png,250,1.138,5,2180,157,meters,jsons/v1_VE250_randls_34.json,643593,1143747,57,Woman
151,165862,DepthScenes,duration_manipulation_targetAtFixation,jsons/v1_VE250_randls_34.json,http://54.235.29.9/FacialAge/BNav_EC2/DepthDuration/v2_depth_duration_MTurk/v2_DepthDuration_HTML.html#11,11,1366,625,1366,768,8-29-2022,14-30-31,152,depth_duration_stimuli/001571_2014-06-20_17-21-32_260595134347_rgbf000089-resize_1/001571_2014-06-20_17-21-32_260595134347_rgbf000089-resize_1-target.png,250,1.86,4,3079,254,meters,jsons/v1_VE250_randls_34.json,643593,1143747,57,Woman
152,165862,DepthScenes,duration_manipulation_targetAtFixation,jsons/v1_VE250_randls_34.json,http://54.235.29.9/FacialAge/BNav_EC2/DepthDuration/v2_depth_duration_MTurk/v2_DepthDuration_HTML.html#11,11,1366,625,1366,768,8-29-2022,14-30-31,153,depth_duration_stimuli/000642_2014-06-08_16-59-25_260595134347_rgbf000098-resize_2/000642_2014-06-08_16-59-25_260595134347_rgbf000098-resize_2-target.png,250,2.8815,5,3223,255,meters,jsons/v1_VE250_randls_34.json,643593,1143747,57,Woman
153,165862,DepthScenes,duration_manipulation_targetAtFixation,jsons/v1_VE250_randls_34.json,http://54.235.29.9/FacialAge/BNav_EC2/DepthDuration/v2_depth_duration_MTurk/v2_DepthDuration_HTML.html#11,11,1366,625,1366,768,8-29-2022,14-30-31,154,depth_duration_stimuli/002425_2014-06-28_20-27-29_260595134347_rgbf000031-resize_8/002425_2014-06-28_20-27-29_260595134347_rgbf000031-resize_8-target.png,250,3.8960000000000004,5,2281,376,meters,jsons/v1_VE250_randls_34.json,643593,1143747,57,Woman
154,165862,DepthScenes,duration_manipulation_targetAtFixation,jsons/v1_VE250_randls_34.json,http://54.235.29.9/FacialAge/BNav_EC2/DepthDuration/v2_depth_duration_MTurk/v2_DepthDuration_HTML.html#11,11,1366,625,1366,768,8-29-2022,14-30-31,155,depth_duration_stimuli/001244_2014-06-17_16-47-45_260595134347_rgbf000030-resize_4/001244_2014-06-17_16-47-45_260595134347_rgbf000030-resize_4-target.png,250,2.0425,4,2373,264,meters,jsons/v1_VE250_randls_34.json,643593,1143747,57,Woman
155,165862,DepthScenes,duration_manipulation_targetAtFixation,jsons/v1_VE250_randls_34.json,http://54.235.29.9/FacialAge/BNav_EC2/DepthDuration/v2_depth_duration_MTurk/v2_DepthDuration_HTML.html#11,11,1366,625,1366,768,8-29-2022,14-30-31,156,depth_duration_stimuli/003495_2014-05-21_16-01-51_094959634447_rgbf000100-resize_3/003495_2014-05-21_16-01-51_094959634447_rgbf000100-resize_3-target.png,250,1.6255,5,2767,102,meters,jsons/v1_VE250_randls_34.json,643593,1143747,57,Woman
156,165862,DepthScenes,duration_manipulation_targetAtFixation,jsons/v1_VE250_randls_34.json,http://54.235.29.9/FacialAge/BNav_EC2/DepthDuration/v2_depth_duration_MTurk/v2_DepthDuration_HTML.html#11,11,1366,625,1366,768,8-29-2022,14-30-31,157,depth_duration_stimuli/001059_2014-06-08_21-53-27_260595134347_rgbf000061-resize_4/001059_2014-06-08_21-53-27_260595134347_rgbf000061-resize_4-target.png,250,2.4185,7,3427,250,meters,jsons/v1_VE250_randls_34.json,643593,1143747,57,Woman
157,165862,DepthScenes,duration_manipulation_targetAtFixation,jsons/v1_VE250_randls_34.json,http://54.235.29.9/FacialAge/BNav_EC2/DepthDuration/v2_depth_duration_MTurk/v2_DepthDuration_HTML.html#11,11,1366,625,1366,768,8-29-2022,14-30-31,158,depth_duration_stimuli/001032_2014-06-08_13-23-17_260595134347_rgbf000021-resize_3/001032_2014-06-08_13-23-17_260595134347_rgbf000021-resize_3-target.png,250,3.2725,5,3530,257,meters,jsons/v1_VE250_randls_34.json,643593,1143747,57,Woman
158,165862,DepthScenes,duration_manipulation_targetAtFixation,jsons/v1_VE250_randls_34.json,http://54.235.29.9/FacialAge/BNav_EC2/DepthDuration/v2_depth_duration_MTurk/v2_DepthDuration_HTML.html#11,11,1366,625,1366,768,8-29-2022,14-30-31,159,depth_duration_stimuli/002600_2014-06-24_14-27-04_094959634447_rgbf000074-resize_2/002600_2014-06-24_14-27-04_094959634447_rgbf000074-resize_2-target.png,250,2.7575,7,3169,251,meters,jsons/v1_VE250_randls_34.json,643593,1143747,57,Woman
159,165862,DepthScenes,duration_manipulation_targetAtFixation,jsons/v1_VE250_randls_34.json,http://54.235.29.9/FacialAge/BNav_EC2/DepthDuration/v2_depth_duration_MTurk/v2_DepthDuration_HTML.html#11,11,1366,625,1366,768,8-29-2022,14-30-31,160,depth_duration_stimuli/003228_2014-05-14_13-42-35_094959634447_rgbf000101-resize_1/003228_2014-05-14_13-42-35_094959634447_rgbf000101-resize_1-target.png,250,1.9680000000000002,8,3391,245,meters,jsons/v1_VE250_randls_34.json,643593,1143747,57,Woman
160,165862,DepthScenes,duration_manipulation_targetAtFixation,jsons/v1_VE250_randls_34.json,http://54.235.29.9/FacialAge/BNav_EC2/DepthDuration/v2_depth_duration_MTurk/v2_DepthDuration_HTML.html#11,11,1366,625,1366,768,8-29-2022,14-30-31,161,depth_duration_stimuli/001806_2014-06-26_20-50-20_260595134347_rgbf000091-resize_1/001806_2014-06-26_20-50-20_260595134347_rgbf000091-resize_1-target.png,250,2.7305,5,2386,250,meters,jsons/v1_VE250_randls_34.json,643593,1143747,57,Woman
161,165862,DepthScenes,duration_manipulation_targetAtFixation,jsons/v1_VE250_randls_34.json,http://54.235.29.9/FacialAge/BNav_EC2/DepthDuration/v2_depth_duration_MTurk/v2_DepthDuration_HTML.html#11,11,1366,625,1366,768,8-29-2022,14-30-31,162,depth_duration_stimuli/001617_2014-06-20_11-35-32_260595134347_rgbf000066-resize_1/001617_2014-06-20_11-35-32_260595134347_rgbf000066-resize_1-target.png,250,3.7910000000000004,7,2298,250,meters,jsons/v1_VE250_randls_34.json,643593,1143747,57,Woman
162,165862,DepthScenes,duration_manipulation_targetAtFixation,jsons/v1_VE250_randls_34.json,http://54.235.29.9/FacialAge/BNav_EC2/DepthDuration/v2_depth_duration_MTurk/v2_DepthDuration_HTML.html#11,11,1366,625,1366,768,8-29-2022,14-30-31,163,depth_duration_stimuli/001555_2014-06-20_17-12-10_260595134347_rgbf000065-resize_4/001555_2014-06-20_17-12-10_260595134347_rgbf000065-resize_4-target.png,250,1.633,0,3419,257,meters,jsons/v1_VE250_randls_34.json,643593,1143747,57,Woman
163,165862,DepthScenes,duration_manipulation_targetAtFixation,jsons/v1_VE250_randls_34.json,http://54.235.29.9/FacialAge/BNav_EC2/DepthDuration/v2_depth_duration_MTurk/v2_DepthDuration_HTML.html#11,11,1366,625,1366,768,8-29-2022,14-30-31,164,depth_duration_stimuli/000103_2014-05-14_22-01-17_260595134347_rgbf000152-resize_5/000103_2014-05-14_22-01-17_260595134347_rgbf000152-resize_5-target.png,250,1.993,7,2754,244,meters,jsons/v1_VE250_randls_34.json,643593,1143747,57,Woman
