,subjID,experimentName,versionName,sequenceName,url,selected_row,windowWidth,windowHeight,screenWidth,screenHeight,startDate,startTime,trial,stimulus,duration,actual_depth,depth_estimate,trial_RT,log_sceneDuration,unitSelection,seq_filepath,experimentTime,totalTime,age,gender
0,167076,DepthScenes,duration_manipulation_targetAtFixation,jsons/VE83_randls_63_rotated.json,http://54.235.29.9/FacialAge/BNav_EC2/DepthDuration/v2_depth_duration_MTurk/v2_DepthDuration_HTML.html#6,6,1280,571,1280,720,8-29-2023,13-18-14,1,depth_duration_stimuli/003129_2014-05-12_10-48-10_094959634447_rgbf000100-resize_0/003129_2014-05-12_10-48-10_094959634447_rgbf000100-resize_0-target.png,83,4.9305,1,7244,84,feet,jsons/VE83_randls_63_rotated.json,673112,907066,57,Man
1,167076,DepthScenes,duration_manipulation_targetAtFixation,jsons/VE83_randls_63_rotated.json,http://54.235.29.9/FacialAge/BNav_EC2/DepthDuration/v2_depth_duration_MTurk/v2_DepthDuration_HTML.html#6,6,1280,571,1280,720,8-29-2023,13-18-14,2,depth_duration_stimuli/000414_2014-06-04_19-49-13_260595134347_rgbf000044-resize_0/000414_2014-06-04_19-49-13_260595134347_rgbf000044-resize_0-target.png,83,4.329,2,13813,79,feet,jsons/VE83_randls_63_rotated.json,673112,907066,57,Man
2,167076,DepthScenes,duration_manipulation_targetAtFixation,jsons/VE83_randls_63_rotated.json,http://54.235.29.9/FacialAge/BNav_EC2/DepthDuration/v2_depth_duration_MTurk/v2_DepthDuration_HTML.html#6,6,1280,571,1280,720,8-29-2023,13-18-14,3,depth_duration_stimuli/000109_2014-05-14_23-41-52_260595134347_rgbf000035-resize_9/000109_2014-05-14_23-41-52_260595134347_rgbf000035-resize_9-target.png,83,1.3545,1,3948,73,feet,jsons/VE83_randls_63_rotated.json,673112,907066,57,Man
3,167076,DepthScenes,duration_manipulation_targetAtFixation,jsons/VE83_randls_63_rotated.json,http://54.235.29.9/FacialAge/BNav_EC2/DepthDuration/v2_depth_duration_MTurk/v2_DepthDuration_HTML.html#6,6,1280,571,1280,720,8-29-2023,13-18-14,4,depth_duration_stimuli/000470_2014-06-09_19-42-40_260595134347_rgbf000094-resize_1/000470_2014-06-09_19-42-40_260595134347_rgbf000094-resize_1-target.png,83,1.831,1,4232,76,feet,jsons/VE83_randls_63_rotated.json,673112,907066,57,Man
4,167076,DepthScenes,duration_manipulation_targetAtFixation,jsons/VE83_randls_63_rotated.json,http://54.235.29.9/FacialAge/BNav_EC2/DepthDuration/v2_depth_duration_MTurk/v2_DepthDuration_HTML.html#6,6,1280,571,1280,720,8-29-2023,13-18-14,5,depth_duration_stimuli/003338_2014-05-20_11-01-23_094959634447_rgbf000051-resize_6/003338_2014-05-20_11-01-23_094959634447_rgbf000051-resize_6-target.png,83,1.693,0,7819,71,feet,jsons/VE83_randls_63_rotated.json,673112,907066,57,Man
5,167076,DepthScenes,duration_manipulation_targetAtFixation,jsons/VE83_randls_63_rotated.json,http://54.235.29.9/FacialAge/BNav_EC2/DepthDuration/v2_depth_duration_MTurk/v2_DepthDuration_HTML.html#6,6,1280,571,1280,720,8-29-2023,13-18-14,6,depth_duration_stimuli/002509_2014-06-24_13-19-22_094959634447_rgbf000077-resize_0/002509_2014-06-24_13-19-22_094959634447_rgbf000077-resize_0-target.png,83,1.3065,1,4219,78,feet,jsons/VE83_randls_63_rotated.json,673112,907066,57,Man
6,167076,DepthScenes,duration_manipulation_targetAtFixation,jsons/VE83_randls_63_rotated.json,http://54.235.29.9/FacialAge/BNav_EC2/DepthDuration/v2_depth_duration_MTurk/v2_DepthDuration_HTML.html#6,6,1280,571,1280,720,8-29-2023,13-18-14,7,depth_duration_stimuli/003010_2014-06-15_12-54-35_094959634447_rgbf000112-resize_0/003010_2014-06-15_12-54-35_094959634447_rgbf000112-resize_0-target.png,83,3.1185,2,3608,72,feet,jsons/VE83_randls_63_rotated.json,673112,907066,57,Man
7,167076,DepthScenes,duration_manipulation_targetAtFixation,jsons/VE83_randls_63_rotated.json,http://54.235.29.9/FacialAge/BNav_EC2/DepthDuration/v2_depth_duration_MTurk/v2_DepthDuration_HTML.html#6,6,1280,571,1280,720,8-29-2023,13-18-14,8,depth_duration_stimuli/001810_2014-06-26_20-51-35_260595134347_rgbf000040-resize_3/001810_2014-06-26_20-51-35_260595134347_rgbf000040-resize_3-target.png,83,2.2525,0,3117,77,feet,jsons/VE83_randls_63_rotated.json,673112,907066,57,Man
8,167076,DepthScenes,duration_manipulation_targetAtFixation,jsons/VE83_randls_63_rotated.json,http://54.235.29.9/FacialAge/BNav_EC2/DepthDuration/v2_depth_duration_MTurk/v2_DepthDuration_HTML.html#6,6,1280,571,1280,720,8-29-2023,13-18-14,9,depth_duration_stimuli/003228_2014-05-14_13-42-35_094959634447_rgbf000101-resize_1/003228_2014-05-14_13-42-35_094959634447_rgbf000101-resize_1-target.png,83,1.9680000000000002,0,2719,68,feet,jsons/VE83_randls_63_rotated.json,673112,907066,57,Man
9,167076,DepthScenes,duration_manipulation_targetAtFixation,jsons/VE83_randls_63_rotated.json,http://54.235.29.9/FacialAge/BNav_EC2/DepthDuration/v2_depth_duration_MTurk/v2_DepthDuration_HTML.html#6,6,1280,571,1280,720,8-29-2023,13-18-14,10,depth_duration_stimuli/002600_2014-06-24_14-27-04_094959634447_rgbf000074-resize_2/002600_2014-06-24_14-27-04_094959634447_rgbf000074-resize_2-target.png,83,2.7575,1,2638,71,feet,jsons/VE83_randls_63_rotated.json,673112,907066,57,Man
10,167076,DepthScenes,duration_manipulation_targetAtFixation,jsons/VE83_randls_63_rotated.json,http://54.235.29.9/FacialAge/BNav_EC2/DepthDuration/v2_depth_duration_MTurk/v2_DepthDuration_HTML.html#6,6,1280,571,1280,720,8-29-2023,13-18-14,11,depth_duration_stimuli/002805_2014-06-22_19-54-03_094959634447_rgbf000079-resize_1/002805_2014-06-22_19-54-03_094959634447_rgbf000079-resize_1-target.png,83,3.1439999999999997,1,3513,77,feet,jsons/VE83_randls_63_rotated.json,673112,907066,57,Man
11,167076,DepthScenes,duration_manipulation_targetAtFixation,jsons/VE83_randls_63_rotated.json,http://54.235.29.9/FacialAge/BNav_EC2/DepthDuration/v2_depth_duration_MTurk/v2_DepthDuration_HTML.html#6,6,1280,571,1280,720,8-29-2023,13-18-14,12,depth_duration_stimuli/000906_2014-06-08_13-35-43_260595134347_rgbf000155-resize_1/000906_2014-06-08_13-35-43_260595134347_rgbf000155-resize_1-target.png,83,2.8489999999999998,0,2937,77,feet,jsons/VE83_randls_63_rotated.json,673112,907066,57,Man
12,167076,DepthScenes,duration_manipulation_targetAtFixation,jsons/VE83_randls_63_rotated.json,http://54.235.29.9/FacialAge/BNav_EC2/DepthDuration/v2_depth_duration_MTurk/v2_DepthDuration_HTML.html#6,6,1280,571,1280,720,8-29-2023,13-18-14,13,depth_duration_stimuli/003587_2014-05-23_16-48-02_094959634447_rgbf002384-resize_2/003587_2014-05-23_16-48-02_094959634447_rgbf002384-resize_2-target.png,83,1.357,0,2924,81,feet,jsons/VE83_randls_63_rotated.json,673112,907066,57,Man
13,167076,DepthScenes,duration_manipulation_targetAtFixation,jsons/VE83_randls_63_rotated.json,http://54.235.29.9/FacialAge/BNav_EC2/DepthDuration/v2_depth_duration_MTurk/v2_DepthDuration_HTML.html#6,6,1280,571,1280,720,8-29-2023,13-18-14,14,depth_duration_stimuli/001167_2014-06-17_15-38-07_260595134347_rgbf000108-resize_0/001167_2014-06-17_15-38-07_260595134347_rgbf000108-resize_0-target.png,83,1.8505,0,2851,71,feet,jsons/VE83_randls_63_rotated.json,673112,907066,57,Man
14,167076,DepthScenes,duration_manipulation_targetAtFixation,jsons/VE83_randls_63_rotated.json,http://54.235.29.9/FacialAge/BNav_EC2/DepthDuration/v2_depth_duration_MTurk/v2_DepthDuration_HTML.html#6,6,1280,571,1280,720,8-29-2023,13-18-14,15,depth_duration_stimuli/002995_2014-06-15_12-31-26_094959634447_rgbf000150-resize_1/002995_2014-06-15_12-31-26_094959634447_rgbf000150-resize_1-target.png,83,3.8360000000000003,1,2835,68,feet,jsons/VE83_randls_63_rotated.json,673112,907066,57,Man
15,167076,DepthScenes,duration_manipulation_targetAtFixation,jsons/VE83_randls_63_rotated.json,http://54.235.29.9/FacialAge/BNav_EC2/DepthDuration/v2_depth_duration_MTurk/v2_DepthDuration_HTML.html#6,6,1280,571,1280,720,8-29-2023,13-18-14,16,depth_duration_stimuli/002748_2014-06-22_19-07-22_094959634447_rgbf000078-resize_1/002748_2014-06-22_19-07-22_094959634447_rgbf000078-resize_1-target.png,83,4.6705,0,2604,67,feet,jsons/VE83_randls_63_rotated.json,673112,907066,57,Man
16,167076,DepthScenes,duration_manipulation_targetAtFixation,jsons/VE83_randls_63_rotated.json,http://54.235.29.9/FacialAge/BNav_EC2/DepthDuration/v2_depth_duration_MTurk/v2_DepthDuration_HTML.html#6,6,1280,571,1280,720,8-29-2023,13-18-14,17,depth_duration_stimuli/001584_2014-06-20_11-07-43_260595134347_rgbf000002-resize_1/001584_2014-06-20_11-07-43_260595134347_rgbf000002-resize_1-target.png,83,3.53,0,2542,71,feet,jsons/VE83_randls_63_rotated.json,673112,907066,57,Man
17,167076,DepthScenes,duration_manipulation_targetAtFixation,jsons/VE83_randls_63_rotated.json,http://54.235.29.9/FacialAge/BNav_EC2/DepthDuration/v2_depth_duration_MTurk/v2_DepthDuration_HTML.html#6,6,1280,571,1280,720,8-29-2023,13-18-14,18,depth_duration_stimuli/003621_2014-05-23_18-06-08_094959634447_rgbf000101-resize_1/003621_2014-05-23_18-06-08_094959634447_rgbf000101-resize_1-target.png,83,3.9835,1,6874,74,feet,jsons/VE83_randls_63_rotated.json,673112,907066,57,Man
18,167076,DepthScenes,duration_manipulation_targetAtFixation,jsons/VE83_randls_63_rotated.json,http://54.235.29.9/FacialAge/BNav_EC2/DepthDuration/v2_depth_duration_MTurk/v2_DepthDuration_HTML.html#6,6,1280,571,1280,720,8-29-2023,13-18-14,19,depth_duration_stimuli/001498_2014-06-19_17-45-14_260595134347_rgbf000129-resize_4/001498_2014-06-19_17-45-14_260595134347_rgbf000129-resize-original.jpg,83,1.4075,2,2780,75,feet,jsons/VE83_randls_63_rotated.json,673112,907066,57,Man
19,167076,DepthScenes,duration_manipulation_targetAtFixation,jsons/VE83_randls_63_rotated.json,http://54.235.29.9/FacialAge/BNav_EC2/DepthDuration/v2_depth_duration_MTurk/v2_DepthDuration_HTML.html#6,6,1280,571,1280,720,8-29-2023,13-18-14,20,depth_duration_stimuli/001447_2014-06-19_17-00-32_260595134347_rgbf000082-resize_5/001447_2014-06-19_17-00-32_260595134347_rgbf000082-resize_5-target.png,83,4.13775,1,2560,74,feet,jsons/VE83_randls_63_rotated.json,673112,907066,57,Man
20,167076,DepthScenes,duration_manipulation_targetAtFixation,jsons/VE83_randls_63_rotated.json,http://54.235.29.9/FacialAge/BNav_EC2/DepthDuration/v2_depth_duration_MTurk/v2_DepthDuration_HTML.html#6,6,1280,571,1280,720,8-29-2023,13-18-14,21,depth_duration_stimuli/000447_2014-06-08_16-15-46_260595134347_rgbf000130-resize_1/000447_2014-06-08_16-15-46_260595134347_rgbf000130-resize_1-target.png,83,4.479,2,2499,81,feet,jsons/VE83_randls_63_rotated.json,673112,907066,57,Man
21,167076,DepthScenes,duration_manipulation_targetAtFixation,jsons/VE83_randls_63_rotated.json,http://54.235.29.9/FacialAge/BNav_EC2/DepthDuration/v2_depth_duration_MTurk/v2_DepthDuration_HTML.html#6,6,1280,571,1280,720,8-29-2023,13-18-14,22,depth_duration_stimuli/001136_2014-06-17_15-19-41_260595134347_rgbf000076-resize_3/001136_2014-06-17_15-19-41_260595134347_rgbf000076-resize_3-target.png,83,1.8655,1,2577,77,feet,jsons/VE83_randls_63_rotated.json,673112,907066,57,Man
22,167076,DepthScenes,duration_manipulation_targetAtFixation,jsons/VE83_randls_63_rotated.json,http://54.235.29.9/FacialAge/BNav_EC2/DepthDuration/v2_depth_duration_MTurk/v2_DepthDuration_HTML.html#6,6,1280,571,1280,720,8-29-2023,13-18-14,23,depth_duration_stimuli/001164_2014-06-17_15-35-46_260595134347_rgbf000085-resize_3/001164_2014-06-17_15-35-46_260595134347_rgbf000085-resize_3-target.png,83,2.354,2,2592,75,feet,jsons/VE83_randls_63_rotated.json,673112,907066,57,Man
23,167076,DepthScenes,duration_manipulation_targetAtFixation,jsons/VE83_randls_63_rotated.json,http://54.235.29.9/FacialAge/BNav_EC2/DepthDuration/v2_depth_duration_MTurk/v2_DepthDuration_HTML.html#6,6,1280,571,1280,720,8-29-2023,13-18-14,24,depth_duration_stimuli/002467_2014-06-28_20-38-07_260595134347_rgbf000026-resize_2/002467_2014-06-28_20-38-07_260595134347_rgbf000026-resize_2-target.png,83,4.742,0,2345,53,feet,jsons/VE83_randls_63_rotated.json,673112,907066,57,Man
24,167076,DepthScenes,duration_manipulation_targetAtFixation,jsons/VE83_randls_63_rotated.json,http://54.235.29.9/FacialAge/BNav_EC2/DepthDuration/v2_depth_duration_MTurk/v2_DepthDuration_HTML.html#6,6,1280,571,1280,720,8-29-2023,13-18-14,25,depth_duration_stimuli/002570_2014-06-24_13-59-54_094959634447_rgbf000059-resize_0/002570_2014-06-24_13-59-54_094959634447_rgbf000059-resize_0-target.png,83,4.037,0,2460,75,feet,jsons/VE83_randls_63_rotated.json,673112,907066,57,Man
25,167076,DepthScenes,duration_manipulation_targetAtFixation,jsons/VE83_randls_63_rotated.json,http://54.235.29.9/FacialAge/BNav_EC2/DepthDuration/v2_depth_duration_MTurk/v2_DepthDuration_HTML.html#6,6,1280,571,1280,720,8-29-2023,13-18-14,26,depth_duration_stimuli/002209_2014-06-28_18-36-10_260595134347_rgbf000051-resize_1/002209_2014-06-28_18-36-10_260595134347_rgbf000051-resize_1-target.png,83,2.057,1,2238,74,feet,jsons/VE83_randls_63_rotated.json,673112,907066,57,Man
26,167076,DepthScenes,duration_manipulation_targetAtFixation,jsons/VE83_randls_63_rotated.json,http://54.235.29.9/FacialAge/BNav_EC2/DepthDuration/v2_depth_duration_MTurk/v2_DepthDuration_HTML.html#6,6,1280,571,1280,720,8-29-2023,13-18-14,27,depth_duration_stimuli/002763_2014-06-22_19-13-10_094959634447_rgbf000075-resize_4/002763_2014-06-22_19-13-10_094959634447_rgbf000075-resize_4-target.png,83,1.68375,1,2219,72,feet,jsons/VE83_randls_63_rotated.json,673112,907066,57,Man
27,167076,DepthScenes,duration_manipulation_targetAtFixation,jsons/VE83_randls_63_rotated.json,http://54.235.29.9/FacialAge/BNav_EC2/DepthDuration/v2_depth_duration_MTurk/v2_DepthDuration_HTML.html#6,6,1280,571,1280,720,8-29-2023,13-18-14,28,depth_duration_stimuli/001214_2014-06-17_16-13-55_260595134347_rgbf000111-resize_0/001214_2014-06-17_16-13-55_260595134347_rgbf000111-resize_0-target.png,83,2.6505,0,2305,68,feet,jsons/VE83_randls_63_rotated.json,673112,907066,57,Man
28,167076,DepthScenes,duration_manipulation_targetAtFixation,jsons/VE83_randls_63_rotated.json,http://54.235.29.9/FacialAge/BNav_EC2/DepthDuration/v2_depth_duration_MTurk/v2_DepthDuration_HTML.html#6,6,1280,571,1280,720,8-29-2023,13-18-14,29,depth_duration_stimuli/000810_2014-06-08_17-20-01_260595134347_rgbf000105-resize_0/000810_2014-06-08_17-20-01_260595134347_rgbf000105-resize_0-target.png,83,1.4865,0,2251,66,feet,jsons/VE83_randls_63_rotated.json,673112,907066,57,Man
29,167076,DepthScenes,duration_manipulation_targetAtFixation,jsons/VE83_randls_63_rotated.json,http://54.235.29.9/FacialAge/BNav_EC2/DepthDuration/v2_depth_duration_MTurk/v2_DepthDuration_HTML.html#6,6,1280,571,1280,720,8-29-2023,13-18-14,30,depth_duration_stimuli/002072_2014-06-24_21-48-06_260595134347_rgbf000115-resize_0/002072_2014-06-24_21-48-06_260595134347_rgbf000115-resize-original.jpg,83,4.702,1,2204,65,feet,jsons/VE83_randls_63_rotated.json,673112,907066,57,Man
30,167076,DepthScenes,duration_manipulation_targetAtFixation,jsons/VE83_randls_63_rotated.json,http://54.235.29.9/FacialAge/BNav_EC2/DepthDuration/v2_depth_duration_MTurk/v2_DepthDuration_HTML.html#6,6,1280,571,1280,720,8-29-2023,13-18-14,31,depth_duration_stimuli/002414_2014-06-28_20-24-58_260595134347_rgbf000067-resize_4/002414_2014-06-28_20-24-58_260595134347_rgbf000067-resize_4-target.png,83,4.363,0,2803,73,feet,jsons/VE83_randls_63_rotated.json,673112,907066,57,Man
31,167076,DepthScenes,duration_manipulation_targetAtFixation,jsons/VE83_randls_63_rotated.json,http://54.235.29.9/FacialAge/BNav_EC2/DepthDuration/v2_depth_duration_MTurk/v2_DepthDuration_HTML.html#6,6,1280,571,1280,720,8-29-2023,13-18-14,32,depth_duration_stimuli/000773_2014-06-08_22-24-54_260595134347_rgbf000093-resize_1/000773_2014-06-08_22-24-54_260595134347_rgbf000093-resize_1-target.png,83,4.973,0,2216,98,feet,jsons/VE83_randls_63_rotated.json,673112,907066,57,Man
32,167076,DepthScenes,duration_manipulation_targetAtFixation,jsons/VE83_randls_63_rotated.json,http://54.235.29.9/FacialAge/BNav_EC2/DepthDuration/v2_depth_duration_MTurk/v2_DepthDuration_HTML.html#6,6,1280,571,1280,720,8-29-2023,13-18-14,33,depth_duration_stimuli/003423_2014-05-21_10-23-26_094959634447_rgbf002665-resize_2/003423_2014-05-21_10-23-26_094959634447_rgbf002665-resize_2-target.png,83,3.2575,1,4771,82,feet,jsons/VE83_randls_63_rotated.json,673112,907066,57,Man
33,167076,DepthScenes,duration_manipulation_targetAtFixation,jsons/VE83_randls_63_rotated.json,http://54.235.29.9/FacialAge/BNav_EC2/DepthDuration/v2_depth_duration_MTurk/v2_DepthDuration_HTML.html#6,6,1280,571,1280,720,8-29-2023,13-18-14,34,depth_duration_stimuli/002905_2014-06-03_18-04-43_094959634447_rgbf000151-resize_2/002905_2014-06-03_18-04-43_094959634447_rgbf000151-resize_2-target.png,83,2.0295,0,2812,79,feet,jsons/VE83_randls_63_rotated.json,673112,907066,57,Man
34,167076,DepthScenes,duration_manipulation_targetAtFixation,jsons/VE83_randls_63_rotated.json,http://54.235.29.9/FacialAge/BNav_EC2/DepthDuration/v2_depth_duration_MTurk/v2_DepthDuration_HTML.html#6,6,1280,571,1280,720,8-29-2023,13-18-14,35,depth_duration_stimuli/000691_2014-06-08_13-08-50_260595134347_rgbf000132-resize_3/000691_2014-06-08_13-08-50_260595134347_rgbf000132-resize_3-target.png,83,4.1530000000000005,2,2671,77,feet,jsons/VE83_randls_63_rotated.json,673112,907066,57,Man
35,167076,DepthScenes,duration_manipulation_targetAtFixation,jsons/VE83_randls_63_rotated.json,http://54.235.29.9/FacialAge/BNav_EC2/DepthDuration/v2_depth_duration_MTurk/v2_DepthDuration_HTML.html#6,6,1280,571,1280,720,8-29-2023,13-18-14,36,depth_duration_stimuli/002213_2014-06-28_18-37-58_260595134347_rgbf000055-resize_1/002213_2014-06-28_18-37-58_260595134347_rgbf000055-resize_1-target.png,83,3.62,1,4620,78,feet,jsons/VE83_randls_63_rotated.json,673112,907066,57,Man
36,167076,DepthScenes,duration_manipulation_targetAtFixation,jsons/VE83_randls_63_rotated.json,http://54.235.29.9/FacialAge/BNav_EC2/DepthDuration/v2_depth_duration_MTurk/v2_DepthDuration_HTML.html#6,6,1280,571,1280,720,8-29-2023,13-18-14,37,depth_duration_stimuli/003083_2014-06-15_15-21-03_094959634447_rgbf000063-resize_1/003083_2014-06-15_15-21-03_094959634447_rgbf000063-resize_1-target.png,83,4.1405,2,3946,77,feet,jsons/VE83_randls_63_rotated.json,673112,907066,57,Man
37,167076,DepthScenes,duration_manipulation_targetAtFixation,jsons/VE83_randls_63_rotated.json,http://54.235.29.9/FacialAge/BNav_EC2/DepthDuration/v2_depth_duration_MTurk/v2_DepthDuration_HTML.html#6,6,1280,571,1280,720,8-29-2023,13-18-14,38,depth_duration_stimuli/000486_2014-06-09_20-47-20_260595134347_rgbf000143-resize_2/000486_2014-06-09_20-47-20_260595134347_rgbf000143-resize_2-target.png,83,4.8325,0,2443,77,feet,jsons/VE83_randls_63_rotated.json,673112,907066,57,Man
38,167076,DepthScenes,duration_manipulation_targetAtFixation,jsons/VE83_randls_63_rotated.json,http://54.235.29.9/FacialAge/BNav_EC2/DepthDuration/v2_depth_duration_MTurk/v2_DepthDuration_HTML.html#6,6,1280,571,1280,720,8-29-2023,13-18-14,39,depth_duration_stimuli/001617_2014-06-20_11-35-32_260595134347_rgbf000066-resize_1/001617_2014-06-20_11-35-32_260595134347_rgbf000066-resize_1-target.png,83,3.7910000000000004,1,2311,77,feet,jsons/VE83_randls_63_rotated.json,673112,907066,57,Man
39,167076,DepthScenes,duration_manipulation_targetAtFixation,jsons/VE83_randls_63_rotated.json,http://54.235.29.9/FacialAge/BNav_EC2/DepthDuration/v2_depth_duration_MTurk/v2_DepthDuration_HTML.html#6,6,1280,571,1280,720,8-29-2023,13-18-14,40,depth_duration_stimuli/001806_2014-06-26_20-50-20_260595134347_rgbf000091-resize_1/001806_2014-06-26_20-50-20_260595134347_rgbf000091-resize_1-target.png,83,2.7305,0,2226,79,feet,jsons/VE83_randls_63_rotated.json,673112,907066,57,Man
40,167076,DepthScenes,duration_manipulation_targetAtFixation,jsons/VE83_randls_63_rotated.json,http://54.235.29.9/FacialAge/BNav_EC2/DepthDuration/v2_depth_duration_MTurk/v2_DepthDuration_HTML.html#6,6,1280,571,1280,720,8-29-2023,13-18-14,41,depth_duration_stimuli/000866_2014-06-09_20-45-42_260595134347_rgbf000139-resize_1/000866_2014-06-09_20-45-42_260595134347_rgbf000139-resize_1-target.png,83,3.2155,0,2256,74,feet,jsons/VE83_randls_63_rotated.json,673112,907066,57,Man
41,167076,DepthScenes,duration_manipulation_targetAtFixation,jsons/VE83_randls_63_rotated.json,http://54.235.29.9/FacialAge/BNav_EC2/DepthDuration/v2_depth_duration_MTurk/v2_DepthDuration_HTML.html#6,6,1280,571,1280,720,8-29-2023,13-18-14,42,depth_duration_stimuli/002989_2014-06-15_12-25-03_094959634447_rgbf000150-resize_3/002989_2014-06-15_12-25-03_094959634447_rgbf000150-resize_3-target.png,83,4.1975,0,2296,75,feet,jsons/VE83_randls_63_rotated.json,673112,907066,57,Man
42,167076,DepthScenes,duration_manipulation_targetAtFixation,jsons/VE83_randls_63_rotated.json,http://54.235.29.9/FacialAge/BNav_EC2/DepthDuration/v2_depth_duration_MTurk/v2_DepthDuration_HTML.html#6,6,1280,571,1280,720,8-29-2023,13-18-14,43,depth_duration_stimuli/000927_2014-06-09_16-32-30_260595134347_rgbf000123-resize_3/000927_2014-06-09_16-32-30_260595134347_rgbf000123-resize_3-target.png,83,2.6785,0,2910,96,feet,jsons/VE83_randls_63_rotated.json,673112,907066,57,Man
43,167076,DepthScenes,duration_manipulation_targetAtFixation,jsons/VE83_randls_63_rotated.json,http://54.235.29.9/FacialAge/BNav_EC2/DepthDuration/v2_depth_duration_MTurk/v2_DepthDuration_HTML.html#6,6,1280,571,1280,720,8-29-2023,13-18-14,44,depth_duration_stimuli/001110_2014-06-15_17-25-28_260595134347_rgbf000150-resize_1/001110_2014-06-15_17-25-28_260595134347_rgbf000150-resize_1-target.png,83,1.7115,1,4270,74,feet,jsons/VE83_randls_63_rotated.json,673112,907066,57,Man
44,167076,DepthScenes,duration_manipulation_targetAtFixation,jsons/VE83_randls_63_rotated.json,http://54.235.29.9/FacialAge/BNav_EC2/DepthDuration/v2_depth_duration_MTurk/v2_DepthDuration_HTML.html#6,6,1280,571,1280,720,8-29-2023,13-18-14,45,depth_duration_stimuli/001100_2014-06-15_17-46-26_260595134347_rgbf000225-resize_2/001100_2014-06-15_17-46-26_260595134347_rgbf000225-resize_2-target.png,83,2.24,1,2823,71,feet,jsons/VE83_randls_63_rotated.json,673112,907066,57,Man
45,167076,DepthScenes,duration_manipulation_targetAtFixation,jsons/VE83_randls_63_rotated.json,http://54.235.29.9/FacialAge/BNav_EC2/DepthDuration/v2_depth_duration_MTurk/v2_DepthDuration_HTML.html#6,6,1280,571,1280,720,8-29-2023,13-18-14,46,depth_duration_stimuli/002784_2014-06-22_19-26-30_094959634447_rgbf000083-resize_3/002784_2014-06-22_19-26-30_094959634447_rgbf000083-resize_3-target.png,83,1.8046666666667,0,5325,80,feet,jsons/VE83_randls_63_rotated.json,673112,907066,57,Man
46,167076,DepthScenes,duration_manipulation_targetAtFixation,jsons/VE83_randls_63_rotated.json,http://54.235.29.9/FacialAge/BNav_EC2/DepthDuration/v2_depth_duration_MTurk/v2_DepthDuration_HTML.html#6,6,1280,571,1280,720,8-29-2023,13-18-14,47,depth_duration_stimuli/001032_2014-06-08_13-23-17_260595134347_rgbf000021-resize_3/001032_2014-06-08_13-23-17_260595134347_rgbf000021-resize_3-target.png,83,3.2725,0,2247,77,feet,jsons/VE83_randls_63_rotated.json,673112,907066,57,Man
47,167076,DepthScenes,duration_manipulation_targetAtFixation,jsons/VE83_randls_63_rotated.json,http://54.235.29.9/FacialAge/BNav_EC2/DepthDuration/v2_depth_duration_MTurk/v2_DepthDuration_HTML.html#6,6,1280,571,1280,720,8-29-2023,13-18-14,48,depth_duration_stimuli/001059_2014-06-08_21-53-27_260595134347_rgbf000061-resize_4/001059_2014-06-08_21-53-27_260595134347_rgbf000061-resize_4-target.png,83,2.4185,0,2515,65,feet,jsons/VE83_randls_63_rotated.json,673112,907066,57,Man
48,167076,DepthScenes,duration_manipulation_targetAtFixation,jsons/VE83_randls_63_rotated.json,http://54.235.29.9/FacialAge/BNav_EC2/DepthDuration/v2_depth_duration_MTurk/v2_DepthDuration_HTML.html#6,6,1280,571,1280,720,8-29-2023,13-18-14,49,depth_duration_stimuli/001170_2014-06-17_15-43-44_260595134347_rgbf000096-resize_6/001170_2014-06-17_15-43-44_260595134347_rgbf000096-resize-original.jpg,83,1.1909999999999998,0,2543,73,feet,jsons/VE83_randls_63_rotated.json,673112,907066,57,Man
49,167076,DepthScenes,duration_manipulation_targetAtFixation,jsons/VE83_randls_63_rotated.json,http://54.235.29.9/FacialAge/BNav_EC2/DepthDuration/v2_depth_duration_MTurk/v2_DepthDuration_HTML.html#6,6,1280,571,1280,720,8-29-2023,13-18-14,50,depth_duration_stimuli/001235_2014-06-17_16-37-36_260595134347_rgbf000084-resize_4/001235_2014-06-17_16-37-36_260595134347_rgbf000084-resize_4-target.png,83,3.6605,1,2304,67,feet,jsons/VE83_randls_63_rotated.json,673112,907066,57,Man
50,167076,DepthScenes,duration_manipulation_targetAtFixation,jsons/VE83_randls_63_rotated.json,http://54.235.29.9/FacialAge/BNav_EC2/DepthDuration/v2_depth_duration_MTurk/v2_DepthDuration_HTML.html#6,6,1280,571,1280,720,8-29-2023,13-18-14,51,depth_duration_stimuli/000788_2014-06-08_22-34-36_260595134347_rgbf000131-resize_1/000788_2014-06-08_22-34-36_260595134347_rgbf000131-resize_1-target.png,83,3.359,0,2422,71,feet,jsons/VE83_randls_63_rotated.json,673112,907066,57,Man
51,167076,DepthScenes,duration_manipulation_targetAtFixation,jsons/VE83_randls_63_rotated.json,http://54.235.29.9/FacialAge/BNav_EC2/DepthDuration/v2_depth_duration_MTurk/v2_DepthDuration_HTML.html#6,6,1280,571,1280,720,8-29-2023,13-18-14,52,depth_duration_stimuli/001516_2014-06-20_16-25-09_260595134347_rgbf000076-resize_2/001516_2014-06-20_16-25-09_260595134347_rgbf000076-resize_2-target.png,83,1.7445,1,2379,78,feet,jsons/VE83_randls_63_rotated.json,673112,907066,57,Man
52,167076,DepthScenes,duration_manipulation_targetAtFixation,jsons/VE83_randls_63_rotated.json,http://54.235.29.9/FacialAge/BNav_EC2/DepthDuration/v2_depth_duration_MTurk/v2_DepthDuration_HTML.html#6,6,1280,571,1280,720,8-29-2023,13-18-14,53,depth_duration_stimuli/002118_2014-06-25_20-32-08_260595134347_rgbf000078-resize_1/002118_2014-06-25_20-32-08_260595134347_rgbf000078-resize_1-target.png,83,2.6460000000000004,1,2435,82,feet,jsons/VE83_randls_63_rotated.json,673112,907066,57,Man
53,167076,DepthScenes,duration_manipulation_targetAtFixation,jsons/VE83_randls_63_rotated.json,http://54.235.29.9/FacialAge/BNav_EC2/DepthDuration/v2_depth_duration_MTurk/v2_DepthDuration_HTML.html#6,6,1280,571,1280,720,8-29-2023,13-18-14,54,depth_duration_stimuli/000854_2014-06-09_19-43-13_260595134347_rgbf000066-resize_0/000854_2014-06-09_19-43-13_260595134347_rgbf000066-resize_0-target.png,83,3.068,0,3367,83,feet,jsons/VE83_randls_63_rotated.json,673112,907066,57,Man
54,167076,DepthScenes,duration_manipulation_targetAtFixation,jsons/VE83_randls_63_rotated.json,http://54.235.29.9/FacialAge/BNav_EC2/DepthDuration/v2_depth_duration_MTurk/v2_DepthDuration_HTML.html#6,6,1280,571,1280,720,8-29-2023,13-18-14,55,depth_duration_stimuli/000758_2014-06-08_22-05-08_260595134347_rgbf000085-resize_0/000758_2014-06-08_22-05-08_260595134347_rgbf000085-resize_0-target.png,83,3.3810000000000002,1,2247,71,feet,jsons/VE83_randls_63_rotated.json,673112,907066,57,Man
55,167076,DepthScenes,duration_manipulation_targetAtFixation,jsons/VE83_randls_63_rotated.json,http://54.235.29.9/FacialAge/BNav_EC2/DepthDuration/v2_depth_duration_MTurk/v2_DepthDuration_HTML.html#6,6,1280,571,1280,720,8-29-2023,13-18-14,56,depth_duration_stimuli/000137_2014-05-20_17-04-49_260595134347_rgbf000120-resize_1/000137_2014-05-20_17-04-49_260595134347_rgbf000120-resize_1-target.png,83,3.786,0,4481,79,feet,jsons/VE83_randls_63_rotated.json,673112,907066,57,Man
56,167076,DepthScenes,duration_manipulation_targetAtFixation,jsons/VE83_randls_63_rotated.json,http://54.235.29.9/FacialAge/BNav_EC2/DepthDuration/v2_depth_duration_MTurk/v2_DepthDuration_HTML.html#6,6,1280,571,1280,720,8-29-2023,13-18-14,57,depth_duration_stimuli/000736_2014-06-08_18-24-15_260595134347_rgbf000206-resize_3/000736_2014-06-08_18-24-15_260595134347_rgbf000206-resize_3-target.png,83,3.515,0,4053,75,feet,jsons/VE83_randls_63_rotated.json,673112,907066,57,Man
57,167076,DepthScenes,duration_manipulation_targetAtFixation,jsons/VE83_randls_63_rotated.json,http://54.235.29.9/FacialAge/BNav_EC2/DepthDuration/v2_depth_duration_MTurk/v2_DepthDuration_HTML.html#6,6,1280,571,1280,720,8-29-2023,13-18-14,58,depth_duration_stimuli/001571_2014-06-20_17-21-32_260595134347_rgbf000089-resize_1/001571_2014-06-20_17-21-32_260595134347_rgbf000089-resize_1-target.png,83,1.86,0,2406,75,feet,jsons/VE83_randls_63_rotated.json,673112,907066,57,Man
58,167076,DepthScenes,duration_manipulation_targetAtFixation,jsons/VE83_randls_63_rotated.json,http://54.235.29.9/FacialAge/BNav_EC2/DepthDuration/v2_depth_duration_MTurk/v2_DepthDuration_HTML.html#6,6,1280,571,1280,720,8-29-2023,13-18-14,59,depth_duration_stimuli/002272_2014-06-28_18-53-56_260595134347_rgbf000067-resize_2/002272_2014-06-28_18-53-56_260595134347_rgbf000067-resize_2-target.png,83,1.138,1,2494,68,feet,jsons/VE83_randls_63_rotated.json,673112,907066,57,Man
59,167076,DepthScenes,duration_manipulation_targetAtFixation,jsons/VE83_randls_63_rotated.json,http://54.235.29.9/FacialAge/BNav_EC2/DepthDuration/v2_depth_duration_MTurk/v2_DepthDuration_HTML.html#6,6,1280,571,1280,720,8-29-2023,13-18-14,60,depth_duration_stimuli/002660_2014-06-13_15-44-18_094959634447_rgbf001878-resize_2/002660_2014-06-13_15-44-18_094959634447_rgbf001878-resize_2-target.png,83,3.576,0,2663,92,feet,jsons/VE83_randls_63_rotated.json,673112,907066,57,Man
60,167076,DepthScenes,duration_manipulation_targetAtFixation,jsons/VE83_randls_63_rotated.json,http://54.235.29.9/FacialAge/BNav_EC2/DepthDuration/v2_depth_duration_MTurk/v2_DepthDuration_HTML.html#6,6,1280,571,1280,720,8-29-2023,13-18-14,61,depth_duration_stimuli/002153_2014-06-25_21-27-18_260595134347_rgbf000038-resize_5/002153_2014-06-25_21-27-18_260595134347_rgbf000038-resize_5-target.png,83,2.505,1,2296,81,feet,jsons/VE83_randls_63_rotated.json,673112,907066,57,Man
61,167076,DepthScenes,duration_manipulation_targetAtFixation,jsons/VE83_randls_63_rotated.json,http://54.235.29.9/FacialAge/BNav_EC2/DepthDuration/v2_depth_duration_MTurk/v2_DepthDuration_HTML.html#6,6,1280,571,1280,720,8-29-2023,13-18-14,62,depth_duration_stimuli/000103_2014-05-14_22-01-17_260595134347_rgbf000152-resize_5/000103_2014-05-14_22-01-17_260595134347_rgbf000152-resize_5-target.png,83,1.993,0,3372,77,feet,jsons/VE83_randls_63_rotated.json,673112,907066,57,Man
62,167076,DepthScenes,duration_manipulation_targetAtFixation,jsons/VE83_randls_63_rotated.json,http://54.235.29.9/FacialAge/BNav_EC2/DepthDuration/v2_depth_duration_MTurk/v2_DepthDuration_HTML.html#6,6,1280,571,1280,720,8-29-2023,13-18-14,63,depth_duration_stimuli/001555_2014-06-20_17-12-10_260595134347_rgbf000065-resize_4/001555_2014-06-20_17-12-10_260595134347_rgbf000065-resize_4-target.png,83,1.633,1,2360,73,feet,jsons/VE83_randls_63_rotated.json,673112,907066,57,Man
63,167076,DepthScenes,duration_manipulation_targetAtFixation,jsons/VE83_randls_63_rotated.json,http://54.235.29.9/FacialAge/BNav_EC2/DepthDuration/v2_depth_duration_MTurk/v2_DepthDuration_HTML.html#6,6,1280,571,1280,720,8-29-2023,13-18-14,64,depth_duration_stimuli/000502_2014-06-08_23-02-32_260595134347_rgbf000063-resize_4/000502_2014-06-08_23-02-32_260595134347_rgbf000063-resize_4-target.png,83,2.431,0,2260,76,feet,jsons/VE83_randls_63_rotated.json,673112,907066,57,Man
64,167076,DepthScenes,duration_manipulation_targetAtFixation,jsons/VE83_randls_63_rotated.json,http://54.235.29.9/FacialAge/BNav_EC2/DepthDuration/v2_depth_duration_MTurk/v2_DepthDuration_HTML.html#6,6,1280,571,1280,720,8-29-2023,13-18-14,65,depth_duration_stimuli/001199_2014-06-17_16-03-48_260595134347_rgbf000077-resize_0/001199_2014-06-17_16-03-48_260595134347_rgbf000077-resize_0-target.png,83,3.4375,0,2913,72,feet,jsons/VE83_randls_63_rotated.json,673112,907066,57,Man
65,167076,DepthScenes,duration_manipulation_targetAtFixation,jsons/VE83_randls_63_rotated.json,http://54.235.29.9/FacialAge/BNav_EC2/DepthDuration/v2_depth_duration_MTurk/v2_DepthDuration_HTML.html#6,6,1280,571,1280,720,8-29-2023,13-18-14,66,depth_duration_stimuli/001540_2014-06-20_17-01-05_260595134347_rgbf000086-resize_2/001540_2014-06-20_17-01-05_260595134347_rgbf000086-resize-original.jpg,83,1.459,1,2347,36,feet,jsons/VE83_randls_63_rotated.json,673112,907066,57,Man
66,167076,DepthScenes,duration_manipulation_targetAtFixation,jsons/VE83_randls_63_rotated.json,http://54.235.29.9/FacialAge/BNav_EC2/DepthDuration/v2_depth_duration_MTurk/v2_DepthDuration_HTML.html#6,6,1280,571,1280,720,8-29-2023,13-18-14,67,depth_duration_stimuli/000556_2014-06-09_22-42-56_260595134347_rgbf000214-resize_1/000556_2014-06-09_22-42-56_260595134347_rgbf000214-resize_1-target.png,83,4.8415,1,2295,77,feet,jsons/VE83_randls_63_rotated.json,673112,907066,57,Man
67,167076,DepthScenes,duration_manipulation_targetAtFixation,jsons/VE83_randls_63_rotated.json,http://54.235.29.9/FacialAge/BNav_EC2/DepthDuration/v2_depth_duration_MTurk/v2_DepthDuration_HTML.html#6,6,1280,571,1280,720,8-29-2023,13-18-14,68,depth_duration_stimuli/001158_2014-06-17_15-32-16_260595134347_rgbf000138-resize_2/001158_2014-06-17_15-32-16_260595134347_rgbf000138-resize_2-target.png,83,4.5315,0,2462,78,feet,jsons/VE83_randls_63_rotated.json,673112,907066,57,Man
68,167076,DepthScenes,duration_manipulation_targetAtFixation,jsons/VE83_randls_63_rotated.json,http://54.235.29.9/FacialAge/BNav_EC2/DepthDuration/v2_depth_duration_MTurk/v2_DepthDuration_HTML.html#6,6,1280,571,1280,720,8-29-2023,13-18-14,69,depth_duration_stimuli/000709_2014-06-08_13-51-55_260595134347_rgbf000068-resize_3/000709_2014-06-08_13-51-55_260595134347_rgbf000068-resize_3-target.png,83,1.8030000000000002,0,2261,82,feet,jsons/VE83_randls_63_rotated.json,673112,907066,57,Man
69,167076,DepthScenes,duration_manipulation_targetAtFixation,jsons/VE83_randls_63_rotated.json,http://54.235.29.9/FacialAge/BNav_EC2/DepthDuration/v2_depth_duration_MTurk/v2_DepthDuration_HTML.html#6,6,1280,571,1280,720,8-29-2023,13-18-14,70,depth_duration_stimuli/002057_2014-06-24_21-00-13_260595134347_rgbf000120-resize_1/002057_2014-06-24_21-00-13_260595134347_rgbf000120-resize_1-target.png,83,2.967,0,6003,74,feet,jsons/VE83_randls_63_rotated.json,673112,907066,57,Man
70,167076,DepthScenes,duration_manipulation_targetAtFixation,jsons/VE83_randls_63_rotated.json,http://54.235.29.9/FacialAge/BNav_EC2/DepthDuration/v2_depth_duration_MTurk/v2_DepthDuration_HTML.html#6,6,1280,571,1280,720,8-29-2023,13-18-14,71,depth_duration_stimuli/002545_2014-06-24_13-38-53_094959634447_rgbf000080-resize_4/002545_2014-06-24_13-38-53_094959634447_rgbf000080-resize_4-target.png,83,1.9205,1,2195,76,feet,jsons/VE83_randls_63_rotated.json,673112,907066,57,Man
71,167076,DepthScenes,duration_manipulation_targetAtFixation,jsons/VE83_randls_63_rotated.json,http://54.235.29.9/FacialAge/BNav_EC2/DepthDuration/v2_depth_duration_MTurk/v2_DepthDuration_HTML.html#6,6,1280,571,1280,720,8-29-2023,13-18-14,72,depth_duration_stimuli/001092_2014-06-15_17-34-58_260595134347_rgbf000171-resize_3/001092_2014-06-15_17-34-58_260595134347_rgbf000171-resize_3-target.png,83,2.6935,0,2399,83,feet,jsons/VE83_randls_63_rotated.json,673112,907066,57,Man
72,167076,DepthScenes,duration_manipulation_targetAtFixation,jsons/VE83_randls_63_rotated.json,http://54.235.29.9/FacialAge/BNav_EC2/DepthDuration/v2_depth_duration_MTurk/v2_DepthDuration_HTML.html#6,6,1280,571,1280,720,8-29-2023,13-18-14,73,depth_duration_stimuli/002344_2014-06-28_20-06-29_260595134347_rgbf000030-resize_1/002344_2014-06-28_20-06-29_260595134347_rgbf000030-resize_1-target.png,83,1.5795,0,7383,80,feet,jsons/VE83_randls_63_rotated.json,673112,907066,57,Man
73,167076,DepthScenes,duration_manipulation_targetAtFixation,jsons/VE83_randls_63_rotated.json,http://54.235.29.9/FacialAge/BNav_EC2/DepthDuration/v2_depth_duration_MTurk/v2_DepthDuration_HTML.html#6,6,1280,571,1280,720,8-29-2023,13-18-14,74,depth_duration_stimuli/002725_2014-06-22_11-47-51_094959634447_rgbf000070-resize_1/002725_2014-06-22_11-47-51_094959634447_rgbf000070-resize_1-target.png,83,2.195,0,2377,77,feet,jsons/VE83_randls_63_rotated.json,673112,907066,57,Man
74,167076,DepthScenes,duration_manipulation_targetAtFixation,jsons/VE83_randls_63_rotated.json,http://54.235.29.9/FacialAge/BNav_EC2/DepthDuration/v2_depth_duration_MTurk/v2_DepthDuration_HTML.html#6,6,1280,571,1280,720,8-29-2023,13-18-14,75,depth_duration_stimuli/002323_2014-06-28_20-01-54_260595134347_rgbf000051-resize_4/002323_2014-06-28_20-01-54_260595134347_rgbf000051-resize_4-target.png,83,3.7310000000000003,0,21152,81,feet,jsons/VE83_randls_63_rotated.json,673112,907066,57,Man
75,167076,DepthScenes,duration_manipulation_targetAtFixation,jsons/VE83_randls_63_rotated.json,http://54.235.29.9/FacialAge/BNav_EC2/DepthDuration/v2_depth_duration_MTurk/v2_DepthDuration_HTML.html#6,6,1280,571,1280,720,8-29-2023,13-18-14,76,depth_duration_stimuli/000917_2014-06-09_22-45-29_260595134347_rgbf000149-resize_3/000917_2014-06-09_22-45-29_260595134347_rgbf000149-resize_3-target.png,83,4.1865,0,5707,69,feet,jsons/VE83_randls_63_rotated.json,673112,907066,57,Man
76,167076,DepthScenes,duration_manipulation_targetAtFixation,jsons/VE83_randls_63_rotated.json,http://54.235.29.9/FacialAge/BNav_EC2/DepthDuration/v2_depth_duration_MTurk/v2_DepthDuration_HTML.html#6,6,1280,571,1280,720,8-29-2023,13-18-14,77,depth_duration_stimuli/001828_2014-06-26_21-40-03_260595134347_rgbf000024-resize_0/001828_2014-06-26_21-40-03_260595134347_rgbf000024-resize_0-target.png,83,4.8260000000000005,0,52111,76,feet,jsons/VE83_randls_63_rotated.json,673112,907066,57,Man
77,167076,DepthScenes,duration_manipulation_targetAtFixation,jsons/VE83_randls_63_rotated.json,http://54.235.29.9/FacialAge/BNav_EC2/DepthDuration/v2_depth_duration_MTurk/v2_DepthDuration_HTML.html#6,6,1280,571,1280,720,8-29-2023,13-18-14,78,depth_duration_stimuli/000009_2014-05-26_14-32-05_260595134347_rgbf000034-resize_3/000009_2014-05-26_14-32-05_260595134347_rgbf000034-resize_3-target.png,83,3.8715,1,12408,78,feet,jsons/VE83_randls_63_rotated.json,673112,907066,57,Man
78,167076,DepthScenes,duration_manipulation_targetAtFixation,jsons/VE83_randls_63_rotated.json,http://54.235.29.9/FacialAge/BNav_EC2/DepthDuration/v2_depth_duration_MTurk/v2_DepthDuration_HTML.html#6,6,1280,571,1280,720,8-29-2023,13-18-14,79,depth_duration_stimuli/003495_2014-05-21_16-01-51_094959634447_rgbf000100-resize_3/003495_2014-05-21_16-01-51_094959634447_rgbf000100-resize_3-target.png,83,1.6255,0,4938,68,feet,jsons/VE83_randls_63_rotated.json,673112,907066,57,Man
79,167076,DepthScenes,duration_manipulation_targetAtFixation,jsons/VE83_randls_63_rotated.json,http://54.235.29.9/FacialAge/BNav_EC2/DepthDuration/v2_depth_duration_MTurk/v2_DepthDuration_HTML.html#6,6,1280,571,1280,720,8-29-2023,13-18-14,80,depth_duration_stimuli/001244_2014-06-17_16-47-45_260595134347_rgbf000030-resize_4/001244_2014-06-17_16-47-45_260595134347_rgbf000030-resize_4-target.png,83,2.0425,0,3479,78,feet,jsons/VE83_randls_63_rotated.json,673112,907066,57,Man
80,167076,DepthScenes,duration_manipulation_targetAtFixation,jsons/VE83_randls_63_rotated.json,http://54.235.29.9/FacialAge/BNav_EC2/DepthDuration/v2_depth_duration_MTurk/v2_DepthDuration_HTML.html#6,6,1280,571,1280,720,8-29-2023,13-18-14,81,depth_duration_stimuli/000549_2014-06-08_22-10-24_260595134347_rgbf000247-resize_3/000549_2014-06-08_22-10-24_260595134347_rgbf000247-resize_3-target.png,83,1.841,0,2440,77,feet,jsons/VE83_randls_63_rotated.json,673112,907066,57,Man
81,167076,DepthScenes,duration_manipulation_targetAtFixation,jsons/VE83_randls_63_rotated.json,http://54.235.29.9/FacialAge/BNav_EC2/DepthDuration/v2_depth_duration_MTurk/v2_DepthDuration_HTML.html#6,6,1280,571,1280,720,8-29-2023,13-18-14,82,depth_duration_stimuli/001055_2014-06-08_18-45-35_260595134347_rgbf000111-resize_4/001055_2014-06-08_18-45-35_260595134347_rgbf000111-resize_4-target.png,83,2.4290000000000003,0,2227,69,feet,jsons/VE83_randls_63_rotated.json,673112,907066,57,Man
82,167076,DepthScenes,duration_manipulation_targetAtFixation,jsons/VE83_randls_63_rotated.json,http://54.235.29.9/FacialAge/BNav_EC2/DepthDuration/v2_depth_duration_MTurk/v2_DepthDuration_HTML.html#6,6,1280,571,1280,720,8-29-2023,13-18-14,83,depth_duration_stimuli/000635_2014-06-08_16-38-42_260595134347_rgbf000106-resize_1/000635_2014-06-08_16-38-42_260595134347_rgbf000106-resize_1-target.png,83,2.074,0,2808,79,feet,jsons/VE83_randls_63_rotated.json,673112,907066,57,Man
83,167076,DepthScenes,duration_manipulation_targetAtFixation,jsons/VE83_randls_63_rotated.json,http://54.235.29.9/FacialAge/BNav_EC2/DepthDuration/v2_depth_duration_MTurk/v2_DepthDuration_HTML.html#6,6,1280,571,1280,720,8-29-2023,13-18-14,84,depth_duration_stimuli/002279_2014-06-28_18-55-32_260595134347_rgbf000040-resize_5/002279_2014-06-28_18-55-32_260595134347_rgbf000040-resize_5-target.png,83,1.5043333333333,0,2743,77,feet,jsons/VE83_randls_63_rotated.json,673112,907066,57,Man
84,167076,DepthScenes,duration_manipulation_targetAtFixation,jsons/VE83_randls_63_rotated.json,http://54.235.29.9/FacialAge/BNav_EC2/DepthDuration/v2_depth_duration_MTurk/v2_DepthDuration_HTML.html#6,6,1280,571,1280,720,8-29-2023,13-18-14,85,depth_duration_stimuli/000409_2014-06-04_19-23-33_260595134347_rgbf000067-resize_0/000409_2014-06-04_19-23-33_260595134347_rgbf000067-resize_0-target.png,83,3.7335,0,2324,71,feet,jsons/VE83_randls_63_rotated.json,673112,907066,57,Man
85,167076,DepthScenes,duration_manipulation_targetAtFixation,jsons/VE83_randls_63_rotated.json,http://54.235.29.9/FacialAge/BNav_EC2/DepthDuration/v2_depth_duration_MTurk/v2_DepthDuration_HTML.html#6,6,1280,571,1280,720,8-29-2023,13-18-14,86,depth_duration_stimuli/002663_2014-06-13_15-50-26_094959634447_rgbf000075-resize_1/002663_2014-06-13_15-50-26_094959634447_rgbf000075-resize_1-target.png,83,4.7495,1,2413,78,feet,jsons/VE83_randls_63_rotated.json,673112,907066,57,Man
86,167076,DepthScenes,duration_manipulation_targetAtFixation,jsons/VE83_randls_63_rotated.json,http://54.235.29.9/FacialAge/BNav_EC2/DepthDuration/v2_depth_duration_MTurk/v2_DepthDuration_HTML.html#6,6,1280,571,1280,720,8-29-2023,13-18-14,87,depth_duration_stimuli/002953_2014-06-08_17-32-18_094959634447_rgbf000059-resize_5/002953_2014-06-08_17-32-18_094959634447_rgbf000059-resize_5-target.png,83,1.551,0,2594,79,feet,jsons/VE83_randls_63_rotated.json,673112,907066,57,Man
87,167076,DepthScenes,duration_manipulation_targetAtFixation,jsons/VE83_randls_63_rotated.json,http://54.235.29.9/FacialAge/BNav_EC2/DepthDuration/v2_depth_duration_MTurk/v2_DepthDuration_HTML.html#6,6,1280,571,1280,720,8-29-2023,13-18-14,88,depth_duration_stimuli/000878_2014-06-08_22-52-45_260595134347_rgbf000045-resize_2/000878_2014-06-08_22-52-45_260595134347_rgbf000045-resize_2-target.png,83,2.092,0,2409,76,feet,jsons/VE83_randls_63_rotated.json,673112,907066,57,Man
88,167076,DepthScenes,duration_manipulation_targetAtFixation,jsons/VE83_randls_63_rotated.json,http://54.235.29.9/FacialAge/BNav_EC2/DepthDuration/v2_depth_duration_MTurk/v2_DepthDuration_HTML.html#6,6,1280,571,1280,720,8-29-2023,13-18-14,89,depth_duration_stimuli/002678_2014-06-13_16-15-32_094959634447_rgbf000151-resize_6/002678_2014-06-13_16-15-32_094959634447_rgbf000151-resize_6-target.png,83,2.1830000000000003,0,2238,78,feet,jsons/VE83_randls_63_rotated.json,673112,907066,57,Man
89,167076,DepthScenes,duration_manipulation_targetAtFixation,jsons/VE83_randls_63_rotated.json,http://54.235.29.9/FacialAge/BNav_EC2/DepthDuration/v2_depth_duration_MTurk/v2_DepthDuration_HTML.html#6,6,1280,571,1280,720,8-29-2023,13-18-14,90,depth_duration_stimuli/000368_2014-06-09_15-53-01_260595134347_rgbf000155-resize_2/000368_2014-06-09_15-53-01_260595134347_rgbf000155-resize_2-target.png,83,2.4859999999999998,0,2277,70,feet,jsons/VE83_randls_63_rotated.json,673112,907066,57,Man
90,167076,DepthScenes,duration_manipulation_targetAtFixation,jsons/VE83_randls_63_rotated.json,http://54.235.29.9/FacialAge/BNav_EC2/DepthDuration/v2_depth_duration_MTurk/v2_DepthDuration_HTML.html#6,6,1280,571,1280,720,8-29-2023,13-18-14,91,depth_duration_stimuli/001132_2014-06-17_14-48-54_260595134347_rgbf000100-resize_2/001132_2014-06-17_14-48-54_260595134347_rgbf000100-resize_2-target.png,83,3.753,1,2311,187,feet,jsons/VE83_randls_63_rotated.json,673112,907066,57,Man
91,167076,DepthScenes,duration_manipulation_targetAtFixation,jsons/VE83_randls_63_rotated.json,http://54.235.29.9/FacialAge/BNav_EC2/DepthDuration/v2_depth_duration_MTurk/v2_DepthDuration_HTML.html#6,6,1280,571,1280,720,8-29-2023,13-18-14,92,depth_duration_stimuli/001133_2014-06-17_14-49-16_260595134347_rgbf000100-resize_0/001133_2014-06-17_14-49-16_260595134347_rgbf000100-resize_0-target.png,83,4.2115,1,5557,70,feet,jsons/VE83_randls_63_rotated.json,673112,907066,57,Man
92,167076,DepthScenes,duration_manipulation_targetAtFixation,jsons/VE83_randls_63_rotated.json,http://54.235.29.9/FacialAge/BNav_EC2/DepthDuration/v2_depth_duration_MTurk/v2_DepthDuration_HTML.html#6,6,1280,571,1280,720,8-29-2023,13-18-14,93,depth_duration_stimuli/003490_2014-05-21_15-50-11_094959634447_rgbf000101-resize_3/003490_2014-05-21_15-50-11_094959634447_rgbf000101-resize_3-target.png,83,3.6445,0,2639,76,feet,jsons/VE83_randls_63_rotated.json,673112,907066,57,Man
93,167076,DepthScenes,duration_manipulation_targetAtFixation,jsons/VE83_randls_63_rotated.json,http://54.235.29.9/FacialAge/BNav_EC2/DepthDuration/v2_depth_duration_MTurk/v2_DepthDuration_HTML.html#6,6,1280,571,1280,720,8-29-2023,13-18-14,94,depth_duration_stimuli/001175_2014-06-17_15-45-55_260595134347_rgbf000129-resize_4/001175_2014-06-17_15-45-55_260595134347_rgbf000129-resize_4-target.png,83,4.255,0,2377,78,feet,jsons/VE83_randls_63_rotated.json,673112,907066,57,Man
94,167076,DepthScenes,duration_manipulation_targetAtFixation,jsons/VE83_randls_63_rotated.json,http://54.235.29.9/FacialAge/BNav_EC2/DepthDuration/v2_depth_duration_MTurk/v2_DepthDuration_HTML.html#6,6,1280,571,1280,720,8-29-2023,13-18-14,95,depth_duration_stimuli/000943_2014-06-09_19-31-07_260595134347_rgbf000128-resize_1/000943_2014-06-09_19-31-07_260595134347_rgbf000128-resize_1-target.png,83,1.9765,1,2577,74,feet,jsons/VE83_randls_63_rotated.json,673112,907066,57,Man
95,167076,DepthScenes,duration_manipulation_targetAtFixation,jsons/VE83_randls_63_rotated.json,http://54.235.29.9/FacialAge/BNav_EC2/DepthDuration/v2_depth_duration_MTurk/v2_DepthDuration_HTML.html#6,6,1280,571,1280,720,8-29-2023,13-18-14,96,depth_duration_stimuli/003070_2014-06-15_14-58-27_094959634447_rgbf000150-resize_3/003070_2014-06-15_14-58-27_094959634447_rgbf000150-resize_3-target.png,83,2.9415,0,2380,34,feet,jsons/VE83_randls_63_rotated.json,673112,907066,57,Man
96,167076,DepthScenes,duration_manipulation_targetAtFixation,jsons/VE83_randls_63_rotated.json,http://54.235.29.9/FacialAge/BNav_EC2/DepthDuration/v2_depth_duration_MTurk/v2_DepthDuration_HTML.html#6,6,1280,571,1280,720,8-29-2023,13-18-14,97,depth_duration_stimuli/002103_2014-06-25_20-00-40_260595134347_rgbf000049-resize_0/002103_2014-06-25_20-00-40_260595134347_rgbf000049-resize_0-target.png,83,4.105,1,6727,75,feet,jsons/VE83_randls_63_rotated.json,673112,907066,57,Man
97,167076,DepthScenes,duration_manipulation_targetAtFixation,jsons/VE83_randls_63_rotated.json,http://54.235.29.9/FacialAge/BNav_EC2/DepthDuration/v2_depth_duration_MTurk/v2_DepthDuration_HTML.html#6,6,1280,571,1280,720,8-29-2023,13-18-14,98,depth_duration_stimuli/002039_2014-06-24_20-22-38_260595134347_rgbf000084-resize_1/002039_2014-06-24_20-22-38_260595134347_rgbf000084-resize_1-target.png,83,4.408,0,3291,77,feet,jsons/VE83_randls_63_rotated.json,673112,907066,57,Man
98,167076,DepthScenes,duration_manipulation_targetAtFixation,jsons/VE83_randls_63_rotated.json,http://54.235.29.9/FacialAge/BNav_EC2/DepthDuration/v2_depth_duration_MTurk/v2_DepthDuration_HTML.html#6,6,1280,571,1280,720,8-29-2023,13-18-14,99,depth_duration_stimuli/001222_2014-06-17_16-24-06_260595134347_rgbf000073-resize_0/001222_2014-06-17_16-24-06_260595134347_rgbf000073-resize-original.jpg,83,1.4385,1,2212,76,feet,jsons/VE83_randls_63_rotated.json,673112,907066,57,Man
99,167076,DepthScenes,duration_manipulation_targetAtFixation,jsons/VE83_randls_63_rotated.json,http://54.235.29.9/FacialAge/BNav_EC2/DepthDuration/v2_depth_duration_MTurk/v2_DepthDuration_HTML.html#6,6,1280,571,1280,720,8-29-2023,13-18-14,100,depth_duration_stimuli/000191_2014-05-12_17-07-38_260595134347_rgbf000199-resize_0/000191_2014-05-12_17-07-38_260595134347_rgbf000199-resize_0-target.png,83,3.7995,1,2709,77,feet,jsons/VE83_randls_63_rotated.json,673112,907066,57,Man
100,167076,DepthScenes,duration_manipulation_targetAtFixation,jsons/VE83_randls_63_rotated.json,http://54.235.29.9/FacialAge/BNav_EC2/DepthDuration/v2_depth_duration_MTurk/v2_DepthDuration_HTML.html#6,6,1280,571,1280,720,8-29-2023,13-18-14,101,depth_duration_stimuli/000493_2014-06-09_21-01-18_260595134347_rgbf000196-resize_3/000493_2014-06-09_21-01-18_260595134347_rgbf000196-resize_3-target.png,83,3.44,1,2730,99,feet,jsons/VE83_randls_63_rotated.json,673112,907066,57,Man
101,167076,DepthScenes,duration_manipulation_targetAtFixation,jsons/VE83_randls_63_rotated.json,http://54.235.29.9/FacialAge/BNav_EC2/DepthDuration/v2_depth_duration_MTurk/v2_DepthDuration_HTML.html#6,6,1280,571,1280,720,8-29-2023,13-18-14,102,depth_duration_stimuli/003081_2014-06-15_15-19-16_094959634447_rgbf000150-resize_1/003081_2014-06-15_15-19-16_094959634447_rgbf000150-resize_1-target.png,83,3.9125,1,3176,74,feet,jsons/VE83_randls_63_rotated.json,673112,907066,57,Man
102,167076,DepthScenes,duration_manipulation_targetAtFixation,jsons/VE83_randls_63_rotated.json,http://54.235.29.9/FacialAge/BNav_EC2/DepthDuration/v2_depth_duration_MTurk/v2_DepthDuration_HTML.html#6,6,1280,571,1280,720,8-29-2023,13-18-14,103,depth_duration_stimuli/001417_2014-06-19_16-25-36_260595134347_rgbf000115-resize_5/001417_2014-06-19_16-25-36_260595134347_rgbf000115-resize_5-target.png,83,4.6255,1,2997,80,feet,jsons/VE83_randls_63_rotated.json,673112,907066,57,Man
103,167076,DepthScenes,duration_manipulation_targetAtFixation,jsons/VE83_randls_63_rotated.json,http://54.235.29.9/FacialAge/BNav_EC2/DepthDuration/v2_depth_duration_MTurk/v2_DepthDuration_HTML.html#6,6,1280,571,1280,720,8-29-2023,13-18-14,104,depth_duration_stimuli/002657_2014-06-13_15-29-54_094959634447_rgbf000150-resize_1/002657_2014-06-13_15-29-54_094959634447_rgbf000150-resize_1-target.png,83,4.919,0,2546,77,feet,jsons/VE83_randls_63_rotated.json,673112,907066,57,Man
104,167076,DepthScenes,duration_manipulation_targetAtFixation,jsons/VE83_randls_63_rotated.json,http://54.235.29.9/FacialAge/BNav_EC2/DepthDuration/v2_depth_duration_MTurk/v2_DepthDuration_HTML.html#6,6,1280,571,1280,720,8-29-2023,13-18-14,105,depth_duration_stimuli/002375_2014-06-28_20-13-44_260595134347_rgbf000032-resize_1/002375_2014-06-28_20-13-44_260595134347_rgbf000032-resize_1-target.png,83,4.0175,0,2247,80,feet,jsons/VE83_randls_63_rotated.json,673112,907066,57,Man
105,167076,DepthScenes,duration_manipulation_targetAtFixation,jsons/VE83_randls_63_rotated.json,http://54.235.29.9/FacialAge/BNav_EC2/DepthDuration/v2_depth_duration_MTurk/v2_DepthDuration_HTML.html#6,6,1280,571,1280,720,8-29-2023,13-18-14,106,depth_duration_stimuli/002758_2014-06-22_19-11-20_094959634447_rgbf000128-resize_1/002758_2014-06-22_19-11-20_094959634447_rgbf000128-resize_1-target.png,83,2.555,0,2315,126,feet,jsons/VE83_randls_63_rotated.json,673112,907066,57,Man
106,167076,DepthScenes,duration_manipulation_targetAtFixation,jsons/VE83_randls_63_rotated.json,http://54.235.29.9/FacialAge/BNav_EC2/DepthDuration/v2_depth_duration_MTurk/v2_DepthDuration_HTML.html#6,6,1280,571,1280,720,8-29-2023,13-18-14,107,depth_duration_stimuli/002630_2014-06-24_14-47-50_094959634447_rgbf000055-resize_1/002630_2014-06-24_14-47-50_094959634447_rgbf000055-resize_1-target.png,83,3.0095,0,2128,80,feet,jsons/VE83_randls_63_rotated.json,673112,907066,57,Man
107,167076,DepthScenes,duration_manipulation_targetAtFixation,jsons/VE83_randls_63_rotated.json,http://54.235.29.9/FacialAge/BNav_EC2/DepthDuration/v2_depth_duration_MTurk/v2_DepthDuration_HTML.html#6,6,1280,571,1280,720,8-29-2023,13-18-14,108,depth_duration_stimuli/000665_2014-06-09_20-42-35_260595134347_rgbf000110-resize_1/000665_2014-06-09_20-42-35_260595134347_rgbf000110-resize_1-target.png,83,3.057,1,2443,80,feet,jsons/VE83_randls_63_rotated.json,673112,907066,57,Man
108,167076,DepthScenes,duration_manipulation_targetAtFixation,jsons/VE83_randls_63_rotated.json,http://54.235.29.9/FacialAge/BNav_EC2/DepthDuration/v2_depth_duration_MTurk/v2_DepthDuration_HTML.html#6,6,1280,571,1280,720,8-29-2023,13-18-14,109,depth_duration_stimuli/001150_2014-06-17_15-27-34_260595134347_rgbf000108-resize_2/001150_2014-06-17_15-27-34_260595134347_rgbf000108-resize_2-target.png,83,4.0325,1,3558,71,feet,jsons/VE83_randls_63_rotated.json,673112,907066,57,Man
109,167076,DepthScenes,duration_manipulation_targetAtFixation,jsons/VE83_randls_63_rotated.json,http://54.235.29.9/FacialAge/BNav_EC2/DepthDuration/v2_depth_duration_MTurk/v2_DepthDuration_HTML.html#6,6,1280,571,1280,720,8-29-2023,13-18-14,110,depth_duration_stimuli/002425_2014-06-28_20-27-29_260595134347_rgbf000031-resize_8/002425_2014-06-28_20-27-29_260595134347_rgbf000031-resize_8-target.png,83,3.8960000000000004,1,2221,69,feet,jsons/VE83_randls_63_rotated.json,673112,907066,57,Man
110,167076,DepthScenes,duration_manipulation_targetAtFixation,jsons/VE83_randls_63_rotated.json,http://54.235.29.9/FacialAge/BNav_EC2/DepthDuration/v2_depth_duration_MTurk/v2_DepthDuration_HTML.html#6,6,1280,571,1280,720,8-29-2023,13-18-14,111,depth_duration_stimuli/000642_2014-06-08_16-59-25_260595134347_rgbf000098-resize_2/000642_2014-06-08_16-59-25_260595134347_rgbf000098-resize_2-target.png,83,2.8815,0,2211,78,feet,jsons/VE83_randls_63_rotated.json,673112,907066,57,Man
111,167076,DepthScenes,duration_manipulation_targetAtFixation,jsons/VE83_randls_63_rotated.json,http://54.235.29.9/FacialAge/BNav_EC2/DepthDuration/v2_depth_duration_MTurk/v2_DepthDuration_HTML.html#6,6,1280,571,1280,720,8-29-2023,13-18-14,112,depth_duration_stimuli/002444_2014-06-28_20-32-08_260595134347_rgbf000027-resize_0/002444_2014-06-28_20-32-08_260595134347_rgbf000027-resize_0-target.png,83,4.388999999999999,1,3515,79,feet,jsons/VE83_randls_63_rotated.json,673112,907066,57,Man
112,167076,DepthScenes,duration_manipulation_targetAtFixation,jsons/VE83_randls_63_rotated.json,http://54.235.29.9/FacialAge/BNav_EC2/DepthDuration/v2_depth_duration_MTurk/v2_DepthDuration_HTML.html#6,6,1280,571,1280,720,8-29-2023,13-18-14,113,depth_duration_stimuli/000436_2014-06-09_22-25-11_260595134347_rgbf000137-resize_1/000436_2014-06-09_22-25-11_260595134347_rgbf000137-resize_1-target.png,83,4.0705,0,2525,79,feet,jsons/VE83_randls_63_rotated.json,673112,907066,57,Man
113,167076,DepthScenes,duration_manipulation_targetAtFixation,jsons/VE83_randls_63_rotated.json,http://54.235.29.9/FacialAge/BNav_EC2/DepthDuration/v2_depth_duration_MTurk/v2_DepthDuration_HTML.html#6,6,1280,571,1280,720,8-29-2023,13-18-14,114,depth_duration_stimuli/001392_2014-06-19_16-07-59_260595134347_rgbf000046-resize_1/001392_2014-06-19_16-07-59_260595134347_rgbf000046-resize_1-target.png,83,4.135,1,3283,74,feet,jsons/VE83_randls_63_rotated.json,673112,907066,57,Man
114,167076,DepthScenes,duration_manipulation_targetAtFixation,jsons/VE83_randls_63_rotated.json,http://54.235.29.9/FacialAge/BNav_EC2/DepthDuration/v2_depth_duration_MTurk/v2_DepthDuration_HTML.html#6,6,1280,571,1280,720,8-29-2023,13-18-14,115,depth_duration_stimuli/001570_2014-06-20_17-21-09_260595134347_rgbf000135-resize_4/001570_2014-06-20_17-21-09_260595134347_rgbf000135-resize_4-target.png,83,4.467,1,2471,78,feet,jsons/VE83_randls_63_rotated.json,673112,907066,57,Man
115,167076,DepthScenes,duration_manipulation_targetAtFixation,jsons/VE83_randls_63_rotated.json,http://54.235.29.9/FacialAge/BNav_EC2/DepthDuration/v2_depth_duration_MTurk/v2_DepthDuration_HTML.html#6,6,1280,571,1280,720,8-29-2023,13-18-14,116,depth_duration_stimuli/001815_2014-06-26_20-52-55_260595134347_rgbf000020-resize_0/001815_2014-06-26_20-52-55_260595134347_rgbf000020-resize_0-target.png,83,3.3865,1,2609,76,feet,jsons/VE83_randls_63_rotated.json,673112,907066,57,Man
116,167076,DepthScenes,duration_manipulation_targetAtFixation,jsons/VE83_randls_63_rotated.json,http://54.235.29.9/FacialAge/BNav_EC2/DepthDuration/v2_depth_duration_MTurk/v2_DepthDuration_HTML.html#6,6,1280,571,1280,720,8-29-2023,13-18-14,117,depth_duration_stimuli/001808_2014-06-26_20-50-58_260595134347_rgbf000029-resize_1/001808_2014-06-26_20-50-58_260595134347_rgbf000029-resize_1-target.png,83,4.249,0,3533,74,feet,jsons/VE83_randls_63_rotated.json,673112,907066,57,Man
117,167076,DepthScenes,duration_manipulation_targetAtFixation,jsons/VE83_randls_63_rotated.json,http://54.235.29.9/FacialAge/BNav_EC2/DepthDuration/v2_depth_duration_MTurk/v2_DepthDuration_HTML.html#6,6,1280,571,1280,720,8-29-2023,13-18-14,118,depth_duration_stimuli/002750_2014-06-22_19-08-03_094959634447_rgbf000094-resize_4/002750_2014-06-22_19-08-03_094959634447_rgbf000094-resize_4-target.png,83,2.354,1,2813,69,feet,jsons/VE83_randls_63_rotated.json,673112,907066,57,Man
118,167076,DepthScenes,duration_manipulation_targetAtFixation,jsons/VE83_randls_63_rotated.json,http://54.235.29.9/FacialAge/BNav_EC2/DepthDuration/v2_depth_duration_MTurk/v2_DepthDuration_HTML.html#6,6,1280,571,1280,720,8-29-2023,13-18-14,119,depth_duration_stimuli/002549_2014-06-24_13-41-39_094959634447_rgbf000022-resize_3/002549_2014-06-24_13-41-39_094959634447_rgbf000022-resize_3-target.png,83,1.476,1,2979,79,feet,jsons/VE83_randls_63_rotated.json,673112,907066,57,Man
119,167076,DepthScenes,duration_manipulation_targetAtFixation,jsons/VE83_randls_63_rotated.json,http://54.235.29.9/FacialAge/BNav_EC2/DepthDuration/v2_depth_duration_MTurk/v2_DepthDuration_HTML.html#6,6,1280,571,1280,720,8-29-2023,13-18-14,120,depth_duration_stimuli/000787_2014-06-08_22-33-53_260595134347_rgbf000175-resize_1/000787_2014-06-08_22-33-53_260595134347_rgbf000175-resize-original.jpg,83,4.784,0,2428,73,feet,jsons/VE83_randls_63_rotated.json,673112,907066,57,Man
120,167076,DepthScenes,duration_manipulation_targetAtFixation,jsons/VE83_randls_63_rotated.json,http://54.235.29.9/FacialAge/BNav_EC2/DepthDuration/v2_depth_duration_MTurk/v2_DepthDuration_HTML.html#6,6,1280,571,1280,720,8-29-2023,13-18-14,121,depth_duration_stimuli/003048_2014-06-15_13-49-43_094959634447_rgbf000150-resize_1/003048_2014-06-15_13-49-43_094959634447_rgbf000150-resize_1-target.png,83,4.0035,0,2596,79,feet,jsons/VE83_randls_63_rotated.json,673112,907066,57,Man
121,167076,DepthScenes,duration_manipulation_targetAtFixation,jsons/VE83_randls_63_rotated.json,http://54.235.29.9/FacialAge/BNav_EC2/DepthDuration/v2_depth_duration_MTurk/v2_DepthDuration_HTML.html#6,6,1280,571,1280,720,8-29-2023,13-18-14,122,depth_duration_stimuli/002043_2014-06-24_20-29-38_260595134347_rgbf000039-resize_4/002043_2014-06-24_20-29-38_260595134347_rgbf000039-resize_4-target.png,83,2.8435,0,2850,77,feet,jsons/VE83_randls_63_rotated.json,673112,907066,57,Man
122,167076,DepthScenes,duration_manipulation_targetAtFixation,jsons/VE83_randls_63_rotated.json,http://54.235.29.9/FacialAge/BNav_EC2/DepthDuration/v2_depth_duration_MTurk/v2_DepthDuration_HTML.html#6,6,1280,571,1280,720,8-29-2023,13-18-14,123,depth_duration_stimuli/001650_2014-06-20_12-09-00_260595134347_rgbf000087-resize_3/001650_2014-06-20_12-09-00_260595134347_rgbf000087-resize_3-target.png,83,1.9505,1,2711,82,feet,jsons/VE83_randls_63_rotated.json,673112,907066,57,Man
123,167076,DepthScenes,duration_manipulation_targetAtFixation,jsons/VE83_randls_63_rotated.json,http://54.235.29.9/FacialAge/BNav_EC2/DepthDuration/v2_depth_duration_MTurk/v2_DepthDuration_HTML.html#6,6,1280,571,1280,720,8-29-2023,13-18-14,124,depth_duration_stimuli/000682_2014-06-08_23-14-58_260595134347_rgbf000041-resize_5/000682_2014-06-08_23-14-58_260595134347_rgbf000041-resize_5-target.png,83,2.7239999999999998,0,2698,82,feet,jsons/VE83_randls_63_rotated.json,673112,907066,57,Man
124,167076,DepthScenes,duration_manipulation_targetAtFixation,jsons/VE83_randls_63_rotated.json,http://54.235.29.9/FacialAge/BNav_EC2/DepthDuration/v2_depth_duration_MTurk/v2_DepthDuration_HTML.html#6,6,1280,571,1280,720,8-29-2023,13-18-14,125,depth_duration_stimuli/001094_2014-06-15_17-36-00_260595134347_rgbf000205-resize_0/001094_2014-06-15_17-36-00_260595134347_rgbf000205-resize_0-target.png,83,4.2175,0,2496,78,feet,jsons/VE83_randls_63_rotated.json,673112,907066,57,Man
125,167076,DepthScenes,duration_manipulation_targetAtFixation,jsons/VE83_randls_63_rotated.json,http://54.235.29.9/FacialAge/BNav_EC2/DepthDuration/v2_depth_duration_MTurk/v2_DepthDuration_HTML.html#6,6,1280,571,1280,720,8-29-2023,13-18-14,126,depth_duration_stimuli/000692_2014-06-08_13-09-42_260595134347_rgbf000199-resize_2/000692_2014-06-08_13-09-42_260595134347_rgbf000199-resize_2-target.png,83,3.661,0,2624,73,feet,jsons/VE83_randls_63_rotated.json,673112,907066,57,Man
126,167076,DepthScenes,duration_manipulation_targetAtFixation,jsons/VE83_randls_63_rotated.json,http://54.235.29.9/FacialAge/BNav_EC2/DepthDuration/v2_depth_duration_MTurk/v2_DepthDuration_HTML.html#6,6,1280,571,1280,720,8-29-2023,13-18-14,127,depth_duration_stimuli/002875_2014-06-01_15-19-00_094959634447_rgbf000151-resize_1/002875_2014-06-01_15-19-00_094959634447_rgbf000151-resize_1-target.png,83,1.9675,0,2904,91,feet,jsons/VE83_randls_63_rotated.json,673112,907066,57,Man
127,167076,DepthScenes,duration_manipulation_targetAtFixation,jsons/VE83_randls_63_rotated.json,http://54.235.29.9/FacialAge/BNav_EC2/DepthDuration/v2_depth_duration_MTurk/v2_DepthDuration_HTML.html#6,6,1280,571,1280,720,8-29-2023,13-18-14,128,depth_duration_stimuli/001011_2014-06-08_23-18-54_260595134347_rgbf000044-resize_4/001011_2014-06-08_23-18-54_260595134347_rgbf000044-resize_4-target.png,83,2.4730000000000003,0,2244,71,feet,jsons/VE83_randls_63_rotated.json,673112,907066,57,Man
128,167076,DepthScenes,duration_manipulation_targetAtFixation,jsons/VE83_randls_63_rotated.json,http://54.235.29.9/FacialAge/BNav_EC2/DepthDuration/v2_depth_duration_MTurk/v2_DepthDuration_HTML.html#6,6,1280,571,1280,720,8-29-2023,13-18-14,129,depth_duration_stimuli/000742_2014-06-08_18-48-09_260595134347_rgbf000164-resize_4/000742_2014-06-08_18-48-09_260595134347_rgbf000164-resize_4-target.png,83,4.632,1,2510,75,feet,jsons/VE83_randls_63_rotated.json,673112,907066,57,Man
129,167076,DepthScenes,duration_manipulation_targetAtFixation,jsons/VE83_randls_63_rotated.json,http://54.235.29.9/FacialAge/BNav_EC2/DepthDuration/v2_depth_duration_MTurk/v2_DepthDuration_HTML.html#6,6,1280,571,1280,720,8-29-2023,13-18-14,130,depth_duration_stimuli/001066_2014-06-08_22-03-20_260595134347_rgbf000066-resize_4/001066_2014-06-08_22-03-20_260595134347_rgbf000066-resize_4-target.png,83,4.2330000000000005,0,3222,75,feet,jsons/VE83_randls_63_rotated.json,673112,907066,57,Man
130,167076,DepthScenes,duration_manipulation_targetAtFixation,jsons/VE83_randls_63_rotated.json,http://54.235.29.9/FacialAge/BNav_EC2/DepthDuration/v2_depth_duration_MTurk/v2_DepthDuration_HTML.html#6,6,1280,571,1280,720,8-29-2023,13-18-14,131,depth_duration_stimuli/002949_2014-06-26_15-57-42_094959634447_rgbf000079-resize_1/002949_2014-06-26_15-57-42_094959634447_rgbf000079-resize_1-target.png,83,1.8915,1,2326,72,feet,jsons/VE83_randls_63_rotated.json,673112,907066,57,Man
131,167076,DepthScenes,duration_manipulation_targetAtFixation,jsons/VE83_randls_63_rotated.json,http://54.235.29.9/FacialAge/BNav_EC2/DepthDuration/v2_depth_duration_MTurk/v2_DepthDuration_HTML.html#6,6,1280,571,1280,720,8-29-2023,13-18-14,132,depth_duration_stimuli/000522_2014-06-08_13-35-06_260595134347_rgbf000244-resize_1/000522_2014-06-08_13-35-06_260595134347_rgbf000244-resize_1-target.png,83,2.3715,1,2956,75,feet,jsons/VE83_randls_63_rotated.json,673112,907066,57,Man
132,167076,DepthScenes,duration_manipulation_targetAtFixation,jsons/VE83_randls_63_rotated.json,http://54.235.29.9/FacialAge/BNav_EC2/DepthDuration/v2_depth_duration_MTurk/v2_DepthDuration_HTML.html#6,6,1280,571,1280,720,8-29-2023,13-18-14,133,depth_duration_stimuli/002199_2014-06-28_18-33-56_260595134347_rgbf000074-resize_0/002199_2014-06-28_18-33-56_260595134347_rgbf000074-resize_0-target.png,83,1.996,0,2881,72,feet,jsons/VE83_randls_63_rotated.json,673112,907066,57,Man
133,167076,DepthScenes,duration_manipulation_targetAtFixation,jsons/VE83_randls_63_rotated.json,http://54.235.29.9/FacialAge/BNav_EC2/DepthDuration/v2_depth_duration_MTurk/v2_DepthDuration_HTML.html#6,6,1280,571,1280,720,8-29-2023,13-18-14,134,depth_duration_stimuli/001056_2014-06-08_18-46-44_260595134347_rgbf000068-resize_0/001056_2014-06-08_18-46-44_260595134347_rgbf000068-resize_0-target.png,83,2.6625,0,7297,71,feet,jsons/VE83_randls_63_rotated.json,673112,907066,57,Man
134,167076,DepthScenes,duration_manipulation_targetAtFixation,jsons/VE83_randls_63_rotated.json,http://54.235.29.9/FacialAge/BNav_EC2/DepthDuration/v2_depth_duration_MTurk/v2_DepthDuration_HTML.html#6,6,1280,571,1280,720,8-29-2023,13-18-14,135,depth_duration_stimuli/000375_2014-06-08_11-17-29_260595134347_rgbf000133-resize_2/000375_2014-06-08_11-17-29_260595134347_rgbf000133-resize-original.jpg,83,4.718,0,2696,79,feet,jsons/VE83_randls_63_rotated.json,673112,907066,57,Man
135,167076,DepthScenes,duration_manipulation_targetAtFixation,jsons/VE83_randls_63_rotated.json,http://54.235.29.9/FacialAge/BNav_EC2/DepthDuration/v2_depth_duration_MTurk/v2_DepthDuration_HTML.html#6,6,1280,571,1280,720,8-29-2023,13-18-14,136,depth_duration_stimuli/002637_2014-06-24_14-51-13_094959634447_rgbf000066-resize_4/002637_2014-06-24_14-51-13_094959634447_rgbf000066-resize_4-target.png,83,1.9955,0,2272,78,feet,jsons/VE83_randls_63_rotated.json,673112,907066,57,Man
136,167076,DepthScenes,duration_manipulation_targetAtFixation,jsons/VE83_randls_63_rotated.json,http://54.235.29.9/FacialAge/BNav_EC2/DepthDuration/v2_depth_duration_MTurk/v2_DepthDuration_HTML.html#6,6,1280,571,1280,720,8-29-2023,13-18-14,137,depth_duration_stimuli/003534_2014-05-22_15-06-10_094959634447_rgbf000102-resize_4/003534_2014-05-22_15-06-10_094959634447_rgbf000102-resize_4-target.png,83,1.426,1,2844,73,feet,jsons/VE83_randls_63_rotated.json,673112,907066,57,Man
137,167076,DepthScenes,duration_manipulation_targetAtFixation,jsons/VE83_randls_63_rotated.json,http://54.235.29.9/FacialAge/BNav_EC2/DepthDuration/v2_depth_duration_MTurk/v2_DepthDuration_HTML.html#6,6,1280,571,1280,720,8-29-2023,13-18-14,138,depth_duration_stimuli/000749_2014-06-08_21-55-06_260595134347_rgbf000070-resize_2/000749_2014-06-08_21-55-06_260595134347_rgbf000070-resize_2-target.png,83,2.331,1,3628,72,feet,jsons/VE83_randls_63_rotated.json,673112,907066,57,Man
138,167076,DepthScenes,duration_manipulation_targetAtFixation,jsons/VE83_randls_63_rotated.json,http://54.235.29.9/FacialAge/BNav_EC2/DepthDuration/v2_depth_duration_MTurk/v2_DepthDuration_HTML.html#6,6,1280,571,1280,720,8-29-2023,13-18-14,139,depth_duration_stimuli/002788_2014-06-22_19-36-03_094959634447_rgbf000088-resize_2/002788_2014-06-22_19-36-03_094959634447_rgbf000088-resize_2-target.png,83,1.6465,1,2259,74,feet,jsons/VE83_randls_63_rotated.json,673112,907066,57,Man
139,167076,DepthScenes,duration_manipulation_targetAtFixation,jsons/VE83_randls_63_rotated.json,http://54.235.29.9/FacialAge/BNav_EC2/DepthDuration/v2_depth_duration_MTurk/v2_DepthDuration_HTML.html#6,6,1280,571,1280,720,8-29-2023,13-18-14,140,depth_duration_stimuli/002340_2014-06-28_20-05-46_260595134347_rgbf000113-resize_0/002340_2014-06-28_20-05-46_260595134347_rgbf000113-resize_0-target.png,83,2.4735,0,3076,76,feet,jsons/VE83_randls_63_rotated.json,673112,907066,57,Man
140,167076,DepthScenes,duration_manipulation_targetAtFixation,jsons/VE83_randls_63_rotated.json,http://54.235.29.9/FacialAge/BNav_EC2/DepthDuration/v2_depth_duration_MTurk/v2_DepthDuration_HTML.html#6,6,1280,571,1280,720,8-29-2023,13-18-14,141,depth_duration_stimuli/001016_2014-06-09_16-16-10_260595134347_rgbf000112-resize_5/001016_2014-06-09_16-16-10_260595134347_rgbf000112-resize_5-target.png,83,1.6565,0,2243,99,feet,jsons/VE83_randls_63_rotated.json,673112,907066,57,Man
141,167076,DepthScenes,duration_manipulation_targetAtFixation,jsons/VE83_randls_63_rotated.json,http://54.235.29.9/FacialAge/BNav_EC2/DepthDuration/v2_depth_duration_MTurk/v2_DepthDuration_HTML.html#6,6,1280,571,1280,720,8-29-2023,13-18-14,142,depth_duration_stimuli/001450_2014-06-19_17-02-03_260595134347_rgbf000203-resize_4/001450_2014-06-19_17-02-03_260595134347_rgbf000203-resize_4-target.png,83,4.0106666666667,1,2346,75,feet,jsons/VE83_randls_63_rotated.json,673112,907066,57,Man
142,167076,DepthScenes,duration_manipulation_targetAtFixation,jsons/VE83_randls_63_rotated.json,http://54.235.29.9/FacialAge/BNav_EC2/DepthDuration/v2_depth_duration_MTurk/v2_DepthDuration_HTML.html#6,6,1280,571,1280,720,8-29-2023,13-18-14,143,depth_duration_stimuli/001449_2014-06-19_17-01-27_260595134347_rgbf000116-resize_2/001449_2014-06-19_17-01-27_260595134347_rgbf000116-resize_2-target.png,83,3.452,0,2955,72,feet,jsons/VE83_randls_63_rotated.json,673112,907066,57,Man
143,167076,DepthScenes,duration_manipulation_targetAtFixation,jsons/VE83_randls_63_rotated.json,http://54.235.29.9/FacialAge/BNav_EC2/DepthDuration/v2_depth_duration_MTurk/v2_DepthDuration_HTML.html#6,6,1280,571,1280,720,8-29-2023,13-18-14,144,depth_duration_stimuli/003079_2014-06-15_15-18-20_094959634447_rgbf000152-resize_8/003079_2014-06-15_15-18-20_094959634447_rgbf000152-resize_8-target.png,83,2.8775,1,2262,79,feet,jsons/VE83_randls_63_rotated.json,673112,907066,57,Man
144,167076,DepthScenes,duration_manipulation_targetAtFixation,jsons/VE83_randls_63_rotated.json,http://54.235.29.9/FacialAge/BNav_EC2/DepthDuration/v2_depth_duration_MTurk/v2_DepthDuration_HTML.html#6,6,1280,571,1280,720,8-29-2023,13-18-14,145,depth_duration_stimuli/000506_2014-06-08_23-21-00_260595134347_rgbf000070-resize_7/000506_2014-06-08_23-21-00_260595134347_rgbf000070-resize_7-target.png,83,4.0585,1,2502,67,feet,jsons/VE83_randls_63_rotated.json,673112,907066,57,Man
145,167076,DepthScenes,duration_manipulation_targetAtFixation,jsons/VE83_randls_63_rotated.json,http://54.235.29.9/FacialAge/BNav_EC2/DepthDuration/v2_depth_duration_MTurk/v2_DepthDuration_HTML.html#6,6,1280,571,1280,720,8-29-2023,13-18-14,146,depth_duration_stimuli/002136_2014-06-25_21-18-03_260595134347_rgbf000109-resize_3/002136_2014-06-25_21-18-03_260595134347_rgbf000109-resize_3-target.png,83,1.9569999999999999,0,6206,76,feet,jsons/VE83_randls_63_rotated.json,673112,907066,57,Man
146,167076,DepthScenes,duration_manipulation_targetAtFixation,jsons/VE83_randls_63_rotated.json,http://54.235.29.9/FacialAge/BNav_EC2/DepthDuration/v2_depth_duration_MTurk/v2_DepthDuration_HTML.html#6,6,1280,571,1280,720,8-29-2023,13-18-14,147,depth_duration_stimuli/002964_2014-06-08_17-46-11_094959634447_rgbf000091-resize_4/002964_2014-06-08_17-46-11_094959634447_rgbf000091-resize_4-target.png,83,1.6909999999999998,0,4661,77,feet,jsons/VE83_randls_63_rotated.json,673112,907066,57,Man
147,167076,DepthScenes,duration_manipulation_targetAtFixation,jsons/VE83_randls_63_rotated.json,http://54.235.29.9/FacialAge/BNav_EC2/DepthDuration/v2_depth_duration_MTurk/v2_DepthDuration_HTML.html#6,6,1280,571,1280,720,8-29-2023,13-18-14,148,depth_duration_stimuli/000483_2014-06-09_20-41-45_260595134347_rgbf000116-resize_4/000483_2014-06-09_20-41-45_260595134347_rgbf000116-resize_4-target.png,83,1.337,1,2719,80,feet,jsons/VE83_randls_63_rotated.json,673112,907066,57,Man
148,167076,DepthScenes,duration_manipulation_targetAtFixation,jsons/VE83_randls_63_rotated.json,http://54.235.29.9/FacialAge/BNav_EC2/DepthDuration/v2_depth_duration_MTurk/v2_DepthDuration_HTML.html#6,6,1280,571,1280,720,8-29-2023,13-18-14,149,depth_duration_stimuli/000469_2014-06-09_19-42-10_260595134347_rgbf000081-resize_1/000469_2014-06-09_19-42-10_260595134347_rgbf000081-resize_1-target.png,83,1.652,0,5441,90,feet,jsons/VE83_randls_63_rotated.json,673112,907066,57,Man
149,167076,DepthScenes,duration_manipulation_targetAtFixation,jsons/VE83_randls_63_rotated.json,http://54.235.29.9/FacialAge/BNav_EC2/DepthDuration/v2_depth_duration_MTurk/v2_DepthDuration_HTML.html#6,6,1280,571,1280,720,8-29-2023,13-18-14,150,depth_duration_stimuli/000457_2014-06-08_16-52-43_260595134347_rgbf000199-resize_1/000457_2014-06-08_16-52-43_260595134347_rgbf000199-resize_1-target.png,83,3.6489999999999996,0,2607,71,feet,jsons/VE83_randls_63_rotated.json,673112,907066,57,Man
150,167076,DepthScenes,duration_manipulation_targetAtFixation,jsons/VE83_randls_63_rotated.json,http://54.235.29.9/FacialAge/BNav_EC2/DepthDuration/v2_depth_duration_MTurk/v2_DepthDuration_HTML.html#6,6,1280,571,1280,720,8-29-2023,13-18-14,151,depth_duration_stimuli/000929_2014-06-09_16-33-19_260595134347_rgbf000139-resize_0/000929_2014-06-09_16-33-19_260595134347_rgbf000139-resize_0-target.png,83,2.8680000000000003,0,2527,76,feet,jsons/VE83_randls_63_rotated.json,673112,907066,57,Man
151,167076,DepthScenes,duration_manipulation_targetAtFixation,jsons/VE83_randls_63_rotated.json,http://54.235.29.9/FacialAge/BNav_EC2/DepthDuration/v2_depth_duration_MTurk/v2_DepthDuration_HTML.html#6,6,1280,571,1280,720,8-29-2023,13-18-14,152,depth_duration_stimuli/000569_2014-06-09_22-51-47_260595134347_rgbf000141-resize_3/000569_2014-06-09_22-51-47_260595134347_rgbf000141-resize-original.jpg,83,4.512,0,2325,59,feet,jsons/VE83_randls_63_rotated.json,673112,907066,57,Man
152,167076,DepthScenes,duration_manipulation_targetAtFixation,jsons/VE83_randls_63_rotated.json,http://54.235.29.9/FacialAge/BNav_EC2/DepthDuration/v2_depth_duration_MTurk/v2_DepthDuration_HTML.html#6,6,1280,571,1280,720,8-29-2023,13-18-14,153,depth_duration_stimuli/002568_2014-06-24_13-59-21_094959634447_rgbf000062-resize_4/002568_2014-06-24_13-59-21_094959634447_rgbf000062-resize_4-target.png,83,3.015,1,6595,72,feet,jsons/VE83_randls_63_rotated.json,673112,907066,57,Man
153,167076,DepthScenes,duration_manipulation_targetAtFixation,jsons/VE83_randls_63_rotated.json,http://54.235.29.9/FacialAge/BNav_EC2/DepthDuration/v2_depth_duration_MTurk/v2_DepthDuration_HTML.html#6,6,1280,571,1280,720,8-29-2023,13-18-14,154,depth_duration_stimuli/003492_2014-05-21_15-50-55_094959634447_rgbf000828-resize_1/003492_2014-05-21_15-50-55_094959634447_rgbf000828-resize_1-target.png,83,4.06875,1,2823,77,feet,jsons/VE83_randls_63_rotated.json,673112,907066,57,Man
154,167076,DepthScenes,duration_manipulation_targetAtFixation,jsons/VE83_randls_63_rotated.json,http://54.235.29.9/FacialAge/BNav_EC2/DepthDuration/v2_depth_duration_MTurk/v2_DepthDuration_HTML.html#6,6,1280,571,1280,720,8-29-2023,13-18-14,155,depth_duration_stimuli/000677_2014-06-08_23-10-32_260595134347_rgbf000158-resize_6/000677_2014-06-08_23-10-32_260595134347_rgbf000158-resize_6-target.png,83,3.556,0,2103,71,feet,jsons/VE83_randls_63_rotated.json,673112,907066,57,Man
155,167076,DepthScenes,duration_manipulation_targetAtFixation,jsons/VE83_randls_63_rotated.json,http://54.235.29.9/FacialAge/BNav_EC2/DepthDuration/v2_depth_duration_MTurk/v2_DepthDuration_HTML.html#6,6,1280,571,1280,720,8-29-2023,13-18-14,156,depth_duration_stimuli/001029_2014-06-08_13-17-57_260595134347_rgbf000065-resize_1/001029_2014-06-08_13-17-57_260595134347_rgbf000065-resize_1-target.png,83,3.0835,0,2272,68,feet,jsons/VE83_randls_63_rotated.json,673112,907066,57,Man
156,167076,DepthScenes,duration_manipulation_targetAtFixation,jsons/VE83_randls_63_rotated.json,http://54.235.29.9/FacialAge/BNav_EC2/DepthDuration/v2_depth_duration_MTurk/v2_DepthDuration_HTML.html#6,6,1280,571,1280,720,8-29-2023,13-18-14,157,depth_duration_stimuli/001052_2014-06-08_18-24-54_260595134347_rgbf000130-resize_1/001052_2014-06-08_18-24-54_260595134347_rgbf000130-resize_1-target.png,83,4.1045,0,2408,73,feet,jsons/VE83_randls_63_rotated.json,673112,907066,57,Man
157,167076,DepthScenes,duration_manipulation_targetAtFixation,jsons/VE83_randls_63_rotated.json,http://54.235.29.9/FacialAge/BNav_EC2/DepthDuration/v2_depth_duration_MTurk/v2_DepthDuration_HTML.html#6,6,1280,571,1280,720,8-29-2023,13-18-14,158,depth_duration_stimuli/002988_2014-06-15_12-24-20_094959634447_rgbf000150-resize_1/002988_2014-06-15_12-24-20_094959634447_rgbf000150-resize_1-target.png,83,4.7669999999999995,0,5111,74,feet,jsons/VE83_randls_63_rotated.json,673112,907066,57,Man
158,167076,DepthScenes,duration_manipulation_targetAtFixation,jsons/VE83_randls_63_rotated.json,http://54.235.29.9/FacialAge/BNav_EC2/DepthDuration/v2_depth_duration_MTurk/v2_DepthDuration_HTML.html#6,6,1280,571,1280,720,8-29-2023,13-18-14,159,depth_duration_stimuli/000780_2014-06-08_22-28-29_260595134347_rgbf000126-resize_1/000780_2014-06-08_22-28-29_260595134347_rgbf000126-resize_1-target.png,83,3.3825,0,2209,73,feet,jsons/VE83_randls_63_rotated.json,673112,907066,57,Man
159,167076,DepthScenes,duration_manipulation_targetAtFixation,jsons/VE83_randls_63_rotated.json,http://54.235.29.9/FacialAge/BNav_EC2/DepthDuration/v2_depth_duration_MTurk/v2_DepthDuration_HTML.html#6,6,1280,571,1280,720,8-29-2023,13-18-14,160,depth_duration_stimuli/002445_2014-06-28_20-32-16_260595134347_rgbf000029-resize_4/002445_2014-06-28_20-32-16_260595134347_rgbf000029-resize_4-target.png,83,2.5315,0,2671,71,feet,jsons/VE83_randls_63_rotated.json,673112,907066,57,Man
160,167076,DepthScenes,duration_manipulation_targetAtFixation,jsons/VE83_randls_63_rotated.json,http://54.235.29.9/FacialAge/BNav_EC2/DepthDuration/v2_depth_duration_MTurk/v2_DepthDuration_HTML.html#6,6,1280,571,1280,720,8-29-2023,13-18-14,161,depth_duration_stimuli/000734_2014-06-08_17-39-11_260595134347_rgbf000128-resize_2/000734_2014-06-08_17-39-11_260595134347_rgbf000128-resize_2-target.png,83,4.098,0,2636,81,feet,jsons/VE83_randls_63_rotated.json,673112,907066,57,Man
161,167076,DepthScenes,duration_manipulation_targetAtFixation,jsons/VE83_randls_63_rotated.json,http://54.235.29.9/FacialAge/BNav_EC2/DepthDuration/v2_depth_duration_MTurk/v2_DepthDuration_HTML.html#6,6,1280,571,1280,720,8-29-2023,13-18-14,162,depth_duration_stimuli/000739_2014-06-08_18-45-58_260595134347_rgbf000068-resize_1/000739_2014-06-08_18-45-58_260595134347_rgbf000068-resize_1-target.png,83,3.534,0,4569,83,feet,jsons/VE83_randls_63_rotated.json,673112,907066,57,Man
162,167076,DepthScenes,duration_manipulation_targetAtFixation,jsons/VE83_randls_63_rotated.json,http://54.235.29.9/FacialAge/BNav_EC2/DepthDuration/v2_depth_duration_MTurk/v2_DepthDuration_HTML.html#6,6,1280,571,1280,720,8-29-2023,13-18-14,163,depth_duration_stimuli/002639_2014-06-24_14-51-37_094959634447_rgbf000074-resize_4/002639_2014-06-24_14-51-37_094959634447_rgbf000074-resize_4-target.png,83,4.0375,0,2510,84,feet,jsons/VE83_randls_63_rotated.json,673112,907066,57,Man
163,167076,DepthScenes,duration_manipulation_targetAtFixation,jsons/VE83_randls_63_rotated.json,http://54.235.29.9/FacialAge/BNav_EC2/DepthDuration/v2_depth_duration_MTurk/v2_DepthDuration_HTML.html#6,6,1280,571,1280,720,8-29-2023,13-18-14,164,depth_duration_stimuli/003292_2014-05-14_21-53-49_094959634447_rgbf000100-resize_2/003292_2014-05-14_21-53-49_094959634447_rgbf000100-resize_2-target.png,83,3.4815,0,2333,83,feet,jsons/VE83_randls_63_rotated.json,673112,907066,57,Man
