,subjID,experimentName,versionName,sequenceName,url,selected_row,windowWidth,windowHeight,screenWidth,screenHeight,startDate,startTime,trial,stimulus,duration,actual_depth,depth_estimate,trial_RT,log_sceneDuration,unitSelection,seq_filepath,experimentTime,totalTime,age,gender
0,169393,DepthScenes,duration_manipulation_targetAtFixation,jsons/v1_VE250_randls_15.json,http://54.235.29.9/FacialAge/BNav_EC2/DepthDuration/v2_depth_duration_MTurk/v2_DepthDuration_HTML.html#73,73,1920,937,1920,1080,9-4-2022,11-28-48,1,depth_duration_stimuli/002964_2014-06-08_17-46-11_094959634447_rgbf000091-resize_4/002964_2014-06-08_17-46-11_094959634447_rgbf000091-resize_4-target.png,250,1.6909999999999998,2,2733,245,feet,jsons/v1_VE250_randls_15.json,570193,725634,49,Man
1,169393,DepthScenes,duration_manipulation_targetAtFixation,jsons/v1_VE250_randls_15.json,http://54.235.29.9/FacialAge/BNav_EC2/DepthDuration/v2_depth_duration_MTurk/v2_DepthDuration_HTML.html#73,73,1920,937,1920,1080,9-4-2022,11-28-48,2,depth_duration_stimuli/002136_2014-06-25_21-18-03_260595134347_rgbf000109-resize_3/002136_2014-06-25_21-18-03_260595134347_rgbf000109-resize_3-target.png,250,1.9569999999999999,4,2875,246,feet,jsons/v1_VE250_randls_15.json,570193,725634,49,Man
2,169393,DepthScenes,duration_manipulation_targetAtFixation,jsons/v1_VE250_randls_15.json,http://54.235.29.9/FacialAge/BNav_EC2/DepthDuration/v2_depth_duration_MTurk/v2_DepthDuration_HTML.html#73,73,1920,937,1920,1080,9-4-2022,11-28-48,3,depth_duration_stimuli/002272_2014-06-28_18-53-56_260595134347_rgbf000067-resize_2/002272_2014-06-28_18-53-56_260595134347_rgbf000067-resize_2-target.png,250,1.138,3,3227,249,feet,jsons/v1_VE250_randls_15.json,570193,725634,49,Man
3,169393,DepthScenes,duration_manipulation_targetAtFixation,jsons/v1_VE250_randls_15.json,http://54.235.29.9/FacialAge/BNav_EC2/DepthDuration/v2_depth_duration_MTurk/v2_DepthDuration_HTML.html#73,73,1920,937,1920,1080,9-4-2022,11-28-48,4,depth_duration_stimuli/001571_2014-06-20_17-21-32_260595134347_rgbf000089-resize_1/001571_2014-06-20_17-21-32_260595134347_rgbf000089-resize_1-target.png,250,1.86,5,2813,256,feet,jsons/v1_VE250_randls_15.json,570193,725634,49,Man
4,169393,DepthScenes,duration_manipulation_targetAtFixation,jsons/v1_VE250_randls_15.json,http://54.235.29.9/FacialAge/BNav_EC2/DepthDuration/v2_depth_duration_MTurk/v2_DepthDuration_HTML.html#73,73,1920,937,1920,1080,9-4-2022,11-28-48,5,depth_duration_stimuli/002988_2014-06-15_12-24-20_094959634447_rgbf000150-resize_1/002988_2014-06-15_12-24-20_094959634447_rgbf000150-resize_1-target.png,250,4.7669999999999995,16,3567,259,feet,jsons/v1_VE250_randls_15.json,570193,725634,49,Man
5,169393,DepthScenes,duration_manipulation_targetAtFixation,jsons/v1_VE250_randls_15.json,http://54.235.29.9/FacialAge/BNav_EC2/DepthDuration/v2_depth_duration_MTurk/v2_DepthDuration_HTML.html#73,73,1920,937,1920,1080,9-4-2022,11-28-48,6,depth_duration_stimuli/001052_2014-06-08_18-24-54_260595134347_rgbf000130-resize_1/001052_2014-06-08_18-24-54_260595134347_rgbf000130-resize_1-target.png,250,4.1045,11,3987,263,feet,jsons/v1_VE250_randls_15.json,570193,725634,49,Man
6,169393,DepthScenes,duration_manipulation_targetAtFixation,jsons/v1_VE250_randls_15.json,http://54.235.29.9/FacialAge/BNav_EC2/DepthDuration/v2_depth_duration_MTurk/v2_DepthDuration_HTML.html#73,73,1920,937,1920,1080,9-4-2022,11-28-48,7,depth_duration_stimuli/001110_2014-06-15_17-25-28_260595134347_rgbf000150-resize_1/001110_2014-06-15_17-25-28_260595134347_rgbf000150-resize_1-target.png,250,1.7115,6,2738,256,feet,jsons/v1_VE250_randls_15.json,570193,725634,49,Man
7,169393,DepthScenes,duration_manipulation_targetAtFixation,jsons/v1_VE250_randls_15.json,http://54.235.29.9/FacialAge/BNav_EC2/DepthDuration/v2_depth_duration_MTurk/v2_DepthDuration_HTML.html#73,73,1920,937,1920,1080,9-4-2022,11-28-48,8,depth_duration_stimuli/000927_2014-06-09_16-32-30_260595134347_rgbf000123-resize_3/000927_2014-06-09_16-32-30_260595134347_rgbf000123-resize_3-target.png,250,2.6785,9,2777,243,feet,jsons/v1_VE250_randls_15.json,570193,725634,49,Man
8,169393,DepthScenes,duration_manipulation_targetAtFixation,jsons/v1_VE250_randls_15.json,http://54.235.29.9/FacialAge/BNav_EC2/DepthDuration/v2_depth_duration_MTurk/v2_DepthDuration_HTML.html#73,73,1920,937,1920,1080,9-4-2022,11-28-48,9,depth_duration_stimuli/002748_2014-06-22_19-07-22_094959634447_rgbf000078-resize_1/002748_2014-06-22_19-07-22_094959634447_rgbf000078-resize_1-target.png,250,4.6705,24,3079,244,feet,jsons/v1_VE250_randls_15.json,570193,725634,49,Man
9,169393,DepthScenes,duration_manipulation_targetAtFixation,jsons/v1_VE250_randls_15.json,http://54.235.29.9/FacialAge/BNav_EC2/DepthDuration/v2_depth_duration_MTurk/v2_DepthDuration_HTML.html#73,73,1920,937,1920,1080,9-4-2022,11-28-48,10,depth_duration_stimuli/002995_2014-06-15_12-31-26_094959634447_rgbf000150-resize_1/002995_2014-06-15_12-31-26_094959634447_rgbf000150-resize_1-target.png,250,3.8360000000000003,14,3142,238,feet,jsons/v1_VE250_randls_15.json,570193,725634,49,Man
10,169393,DepthScenes,duration_manipulation_targetAtFixation,jsons/v1_VE250_randls_15.json,http://54.235.29.9/FacialAge/BNav_EC2/DepthDuration/v2_depth_duration_MTurk/v2_DepthDuration_HTML.html#73,73,1920,937,1920,1080,9-4-2022,11-28-48,11,depth_duration_stimuli/000773_2014-06-08_22-24-54_260595134347_rgbf000093-resize_1/000773_2014-06-08_22-24-54_260595134347_rgbf000093-resize_1-target.png,250,4.973,14,3356,258,feet,jsons/v1_VE250_randls_15.json,570193,725634,49,Man
11,169393,DepthScenes,duration_manipulation_targetAtFixation,jsons/v1_VE250_randls_15.json,http://54.235.29.9/FacialAge/BNav_EC2/DepthDuration/v2_depth_duration_MTurk/v2_DepthDuration_HTML.html#73,73,1920,937,1920,1080,9-4-2022,11-28-48,12,depth_duration_stimuli/002414_2014-06-28_20-24-58_260595134347_rgbf000067-resize_4/002414_2014-06-28_20-24-58_260595134347_rgbf000067-resize_4-target.png,250,4.363,15,4964,259,feet,jsons/v1_VE250_randls_15.json,570193,725634,49,Man
12,169393,DepthScenes,duration_manipulation_targetAtFixation,jsons/v1_VE250_randls_15.json,http://54.235.29.9/FacialAge/BNav_EC2/DepthDuration/v2_depth_duration_MTurk/v2_DepthDuration_HTML.html#73,73,1920,937,1920,1080,9-4-2022,11-28-48,13,depth_duration_stimuli/000569_2014-06-09_22-51-47_260595134347_rgbf000141-resize_3/000569_2014-06-09_22-51-47_260595134347_rgbf000141-resize-original.jpg,250,4.512,0,2993,260,feet,jsons/v1_VE250_randls_15.json,570193,725634,49,Man
13,169393,DepthScenes,duration_manipulation_targetAtFixation,jsons/v1_VE250_randls_15.json,http://54.235.29.9/FacialAge/BNav_EC2/DepthDuration/v2_depth_duration_MTurk/v2_DepthDuration_HTML.html#73,73,1920,937,1920,1080,9-4-2022,11-28-48,14,depth_duration_stimuli/002279_2014-06-28_18-55-32_260595134347_rgbf000040-resize_5/002279_2014-06-28_18-55-32_260595134347_rgbf000040-resize_5-target.png,250,1.5043333333333,3,2810,242,feet,jsons/v1_VE250_randls_15.json,570193,725634,49,Man
14,169393,DepthScenes,duration_manipulation_targetAtFixation,jsons/v1_VE250_randls_15.json,http://54.235.29.9/FacialAge/BNav_EC2/DepthDuration/v2_depth_duration_MTurk/v2_DepthDuration_HTML.html#73,73,1920,937,1920,1080,9-4-2022,11-28-48,15,depth_duration_stimuli/000635_2014-06-08_16-38-42_260595134347_rgbf000106-resize_1/000635_2014-06-08_16-38-42_260595134347_rgbf000106-resize_1-target.png,250,2.074,8,3016,259,feet,jsons/v1_VE250_randls_15.json,570193,725634,49,Man
15,169393,DepthScenes,duration_manipulation_targetAtFixation,jsons/v1_VE250_randls_15.json,http://54.235.29.9/FacialAge/BNav_EC2/DepthDuration/v2_depth_duration_MTurk/v2_DepthDuration_HTML.html#73,73,1920,937,1920,1080,9-4-2022,11-28-48,16,depth_duration_stimuli/001417_2014-06-19_16-25-36_260595134347_rgbf000115-resize_5/001417_2014-06-19_16-25-36_260595134347_rgbf000115-resize_5-target.png,250,4.6255,8,3521,260,feet,jsons/v1_VE250_randls_15.json,570193,725634,49,Man
16,169393,DepthScenes,duration_manipulation_targetAtFixation,jsons/v1_VE250_randls_15.json,http://54.235.29.9/FacialAge/BNav_EC2/DepthDuration/v2_depth_duration_MTurk/v2_DepthDuration_HTML.html#73,73,1920,937,1920,1080,9-4-2022,11-28-48,17,depth_duration_stimuli/003081_2014-06-15_15-19-16_094959634447_rgbf000150-resize_1/003081_2014-06-15_15-19-16_094959634447_rgbf000150-resize_1-target.png,250,3.9125,11,3090,238,feet,jsons/v1_VE250_randls_15.json,570193,725634,49,Man
17,169393,DepthScenes,duration_manipulation_targetAtFixation,jsons/v1_VE250_randls_15.json,http://54.235.29.9/FacialAge/BNav_EC2/DepthDuration/v2_depth_duration_MTurk/v2_DepthDuration_HTML.html#73,73,1920,937,1920,1080,9-4-2022,11-28-48,18,depth_duration_stimuli/003492_2014-05-21_15-50-55_094959634447_rgbf000828-resize_1/003492_2014-05-21_15-50-55_094959634447_rgbf000828-resize_1-target.png,250,4.06875,12,2658,248,feet,jsons/v1_VE250_randls_15.json,570193,725634,49,Man
18,169393,DepthScenes,duration_manipulation_targetAtFixation,jsons/v1_VE250_randls_15.json,http://54.235.29.9/FacialAge/BNav_EC2/DepthDuration/v2_depth_duration_MTurk/v2_DepthDuration_HTML.html#73,73,1920,937,1920,1080,9-4-2022,11-28-48,19,depth_duration_stimuli/002568_2014-06-24_13-59-21_094959634447_rgbf000062-resize_4/002568_2014-06-24_13-59-21_094959634447_rgbf000062-resize_4-target.png,250,3.015,8,2975,258,feet,jsons/v1_VE250_randls_15.json,570193,725634,49,Man
19,169393,DepthScenes,duration_manipulation_targetAtFixation,jsons/v1_VE250_randls_15.json,http://54.235.29.9/FacialAge/BNav_EC2/DepthDuration/v2_depth_duration_MTurk/v2_DepthDuration_HTML.html#73,73,1920,937,1920,1080,9-4-2022,11-28-48,20,depth_duration_stimuli/002989_2014-06-15_12-25-03_094959634447_rgbf000150-resize_3/002989_2014-06-15_12-25-03_094959634447_rgbf000150-resize_3-target.png,250,4.1975,22,3074,252,feet,jsons/v1_VE250_randls_15.json,570193,725634,49,Man
20,169393,DepthScenes,duration_manipulation_targetAtFixation,jsons/v1_VE250_randls_15.json,http://54.235.29.9/FacialAge/BNav_EC2/DepthDuration/v2_depth_duration_MTurk/v2_DepthDuration_HTML.html#73,73,1920,937,1920,1080,9-4-2022,11-28-48,21,depth_duration_stimuli/000866_2014-06-09_20-45-42_260595134347_rgbf000139-resize_1/000866_2014-06-09_20-45-42_260595134347_rgbf000139-resize_1-target.png,250,3.2155,7,2559,246,feet,jsons/v1_VE250_randls_15.json,570193,725634,49,Man
21,169393,DepthScenes,duration_manipulation_targetAtFixation,jsons/v1_VE250_randls_15.json,http://54.235.29.9/FacialAge/BNav_EC2/DepthDuration/v2_depth_duration_MTurk/v2_DepthDuration_HTML.html#73,73,1920,937,1920,1080,9-4-2022,11-28-48,22,depth_duration_stimuli/001810_2014-06-26_20-51-35_260595134347_rgbf000040-resize_3/001810_2014-06-26_20-51-35_260595134347_rgbf000040-resize_3-target.png,250,2.2525,4,2545,249,feet,jsons/v1_VE250_randls_15.json,570193,725634,49,Man
22,169393,DepthScenes,duration_manipulation_targetAtFixation,jsons/v1_VE250_randls_15.json,http://54.235.29.9/FacialAge/BNav_EC2/DepthDuration/v2_depth_duration_MTurk/v2_DepthDuration_HTML.html#73,73,1920,937,1920,1080,9-4-2022,11-28-48,23,depth_duration_stimuli/003010_2014-06-15_12-54-35_094959634447_rgbf000112-resize_0/003010_2014-06-15_12-54-35_094959634447_rgbf000112-resize_0-target.png,250,3.1185,14,2759,241,feet,jsons/v1_VE250_randls_15.json,570193,725634,49,Man
23,169393,DepthScenes,duration_manipulation_targetAtFixation,jsons/v1_VE250_randls_15.json,http://54.235.29.9/FacialAge/BNav_EC2/DepthDuration/v2_depth_duration_MTurk/v2_DepthDuration_HTML.html#73,73,1920,937,1920,1080,9-4-2022,11-28-48,24,depth_duration_stimuli/000486_2014-06-09_20-47-20_260595134347_rgbf000143-resize_2/000486_2014-06-09_20-47-20_260595134347_rgbf000143-resize_2-target.png,250,4.8325,9,3168,247,feet,jsons/v1_VE250_randls_15.json,570193,725634,49,Man
24,169393,DepthScenes,duration_manipulation_targetAtFixation,jsons/v1_VE250_randls_15.json,http://54.235.29.9/FacialAge/BNav_EC2/DepthDuration/v2_depth_duration_MTurk/v2_DepthDuration_HTML.html#73,73,1920,937,1920,1080,9-4-2022,11-28-48,25,depth_duration_stimuli/003083_2014-06-15_15-21-03_094959634447_rgbf000063-resize_1/003083_2014-06-15_15-21-03_094959634447_rgbf000063-resize_1-target.png,250,4.1405,14,3516,258,feet,jsons/v1_VE250_randls_15.json,570193,725634,49,Man
25,169393,DepthScenes,duration_manipulation_targetAtFixation,jsons/v1_VE250_randls_15.json,http://54.235.29.9/FacialAge/BNav_EC2/DepthDuration/v2_depth_duration_MTurk/v2_DepthDuration_HTML.html#73,73,1920,937,1920,1080,9-4-2022,11-28-48,26,depth_duration_stimuli/002375_2014-06-28_20-13-44_260595134347_rgbf000032-resize_1/002375_2014-06-28_20-13-44_260595134347_rgbf000032-resize_1-target.png,250,4.0175,6,2650,247,feet,jsons/v1_VE250_randls_15.json,570193,725634,49,Man
26,169393,DepthScenes,duration_manipulation_targetAtFixation,jsons/v1_VE250_randls_15.json,http://54.235.29.9/FacialAge/BNav_EC2/DepthDuration/v2_depth_duration_MTurk/v2_DepthDuration_HTML.html#73,73,1920,937,1920,1080,9-4-2022,11-28-48,27,depth_duration_stimuli/002657_2014-06-13_15-29-54_094959634447_rgbf000150-resize_1/002657_2014-06-13_15-29-54_094959634447_rgbf000150-resize_1-target.png,250,4.919,12,2833,241,feet,jsons/v1_VE250_randls_15.json,570193,725634,49,Man
27,169393,DepthScenes,duration_manipulation_targetAtFixation,jsons/v1_VE250_randls_15.json,http://54.235.29.9/FacialAge/BNav_EC2/DepthDuration/v2_depth_duration_MTurk/v2_DepthDuration_HTML.html#73,73,1920,937,1920,1080,9-4-2022,11-28-48,28,depth_duration_stimuli/001199_2014-06-17_16-03-48_260595134347_rgbf000077-resize_0/001199_2014-06-17_16-03-48_260595134347_rgbf000077-resize_0-target.png,250,3.4375,10,3725,256,feet,jsons/v1_VE250_randls_15.json,570193,725634,49,Man
28,169393,DepthScenes,duration_manipulation_targetAtFixation,jsons/v1_VE250_randls_15.json,http://54.235.29.9/FacialAge/BNav_EC2/DepthDuration/v2_depth_duration_MTurk/v2_DepthDuration_HTML.html#73,73,1920,937,1920,1080,9-4-2022,11-28-48,29,depth_duration_stimuli/000502_2014-06-08_23-02-32_260595134347_rgbf000063-resize_4/000502_2014-06-08_23-02-32_260595134347_rgbf000063-resize_4-target.png,250,2.431,5,2546,248,feet,jsons/v1_VE250_randls_15.json,570193,725634,49,Man
29,169393,DepthScenes,duration_manipulation_targetAtFixation,jsons/v1_VE250_randls_15.json,http://54.235.29.9/FacialAge/BNav_EC2/DepthDuration/v2_depth_duration_MTurk/v2_DepthDuration_HTML.html#73,73,1920,937,1920,1080,9-4-2022,11-28-48,30,depth_duration_stimuli/000375_2014-06-08_11-17-29_260595134347_rgbf000133-resize_2/000375_2014-06-08_11-17-29_260595134347_rgbf000133-resize-original.jpg,250,4.718,0,2746,259,feet,jsons/v1_VE250_randls_15.json,570193,725634,49,Man
30,169393,DepthScenes,duration_manipulation_targetAtFixation,jsons/v1_VE250_randls_15.json,http://54.235.29.9/FacialAge/BNav_EC2/DepthDuration/v2_depth_duration_MTurk/v2_DepthDuration_HTML.html#73,73,1920,937,1920,1080,9-4-2022,11-28-48,31,depth_duration_stimuli/001066_2014-06-08_22-03-20_260595134347_rgbf000066-resize_4/001066_2014-06-08_22-03-20_260595134347_rgbf000066-resize_4-target.png,250,4.2330000000000005,18,3272,256,feet,jsons/v1_VE250_randls_15.json,570193,725634,49,Man
31,169393,DepthScenes,duration_manipulation_targetAtFixation,jsons/v1_VE250_randls_15.json,http://54.235.29.9/FacialAge/BNav_EC2/DepthDuration/v2_depth_duration_MTurk/v2_DepthDuration_HTML.html#73,73,1920,937,1920,1080,9-4-2022,11-28-48,32,depth_duration_stimuli/000742_2014-06-08_18-48-09_260595134347_rgbf000164-resize_4/000742_2014-06-08_18-48-09_260595134347_rgbf000164-resize_4-target.png,250,4.632,11,2642,255,feet,jsons/v1_VE250_randls_15.json,570193,725634,49,Man
32,169393,DepthScenes,duration_manipulation_targetAtFixation,jsons/v1_VE250_randls_15.json,http://54.235.29.9/FacialAge/BNav_EC2/DepthDuration/v2_depth_duration_MTurk/v2_DepthDuration_HTML.html#73,73,1920,937,1920,1080,9-4-2022,11-28-48,33,depth_duration_stimuli/001806_2014-06-26_20-50-20_260595134347_rgbf000091-resize_1/001806_2014-06-26_20-50-20_260595134347_rgbf000091-resize_1-target.png,250,2.7305,5,2754,253,feet,jsons/v1_VE250_randls_15.json,570193,725634,49,Man
33,169393,DepthScenes,duration_manipulation_targetAtFixation,jsons/v1_VE250_randls_15.json,http://54.235.29.9/FacialAge/BNav_EC2/DepthDuration/v2_depth_duration_MTurk/v2_DepthDuration_HTML.html#73,73,1920,937,1920,1080,9-4-2022,11-28-48,34,depth_duration_stimuli/001617_2014-06-20_11-35-32_260595134347_rgbf000066-resize_1/001617_2014-06-20_11-35-32_260595134347_rgbf000066-resize_1-target.png,250,3.7910000000000004,7,3123,266,feet,jsons/v1_VE250_randls_15.json,570193,725634,49,Man
34,169393,DepthScenes,duration_manipulation_targetAtFixation,jsons/v1_VE250_randls_15.json,http://54.235.29.9/FacialAge/BNav_EC2/DepthDuration/v2_depth_duration_MTurk/v2_DepthDuration_HTML.html#73,73,1920,937,1920,1080,9-4-2022,11-28-48,35,depth_duration_stimuli/002763_2014-06-22_19-13-10_094959634447_rgbf000075-resize_4/002763_2014-06-22_19-13-10_094959634447_rgbf000075-resize_4-target.png,250,1.68375,4,3393,257,feet,jsons/v1_VE250_randls_15.json,570193,725634,49,Man
35,169393,DepthScenes,duration_manipulation_targetAtFixation,jsons/v1_VE250_randls_15.json,http://54.235.29.9/FacialAge/BNav_EC2/DepthDuration/v2_depth_duration_MTurk/v2_DepthDuration_HTML.html#73,73,1920,937,1920,1080,9-4-2022,11-28-48,36,depth_duration_stimuli/002209_2014-06-28_18-36-10_260595134347_rgbf000051-resize_1/002209_2014-06-28_18-36-10_260595134347_rgbf000051-resize_1-target.png,250,2.057,4,2592,271,feet,jsons/v1_VE250_randls_15.json,570193,725634,49,Man
36,169393,DepthScenes,duration_manipulation_targetAtFixation,jsons/v1_VE250_randls_15.json,http://54.235.29.9/FacialAge/BNav_EC2/DepthDuration/v2_depth_duration_MTurk/v2_DepthDuration_HTML.html#73,73,1920,937,1920,1080,9-4-2022,11-28-48,37,depth_duration_stimuli/002905_2014-06-03_18-04-43_094959634447_rgbf000151-resize_2/002905_2014-06-03_18-04-43_094959634447_rgbf000151-resize_2-target.png,250,2.0295,4,2618,247,feet,jsons/v1_VE250_randls_15.json,570193,725634,49,Man
37,169393,DepthScenes,duration_manipulation_targetAtFixation,jsons/v1_VE250_randls_15.json,http://54.235.29.9/FacialAge/BNav_EC2/DepthDuration/v2_depth_duration_MTurk/v2_DepthDuration_HTML.html#73,73,1920,937,1920,1080,9-4-2022,11-28-48,38,depth_duration_stimuli/003423_2014-05-21_10-23-26_094959634447_rgbf002665-resize_2/003423_2014-05-21_10-23-26_094959634447_rgbf002665-resize_2-target.png,250,3.2575,14,3148,246,feet,jsons/v1_VE250_randls_15.json,570193,725634,49,Man
38,169393,DepthScenes,duration_manipulation_targetAtFixation,jsons/v1_VE250_randls_15.json,http://54.235.29.9/FacialAge/BNav_EC2/DepthDuration/v2_depth_duration_MTurk/v2_DepthDuration_HTML.html#73,73,1920,937,1920,1080,9-4-2022,11-28-48,39,depth_duration_stimuli/001011_2014-06-08_23-18-54_260595134347_rgbf000044-resize_4/001011_2014-06-08_23-18-54_260595134347_rgbf000044-resize_4-target.png,250,2.4730000000000003,10,3073,230,feet,jsons/v1_VE250_randls_15.json,570193,725634,49,Man
39,169393,DepthScenes,duration_manipulation_targetAtFixation,jsons/v1_VE250_randls_15.json,http://54.235.29.9/FacialAge/BNav_EC2/DepthDuration/v2_depth_duration_MTurk/v2_DepthDuration_HTML.html#73,73,1920,937,1920,1080,9-4-2022,11-28-48,40,depth_duration_stimuli/002875_2014-06-01_15-19-00_094959634447_rgbf000151-resize_1/002875_2014-06-01_15-19-00_094959634447_rgbf000151-resize_1-target.png,250,1.9675,3,2654,262,feet,jsons/v1_VE250_randls_15.json,570193,725634,49,Man
40,169393,DepthScenes,duration_manipulation_targetAtFixation,jsons/v1_VE250_randls_15.json,http://54.235.29.9/FacialAge/BNav_EC2/DepthDuration/v2_depth_duration_MTurk/v2_DepthDuration_HTML.html#73,73,1920,937,1920,1080,9-4-2022,11-28-48,41,depth_duration_stimuli/000414_2014-06-04_19-49-13_260595134347_rgbf000044-resize_0/000414_2014-06-04_19-49-13_260595134347_rgbf000044-resize_0-target.png,250,4.329,15,2940,251,feet,jsons/v1_VE250_randls_15.json,570193,725634,49,Man
41,169393,DepthScenes,duration_manipulation_targetAtFixation,jsons/v1_VE250_randls_15.json,http://54.235.29.9/FacialAge/BNav_EC2/DepthDuration/v2_depth_duration_MTurk/v2_DepthDuration_HTML.html#73,73,1920,937,1920,1080,9-4-2022,11-28-48,42,depth_duration_stimuli/003129_2014-05-12_10-48-10_094959634447_rgbf000100-resize_0/003129_2014-05-12_10-48-10_094959634447_rgbf000100-resize_0-target.png,250,4.9305,11,2471,255,feet,jsons/v1_VE250_randls_15.json,570193,725634,49,Man
42,169393,DepthScenes,duration_manipulation_targetAtFixation,jsons/v1_VE250_randls_15.json,http://54.235.29.9/FacialAge/BNav_EC2/DepthDuration/v2_depth_duration_MTurk/v2_DepthDuration_HTML.html#73,73,1920,937,1920,1080,9-4-2022,11-28-48,43,depth_duration_stimuli/000506_2014-06-08_23-21-00_260595134347_rgbf000070-resize_7/000506_2014-06-08_23-21-00_260595134347_rgbf000070-resize_7-target.png,250,4.0585,13,3081,250,feet,jsons/v1_VE250_randls_15.json,570193,725634,49,Man
43,169393,DepthScenes,duration_manipulation_targetAtFixation,jsons/v1_VE250_randls_15.json,http://54.235.29.9/FacialAge/BNav_EC2/DepthDuration/v2_depth_duration_MTurk/v2_DepthDuration_HTML.html#73,73,1920,937,1920,1080,9-4-2022,11-28-48,44,depth_duration_stimuli/003079_2014-06-15_15-18-20_094959634447_rgbf000152-resize_8/003079_2014-06-15_15-18-20_094959634447_rgbf000152-resize_8-target.png,250,2.8775,10,3176,242,feet,jsons/v1_VE250_randls_15.json,570193,725634,49,Man
44,169393,DepthScenes,duration_manipulation_targetAtFixation,jsons/v1_VE250_randls_15.json,http://54.235.29.9/FacialAge/BNav_EC2/DepthDuration/v2_depth_duration_MTurk/v2_DepthDuration_HTML.html#73,73,1920,937,1920,1080,9-4-2022,11-28-48,45,depth_duration_stimuli/000787_2014-06-08_22-33-53_260595134347_rgbf000175-resize_1/000787_2014-06-08_22-33-53_260595134347_rgbf000175-resize-original.jpg,250,4.784,0,4596,238,feet,jsons/v1_VE250_randls_15.json,570193,725634,49,Man
45,169393,DepthScenes,duration_manipulation_targetAtFixation,jsons/v1_VE250_randls_15.json,http://54.235.29.9/FacialAge/BNav_EC2/DepthDuration/v2_depth_duration_MTurk/v2_DepthDuration_HTML.html#73,73,1920,937,1920,1080,9-4-2022,11-28-48,46,depth_duration_stimuli/001016_2014-06-09_16-16-10_260595134347_rgbf000112-resize_5/001016_2014-06-09_16-16-10_260595134347_rgbf000112-resize_5-target.png,250,1.6565,5,2618,244,feet,jsons/v1_VE250_randls_15.json,570193,725634,49,Man
46,169393,DepthScenes,duration_manipulation_targetAtFixation,jsons/v1_VE250_randls_15.json,http://54.235.29.9/FacialAge/BNav_EC2/DepthDuration/v2_depth_duration_MTurk/v2_DepthDuration_HTML.html#73,73,1920,937,1920,1080,9-4-2022,11-28-48,47,depth_duration_stimuli/002340_2014-06-28_20-05-46_260595134347_rgbf000113-resize_0/002340_2014-06-28_20-05-46_260595134347_rgbf000113-resize_0-target.png,250,2.4735,8,2825,248,feet,jsons/v1_VE250_randls_15.json,570193,725634,49,Man
47,169393,DepthScenes,duration_manipulation_targetAtFixation,jsons/v1_VE250_randls_15.json,http://54.235.29.9/FacialAge/BNav_EC2/DepthDuration/v2_depth_duration_MTurk/v2_DepthDuration_HTML.html#73,73,1920,937,1920,1080,9-4-2022,11-28-48,48,depth_duration_stimuli/000368_2014-06-09_15-53-01_260595134347_rgbf000155-resize_2/000368_2014-06-09_15-53-01_260595134347_rgbf000155-resize_2-target.png,250,2.4859999999999998,3,2695,250,feet,jsons/v1_VE250_randls_15.json,570193,725634,49,Man
48,169393,DepthScenes,duration_manipulation_targetAtFixation,jsons/v1_VE250_randls_15.json,http://54.235.29.9/FacialAge/BNav_EC2/DepthDuration/v2_depth_duration_MTurk/v2_DepthDuration_HTML.html#73,73,1920,937,1920,1080,9-4-2022,11-28-48,49,depth_duration_stimuli/002678_2014-06-13_16-15-32_094959634447_rgbf000151-resize_6/002678_2014-06-13_16-15-32_094959634447_rgbf000151-resize_6-target.png,250,2.1830000000000003,10,3256,264,feet,jsons/v1_VE250_randls_15.json,570193,725634,49,Man
49,169393,DepthScenes,duration_manipulation_targetAtFixation,jsons/v1_VE250_randls_15.json,http://54.235.29.9/FacialAge/BNav_EC2/DepthDuration/v2_depth_duration_MTurk/v2_DepthDuration_HTML.html#73,73,1920,937,1920,1080,9-4-2022,11-28-48,50,depth_duration_stimuli/000917_2014-06-09_22-45-29_260595134347_rgbf000149-resize_3/000917_2014-06-09_22-45-29_260595134347_rgbf000149-resize_3-target.png,250,4.1865,11,2723,255,feet,jsons/v1_VE250_randls_15.json,570193,725634,49,Man
50,169393,DepthScenes,duration_manipulation_targetAtFixation,jsons/v1_VE250_randls_15.json,http://54.235.29.9/FacialAge/BNav_EC2/DepthDuration/v2_depth_duration_MTurk/v2_DepthDuration_HTML.html#73,73,1920,937,1920,1080,9-4-2022,11-28-48,51,depth_duration_stimuli/002323_2014-06-28_20-01-54_260595134347_rgbf000051-resize_4/002323_2014-06-28_20-01-54_260595134347_rgbf000051-resize_4-target.png,250,3.7310000000000003,17,3958,257,feet,jsons/v1_VE250_randls_15.json,570193,725634,49,Man
51,169393,DepthScenes,duration_manipulation_targetAtFixation,jsons/v1_VE250_randls_15.json,http://54.235.29.9/FacialAge/BNav_EC2/DepthDuration/v2_depth_duration_MTurk/v2_DepthDuration_HTML.html#73,73,1920,937,1920,1080,9-4-2022,11-28-48,52,depth_duration_stimuli/001150_2014-06-17_15-27-34_260595134347_rgbf000108-resize_2/001150_2014-06-17_15-27-34_260595134347_rgbf000108-resize_2-target.png,250,4.0325,11,3475,241,feet,jsons/v1_VE250_randls_15.json,570193,725634,49,Man
52,169393,DepthScenes,duration_manipulation_targetAtFixation,jsons/v1_VE250_randls_15.json,http://54.235.29.9/FacialAge/BNav_EC2/DepthDuration/v2_depth_duration_MTurk/v2_DepthDuration_HTML.html#73,73,1920,937,1920,1080,9-4-2022,11-28-48,53,depth_duration_stimuli/000665_2014-06-09_20-42-35_260595134347_rgbf000110-resize_1/000665_2014-06-09_20-42-35_260595134347_rgbf000110-resize_1-target.png,250,3.057,7,3362,240,feet,jsons/v1_VE250_randls_15.json,570193,725634,49,Man
53,169393,DepthScenes,duration_manipulation_targetAtFixation,jsons/v1_VE250_randls_15.json,http://54.235.29.9/FacialAge/BNav_EC2/DepthDuration/v2_depth_duration_MTurk/v2_DepthDuration_HTML.html#73,73,1920,937,1920,1080,9-4-2022,11-28-48,54,depth_duration_stimuli/001244_2014-06-17_16-47-45_260595134347_rgbf000030-resize_4/001244_2014-06-17_16-47-45_260595134347_rgbf000030-resize_4-target.png,250,2.0425,3,2552,241,feet,jsons/v1_VE250_randls_15.json,570193,725634,49,Man
54,169393,DepthScenes,duration_manipulation_targetAtFixation,jsons/v1_VE250_randls_15.json,http://54.235.29.9/FacialAge/BNav_EC2/DepthDuration/v2_depth_duration_MTurk/v2_DepthDuration_HTML.html#73,73,1920,937,1920,1080,9-4-2022,11-28-48,55,depth_duration_stimuli/003495_2014-05-21_16-01-51_094959634447_rgbf000100-resize_3/003495_2014-05-21_16-01-51_094959634447_rgbf000100-resize_3-target.png,250,1.6255,3,3115,254,feet,jsons/v1_VE250_randls_15.json,570193,725634,49,Man
55,169393,DepthScenes,duration_manipulation_targetAtFixation,jsons/v1_VE250_randls_15.json,http://54.235.29.9/FacialAge/BNav_EC2/DepthDuration/v2_depth_duration_MTurk/v2_DepthDuration_HTML.html#73,73,1920,937,1920,1080,9-4-2022,11-28-48,56,depth_duration_stimuli/003534_2014-05-22_15-06-10_094959634447_rgbf000102-resize_4/003534_2014-05-22_15-06-10_094959634447_rgbf000102-resize_4-target.png,250,1.426,2,2862,247,feet,jsons/v1_VE250_randls_15.json,570193,725634,49,Man
56,169393,DepthScenes,duration_manipulation_targetAtFixation,jsons/v1_VE250_randls_15.json,http://54.235.29.9/FacialAge/BNav_EC2/DepthDuration/v2_depth_duration_MTurk/v2_DepthDuration_HTML.html#73,73,1920,937,1920,1080,9-4-2022,11-28-48,57,depth_duration_stimuli/002637_2014-06-24_14-51-13_094959634447_rgbf000066-resize_4/002637_2014-06-24_14-51-13_094959634447_rgbf000066-resize_4-target.png,250,1.9955,5,4703,243,feet,jsons/v1_VE250_randls_15.json,570193,725634,49,Man
57,169393,DepthScenes,duration_manipulation_targetAtFixation,jsons/v1_VE250_randls_15.json,http://54.235.29.9/FacialAge/BNav_EC2/DepthDuration/v2_depth_duration_MTurk/v2_DepthDuration_HTML.html#73,73,1920,937,1920,1080,9-4-2022,11-28-48,58,depth_duration_stimuli/003621_2014-05-23_18-06-08_094959634447_rgbf000101-resize_1/003621_2014-05-23_18-06-08_094959634447_rgbf000101-resize_1-target.png,250,3.9835,14,3537,240,feet,jsons/v1_VE250_randls_15.json,570193,725634,49,Man
58,169393,DepthScenes,duration_manipulation_targetAtFixation,jsons/v1_VE250_randls_15.json,http://54.235.29.9/FacialAge/BNav_EC2/DepthDuration/v2_depth_duration_MTurk/v2_DepthDuration_HTML.html#73,73,1920,937,1920,1080,9-4-2022,11-28-48,59,depth_duration_stimuli/001584_2014-06-20_11-07-43_260595134347_rgbf000002-resize_1/001584_2014-06-20_11-07-43_260595134347_rgbf000002-resize_1-target.png,250,3.53,9,3169,257,feet,jsons/v1_VE250_randls_15.json,570193,725634,49,Man
59,169393,DepthScenes,duration_manipulation_targetAtFixation,jsons/v1_VE250_randls_15.json,http://54.235.29.9/FacialAge/BNav_EC2/DepthDuration/v2_depth_duration_MTurk/v2_DepthDuration_HTML.html#73,73,1920,937,1920,1080,9-4-2022,11-28-48,60,depth_duration_stimuli/000522_2014-06-08_13-35-06_260595134347_rgbf000244-resize_1/000522_2014-06-08_13-35-06_260595134347_rgbf000244-resize_1-target.png,250,2.3715,3,2661,254,feet,jsons/v1_VE250_randls_15.json,570193,725634,49,Man
60,169393,DepthScenes,duration_manipulation_targetAtFixation,jsons/v1_VE250_randls_15.json,http://54.235.29.9/FacialAge/BNav_EC2/DepthDuration/v2_depth_duration_MTurk/v2_DepthDuration_HTML.html#73,73,1920,937,1920,1080,9-4-2022,11-28-48,61,depth_duration_stimuli/002949_2014-06-26_15-57-42_094959634447_rgbf000079-resize_1/002949_2014-06-26_15-57-42_094959634447_rgbf000079-resize_1-target.png,250,1.8915,5,4964,253,feet,jsons/v1_VE250_randls_15.json,570193,725634,49,Man
61,169393,DepthScenes,duration_manipulation_targetAtFixation,jsons/v1_VE250_randls_15.json,http://54.235.29.9/FacialAge/BNav_EC2/DepthDuration/v2_depth_duration_MTurk/v2_DepthDuration_HTML.html#73,73,1920,937,1920,1080,9-4-2022,11-28-48,62,depth_duration_stimuli/001055_2014-06-08_18-45-35_260595134347_rgbf000111-resize_4/001055_2014-06-08_18-45-35_260595134347_rgbf000111-resize_4-target.png,250,2.4290000000000003,9,3239,258,feet,jsons/v1_VE250_randls_15.json,570193,725634,49,Man
62,169393,DepthScenes,duration_manipulation_targetAtFixation,jsons/v1_VE250_randls_15.json,http://54.235.29.9/FacialAge/BNav_EC2/DepthDuration/v2_depth_duration_MTurk/v2_DepthDuration_HTML.html#73,73,1920,937,1920,1080,9-4-2022,11-28-48,63,depth_duration_stimuli/000549_2014-06-08_22-10-24_260595134347_rgbf000247-resize_3/000549_2014-06-08_22-10-24_260595134347_rgbf000247-resize_3-target.png,250,1.841,3,2663,254,feet,jsons/v1_VE250_randls_15.json,570193,725634,49,Man
63,169393,DepthScenes,duration_manipulation_targetAtFixation,jsons/v1_VE250_randls_15.json,http://54.235.29.9/FacialAge/BNav_EC2/DepthDuration/v2_depth_duration_MTurk/v2_DepthDuration_HTML.html#73,73,1920,937,1920,1080,9-4-2022,11-28-48,64,depth_duration_stimuli/001808_2014-06-26_20-50-58_260595134347_rgbf000029-resize_1/001808_2014-06-26_20-50-58_260595134347_rgbf000029-resize_1-target.png,250,4.249,16,3227,245,feet,jsons/v1_VE250_randls_15.json,570193,725634,49,Man
64,169393,DepthScenes,duration_manipulation_targetAtFixation,jsons/v1_VE250_randls_15.json,http://54.235.29.9/FacialAge/BNav_EC2/DepthDuration/v2_depth_duration_MTurk/v2_DepthDuration_HTML.html#73,73,1920,937,1920,1080,9-4-2022,11-28-48,65,depth_duration_stimuli/001815_2014-06-26_20-52-55_260595134347_rgbf000020-resize_0/001815_2014-06-26_20-52-55_260595134347_rgbf000020-resize_0-target.png,250,3.3865,14,3504,241,feet,jsons/v1_VE250_randls_15.json,570193,725634,49,Man
65,169393,DepthScenes,duration_manipulation_targetAtFixation,jsons/v1_VE250_randls_15.json,http://54.235.29.9/FacialAge/BNav_EC2/DepthDuration/v2_depth_duration_MTurk/v2_DepthDuration_HTML.html#73,73,1920,937,1920,1080,9-4-2022,11-28-48,66,depth_duration_stimuli/001222_2014-06-17_16-24-06_260595134347_rgbf000073-resize_0/001222_2014-06-17_16-24-06_260595134347_rgbf000073-resize-original.jpg,250,1.4385,0,2770,245,feet,jsons/v1_VE250_randls_15.json,570193,725634,49,Man
66,169393,DepthScenes,duration_manipulation_targetAtFixation,jsons/v1_VE250_randls_15.json,http://54.235.29.9/FacialAge/BNav_EC2/DepthDuration/v2_depth_duration_MTurk/v2_DepthDuration_HTML.html#73,73,1920,937,1920,1080,9-4-2022,11-28-48,67,depth_duration_stimuli/002153_2014-06-25_21-27-18_260595134347_rgbf000038-resize_5/002153_2014-06-25_21-27-18_260595134347_rgbf000038-resize_5-target.png,250,2.505,5,2634,243,feet,jsons/v1_VE250_randls_15.json,570193,725634,49,Man
67,169393,DepthScenes,duration_manipulation_targetAtFixation,jsons/v1_VE250_randls_15.json,http://54.235.29.9/FacialAge/BNav_EC2/DepthDuration/v2_depth_duration_MTurk/v2_DepthDuration_HTML.html#73,73,1920,937,1920,1080,9-4-2022,11-28-48,68,depth_duration_stimuli/002660_2014-06-13_15-44-18_094959634447_rgbf001878-resize_2/002660_2014-06-13_15-44-18_094959634447_rgbf001878-resize_2-target.png,250,3.576,9,2773,256,feet,jsons/v1_VE250_randls_15.json,570193,725634,49,Man
68,169393,DepthScenes,duration_manipulation_targetAtFixation,jsons/v1_VE250_randls_15.json,http://54.235.29.9/FacialAge/BNav_EC2/DepthDuration/v2_depth_duration_MTurk/v2_DepthDuration_HTML.html#73,73,1920,937,1920,1080,9-4-2022,11-28-48,69,depth_duration_stimuli/002509_2014-06-24_13-19-22_094959634447_rgbf000077-resize_0/002509_2014-06-24_13-19-22_094959634447_rgbf000077-resize_0-target.png,250,1.3065,3,2890,256,feet,jsons/v1_VE250_randls_15.json,570193,725634,49,Man
69,169393,DepthScenes,duration_manipulation_targetAtFixation,jsons/v1_VE250_randls_15.json,http://54.235.29.9/FacialAge/BNav_EC2/DepthDuration/v2_depth_duration_MTurk/v2_DepthDuration_HTML.html#73,73,1920,937,1920,1080,9-4-2022,11-28-48,70,depth_duration_stimuli/003338_2014-05-20_11-01-23_094959634447_rgbf000051-resize_6/003338_2014-05-20_11-01-23_094959634447_rgbf000051-resize_6-target.png,250,1.693,4,2332,253,feet,jsons/v1_VE250_randls_15.json,570193,725634,49,Man
70,169393,DepthScenes,duration_manipulation_targetAtFixation,jsons/v1_VE250_randls_15.json,http://54.235.29.9/FacialAge/BNav_EC2/DepthDuration/v2_depth_duration_MTurk/v2_DepthDuration_HTML.html#73,73,1920,937,1920,1080,9-4-2022,11-28-48,71,depth_duration_stimuli/003070_2014-06-15_14-58-27_094959634447_rgbf000150-resize_3/003070_2014-06-15_14-58-27_094959634447_rgbf000150-resize_3-target.png,250,2.9415,10,2920,244,feet,jsons/v1_VE250_randls_15.json,570193,725634,49,Man
71,169393,DepthScenes,duration_manipulation_targetAtFixation,jsons/v1_VE250_randls_15.json,http://54.235.29.9/FacialAge/BNav_EC2/DepthDuration/v2_depth_duration_MTurk/v2_DepthDuration_HTML.html#73,73,1920,937,1920,1080,9-4-2022,11-28-48,72,depth_duration_stimuli/000943_2014-06-09_19-31-07_260595134347_rgbf000128-resize_1/000943_2014-06-09_19-31-07_260595134347_rgbf000128-resize_1-target.png,250,1.9765,4,2941,259,feet,jsons/v1_VE250_randls_15.json,570193,725634,49,Man
72,169393,DepthScenes,duration_manipulation_targetAtFixation,jsons/v1_VE250_randls_15.json,http://54.235.29.9/FacialAge/BNav_EC2/DepthDuration/v2_depth_duration_MTurk/v2_DepthDuration_HTML.html#73,73,1920,937,1920,1080,9-4-2022,11-28-48,73,depth_duration_stimuli/001555_2014-06-20_17-12-10_260595134347_rgbf000065-resize_4/001555_2014-06-20_17-12-10_260595134347_rgbf000065-resize_4-target.png,250,1.633,3,2408,244,feet,jsons/v1_VE250_randls_15.json,570193,725634,49,Man
73,169393,DepthScenes,duration_manipulation_targetAtFixation,jsons/v1_VE250_randls_15.json,http://54.235.29.9/FacialAge/BNav_EC2/DepthDuration/v2_depth_duration_MTurk/v2_DepthDuration_HTML.html#73,73,1920,937,1920,1080,9-4-2022,11-28-48,74,depth_duration_stimuli/000103_2014-05-14_22-01-17_260595134347_rgbf000152-resize_5/000103_2014-05-14_22-01-17_260595134347_rgbf000152-resize_5-target.png,250,1.993,12,2599,243,feet,jsons/v1_VE250_randls_15.json,570193,725634,49,Man
74,169393,DepthScenes,duration_manipulation_targetAtFixation,jsons/v1_VE250_randls_15.json,http://54.235.29.9/FacialAge/BNav_EC2/DepthDuration/v2_depth_duration_MTurk/v2_DepthDuration_HTML.html#73,73,1920,937,1920,1080,9-4-2022,11-28-48,75,depth_duration_stimuli/000009_2014-05-26_14-32-05_260595134347_rgbf000034-resize_3/000009_2014-05-26_14-32-05_260595134347_rgbf000034-resize_3-target.png,250,3.8715,16,3522,251,feet,jsons/v1_VE250_randls_15.json,570193,725634,49,Man
75,169393,DepthScenes,duration_manipulation_targetAtFixation,jsons/v1_VE250_randls_15.json,http://54.235.29.9/FacialAge/BNav_EC2/DepthDuration/v2_depth_duration_MTurk/v2_DepthDuration_HTML.html#73,73,1920,937,1920,1080,9-4-2022,11-28-48,76,depth_duration_stimuli/001828_2014-06-26_21-40-03_260595134347_rgbf000024-resize_0/001828_2014-06-26_21-40-03_260595134347_rgbf000024-resize_0-target.png,250,4.8260000000000005,13,2779,254,feet,jsons/v1_VE250_randls_15.json,570193,725634,49,Man
76,169393,DepthScenes,duration_manipulation_targetAtFixation,jsons/v1_VE250_randls_15.json,http://54.235.29.9/FacialAge/BNav_EC2/DepthDuration/v2_depth_duration_MTurk/v2_DepthDuration_HTML.html#73,73,1920,937,1920,1080,9-4-2022,11-28-48,77,depth_duration_stimuli/000642_2014-06-08_16-59-25_260595134347_rgbf000098-resize_2/000642_2014-06-08_16-59-25_260595134347_rgbf000098-resize_2-target.png,250,2.8815,7,4380,264,feet,jsons/v1_VE250_randls_15.json,570193,725634,49,Man
77,169393,DepthScenes,duration_manipulation_targetAtFixation,jsons/v1_VE250_randls_15.json,http://54.235.29.9/FacialAge/BNav_EC2/DepthDuration/v2_depth_duration_MTurk/v2_DepthDuration_HTML.html#73,73,1920,937,1920,1080,9-4-2022,11-28-48,78,depth_duration_stimuli/002425_2014-06-28_20-27-29_260595134347_rgbf000031-resize_8/002425_2014-06-28_20-27-29_260595134347_rgbf000031-resize_8-target.png,250,3.8960000000000004,15,3067,246,feet,jsons/v1_VE250_randls_15.json,570193,725634,49,Man
78,169393,DepthScenes,duration_manipulation_targetAtFixation,jsons/v1_VE250_randls_15.json,http://54.235.29.9/FacialAge/BNav_EC2/DepthDuration/v2_depth_duration_MTurk/v2_DepthDuration_HTML.html#73,73,1920,937,1920,1080,9-4-2022,11-28-48,79,depth_duration_stimuli/002630_2014-06-24_14-47-50_094959634447_rgbf000055-resize_1/002630_2014-06-24_14-47-50_094959634447_rgbf000055-resize_1-target.png,250,3.0095,14,2829,246,feet,jsons/v1_VE250_randls_15.json,570193,725634,49,Man
79,169393,DepthScenes,duration_manipulation_targetAtFixation,jsons/v1_VE250_randls_15.json,http://54.235.29.9/FacialAge/BNav_EC2/DepthDuration/v2_depth_duration_MTurk/v2_DepthDuration_HTML.html#73,73,1920,937,1920,1080,9-4-2022,11-28-48,80,depth_duration_stimuli/002758_2014-06-22_19-11-20_094959634447_rgbf000128-resize_1/002758_2014-06-22_19-11-20_094959634447_rgbf000128-resize_1-target.png,250,2.555,5,2715,243,feet,jsons/v1_VE250_randls_15.json,570193,725634,49,Man
80,169393,DepthScenes,duration_manipulation_targetAtFixation,jsons/v1_VE250_randls_15.json,http://54.235.29.9/FacialAge/BNav_EC2/DepthDuration/v2_depth_duration_MTurk/v2_DepthDuration_HTML.html#73,73,1920,937,1920,1080,9-4-2022,11-28-48,81,depth_duration_stimuli/001158_2014-06-17_15-32-16_260595134347_rgbf000138-resize_2/001158_2014-06-17_15-32-16_260595134347_rgbf000138-resize_2-target.png,250,4.5315,11,2869,264,feet,jsons/v1_VE250_randls_15.json,570193,725634,49,Man
81,169393,DepthScenes,duration_manipulation_targetAtFixation,jsons/v1_VE250_randls_15.json,http://54.235.29.9/FacialAge/BNav_EC2/DepthDuration/v2_depth_duration_MTurk/v2_DepthDuration_HTML.html#73,73,1920,937,1920,1080,9-4-2022,11-28-48,82,depth_duration_stimuli/000556_2014-06-09_22-42-56_260595134347_rgbf000214-resize_1/000556_2014-06-09_22-42-56_260595134347_rgbf000214-resize_1-target.png,250,4.8415,14,3221,257,feet,jsons/v1_VE250_randls_15.json,570193,725634,49,Man
82,169393,DepthScenes,duration_manipulation_targetAtFixation,jsons/v1_VE250_randls_15.json,http://54.235.29.9/FacialAge/BNav_EC2/DepthDuration/v2_depth_duration_MTurk/v2_DepthDuration_HTML.html#73,73,1920,937,1920,1080,9-4-2022,11-28-48,83,depth_duration_stimuli/001167_2014-06-17_15-38-07_260595134347_rgbf000108-resize_0/001167_2014-06-17_15-38-07_260595134347_rgbf000108-resize_0-target.png,250,1.8505,5,2797,247,feet,jsons/v1_VE250_randls_15.json,570193,725634,49,Man
83,169393,DepthScenes,duration_manipulation_targetAtFixation,jsons/v1_VE250_randls_15.json,http://54.235.29.9/FacialAge/BNav_EC2/DepthDuration/v2_depth_duration_MTurk/v2_DepthDuration_HTML.html#73,73,1920,937,1920,1080,9-4-2022,11-28-48,84,depth_duration_stimuli/003587_2014-05-23_16-48-02_094959634447_rgbf002384-resize_2/003587_2014-05-23_16-48-02_094959634447_rgbf002384-resize_2-target.png,250,1.357,3,2306,251,feet,jsons/v1_VE250_randls_15.json,570193,725634,49,Man
84,169393,DepthScenes,duration_manipulation_targetAtFixation,jsons/v1_VE250_randls_15.json,http://54.235.29.9/FacialAge/BNav_EC2/DepthDuration/v2_depth_duration_MTurk/v2_DepthDuration_HTML.html#73,73,1920,937,1920,1080,9-4-2022,11-28-48,85,depth_duration_stimuli/002725_2014-06-22_11-47-51_094959634447_rgbf000070-resize_1/002725_2014-06-22_11-47-51_094959634447_rgbf000070-resize_1-target.png,250,2.195,6,2589,244,feet,jsons/v1_VE250_randls_15.json,570193,725634,49,Man
85,169393,DepthScenes,duration_manipulation_targetAtFixation,jsons/v1_VE250_randls_15.json,http://54.235.29.9/FacialAge/BNav_EC2/DepthDuration/v2_depth_duration_MTurk/v2_DepthDuration_HTML.html#73,73,1920,937,1920,1080,9-4-2022,11-28-48,86,depth_duration_stimuli/002344_2014-06-28_20-06-29_260595134347_rgbf000030-resize_1/002344_2014-06-28_20-06-29_260595134347_rgbf000030-resize_1-target.png,250,1.5795,2,2489,256,feet,jsons/v1_VE250_randls_15.json,570193,725634,49,Man
86,169393,DepthScenes,duration_manipulation_targetAtFixation,jsons/v1_VE250_randls_15.json,http://54.235.29.9/FacialAge/BNav_EC2/DepthDuration/v2_depth_duration_MTurk/v2_DepthDuration_HTML.html#73,73,1920,937,1920,1080,9-4-2022,11-28-48,87,depth_duration_stimuli/000736_2014-06-08_18-24-15_260595134347_rgbf000206-resize_3/000736_2014-06-08_18-24-15_260595134347_rgbf000206-resize_3-target.png,250,3.515,8,2965,243,feet,jsons/v1_VE250_randls_15.json,570193,725634,49,Man
87,169393,DepthScenes,duration_manipulation_targetAtFixation,jsons/v1_VE250_randls_15.json,http://54.235.29.9/FacialAge/BNav_EC2/DepthDuration/v2_depth_duration_MTurk/v2_DepthDuration_HTML.html#73,73,1920,937,1920,1080,9-4-2022,11-28-48,88,depth_duration_stimuli/000137_2014-05-20_17-04-49_260595134347_rgbf000120-resize_1/000137_2014-05-20_17-04-49_260595134347_rgbf000120-resize_1-target.png,250,3.786,11,2444,258,feet,jsons/v1_VE250_randls_15.json,570193,725634,49,Man
88,169393,DepthScenes,duration_manipulation_targetAtFixation,jsons/v1_VE250_randls_15.json,http://54.235.29.9/FacialAge/BNav_EC2/DepthDuration/v2_depth_duration_MTurk/v2_DepthDuration_HTML.html#73,73,1920,937,1920,1080,9-4-2022,11-28-48,89,depth_duration_stimuli/000436_2014-06-09_22-25-11_260595134347_rgbf000137-resize_1/000436_2014-06-09_22-25-11_260595134347_rgbf000137-resize_1-target.png,250,4.0705,17,3128,253,feet,jsons/v1_VE250_randls_15.json,570193,725634,49,Man
89,169393,DepthScenes,duration_manipulation_targetAtFixation,jsons/v1_VE250_randls_15.json,http://54.235.29.9/FacialAge/BNav_EC2/DepthDuration/v2_depth_duration_MTurk/v2_DepthDuration_HTML.html#73,73,1920,937,1920,1080,9-4-2022,11-28-48,90,depth_duration_stimuli/002444_2014-06-28_20-32-08_260595134347_rgbf000027-resize_0/002444_2014-06-28_20-32-08_260595134347_rgbf000027-resize_0-target.png,250,4.388999999999999,15,3152,243,feet,jsons/v1_VE250_randls_15.json,570193,725634,49,Man
90,169393,DepthScenes,duration_manipulation_targetAtFixation,jsons/v1_VE250_randls_15.json,http://54.235.29.9/FacialAge/BNav_EC2/DepthDuration/v2_depth_duration_MTurk/v2_DepthDuration_HTML.html#73,73,1920,937,1920,1080,9-4-2022,11-28-48,91,depth_duration_stimuli/002600_2014-06-24_14-27-04_094959634447_rgbf000074-resize_2/002600_2014-06-24_14-27-04_094959634447_rgbf000074-resize_2-target.png,250,2.7575,10,3442,256,feet,jsons/v1_VE250_randls_15.json,570193,725634,49,Man
91,169393,DepthScenes,duration_manipulation_targetAtFixation,jsons/v1_VE250_randls_15.json,http://54.235.29.9/FacialAge/BNav_EC2/DepthDuration/v2_depth_duration_MTurk/v2_DepthDuration_HTML.html#73,73,1920,937,1920,1080,9-4-2022,11-28-48,92,depth_duration_stimuli/003228_2014-05-14_13-42-35_094959634447_rgbf000101-resize_1/003228_2014-05-14_13-42-35_094959634447_rgbf000101-resize_1-target.png,250,1.9680000000000002,3,2782,238,feet,jsons/v1_VE250_randls_15.json,570193,725634,49,Man
92,169393,DepthScenes,duration_manipulation_targetAtFixation,jsons/v1_VE250_randls_15.json,http://54.235.29.9/FacialAge/BNav_EC2/DepthDuration/v2_depth_duration_MTurk/v2_DepthDuration_HTML.html#73,73,1920,937,1920,1080,9-4-2022,11-28-48,93,depth_duration_stimuli/000682_2014-06-08_23-14-58_260595134347_rgbf000041-resize_5/000682_2014-06-08_23-14-58_260595134347_rgbf000041-resize_5-target.png,250,2.7239999999999998,7,2754,254,feet,jsons/v1_VE250_randls_15.json,570193,725634,49,Man
93,169393,DepthScenes,duration_manipulation_targetAtFixation,jsons/v1_VE250_randls_15.json,http://54.235.29.9/FacialAge/BNav_EC2/DepthDuration/v2_depth_duration_MTurk/v2_DepthDuration_HTML.html#73,73,1920,937,1920,1080,9-4-2022,11-28-48,94,depth_duration_stimuli/001650_2014-06-20_12-09-00_260595134347_rgbf000087-resize_3/001650_2014-06-20_12-09-00_260595134347_rgbf000087-resize_3-target.png,250,1.9505,3,2601,247,feet,jsons/v1_VE250_randls_15.json,570193,725634,49,Man
94,169393,DepthScenes,duration_manipulation_targetAtFixation,jsons/v1_VE250_randls_15.json,http://54.235.29.9/FacialAge/BNav_EC2/DepthDuration/v2_depth_duration_MTurk/v2_DepthDuration_HTML.html#73,73,1920,937,1920,1080,9-4-2022,11-28-48,95,depth_duration_stimuli/002445_2014-06-28_20-32-16_260595134347_rgbf000029-resize_4/002445_2014-06-28_20-32-16_260595134347_rgbf000029-resize_4-target.png,250,2.5315,8,3493,253,feet,jsons/v1_VE250_randls_15.json,570193,725634,49,Man
95,169393,DepthScenes,duration_manipulation_targetAtFixation,jsons/v1_VE250_randls_15.json,http://54.235.29.9/FacialAge/BNav_EC2/DepthDuration/v2_depth_duration_MTurk/v2_DepthDuration_HTML.html#73,73,1920,937,1920,1080,9-4-2022,11-28-48,96,depth_duration_stimuli/000780_2014-06-08_22-28-29_260595134347_rgbf000126-resize_1/000780_2014-06-08_22-28-29_260595134347_rgbf000126-resize_1-target.png,250,3.3825,12,3040,263,feet,jsons/v1_VE250_randls_15.json,570193,725634,49,Man
96,169393,DepthScenes,duration_manipulation_targetAtFixation,jsons/v1_VE250_randls_15.json,http://54.235.29.9/FacialAge/BNav_EC2/DepthDuration/v2_depth_duration_MTurk/v2_DepthDuration_HTML.html#73,73,1920,937,1920,1080,9-4-2022,11-28-48,97,depth_duration_stimuli/000788_2014-06-08_22-34-36_260595134347_rgbf000131-resize_1/000788_2014-06-08_22-34-36_260595134347_rgbf000131-resize_1-target.png,250,3.359,10,2908,249,feet,jsons/v1_VE250_randls_15.json,570193,725634,49,Man
97,169393,DepthScenes,duration_manipulation_targetAtFixation,jsons/v1_VE250_randls_15.json,http://54.235.29.9/FacialAge/BNav_EC2/DepthDuration/v2_depth_duration_MTurk/v2_DepthDuration_HTML.html#73,73,1920,937,1920,1080,9-4-2022,11-28-48,98,depth_duration_stimuli/001235_2014-06-17_16-37-36_260595134347_rgbf000084-resize_4/001235_2014-06-17_16-37-36_260595134347_rgbf000084-resize_4-target.png,250,3.6605,8,2989,258,feet,jsons/v1_VE250_randls_15.json,570193,725634,49,Man
98,169393,DepthScenes,duration_manipulation_targetAtFixation,jsons/v1_VE250_randls_15.json,http://54.235.29.9/FacialAge/BNav_EC2/DepthDuration/v2_depth_duration_MTurk/v2_DepthDuration_HTML.html#73,73,1920,937,1920,1080,9-4-2022,11-28-48,99,depth_duration_stimuli/001540_2014-06-20_17-01-05_260595134347_rgbf000086-resize_2/001540_2014-06-20_17-01-05_260595134347_rgbf000086-resize-original.jpg,250,1.459,0,2456,249,feet,jsons/v1_VE250_randls_15.json,570193,725634,49,Man
99,169393,DepthScenes,duration_manipulation_targetAtFixation,jsons/v1_VE250_randls_15.json,http://54.235.29.9/FacialAge/BNav_EC2/DepthDuration/v2_depth_duration_MTurk/v2_DepthDuration_HTML.html#73,73,1920,937,1920,1080,9-4-2022,11-28-48,100,depth_duration_stimuli/000692_2014-06-08_13-09-42_260595134347_rgbf000199-resize_2/000692_2014-06-08_13-09-42_260595134347_rgbf000199-resize_2-target.png,250,3.661,22,2882,248,feet,jsons/v1_VE250_randls_15.json,570193,725634,49,Man
100,169393,DepthScenes,duration_manipulation_targetAtFixation,jsons/v1_VE250_randls_15.json,http://54.235.29.9/FacialAge/BNav_EC2/DepthDuration/v2_depth_duration_MTurk/v2_DepthDuration_HTML.html#73,73,1920,937,1920,1080,9-4-2022,11-28-48,101,depth_duration_stimuli/001094_2014-06-15_17-36-00_260595134347_rgbf000205-resize_0/001094_2014-06-15_17-36-00_260595134347_rgbf000205-resize_0-target.png,250,4.2175,16,2891,247,feet,jsons/v1_VE250_randls_15.json,570193,725634,49,Man
101,169393,DepthScenes,duration_manipulation_targetAtFixation,jsons/v1_VE250_randls_15.json,http://54.235.29.9/FacialAge/BNav_EC2/DepthDuration/v2_depth_duration_MTurk/v2_DepthDuration_HTML.html#73,73,1920,937,1920,1080,9-4-2022,11-28-48,102,depth_duration_stimuli/000810_2014-06-08_17-20-01_260595134347_rgbf000105-resize_0/000810_2014-06-08_17-20-01_260595134347_rgbf000105-resize_0-target.png,250,1.4865,5,2587,245,feet,jsons/v1_VE250_randls_15.json,570193,725634,49,Man
102,169393,DepthScenes,duration_manipulation_targetAtFixation,jsons/v1_VE250_randls_15.json,http://54.235.29.9/FacialAge/BNav_EC2/DepthDuration/v2_depth_duration_MTurk/v2_DepthDuration_HTML.html#73,73,1920,937,1920,1080,9-4-2022,11-28-48,103,depth_duration_stimuli/001214_2014-06-17_16-13-55_260595134347_rgbf000111-resize_0/001214_2014-06-17_16-13-55_260595134347_rgbf000111-resize_0-target.png,250,2.6505,5,3805,253,feet,jsons/v1_VE250_randls_15.json,570193,725634,49,Man
103,169393,DepthScenes,duration_manipulation_targetAtFixation,jsons/v1_VE250_randls_15.json,http://54.235.29.9/FacialAge/BNav_EC2/DepthDuration/v2_depth_duration_MTurk/v2_DepthDuration_HTML.html#73,73,1920,937,1920,1080,9-4-2022,11-28-48,104,depth_duration_stimuli/003292_2014-05-14_21-53-49_094959634447_rgbf000100-resize_2/003292_2014-05-14_21-53-49_094959634447_rgbf000100-resize_2-target.png,250,3.4815,9,2852,250,feet,jsons/v1_VE250_randls_15.json,570193,725634,49,Man
104,169393,DepthScenes,duration_manipulation_targetAtFixation,jsons/v1_VE250_randls_15.json,http://54.235.29.9/FacialAge/BNav_EC2/DepthDuration/v2_depth_duration_MTurk/v2_DepthDuration_HTML.html#73,73,1920,937,1920,1080,9-4-2022,11-28-48,105,depth_duration_stimuli/002639_2014-06-24_14-51-37_094959634447_rgbf000074-resize_4/002639_2014-06-24_14-51-37_094959634447_rgbf000074-resize_4-target.png,250,4.0375,9,4219,249,feet,jsons/v1_VE250_randls_15.json,570193,725634,49,Man
105,169393,DepthScenes,duration_manipulation_targetAtFixation,jsons/v1_VE250_randls_15.json,http://54.235.29.9/FacialAge/BNav_EC2/DepthDuration/v2_depth_duration_MTurk/v2_DepthDuration_HTML.html#73,73,1920,937,1920,1080,9-4-2022,11-28-48,106,depth_duration_stimuli/002118_2014-06-25_20-32-08_260595134347_rgbf000078-resize_1/002118_2014-06-25_20-32-08_260595134347_rgbf000078-resize_1-target.png,250,2.6460000000000004,7,3011,256,feet,jsons/v1_VE250_randls_15.json,570193,725634,49,Man
106,169393,DepthScenes,duration_manipulation_targetAtFixation,jsons/v1_VE250_randls_15.json,http://54.235.29.9/FacialAge/BNav_EC2/DepthDuration/v2_depth_duration_MTurk/v2_DepthDuration_HTML.html#73,73,1920,937,1920,1080,9-4-2022,11-28-48,107,depth_duration_stimuli/001516_2014-06-20_16-25-09_260595134347_rgbf000076-resize_2/001516_2014-06-20_16-25-09_260595134347_rgbf000076-resize_2-target.png,250,1.7445,5,2508,244,feet,jsons/v1_VE250_randls_15.json,570193,725634,49,Man
107,169393,DepthScenes,duration_manipulation_targetAtFixation,jsons/v1_VE250_randls_15.json,http://54.235.29.9/FacialAge/BNav_EC2/DepthDuration/v2_depth_duration_MTurk/v2_DepthDuration_HTML.html#73,73,1920,937,1920,1080,9-4-2022,11-28-48,108,depth_duration_stimuli/000469_2014-06-09_19-42-10_260595134347_rgbf000081-resize_1/000469_2014-06-09_19-42-10_260595134347_rgbf000081-resize_1-target.png,250,1.652,3,2744,247,feet,jsons/v1_VE250_randls_15.json,570193,725634,49,Man
108,169393,DepthScenes,duration_manipulation_targetAtFixation,jsons/v1_VE250_randls_15.json,http://54.235.29.9/FacialAge/BNav_EC2/DepthDuration/v2_depth_duration_MTurk/v2_DepthDuration_HTML.html#73,73,1920,937,1920,1080,9-4-2022,11-28-48,109,depth_duration_stimuli/000483_2014-06-09_20-41-45_260595134347_rgbf000116-resize_4/000483_2014-06-09_20-41-45_260595134347_rgbf000116-resize_4-target.png,250,1.337,2,2274,249,feet,jsons/v1_VE250_randls_15.json,570193,725634,49,Man
109,169393,DepthScenes,duration_manipulation_targetAtFixation,jsons/v1_VE250_randls_15.json,http://54.235.29.9/FacialAge/BNav_EC2/DepthDuration/v2_depth_duration_MTurk/v2_DepthDuration_HTML.html#73,73,1920,937,1920,1080,9-4-2022,11-28-48,110,depth_duration_stimuli/001056_2014-06-08_18-46-44_260595134347_rgbf000068-resize_0/001056_2014-06-08_18-46-44_260595134347_rgbf000068-resize_0-target.png,250,2.6625,11,3086,253,feet,jsons/v1_VE250_randls_15.json,570193,725634,49,Man
110,169393,DepthScenes,duration_manipulation_targetAtFixation,jsons/v1_VE250_randls_15.json,http://54.235.29.9/FacialAge/BNav_EC2/DepthDuration/v2_depth_duration_MTurk/v2_DepthDuration_HTML.html#73,73,1920,937,1920,1080,9-4-2022,11-28-48,111,depth_duration_stimuli/002199_2014-06-28_18-33-56_260595134347_rgbf000074-resize_0/002199_2014-06-28_18-33-56_260595134347_rgbf000074-resize_0-target.png,250,1.996,4,2524,260,feet,jsons/v1_VE250_randls_15.json,570193,725634,49,Man
111,169393,DepthScenes,duration_manipulation_targetAtFixation,jsons/v1_VE250_randls_15.json,http://54.235.29.9/FacialAge/BNav_EC2/DepthDuration/v2_depth_duration_MTurk/v2_DepthDuration_HTML.html#73,73,1920,937,1920,1080,9-4-2022,11-28-48,112,depth_duration_stimuli/000470_2014-06-09_19-42-40_260595134347_rgbf000094-resize_1/000470_2014-06-09_19-42-40_260595134347_rgbf000094-resize_1-target.png,250,1.831,5,2353,257,feet,jsons/v1_VE250_randls_15.json,570193,725634,49,Man
112,169393,DepthScenes,duration_manipulation_targetAtFixation,jsons/v1_VE250_randls_15.json,http://54.235.29.9/FacialAge/BNav_EC2/DepthDuration/v2_depth_duration_MTurk/v2_DepthDuration_HTML.html#73,73,1920,937,1920,1080,9-4-2022,11-28-48,113,depth_duration_stimuli/000109_2014-05-14_23-41-52_260595134347_rgbf000035-resize_9/000109_2014-05-14_23-41-52_260595134347_rgbf000035-resize_9-target.png,250,1.3545,2,2282,260,feet,jsons/v1_VE250_randls_15.json,570193,725634,49,Man
113,169393,DepthScenes,duration_manipulation_targetAtFixation,jsons/v1_VE250_randls_15.json,http://54.235.29.9/FacialAge/BNav_EC2/DepthDuration/v2_depth_duration_MTurk/v2_DepthDuration_HTML.html#73,73,1920,937,1920,1080,9-4-2022,11-28-48,114,depth_duration_stimuli/001059_2014-06-08_21-53-27_260595134347_rgbf000061-resize_4/001059_2014-06-08_21-53-27_260595134347_rgbf000061-resize_4-target.png,250,2.4185,9,2980,250,feet,jsons/v1_VE250_randls_15.json,570193,725634,49,Man
114,169393,DepthScenes,duration_manipulation_targetAtFixation,jsons/v1_VE250_randls_15.json,http://54.235.29.9/FacialAge/BNav_EC2/DepthDuration/v2_depth_duration_MTurk/v2_DepthDuration_HTML.html#73,73,1920,937,1920,1080,9-4-2022,11-28-48,115,depth_duration_stimuli/001032_2014-06-08_13-23-17_260595134347_rgbf000021-resize_3/001032_2014-06-08_13-23-17_260595134347_rgbf000021-resize_3-target.png,250,3.2725,7,3270,253,feet,jsons/v1_VE250_randls_15.json,570193,725634,49,Man
115,169393,DepthScenes,duration_manipulation_targetAtFixation,jsons/v1_VE250_randls_15.json,http://54.235.29.9/FacialAge/BNav_EC2/DepthDuration/v2_depth_duration_MTurk/v2_DepthDuration_HTML.html#73,73,1920,937,1920,1080,9-4-2022,11-28-48,116,depth_duration_stimuli/001170_2014-06-17_15-43-44_260595134347_rgbf000096-resize_6/001170_2014-06-17_15-43-44_260595134347_rgbf000096-resize-original.jpg,250,1.1909999999999998,0,2735,247,feet,jsons/v1_VE250_randls_15.json,570193,725634,49,Man
116,169393,DepthScenes,duration_manipulation_targetAtFixation,jsons/v1_VE250_randls_15.json,http://54.235.29.9/FacialAge/BNav_EC2/DepthDuration/v2_depth_duration_MTurk/v2_DepthDuration_HTML.html#73,73,1920,937,1920,1080,9-4-2022,11-28-48,117,depth_duration_stimuli/002549_2014-06-24_13-41-39_094959634447_rgbf000022-resize_3/002549_2014-06-24_13-41-39_094959634447_rgbf000022-resize_3-target.png,250,1.476,4,2777,260,feet,jsons/v1_VE250_randls_15.json,570193,725634,49,Man
117,169393,DepthScenes,duration_manipulation_targetAtFixation,jsons/v1_VE250_randls_15.json,http://54.235.29.9/FacialAge/BNav_EC2/DepthDuration/v2_depth_duration_MTurk/v2_DepthDuration_HTML.html#73,73,1920,937,1920,1080,9-4-2022,11-28-48,118,depth_duration_stimuli/002750_2014-06-22_19-08-03_094959634447_rgbf000094-resize_4/002750_2014-06-22_19-08-03_094959634447_rgbf000094-resize_4-target.png,250,2.354,10,3201,256,feet,jsons/v1_VE250_randls_15.json,570193,725634,49,Man
118,169393,DepthScenes,duration_manipulation_targetAtFixation,jsons/v1_VE250_randls_15.json,http://54.235.29.9/FacialAge/BNav_EC2/DepthDuration/v2_depth_duration_MTurk/v2_DepthDuration_HTML.html#73,73,1920,937,1920,1080,9-4-2022,11-28-48,119,depth_duration_stimuli/001092_2014-06-15_17-34-58_260595134347_rgbf000171-resize_3/001092_2014-06-15_17-34-58_260595134347_rgbf000171-resize_3-target.png,250,2.6935,6,2495,252,feet,jsons/v1_VE250_randls_15.json,570193,725634,49,Man
119,169393,DepthScenes,duration_manipulation_targetAtFixation,jsons/v1_VE250_randls_15.json,http://54.235.29.9/FacialAge/BNav_EC2/DepthDuration/v2_depth_duration_MTurk/v2_DepthDuration_HTML.html#73,73,1920,937,1920,1080,9-4-2022,11-28-48,120,depth_duration_stimuli/002545_2014-06-24_13-38-53_094959634447_rgbf000080-resize_4/002545_2014-06-24_13-38-53_094959634447_rgbf000080-resize_4-target.png,250,1.9205,9,2555,240,feet,jsons/v1_VE250_randls_15.json,570193,725634,49,Man
120,169393,DepthScenes,duration_manipulation_targetAtFixation,jsons/v1_VE250_randls_15.json,http://54.235.29.9/FacialAge/BNav_EC2/DepthDuration/v2_depth_duration_MTurk/v2_DepthDuration_HTML.html#73,73,1920,937,1920,1080,9-4-2022,11-28-48,121,depth_duration_stimuli/001164_2014-06-17_15-35-46_260595134347_rgbf000085-resize_3/001164_2014-06-17_15-35-46_260595134347_rgbf000085-resize_3-target.png,250,2.354,8,2361,249,feet,jsons/v1_VE250_randls_15.json,570193,725634,49,Man
121,169393,DepthScenes,duration_manipulation_targetAtFixation,jsons/v1_VE250_randls_15.json,http://54.235.29.9/FacialAge/BNav_EC2/DepthDuration/v2_depth_duration_MTurk/v2_DepthDuration_HTML.html#73,73,1920,937,1920,1080,9-4-2022,11-28-48,122,depth_duration_stimuli/001136_2014-06-17_15-19-41_260595134347_rgbf000076-resize_3/001136_2014-06-17_15-19-41_260595134347_rgbf000076-resize_3-target.png,250,1.8655,7,2807,253,feet,jsons/v1_VE250_randls_15.json,570193,725634,49,Man
122,169393,DepthScenes,duration_manipulation_targetAtFixation,jsons/v1_VE250_randls_15.json,http://54.235.29.9/FacialAge/BNav_EC2/DepthDuration/v2_depth_duration_MTurk/v2_DepthDuration_HTML.html#73,73,1920,937,1920,1080,9-4-2022,11-28-48,123,depth_duration_stimuli/002043_2014-06-24_20-29-38_260595134347_rgbf000039-resize_4/002043_2014-06-24_20-29-38_260595134347_rgbf000039-resize_4-target.png,250,2.8435,11,2266,238,feet,jsons/v1_VE250_randls_15.json,570193,725634,49,Man
123,169393,DepthScenes,duration_manipulation_targetAtFixation,jsons/v1_VE250_randls_15.json,http://54.235.29.9/FacialAge/BNav_EC2/DepthDuration/v2_depth_duration_MTurk/v2_DepthDuration_HTML.html#73,73,1920,937,1920,1080,9-4-2022,11-28-48,124,depth_duration_stimuli/003048_2014-06-15_13-49-43_094959634447_rgbf000150-resize_1/003048_2014-06-15_13-49-43_094959634447_rgbf000150-resize_1-target.png,250,4.0035,16,2738,244,feet,jsons/v1_VE250_randls_15.json,570193,725634,49,Man
124,169393,DepthScenes,duration_manipulation_targetAtFixation,jsons/v1_VE250_randls_15.json,http://54.235.29.9/FacialAge/BNav_EC2/DepthDuration/v2_depth_duration_MTurk/v2_DepthDuration_HTML.html#73,73,1920,937,1920,1080,9-4-2022,11-28-48,125,depth_duration_stimuli/002039_2014-06-24_20-22-38_260595134347_rgbf000084-resize_1/002039_2014-06-24_20-22-38_260595134347_rgbf000084-resize_1-target.png,250,4.408,14,2925,234,feet,jsons/v1_VE250_randls_15.json,570193,725634,49,Man
125,169393,DepthScenes,duration_manipulation_targetAtFixation,jsons/v1_VE250_randls_15.json,http://54.235.29.9/FacialAge/BNav_EC2/DepthDuration/v2_depth_duration_MTurk/v2_DepthDuration_HTML.html#73,73,1920,937,1920,1080,9-4-2022,11-28-48,126,depth_duration_stimuli/002103_2014-06-25_20-00-40_260595134347_rgbf000049-resize_0/002103_2014-06-25_20-00-40_260595134347_rgbf000049-resize_0-target.png,250,4.105,13,3815,256,feet,jsons/v1_VE250_randls_15.json,570193,725634,49,Man
126,169393,DepthScenes,duration_manipulation_targetAtFixation,jsons/v1_VE250_randls_15.json,http://54.235.29.9/FacialAge/BNav_EC2/DepthDuration/v2_depth_duration_MTurk/v2_DepthDuration_HTML.html#73,73,1920,937,1920,1080,9-4-2022,11-28-48,127,depth_duration_stimuli/002213_2014-06-28_18-37-58_260595134347_rgbf000055-resize_1/002213_2014-06-28_18-37-58_260595134347_rgbf000055-resize_1-target.png,250,3.62,18,2936,250,feet,jsons/v1_VE250_randls_15.json,570193,725634,49,Man
127,169393,DepthScenes,duration_manipulation_targetAtFixation,jsons/v1_VE250_randls_15.json,http://54.235.29.9/FacialAge/BNav_EC2/DepthDuration/v2_depth_duration_MTurk/v2_DepthDuration_HTML.html#73,73,1920,937,1920,1080,9-4-2022,11-28-48,128,depth_duration_stimuli/000691_2014-06-08_13-08-50_260595134347_rgbf000132-resize_3/000691_2014-06-08_13-08-50_260595134347_rgbf000132-resize_3-target.png,250,4.1530000000000005,14,2701,256,feet,jsons/v1_VE250_randls_15.json,570193,725634,49,Man
128,169393,DepthScenes,duration_manipulation_targetAtFixation,jsons/v1_VE250_randls_15.json,http://54.235.29.9/FacialAge/BNav_EC2/DepthDuration/v2_depth_duration_MTurk/v2_DepthDuration_HTML.html#73,73,1920,937,1920,1080,9-4-2022,11-28-48,129,depth_duration_stimuli/000493_2014-06-09_21-01-18_260595134347_rgbf000196-resize_3/000493_2014-06-09_21-01-18_260595134347_rgbf000196-resize_3-target.png,250,3.44,11,2310,249,feet,jsons/v1_VE250_randls_15.json,570193,725634,49,Man
129,169393,DepthScenes,duration_manipulation_targetAtFixation,jsons/v1_VE250_randls_15.json,http://54.235.29.9/FacialAge/BNav_EC2/DepthDuration/v2_depth_duration_MTurk/v2_DepthDuration_HTML.html#73,73,1920,937,1920,1080,9-4-2022,11-28-48,130,depth_duration_stimuli/000191_2014-05-12_17-07-38_260595134347_rgbf000199-resize_0/000191_2014-05-12_17-07-38_260595134347_rgbf000199-resize_0-target.png,250,3.7995,16,2910,251,feet,jsons/v1_VE250_randls_15.json,570193,725634,49,Man
130,169393,DepthScenes,duration_manipulation_targetAtFixation,jsons/v1_VE250_randls_15.json,http://54.235.29.9/FacialAge/BNav_EC2/DepthDuration/v2_depth_duration_MTurk/v2_DepthDuration_HTML.html#73,73,1920,937,1920,1080,9-4-2022,11-28-48,131,depth_duration_stimuli/000447_2014-06-08_16-15-46_260595134347_rgbf000130-resize_1/000447_2014-06-08_16-15-46_260595134347_rgbf000130-resize_1-target.png,250,4.479,20,3239,258,feet,jsons/v1_VE250_randls_15.json,570193,725634,49,Man
131,169393,DepthScenes,duration_manipulation_targetAtFixation,jsons/v1_VE250_randls_15.json,http://54.235.29.9/FacialAge/BNav_EC2/DepthDuration/v2_depth_duration_MTurk/v2_DepthDuration_HTML.html#73,73,1920,937,1920,1080,9-4-2022,11-28-48,132,depth_duration_stimuli/001447_2014-06-19_17-00-32_260595134347_rgbf000082-resize_5/001447_2014-06-19_17-00-32_260595134347_rgbf000082-resize_5-target.png,250,4.13775,8,2557,257,feet,jsons/v1_VE250_randls_15.json,570193,725634,49,Man
132,169393,DepthScenes,duration_manipulation_targetAtFixation,jsons/v1_VE250_randls_15.json,http://54.235.29.9/FacialAge/BNav_EC2/DepthDuration/v2_depth_duration_MTurk/v2_DepthDuration_HTML.html#73,73,1920,937,1920,1080,9-4-2022,11-28-48,133,depth_duration_stimuli/001133_2014-06-17_14-49-16_260595134347_rgbf000100-resize_0/001133_2014-06-17_14-49-16_260595134347_rgbf000100-resize_0-target.png,250,4.2115,12,3724,243,feet,jsons/v1_VE250_randls_15.json,570193,725634,49,Man
133,169393,DepthScenes,duration_manipulation_targetAtFixation,jsons/v1_VE250_randls_15.json,http://54.235.29.9/FacialAge/BNav_EC2/DepthDuration/v2_depth_duration_MTurk/v2_DepthDuration_HTML.html#73,73,1920,937,1920,1080,9-4-2022,11-28-48,134,depth_duration_stimuli/001132_2014-06-17_14-48-54_260595134347_rgbf000100-resize_2/001132_2014-06-17_14-48-54_260595134347_rgbf000100-resize_2-target.png,250,3.753,13,2962,245,feet,jsons/v1_VE250_randls_15.json,570193,725634,49,Man
134,169393,DepthScenes,duration_manipulation_targetAtFixation,jsons/v1_VE250_randls_15.json,http://54.235.29.9/FacialAge/BNav_EC2/DepthDuration/v2_depth_duration_MTurk/v2_DepthDuration_HTML.html#73,73,1920,937,1920,1080,9-4-2022,11-28-48,135,depth_duration_stimuli/002072_2014-06-24_21-48-06_260595134347_rgbf000115-resize_0/002072_2014-06-24_21-48-06_260595134347_rgbf000115-resize-original.jpg,250,4.702,0,2980,246,feet,jsons/v1_VE250_randls_15.json,570193,725634,49,Man
135,169393,DepthScenes,duration_manipulation_targetAtFixation,jsons/v1_VE250_randls_15.json,http://54.235.29.9/FacialAge/BNav_EC2/DepthDuration/v2_depth_duration_MTurk/v2_DepthDuration_HTML.html#73,73,1920,937,1920,1080,9-4-2022,11-28-48,136,depth_duration_stimuli/000758_2014-06-08_22-05-08_260595134347_rgbf000085-resize_0/000758_2014-06-08_22-05-08_260595134347_rgbf000085-resize_0-target.png,250,3.3810000000000002,15,3432,247,feet,jsons/v1_VE250_randls_15.json,570193,725634,49,Man
136,169393,DepthScenes,duration_manipulation_targetAtFixation,jsons/v1_VE250_randls_15.json,http://54.235.29.9/FacialAge/BNav_EC2/DepthDuration/v2_depth_duration_MTurk/v2_DepthDuration_HTML.html#73,73,1920,937,1920,1080,9-4-2022,11-28-48,137,depth_duration_stimuli/000854_2014-06-09_19-43-13_260595134347_rgbf000066-resize_0/000854_2014-06-09_19-43-13_260595134347_rgbf000066-resize_0-target.png,250,3.068,4,2435,248,feet,jsons/v1_VE250_randls_15.json,570193,725634,49,Man
137,169393,DepthScenes,duration_manipulation_targetAtFixation,jsons/v1_VE250_randls_15.json,http://54.235.29.9/FacialAge/BNav_EC2/DepthDuration/v2_depth_duration_MTurk/v2_DepthDuration_HTML.html#73,73,1920,937,1920,1080,9-4-2022,11-28-48,138,depth_duration_stimuli/000878_2014-06-08_22-52-45_260595134347_rgbf000045-resize_2/000878_2014-06-08_22-52-45_260595134347_rgbf000045-resize_2-target.png,250,2.092,8,2654,248,feet,jsons/v1_VE250_randls_15.json,570193,725634,49,Man
138,169393,DepthScenes,duration_manipulation_targetAtFixation,jsons/v1_VE250_randls_15.json,http://54.235.29.9/FacialAge/BNav_EC2/DepthDuration/v2_depth_duration_MTurk/v2_DepthDuration_HTML.html#73,73,1920,937,1920,1080,9-4-2022,11-28-48,139,depth_duration_stimuli/002953_2014-06-08_17-32-18_094959634447_rgbf000059-resize_5/002953_2014-06-08_17-32-18_094959634447_rgbf000059-resize_5-target.png,250,1.551,4,3308,251,feet,jsons/v1_VE250_randls_15.json,570193,725634,49,Man
139,169393,DepthScenes,duration_manipulation_targetAtFixation,jsons/v1_VE250_randls_15.json,http://54.235.29.9/FacialAge/BNav_EC2/DepthDuration/v2_depth_duration_MTurk/v2_DepthDuration_HTML.html#73,73,1920,937,1920,1080,9-4-2022,11-28-48,140,depth_duration_stimuli/001449_2014-06-19_17-01-27_260595134347_rgbf000116-resize_2/001449_2014-06-19_17-01-27_260595134347_rgbf000116-resize_2-target.png,250,3.452,8,3260,252,feet,jsons/v1_VE250_randls_15.json,570193,725634,49,Man
140,169393,DepthScenes,duration_manipulation_targetAtFixation,jsons/v1_VE250_randls_15.json,http://54.235.29.9/FacialAge/BNav_EC2/DepthDuration/v2_depth_duration_MTurk/v2_DepthDuration_HTML.html#73,73,1920,937,1920,1080,9-4-2022,11-28-48,141,depth_duration_stimuli/001450_2014-06-19_17-02-03_260595134347_rgbf000203-resize_4/001450_2014-06-19_17-02-03_260595134347_rgbf000203-resize_4-target.png,250,4.0106666666667,15,2714,250,feet,jsons/v1_VE250_randls_15.json,570193,725634,49,Man
141,169393,DepthScenes,duration_manipulation_targetAtFixation,jsons/v1_VE250_randls_15.json,http://54.235.29.9/FacialAge/BNav_EC2/DepthDuration/v2_depth_duration_MTurk/v2_DepthDuration_HTML.html#73,73,1920,937,1920,1080,9-4-2022,11-28-48,142,depth_duration_stimuli/002570_2014-06-24_13-59-54_094959634447_rgbf000059-resize_0/002570_2014-06-24_13-59-54_094959634447_rgbf000059-resize_0-target.png,250,4.037,14,2834,240,feet,jsons/v1_VE250_randls_15.json,570193,725634,49,Man
142,169393,DepthScenes,duration_manipulation_targetAtFixation,jsons/v1_VE250_randls_15.json,http://54.235.29.9/FacialAge/BNav_EC2/DepthDuration/v2_depth_duration_MTurk/v2_DepthDuration_HTML.html#73,73,1920,937,1920,1080,9-4-2022,11-28-48,143,depth_duration_stimuli/002467_2014-06-28_20-38-07_260595134347_rgbf000026-resize_2/002467_2014-06-28_20-38-07_260595134347_rgbf000026-resize_2-target.png,250,4.742,15,2679,252,feet,jsons/v1_VE250_randls_15.json,570193,725634,49,Man
143,169393,DepthScenes,duration_manipulation_targetAtFixation,jsons/v1_VE250_randls_15.json,http://54.235.29.9/FacialAge/BNav_EC2/DepthDuration/v2_depth_duration_MTurk/v2_DepthDuration_HTML.html#73,73,1920,937,1920,1080,9-4-2022,11-28-48,144,depth_duration_stimuli/000929_2014-06-09_16-33-19_260595134347_rgbf000139-resize_0/000929_2014-06-09_16-33-19_260595134347_rgbf000139-resize_0-target.png,250,2.8680000000000003,11,3276,251,feet,jsons/v1_VE250_randls_15.json,570193,725634,49,Man
144,169393,DepthScenes,duration_manipulation_targetAtFixation,jsons/v1_VE250_randls_15.json,http://54.235.29.9/FacialAge/BNav_EC2/DepthDuration/v2_depth_duration_MTurk/v2_DepthDuration_HTML.html#73,73,1920,937,1920,1080,9-4-2022,11-28-48,145,depth_duration_stimuli/000457_2014-06-08_16-52-43_260595134347_rgbf000199-resize_1/000457_2014-06-08_16-52-43_260595134347_rgbf000199-resize_1-target.png,250,3.6489999999999996,11,2499,262,feet,jsons/v1_VE250_randls_15.json,570193,725634,49,Man
145,169393,DepthScenes,duration_manipulation_targetAtFixation,jsons/v1_VE250_randls_15.json,http://54.235.29.9/FacialAge/BNav_EC2/DepthDuration/v2_depth_duration_MTurk/v2_DepthDuration_HTML.html#73,73,1920,937,1920,1080,9-4-2022,11-28-48,146,depth_duration_stimuli/001498_2014-06-19_17-45-14_260595134347_rgbf000129-resize_4/001498_2014-06-19_17-45-14_260595134347_rgbf000129-resize-original.jpg,250,1.4075,0,2921,251,feet,jsons/v1_VE250_randls_15.json,570193,725634,49,Man
146,169393,DepthScenes,duration_manipulation_targetAtFixation,jsons/v1_VE250_randls_15.json,http://54.235.29.9/FacialAge/BNav_EC2/DepthDuration/v2_depth_duration_MTurk/v2_DepthDuration_HTML.html#73,73,1920,937,1920,1080,9-4-2022,11-28-48,147,depth_duration_stimuli/001029_2014-06-08_13-17-57_260595134347_rgbf000065-resize_1/001029_2014-06-08_13-17-57_260595134347_rgbf000065-resize_1-target.png,250,3.0835,7,2922,248,feet,jsons/v1_VE250_randls_15.json,570193,725634,49,Man
147,169393,DepthScenes,duration_manipulation_targetAtFixation,jsons/v1_VE250_randls_15.json,http://54.235.29.9/FacialAge/BNav_EC2/DepthDuration/v2_depth_duration_MTurk/v2_DepthDuration_HTML.html#73,73,1920,937,1920,1080,9-4-2022,11-28-48,148,depth_duration_stimuli/000677_2014-06-08_23-10-32_260595134347_rgbf000158-resize_6/000677_2014-06-08_23-10-32_260595134347_rgbf000158-resize_6-target.png,250,3.556,7,2882,249,feet,jsons/v1_VE250_randls_15.json,570193,725634,49,Man
148,169393,DepthScenes,duration_manipulation_targetAtFixation,jsons/v1_VE250_randls_15.json,http://54.235.29.9/FacialAge/BNav_EC2/DepthDuration/v2_depth_duration_MTurk/v2_DepthDuration_HTML.html#73,73,1920,937,1920,1080,9-4-2022,11-28-48,149,depth_duration_stimuli/002788_2014-06-22_19-36-03_094959634447_rgbf000088-resize_2/002788_2014-06-22_19-36-03_094959634447_rgbf000088-resize_2-target.png,250,1.6465,8,2749,244,feet,jsons/v1_VE250_randls_15.json,570193,725634,49,Man
149,169393,DepthScenes,duration_manipulation_targetAtFixation,jsons/v1_VE250_randls_15.json,http://54.235.29.9/FacialAge/BNav_EC2/DepthDuration/v2_depth_duration_MTurk/v2_DepthDuration_HTML.html#73,73,1920,937,1920,1080,9-4-2022,11-28-48,150,depth_duration_stimuli/000749_2014-06-08_21-55-06_260595134347_rgbf000070-resize_2/000749_2014-06-08_21-55-06_260595134347_rgbf000070-resize_2-target.png,250,2.331,5,2666,251,feet,jsons/v1_VE250_randls_15.json,570193,725634,49,Man
150,169393,DepthScenes,duration_manipulation_targetAtFixation,jsons/v1_VE250_randls_15.json,http://54.235.29.9/FacialAge/BNav_EC2/DepthDuration/v2_depth_duration_MTurk/v2_DepthDuration_HTML.html#73,73,1920,937,1920,1080,9-4-2022,11-28-48,151,depth_duration_stimuli/000739_2014-06-08_18-45-58_260595134347_rgbf000068-resize_1/000739_2014-06-08_18-45-58_260595134347_rgbf000068-resize_1-target.png,250,3.534,7,2653,243,feet,jsons/v1_VE250_randls_15.json,570193,725634,49,Man
151,169393,DepthScenes,duration_manipulation_targetAtFixation,jsons/v1_VE250_randls_15.json,http://54.235.29.9/FacialAge/BNav_EC2/DepthDuration/v2_depth_duration_MTurk/v2_DepthDuration_HTML.html#73,73,1920,937,1920,1080,9-4-2022,11-28-48,152,depth_duration_stimuli/000734_2014-06-08_17-39-11_260595134347_rgbf000128-resize_2/000734_2014-06-08_17-39-11_260595134347_rgbf000128-resize_2-target.png,250,4.098,8,2904,247,feet,jsons/v1_VE250_randls_15.json,570193,725634,49,Man
152,169393,DepthScenes,duration_manipulation_targetAtFixation,jsons/v1_VE250_randls_15.json,http://54.235.29.9/FacialAge/BNav_EC2/DepthDuration/v2_depth_duration_MTurk/v2_DepthDuration_HTML.html#73,73,1920,937,1920,1080,9-4-2022,11-28-48,153,depth_duration_stimuli/002784_2014-06-22_19-26-30_094959634447_rgbf000083-resize_3/002784_2014-06-22_19-26-30_094959634447_rgbf000083-resize_3-target.png,250,1.8046666666667,3,2536,257,feet,jsons/v1_VE250_randls_15.json,570193,725634,49,Man
153,169393,DepthScenes,duration_manipulation_targetAtFixation,jsons/v1_VE250_randls_15.json,http://54.235.29.9/FacialAge/BNav_EC2/DepthDuration/v2_depth_duration_MTurk/v2_DepthDuration_HTML.html#73,73,1920,937,1920,1080,9-4-2022,11-28-48,154,depth_duration_stimuli/001100_2014-06-15_17-46-26_260595134347_rgbf000225-resize_2/001100_2014-06-15_17-46-26_260595134347_rgbf000225-resize_2-target.png,250,2.24,3,2299,245,feet,jsons/v1_VE250_randls_15.json,570193,725634,49,Man
154,169393,DepthScenes,duration_manipulation_targetAtFixation,jsons/v1_VE250_randls_15.json,http://54.235.29.9/FacialAge/BNav_EC2/DepthDuration/v2_depth_duration_MTurk/v2_DepthDuration_HTML.html#73,73,1920,937,1920,1080,9-4-2022,11-28-48,155,depth_duration_stimuli/001570_2014-06-20_17-21-09_260595134347_rgbf000135-resize_4/001570_2014-06-20_17-21-09_260595134347_rgbf000135-resize_4-target.png,250,4.467,16,2843,236,feet,jsons/v1_VE250_randls_15.json,570193,725634,49,Man
155,169393,DepthScenes,duration_manipulation_targetAtFixation,jsons/v1_VE250_randls_15.json,http://54.235.29.9/FacialAge/BNav_EC2/DepthDuration/v2_depth_duration_MTurk/v2_DepthDuration_HTML.html#73,73,1920,937,1920,1080,9-4-2022,11-28-48,156,depth_duration_stimuli/001392_2014-06-19_16-07-59_260595134347_rgbf000046-resize_1/001392_2014-06-19_16-07-59_260595134347_rgbf000046-resize_1-target.png,250,4.135,14,2875,249,feet,jsons/v1_VE250_randls_15.json,570193,725634,49,Man
156,169393,DepthScenes,duration_manipulation_targetAtFixation,jsons/v1_VE250_randls_15.json,http://54.235.29.9/FacialAge/BNav_EC2/DepthDuration/v2_depth_duration_MTurk/v2_DepthDuration_HTML.html#73,73,1920,937,1920,1080,9-4-2022,11-28-48,157,depth_duration_stimuli/000906_2014-06-08_13-35-43_260595134347_rgbf000155-resize_1/000906_2014-06-08_13-35-43_260595134347_rgbf000155-resize_1-target.png,250,2.8489999999999998,9,2554,252,feet,jsons/v1_VE250_randls_15.json,570193,725634,49,Man
157,169393,DepthScenes,duration_manipulation_targetAtFixation,jsons/v1_VE250_randls_15.json,http://54.235.29.9/FacialAge/BNav_EC2/DepthDuration/v2_depth_duration_MTurk/v2_DepthDuration_HTML.html#73,73,1920,937,1920,1080,9-4-2022,11-28-48,158,depth_duration_stimuli/002805_2014-06-22_19-54-03_094959634447_rgbf000079-resize_1/002805_2014-06-22_19-54-03_094959634447_rgbf000079-resize_1-target.png,250,3.1439999999999997,12,2579,251,feet,jsons/v1_VE250_randls_15.json,570193,725634,49,Man
158,169393,DepthScenes,duration_manipulation_targetAtFixation,jsons/v1_VE250_randls_15.json,http://54.235.29.9/FacialAge/BNav_EC2/DepthDuration/v2_depth_duration_MTurk/v2_DepthDuration_HTML.html#73,73,1920,937,1920,1080,9-4-2022,11-28-48,159,depth_duration_stimuli/001175_2014-06-17_15-45-55_260595134347_rgbf000129-resize_4/001175_2014-06-17_15-45-55_260595134347_rgbf000129-resize_4-target.png,250,4.255,22,2690,252,feet,jsons/v1_VE250_randls_15.json,570193,725634,49,Man
159,169393,DepthScenes,duration_manipulation_targetAtFixation,jsons/v1_VE250_randls_15.json,http://54.235.29.9/FacialAge/BNav_EC2/DepthDuration/v2_depth_duration_MTurk/v2_DepthDuration_HTML.html#73,73,1920,937,1920,1080,9-4-2022,11-28-48,160,depth_duration_stimuli/003490_2014-05-21_15-50-11_094959634447_rgbf000101-resize_3/003490_2014-05-21_15-50-11_094959634447_rgbf000101-resize_3-target.png,250,3.6445,12,2958,234,feet,jsons/v1_VE250_randls_15.json,570193,725634,49,Man
160,169393,DepthScenes,duration_manipulation_targetAtFixation,jsons/v1_VE250_randls_15.json,http://54.235.29.9/FacialAge/BNav_EC2/DepthDuration/v2_depth_duration_MTurk/v2_DepthDuration_HTML.html#73,73,1920,937,1920,1080,9-4-2022,11-28-48,161,depth_duration_stimuli/002057_2014-06-24_21-00-13_260595134347_rgbf000120-resize_1/002057_2014-06-24_21-00-13_260595134347_rgbf000120-resize_1-target.png,250,2.967,9,3343,250,feet,jsons/v1_VE250_randls_15.json,570193,725634,49,Man
161,169393,DepthScenes,duration_manipulation_targetAtFixation,jsons/v1_VE250_randls_15.json,http://54.235.29.9/FacialAge/BNav_EC2/DepthDuration/v2_depth_duration_MTurk/v2_DepthDuration_HTML.html#73,73,1920,937,1920,1080,9-4-2022,11-28-48,162,depth_duration_stimuli/000709_2014-06-08_13-51-55_260595134347_rgbf000068-resize_3/000709_2014-06-08_13-51-55_260595134347_rgbf000068-resize_3-target.png,250,1.8030000000000002,6,3724,248,feet,jsons/v1_VE250_randls_15.json,570193,725634,49,Man
162,169393,DepthScenes,duration_manipulation_targetAtFixation,jsons/v1_VE250_randls_15.json,http://54.235.29.9/FacialAge/BNav_EC2/DepthDuration/v2_depth_duration_MTurk/v2_DepthDuration_HTML.html#73,73,1920,937,1920,1080,9-4-2022,11-28-48,163,depth_duration_stimuli/002663_2014-06-13_15-50-26_094959634447_rgbf000075-resize_1/002663_2014-06-13_15-50-26_094959634447_rgbf000075-resize_1-target.png,250,4.7495,22,2544,249,feet,jsons/v1_VE250_randls_15.json,570193,725634,49,Man
163,169393,DepthScenes,duration_manipulation_targetAtFixation,jsons/v1_VE250_randls_15.json,http://54.235.29.9/FacialAge/BNav_EC2/DepthDuration/v2_depth_duration_MTurk/v2_DepthDuration_HTML.html#73,73,1920,937,1920,1080,9-4-2022,11-28-48,164,depth_duration_stimuli/000409_2014-06-04_19-23-33_260595134347_rgbf000067-resize_0/000409_2014-06-04_19-23-33_260595134347_rgbf000067-resize_0-target.png,250,3.7335,11,2765,251,feet,jsons/v1_VE250_randls_15.json,570193,725634,49,Man
