,subjID,experimentName,versionName,sequenceName,url,selected_row,windowWidth,windowHeight,screenWidth,screenHeight,startDate,startTime,trial,stimulus,duration,actual_depth,depth_estimate,trial_RT,log_sceneDuration,unitSelection,seq_filepath,experimentTime,totalTime,age,gender
0,169549,DepthScenes,duration_manipulation_targetAtFixation,jsons/v1_VE1000_randls_54.json,http://54.235.29.9/FacialAge/BNav_EC2/DepthDuration/v2_depth_duration_MTurk/v2_DepthDuration_HTML.html#373,373,1366,768,1366,768,8-30-2022,6-56-18,1,depth_duration_stimuli/001066_2014-06-08_22-03-20_260595134347_rgbf000066-resize_4/001066_2014-06-08_22-03-20_260595134347_rgbf000066-resize_4-target.png,1000,4.2330000000000005,7,7223,1008,meters,jsons/v1_VE1000_randls_54.json,934523,1460773,32,Man
1,169549,DepthScenes,duration_manipulation_targetAtFixation,jsons/v1_VE1000_randls_54.json,http://54.235.29.9/FacialAge/BNav_EC2/DepthDuration/v2_depth_duration_MTurk/v2_DepthDuration_HTML.html#373,373,1366,768,1366,768,8-30-2022,6-56-18,2,depth_duration_stimuli/000742_2014-06-08_18-48-09_260595134347_rgbf000164-resize_4/000742_2014-06-08_18-48-09_260595134347_rgbf000164-resize_4-target.png,1000,4.632,5,5476,993,meters,jsons/v1_VE1000_randls_54.json,934523,1460773,32,Man
2,169549,DepthScenes,duration_manipulation_targetAtFixation,jsons/v1_VE1000_randls_54.json,http://54.235.29.9/FacialAge/BNav_EC2/DepthDuration/v2_depth_duration_MTurk/v2_DepthDuration_HTML.html#373,373,1366,768,1366,768,8-30-2022,6-56-18,3,depth_duration_stimuli/002784_2014-06-22_19-26-30_094959634447_rgbf000083-resize_3/002784_2014-06-22_19-26-30_094959634447_rgbf000083-resize_3-target.png,1000,1.8046666666667,1,5944,991,meters,jsons/v1_VE1000_randls_54.json,934523,1460773,32,Man
3,169549,DepthScenes,duration_manipulation_targetAtFixation,jsons/v1_VE1000_randls_54.json,http://54.235.29.9/FacialAge/BNav_EC2/DepthDuration/v2_depth_duration_MTurk/v2_DepthDuration_HTML.html#373,373,1366,768,1366,768,8-30-2022,6-56-18,4,depth_duration_stimuli/001100_2014-06-15_17-46-26_260595134347_rgbf000225-resize_2/001100_2014-06-15_17-46-26_260595134347_rgbf000225-resize_2-target.png,1000,2.24,1,5373,1008,meters,jsons/v1_VE1000_randls_54.json,934523,1460773,32,Man
4,169549,DepthScenes,duration_manipulation_targetAtFixation,jsons/v1_VE1000_randls_54.json,http://54.235.29.9/FacialAge/BNav_EC2/DepthDuration/v2_depth_duration_MTurk/v2_DepthDuration_HTML.html#373,373,1366,768,1366,768,8-30-2022,6-56-18,5,depth_duration_stimuli/002057_2014-06-24_21-00-13_260595134347_rgbf000120-resize_1/002057_2014-06-24_21-00-13_260595134347_rgbf000120-resize_1-target.png,1000,2.967,8,8601,998,meters,jsons/v1_VE1000_randls_54.json,934523,1460773,32,Man
5,169549,DepthScenes,duration_manipulation_targetAtFixation,jsons/v1_VE1000_randls_54.json,http://54.235.29.9/FacialAge/BNav_EC2/DepthDuration/v2_depth_duration_MTurk/v2_DepthDuration_HTML.html#373,373,1366,768,1366,768,8-30-2022,6-56-18,6,depth_duration_stimuli/000709_2014-06-08_13-51-55_260595134347_rgbf000068-resize_3/000709_2014-06-08_13-51-55_260595134347_rgbf000068-resize_3-target.png,1000,1.8030000000000002,4,5516,992,meters,jsons/v1_VE1000_randls_54.json,934523,1460773,32,Man
6,169549,DepthScenes,duration_manipulation_targetAtFixation,jsons/v1_VE1000_randls_54.json,http://54.235.29.9/FacialAge/BNav_EC2/DepthDuration/v2_depth_duration_MTurk/v2_DepthDuration_HTML.html#373,373,1366,768,1366,768,8-30-2022,6-56-18,7,depth_duration_stimuli/003292_2014-05-14_21-53-49_094959634447_rgbf000100-resize_2/003292_2014-05-14_21-53-49_094959634447_rgbf000100-resize_2-target.png,1000,3.4815,2,5324,988,meters,jsons/v1_VE1000_randls_54.json,934523,1460773,32,Man
7,169549,DepthScenes,duration_manipulation_targetAtFixation,jsons/v1_VE1000_randls_54.json,http://54.235.29.9/FacialAge/BNav_EC2/DepthDuration/v2_depth_duration_MTurk/v2_DepthDuration_HTML.html#373,373,1366,768,1366,768,8-30-2022,6-56-18,8,depth_duration_stimuli/002639_2014-06-24_14-51-37_094959634447_rgbf000074-resize_4/002639_2014-06-24_14-51-37_094959634447_rgbf000074-resize_4-target.png,1000,4.0375,4,4775,994,meters,jsons/v1_VE1000_randls_54.json,934523,1460773,32,Man
8,169549,DepthScenes,duration_manipulation_targetAtFixation,jsons/v1_VE1000_randls_54.json,http://54.235.29.9/FacialAge/BNav_EC2/DepthDuration/v2_depth_duration_MTurk/v2_DepthDuration_HTML.html#373,373,1366,768,1366,768,8-30-2022,6-56-18,9,depth_duration_stimuli/000906_2014-06-08_13-35-43_260595134347_rgbf000155-resize_1/000906_2014-06-08_13-35-43_260595134347_rgbf000155-resize_1-target.png,1000,2.8489999999999998,5,4267,994,meters,jsons/v1_VE1000_randls_54.json,934523,1460773,32,Man
9,169549,DepthScenes,duration_manipulation_targetAtFixation,jsons/v1_VE1000_randls_54.json,http://54.235.29.9/FacialAge/BNav_EC2/DepthDuration/v2_depth_duration_MTurk/v2_DepthDuration_HTML.html#373,373,1366,768,1366,768,8-30-2022,6-56-18,10,depth_duration_stimuli/002805_2014-06-22_19-54-03_094959634447_rgbf000079-resize_1/002805_2014-06-22_19-54-03_094959634447_rgbf000079-resize_1-target.png,1000,3.1439999999999997,6,4287,1002,meters,jsons/v1_VE1000_randls_54.json,934523,1460773,32,Man
10,169549,DepthScenes,duration_manipulation_targetAtFixation,jsons/v1_VE1000_randls_54.json,http://54.235.29.9/FacialAge/BNav_EC2/DepthDuration/v2_depth_duration_MTurk/v2_DepthDuration_HTML.html#373,373,1366,768,1366,768,8-30-2022,6-56-18,11,depth_duration_stimuli/002570_2014-06-24_13-59-54_094959634447_rgbf000059-resize_0/002570_2014-06-24_13-59-54_094959634447_rgbf000059-resize_0-target.png,1000,4.037,5,4585,1002,meters,jsons/v1_VE1000_randls_54.json,934523,1460773,32,Man
11,169549,DepthScenes,duration_manipulation_targetAtFixation,jsons/v1_VE1000_randls_54.json,http://54.235.29.9/FacialAge/BNav_EC2/DepthDuration/v2_depth_duration_MTurk/v2_DepthDuration_HTML.html#373,373,1366,768,1366,768,8-30-2022,6-56-18,12,depth_duration_stimuli/002467_2014-06-28_20-38-07_260595134347_rgbf000026-resize_2/002467_2014-06-28_20-38-07_260595134347_rgbf000026-resize_2-target.png,1000,4.742,4,4355,996,meters,jsons/v1_VE1000_randls_54.json,934523,1460773,32,Man
12,169549,DepthScenes,duration_manipulation_targetAtFixation,jsons/v1_VE1000_randls_54.json,http://54.235.29.9/FacialAge/BNav_EC2/DepthDuration/v2_depth_duration_MTurk/v2_DepthDuration_HTML.html#373,373,1366,768,1366,768,8-30-2022,6-56-18,13,depth_duration_stimuli/000569_2014-06-09_22-51-47_260595134347_rgbf000141-resize_3/000569_2014-06-09_22-51-47_260595134347_rgbf000141-resize-original.jpg,1000,4.512,0,5753,1004,meters,jsons/v1_VE1000_randls_54.json,934523,1460773,32,Man
13,169549,DepthScenes,duration_manipulation_targetAtFixation,jsons/v1_VE1000_randls_54.json,http://54.235.29.9/FacialAge/BNav_EC2/DepthDuration/v2_depth_duration_MTurk/v2_DepthDuration_HTML.html#373,373,1366,768,1366,768,8-30-2022,6-56-18,14,depth_duration_stimuli/001417_2014-06-19_16-25-36_260595134347_rgbf000115-resize_5/001417_2014-06-19_16-25-36_260595134347_rgbf000115-resize_5-target.png,1000,4.6255,5,8312,993,meters,jsons/v1_VE1000_randls_54.json,934523,1460773,32,Man
14,169549,DepthScenes,duration_manipulation_targetAtFixation,jsons/v1_VE1000_randls_54.json,http://54.235.29.9/FacialAge/BNav_EC2/DepthDuration/v2_depth_duration_MTurk/v2_DepthDuration_HTML.html#373,373,1366,768,1366,768,8-30-2022,6-56-18,15,depth_duration_stimuli/003081_2014-06-15_15-19-16_094959634447_rgbf000150-resize_1/003081_2014-06-15_15-19-16_094959634447_rgbf000150-resize_1-target.png,1000,3.9125,0,4867,1000,meters,jsons/v1_VE1000_randls_54.json,934523,1460773,32,Man
15,169549,DepthScenes,duration_manipulation_targetAtFixation,jsons/v1_VE1000_randls_54.json,http://54.235.29.9/FacialAge/BNav_EC2/DepthDuration/v2_depth_duration_MTurk/v2_DepthDuration_HTML.html#373,373,1366,768,1366,768,8-30-2022,6-56-18,16,depth_duration_stimuli/000368_2014-06-09_15-53-01_260595134347_rgbf000155-resize_2/000368_2014-06-09_15-53-01_260595134347_rgbf000155-resize_2-target.png,1000,2.4859999999999998,1,4119,993,meters,jsons/v1_VE1000_randls_54.json,934523,1460773,32,Man
16,169549,DepthScenes,duration_manipulation_targetAtFixation,jsons/v1_VE1000_randls_54.json,http://54.235.29.9/FacialAge/BNav_EC2/DepthDuration/v2_depth_duration_MTurk/v2_DepthDuration_HTML.html#373,373,1366,768,1366,768,8-30-2022,6-56-18,17,depth_duration_stimuli/002678_2014-06-13_16-15-32_094959634447_rgbf000151-resize_6/002678_2014-06-13_16-15-32_094959634447_rgbf000151-resize_6-target.png,1000,2.1830000000000003,3,4672,990,meters,jsons/v1_VE1000_randls_54.json,934523,1460773,32,Man
17,169549,DepthScenes,duration_manipulation_targetAtFixation,jsons/v1_VE1000_randls_54.json,http://54.235.29.9/FacialAge/BNav_EC2/DepthDuration/v2_depth_duration_MTurk/v2_DepthDuration_HTML.html#373,373,1366,768,1366,768,8-30-2022,6-56-18,18,depth_duration_stimuli/000486_2014-06-09_20-47-20_260595134347_rgbf000143-resize_2/000486_2014-06-09_20-47-20_260595134347_rgbf000143-resize_2-target.png,1000,4.8325,3,5173,998,meters,jsons/v1_VE1000_randls_54.json,934523,1460773,32,Man
18,169549,DepthScenes,duration_manipulation_targetAtFixation,jsons/v1_VE1000_randls_54.json,http://54.235.29.9/FacialAge/BNav_EC2/DepthDuration/v2_depth_duration_MTurk/v2_DepthDuration_HTML.html#373,373,1366,768,1366,768,8-30-2022,6-56-18,19,depth_duration_stimuli/003083_2014-06-15_15-21-03_094959634447_rgbf000063-resize_1/003083_2014-06-15_15-21-03_094959634447_rgbf000063-resize_1-target.png,1000,4.1405,7,4939,1006,meters,jsons/v1_VE1000_randls_54.json,934523,1460773,32,Man
19,169549,DepthScenes,duration_manipulation_targetAtFixation,jsons/v1_VE1000_randls_54.json,http://54.235.29.9/FacialAge/BNav_EC2/DepthDuration/v2_depth_duration_MTurk/v2_DepthDuration_HTML.html#373,373,1366,768,1366,768,8-30-2022,6-56-18,20,depth_duration_stimuli/002153_2014-06-25_21-27-18_260595134347_rgbf000038-resize_5/002153_2014-06-25_21-27-18_260595134347_rgbf000038-resize_5-target.png,1000,2.505,2,3948,1007,meters,jsons/v1_VE1000_randls_54.json,934523,1460773,32,Man
20,169549,DepthScenes,duration_manipulation_targetAtFixation,jsons/v1_VE1000_randls_54.json,http://54.235.29.9/FacialAge/BNav_EC2/DepthDuration/v2_depth_duration_MTurk/v2_DepthDuration_HTML.html#373,373,1366,768,1366,768,8-30-2022,6-56-18,21,depth_duration_stimuli/002660_2014-06-13_15-44-18_094959634447_rgbf001878-resize_2/002660_2014-06-13_15-44-18_094959634447_rgbf001878-resize_2-target.png,1000,3.576,4,4190,1001,meters,jsons/v1_VE1000_randls_54.json,934523,1460773,32,Man
21,169549,DepthScenes,duration_manipulation_targetAtFixation,jsons/v1_VE1000_randls_54.json,http://54.235.29.9/FacialAge/BNav_EC2/DepthDuration/v2_depth_duration_MTurk/v2_DepthDuration_HTML.html#373,373,1366,768,1366,768,8-30-2022,6-56-18,22,depth_duration_stimuli/002043_2014-06-24_20-29-38_260595134347_rgbf000039-resize_4/002043_2014-06-24_20-29-38_260595134347_rgbf000039-resize_4-target.png,1000,2.8435,5,4365,997,meters,jsons/v1_VE1000_randls_54.json,934523,1460773,32,Man
22,169549,DepthScenes,duration_manipulation_targetAtFixation,jsons/v1_VE1000_randls_54.json,http://54.235.29.9/FacialAge/BNav_EC2/DepthDuration/v2_depth_duration_MTurk/v2_DepthDuration_HTML.html#373,373,1366,768,1366,768,8-30-2022,6-56-18,23,depth_duration_stimuli/003048_2014-06-15_13-49-43_094959634447_rgbf000150-resize_1/003048_2014-06-15_13-49-43_094959634447_rgbf000150-resize_1-target.png,1000,4.0035,6,4282,1003,meters,jsons/v1_VE1000_randls_54.json,934523,1460773,32,Man
23,169549,DepthScenes,duration_manipulation_targetAtFixation,jsons/v1_VE1000_randls_54.json,http://54.235.29.9/FacialAge/BNav_EC2/DepthDuration/v2_depth_duration_MTurk/v2_DepthDuration_HTML.html#373,373,1366,768,1366,768,8-30-2022,6-56-18,24,depth_duration_stimuli/000929_2014-06-09_16-33-19_260595134347_rgbf000139-resize_0/000929_2014-06-09_16-33-19_260595134347_rgbf000139-resize_0-target.png,1000,2.8680000000000003,5,4592,990,meters,jsons/v1_VE1000_randls_54.json,934523,1460773,32,Man
24,169549,DepthScenes,duration_manipulation_targetAtFixation,jsons/v1_VE1000_randls_54.json,http://54.235.29.9/FacialAge/BNav_EC2/DepthDuration/v2_depth_duration_MTurk/v2_DepthDuration_HTML.html#373,373,1366,768,1366,768,8-30-2022,6-56-18,25,depth_duration_stimuli/000457_2014-06-08_16-52-43_260595134347_rgbf000199-resize_1/000457_2014-06-08_16-52-43_260595134347_rgbf000199-resize_1-target.png,1000,3.6489999999999996,8,4396,1005,meters,jsons/v1_VE1000_randls_54.json,934523,1460773,32,Man
25,169549,DepthScenes,duration_manipulation_targetAtFixation,jsons/v1_VE1000_randls_54.json,http://54.235.29.9/FacialAge/BNav_EC2/DepthDuration/v2_depth_duration_MTurk/v2_DepthDuration_HTML.html#373,373,1366,768,1366,768,8-30-2022,6-56-18,26,depth_duration_stimuli/001055_2014-06-08_18-45-35_260595134347_rgbf000111-resize_4/001055_2014-06-08_18-45-35_260595134347_rgbf000111-resize_4-target.png,1000,2.4290000000000003,10,9506,1012,meters,jsons/v1_VE1000_randls_54.json,934523,1460773,32,Man
26,169549,DepthScenes,duration_manipulation_targetAtFixation,jsons/v1_VE1000_randls_54.json,http://54.235.29.9/FacialAge/BNav_EC2/DepthDuration/v2_depth_duration_MTurk/v2_DepthDuration_HTML.html#373,373,1366,768,1366,768,8-30-2022,6-56-18,27,depth_duration_stimuli/000549_2014-06-08_22-10-24_260595134347_rgbf000247-resize_3/000549_2014-06-08_22-10-24_260595134347_rgbf000247-resize_3-target.png,1000,1.841,1,4001,995,meters,jsons/v1_VE1000_randls_54.json,934523,1460773,32,Man
27,169549,DepthScenes,duration_manipulation_targetAtFixation,jsons/v1_VE1000_randls_54.json,http://54.235.29.9/FacialAge/BNav_EC2/DepthDuration/v2_depth_duration_MTurk/v2_DepthDuration_HTML.html#373,373,1366,768,1366,768,8-30-2022,6-56-18,28,depth_duration_stimuli/001806_2014-06-26_20-50-20_260595134347_rgbf000091-resize_1/001806_2014-06-26_20-50-20_260595134347_rgbf000091-resize_1-target.png,1000,2.7305,2,3901,995,meters,jsons/v1_VE1000_randls_54.json,934523,1460773,32,Man
28,169549,DepthScenes,duration_manipulation_targetAtFixation,jsons/v1_VE1000_randls_54.json,http://54.235.29.9/FacialAge/BNav_EC2/DepthDuration/v2_depth_duration_MTurk/v2_DepthDuration_HTML.html#373,373,1366,768,1366,768,8-30-2022,6-56-18,29,depth_duration_stimuli/001617_2014-06-20_11-35-32_260595134347_rgbf000066-resize_1/001617_2014-06-20_11-35-32_260595134347_rgbf000066-resize_1-target.png,1000,3.7910000000000004,8,6361,991,meters,jsons/v1_VE1000_randls_54.json,934523,1460773,32,Man
29,169549,DepthScenes,duration_manipulation_targetAtFixation,jsons/v1_VE1000_randls_54.json,http://54.235.29.9/FacialAge/BNav_EC2/DepthDuration/v2_depth_duration_MTurk/v2_DepthDuration_HTML.html#373,373,1366,768,1366,768,8-30-2022,6-56-18,30,depth_duration_stimuli/000375_2014-06-08_11-17-29_260595134347_rgbf000133-resize_2/000375_2014-06-08_11-17-29_260595134347_rgbf000133-resize-original.jpg,1000,4.718,0,4574,1003,meters,jsons/v1_VE1000_randls_54.json,934523,1460773,32,Man
30,169549,DepthScenes,duration_manipulation_targetAtFixation,jsons/v1_VE1000_randls_54.json,http://54.235.29.9/FacialAge/BNav_EC2/DepthDuration/v2_depth_duration_MTurk/v2_DepthDuration_HTML.html#373,373,1366,768,1366,768,8-30-2022,6-56-18,31,depth_duration_stimuli/000642_2014-06-08_16-59-25_260595134347_rgbf000098-resize_2/000642_2014-06-08_16-59-25_260595134347_rgbf000098-resize_2-target.png,1000,2.8815,3,4533,1010,meters,jsons/v1_VE1000_randls_54.json,934523,1460773,32,Man
31,169549,DepthScenes,duration_manipulation_targetAtFixation,jsons/v1_VE1000_randls_54.json,http://54.235.29.9/FacialAge/BNav_EC2/DepthDuration/v2_depth_duration_MTurk/v2_DepthDuration_HTML.html#373,373,1366,768,1366,768,8-30-2022,6-56-18,32,depth_duration_stimuli/002425_2014-06-28_20-27-29_260595134347_rgbf000031-resize_8/002425_2014-06-28_20-27-29_260595134347_rgbf000031-resize_8-target.png,1000,3.8960000000000004,6,8251,996,meters,jsons/v1_VE1000_randls_54.json,934523,1460773,32,Man
32,169549,DepthScenes,duration_manipulation_targetAtFixation,jsons/v1_VE1000_randls_54.json,http://54.235.29.9/FacialAge/BNav_EC2/DepthDuration/v2_depth_duration_MTurk/v2_DepthDuration_HTML.html#373,373,1366,768,1366,768,8-30-2022,6-56-18,33,depth_duration_stimuli/000758_2014-06-08_22-05-08_260595134347_rgbf000085-resize_0/000758_2014-06-08_22-05-08_260595134347_rgbf000085-resize_0-target.png,1000,3.3810000000000002,9,5306,996,meters,jsons/v1_VE1000_randls_54.json,934523,1460773,32,Man
33,169549,DepthScenes,duration_manipulation_targetAtFixation,jsons/v1_VE1000_randls_54.json,http://54.235.29.9/FacialAge/BNav_EC2/DepthDuration/v2_depth_duration_MTurk/v2_DepthDuration_HTML.html#373,373,1366,768,1366,768,8-30-2022,6-56-18,34,depth_duration_stimuli/000854_2014-06-09_19-43-13_260595134347_rgbf000066-resize_0/000854_2014-06-09_19-43-13_260595134347_rgbf000066-resize_0-target.png,1000,3.068,2,4463,999,meters,jsons/v1_VE1000_randls_54.json,934523,1460773,32,Man
34,169549,DepthScenes,duration_manipulation_targetAtFixation,jsons/v1_VE1000_randls_54.json,http://54.235.29.9/FacialAge/BNav_EC2/DepthDuration/v2_depth_duration_MTurk/v2_DepthDuration_HTML.html#373,373,1366,768,1366,768,8-30-2022,6-56-18,35,depth_duration_stimuli/002748_2014-06-22_19-07-22_094959634447_rgbf000078-resize_1/002748_2014-06-22_19-07-22_094959634447_rgbf000078-resize_1-target.png,1000,4.6705,8,4648,1010,meters,jsons/v1_VE1000_randls_54.json,934523,1460773,32,Man
35,169549,DepthScenes,duration_manipulation_targetAtFixation,jsons/v1_VE1000_randls_54.json,http://54.235.29.9/FacialAge/BNav_EC2/DepthDuration/v2_depth_duration_MTurk/v2_DepthDuration_HTML.html#373,373,1366,768,1366,768,8-30-2022,6-56-18,36,depth_duration_stimuli/002995_2014-06-15_12-31-26_094959634447_rgbf000150-resize_1/002995_2014-06-15_12-31-26_094959634447_rgbf000150-resize_1-target.png,1000,3.8360000000000003,6,4424,1016,meters,jsons/v1_VE1000_randls_54.json,934523,1460773,32,Man
36,169549,DepthScenes,duration_manipulation_targetAtFixation,jsons/v1_VE1000_randls_54.json,http://54.235.29.9/FacialAge/BNav_EC2/DepthDuration/v2_depth_duration_MTurk/v2_DepthDuration_HTML.html#373,373,1366,768,1366,768,8-30-2022,6-56-18,37,depth_duration_stimuli/002630_2014-06-24_14-47-50_094959634447_rgbf000055-resize_1/002630_2014-06-24_14-47-50_094959634447_rgbf000055-resize_1-target.png,1000,3.0095,5,4555,996,meters,jsons/v1_VE1000_randls_54.json,934523,1460773,32,Man
37,169549,DepthScenes,duration_manipulation_targetAtFixation,jsons/v1_VE1000_randls_54.json,http://54.235.29.9/FacialAge/BNav_EC2/DepthDuration/v2_depth_duration_MTurk/v2_DepthDuration_HTML.html#373,373,1366,768,1366,768,8-30-2022,6-56-18,38,depth_duration_stimuli/002758_2014-06-22_19-11-20_094959634447_rgbf000128-resize_1/002758_2014-06-22_19-11-20_094959634447_rgbf000128-resize_1-target.png,1000,2.555,3,4449,1004,meters,jsons/v1_VE1000_randls_54.json,934523,1460773,32,Man
38,169549,DepthScenes,duration_manipulation_targetAtFixation,jsons/v1_VE1000_randls_54.json,http://54.235.29.9/FacialAge/BNav_EC2/DepthDuration/v2_depth_duration_MTurk/v2_DepthDuration_HTML.html#373,373,1366,768,1366,768,8-30-2022,6-56-18,39,depth_duration_stimuli/000682_2014-06-08_23-14-58_260595134347_rgbf000041-resize_5/000682_2014-06-08_23-14-58_260595134347_rgbf000041-resize_5-target.png,1000,2.7239999999999998,6,5443,1006,meters,jsons/v1_VE1000_randls_54.json,934523,1460773,32,Man
39,169549,DepthScenes,duration_manipulation_targetAtFixation,jsons/v1_VE1000_randls_54.json,http://54.235.29.9/FacialAge/BNav_EC2/DepthDuration/v2_depth_duration_MTurk/v2_DepthDuration_HTML.html#373,373,1366,768,1366,768,8-30-2022,6-56-18,40,depth_duration_stimuli/001650_2014-06-20_12-09-00_260595134347_rgbf000087-resize_3/001650_2014-06-20_12-09-00_260595134347_rgbf000087-resize_3-target.png,1000,1.9505,1,4383,1009,meters,jsons/v1_VE1000_randls_54.json,934523,1460773,32,Man
40,169549,DepthScenes,duration_manipulation_targetAtFixation,jsons/v1_VE1000_randls_54.json,http://54.235.29.9/FacialAge/BNav_EC2/DepthDuration/v2_depth_duration_MTurk/v2_DepthDuration_HTML.html#373,373,1366,768,1366,768,8-30-2022,6-56-18,41,depth_duration_stimuli/001449_2014-06-19_17-01-27_260595134347_rgbf000116-resize_2/001449_2014-06-19_17-01-27_260595134347_rgbf000116-resize_2-target.png,1000,3.452,8,4508,986,meters,jsons/v1_VE1000_randls_54.json,934523,1460773,32,Man
41,169549,DepthScenes,duration_manipulation_targetAtFixation,jsons/v1_VE1000_randls_54.json,http://54.235.29.9/FacialAge/BNav_EC2/DepthDuration/v2_depth_duration_MTurk/v2_DepthDuration_HTML.html#373,373,1366,768,1366,768,8-30-2022,6-56-18,42,depth_duration_stimuli/001450_2014-06-19_17-02-03_260595134347_rgbf000203-resize_4/001450_2014-06-19_17-02-03_260595134347_rgbf000203-resize_4-target.png,1000,4.0106666666667,10,5396,997,meters,jsons/v1_VE1000_randls_54.json,934523,1460773,32,Man
42,169549,DepthScenes,duration_manipulation_targetAtFixation,jsons/v1_VE1000_randls_54.json,http://54.235.29.9/FacialAge/BNav_EC2/DepthDuration/v2_depth_duration_MTurk/v2_DepthDuration_HTML.html#373,373,1366,768,1366,768,8-30-2022,6-56-18,43,depth_duration_stimuli/000773_2014-06-08_22-24-54_260595134347_rgbf000093-resize_1/000773_2014-06-08_22-24-54_260595134347_rgbf000093-resize_1-target.png,1000,4.973,8,4510,1002,meters,jsons/v1_VE1000_randls_54.json,934523,1460773,32,Man
43,169549,DepthScenes,duration_manipulation_targetAtFixation,jsons/v1_VE1000_randls_54.json,http://54.235.29.9/FacialAge/BNav_EC2/DepthDuration/v2_depth_duration_MTurk/v2_DepthDuration_HTML.html#373,373,1366,768,1366,768,8-30-2022,6-56-18,44,depth_duration_stimuli/002414_2014-06-28_20-24-58_260595134347_rgbf000067-resize_4/002414_2014-06-28_20-24-58_260595134347_rgbf000067-resize_4-target.png,1000,4.363,10,5590,1012,meters,jsons/v1_VE1000_randls_54.json,934523,1460773,32,Man
44,169549,DepthScenes,duration_manipulation_targetAtFixation,jsons/v1_VE1000_randls_54.json,http://54.235.29.9/FacialAge/BNav_EC2/DepthDuration/v2_depth_duration_MTurk/v2_DepthDuration_HTML.html#373,373,1366,768,1366,768,8-30-2022,6-56-18,45,depth_duration_stimuli/000787_2014-06-08_22-33-53_260595134347_rgbf000175-resize_1/000787_2014-06-08_22-33-53_260595134347_rgbf000175-resize-original.jpg,1000,4.784,0,4163,995,meters,jsons/v1_VE1000_randls_54.json,934523,1460773,32,Man
45,169549,DepthScenes,duration_manipulation_targetAtFixation,jsons/v1_VE1000_randls_54.json,http://54.235.29.9/FacialAge/BNav_EC2/DepthDuration/v2_depth_duration_MTurk/v2_DepthDuration_HTML.html#373,373,1366,768,1366,768,8-30-2022,6-56-18,46,depth_duration_stimuli/001056_2014-06-08_18-46-44_260595134347_rgbf000068-resize_0/001056_2014-06-08_18-46-44_260595134347_rgbf000068-resize_0-target.png,1000,2.6625,4,4101,1004,meters,jsons/v1_VE1000_randls_54.json,934523,1460773,32,Man
46,169549,DepthScenes,duration_manipulation_targetAtFixation,jsons/v1_VE1000_randls_54.json,http://54.235.29.9/FacialAge/BNav_EC2/DepthDuration/v2_depth_duration_MTurk/v2_DepthDuration_HTML.html#373,373,1366,768,1366,768,8-30-2022,6-56-18,47,depth_duration_stimuli/002199_2014-06-28_18-33-56_260595134347_rgbf000074-resize_0/002199_2014-06-28_18-33-56_260595134347_rgbf000074-resize_0-target.png,1000,1.996,1,4335,1003,meters,jsons/v1_VE1000_randls_54.json,934523,1460773,32,Man
47,169549,DepthScenes,duration_manipulation_targetAtFixation,jsons/v1_VE1000_randls_54.json,http://54.235.29.9/FacialAge/BNav_EC2/DepthDuration/v2_depth_duration_MTurk/v2_DepthDuration_HTML.html#373,373,1366,768,1366,768,8-30-2022,6-56-18,48,depth_duration_stimuli/001244_2014-06-17_16-47-45_260595134347_rgbf000030-resize_4/001244_2014-06-17_16-47-45_260595134347_rgbf000030-resize_4-target.png,1000,2.0425,3,4816,1004,meters,jsons/v1_VE1000_randls_54.json,934523,1460773,32,Man
48,169549,DepthScenes,duration_manipulation_targetAtFixation,jsons/v1_VE1000_randls_54.json,http://54.235.29.9/FacialAge/BNav_EC2/DepthDuration/v2_depth_duration_MTurk/v2_DepthDuration_HTML.html#373,373,1366,768,1366,768,8-30-2022,6-56-18,49,depth_duration_stimuli/003495_2014-05-21_16-01-51_094959634447_rgbf000100-resize_3/003495_2014-05-21_16-01-51_094959634447_rgbf000100-resize_3-target.png,1000,1.6255,1,4585,1006,meters,jsons/v1_VE1000_randls_54.json,934523,1460773,32,Man
49,169549,DepthScenes,duration_manipulation_targetAtFixation,jsons/v1_VE1000_randls_54.json,http://54.235.29.9/FacialAge/BNav_EC2/DepthDuration/v2_depth_duration_MTurk/v2_DepthDuration_HTML.html#373,373,1366,768,1366,768,8-30-2022,6-56-18,50,depth_duration_stimuli/002905_2014-06-03_18-04-43_094959634447_rgbf000151-resize_2/002905_2014-06-03_18-04-43_094959634447_rgbf000151-resize_2-target.png,1000,2.0295,2,3690,995,meters,jsons/v1_VE1000_randls_54.json,934523,1460773,32,Man
50,169549,DepthScenes,duration_manipulation_targetAtFixation,jsons/v1_VE1000_randls_54.json,http://54.235.29.9/FacialAge/BNav_EC2/DepthDuration/v2_depth_duration_MTurk/v2_DepthDuration_HTML.html#373,373,1366,768,1366,768,8-30-2022,6-56-18,51,depth_duration_stimuli/003423_2014-05-21_10-23-26_094959634447_rgbf002665-resize_2/003423_2014-05-21_10-23-26_094959634447_rgbf002665-resize_2-target.png,1000,3.2575,5,4372,997,meters,jsons/v1_VE1000_randls_54.json,934523,1460773,32,Man
51,169549,DepthScenes,duration_manipulation_targetAtFixation,jsons/v1_VE1000_randls_54.json,http://54.235.29.9/FacialAge/BNav_EC2/DepthDuration/v2_depth_duration_MTurk/v2_DepthDuration_HTML.html#373,373,1366,768,1366,768,8-30-2022,6-56-18,52,depth_duration_stimuli/000469_2014-06-09_19-42-10_260595134347_rgbf000081-resize_1/000469_2014-06-09_19-42-10_260595134347_rgbf000081-resize_1-target.png,1000,1.652,4,4394,995,meters,jsons/v1_VE1000_randls_54.json,934523,1460773,32,Man
52,169549,DepthScenes,duration_manipulation_targetAtFixation,jsons/v1_VE1000_randls_54.json,http://54.235.29.9/FacialAge/BNav_EC2/DepthDuration/v2_depth_duration_MTurk/v2_DepthDuration_HTML.html#373,373,1366,768,1366,768,8-30-2022,6-56-18,53,depth_duration_stimuli/000483_2014-06-09_20-41-45_260595134347_rgbf000116-resize_4/000483_2014-06-09_20-41-45_260595134347_rgbf000116-resize_4-target.png,1000,1.337,3,4132,1007,meters,jsons/v1_VE1000_randls_54.json,934523,1460773,32,Man
53,169549,DepthScenes,duration_manipulation_targetAtFixation,jsons/v1_VE1000_randls_54.json,http://54.235.29.9/FacialAge/BNav_EC2/DepthDuration/v2_depth_duration_MTurk/v2_DepthDuration_HTML.html#373,373,1366,768,1366,768,8-30-2022,6-56-18,54,depth_duration_stimuli/002279_2014-06-28_18-55-32_260595134347_rgbf000040-resize_5/002279_2014-06-28_18-55-32_260595134347_rgbf000040-resize_5-target.png,1000,1.5043333333333,2,4276,1003,meters,jsons/v1_VE1000_randls_54.json,934523,1460773,32,Man
54,169549,DepthScenes,duration_manipulation_targetAtFixation,jsons/v1_VE1000_randls_54.json,http://54.235.29.9/FacialAge/BNav_EC2/DepthDuration/v2_depth_duration_MTurk/v2_DepthDuration_HTML.html#373,373,1366,768,1366,768,8-30-2022,6-56-18,55,depth_duration_stimuli/000635_2014-06-08_16-38-42_260595134347_rgbf000106-resize_1/000635_2014-06-08_16-38-42_260595134347_rgbf000106-resize_1-target.png,1000,2.074,6,3854,993,meters,jsons/v1_VE1000_randls_54.json,934523,1460773,32,Man
55,169549,DepthScenes,duration_manipulation_targetAtFixation,jsons/v1_VE1000_randls_54.json,http://54.235.29.9/FacialAge/BNav_EC2/DepthDuration/v2_depth_duration_MTurk/v2_DepthDuration_HTML.html#373,373,1366,768,1366,768,8-30-2022,6-56-18,56,depth_duration_stimuli/000414_2014-06-04_19-49-13_260595134347_rgbf000044-resize_0/000414_2014-06-04_19-49-13_260595134347_rgbf000044-resize_0-target.png,1000,4.329,10,4992,981,meters,jsons/v1_VE1000_randls_54.json,934523,1460773,32,Man
56,169549,DepthScenes,duration_manipulation_targetAtFixation,jsons/v1_VE1000_randls_54.json,http://54.235.29.9/FacialAge/BNav_EC2/DepthDuration/v2_depth_duration_MTurk/v2_DepthDuration_HTML.html#373,373,1366,768,1366,768,8-30-2022,6-56-18,57,depth_duration_stimuli/003129_2014-05-12_10-48-10_094959634447_rgbf000100-resize_0/003129_2014-05-12_10-48-10_094959634447_rgbf000100-resize_0-target.png,1000,4.9305,4,4553,1005,meters,jsons/v1_VE1000_randls_54.json,934523,1460773,32,Man
57,169549,DepthScenes,duration_manipulation_targetAtFixation,jsons/v1_VE1000_randls_54.json,http://54.235.29.9/FacialAge/BNav_EC2/DepthDuration/v2_depth_duration_MTurk/v2_DepthDuration_HTML.html#373,373,1366,768,1366,768,8-30-2022,6-56-18,58,depth_duration_stimuli/001092_2014-06-15_17-34-58_260595134347_rgbf000171-resize_3/001092_2014-06-15_17-34-58_260595134347_rgbf000171-resize_3-target.png,1000,2.6935,2,4269,995,meters,jsons/v1_VE1000_randls_54.json,934523,1460773,32,Man
58,169549,DepthScenes,duration_manipulation_targetAtFixation,jsons/v1_VE1000_randls_54.json,http://54.235.29.9/FacialAge/BNav_EC2/DepthDuration/v2_depth_duration_MTurk/v2_DepthDuration_HTML.html#373,373,1366,768,1366,768,8-30-2022,6-56-18,59,depth_duration_stimuli/002545_2014-06-24_13-38-53_094959634447_rgbf000080-resize_4/002545_2014-06-24_13-38-53_094959634447_rgbf000080-resize_4-target.png,1000,1.9205,3,4325,1010,meters,jsons/v1_VE1000_randls_54.json,934523,1460773,32,Man
59,169549,DepthScenes,duration_manipulation_targetAtFixation,jsons/v1_VE1000_randls_54.json,http://54.235.29.9/FacialAge/BNav_EC2/DepthDuration/v2_depth_duration_MTurk/v2_DepthDuration_HTML.html#373,373,1366,768,1366,768,8-30-2022,6-56-18,60,depth_duration_stimuli/003534_2014-05-22_15-06-10_094959634447_rgbf000102-resize_4/003534_2014-05-22_15-06-10_094959634447_rgbf000102-resize_4-target.png,1000,1.426,1,5046,1005,meters,jsons/v1_VE1000_randls_54.json,934523,1460773,32,Man
60,169549,DepthScenes,duration_manipulation_targetAtFixation,jsons/v1_VE1000_randls_54.json,http://54.235.29.9/FacialAge/BNav_EC2/DepthDuration/v2_depth_duration_MTurk/v2_DepthDuration_HTML.html#373,373,1366,768,1366,768,8-30-2022,6-56-18,61,depth_duration_stimuli/002637_2014-06-24_14-51-13_094959634447_rgbf000066-resize_4/002637_2014-06-24_14-51-13_094959634447_rgbf000066-resize_4-target.png,1000,1.9955,5,5650,993,meters,jsons/v1_VE1000_randls_54.json,934523,1460773,32,Man
61,169549,DepthScenes,duration_manipulation_targetAtFixation,jsons/v1_VE1000_randls_54.json,http://54.235.29.9/FacialAge/BNav_EC2/DepthDuration/v2_depth_duration_MTurk/v2_DepthDuration_HTML.html#373,373,1366,768,1366,768,8-30-2022,6-56-18,62,depth_duration_stimuli/001175_2014-06-17_15-45-55_260595134347_rgbf000129-resize_4/001175_2014-06-17_15-45-55_260595134347_rgbf000129-resize_4-target.png,1000,4.255,8,4859,1000,meters,jsons/v1_VE1000_randls_54.json,934523,1460773,32,Man
62,169549,DepthScenes,duration_manipulation_targetAtFixation,jsons/v1_VE1000_randls_54.json,http://54.235.29.9/FacialAge/BNav_EC2/DepthDuration/v2_depth_duration_MTurk/v2_DepthDuration_HTML.html#373,373,1366,768,1366,768,8-30-2022,6-56-18,63,depth_duration_stimuli/003490_2014-05-21_15-50-11_094959634447_rgbf000101-resize_3/003490_2014-05-21_15-50-11_094959634447_rgbf000101-resize_3-target.png,1000,3.6445,8,8261,1001,meters,jsons/v1_VE1000_randls_54.json,934523,1460773,32,Man
63,169549,DepthScenes,duration_manipulation_targetAtFixation,jsons/v1_VE1000_randls_54.json,http://54.235.29.9/FacialAge/BNav_EC2/DepthDuration/v2_depth_duration_MTurk/v2_DepthDuration_HTML.html#373,373,1366,768,1366,768,8-30-2022,6-56-18,64,depth_duration_stimuli/000447_2014-06-08_16-15-46_260595134347_rgbf000130-resize_1/000447_2014-06-08_16-15-46_260595134347_rgbf000130-resize_1-target.png,1000,4.479,4,7225,988,meters,jsons/v1_VE1000_randls_54.json,934523,1460773,32,Man
64,169549,DepthScenes,duration_manipulation_targetAtFixation,jsons/v1_VE1000_randls_54.json,http://54.235.29.9/FacialAge/BNav_EC2/DepthDuration/v2_depth_duration_MTurk/v2_DepthDuration_HTML.html#373,373,1366,768,1366,768,8-30-2022,6-56-18,65,depth_duration_stimuli/001447_2014-06-19_17-00-32_260595134347_rgbf000082-resize_5/001447_2014-06-19_17-00-32_260595134347_rgbf000082-resize_5-target.png,1000,4.13775,6,5666,986,meters,jsons/v1_VE1000_randls_54.json,934523,1460773,32,Man
65,169549,DepthScenes,duration_manipulation_targetAtFixation,jsons/v1_VE1000_randls_54.json,http://54.235.29.9/FacialAge/BNav_EC2/DepthDuration/v2_depth_duration_MTurk/v2_DepthDuration_HTML.html#373,373,1366,768,1366,768,8-30-2022,6-56-18,66,depth_duration_stimuli/001222_2014-06-17_16-24-06_260595134347_rgbf000073-resize_0/001222_2014-06-17_16-24-06_260595134347_rgbf000073-resize-original.jpg,1000,1.4385,0,6055,1008,meters,jsons/v1_VE1000_randls_54.json,934523,1460773,32,Man
66,169549,DepthScenes,duration_manipulation_targetAtFixation,jsons/v1_VE1000_randls_54.json,http://54.235.29.9/FacialAge/BNav_EC2/DepthDuration/v2_depth_duration_MTurk/v2_DepthDuration_HTML.html#373,373,1366,768,1366,768,8-30-2022,6-56-18,67,depth_duration_stimuli/001158_2014-06-17_15-32-16_260595134347_rgbf000138-resize_2/001158_2014-06-17_15-32-16_260595134347_rgbf000138-resize_2-target.png,1000,4.5315,0,5128,1006,meters,jsons/v1_VE1000_randls_54.json,934523,1460773,32,Man
67,169549,DepthScenes,duration_manipulation_targetAtFixation,jsons/v1_VE1000_randls_54.json,http://54.235.29.9/FacialAge/BNav_EC2/DepthDuration/v2_depth_duration_MTurk/v2_DepthDuration_HTML.html#373,373,1366,768,1366,768,8-30-2022,6-56-18,68,depth_duration_stimuli/000556_2014-06-09_22-42-56_260595134347_rgbf000214-resize_1/000556_2014-06-09_22-42-56_260595134347_rgbf000214-resize_1-target.png,1000,4.8415,8,6230,1004,meters,jsons/v1_VE1000_randls_54.json,934523,1460773,32,Man
68,169549,DepthScenes,duration_manipulation_targetAtFixation,jsons/v1_VE1000_randls_54.json,http://54.235.29.9/FacialAge/BNav_EC2/DepthDuration/v2_depth_duration_MTurk/v2_DepthDuration_HTML.html#373,373,1366,768,1366,768,8-30-2022,6-56-18,69,depth_duration_stimuli/002600_2014-06-24_14-27-04_094959634447_rgbf000074-resize_2/002600_2014-06-24_14-27-04_094959634447_rgbf000074-resize_2-target.png,1000,2.7575,4,4832,1012,meters,jsons/v1_VE1000_randls_54.json,934523,1460773,32,Man
69,169549,DepthScenes,duration_manipulation_targetAtFixation,jsons/v1_VE1000_randls_54.json,http://54.235.29.9/FacialAge/BNav_EC2/DepthDuration/v2_depth_duration_MTurk/v2_DepthDuration_HTML.html#373,373,1366,768,1366,768,8-30-2022,6-56-18,70,depth_duration_stimuli/003228_2014-05-14_13-42-35_094959634447_rgbf000101-resize_1/003228_2014-05-14_13-42-35_094959634447_rgbf000101-resize_1-target.png,1000,1.9680000000000002,2,8219,992,meters,jsons/v1_VE1000_randls_54.json,934523,1460773,32,Man
70,169549,DepthScenes,duration_manipulation_targetAtFixation,jsons/v1_VE1000_randls_54.json,http://54.235.29.9/FacialAge/BNav_EC2/DepthDuration/v2_depth_duration_MTurk/v2_DepthDuration_HTML.html#373,373,1366,768,1366,768,8-30-2022,6-56-18,71,depth_duration_stimuli/002788_2014-06-22_19-36-03_094959634447_rgbf000088-resize_2/002788_2014-06-22_19-36-03_094959634447_rgbf000088-resize_2-target.png,1000,1.6465,5,6168,1006,meters,jsons/v1_VE1000_randls_54.json,934523,1460773,32,Man
71,169549,DepthScenes,duration_manipulation_targetAtFixation,jsons/v1_VE1000_randls_54.json,http://54.235.29.9/FacialAge/BNav_EC2/DepthDuration/v2_depth_duration_MTurk/v2_DepthDuration_HTML.html#373,373,1366,768,1366,768,8-30-2022,6-56-18,72,depth_duration_stimuli/000749_2014-06-08_21-55-06_260595134347_rgbf000070-resize_2/000749_2014-06-08_21-55-06_260595134347_rgbf000070-resize_2-target.png,1000,2.331,4,5759,998,meters,jsons/v1_VE1000_randls_54.json,934523,1460773,32,Man
72,169549,DepthScenes,duration_manipulation_targetAtFixation,jsons/v1_VE1000_randls_54.json,http://54.235.29.9/FacialAge/BNav_EC2/DepthDuration/v2_depth_duration_MTurk/v2_DepthDuration_HTML.html#373,373,1366,768,1366,768,8-30-2022,6-56-18,73,depth_duration_stimuli/001016_2014-06-09_16-16-10_260595134347_rgbf000112-resize_5/001016_2014-06-09_16-16-10_260595134347_rgbf000112-resize_5-target.png,1000,1.6565,6,5880,1002,meters,jsons/v1_VE1000_randls_54.json,934523,1460773,32,Man
73,169549,DepthScenes,duration_manipulation_targetAtFixation,jsons/v1_VE1000_randls_54.json,http://54.235.29.9/FacialAge/BNav_EC2/DepthDuration/v2_depth_duration_MTurk/v2_DepthDuration_HTML.html#373,373,1366,768,1366,768,8-30-2022,6-56-18,74,depth_duration_stimuli/002340_2014-06-28_20-05-46_260595134347_rgbf000113-resize_0/002340_2014-06-28_20-05-46_260595134347_rgbf000113-resize_0-target.png,1000,2.4735,6,6165,1011,meters,jsons/v1_VE1000_randls_54.json,934523,1460773,32,Man
74,169549,DepthScenes,duration_manipulation_targetAtFixation,jsons/v1_VE1000_randls_54.json,http://54.235.29.9/FacialAge/BNav_EC2/DepthDuration/v2_depth_duration_MTurk/v2_DepthDuration_HTML.html#373,373,1366,768,1366,768,8-30-2022,6-56-18,75,depth_duration_stimuli/002549_2014-06-24_13-41-39_094959634447_rgbf000022-resize_3/002549_2014-06-24_13-41-39_094959634447_rgbf000022-resize_3-target.png,1000,1.476,5,6126,1005,meters,jsons/v1_VE1000_randls_54.json,934523,1460773,32,Man
75,169549,DepthScenes,duration_manipulation_targetAtFixation,jsons/v1_VE1000_randls_54.json,http://54.235.29.9/FacialAge/BNav_EC2/DepthDuration/v2_depth_duration_MTurk/v2_DepthDuration_HTML.html#373,373,1366,768,1366,768,8-30-2022,6-56-18,76,depth_duration_stimuli/002750_2014-06-22_19-08-03_094959634447_rgbf000094-resize_4/002750_2014-06-22_19-08-03_094959634447_rgbf000094-resize_4-target.png,1000,2.354,7,4881,1005,meters,jsons/v1_VE1000_randls_54.json,934523,1460773,32,Man
76,169549,DepthScenes,duration_manipulation_targetAtFixation,jsons/v1_VE1000_randls_54.json,http://54.235.29.9/FacialAge/BNav_EC2/DepthDuration/v2_depth_duration_MTurk/v2_DepthDuration_HTML.html#373,373,1366,768,1366,768,8-30-2022,6-56-18,77,depth_duration_stimuli/001029_2014-06-08_13-17-57_260595134347_rgbf000065-resize_1/001029_2014-06-08_13-17-57_260595134347_rgbf000065-resize_1-target.png,1000,3.0835,5,5354,997,meters,jsons/v1_VE1000_randls_54.json,934523,1460773,32,Man
77,169549,DepthScenes,duration_manipulation_targetAtFixation,jsons/v1_VE1000_randls_54.json,http://54.235.29.9/FacialAge/BNav_EC2/DepthDuration/v2_depth_duration_MTurk/v2_DepthDuration_HTML.html#373,373,1366,768,1366,768,8-30-2022,6-56-18,78,depth_duration_stimuli/000677_2014-06-08_23-10-32_260595134347_rgbf000158-resize_6/000677_2014-06-08_23-10-32_260595134347_rgbf000158-resize_6-target.png,1000,3.556,4,10903,993,meters,jsons/v1_VE1000_randls_54.json,934523,1460773,32,Man
78,169549,DepthScenes,duration_manipulation_targetAtFixation,jsons/v1_VE1000_randls_54.json,http://54.235.29.9/FacialAge/BNav_EC2/DepthDuration/v2_depth_duration_MTurk/v2_DepthDuration_HTML.html#373,373,1366,768,1366,768,8-30-2022,6-56-18,79,depth_duration_stimuli/003492_2014-05-21_15-50-55_094959634447_rgbf000828-resize_1/003492_2014-05-21_15-50-55_094959634447_rgbf000828-resize_1-target.png,1000,4.06875,8,6180,1004,meters,jsons/v1_VE1000_randls_54.json,934523,1460773,32,Man
79,169549,DepthScenes,duration_manipulation_targetAtFixation,jsons/v1_VE1000_randls_54.json,http://54.235.29.9/FacialAge/BNav_EC2/DepthDuration/v2_depth_duration_MTurk/v2_DepthDuration_HTML.html#373,373,1366,768,1366,768,8-30-2022,6-56-18,80,depth_duration_stimuli/002568_2014-06-24_13-59-21_094959634447_rgbf000062-resize_4/002568_2014-06-24_13-59-21_094959634447_rgbf000062-resize_4-target.png,1000,3.015,10,6385,988,meters,jsons/v1_VE1000_randls_54.json,934523,1460773,32,Man
80,169549,DepthScenes,duration_manipulation_targetAtFixation,jsons/v1_VE1000_randls_54.json,http://54.235.29.9/FacialAge/BNav_EC2/DepthDuration/v2_depth_duration_MTurk/v2_DepthDuration_HTML.html#373,373,1366,768,1366,768,8-30-2022,6-56-18,81,depth_duration_stimuli/001164_2014-06-17_15-35-46_260595134347_rgbf000085-resize_3/001164_2014-06-17_15-35-46_260595134347_rgbf000085-resize_3-target.png,1000,2.354,8,6469,994,meters,jsons/v1_VE1000_randls_54.json,934523,1460773,32,Man
81,169549,DepthScenes,duration_manipulation_targetAtFixation,jsons/v1_VE1000_randls_54.json,http://54.235.29.9/FacialAge/BNav_EC2/DepthDuration/v2_depth_duration_MTurk/v2_DepthDuration_HTML.html#373,373,1366,768,1366,768,8-30-2022,6-56-18,82,depth_duration_stimuli/001136_2014-06-17_15-19-41_260595134347_rgbf000076-resize_3/001136_2014-06-17_15-19-41_260595134347_rgbf000076-resize_3-target.png,1000,1.8655,6,6264,995,meters,jsons/v1_VE1000_randls_54.json,934523,1460773,32,Man
82,169549,DepthScenes,duration_manipulation_targetAtFixation,jsons/v1_VE1000_randls_54.json,http://54.235.29.9/FacialAge/BNav_EC2/DepthDuration/v2_depth_duration_MTurk/v2_DepthDuration_HTML.html#373,373,1366,768,1366,768,8-30-2022,6-56-18,83,depth_duration_stimuli/000506_2014-06-08_23-21-00_260595134347_rgbf000070-resize_7/000506_2014-06-08_23-21-00_260595134347_rgbf000070-resize_7-target.png,1000,4.0585,7,6361,1004,meters,jsons/v1_VE1000_randls_54.json,934523,1460773,32,Man
83,169549,DepthScenes,duration_manipulation_targetAtFixation,jsons/v1_VE1000_randls_54.json,http://54.235.29.9/FacialAge/BNav_EC2/DepthDuration/v2_depth_duration_MTurk/v2_DepthDuration_HTML.html#373,373,1366,768,1366,768,8-30-2022,6-56-18,84,depth_duration_stimuli/003079_2014-06-15_15-18-20_094959634447_rgbf000152-resize_8/003079_2014-06-15_15-18-20_094959634447_rgbf000152-resize_8-target.png,1000,2.8775,12,6095,1010,meters,jsons/v1_VE1000_randls_54.json,934523,1460773,32,Man
84,169549,DepthScenes,duration_manipulation_targetAtFixation,jsons/v1_VE1000_randls_54.json,http://54.235.29.9/FacialAge/BNav_EC2/DepthDuration/v2_depth_duration_MTurk/v2_DepthDuration_HTML.html#373,373,1366,768,1366,768,8-30-2022,6-56-18,85,depth_duration_stimuli/002964_2014-06-08_17-46-11_094959634447_rgbf000091-resize_4/002964_2014-06-08_17-46-11_094959634447_rgbf000091-resize_4-target.png,1000,1.6909999999999998,1,4755,987,meters,jsons/v1_VE1000_randls_54.json,934523,1460773,32,Man
85,169549,DepthScenes,duration_manipulation_targetAtFixation,jsons/v1_VE1000_randls_54.json,http://54.235.29.9/FacialAge/BNav_EC2/DepthDuration/v2_depth_duration_MTurk/v2_DepthDuration_HTML.html#373,373,1366,768,1366,768,8-30-2022,6-56-18,86,depth_duration_stimuli/002136_2014-06-25_21-18-03_260595134347_rgbf000109-resize_3/002136_2014-06-25_21-18-03_260595134347_rgbf000109-resize_3-target.png,1000,1.9569999999999999,2,5930,985,meters,jsons/v1_VE1000_randls_54.json,934523,1460773,32,Man
86,169549,DepthScenes,duration_manipulation_targetAtFixation,jsons/v1_VE1000_randls_54.json,http://54.235.29.9/FacialAge/BNav_EC2/DepthDuration/v2_depth_duration_MTurk/v2_DepthDuration_HTML.html#373,373,1366,768,1366,768,8-30-2022,6-56-18,87,depth_duration_stimuli/002725_2014-06-22_11-47-51_094959634447_rgbf000070-resize_1/002725_2014-06-22_11-47-51_094959634447_rgbf000070-resize_1-target.png,1000,2.195,8,11364,1005,meters,jsons/v1_VE1000_randls_54.json,934523,1460773,32,Man
87,169549,DepthScenes,duration_manipulation_targetAtFixation,jsons/v1_VE1000_randls_54.json,http://54.235.29.9/FacialAge/BNav_EC2/DepthDuration/v2_depth_duration_MTurk/v2_DepthDuration_HTML.html#373,373,1366,768,1366,768,8-30-2022,6-56-18,88,depth_duration_stimuli/002344_2014-06-28_20-06-29_260595134347_rgbf000030-resize_1/002344_2014-06-28_20-06-29_260595134347_rgbf000030-resize_1-target.png,1000,1.5795,1,4762,999,meters,jsons/v1_VE1000_randls_54.json,934523,1460773,32,Man
88,169549,DepthScenes,duration_manipulation_targetAtFixation,jsons/v1_VE1000_randls_54.json,http://54.235.29.9/FacialAge/BNav_EC2/DepthDuration/v2_depth_duration_MTurk/v2_DepthDuration_HTML.html#373,373,1366,768,1366,768,8-30-2022,6-56-18,89,depth_duration_stimuli/001011_2014-06-08_23-18-54_260595134347_rgbf000044-resize_4/001011_2014-06-08_23-18-54_260595134347_rgbf000044-resize_4-target.png,1000,2.4730000000000003,7,5615,1005,meters,jsons/v1_VE1000_randls_54.json,934523,1460773,32,Man
89,169549,DepthScenes,duration_manipulation_targetAtFixation,jsons/v1_VE1000_randls_54.json,http://54.235.29.9/FacialAge/BNav_EC2/DepthDuration/v2_depth_duration_MTurk/v2_DepthDuration_HTML.html#373,373,1366,768,1366,768,8-30-2022,6-56-18,90,depth_duration_stimuli/002875_2014-06-01_15-19-00_094959634447_rgbf000151-resize_1/002875_2014-06-01_15-19-00_094959634447_rgbf000151-resize_1-target.png,1000,1.9675,6,5866,1002,meters,jsons/v1_VE1000_randls_54.json,934523,1460773,32,Man
90,169549,DepthScenes,duration_manipulation_targetAtFixation,jsons/v1_VE1000_randls_54.json,http://54.235.29.9/FacialAge/BNav_EC2/DepthDuration/v2_depth_duration_MTurk/v2_DepthDuration_HTML.html#373,373,1366,768,1366,768,8-30-2022,6-56-18,91,depth_duration_stimuli/003621_2014-05-23_18-06-08_094959634447_rgbf000101-resize_1/003621_2014-05-23_18-06-08_094959634447_rgbf000101-resize_1-target.png,1000,3.9835,9,5150,1002,meters,jsons/v1_VE1000_randls_54.json,934523,1460773,32,Man
91,169549,DepthScenes,duration_manipulation_targetAtFixation,jsons/v1_VE1000_randls_54.json,http://54.235.29.9/FacialAge/BNav_EC2/DepthDuration/v2_depth_duration_MTurk/v2_DepthDuration_HTML.html#373,373,1366,768,1366,768,8-30-2022,6-56-18,92,depth_duration_stimuli/001584_2014-06-20_11-07-43_260595134347_rgbf000002-resize_1/001584_2014-06-20_11-07-43_260595134347_rgbf000002-resize_1-target.png,1000,3.53,4,4822,1003,meters,jsons/v1_VE1000_randls_54.json,934523,1460773,32,Man
92,169549,DepthScenes,duration_manipulation_targetAtFixation,jsons/v1_VE1000_randls_54.json,http://54.235.29.9/FacialAge/BNav_EC2/DepthDuration/v2_depth_duration_MTurk/v2_DepthDuration_HTML.html#373,373,1366,768,1366,768,8-30-2022,6-56-18,93,depth_duration_stimuli/000739_2014-06-08_18-45-58_260595134347_rgbf000068-resize_1/000739_2014-06-08_18-45-58_260595134347_rgbf000068-resize_1-target.png,1000,3.534,5,5071,998,meters,jsons/v1_VE1000_randls_54.json,934523,1460773,32,Man
93,169549,DepthScenes,duration_manipulation_targetAtFixation,jsons/v1_VE1000_randls_54.json,http://54.235.29.9/FacialAge/BNav_EC2/DepthDuration/v2_depth_duration_MTurk/v2_DepthDuration_HTML.html#373,373,1366,768,1366,768,8-30-2022,6-56-18,94,depth_duration_stimuli/000734_2014-06-08_17-39-11_260595134347_rgbf000128-resize_2/000734_2014-06-08_17-39-11_260595134347_rgbf000128-resize_2-target.png,1000,4.098,5,13314,1004,meters,jsons/v1_VE1000_randls_54.json,934523,1460773,32,Man
94,169549,DepthScenes,duration_manipulation_targetAtFixation,jsons/v1_VE1000_randls_54.json,http://54.235.29.9/FacialAge/BNav_EC2/DepthDuration/v2_depth_duration_MTurk/v2_DepthDuration_HTML.html#373,373,1366,768,1366,768,8-30-2022,6-56-18,95,depth_duration_stimuli/002763_2014-06-22_19-13-10_094959634447_rgbf000075-resize_4/002763_2014-06-22_19-13-10_094959634447_rgbf000075-resize_4-target.png,1000,1.68375,6,8375,996,meters,jsons/v1_VE1000_randls_54.json,934523,1460773,32,Man
95,169549,DepthScenes,duration_manipulation_targetAtFixation,jsons/v1_VE1000_randls_54.json,http://54.235.29.9/FacialAge/BNav_EC2/DepthDuration/v2_depth_duration_MTurk/v2_DepthDuration_HTML.html#373,373,1366,768,1366,768,8-30-2022,6-56-18,96,depth_duration_stimuli/002209_2014-06-28_18-36-10_260595134347_rgbf000051-resize_1/002209_2014-06-28_18-36-10_260595134347_rgbf000051-resize_1-target.png,1000,2.057,5,5204,999,meters,jsons/v1_VE1000_randls_54.json,934523,1460773,32,Man
96,169549,DepthScenes,duration_manipulation_targetAtFixation,jsons/v1_VE1000_randls_54.json,http://54.235.29.9/FacialAge/BNav_EC2/DepthDuration/v2_depth_duration_MTurk/v2_DepthDuration_HTML.html#373,373,1366,768,1366,768,8-30-2022,6-56-18,97,depth_duration_stimuli/002118_2014-06-25_20-32-08_260595134347_rgbf000078-resize_1/002118_2014-06-25_20-32-08_260595134347_rgbf000078-resize_1-target.png,1000,2.6460000000000004,6,5841,997,meters,jsons/v1_VE1000_randls_54.json,934523,1460773,32,Man
97,169549,DepthScenes,duration_manipulation_targetAtFixation,jsons/v1_VE1000_randls_54.json,http://54.235.29.9/FacialAge/BNav_EC2/DepthDuration/v2_depth_duration_MTurk/v2_DepthDuration_HTML.html#373,373,1366,768,1366,768,8-30-2022,6-56-18,98,depth_duration_stimuli/001516_2014-06-20_16-25-09_260595134347_rgbf000076-resize_2/001516_2014-06-20_16-25-09_260595134347_rgbf000076-resize_2-target.png,1000,1.7445,7,5357,999,meters,jsons/v1_VE1000_randls_54.json,934523,1460773,32,Man
98,169549,DepthScenes,duration_manipulation_targetAtFixation,jsons/v1_VE1000_randls_54.json,http://54.235.29.9/FacialAge/BNav_EC2/DepthDuration/v2_depth_duration_MTurk/v2_DepthDuration_HTML.html#373,373,1366,768,1366,768,8-30-2022,6-56-18,99,depth_duration_stimuli/001540_2014-06-20_17-01-05_260595134347_rgbf000086-resize_2/001540_2014-06-20_17-01-05_260595134347_rgbf000086-resize-original.jpg,1000,1.459,0,4200,995,meters,jsons/v1_VE1000_randls_54.json,934523,1460773,32,Man
99,169549,DepthScenes,duration_manipulation_targetAtFixation,jsons/v1_VE1000_randls_54.json,http://54.235.29.9/FacialAge/BNav_EC2/DepthDuration/v2_depth_duration_MTurk/v2_DepthDuration_HTML.html#373,373,1366,768,1366,768,8-30-2022,6-56-18,100,depth_duration_stimuli/000436_2014-06-09_22-25-11_260595134347_rgbf000137-resize_1/000436_2014-06-09_22-25-11_260595134347_rgbf000137-resize_1-target.png,1000,4.0705,5,6851,995,meters,jsons/v1_VE1000_randls_54.json,934523,1460773,32,Man
100,169549,DepthScenes,duration_manipulation_targetAtFixation,jsons/v1_VE1000_randls_54.json,http://54.235.29.9/FacialAge/BNav_EC2/DepthDuration/v2_depth_duration_MTurk/v2_DepthDuration_HTML.html#373,373,1366,768,1366,768,8-30-2022,6-56-18,101,depth_duration_stimuli/002444_2014-06-28_20-32-08_260595134347_rgbf000027-resize_0/002444_2014-06-28_20-32-08_260595134347_rgbf000027-resize_0-target.png,1000,4.388999999999999,8,4451,996,meters,jsons/v1_VE1000_randls_54.json,934523,1460773,32,Man
101,169549,DepthScenes,duration_manipulation_targetAtFixation,jsons/v1_VE1000_randls_54.json,http://54.235.29.9/FacialAge/BNav_EC2/DepthDuration/v2_depth_duration_MTurk/v2_DepthDuration_HTML.html#373,373,1366,768,1366,768,8-30-2022,6-56-18,102,depth_duration_stimuli/001110_2014-06-15_17-25-28_260595134347_rgbf000150-resize_1/001110_2014-06-15_17-25-28_260595134347_rgbf000150-resize_1-target.png,1000,1.7115,8,4482,1006,meters,jsons/v1_VE1000_randls_54.json,934523,1460773,32,Man
102,169549,DepthScenes,duration_manipulation_targetAtFixation,jsons/v1_VE1000_randls_54.json,http://54.235.29.9/FacialAge/BNav_EC2/DepthDuration/v2_depth_duration_MTurk/v2_DepthDuration_HTML.html#373,373,1366,768,1366,768,8-30-2022,6-56-18,103,depth_duration_stimuli/000927_2014-06-09_16-32-30_260595134347_rgbf000123-resize_3/000927_2014-06-09_16-32-30_260595134347_rgbf000123-resize_3-target.png,1000,2.6785,9,6660,997,meters,jsons/v1_VE1000_randls_54.json,934523,1460773,32,Man
103,169549,DepthScenes,duration_manipulation_targetAtFixation,jsons/v1_VE1000_randls_54.json,http://54.235.29.9/FacialAge/BNav_EC2/DepthDuration/v2_depth_duration_MTurk/v2_DepthDuration_HTML.html#373,373,1366,768,1366,768,8-30-2022,6-56-18,104,depth_duration_stimuli/002989_2014-06-15_12-25-03_094959634447_rgbf000150-resize_3/002989_2014-06-15_12-25-03_094959634447_rgbf000150-resize_3-target.png,1000,4.1975,14,6066,1005,meters,jsons/v1_VE1000_randls_54.json,934523,1460773,32,Man
104,169549,DepthScenes,duration_manipulation_targetAtFixation,jsons/v1_VE1000_randls_54.json,http://54.235.29.9/FacialAge/BNav_EC2/DepthDuration/v2_depth_duration_MTurk/v2_DepthDuration_HTML.html#373,373,1366,768,1366,768,8-30-2022,6-56-18,105,depth_duration_stimuli/000866_2014-06-09_20-45-42_260595134347_rgbf000139-resize_1/000866_2014-06-09_20-45-42_260595134347_rgbf000139-resize_1-target.png,1000,3.2155,7,5925,989,meters,jsons/v1_VE1000_randls_54.json,934523,1460773,32,Man
105,169549,DepthScenes,duration_manipulation_targetAtFixation,jsons/v1_VE1000_randls_54.json,http://54.235.29.9/FacialAge/BNav_EC2/DepthDuration/v2_depth_duration_MTurk/v2_DepthDuration_HTML.html#373,373,1366,768,1366,768,8-30-2022,6-56-18,106,depth_duration_stimuli/000522_2014-06-08_13-35-06_260595134347_rgbf000244-resize_1/000522_2014-06-08_13-35-06_260595134347_rgbf000244-resize_1-target.png,1000,2.3715,2,4071,1002,meters,jsons/v1_VE1000_randls_54.json,934523,1460773,32,Man
106,169549,DepthScenes,duration_manipulation_targetAtFixation,jsons/v1_VE1000_randls_54.json,http://54.235.29.9/FacialAge/BNav_EC2/DepthDuration/v2_depth_duration_MTurk/v2_DepthDuration_HTML.html#373,373,1366,768,1366,768,8-30-2022,6-56-18,107,depth_duration_stimuli/002949_2014-06-26_15-57-42_094959634447_rgbf000079-resize_1/002949_2014-06-26_15-57-42_094959634447_rgbf000079-resize_1-target.png,1000,1.8915,4,4213,1013,meters,jsons/v1_VE1000_randls_54.json,934523,1460773,32,Man
107,169549,DepthScenes,duration_manipulation_targetAtFixation,jsons/v1_VE1000_randls_54.json,http://54.235.29.9/FacialAge/BNav_EC2/DepthDuration/v2_depth_duration_MTurk/v2_DepthDuration_HTML.html#373,373,1366,768,1366,768,8-30-2022,6-56-18,108,depth_duration_stimuli/002663_2014-06-13_15-50-26_094959634447_rgbf000075-resize_1/002663_2014-06-13_15-50-26_094959634447_rgbf000075-resize_1-target.png,1000,4.7495,6,4303,1001,meters,jsons/v1_VE1000_randls_54.json,934523,1460773,32,Man
108,169549,DepthScenes,duration_manipulation_targetAtFixation,jsons/v1_VE1000_randls_54.json,http://54.235.29.9/FacialAge/BNav_EC2/DepthDuration/v2_depth_duration_MTurk/v2_DepthDuration_HTML.html#373,373,1366,768,1366,768,8-30-2022,6-56-18,109,depth_duration_stimuli/000409_2014-06-04_19-23-33_260595134347_rgbf000067-resize_0/000409_2014-06-04_19-23-33_260595134347_rgbf000067-resize_0-target.png,1000,3.7335,5,4652,990,meters,jsons/v1_VE1000_randls_54.json,934523,1460773,32,Man
109,169549,DepthScenes,duration_manipulation_targetAtFixation,jsons/v1_VE1000_randls_54.json,http://54.235.29.9/FacialAge/BNav_EC2/DepthDuration/v2_depth_duration_MTurk/v2_DepthDuration_HTML.html#373,373,1366,768,1366,768,8-30-2022,6-56-18,110,depth_duration_stimuli/002988_2014-06-15_12-24-20_094959634447_rgbf000150-resize_1/002988_2014-06-15_12-24-20_094959634447_rgbf000150-resize_1-target.png,1000,4.7669999999999995,4,4896,1004,meters,jsons/v1_VE1000_randls_54.json,934523,1460773,32,Man
110,169549,DepthScenes,duration_manipulation_targetAtFixation,jsons/v1_VE1000_randls_54.json,http://54.235.29.9/FacialAge/BNav_EC2/DepthDuration/v2_depth_duration_MTurk/v2_DepthDuration_HTML.html#373,373,1366,768,1366,768,8-30-2022,6-56-18,111,depth_duration_stimuli/001052_2014-06-08_18-24-54_260595134347_rgbf000130-resize_1/001052_2014-06-08_18-24-54_260595134347_rgbf000130-resize_1-target.png,1000,4.1045,7,4100,1000,meters,jsons/v1_VE1000_randls_54.json,934523,1460773,32,Man
111,169549,DepthScenes,duration_manipulation_targetAtFixation,jsons/v1_VE1000_randls_54.json,http://54.235.29.9/FacialAge/BNav_EC2/DepthDuration/v2_depth_duration_MTurk/v2_DepthDuration_HTML.html#373,373,1366,768,1366,768,8-30-2022,6-56-18,112,depth_duration_stimuli/001150_2014-06-17_15-27-34_260595134347_rgbf000108-resize_2/001150_2014-06-17_15-27-34_260595134347_rgbf000108-resize_2-target.png,1000,4.0325,9,4337,999,meters,jsons/v1_VE1000_randls_54.json,934523,1460773,32,Man
112,169549,DepthScenes,duration_manipulation_targetAtFixation,jsons/v1_VE1000_randls_54.json,http://54.235.29.9/FacialAge/BNav_EC2/DepthDuration/v2_depth_duration_MTurk/v2_DepthDuration_HTML.html#373,373,1366,768,1366,768,8-30-2022,6-56-18,113,depth_duration_stimuli/000665_2014-06-09_20-42-35_260595134347_rgbf000110-resize_1/000665_2014-06-09_20-42-35_260595134347_rgbf000110-resize_1-target.png,1000,3.057,12,5000,1007,meters,jsons/v1_VE1000_randls_54.json,934523,1460773,32,Man
113,169549,DepthScenes,duration_manipulation_targetAtFixation,jsons/v1_VE1000_randls_54.json,http://54.235.29.9/FacialAge/BNav_EC2/DepthDuration/v2_depth_duration_MTurk/v2_DepthDuration_HTML.html#373,373,1366,768,1366,768,8-30-2022,6-56-18,114,depth_duration_stimuli/002039_2014-06-24_20-22-38_260595134347_rgbf000084-resize_1/002039_2014-06-24_20-22-38_260595134347_rgbf000084-resize_1-target.png,1000,4.408,4,5179,991,meters,jsons/v1_VE1000_randls_54.json,934523,1460773,32,Man
114,169549,DepthScenes,duration_manipulation_targetAtFixation,jsons/v1_VE1000_randls_54.json,http://54.235.29.9/FacialAge/BNav_EC2/DepthDuration/v2_depth_duration_MTurk/v2_DepthDuration_HTML.html#373,373,1366,768,1366,768,8-30-2022,6-56-18,115,depth_duration_stimuli/002103_2014-06-25_20-00-40_260595134347_rgbf000049-resize_0/002103_2014-06-25_20-00-40_260595134347_rgbf000049-resize_0-target.png,1000,4.105,6,5031,1000,meters,jsons/v1_VE1000_randls_54.json,934523,1460773,32,Man
115,169549,DepthScenes,duration_manipulation_targetAtFixation,jsons/v1_VE1000_randls_54.json,http://54.235.29.9/FacialAge/BNav_EC2/DepthDuration/v2_depth_duration_MTurk/v2_DepthDuration_HTML.html#373,373,1366,768,1366,768,8-30-2022,6-56-18,116,depth_duration_stimuli/001170_2014-06-17_15-43-44_260595134347_rgbf000096-resize_6/001170_2014-06-17_15-43-44_260595134347_rgbf000096-resize-original.jpg,1000,1.1909999999999998,0,3772,998,meters,jsons/v1_VE1000_randls_54.json,934523,1460773,32,Man
116,169549,DepthScenes,duration_manipulation_targetAtFixation,jsons/v1_VE1000_randls_54.json,http://54.235.29.9/FacialAge/BNav_EC2/DepthDuration/v2_depth_duration_MTurk/v2_DepthDuration_HTML.html#373,373,1366,768,1366,768,8-30-2022,6-56-18,117,depth_duration_stimuli/000810_2014-06-08_17-20-01_260595134347_rgbf000105-resize_0/000810_2014-06-08_17-20-01_260595134347_rgbf000105-resize_0-target.png,1000,1.4865,6,4571,994,meters,jsons/v1_VE1000_randls_54.json,934523,1460773,32,Man
117,169549,DepthScenes,duration_manipulation_targetAtFixation,jsons/v1_VE1000_randls_54.json,http://54.235.29.9/FacialAge/BNav_EC2/DepthDuration/v2_depth_duration_MTurk/v2_DepthDuration_HTML.html#373,373,1366,768,1366,768,8-30-2022,6-56-18,118,depth_duration_stimuli/001214_2014-06-17_16-13-55_260595134347_rgbf000111-resize_0/001214_2014-06-17_16-13-55_260595134347_rgbf000111-resize_0-target.png,1000,2.6505,5,4011,999,meters,jsons/v1_VE1000_randls_54.json,934523,1460773,32,Man
118,169549,DepthScenes,duration_manipulation_targetAtFixation,jsons/v1_VE1000_randls_54.json,http://54.235.29.9/FacialAge/BNav_EC2/DepthDuration/v2_depth_duration_MTurk/v2_DepthDuration_HTML.html#373,373,1366,768,1366,768,8-30-2022,6-56-18,119,depth_duration_stimuli/000917_2014-06-09_22-45-29_260595134347_rgbf000149-resize_3/000917_2014-06-09_22-45-29_260595134347_rgbf000149-resize_3-target.png,1000,4.1865,7,4010,1009,meters,jsons/v1_VE1000_randls_54.json,934523,1460773,32,Man
119,169549,DepthScenes,duration_manipulation_targetAtFixation,jsons/v1_VE1000_randls_54.json,http://54.235.29.9/FacialAge/BNav_EC2/DepthDuration/v2_depth_duration_MTurk/v2_DepthDuration_HTML.html#373,373,1366,768,1366,768,8-30-2022,6-56-18,120,depth_duration_stimuli/002323_2014-06-28_20-01-54_260595134347_rgbf000051-resize_4/002323_2014-06-28_20-01-54_260595134347_rgbf000051-resize_4-target.png,1000,3.7310000000000003,9,4625,986,meters,jsons/v1_VE1000_randls_54.json,934523,1460773,32,Man
120,169549,DepthScenes,duration_manipulation_targetAtFixation,jsons/v1_VE1000_randls_54.json,http://54.235.29.9/FacialAge/BNav_EC2/DepthDuration/v2_depth_duration_MTurk/v2_DepthDuration_HTML.html#373,373,1366,768,1366,768,8-30-2022,6-56-18,121,depth_duration_stimuli/001555_2014-06-20_17-12-10_260595134347_rgbf000065-resize_4/001555_2014-06-20_17-12-10_260595134347_rgbf000065-resize_4-target.png,1000,1.633,1,4064,999,meters,jsons/v1_VE1000_randls_54.json,934523,1460773,32,Man
121,169549,DepthScenes,duration_manipulation_targetAtFixation,jsons/v1_VE1000_randls_54.json,http://54.235.29.9/FacialAge/BNav_EC2/DepthDuration/v2_depth_duration_MTurk/v2_DepthDuration_HTML.html#373,373,1366,768,1366,768,8-30-2022,6-56-18,122,depth_duration_stimuli/000103_2014-05-14_22-01-17_260595134347_rgbf000152-resize_5/000103_2014-05-14_22-01-17_260595134347_rgbf000152-resize_5-target.png,1000,1.993,6,5128,1008,meters,jsons/v1_VE1000_randls_54.json,934523,1460773,32,Man
122,169549,DepthScenes,duration_manipulation_targetAtFixation,jsons/v1_VE1000_randls_54.json,http://54.235.29.9/FacialAge/BNav_EC2/DepthDuration/v2_depth_duration_MTurk/v2_DepthDuration_HTML.html#373,373,1366,768,1366,768,8-30-2022,6-56-18,123,depth_duration_stimuli/002213_2014-06-28_18-37-58_260595134347_rgbf000055-resize_1/002213_2014-06-28_18-37-58_260595134347_rgbf000055-resize_1-target.png,1000,3.62,8,4173,999,meters,jsons/v1_VE1000_randls_54.json,934523,1460773,32,Man
123,169549,DepthScenes,duration_manipulation_targetAtFixation,jsons/v1_VE1000_randls_54.json,http://54.235.29.9/FacialAge/BNav_EC2/DepthDuration/v2_depth_duration_MTurk/v2_DepthDuration_HTML.html#373,373,1366,768,1366,768,8-30-2022,6-56-18,124,depth_duration_stimuli/000691_2014-06-08_13-08-50_260595134347_rgbf000132-resize_3/000691_2014-06-08_13-08-50_260595134347_rgbf000132-resize_3-target.png,1000,4.1530000000000005,9,4174,994,meters,jsons/v1_VE1000_randls_54.json,934523,1460773,32,Man
124,169549,DepthScenes,duration_manipulation_targetAtFixation,jsons/v1_VE1000_randls_54.json,http://54.235.29.9/FacialAge/BNav_EC2/DepthDuration/v2_depth_duration_MTurk/v2_DepthDuration_HTML.html#373,373,1366,768,1366,768,8-30-2022,6-56-18,125,depth_duration_stimuli/000878_2014-06-08_22-52-45_260595134347_rgbf000045-resize_2/000878_2014-06-08_22-52-45_260595134347_rgbf000045-resize_2-target.png,1000,2.092,8,4243,1003,meters,jsons/v1_VE1000_randls_54.json,934523,1460773,32,Man
125,169549,DepthScenes,duration_manipulation_targetAtFixation,jsons/v1_VE1000_randls_54.json,http://54.235.29.9/FacialAge/BNav_EC2/DepthDuration/v2_depth_duration_MTurk/v2_DepthDuration_HTML.html#373,373,1366,768,1366,768,8-30-2022,6-56-18,126,depth_duration_stimuli/002953_2014-06-08_17-32-18_094959634447_rgbf000059-resize_5/002953_2014-06-08_17-32-18_094959634447_rgbf000059-resize_5-target.png,1000,1.551,6,5356,1003,meters,jsons/v1_VE1000_randls_54.json,934523,1460773,32,Man
126,169549,DepthScenes,duration_manipulation_targetAtFixation,jsons/v1_VE1000_randls_54.json,http://54.235.29.9/FacialAge/BNav_EC2/DepthDuration/v2_depth_duration_MTurk/v2_DepthDuration_HTML.html#373,373,1366,768,1366,768,8-30-2022,6-56-18,127,depth_duration_stimuli/001059_2014-06-08_21-53-27_260595134347_rgbf000061-resize_4/001059_2014-06-08_21-53-27_260595134347_rgbf000061-resize_4-target.png,1000,2.4185,8,4514,987,meters,jsons/v1_VE1000_randls_54.json,934523,1460773,32,Man
127,169549,DepthScenes,duration_manipulation_targetAtFixation,jsons/v1_VE1000_randls_54.json,http://54.235.29.9/FacialAge/BNav_EC2/DepthDuration/v2_depth_duration_MTurk/v2_DepthDuration_HTML.html#373,373,1366,768,1366,768,8-30-2022,6-56-18,128,depth_duration_stimuli/001032_2014-06-08_13-23-17_260595134347_rgbf000021-resize_3/001032_2014-06-08_13-23-17_260595134347_rgbf000021-resize_3-target.png,1000,3.2725,10,4238,999,meters,jsons/v1_VE1000_randls_54.json,934523,1460773,32,Man
128,169549,DepthScenes,duration_manipulation_targetAtFixation,jsons/v1_VE1000_randls_54.json,http://54.235.29.9/FacialAge/BNav_EC2/DepthDuration/v2_depth_duration_MTurk/v2_DepthDuration_HTML.html#373,373,1366,768,1366,768,8-30-2022,6-56-18,129,depth_duration_stimuli/001167_2014-06-17_15-38-07_260595134347_rgbf000108-resize_0/001167_2014-06-17_15-38-07_260595134347_rgbf000108-resize_0-target.png,1000,1.8505,4,4248,994,meters,jsons/v1_VE1000_randls_54.json,934523,1460773,32,Man
129,169549,DepthScenes,duration_manipulation_targetAtFixation,jsons/v1_VE1000_randls_54.json,http://54.235.29.9/FacialAge/BNav_EC2/DepthDuration/v2_depth_duration_MTurk/v2_DepthDuration_HTML.html#373,373,1366,768,1366,768,8-30-2022,6-56-18,130,depth_duration_stimuli/003587_2014-05-23_16-48-02_094959634447_rgbf002384-resize_2/003587_2014-05-23_16-48-02_094959634447_rgbf002384-resize_2-target.png,1000,1.357,2,4260,1010,meters,jsons/v1_VE1000_randls_54.json,934523,1460773,32,Man
130,169549,DepthScenes,duration_manipulation_targetAtFixation,jsons/v1_VE1000_randls_54.json,http://54.235.29.9/FacialAge/BNav_EC2/DepthDuration/v2_depth_duration_MTurk/v2_DepthDuration_HTML.html#373,373,1366,768,1366,768,8-30-2022,6-56-18,131,depth_duration_stimuli/000009_2014-05-26_14-32-05_260595134347_rgbf000034-resize_3/000009_2014-05-26_14-32-05_260595134347_rgbf000034-resize_3-target.png,1000,3.8715,10,5126,1005,meters,jsons/v1_VE1000_randls_54.json,934523,1460773,32,Man
131,169549,DepthScenes,duration_manipulation_targetAtFixation,jsons/v1_VE1000_randls_54.json,http://54.235.29.9/FacialAge/BNav_EC2/DepthDuration/v2_depth_duration_MTurk/v2_DepthDuration_HTML.html#373,373,1366,768,1366,768,8-30-2022,6-56-18,132,depth_duration_stimuli/001828_2014-06-26_21-40-03_260595134347_rgbf000024-resize_0/001828_2014-06-26_21-40-03_260595134347_rgbf000024-resize_0-target.png,1000,4.8260000000000005,10,3989,1005,meters,jsons/v1_VE1000_randls_54.json,934523,1460773,32,Man
132,169549,DepthScenes,duration_manipulation_targetAtFixation,jsons/v1_VE1000_randls_54.json,http://54.235.29.9/FacialAge/BNav_EC2/DepthDuration/v2_depth_duration_MTurk/v2_DepthDuration_HTML.html#373,373,1366,768,1366,768,8-30-2022,6-56-18,133,depth_duration_stimuli/001199_2014-06-17_16-03-48_260595134347_rgbf000077-resize_0/001199_2014-06-17_16-03-48_260595134347_rgbf000077-resize_0-target.png,1000,3.4375,6,7296,1007,meters,jsons/v1_VE1000_randls_54.json,934523,1460773,32,Man
133,169549,DepthScenes,duration_manipulation_targetAtFixation,jsons/v1_VE1000_randls_54.json,http://54.235.29.9/FacialAge/BNav_EC2/DepthDuration/v2_depth_duration_MTurk/v2_DepthDuration_HTML.html#373,373,1366,768,1366,768,8-30-2022,6-56-18,134,depth_duration_stimuli/000502_2014-06-08_23-02-32_260595134347_rgbf000063-resize_4/000502_2014-06-08_23-02-32_260595134347_rgbf000063-resize_4-target.png,1000,2.431,3,5010,1009,meters,jsons/v1_VE1000_randls_54.json,934523,1460773,32,Man
134,169549,DepthScenes,duration_manipulation_targetAtFixation,jsons/v1_VE1000_randls_54.json,http://54.235.29.9/FacialAge/BNav_EC2/DepthDuration/v2_depth_duration_MTurk/v2_DepthDuration_HTML.html#373,373,1366,768,1366,768,8-30-2022,6-56-18,135,depth_duration_stimuli/002072_2014-06-24_21-48-06_260595134347_rgbf000115-resize_0/002072_2014-06-24_21-48-06_260595134347_rgbf000115-resize-original.jpg,1000,4.702,0,4044,1004,meters,jsons/v1_VE1000_randls_54.json,934523,1460773,32,Man
135,169549,DepthScenes,duration_manipulation_targetAtFixation,jsons/v1_VE1000_randls_54.json,http://54.235.29.9/FacialAge/BNav_EC2/DepthDuration/v2_depth_duration_MTurk/v2_DepthDuration_HTML.html#373,373,1366,768,1366,768,8-30-2022,6-56-18,136,depth_duration_stimuli/002375_2014-06-28_20-13-44_260595134347_rgbf000032-resize_1/002375_2014-06-28_20-13-44_260595134347_rgbf000032-resize_1-target.png,1000,4.0175,6,6010,999,meters,jsons/v1_VE1000_randls_54.json,934523,1460773,32,Man
136,169549,DepthScenes,duration_manipulation_targetAtFixation,jsons/v1_VE1000_randls_54.json,http://54.235.29.9/FacialAge/BNav_EC2/DepthDuration/v2_depth_duration_MTurk/v2_DepthDuration_HTML.html#373,373,1366,768,1366,768,8-30-2022,6-56-18,137,depth_duration_stimuli/002657_2014-06-13_15-29-54_094959634447_rgbf000150-resize_1/002657_2014-06-13_15-29-54_094959634447_rgbf000150-resize_1-target.png,1000,4.919,7,3813,1010,meters,jsons/v1_VE1000_randls_54.json,934523,1460773,32,Man
137,169549,DepthScenes,duration_manipulation_targetAtFixation,jsons/v1_VE1000_randls_54.json,http://54.235.29.9/FacialAge/BNav_EC2/DepthDuration/v2_depth_duration_MTurk/v2_DepthDuration_HTML.html#373,373,1366,768,1366,768,8-30-2022,6-56-18,138,depth_duration_stimuli/002509_2014-06-24_13-19-22_094959634447_rgbf000077-resize_0/002509_2014-06-24_13-19-22_094959634447_rgbf000077-resize_0-target.png,1000,1.3065,5,4500,992,meters,jsons/v1_VE1000_randls_54.json,934523,1460773,32,Man
138,169549,DepthScenes,duration_manipulation_targetAtFixation,jsons/v1_VE1000_randls_54.json,http://54.235.29.9/FacialAge/BNav_EC2/DepthDuration/v2_depth_duration_MTurk/v2_DepthDuration_HTML.html#373,373,1366,768,1366,768,8-30-2022,6-56-18,139,depth_duration_stimuli/003338_2014-05-20_11-01-23_094959634447_rgbf000051-resize_6/003338_2014-05-20_11-01-23_094959634447_rgbf000051-resize_6-target.png,1000,1.693,6,3730,998,meters,jsons/v1_VE1000_randls_54.json,934523,1460773,32,Man
139,169549,DepthScenes,duration_manipulation_targetAtFixation,jsons/v1_VE1000_randls_54.json,http://54.235.29.9/FacialAge/BNav_EC2/DepthDuration/v2_depth_duration_MTurk/v2_DepthDuration_HTML.html#373,373,1366,768,1366,768,8-30-2022,6-56-18,140,depth_duration_stimuli/003070_2014-06-15_14-58-27_094959634447_rgbf000150-resize_3/003070_2014-06-15_14-58-27_094959634447_rgbf000150-resize_3-target.png,1000,2.9415,8,4653,1001,meters,jsons/v1_VE1000_randls_54.json,934523,1460773,32,Man
140,169549,DepthScenes,duration_manipulation_targetAtFixation,jsons/v1_VE1000_randls_54.json,http://54.235.29.9/FacialAge/BNav_EC2/DepthDuration/v2_depth_duration_MTurk/v2_DepthDuration_HTML.html#373,373,1366,768,1366,768,8-30-2022,6-56-18,141,depth_duration_stimuli/000943_2014-06-09_19-31-07_260595134347_rgbf000128-resize_1/000943_2014-06-09_19-31-07_260595134347_rgbf000128-resize_1-target.png,1000,1.9765,3,4286,990,meters,jsons/v1_VE1000_randls_54.json,934523,1460773,32,Man
141,169549,DepthScenes,duration_manipulation_targetAtFixation,jsons/v1_VE1000_randls_54.json,http://54.235.29.9/FacialAge/BNav_EC2/DepthDuration/v2_depth_duration_MTurk/v2_DepthDuration_HTML.html#373,373,1366,768,1366,768,8-30-2022,6-56-18,142,depth_duration_stimuli/001570_2014-06-20_17-21-09_260595134347_rgbf000135-resize_4/001570_2014-06-20_17-21-09_260595134347_rgbf000135-resize_4-target.png,1000,4.467,10,4526,1001,meters,jsons/v1_VE1000_randls_54.json,934523,1460773,32,Man
142,169549,DepthScenes,duration_manipulation_targetAtFixation,jsons/v1_VE1000_randls_54.json,http://54.235.29.9/FacialAge/BNav_EC2/DepthDuration/v2_depth_duration_MTurk/v2_DepthDuration_HTML.html#373,373,1366,768,1366,768,8-30-2022,6-56-18,143,depth_duration_stimuli/001392_2014-06-19_16-07-59_260595134347_rgbf000046-resize_1/001392_2014-06-19_16-07-59_260595134347_rgbf000046-resize_1-target.png,1000,4.135,12,4471,989,meters,jsons/v1_VE1000_randls_54.json,934523,1460773,32,Man
143,169549,DepthScenes,duration_manipulation_targetAtFixation,jsons/v1_VE1000_randls_54.json,http://54.235.29.9/FacialAge/BNav_EC2/DepthDuration/v2_depth_duration_MTurk/v2_DepthDuration_HTML.html#373,373,1366,768,1366,768,8-30-2022,6-56-18,144,depth_duration_stimuli/001810_2014-06-26_20-51-35_260595134347_rgbf000040-resize_3/001810_2014-06-26_20-51-35_260595134347_rgbf000040-resize_3-target.png,1000,2.2525,3,4009,1000,meters,jsons/v1_VE1000_randls_54.json,934523,1460773,32,Man
144,169549,DepthScenes,duration_manipulation_targetAtFixation,jsons/v1_VE1000_randls_54.json,http://54.235.29.9/FacialAge/BNav_EC2/DepthDuration/v2_depth_duration_MTurk/v2_DepthDuration_HTML.html#373,373,1366,768,1366,768,8-30-2022,6-56-18,145,depth_duration_stimuli/003010_2014-06-15_12-54-35_094959634447_rgbf000112-resize_0/003010_2014-06-15_12-54-35_094959634447_rgbf000112-resize_0-target.png,1000,3.1185,14,5808,1001,meters,jsons/v1_VE1000_randls_54.json,934523,1460773,32,Man
145,169549,DepthScenes,duration_manipulation_targetAtFixation,jsons/v1_VE1000_randls_54.json,http://54.235.29.9/FacialAge/BNav_EC2/DepthDuration/v2_depth_duration_MTurk/v2_DepthDuration_HTML.html#373,373,1366,768,1366,768,8-30-2022,6-56-18,146,depth_duration_stimuli/001498_2014-06-19_17-45-14_260595134347_rgbf000129-resize_4/001498_2014-06-19_17-45-14_260595134347_rgbf000129-resize-original.jpg,1000,1.4075,0,4106,990,meters,jsons/v1_VE1000_randls_54.json,934523,1460773,32,Man
146,169549,DepthScenes,duration_manipulation_targetAtFixation,jsons/v1_VE1000_randls_54.json,http://54.235.29.9/FacialAge/BNav_EC2/DepthDuration/v2_depth_duration_MTurk/v2_DepthDuration_HTML.html#373,373,1366,768,1366,768,8-30-2022,6-56-18,147,depth_duration_stimuli/000470_2014-06-09_19-42-40_260595134347_rgbf000094-resize_1/000470_2014-06-09_19-42-40_260595134347_rgbf000094-resize_1-target.png,1000,1.831,3,4191,989,meters,jsons/v1_VE1000_randls_54.json,934523,1460773,32,Man
147,169549,DepthScenes,duration_manipulation_targetAtFixation,jsons/v1_VE1000_randls_54.json,http://54.235.29.9/FacialAge/BNav_EC2/DepthDuration/v2_depth_duration_MTurk/v2_DepthDuration_HTML.html#373,373,1366,768,1366,768,8-30-2022,6-56-18,148,depth_duration_stimuli/000109_2014-05-14_23-41-52_260595134347_rgbf000035-resize_9/000109_2014-05-14_23-41-52_260595134347_rgbf000035-resize_9-target.png,1000,1.3545,3,5126,1006,meters,jsons/v1_VE1000_randls_54.json,934523,1460773,32,Man
148,169549,DepthScenes,duration_manipulation_targetAtFixation,jsons/v1_VE1000_randls_54.json,http://54.235.29.9/FacialAge/BNav_EC2/DepthDuration/v2_depth_duration_MTurk/v2_DepthDuration_HTML.html#373,373,1366,768,1366,768,8-30-2022,6-56-18,149,depth_duration_stimuli/002445_2014-06-28_20-32-16_260595134347_rgbf000029-resize_4/002445_2014-06-28_20-32-16_260595134347_rgbf000029-resize_4-target.png,1000,2.5315,4,4727,1037,meters,jsons/v1_VE1000_randls_54.json,934523,1460773,32,Man
149,169549,DepthScenes,duration_manipulation_targetAtFixation,jsons/v1_VE1000_randls_54.json,http://54.235.29.9/FacialAge/BNav_EC2/DepthDuration/v2_depth_duration_MTurk/v2_DepthDuration_HTML.html#373,373,1366,768,1366,768,8-30-2022,6-56-18,150,depth_duration_stimuli/000780_2014-06-08_22-28-29_260595134347_rgbf000126-resize_1/000780_2014-06-08_22-28-29_260595134347_rgbf000126-resize_1-target.png,1000,3.3825,3,4711,1005,meters,jsons/v1_VE1000_randls_54.json,934523,1460773,32,Man
150,169549,DepthScenes,duration_manipulation_targetAtFixation,jsons/v1_VE1000_randls_54.json,http://54.235.29.9/FacialAge/BNav_EC2/DepthDuration/v2_depth_duration_MTurk/v2_DepthDuration_HTML.html#373,373,1366,768,1366,768,8-30-2022,6-56-18,151,depth_duration_stimuli/000493_2014-06-09_21-01-18_260595134347_rgbf000196-resize_3/000493_2014-06-09_21-01-18_260595134347_rgbf000196-resize_3-target.png,1000,3.44,4,3643,999,meters,jsons/v1_VE1000_randls_54.json,934523,1460773,32,Man
151,169549,DepthScenes,duration_manipulation_targetAtFixation,jsons/v1_VE1000_randls_54.json,http://54.235.29.9/FacialAge/BNav_EC2/DepthDuration/v2_depth_duration_MTurk/v2_DepthDuration_HTML.html#373,373,1366,768,1366,768,8-30-2022,6-56-18,152,depth_duration_stimuli/000191_2014-05-12_17-07-38_260595134347_rgbf000199-resize_0/000191_2014-05-12_17-07-38_260595134347_rgbf000199-resize_0-target.png,1000,3.7995,12,5047,1005,meters,jsons/v1_VE1000_randls_54.json,934523,1460773,32,Man
152,169549,DepthScenes,duration_manipulation_targetAtFixation,jsons/v1_VE1000_randls_54.json,http://54.235.29.9/FacialAge/BNav_EC2/DepthDuration/v2_depth_duration_MTurk/v2_DepthDuration_HTML.html#373,373,1366,768,1366,768,8-30-2022,6-56-18,153,depth_duration_stimuli/002272_2014-06-28_18-53-56_260595134347_rgbf000067-resize_2/002272_2014-06-28_18-53-56_260595134347_rgbf000067-resize_2-target.png,1000,1.138,1,3870,1002,meters,jsons/v1_VE1000_randls_54.json,934523,1460773,32,Man
153,169549,DepthScenes,duration_manipulation_targetAtFixation,jsons/v1_VE1000_randls_54.json,http://54.235.29.9/FacialAge/BNav_EC2/DepthDuration/v2_depth_duration_MTurk/v2_DepthDuration_HTML.html#373,373,1366,768,1366,768,8-30-2022,6-56-18,154,depth_duration_stimuli/001571_2014-06-20_17-21-32_260595134347_rgbf000089-resize_1/001571_2014-06-20_17-21-32_260595134347_rgbf000089-resize_1-target.png,1000,1.86,8,6049,981,meters,jsons/v1_VE1000_randls_54.json,934523,1460773,32,Man
154,169549,DepthScenes,duration_manipulation_targetAtFixation,jsons/v1_VE1000_randls_54.json,http://54.235.29.9/FacialAge/BNav_EC2/DepthDuration/v2_depth_duration_MTurk/v2_DepthDuration_HTML.html#373,373,1366,768,1366,768,8-30-2022,6-56-18,155,depth_duration_stimuli/000692_2014-06-08_13-09-42_260595134347_rgbf000199-resize_2/000692_2014-06-08_13-09-42_260595134347_rgbf000199-resize_2-target.png,1000,3.661,10,4975,1003,meters,jsons/v1_VE1000_randls_54.json,934523,1460773,32,Man
155,169549,DepthScenes,duration_manipulation_targetAtFixation,jsons/v1_VE1000_randls_54.json,http://54.235.29.9/FacialAge/BNav_EC2/DepthDuration/v2_depth_duration_MTurk/v2_DepthDuration_HTML.html#373,373,1366,768,1366,768,8-30-2022,6-56-18,156,depth_duration_stimuli/001094_2014-06-15_17-36-00_260595134347_rgbf000205-resize_0/001094_2014-06-15_17-36-00_260595134347_rgbf000205-resize_0-target.png,1000,4.2175,13,6525,1001,meters,jsons/v1_VE1000_randls_54.json,934523,1460773,32,Man
156,169549,DepthScenes,duration_manipulation_targetAtFixation,jsons/v1_VE1000_randls_54.json,http://54.235.29.9/FacialAge/BNav_EC2/DepthDuration/v2_depth_duration_MTurk/v2_DepthDuration_HTML.html#373,373,1366,768,1366,768,8-30-2022,6-56-18,157,depth_duration_stimuli/000788_2014-06-08_22-34-36_260595134347_rgbf000131-resize_1/000788_2014-06-08_22-34-36_260595134347_rgbf000131-resize_1-target.png,1000,3.359,5,4843,1010,meters,jsons/v1_VE1000_randls_54.json,934523,1460773,32,Man
157,169549,DepthScenes,duration_manipulation_targetAtFixation,jsons/v1_VE1000_randls_54.json,http://54.235.29.9/FacialAge/BNav_EC2/DepthDuration/v2_depth_duration_MTurk/v2_DepthDuration_HTML.html#373,373,1366,768,1366,768,8-30-2022,6-56-18,158,depth_duration_stimuli/001235_2014-06-17_16-37-36_260595134347_rgbf000084-resize_4/001235_2014-06-17_16-37-36_260595134347_rgbf000084-resize_4-target.png,1000,3.6605,6,5124,1002,meters,jsons/v1_VE1000_randls_54.json,934523,1460773,32,Man
158,169549,DepthScenes,duration_manipulation_targetAtFixation,jsons/v1_VE1000_randls_54.json,http://54.235.29.9/FacialAge/BNav_EC2/DepthDuration/v2_depth_duration_MTurk/v2_DepthDuration_HTML.html#373,373,1366,768,1366,768,8-30-2022,6-56-18,159,depth_duration_stimuli/001133_2014-06-17_14-49-16_260595134347_rgbf000100-resize_0/001133_2014-06-17_14-49-16_260595134347_rgbf000100-resize_0-target.png,1000,4.2115,7,4285,996,meters,jsons/v1_VE1000_randls_54.json,934523,1460773,32,Man
159,169549,DepthScenes,duration_manipulation_targetAtFixation,jsons/v1_VE1000_randls_54.json,http://54.235.29.9/FacialAge/BNav_EC2/DepthDuration/v2_depth_duration_MTurk/v2_DepthDuration_HTML.html#373,373,1366,768,1366,768,8-30-2022,6-56-18,160,depth_duration_stimuli/001132_2014-06-17_14-48-54_260595134347_rgbf000100-resize_2/001132_2014-06-17_14-48-54_260595134347_rgbf000100-resize_2-target.png,1000,3.753,8,4751,997,meters,jsons/v1_VE1000_randls_54.json,934523,1460773,32,Man
160,169549,DepthScenes,duration_manipulation_targetAtFixation,jsons/v1_VE1000_randls_54.json,http://54.235.29.9/FacialAge/BNav_EC2/DepthDuration/v2_depth_duration_MTurk/v2_DepthDuration_HTML.html#373,373,1366,768,1366,768,8-30-2022,6-56-18,161,depth_duration_stimuli/001808_2014-06-26_20-50-58_260595134347_rgbf000029-resize_1/001808_2014-06-26_20-50-58_260595134347_rgbf000029-resize_1-target.png,1000,4.249,12,4083,1000,meters,jsons/v1_VE1000_randls_54.json,934523,1460773,32,Man
161,169549,DepthScenes,duration_manipulation_targetAtFixation,jsons/v1_VE1000_randls_54.json,http://54.235.29.9/FacialAge/BNav_EC2/DepthDuration/v2_depth_duration_MTurk/v2_DepthDuration_HTML.html#373,373,1366,768,1366,768,8-30-2022,6-56-18,162,depth_duration_stimuli/001815_2014-06-26_20-52-55_260595134347_rgbf000020-resize_0/001815_2014-06-26_20-52-55_260595134347_rgbf000020-resize_0-target.png,1000,3.3865,10,4701,1013,meters,jsons/v1_VE1000_randls_54.json,934523,1460773,32,Man
162,169549,DepthScenes,duration_manipulation_targetAtFixation,jsons/v1_VE1000_randls_54.json,http://54.235.29.9/FacialAge/BNav_EC2/DepthDuration/v2_depth_duration_MTurk/v2_DepthDuration_HTML.html#373,373,1366,768,1366,768,8-30-2022,6-56-18,163,depth_duration_stimuli/000736_2014-06-08_18-24-15_260595134347_rgbf000206-resize_3/000736_2014-06-08_18-24-15_260595134347_rgbf000206-resize_3-target.png,1000,3.515,5,4298,1011,meters,jsons/v1_VE1000_randls_54.json,934523,1460773,32,Man
163,169549,DepthScenes,duration_manipulation_targetAtFixation,jsons/v1_VE1000_randls_54.json,http://54.235.29.9/FacialAge/BNav_EC2/DepthDuration/v2_depth_duration_MTurk/v2_DepthDuration_HTML.html#373,373,1366,768,1366,768,8-30-2022,6-56-18,164,depth_duration_stimuli/000137_2014-05-20_17-04-49_260595134347_rgbf000120-resize_1/000137_2014-05-20_17-04-49_260595134347_rgbf000120-resize_1-target.png,1000,3.786,7,3941,999,meters,jsons/v1_VE1000_randls_54.json,934523,1460773,32,Man
