,subjID,experimentName,versionName,sequenceName,url,selected_row,windowWidth,windowHeight,screenWidth,screenHeight,startDate,startTime,trial,stimulus,duration,actual_depth,depth_estimate,trial_RT,log_sceneDuration,unitSelection,seq_filepath,experimentTime,totalTime,age,gender
0,170213,DepthScenes,duration_manipulation_targetAtFixation,jsons/VE125_randls_13_rotated.json,http://54.235.29.9/FacialAge/BNav_EC2/DepthDuration/v2_depth_duration_MTurk/v2_DepthDuration_HTML.html#165,165,1280,800,1280,800,8-29-2022,14-28-20,1,depth_duration_stimuli/003587_2014-05-23_16-48-02_094959634447_rgbf002384-resize_2/003587_2014-05-23_16-48-02_094959634447_rgbf002384-resize_2-target.png,125,1.357,1,3371,125,feet,jsons/VE125_randls_13_rotated.json,578728,889107,52,Woman
1,170213,DepthScenes,duration_manipulation_targetAtFixation,jsons/VE125_randls_13_rotated.json,http://54.235.29.9/FacialAge/BNav_EC2/DepthDuration/v2_depth_duration_MTurk/v2_DepthDuration_HTML.html#165,165,1280,800,1280,800,8-29-2022,14-28-20,2,depth_duration_stimuli/001167_2014-06-17_15-38-07_260595134347_rgbf000108-resize_0/001167_2014-06-17_15-38-07_260595134347_rgbf000108-resize_0-target.png,125,1.8505,1,2794,124,feet,jsons/VE125_randls_13_rotated.json,578728,889107,52,Woman
2,170213,DepthScenes,duration_manipulation_targetAtFixation,jsons/VE125_randls_13_rotated.json,http://54.235.29.9/FacialAge/BNav_EC2/DepthDuration/v2_depth_duration_MTurk/v2_DepthDuration_HTML.html#165,165,1280,800,1280,800,8-29-2022,14-28-20,3,depth_duration_stimuli/002545_2014-06-24_13-38-53_094959634447_rgbf000080-resize_4/002545_2014-06-24_13-38-53_094959634447_rgbf000080-resize_4-target.png,125,1.9205,3,2800,122,feet,jsons/VE125_randls_13_rotated.json,578728,889107,52,Woman
3,170213,DepthScenes,duration_manipulation_targetAtFixation,jsons/VE125_randls_13_rotated.json,http://54.235.29.9/FacialAge/BNav_EC2/DepthDuration/v2_depth_duration_MTurk/v2_DepthDuration_HTML.html#165,165,1280,800,1280,800,8-29-2022,14-28-20,4,depth_duration_stimuli/001092_2014-06-15_17-34-58_260595134347_rgbf000171-resize_3/001092_2014-06-15_17-34-58_260595134347_rgbf000171-resize_3-target.png,125,2.6935,2,2503,124,feet,jsons/VE125_randls_13_rotated.json,578728,889107,52,Woman
4,170213,DepthScenes,duration_manipulation_targetAtFixation,jsons/VE125_randls_13_rotated.json,http://54.235.29.9/FacialAge/BNav_EC2/DepthDuration/v2_depth_duration_MTurk/v2_DepthDuration_HTML.html#165,165,1280,800,1280,800,8-29-2022,14-28-20,5,depth_duration_stimuli/002875_2014-06-01_15-19-00_094959634447_rgbf000151-resize_1/002875_2014-06-01_15-19-00_094959634447_rgbf000151-resize_1-target.png,125,1.9675,2,3165,119,feet,jsons/VE125_randls_13_rotated.json,578728,889107,52,Woman
5,170213,DepthScenes,duration_manipulation_targetAtFixation,jsons/VE125_randls_13_rotated.json,http://54.235.29.9/FacialAge/BNav_EC2/DepthDuration/v2_depth_duration_MTurk/v2_DepthDuration_HTML.html#165,165,1280,800,1280,800,8-29-2022,14-28-20,6,depth_duration_stimuli/001011_2014-06-08_23-18-54_260595134347_rgbf000044-resize_4/001011_2014-06-08_23-18-54_260595134347_rgbf000044-resize_4-target.png,125,2.4730000000000003,4,3119,124,feet,jsons/VE125_randls_13_rotated.json,578728,889107,52,Woman
6,170213,DepthScenes,duration_manipulation_targetAtFixation,jsons/VE125_randls_13_rotated.json,http://54.235.29.9/FacialAge/BNav_EC2/DepthDuration/v2_depth_duration_MTurk/v2_DepthDuration_HTML.html#165,165,1280,800,1280,800,8-29-2022,14-28-20,7,depth_duration_stimuli/000409_2014-06-04_19-23-33_260595134347_rgbf000067-resize_0/000409_2014-06-04_19-23-33_260595134347_rgbf000067-resize_0-target.png,125,3.7335,5,3269,122,feet,jsons/VE125_randls_13_rotated.json,578728,889107,52,Woman
7,170213,DepthScenes,duration_manipulation_targetAtFixation,jsons/VE125_randls_13_rotated.json,http://54.235.29.9/FacialAge/BNav_EC2/DepthDuration/v2_depth_duration_MTurk/v2_DepthDuration_HTML.html#165,165,1280,800,1280,800,8-29-2022,14-28-20,8,depth_duration_stimuli/002663_2014-06-13_15-50-26_094959634447_rgbf000075-resize_1/002663_2014-06-13_15-50-26_094959634447_rgbf000075-resize_1-target.png,125,4.7495,7,3142,118,feet,jsons/VE125_randls_13_rotated.json,578728,889107,52,Woman
8,170213,DepthScenes,duration_manipulation_targetAtFixation,jsons/VE125_randls_13_rotated.json,http://54.235.29.9/FacialAge/BNav_EC2/DepthDuration/v2_depth_duration_MTurk/v2_DepthDuration_HTML.html#165,165,1280,800,1280,800,8-29-2022,14-28-20,9,depth_duration_stimuli/003010_2014-06-15_12-54-35_094959634447_rgbf000112-resize_0/003010_2014-06-15_12-54-35_094959634447_rgbf000112-resize_0-target.png,125,3.1185,3,2715,129,feet,jsons/VE125_randls_13_rotated.json,578728,889107,52,Woman
9,170213,DepthScenes,duration_manipulation_targetAtFixation,jsons/VE125_randls_13_rotated.json,http://54.235.29.9/FacialAge/BNav_EC2/DepthDuration/v2_depth_duration_MTurk/v2_DepthDuration_HTML.html#165,165,1280,800,1280,800,8-29-2022,14-28-20,10,depth_duration_stimuli/001810_2014-06-26_20-51-35_260595134347_rgbf000040-resize_3/001810_2014-06-26_20-51-35_260595134347_rgbf000040-resize_3-target.png,125,2.2525,4,4714,136,feet,jsons/VE125_randls_13_rotated.json,578728,889107,52,Woman
10,170213,DepthScenes,duration_manipulation_targetAtFixation,jsons/VE125_randls_13_rotated.json,http://54.235.29.9/FacialAge/BNav_EC2/DepthDuration/v2_depth_duration_MTurk/v2_DepthDuration_HTML.html#165,165,1280,800,1280,800,8-29-2022,14-28-20,11,depth_duration_stimuli/002467_2014-06-28_20-38-07_260595134347_rgbf000026-resize_2/002467_2014-06-28_20-38-07_260595134347_rgbf000026-resize_2-target.png,125,4.742,5,2920,128,feet,jsons/VE125_randls_13_rotated.json,578728,889107,52,Woman
11,170213,DepthScenes,duration_manipulation_targetAtFixation,jsons/VE125_randls_13_rotated.json,http://54.235.29.9/FacialAge/BNav_EC2/DepthDuration/v2_depth_duration_MTurk/v2_DepthDuration_HTML.html#165,165,1280,800,1280,800,8-29-2022,14-28-20,12,depth_duration_stimuli/002570_2014-06-24_13-59-54_094959634447_rgbf000059-resize_0/002570_2014-06-24_13-59-54_094959634447_rgbf000059-resize_0-target.png,125,4.037,3,2786,119,feet,jsons/VE125_randls_13_rotated.json,578728,889107,52,Woman
12,170213,DepthScenes,duration_manipulation_targetAtFixation,jsons/VE125_randls_13_rotated.json,http://54.235.29.9/FacialAge/BNav_EC2/DepthDuration/v2_depth_duration_MTurk/v2_DepthDuration_HTML.html#165,165,1280,800,1280,800,8-29-2022,14-28-20,13,depth_duration_stimuli/000927_2014-06-09_16-32-30_260595134347_rgbf000123-resize_3/000927_2014-06-09_16-32-30_260595134347_rgbf000123-resize_3-target.png,125,2.6785,3,3219,124,feet,jsons/VE125_randls_13_rotated.json,578728,889107,52,Woman
13,170213,DepthScenes,duration_manipulation_targetAtFixation,jsons/VE125_randls_13_rotated.json,http://54.235.29.9/FacialAge/BNav_EC2/DepthDuration/v2_depth_duration_MTurk/v2_DepthDuration_HTML.html#165,165,1280,800,1280,800,8-29-2022,14-28-20,14,depth_duration_stimuli/001110_2014-06-15_17-25-28_260595134347_rgbf000150-resize_1/001110_2014-06-15_17-25-28_260595134347_rgbf000150-resize_1-target.png,125,1.7115,3,4490,133,feet,jsons/VE125_randls_13_rotated.json,578728,889107,52,Woman
14,170213,DepthScenes,duration_manipulation_targetAtFixation,jsons/VE125_randls_13_rotated.json,http://54.235.29.9/FacialAge/BNav_EC2/DepthDuration/v2_depth_duration_MTurk/v2_DepthDuration_HTML.html#165,165,1280,800,1280,800,8-29-2022,14-28-20,15,depth_duration_stimuli/002805_2014-06-22_19-54-03_094959634447_rgbf000079-resize_1/002805_2014-06-22_19-54-03_094959634447_rgbf000079-resize_1-target.png,125,3.1439999999999997,6,3331,133,feet,jsons/VE125_randls_13_rotated.json,578728,889107,52,Woman
15,170213,DepthScenes,duration_manipulation_targetAtFixation,jsons/VE125_randls_13_rotated.json,http://54.235.29.9/FacialAge/BNav_EC2/DepthDuration/v2_depth_duration_MTurk/v2_DepthDuration_HTML.html#165,165,1280,800,1280,800,8-29-2022,14-28-20,16,depth_duration_stimuli/000906_2014-06-08_13-35-43_260595134347_rgbf000155-resize_1/000906_2014-06-08_13-35-43_260595134347_rgbf000155-resize_1-target.png,125,2.8489999999999998,4,3020,127,feet,jsons/VE125_randls_13_rotated.json,578728,889107,52,Woman
16,170213,DepthScenes,duration_manipulation_targetAtFixation,jsons/VE125_randls_13_rotated.json,http://54.235.29.9/FacialAge/BNav_EC2/DepthDuration/v2_depth_duration_MTurk/v2_DepthDuration_HTML.html#165,165,1280,800,1280,800,8-29-2022,14-28-20,17,depth_duration_stimuli/001828_2014-06-26_21-40-03_260595134347_rgbf000024-resize_0/001828_2014-06-26_21-40-03_260595134347_rgbf000024-resize_0-target.png,125,4.8260000000000005,6,2569,127,feet,jsons/VE125_randls_13_rotated.json,578728,889107,52,Woman
17,170213,DepthScenes,duration_manipulation_targetAtFixation,jsons/VE125_randls_13_rotated.json,http://54.235.29.9/FacialAge/BNav_EC2/DepthDuration/v2_depth_duration_MTurk/v2_DepthDuration_HTML.html#165,165,1280,800,1280,800,8-29-2022,14-28-20,18,depth_duration_stimuli/000009_2014-05-26_14-32-05_260595134347_rgbf000034-resize_3/000009_2014-05-26_14-32-05_260595134347_rgbf000034-resize_3-target.png,125,3.8715,7,2840,134,feet,jsons/VE125_randls_13_rotated.json,578728,889107,52,Woman
18,170213,DepthScenes,duration_manipulation_targetAtFixation,jsons/VE125_randls_13_rotated.json,http://54.235.29.9/FacialAge/BNav_EC2/DepthDuration/v2_depth_duration_MTurk/v2_DepthDuration_HTML.html#165,165,1280,800,1280,800,8-29-2022,14-28-20,19,depth_duration_stimuli/001498_2014-06-19_17-45-14_260595134347_rgbf000129-resize_4/001498_2014-06-19_17-45-14_260595134347_rgbf000129-resize-original.jpg,125,1.4075,0,3768,113,feet,jsons/VE125_randls_13_rotated.json,578728,889107,52,Woman
19,170213,DepthScenes,duration_manipulation_targetAtFixation,jsons/VE125_randls_13_rotated.json,http://54.235.29.9/FacialAge/BNav_EC2/DepthDuration/v2_depth_duration_MTurk/v2_DepthDuration_HTML.html#165,165,1280,800,1280,800,8-29-2022,14-28-20,20,depth_duration_stimuli/002209_2014-06-28_18-36-10_260595134347_rgbf000051-resize_1/002209_2014-06-28_18-36-10_260595134347_rgbf000051-resize_1-target.png,125,2.057,2,3098,127,feet,jsons/VE125_randls_13_rotated.json,578728,889107,52,Woman
20,170213,DepthScenes,duration_manipulation_targetAtFixation,jsons/VE125_randls_13_rotated.json,http://54.235.29.9/FacialAge/BNav_EC2/DepthDuration/v2_depth_duration_MTurk/v2_DepthDuration_HTML.html#165,165,1280,800,1280,800,8-29-2022,14-28-20,21,depth_duration_stimuli/002763_2014-06-22_19-13-10_094959634447_rgbf000075-resize_4/002763_2014-06-22_19-13-10_094959634447_rgbf000075-resize_4-target.png,125,1.68375,3,3416,116,feet,jsons/VE125_randls_13_rotated.json,578728,889107,52,Woman
21,170213,DepthScenes,duration_manipulation_targetAtFixation,jsons/VE125_randls_13_rotated.json,http://54.235.29.9/FacialAge/BNav_EC2/DepthDuration/v2_depth_duration_MTurk/v2_DepthDuration_HTML.html#165,165,1280,800,1280,800,8-29-2022,14-28-20,22,depth_duration_stimuli/002678_2014-06-13_16-15-32_094959634447_rgbf000151-resize_6/002678_2014-06-13_16-15-32_094959634447_rgbf000151-resize_6-target.png,125,2.1830000000000003,5,3006,126,feet,jsons/VE125_randls_13_rotated.json,578728,889107,52,Woman
22,170213,DepthScenes,duration_manipulation_targetAtFixation,jsons/VE125_randls_13_rotated.json,http://54.235.29.9/FacialAge/BNav_EC2/DepthDuration/v2_depth_duration_MTurk/v2_DepthDuration_HTML.html#165,165,1280,800,1280,800,8-29-2022,14-28-20,23,depth_duration_stimuli/000368_2014-06-09_15-53-01_260595134347_rgbf000155-resize_2/000368_2014-06-09_15-53-01_260595134347_rgbf000155-resize_2-target.png,125,2.4859999999999998,3,2652,117,feet,jsons/VE125_randls_13_rotated.json,578728,889107,52,Woman
23,170213,DepthScenes,duration_manipulation_targetAtFixation,jsons/VE125_randls_13_rotated.json,http://54.235.29.9/FacialAge/BNav_EC2/DepthDuration/v2_depth_duration_MTurk/v2_DepthDuration_HTML.html#165,165,1280,800,1280,800,8-29-2022,14-28-20,24,depth_duration_stimuli/003228_2014-05-14_13-42-35_094959634447_rgbf000101-resize_1/003228_2014-05-14_13-42-35_094959634447_rgbf000101-resize_1-target.png,125,1.9680000000000002,2,2704,127,feet,jsons/VE125_randls_13_rotated.json,578728,889107,52,Woman
24,170213,DepthScenes,duration_manipulation_targetAtFixation,jsons/VE125_randls_13_rotated.json,http://54.235.29.9/FacialAge/BNav_EC2/DepthDuration/v2_depth_duration_MTurk/v2_DepthDuration_HTML.html#165,165,1280,800,1280,800,8-29-2022,14-28-20,25,depth_duration_stimuli/002600_2014-06-24_14-27-04_094959634447_rgbf000074-resize_2/002600_2014-06-24_14-27-04_094959634447_rgbf000074-resize_2-target.png,125,2.7575,6,3094,121,feet,jsons/VE125_randls_13_rotated.json,578728,889107,52,Woman
25,170213,DepthScenes,duration_manipulation_targetAtFixation,jsons/VE125_randls_13_rotated.json,http://54.235.29.9/FacialAge/BNav_EC2/DepthDuration/v2_depth_duration_MTurk/v2_DepthDuration_HTML.html#165,165,1280,800,1280,800,8-29-2022,14-28-20,26,depth_duration_stimuli/001450_2014-06-19_17-02-03_260595134347_rgbf000203-resize_4/001450_2014-06-19_17-02-03_260595134347_rgbf000203-resize_4-target.png,125,4.0106666666667,6,3020,139,feet,jsons/VE125_randls_13_rotated.json,578728,889107,52,Woman
26,170213,DepthScenes,duration_manipulation_targetAtFixation,jsons/VE125_randls_13_rotated.json,http://54.235.29.9/FacialAge/BNav_EC2/DepthDuration/v2_depth_duration_MTurk/v2_DepthDuration_HTML.html#165,165,1280,800,1280,800,8-29-2022,14-28-20,27,depth_duration_stimuli/001449_2014-06-19_17-01-27_260595134347_rgbf000116-resize_2/001449_2014-06-19_17-01-27_260595134347_rgbf000116-resize_2-target.png,125,3.452,4,2829,127,feet,jsons/VE125_randls_13_rotated.json,578728,889107,52,Woman
27,170213,DepthScenes,duration_manipulation_targetAtFixation,jsons/VE125_randls_13_rotated.json,http://54.235.29.9/FacialAge/BNav_EC2/DepthDuration/v2_depth_duration_MTurk/v2_DepthDuration_HTML.html#165,165,1280,800,1280,800,8-29-2022,14-28-20,28,depth_duration_stimuli/003079_2014-06-15_15-18-20_094959634447_rgbf000152-resize_8/003079_2014-06-15_15-18-20_094959634447_rgbf000152-resize_8-target.png,125,2.8775,5,3570,118,feet,jsons/VE125_randls_13_rotated.json,578728,889107,52,Woman
28,170213,DepthScenes,duration_manipulation_targetAtFixation,jsons/VE125_randls_13_rotated.json,http://54.235.29.9/FacialAge/BNav_EC2/DepthDuration/v2_depth_duration_MTurk/v2_DepthDuration_HTML.html#165,165,1280,800,1280,800,8-29-2022,14-28-20,29,depth_duration_stimuli/000506_2014-06-08_23-21-00_260595134347_rgbf000070-resize_7/000506_2014-06-08_23-21-00_260595134347_rgbf000070-resize_7-target.png,125,4.0585,4,2883,125,feet,jsons/VE125_randls_13_rotated.json,578728,889107,52,Woman
29,170213,DepthScenes,duration_manipulation_targetAtFixation,jsons/VE125_randls_13_rotated.json,http://54.235.29.9/FacialAge/BNav_EC2/DepthDuration/v2_depth_duration_MTurk/v2_DepthDuration_HTML.html#165,165,1280,800,1280,800,8-29-2022,14-28-20,30,depth_duration_stimuli/002072_2014-06-24_21-48-06_260595134347_rgbf000115-resize_0/002072_2014-06-24_21-48-06_260595134347_rgbf000115-resize-original.jpg,125,4.702,0,2608,136,feet,jsons/VE125_randls_13_rotated.json,578728,889107,52,Woman
30,170213,DepthScenes,duration_manipulation_targetAtFixation,jsons/VE125_randls_13_rotated.json,http://54.235.29.9/FacialAge/BNav_EC2/DepthDuration/v2_depth_duration_MTurk/v2_DepthDuration_HTML.html#165,165,1280,800,1280,800,8-29-2022,14-28-20,31,depth_duration_stimuli/000191_2014-05-12_17-07-38_260595134347_rgbf000199-resize_0/000191_2014-05-12_17-07-38_260595134347_rgbf000199-resize_0-target.png,125,3.7995,7,3063,121,feet,jsons/VE125_randls_13_rotated.json,578728,889107,52,Woman
31,170213,DepthScenes,duration_manipulation_targetAtFixation,jsons/VE125_randls_13_rotated.json,http://54.235.29.9/FacialAge/BNav_EC2/DepthDuration/v2_depth_duration_MTurk/v2_DepthDuration_HTML.html#165,165,1280,800,1280,800,8-29-2022,14-28-20,32,depth_duration_stimuli/000493_2014-06-09_21-01-18_260595134347_rgbf000196-resize_3/000493_2014-06-09_21-01-18_260595134347_rgbf000196-resize_3-target.png,125,3.44,3,2866,130,feet,jsons/VE125_randls_13_rotated.json,578728,889107,52,Woman
32,170213,DepthScenes,duration_manipulation_targetAtFixation,jsons/VE125_randls_13_rotated.json,http://54.235.29.9/FacialAge/BNav_EC2/DepthDuration/v2_depth_duration_MTurk/v2_DepthDuration_HTML.html#165,165,1280,800,1280,800,8-29-2022,14-28-20,33,depth_duration_stimuli/001617_2014-06-20_11-35-32_260595134347_rgbf000066-resize_1/001617_2014-06-20_11-35-32_260595134347_rgbf000066-resize_1-target.png,125,3.7910000000000004,4,2681,128,feet,jsons/VE125_randls_13_rotated.json,578728,889107,52,Woman
33,170213,DepthScenes,duration_manipulation_targetAtFixation,jsons/VE125_randls_13_rotated.json,http://54.235.29.9/FacialAge/BNav_EC2/DepthDuration/v2_depth_duration_MTurk/v2_DepthDuration_HTML.html#165,165,1280,800,1280,800,8-29-2022,14-28-20,34,depth_duration_stimuli/001806_2014-06-26_20-50-20_260595134347_rgbf000091-resize_1/001806_2014-06-26_20-50-20_260595134347_rgbf000091-resize_1-target.png,125,2.7305,3,2857,113,feet,jsons/VE125_randls_13_rotated.json,578728,889107,52,Woman
34,170213,DepthScenes,duration_manipulation_targetAtFixation,jsons/VE125_randls_13_rotated.json,http://54.235.29.9/FacialAge/BNav_EC2/DepthDuration/v2_depth_duration_MTurk/v2_DepthDuration_HTML.html#165,165,1280,800,1280,800,8-29-2022,14-28-20,35,depth_duration_stimuli/003083_2014-06-15_15-21-03_094959634447_rgbf000063-resize_1/003083_2014-06-15_15-21-03_094959634447_rgbf000063-resize_1-target.png,125,4.1405,6,3876,133,feet,jsons/VE125_randls_13_rotated.json,578728,889107,52,Woman
35,170213,DepthScenes,duration_manipulation_targetAtFixation,jsons/VE125_randls_13_rotated.json,http://54.235.29.9/FacialAge/BNav_EC2/DepthDuration/v2_depth_duration_MTurk/v2_DepthDuration_HTML.html#165,165,1280,800,1280,800,8-29-2022,14-28-20,36,depth_duration_stimuli/000486_2014-06-09_20-47-20_260595134347_rgbf000143-resize_2/000486_2014-06-09_20-47-20_260595134347_rgbf000143-resize_2-target.png,125,4.8325,3,2507,127,feet,jsons/VE125_randls_13_rotated.json,578728,889107,52,Woman
36,170213,DepthScenes,duration_manipulation_targetAtFixation,jsons/VE125_randls_13_rotated.json,http://54.235.29.9/FacialAge/BNav_EC2/DepthDuration/v2_depth_duration_MTurk/v2_DepthDuration_HTML.html#165,165,1280,800,1280,800,8-29-2022,14-28-20,37,depth_duration_stimuli/000502_2014-06-08_23-02-32_260595134347_rgbf000063-resize_4/000502_2014-06-08_23-02-32_260595134347_rgbf000063-resize_4-target.png,125,2.431,5,3157,127,feet,jsons/VE125_randls_13_rotated.json,578728,889107,52,Woman
37,170213,DepthScenes,duration_manipulation_targetAtFixation,jsons/VE125_randls_13_rotated.json,http://54.235.29.9/FacialAge/BNav_EC2/DepthDuration/v2_depth_duration_MTurk/v2_DepthDuration_HTML.html#165,165,1280,800,1280,800,8-29-2022,14-28-20,38,depth_duration_stimuli/001199_2014-06-17_16-03-48_260595134347_rgbf000077-resize_0/001199_2014-06-17_16-03-48_260595134347_rgbf000077-resize_0-target.png,125,3.4375,4,2632,125,feet,jsons/VE125_randls_13_rotated.json,578728,889107,52,Woman
38,170213,DepthScenes,duration_manipulation_targetAtFixation,jsons/VE125_randls_13_rotated.json,http://54.235.29.9/FacialAge/BNav_EC2/DepthDuration/v2_depth_duration_MTurk/v2_DepthDuration_HTML.html#165,165,1280,800,1280,800,8-29-2022,14-28-20,39,depth_duration_stimuli/002750_2014-06-22_19-08-03_094959634447_rgbf000094-resize_4/002750_2014-06-22_19-08-03_094959634447_rgbf000094-resize_4-target.png,125,2.354,6,3323,138,feet,jsons/VE125_randls_13_rotated.json,578728,889107,52,Woman
39,170213,DepthScenes,duration_manipulation_targetAtFixation,jsons/VE125_randls_13_rotated.json,http://54.235.29.9/FacialAge/BNav_EC2/DepthDuration/v2_depth_duration_MTurk/v2_DepthDuration_HTML.html#165,165,1280,800,1280,800,8-29-2022,14-28-20,40,depth_duration_stimuli/002549_2014-06-24_13-41-39_094959634447_rgbf000022-resize_3/002549_2014-06-24_13-41-39_094959634447_rgbf000022-resize_3-target.png,125,1.476,4,2648,123,feet,jsons/VE125_randls_13_rotated.json,578728,889107,52,Woman
40,170213,DepthScenes,duration_manipulation_targetAtFixation,jsons/VE125_randls_13_rotated.json,http://54.235.29.9/FacialAge/BNav_EC2/DepthDuration/v2_depth_duration_MTurk/v2_DepthDuration_HTML.html#165,165,1280,800,1280,800,8-29-2022,14-28-20,41,depth_duration_stimuli/002758_2014-06-22_19-11-20_094959634447_rgbf000128-resize_1/002758_2014-06-22_19-11-20_094959634447_rgbf000128-resize_1-target.png,125,2.555,3,3446,126,feet,jsons/VE125_randls_13_rotated.json,578728,889107,52,Woman
41,170213,DepthScenes,duration_manipulation_targetAtFixation,jsons/VE125_randls_13_rotated.json,http://54.235.29.9/FacialAge/BNav_EC2/DepthDuration/v2_depth_duration_MTurk/v2_DepthDuration_HTML.html#165,165,1280,800,1280,800,8-29-2022,14-28-20,42,depth_duration_stimuli/002630_2014-06-24_14-47-50_094959634447_rgbf000055-resize_1/002630_2014-06-24_14-47-50_094959634447_rgbf000055-resize_1-target.png,125,3.0095,6,3030,116,feet,jsons/VE125_randls_13_rotated.json,578728,889107,52,Woman
42,170213,DepthScenes,duration_manipulation_targetAtFixation,jsons/VE125_randls_13_rotated.json,http://54.235.29.9/FacialAge/BNav_EC2/DepthDuration/v2_depth_duration_MTurk/v2_DepthDuration_HTML.html#165,165,1280,800,1280,800,8-29-2022,14-28-20,43,depth_duration_stimuli/000742_2014-06-08_18-48-09_260595134347_rgbf000164-resize_4/000742_2014-06-08_18-48-09_260595134347_rgbf000164-resize_4-target.png,125,4.632,7,2779,122,feet,jsons/VE125_randls_13_rotated.json,578728,889107,52,Woman
43,170213,DepthScenes,duration_manipulation_targetAtFixation,jsons/VE125_randls_13_rotated.json,http://54.235.29.9/FacialAge/BNav_EC2/DepthDuration/v2_depth_duration_MTurk/v2_DepthDuration_HTML.html#165,165,1280,800,1280,800,8-29-2022,14-28-20,44,depth_duration_stimuli/001066_2014-06-08_22-03-20_260595134347_rgbf000066-resize_4/001066_2014-06-08_22-03-20_260595134347_rgbf000066-resize_4-target.png,125,4.2330000000000005,8,3153,133,feet,jsons/VE125_randls_13_rotated.json,578728,889107,52,Woman
44,170213,DepthScenes,duration_manipulation_targetAtFixation,jsons/VE125_randls_13_rotated.json,http://54.235.29.9/FacialAge/BNav_EC2/DepthDuration/v2_depth_duration_MTurk/v2_DepthDuration_HTML.html#165,165,1280,800,1280,800,8-29-2022,14-28-20,45,depth_duration_stimuli/001447_2014-06-19_17-00-32_260595134347_rgbf000082-resize_5/001447_2014-06-19_17-00-32_260595134347_rgbf000082-resize_5-target.png,125,4.13775,3,2640,132,feet,jsons/VE125_randls_13_rotated.json,578728,889107,52,Woman
45,170213,DepthScenes,duration_manipulation_targetAtFixation,jsons/VE125_randls_13_rotated.json,http://54.235.29.9/FacialAge/BNav_EC2/DepthDuration/v2_depth_duration_MTurk/v2_DepthDuration_HTML.html#165,165,1280,800,1280,800,8-29-2022,14-28-20,46,depth_duration_stimuli/000447_2014-06-08_16-15-46_260595134347_rgbf000130-resize_1/000447_2014-06-08_16-15-46_260595134347_rgbf000130-resize_1-target.png,125,4.479,7,2863,120,feet,jsons/VE125_randls_13_rotated.json,578728,889107,52,Woman
46,170213,DepthScenes,duration_manipulation_targetAtFixation,jsons/VE125_randls_13_rotated.json,http://54.235.29.9/FacialAge/BNav_EC2/DepthDuration/v2_depth_duration_MTurk/v2_DepthDuration_HTML.html#165,165,1280,800,1280,800,8-29-2022,14-28-20,47,depth_duration_stimuli/001392_2014-06-19_16-07-59_260595134347_rgbf000046-resize_1/001392_2014-06-19_16-07-59_260595134347_rgbf000046-resize_1-target.png,125,4.135,8,2856,114,feet,jsons/VE125_randls_13_rotated.json,578728,889107,52,Woman
47,170213,DepthScenes,duration_manipulation_targetAtFixation,jsons/VE125_randls_13_rotated.json,http://54.235.29.9/FacialAge/BNav_EC2/DepthDuration/v2_depth_duration_MTurk/v2_DepthDuration_HTML.html#165,165,1280,800,1280,800,8-29-2022,14-28-20,48,depth_duration_stimuli/001570_2014-06-20_17-21-09_260595134347_rgbf000135-resize_4/001570_2014-06-20_17-21-09_260595134347_rgbf000135-resize_4-target.png,125,4.467,6,2803,124,feet,jsons/VE125_randls_13_rotated.json,578728,889107,52,Woman
48,170213,DepthScenes,duration_manipulation_targetAtFixation,jsons/VE125_randls_13_rotated.json,http://54.235.29.9/FacialAge/BNav_EC2/DepthDuration/v2_depth_duration_MTurk/v2_DepthDuration_HTML.html#165,165,1280,800,1280,800,8-29-2022,14-28-20,49,depth_duration_stimuli/001170_2014-06-17_15-43-44_260595134347_rgbf000096-resize_6/001170_2014-06-17_15-43-44_260595134347_rgbf000096-resize-original.jpg,125,1.1909999999999998,0,2675,120,feet,jsons/VE125_randls_13_rotated.json,578728,889107,52,Woman
49,170213,DepthScenes,duration_manipulation_targetAtFixation,jsons/VE125_randls_13_rotated.json,http://54.235.29.9/FacialAge/BNav_EC2/DepthDuration/v2_depth_duration_MTurk/v2_DepthDuration_HTML.html#165,165,1280,800,1280,800,8-29-2022,14-28-20,50,depth_duration_stimuli/002639_2014-06-24_14-51-37_094959634447_rgbf000074-resize_4/002639_2014-06-24_14-51-37_094959634447_rgbf000074-resize_4-target.png,125,4.0375,5,2761,136,feet,jsons/VE125_randls_13_rotated.json,578728,889107,52,Woman
50,170213,DepthScenes,duration_manipulation_targetAtFixation,jsons/VE125_randls_13_rotated.json,http://54.235.29.9/FacialAge/BNav_EC2/DepthDuration/v2_depth_duration_MTurk/v2_DepthDuration_HTML.html#165,165,1280,800,1280,800,8-29-2022,14-28-20,51,depth_duration_stimuli/003292_2014-05-14_21-53-49_094959634447_rgbf000100-resize_2/003292_2014-05-14_21-53-49_094959634447_rgbf000100-resize_2-target.png,125,3.4815,4,2980,128,feet,jsons/VE125_randls_13_rotated.json,578728,889107,52,Woman
51,170213,DepthScenes,duration_manipulation_targetAtFixation,jsons/VE125_randls_13_rotated.json,http://54.235.29.9/FacialAge/BNav_EC2/DepthDuration/v2_depth_duration_MTurk/v2_DepthDuration_HTML.html#165,165,1280,800,1280,800,8-29-2022,14-28-20,52,depth_duration_stimuli/001032_2014-06-08_13-23-17_260595134347_rgbf000021-resize_3/001032_2014-06-08_13-23-17_260595134347_rgbf000021-resize_3-target.png,125,3.2725,3,3247,114,feet,jsons/VE125_randls_13_rotated.json,578728,889107,52,Woman
52,170213,DepthScenes,duration_manipulation_targetAtFixation,jsons/VE125_randls_13_rotated.json,http://54.235.29.9/FacialAge/BNav_EC2/DepthDuration/v2_depth_duration_MTurk/v2_DepthDuration_HTML.html#165,165,1280,800,1280,800,8-29-2022,14-28-20,53,depth_duration_stimuli/001059_2014-06-08_21-53-27_260595134347_rgbf000061-resize_4/001059_2014-06-08_21-53-27_260595134347_rgbf000061-resize_4-target.png,125,2.4185,3,3461,120,feet,jsons/VE125_randls_13_rotated.json,578728,889107,52,Woman
53,170213,DepthScenes,duration_manipulation_targetAtFixation,jsons/VE125_randls_13_rotated.json,http://54.235.29.9/FacialAge/BNav_EC2/DepthDuration/v2_depth_duration_MTurk/v2_DepthDuration_HTML.html#165,165,1280,800,1280,800,8-29-2022,14-28-20,54,depth_duration_stimuli/002414_2014-06-28_20-24-58_260595134347_rgbf000067-resize_4/002414_2014-06-28_20-24-58_260595134347_rgbf000067-resize_4-target.png,125,4.363,6,2449,124,feet,jsons/VE125_randls_13_rotated.json,578728,889107,52,Woman
54,170213,DepthScenes,duration_manipulation_targetAtFixation,jsons/VE125_randls_13_rotated.json,http://54.235.29.9/FacialAge/BNav_EC2/DepthDuration/v2_depth_duration_MTurk/v2_DepthDuration_HTML.html#165,165,1280,800,1280,800,8-29-2022,14-28-20,55,depth_duration_stimuli/000773_2014-06-08_22-24-54_260595134347_rgbf000093-resize_1/000773_2014-06-08_22-24-54_260595134347_rgbf000093-resize_1-target.png,125,4.973,7,2420,122,feet,jsons/VE125_randls_13_rotated.json,578728,889107,52,Woman
55,170213,DepthScenes,duration_manipulation_targetAtFixation,jsons/VE125_randls_13_rotated.json,http://54.235.29.9/FacialAge/BNav_EC2/DepthDuration/v2_depth_duration_MTurk/v2_DepthDuration_HTML.html#165,165,1280,800,1280,800,8-29-2022,14-28-20,56,depth_duration_stimuli/002340_2014-06-28_20-05-46_260595134347_rgbf000113-resize_0/002340_2014-06-28_20-05-46_260595134347_rgbf000113-resize_0-target.png,125,2.4735,5,3290,128,feet,jsons/VE125_randls_13_rotated.json,578728,889107,52,Woman
56,170213,DepthScenes,duration_manipulation_targetAtFixation,jsons/VE125_randls_13_rotated.json,http://54.235.29.9/FacialAge/BNav_EC2/DepthDuration/v2_depth_duration_MTurk/v2_DepthDuration_HTML.html#165,165,1280,800,1280,800,8-29-2022,14-28-20,57,depth_duration_stimuli/001016_2014-06-09_16-16-10_260595134347_rgbf000112-resize_5/001016_2014-06-09_16-16-10_260595134347_rgbf000112-resize_5-target.png,125,1.6565,4,2464,133,feet,jsons/VE125_randls_13_rotated.json,578728,889107,52,Woman
57,170213,DepthScenes,duration_manipulation_targetAtFixation,jsons/VE125_randls_13_rotated.json,http://54.235.29.9/FacialAge/BNav_EC2/DepthDuration/v2_depth_duration_MTurk/v2_DepthDuration_HTML.html#165,165,1280,800,1280,800,8-29-2022,14-28-20,58,depth_duration_stimuli/002637_2014-06-24_14-51-13_094959634447_rgbf000066-resize_4/002637_2014-06-24_14-51-13_094959634447_rgbf000066-resize_4-target.png,125,1.9955,3,2558,111,feet,jsons/VE125_randls_13_rotated.json,578728,889107,52,Woman
58,170213,DepthScenes,duration_manipulation_targetAtFixation,jsons/VE125_randls_13_rotated.json,http://54.235.29.9/FacialAge/BNav_EC2/DepthDuration/v2_depth_duration_MTurk/v2_DepthDuration_HTML.html#165,165,1280,800,1280,800,8-29-2022,14-28-20,59,depth_duration_stimuli/003534_2014-05-22_15-06-10_094959634447_rgbf000102-resize_4/003534_2014-05-22_15-06-10_094959634447_rgbf000102-resize_4-target.png,125,1.426,2,2288,132,feet,jsons/VE125_randls_13_rotated.json,578728,889107,52,Woman
59,170213,DepthScenes,duration_manipulation_targetAtFixation,jsons/VE125_randls_13_rotated.json,http://54.235.29.9/FacialAge/BNav_EC2/DepthDuration/v2_depth_duration_MTurk/v2_DepthDuration_HTML.html#165,165,1280,800,1280,800,8-29-2022,14-28-20,60,depth_duration_stimuli/000103_2014-05-14_22-01-17_260595134347_rgbf000152-resize_5/000103_2014-05-14_22-01-17_260595134347_rgbf000152-resize_5-target.png,125,1.993,7,3028,122,feet,jsons/VE125_randls_13_rotated.json,578728,889107,52,Woman
60,170213,DepthScenes,duration_manipulation_targetAtFixation,jsons/VE125_randls_13_rotated.json,http://54.235.29.9/FacialAge/BNav_EC2/DepthDuration/v2_depth_duration_MTurk/v2_DepthDuration_HTML.html#165,165,1280,800,1280,800,8-29-2022,14-28-20,61,depth_duration_stimuli/001555_2014-06-20_17-12-10_260595134347_rgbf000065-resize_4/001555_2014-06-20_17-12-10_260595134347_rgbf000065-resize_4-target.png,125,1.633,4,3353,124,feet,jsons/VE125_randls_13_rotated.json,578728,889107,52,Woman
61,170213,DepthScenes,duration_manipulation_targetAtFixation,jsons/VE125_randls_13_rotated.json,http://54.235.29.9/FacialAge/BNav_EC2/DepthDuration/v2_depth_duration_MTurk/v2_DepthDuration_HTML.html#165,165,1280,800,1280,800,8-29-2022,14-28-20,62,depth_duration_stimuli/000866_2014-06-09_20-45-42_260595134347_rgbf000139-resize_1/000866_2014-06-09_20-45-42_260595134347_rgbf000139-resize_1-target.png,125,3.2155,4,3094,129,feet,jsons/VE125_randls_13_rotated.json,578728,889107,52,Woman
62,170213,DepthScenes,duration_manipulation_targetAtFixation,jsons/VE125_randls_13_rotated.json,http://54.235.29.9/FacialAge/BNav_EC2/DepthDuration/v2_depth_duration_MTurk/v2_DepthDuration_HTML.html#165,165,1280,800,1280,800,8-29-2022,14-28-20,63,depth_duration_stimuli/002989_2014-06-15_12-25-03_094959634447_rgbf000150-resize_3/002989_2014-06-15_12-25-03_094959634447_rgbf000150-resize_3-target.png,125,4.1975,6,2570,116,feet,jsons/VE125_randls_13_rotated.json,578728,889107,52,Woman
63,170213,DepthScenes,duration_manipulation_targetAtFixation,jsons/VE125_randls_13_rotated.json,http://54.235.29.9/FacialAge/BNav_EC2/DepthDuration/v2_depth_duration_MTurk/v2_DepthDuration_HTML.html#165,165,1280,800,1280,800,8-29-2022,14-28-20,64,depth_duration_stimuli/002949_2014-06-26_15-57-42_094959634447_rgbf000079-resize_1/002949_2014-06-26_15-57-42_094959634447_rgbf000079-resize_1-target.png,125,1.8915,3,2372,110,feet,jsons/VE125_randls_13_rotated.json,578728,889107,52,Woman
64,170213,DepthScenes,duration_manipulation_targetAtFixation,jsons/VE125_randls_13_rotated.json,http://54.235.29.9/FacialAge/BNav_EC2/DepthDuration/v2_depth_duration_MTurk/v2_DepthDuration_HTML.html#165,165,1280,800,1280,800,8-29-2022,14-28-20,65,depth_duration_stimuli/000522_2014-06-08_13-35-06_260595134347_rgbf000244-resize_1/000522_2014-06-08_13-35-06_260595134347_rgbf000244-resize_1-target.png,125,2.3715,2,2701,119,feet,jsons/VE125_randls_13_rotated.json,578728,889107,52,Woman
65,170213,DepthScenes,duration_manipulation_targetAtFixation,jsons/VE125_randls_13_rotated.json,http://54.235.29.9/FacialAge/BNav_EC2/DepthDuration/v2_depth_duration_MTurk/v2_DepthDuration_HTML.html#165,165,1280,800,1280,800,8-29-2022,14-28-20,66,depth_duration_stimuli/001540_2014-06-20_17-01-05_260595134347_rgbf000086-resize_2/001540_2014-06-20_17-01-05_260595134347_rgbf000086-resize-original.jpg,125,1.459,0,2429,131,feet,jsons/VE125_randls_13_rotated.json,578728,889107,52,Woman
66,170213,DepthScenes,duration_manipulation_targetAtFixation,jsons/VE125_randls_13_rotated.json,http://54.235.29.9/FacialAge/BNav_EC2/DepthDuration/v2_depth_duration_MTurk/v2_DepthDuration_HTML.html#165,165,1280,800,1280,800,8-29-2022,14-28-20,67,depth_duration_stimuli/000734_2014-06-08_17-39-11_260595134347_rgbf000128-resize_2/000734_2014-06-08_17-39-11_260595134347_rgbf000128-resize_2-target.png,125,4.098,2,2772,112,feet,jsons/VE125_randls_13_rotated.json,578728,889107,52,Woman
67,170213,DepthScenes,duration_manipulation_targetAtFixation,jsons/VE125_randls_13_rotated.json,http://54.235.29.9/FacialAge/BNav_EC2/DepthDuration/v2_depth_duration_MTurk/v2_DepthDuration_HTML.html#165,165,1280,800,1280,800,8-29-2022,14-28-20,68,depth_duration_stimuli/000739_2014-06-08_18-45-58_260595134347_rgbf000068-resize_1/000739_2014-06-08_18-45-58_260595134347_rgbf000068-resize_1-target.png,125,3.534,5,2471,133,feet,jsons/VE125_randls_13_rotated.json,578728,889107,52,Woman
68,170213,DepthScenes,duration_manipulation_targetAtFixation,jsons/VE125_randls_13_rotated.json,http://54.235.29.9/FacialAge/BNav_EC2/DepthDuration/v2_depth_duration_MTurk/v2_DepthDuration_HTML.html#165,165,1280,800,1280,800,8-29-2022,14-28-20,69,depth_duration_stimuli/002660_2014-06-13_15-44-18_094959634447_rgbf001878-resize_2/002660_2014-06-13_15-44-18_094959634447_rgbf001878-resize_2-target.png,125,3.576,4,2831,112,feet,jsons/VE125_randls_13_rotated.json,578728,889107,52,Woman
69,170213,DepthScenes,duration_manipulation_targetAtFixation,jsons/VE125_randls_13_rotated.json,http://54.235.29.9/FacialAge/BNav_EC2/DepthDuration/v2_depth_duration_MTurk/v2_DepthDuration_HTML.html#165,165,1280,800,1280,800,8-29-2022,14-28-20,70,depth_duration_stimuli/002153_2014-06-25_21-27-18_260595134347_rgbf000038-resize_5/002153_2014-06-25_21-27-18_260595134347_rgbf000038-resize_5-target.png,125,2.505,5,2675,127,feet,jsons/VE125_randls_13_rotated.json,578728,889107,52,Woman
70,170213,DepthScenes,duration_manipulation_targetAtFixation,jsons/VE125_randls_13_rotated.json,http://54.235.29.9/FacialAge/BNav_EC2/DepthDuration/v2_depth_duration_MTurk/v2_DepthDuration_HTML.html#165,165,1280,800,1280,800,8-29-2022,14-28-20,71,depth_duration_stimuli/001136_2014-06-17_15-19-41_260595134347_rgbf000076-resize_3/001136_2014-06-17_15-19-41_260595134347_rgbf000076-resize_3-target.png,125,1.8655,4,3942,126,feet,jsons/VE125_randls_13_rotated.json,578728,889107,52,Woman
71,170213,DepthScenes,duration_manipulation_targetAtFixation,jsons/VE125_randls_13_rotated.json,http://54.235.29.9/FacialAge/BNav_EC2/DepthDuration/v2_depth_duration_MTurk/v2_DepthDuration_HTML.html#165,165,1280,800,1280,800,8-29-2022,14-28-20,72,depth_duration_stimuli/001164_2014-06-17_15-35-46_260595134347_rgbf000085-resize_3/001164_2014-06-17_15-35-46_260595134347_rgbf000085-resize_3-target.png,125,2.354,4,2875,121,feet,jsons/VE125_randls_13_rotated.json,578728,889107,52,Woman
72,170213,DepthScenes,duration_manipulation_targetAtFixation,jsons/VE125_randls_13_rotated.json,http://54.235.29.9/FacialAge/BNav_EC2/DepthDuration/v2_depth_duration_MTurk/v2_DepthDuration_HTML.html#165,165,1280,800,1280,800,8-29-2022,14-28-20,73,depth_duration_stimuli/000854_2014-06-09_19-43-13_260595134347_rgbf000066-resize_0/000854_2014-06-09_19-43-13_260595134347_rgbf000066-resize_0-target.png,125,3.068,3,2406,120,feet,jsons/VE125_randls_13_rotated.json,578728,889107,52,Woman
73,170213,DepthScenes,duration_manipulation_targetAtFixation,jsons/VE125_randls_13_rotated.json,http://54.235.29.9/FacialAge/BNav_EC2/DepthDuration/v2_depth_duration_MTurk/v2_DepthDuration_HTML.html#165,165,1280,800,1280,800,8-29-2022,14-28-20,74,depth_duration_stimuli/000758_2014-06-08_22-05-08_260595134347_rgbf000085-resize_0/000758_2014-06-08_22-05-08_260595134347_rgbf000085-resize_0-target.png,125,3.3810000000000002,3,4903,125,feet,jsons/VE125_randls_13_rotated.json,578728,889107,52,Woman
74,170213,DepthScenes,duration_manipulation_targetAtFixation,jsons/VE125_randls_13_rotated.json,http://54.235.29.9/FacialAge/BNav_EC2/DepthDuration/v2_depth_duration_MTurk/v2_DepthDuration_HTML.html#165,165,1280,800,1280,800,8-29-2022,14-28-20,75,depth_duration_stimuli/000709_2014-06-08_13-51-55_260595134347_rgbf000068-resize_3/000709_2014-06-08_13-51-55_260595134347_rgbf000068-resize_3-target.png,125,1.8030000000000002,4,3015,135,feet,jsons/VE125_randls_13_rotated.json,578728,889107,52,Woman
75,170213,DepthScenes,duration_manipulation_targetAtFixation,jsons/VE125_randls_13_rotated.json,http://54.235.29.9/FacialAge/BNav_EC2/DepthDuration/v2_depth_duration_MTurk/v2_DepthDuration_HTML.html#165,165,1280,800,1280,800,8-29-2022,14-28-20,76,depth_duration_stimuli/002057_2014-06-24_21-00-13_260595134347_rgbf000120-resize_1/002057_2014-06-24_21-00-13_260595134347_rgbf000120-resize_1-target.png,125,2.967,3,6705,128,feet,jsons/VE125_randls_13_rotated.json,578728,889107,52,Woman
76,170213,DepthScenes,duration_manipulation_targetAtFixation,jsons/VE125_randls_13_rotated.json,http://54.235.29.9/FacialAge/BNav_EC2/DepthDuration/v2_depth_duration_MTurk/v2_DepthDuration_HTML.html#165,165,1280,800,1280,800,8-29-2022,14-28-20,77,depth_duration_stimuli/000943_2014-06-09_19-31-07_260595134347_rgbf000128-resize_1/000943_2014-06-09_19-31-07_260595134347_rgbf000128-resize_1-target.png,125,1.9765,2,2621,123,feet,jsons/VE125_randls_13_rotated.json,578728,889107,52,Woman
77,170213,DepthScenes,duration_manipulation_targetAtFixation,jsons/VE125_randls_13_rotated.json,http://54.235.29.9/FacialAge/BNav_EC2/DepthDuration/v2_depth_duration_MTurk/v2_DepthDuration_HTML.html#165,165,1280,800,1280,800,8-29-2022,14-28-20,78,depth_duration_stimuli/003070_2014-06-15_14-58-27_094959634447_rgbf000150-resize_3/003070_2014-06-15_14-58-27_094959634447_rgbf000150-resize_3-target.png,125,2.9415,5,2721,130,feet,jsons/VE125_randls_13_rotated.json,578728,889107,52,Woman
78,170213,DepthScenes,duration_manipulation_targetAtFixation,jsons/VE125_randls_13_rotated.json,http://54.235.29.9/FacialAge/BNav_EC2/DepthDuration/v2_depth_duration_MTurk/v2_DepthDuration_HTML.html#165,165,1280,800,1280,800,8-29-2022,14-28-20,79,depth_duration_stimuli/001132_2014-06-17_14-48-54_260595134347_rgbf000100-resize_2/001132_2014-06-17_14-48-54_260595134347_rgbf000100-resize_2-target.png,125,3.753,6,2906,123,feet,jsons/VE125_randls_13_rotated.json,578728,889107,52,Woman
79,170213,DepthScenes,duration_manipulation_targetAtFixation,jsons/VE125_randls_13_rotated.json,http://54.235.29.9/FacialAge/BNav_EC2/DepthDuration/v2_depth_duration_MTurk/v2_DepthDuration_HTML.html#165,165,1280,800,1280,800,8-29-2022,14-28-20,80,depth_duration_stimuli/001133_2014-06-17_14-49-16_260595134347_rgbf000100-resize_0/001133_2014-06-17_14-49-16_260595134347_rgbf000100-resize_0-target.png,125,4.2115,6,2623,123,feet,jsons/VE125_randls_13_rotated.json,578728,889107,52,Woman
80,170213,DepthScenes,duration_manipulation_targetAtFixation,jsons/VE125_randls_13_rotated.json,http://54.235.29.9/FacialAge/BNav_EC2/DepthDuration/v2_depth_duration_MTurk/v2_DepthDuration_HTML.html#165,165,1280,800,1280,800,8-29-2022,14-28-20,81,depth_duration_stimuli/002444_2014-06-28_20-32-08_260595134347_rgbf000027-resize_0/002444_2014-06-28_20-32-08_260595134347_rgbf000027-resize_0-target.png,125,4.388999999999999,7,2455,132,feet,jsons/VE125_randls_13_rotated.json,578728,889107,52,Woman
81,170213,DepthScenes,duration_manipulation_targetAtFixation,jsons/VE125_randls_13_rotated.json,http://54.235.29.9/FacialAge/BNav_EC2/DepthDuration/v2_depth_duration_MTurk/v2_DepthDuration_HTML.html#165,165,1280,800,1280,800,8-29-2022,14-28-20,82,depth_duration_stimuli/000436_2014-06-09_22-25-11_260595134347_rgbf000137-resize_1/000436_2014-06-09_22-25-11_260595134347_rgbf000137-resize_1-target.png,125,4.0705,8,2611,135,feet,jsons/VE125_randls_13_rotated.json,578728,889107,52,Woman
82,170213,DepthScenes,duration_manipulation_targetAtFixation,jsons/VE125_randls_13_rotated.json,http://54.235.29.9/FacialAge/BNav_EC2/DepthDuration/v2_depth_duration_MTurk/v2_DepthDuration_HTML.html#165,165,1280,800,1280,800,8-29-2022,14-28-20,83,depth_duration_stimuli/002995_2014-06-15_12-31-26_094959634447_rgbf000150-resize_1/002995_2014-06-15_12-31-26_094959634447_rgbf000150-resize_1-target.png,125,3.8360000000000003,7,3572,123,feet,jsons/VE125_randls_13_rotated.json,578728,889107,52,Woman
83,170213,DepthScenes,duration_manipulation_targetAtFixation,jsons/VE125_randls_13_rotated.json,http://54.235.29.9/FacialAge/BNav_EC2/DepthDuration/v2_depth_duration_MTurk/v2_DepthDuration_HTML.html#165,165,1280,800,1280,800,8-29-2022,14-28-20,84,depth_duration_stimuli/002748_2014-06-22_19-07-22_094959634447_rgbf000078-resize_1/002748_2014-06-22_19-07-22_094959634447_rgbf000078-resize_1-target.png,125,4.6705,8,2886,123,feet,jsons/VE125_randls_13_rotated.json,578728,889107,52,Woman
84,170213,DepthScenes,duration_manipulation_targetAtFixation,jsons/VE125_randls_13_rotated.json,http://54.235.29.9/FacialAge/BNav_EC2/DepthDuration/v2_depth_duration_MTurk/v2_DepthDuration_HTML.html#165,165,1280,800,1280,800,8-29-2022,14-28-20,85,depth_duration_stimuli/000749_2014-06-08_21-55-06_260595134347_rgbf000070-resize_2/000749_2014-06-08_21-55-06_260595134347_rgbf000070-resize_2-target.png,125,2.331,4,2670,111,feet,jsons/VE125_randls_13_rotated.json,578728,889107,52,Woman
85,170213,DepthScenes,duration_manipulation_targetAtFixation,jsons/VE125_randls_13_rotated.json,http://54.235.29.9/FacialAge/BNav_EC2/DepthDuration/v2_depth_duration_MTurk/v2_DepthDuration_HTML.html#165,165,1280,800,1280,800,8-29-2022,14-28-20,86,depth_duration_stimuli/002788_2014-06-22_19-36-03_094959634447_rgbf000088-resize_2/002788_2014-06-22_19-36-03_094959634447_rgbf000088-resize_2-target.png,125,1.6465,5,2320,131,feet,jsons/VE125_randls_13_rotated.json,578728,889107,52,Woman
86,170213,DepthScenes,duration_manipulation_targetAtFixation,jsons/VE125_randls_13_rotated.json,http://54.235.29.9/FacialAge/BNav_EC2/DepthDuration/v2_depth_duration_MTurk/v2_DepthDuration_HTML.html#165,165,1280,800,1280,800,8-29-2022,14-28-20,87,depth_duration_stimuli/001571_2014-06-20_17-21-32_260595134347_rgbf000089-resize_1/001571_2014-06-20_17-21-32_260595134347_rgbf000089-resize_1-target.png,125,1.86,3,2636,111,feet,jsons/VE125_randls_13_rotated.json,578728,889107,52,Woman
87,170213,DepthScenes,duration_manipulation_targetAtFixation,jsons/VE125_randls_13_rotated.json,http://54.235.29.9/FacialAge/BNav_EC2/DepthDuration/v2_depth_duration_MTurk/v2_DepthDuration_HTML.html#165,165,1280,800,1280,800,8-29-2022,14-28-20,88,depth_duration_stimuli/002272_2014-06-28_18-53-56_260595134347_rgbf000067-resize_2/002272_2014-06-28_18-53-56_260595134347_rgbf000067-resize_2-target.png,125,1.138,4,2537,122,feet,jsons/VE125_randls_13_rotated.json,578728,889107,52,Woman
88,170213,DepthScenes,duration_manipulation_targetAtFixation,jsons/VE125_randls_13_rotated.json,http://54.235.29.9/FacialAge/BNav_EC2/DepthDuration/v2_depth_duration_MTurk/v2_DepthDuration_HTML.html#165,165,1280,800,1280,800,8-29-2022,14-28-20,89,depth_duration_stimuli/001214_2014-06-17_16-13-55_260595134347_rgbf000111-resize_0/001214_2014-06-17_16-13-55_260595134347_rgbf000111-resize_0-target.png,125,2.6505,4,3138,122,feet,jsons/VE125_randls_13_rotated.json,578728,889107,52,Woman
89,170213,DepthScenes,duration_manipulation_targetAtFixation,jsons/VE125_randls_13_rotated.json,http://54.235.29.9/FacialAge/BNav_EC2/DepthDuration/v2_depth_duration_MTurk/v2_DepthDuration_HTML.html#165,165,1280,800,1280,800,8-29-2022,14-28-20,90,depth_duration_stimuli/000810_2014-06-08_17-20-01_260595134347_rgbf000105-resize_0/000810_2014-06-08_17-20-01_260595134347_rgbf000105-resize_0-target.png,125,1.4865,6,3298,129,feet,jsons/VE125_randls_13_rotated.json,578728,889107,52,Woman
90,170213,DepthScenes,duration_manipulation_targetAtFixation,jsons/VE125_randls_13_rotated.json,http://54.235.29.9/FacialAge/BNav_EC2/DepthDuration/v2_depth_duration_MTurk/v2_DepthDuration_HTML.html#165,165,1280,800,1280,800,8-29-2022,14-28-20,91,depth_duration_stimuli/001052_2014-06-08_18-24-54_260595134347_rgbf000130-resize_1/001052_2014-06-08_18-24-54_260595134347_rgbf000130-resize_1-target.png,125,4.1045,5,2543,112,feet,jsons/VE125_randls_13_rotated.json,578728,889107,52,Woman
91,170213,DepthScenes,duration_manipulation_targetAtFixation,jsons/VE125_randls_13_rotated.json,http://54.235.29.9/FacialAge/BNav_EC2/DepthDuration/v2_depth_duration_MTurk/v2_DepthDuration_HTML.html#165,165,1280,800,1280,800,8-29-2022,14-28-20,92,depth_duration_stimuli/002988_2014-06-15_12-24-20_094959634447_rgbf000150-resize_1/002988_2014-06-15_12-24-20_094959634447_rgbf000150-resize_1-target.png,125,4.7669999999999995,7,2899,133,feet,jsons/VE125_randls_13_rotated.json,578728,889107,52,Woman
92,170213,DepthScenes,duration_manipulation_targetAtFixation,jsons/VE125_randls_13_rotated.json,http://54.235.29.9/FacialAge/BNav_EC2/DepthDuration/v2_depth_duration_MTurk/v2_DepthDuration_HTML.html#165,165,1280,800,1280,800,8-29-2022,14-28-20,93,depth_duration_stimuli/003129_2014-05-12_10-48-10_094959634447_rgbf000100-resize_0/003129_2014-05-12_10-48-10_094959634447_rgbf000100-resize_0-target.png,125,4.9305,6,2998,129,feet,jsons/VE125_randls_13_rotated.json,578728,889107,52,Woman
93,170213,DepthScenes,duration_manipulation_targetAtFixation,jsons/VE125_randls_13_rotated.json,http://54.235.29.9/FacialAge/BNav_EC2/DepthDuration/v2_depth_duration_MTurk/v2_DepthDuration_HTML.html#165,165,1280,800,1280,800,8-29-2022,14-28-20,94,depth_duration_stimuli/000414_2014-06-04_19-49-13_260595134347_rgbf000044-resize_0/000414_2014-06-04_19-49-13_260595134347_rgbf000044-resize_0-target.png,125,4.329,8,2755,126,feet,jsons/VE125_randls_13_rotated.json,578728,889107,52,Woman
94,170213,DepthScenes,duration_manipulation_targetAtFixation,jsons/VE125_randls_13_rotated.json,http://54.235.29.9/FacialAge/BNav_EC2/DepthDuration/v2_depth_duration_MTurk/v2_DepthDuration_HTML.html#165,165,1280,800,1280,800,8-29-2022,14-28-20,95,depth_duration_stimuli/003423_2014-05-21_10-23-26_094959634447_rgbf002665-resize_2/003423_2014-05-21_10-23-26_094959634447_rgbf002665-resize_2-target.png,125,3.2575,7,2637,126,feet,jsons/VE125_randls_13_rotated.json,578728,889107,52,Woman
95,170213,DepthScenes,duration_manipulation_targetAtFixation,jsons/VE125_randls_13_rotated.json,http://54.235.29.9/FacialAge/BNav_EC2/DepthDuration/v2_depth_duration_MTurk/v2_DepthDuration_HTML.html#165,165,1280,800,1280,800,8-29-2022,14-28-20,96,depth_duration_stimuli/002905_2014-06-03_18-04-43_094959634447_rgbf000151-resize_2/002905_2014-06-03_18-04-43_094959634447_rgbf000151-resize_2-target.png,125,2.0295,5,2942,122,feet,jsons/VE125_randls_13_rotated.json,578728,889107,52,Woman
96,170213,DepthScenes,duration_manipulation_targetAtFixation,jsons/VE125_randls_13_rotated.json,http://54.235.29.9/FacialAge/BNav_EC2/DepthDuration/v2_depth_duration_MTurk/v2_DepthDuration_HTML.html#165,165,1280,800,1280,800,8-29-2022,14-28-20,97,depth_duration_stimuli/002953_2014-06-08_17-32-18_094959634447_rgbf000059-resize_5/002953_2014-06-08_17-32-18_094959634447_rgbf000059-resize_5-target.png,125,1.551,2,2995,125,feet,jsons/VE125_randls_13_rotated.json,578728,889107,52,Woman
97,170213,DepthScenes,duration_manipulation_targetAtFixation,jsons/VE125_randls_13_rotated.json,http://54.235.29.9/FacialAge/BNav_EC2/DepthDuration/v2_depth_duration_MTurk/v2_DepthDuration_HTML.html#165,165,1280,800,1280,800,8-29-2022,14-28-20,98,depth_duration_stimuli/000878_2014-06-08_22-52-45_260595134347_rgbf000045-resize_2/000878_2014-06-08_22-52-45_260595134347_rgbf000045-resize_2-target.png,125,2.092,6,3515,119,feet,jsons/VE125_randls_13_rotated.json,578728,889107,52,Woman
98,170213,DepthScenes,duration_manipulation_targetAtFixation,jsons/VE125_randls_13_rotated.json,http://54.235.29.9/FacialAge/BNav_EC2/DepthDuration/v2_depth_duration_MTurk/v2_DepthDuration_HTML.html#165,165,1280,800,1280,800,8-29-2022,14-28-20,99,depth_duration_stimuli/001222_2014-06-17_16-24-06_260595134347_rgbf000073-resize_0/001222_2014-06-17_16-24-06_260595134347_rgbf000073-resize-original.jpg,125,1.4385,0,2545,131,feet,jsons/VE125_randls_13_rotated.json,578728,889107,52,Woman
99,170213,DepthScenes,duration_manipulation_targetAtFixation,jsons/VE125_randls_13_rotated.json,http://54.235.29.9/FacialAge/BNav_EC2/DepthDuration/v2_depth_duration_MTurk/v2_DepthDuration_HTML.html#165,165,1280,800,1280,800,8-29-2022,14-28-20,100,depth_duration_stimuli/002323_2014-06-28_20-01-54_260595134347_rgbf000051-resize_4/002323_2014-06-28_20-01-54_260595134347_rgbf000051-resize_4-target.png,125,3.7310000000000003,3,3099,127,feet,jsons/VE125_randls_13_rotated.json,578728,889107,52,Woman
100,170213,DepthScenes,duration_manipulation_targetAtFixation,jsons/VE125_randls_13_rotated.json,http://54.235.29.9/FacialAge/BNav_EC2/DepthDuration/v2_depth_duration_MTurk/v2_DepthDuration_HTML.html#165,165,1280,800,1280,800,8-29-2022,14-28-20,101,depth_duration_stimuli/000917_2014-06-09_22-45-29_260595134347_rgbf000149-resize_3/000917_2014-06-09_22-45-29_260595134347_rgbf000149-resize_3-target.png,125,4.1865,5,3488,118,feet,jsons/VE125_randls_13_rotated.json,578728,889107,52,Woman
101,170213,DepthScenes,duration_manipulation_targetAtFixation,jsons/VE125_randls_13_rotated.json,http://54.235.29.9/FacialAge/BNav_EC2/DepthDuration/v2_depth_duration_MTurk/v2_DepthDuration_HTML.html#165,165,1280,800,1280,800,8-29-2022,14-28-20,102,depth_duration_stimuli/002199_2014-06-28_18-33-56_260595134347_rgbf000074-resize_0/002199_2014-06-28_18-33-56_260595134347_rgbf000074-resize_0-target.png,125,1.996,2,2503,131,feet,jsons/VE125_randls_13_rotated.json,578728,889107,52,Woman
102,170213,DepthScenes,duration_manipulation_targetAtFixation,jsons/VE125_randls_13_rotated.json,http://54.235.29.9/FacialAge/BNav_EC2/DepthDuration/v2_depth_duration_MTurk/v2_DepthDuration_HTML.html#165,165,1280,800,1280,800,8-29-2022,14-28-20,103,depth_duration_stimuli/001056_2014-06-08_18-46-44_260595134347_rgbf000068-resize_0/001056_2014-06-08_18-46-44_260595134347_rgbf000068-resize_0-target.png,125,2.6625,6,3041,114,feet,jsons/VE125_randls_13_rotated.json,578728,889107,52,Woman
103,170213,DepthScenes,duration_manipulation_targetAtFixation,jsons/VE125_randls_13_rotated.json,http://54.235.29.9/FacialAge/BNav_EC2/DepthDuration/v2_depth_duration_MTurk/v2_DepthDuration_HTML.html#165,165,1280,800,1280,800,8-29-2022,14-28-20,104,depth_duration_stimuli/002425_2014-06-28_20-27-29_260595134347_rgbf000031-resize_8/002425_2014-06-28_20-27-29_260595134347_rgbf000031-resize_8-target.png,125,3.8960000000000004,8,2911,113,feet,jsons/VE125_randls_13_rotated.json,578728,889107,52,Woman
104,170213,DepthScenes,duration_manipulation_targetAtFixation,jsons/VE125_randls_13_rotated.json,http://54.235.29.9/FacialAge/BNav_EC2/DepthDuration/v2_depth_duration_MTurk/v2_DepthDuration_HTML.html#165,165,1280,800,1280,800,8-29-2022,14-28-20,105,depth_duration_stimuli/000642_2014-06-08_16-59-25_260595134347_rgbf000098-resize_2/000642_2014-06-08_16-59-25_260595134347_rgbf000098-resize_2-target.png,125,2.8815,3,3450,125,feet,jsons/VE125_randls_13_rotated.json,578728,889107,52,Woman
105,170213,DepthScenes,duration_manipulation_targetAtFixation,jsons/VE125_randls_13_rotated.json,http://54.235.29.9/FacialAge/BNav_EC2/DepthDuration/v2_depth_duration_MTurk/v2_DepthDuration_HTML.html#165,165,1280,800,1280,800,8-29-2022,14-28-20,106,depth_duration_stimuli/000137_2014-05-20_17-04-49_260595134347_rgbf000120-resize_1/000137_2014-05-20_17-04-49_260595134347_rgbf000120-resize_1-target.png,125,3.786,6,2945,125,feet,jsons/VE125_randls_13_rotated.json,578728,889107,52,Woman
106,170213,DepthScenes,duration_manipulation_targetAtFixation,jsons/VE125_randls_13_rotated.json,http://54.235.29.9/FacialAge/BNav_EC2/DepthDuration/v2_depth_duration_MTurk/v2_DepthDuration_HTML.html#165,165,1280,800,1280,800,8-29-2022,14-28-20,107,depth_duration_stimuli/000736_2014-06-08_18-24-15_260595134347_rgbf000206-resize_3/000736_2014-06-08_18-24-15_260595134347_rgbf000206-resize_3-target.png,125,3.515,8,2637,120,feet,jsons/VE125_randls_13_rotated.json,578728,889107,52,Woman
107,170213,DepthScenes,duration_manipulation_targetAtFixation,jsons/VE125_randls_13_rotated.json,http://54.235.29.9/FacialAge/BNav_EC2/DepthDuration/v2_depth_duration_MTurk/v2_DepthDuration_HTML.html#165,165,1280,800,1280,800,8-29-2022,14-28-20,108,depth_duration_stimuli/000549_2014-06-08_22-10-24_260595134347_rgbf000247-resize_3/000549_2014-06-08_22-10-24_260595134347_rgbf000247-resize_3-target.png,125,1.841,4,2984,121,feet,jsons/VE125_randls_13_rotated.json,578728,889107,52,Woman
108,170213,DepthScenes,duration_manipulation_targetAtFixation,jsons/VE125_randls_13_rotated.json,http://54.235.29.9/FacialAge/BNav_EC2/DepthDuration/v2_depth_duration_MTurk/v2_DepthDuration_HTML.html#165,165,1280,800,1280,800,8-29-2022,14-28-20,109,depth_duration_stimuli/001055_2014-06-08_18-45-35_260595134347_rgbf000111-resize_4/001055_2014-06-08_18-45-35_260595134347_rgbf000111-resize_4-target.png,125,2.4290000000000003,6,3045,118,feet,jsons/VE125_randls_13_rotated.json,578728,889107,52,Woman
109,170213,DepthScenes,duration_manipulation_targetAtFixation,jsons/VE125_randls_13_rotated.json,http://54.235.29.9/FacialAge/BNav_EC2/DepthDuration/v2_depth_duration_MTurk/v2_DepthDuration_HTML.html#165,165,1280,800,1280,800,8-29-2022,14-28-20,110,depth_duration_stimuli/002344_2014-06-28_20-06-29_260595134347_rgbf000030-resize_1/002344_2014-06-28_20-06-29_260595134347_rgbf000030-resize_1-target.png,125,1.5795,2,2759,129,feet,jsons/VE125_randls_13_rotated.json,578728,889107,52,Woman
110,170213,DepthScenes,duration_manipulation_targetAtFixation,jsons/VE125_randls_13_rotated.json,http://54.235.29.9/FacialAge/BNav_EC2/DepthDuration/v2_depth_duration_MTurk/v2_DepthDuration_HTML.html#165,165,1280,800,1280,800,8-29-2022,14-28-20,111,depth_duration_stimuli/002725_2014-06-22_11-47-51_094959634447_rgbf000070-resize_1/002725_2014-06-22_11-47-51_094959634447_rgbf000070-resize_1-target.png,125,2.195,4,3351,110,feet,jsons/VE125_randls_13_rotated.json,578728,889107,52,Woman
111,170213,DepthScenes,duration_manipulation_targetAtFixation,jsons/VE125_randls_13_rotated.json,http://54.235.29.9/FacialAge/BNav_EC2/DepthDuration/v2_depth_duration_MTurk/v2_DepthDuration_HTML.html#165,165,1280,800,1280,800,8-29-2022,14-28-20,112,depth_duration_stimuli/003048_2014-06-15_13-49-43_094959634447_rgbf000150-resize_1/003048_2014-06-15_13-49-43_094959634447_rgbf000150-resize_1-target.png,125,4.0035,7,2966,116,feet,jsons/VE125_randls_13_rotated.json,578728,889107,52,Woman
112,170213,DepthScenes,duration_manipulation_targetAtFixation,jsons/VE125_randls_13_rotated.json,http://54.235.29.9/FacialAge/BNav_EC2/DepthDuration/v2_depth_duration_MTurk/v2_DepthDuration_HTML.html#165,165,1280,800,1280,800,8-29-2022,14-28-20,113,depth_duration_stimuli/002043_2014-06-24_20-29-38_260595134347_rgbf000039-resize_4/002043_2014-06-24_20-29-38_260595134347_rgbf000039-resize_4-target.png,125,2.8435,6,2465,124,feet,jsons/VE125_randls_13_rotated.json,578728,889107,52,Woman
113,170213,DepthScenes,duration_manipulation_targetAtFixation,jsons/VE125_randls_13_rotated.json,http://54.235.29.9/FacialAge/BNav_EC2/DepthDuration/v2_depth_duration_MTurk/v2_DepthDuration_HTML.html#165,165,1280,800,1280,800,8-29-2022,14-28-20,114,depth_duration_stimuli/000635_2014-06-08_16-38-42_260595134347_rgbf000106-resize_1/000635_2014-06-08_16-38-42_260595134347_rgbf000106-resize_1-target.png,125,2.074,7,2660,137,feet,jsons/VE125_randls_13_rotated.json,578728,889107,52,Woman
114,170213,DepthScenes,duration_manipulation_targetAtFixation,jsons/VE125_randls_13_rotated.json,http://54.235.29.9/FacialAge/BNav_EC2/DepthDuration/v2_depth_duration_MTurk/v2_DepthDuration_HTML.html#165,165,1280,800,1280,800,8-29-2022,14-28-20,115,depth_duration_stimuli/002279_2014-06-28_18-55-32_260595134347_rgbf000040-resize_5/002279_2014-06-28_18-55-32_260595134347_rgbf000040-resize_5-target.png,125,1.5043333333333,3,3187,133,feet,jsons/VE125_randls_13_rotated.json,578728,889107,52,Woman
115,170213,DepthScenes,duration_manipulation_targetAtFixation,jsons/VE125_randls_13_rotated.json,http://54.235.29.9/FacialAge/BNav_EC2/DepthDuration/v2_depth_duration_MTurk/v2_DepthDuration_HTML.html#165,165,1280,800,1280,800,8-29-2022,14-28-20,116,depth_duration_stimuli/003490_2014-05-21_15-50-11_094959634447_rgbf000101-resize_3/003490_2014-05-21_15-50-11_094959634447_rgbf000101-resize_3-target.png,125,3.6445,8,3143,129,feet,jsons/VE125_randls_13_rotated.json,578728,889107,52,Woman
116,170213,DepthScenes,duration_manipulation_targetAtFixation,jsons/VE125_randls_13_rotated.json,http://54.235.29.9/FacialAge/BNav_EC2/DepthDuration/v2_depth_duration_MTurk/v2_DepthDuration_HTML.html#165,165,1280,800,1280,800,8-29-2022,14-28-20,117,depth_duration_stimuli/001175_2014-06-17_15-45-55_260595134347_rgbf000129-resize_4/001175_2014-06-17_15-45-55_260595134347_rgbf000129-resize_4-target.png,125,4.255,9,3659,126,feet,jsons/VE125_randls_13_rotated.json,578728,889107,52,Woman
117,170213,DepthScenes,duration_manipulation_targetAtFixation,jsons/VE125_randls_13_rotated.json,http://54.235.29.9/FacialAge/BNav_EC2/DepthDuration/v2_depth_duration_MTurk/v2_DepthDuration_HTML.html#165,165,1280,800,1280,800,8-29-2022,14-28-20,118,depth_duration_stimuli/001584_2014-06-20_11-07-43_260595134347_rgbf000002-resize_1/001584_2014-06-20_11-07-43_260595134347_rgbf000002-resize_1-target.png,125,3.53,5,3360,126,feet,jsons/VE125_randls_13_rotated.json,578728,889107,52,Woman
118,170213,DepthScenes,duration_manipulation_targetAtFixation,jsons/VE125_randls_13_rotated.json,http://54.235.29.9/FacialAge/BNav_EC2/DepthDuration/v2_depth_duration_MTurk/v2_DepthDuration_HTML.html#165,165,1280,800,1280,800,8-29-2022,14-28-20,119,depth_duration_stimuli/003621_2014-05-23_18-06-08_094959634447_rgbf000101-resize_1/003621_2014-05-23_18-06-08_094959634447_rgbf000101-resize_1-target.png,125,3.9835,8,3369,134,feet,jsons/VE125_randls_13_rotated.json,578728,889107,52,Woman
119,170213,DepthScenes,duration_manipulation_targetAtFixation,jsons/VE125_randls_13_rotated.json,http://54.235.29.9/FacialAge/BNav_EC2/DepthDuration/v2_depth_duration_MTurk/v2_DepthDuration_HTML.html#165,165,1280,800,1280,800,8-29-2022,14-28-20,120,depth_duration_stimuli/000787_2014-06-08_22-33-53_260595134347_rgbf000175-resize_1/000787_2014-06-08_22-33-53_260595134347_rgbf000175-resize-original.jpg,125,4.784,0,2800,128,feet,jsons/VE125_randls_13_rotated.json,578728,889107,52,Woman
120,170213,DepthScenes,duration_manipulation_targetAtFixation,jsons/VE125_randls_13_rotated.json,http://54.235.29.9/FacialAge/BNav_EC2/DepthDuration/v2_depth_duration_MTurk/v2_DepthDuration_HTML.html#165,165,1280,800,1280,800,8-29-2022,14-28-20,121,depth_duration_stimuli/000457_2014-06-08_16-52-43_260595134347_rgbf000199-resize_1/000457_2014-06-08_16-52-43_260595134347_rgbf000199-resize_1-target.png,125,3.6489999999999996,7,2908,123,feet,jsons/VE125_randls_13_rotated.json,578728,889107,52,Woman
121,170213,DepthScenes,duration_manipulation_targetAtFixation,jsons/VE125_randls_13_rotated.json,http://54.235.29.9/FacialAge/BNav_EC2/DepthDuration/v2_depth_duration_MTurk/v2_DepthDuration_HTML.html#165,165,1280,800,1280,800,8-29-2022,14-28-20,122,depth_duration_stimuli/000929_2014-06-09_16-33-19_260595134347_rgbf000139-resize_0/000929_2014-06-09_16-33-19_260595134347_rgbf000139-resize_0-target.png,125,2.8680000000000003,5,3208,119,feet,jsons/VE125_randls_13_rotated.json,578728,889107,52,Woman
122,170213,DepthScenes,duration_manipulation_targetAtFixation,jsons/VE125_randls_13_rotated.json,http://54.235.29.9/FacialAge/BNav_EC2/DepthDuration/v2_depth_duration_MTurk/v2_DepthDuration_HTML.html#165,165,1280,800,1280,800,8-29-2022,14-28-20,123,depth_duration_stimuli/000691_2014-06-08_13-08-50_260595134347_rgbf000132-resize_3/000691_2014-06-08_13-08-50_260595134347_rgbf000132-resize_3-target.png,125,4.1530000000000005,10,3611,117,feet,jsons/VE125_randls_13_rotated.json,578728,889107,52,Woman
123,170213,DepthScenes,duration_manipulation_targetAtFixation,jsons/VE125_randls_13_rotated.json,http://54.235.29.9/FacialAge/BNav_EC2/DepthDuration/v2_depth_duration_MTurk/v2_DepthDuration_HTML.html#165,165,1280,800,1280,800,8-29-2022,14-28-20,124,depth_duration_stimuli/002213_2014-06-28_18-37-58_260595134347_rgbf000055-resize_1/002213_2014-06-28_18-37-58_260595134347_rgbf000055-resize_1-target.png,125,3.62,6,5222,125,feet,jsons/VE125_randls_13_rotated.json,578728,889107,52,Woman
124,170213,DepthScenes,duration_manipulation_targetAtFixation,jsons/VE125_randls_13_rotated.json,http://54.235.29.9/FacialAge/BNav_EC2/DepthDuration/v2_depth_duration_MTurk/v2_DepthDuration_HTML.html#165,165,1280,800,1280,800,8-29-2022,14-28-20,125,depth_duration_stimuli/002103_2014-06-25_20-00-40_260595134347_rgbf000049-resize_0/002103_2014-06-25_20-00-40_260595134347_rgbf000049-resize_0-target.png,125,4.105,5,3187,127,feet,jsons/VE125_randls_13_rotated.json,578728,889107,52,Woman
125,170213,DepthScenes,duration_manipulation_targetAtFixation,jsons/VE125_randls_13_rotated.json,http://54.235.29.9/FacialAge/BNav_EC2/DepthDuration/v2_depth_duration_MTurk/v2_DepthDuration_HTML.html#165,165,1280,800,1280,800,8-29-2022,14-28-20,126,depth_duration_stimuli/002039_2014-06-24_20-22-38_260595134347_rgbf000084-resize_1/002039_2014-06-24_20-22-38_260595134347_rgbf000084-resize_1-target.png,125,4.408,8,2746,130,feet,jsons/VE125_randls_13_rotated.json,578728,889107,52,Woman
126,170213,DepthScenes,duration_manipulation_targetAtFixation,jsons/VE125_randls_13_rotated.json,http://54.235.29.9/FacialAge/BNav_EC2/DepthDuration/v2_depth_duration_MTurk/v2_DepthDuration_HTML.html#165,165,1280,800,1280,800,8-29-2022,14-28-20,127,depth_duration_stimuli/002136_2014-06-25_21-18-03_260595134347_rgbf000109-resize_3/002136_2014-06-25_21-18-03_260595134347_rgbf000109-resize_3-target.png,125,1.9569999999999999,4,2455,126,feet,jsons/VE125_randls_13_rotated.json,578728,889107,52,Woman
127,170213,DepthScenes,duration_manipulation_targetAtFixation,jsons/VE125_randls_13_rotated.json,http://54.235.29.9/FacialAge/BNav_EC2/DepthDuration/v2_depth_duration_MTurk/v2_DepthDuration_HTML.html#165,165,1280,800,1280,800,8-29-2022,14-28-20,128,depth_duration_stimuli/002964_2014-06-08_17-46-11_094959634447_rgbf000091-resize_4/002964_2014-06-08_17-46-11_094959634447_rgbf000091-resize_4-target.png,125,1.6909999999999998,3,2644,126,feet,jsons/VE125_randls_13_rotated.json,578728,889107,52,Woman
128,170213,DepthScenes,duration_manipulation_targetAtFixation,jsons/VE125_randls_13_rotated.json,http://54.235.29.9/FacialAge/BNav_EC2/DepthDuration/v2_depth_duration_MTurk/v2_DepthDuration_HTML.html#165,165,1280,800,1280,800,8-29-2022,14-28-20,129,depth_duration_stimuli/000483_2014-06-09_20-41-45_260595134347_rgbf000116-resize_4/000483_2014-06-09_20-41-45_260595134347_rgbf000116-resize_4-target.png,125,1.337,3,2394,125,feet,jsons/VE125_randls_13_rotated.json,578728,889107,52,Woman
129,170213,DepthScenes,duration_manipulation_targetAtFixation,jsons/VE125_randls_13_rotated.json,http://54.235.29.9/FacialAge/BNav_EC2/DepthDuration/v2_depth_duration_MTurk/v2_DepthDuration_HTML.html#165,165,1280,800,1280,800,8-29-2022,14-28-20,130,depth_duration_stimuli/000469_2014-06-09_19-42-10_260595134347_rgbf000081-resize_1/000469_2014-06-09_19-42-10_260595134347_rgbf000081-resize_1-target.png,125,1.652,2,2564,125,feet,jsons/VE125_randls_13_rotated.json,578728,889107,52,Woman
130,170213,DepthScenes,duration_manipulation_targetAtFixation,jsons/VE125_randls_13_rotated.json,http://54.235.29.9/FacialAge/BNav_EC2/DepthDuration/v2_depth_duration_MTurk/v2_DepthDuration_HTML.html#165,165,1280,800,1280,800,8-29-2022,14-28-20,131,depth_duration_stimuli/001100_2014-06-15_17-46-26_260595134347_rgbf000225-resize_2/001100_2014-06-15_17-46-26_260595134347_rgbf000225-resize_2-target.png,125,2.24,2,2485,112,feet,jsons/VE125_randls_13_rotated.json,578728,889107,52,Woman
131,170213,DepthScenes,duration_manipulation_targetAtFixation,jsons/VE125_randls_13_rotated.json,http://54.235.29.9/FacialAge/BNav_EC2/DepthDuration/v2_depth_duration_MTurk/v2_DepthDuration_HTML.html#165,165,1280,800,1280,800,8-29-2022,14-28-20,132,depth_duration_stimuli/002784_2014-06-22_19-26-30_094959634447_rgbf000083-resize_3/002784_2014-06-22_19-26-30_094959634447_rgbf000083-resize_3-target.png,125,1.8046666666667,2,2520,126,feet,jsons/VE125_randls_13_rotated.json,578728,889107,52,Woman
132,170213,DepthScenes,duration_manipulation_targetAtFixation,jsons/VE125_randls_13_rotated.json,http://54.235.29.9/FacialAge/BNav_EC2/DepthDuration/v2_depth_duration_MTurk/v2_DepthDuration_HTML.html#165,165,1280,800,1280,800,8-29-2022,14-28-20,133,depth_duration_stimuli/003338_2014-05-20_11-01-23_094959634447_rgbf000051-resize_6/003338_2014-05-20_11-01-23_094959634447_rgbf000051-resize_6-target.png,125,1.693,4,2522,127,feet,jsons/VE125_randls_13_rotated.json,578728,889107,52,Woman
133,170213,DepthScenes,duration_manipulation_targetAtFixation,jsons/VE125_randls_13_rotated.json,http://54.235.29.9/FacialAge/BNav_EC2/DepthDuration/v2_depth_duration_MTurk/v2_DepthDuration_HTML.html#165,165,1280,800,1280,800,8-29-2022,14-28-20,134,depth_duration_stimuli/002509_2014-06-24_13-19-22_094959634447_rgbf000077-resize_0/002509_2014-06-24_13-19-22_094959634447_rgbf000077-resize_0-target.png,125,1.3065,4,2656,134,feet,jsons/VE125_randls_13_rotated.json,578728,889107,52,Woman
134,170213,DepthScenes,duration_manipulation_targetAtFixation,jsons/VE125_randls_13_rotated.json,http://54.235.29.9/FacialAge/BNav_EC2/DepthDuration/v2_depth_duration_MTurk/v2_DepthDuration_HTML.html#165,165,1280,800,1280,800,8-29-2022,14-28-20,135,depth_duration_stimuli/000375_2014-06-08_11-17-29_260595134347_rgbf000133-resize_2/000375_2014-06-08_11-17-29_260595134347_rgbf000133-resize-original.jpg,125,4.718,0,2785,136,feet,jsons/VE125_randls_13_rotated.json,578728,889107,52,Woman
135,170213,DepthScenes,duration_manipulation_targetAtFixation,jsons/VE125_randls_13_rotated.json,http://54.235.29.9/FacialAge/BNav_EC2/DepthDuration/v2_depth_duration_MTurk/v2_DepthDuration_HTML.html#165,165,1280,800,1280,800,8-29-2022,14-28-20,136,depth_duration_stimuli/000109_2014-05-14_23-41-52_260595134347_rgbf000035-resize_9/000109_2014-05-14_23-41-52_260595134347_rgbf000035-resize_9-target.png,125,1.3545,3,2609,128,feet,jsons/VE125_randls_13_rotated.json,578728,889107,52,Woman
136,170213,DepthScenes,duration_manipulation_targetAtFixation,jsons/VE125_randls_13_rotated.json,http://54.235.29.9/FacialAge/BNav_EC2/DepthDuration/v2_depth_duration_MTurk/v2_DepthDuration_HTML.html#165,165,1280,800,1280,800,8-29-2022,14-28-20,137,depth_duration_stimuli/000470_2014-06-09_19-42-40_260595134347_rgbf000094-resize_1/000470_2014-06-09_19-42-40_260595134347_rgbf000094-resize_1-target.png,125,1.831,3,3144,130,feet,jsons/VE125_randls_13_rotated.json,578728,889107,52,Woman
137,170213,DepthScenes,duration_manipulation_targetAtFixation,jsons/VE125_randls_13_rotated.json,http://54.235.29.9/FacialAge/BNav_EC2/DepthDuration/v2_depth_duration_MTurk/v2_DepthDuration_HTML.html#165,165,1280,800,1280,800,8-29-2022,14-28-20,138,depth_duration_stimuli/000780_2014-06-08_22-28-29_260595134347_rgbf000126-resize_1/000780_2014-06-08_22-28-29_260595134347_rgbf000126-resize_1-target.png,125,3.3825,7,2771,123,feet,jsons/VE125_randls_13_rotated.json,578728,889107,52,Woman
138,170213,DepthScenes,duration_manipulation_targetAtFixation,jsons/VE125_randls_13_rotated.json,http://54.235.29.9/FacialAge/BNav_EC2/DepthDuration/v2_depth_duration_MTurk/v2_DepthDuration_HTML.html#165,165,1280,800,1280,800,8-29-2022,14-28-20,139,depth_duration_stimuli/002445_2014-06-28_20-32-16_260595134347_rgbf000029-resize_4/002445_2014-06-28_20-32-16_260595134347_rgbf000029-resize_4-target.png,125,2.5315,6,2702,132,feet,jsons/VE125_randls_13_rotated.json,578728,889107,52,Woman
139,170213,DepthScenes,duration_manipulation_targetAtFixation,jsons/VE125_randls_13_rotated.json,http://54.235.29.9/FacialAge/BNav_EC2/DepthDuration/v2_depth_duration_MTurk/v2_DepthDuration_HTML.html#165,165,1280,800,1280,800,8-29-2022,14-28-20,140,depth_duration_stimuli/001094_2014-06-15_17-36-00_260595134347_rgbf000205-resize_0/001094_2014-06-15_17-36-00_260595134347_rgbf000205-resize_0-target.png,125,4.2175,5,2710,114,feet,jsons/VE125_randls_13_rotated.json,578728,889107,52,Woman
140,170213,DepthScenes,duration_manipulation_targetAtFixation,jsons/VE125_randls_13_rotated.json,http://54.235.29.9/FacialAge/BNav_EC2/DepthDuration/v2_depth_duration_MTurk/v2_DepthDuration_HTML.html#165,165,1280,800,1280,800,8-29-2022,14-28-20,141,depth_duration_stimuli/000692_2014-06-08_13-09-42_260595134347_rgbf000199-resize_2/000692_2014-06-08_13-09-42_260595134347_rgbf000199-resize_2-target.png,125,3.661,8,2762,131,feet,jsons/VE125_randls_13_rotated.json,578728,889107,52,Woman
141,170213,DepthScenes,duration_manipulation_targetAtFixation,jsons/VE125_randls_13_rotated.json,http://54.235.29.9/FacialAge/BNav_EC2/DepthDuration/v2_depth_duration_MTurk/v2_DepthDuration_HTML.html#165,165,1280,800,1280,800,8-29-2022,14-28-20,142,depth_duration_stimuli/001235_2014-06-17_16-37-36_260595134347_rgbf000084-resize_4/001235_2014-06-17_16-37-36_260595134347_rgbf000084-resize_4-target.png,125,3.6605,7,2581,122,feet,jsons/VE125_randls_13_rotated.json,578728,889107,52,Woman
142,170213,DepthScenes,duration_manipulation_targetAtFixation,jsons/VE125_randls_13_rotated.json,http://54.235.29.9/FacialAge/BNav_EC2/DepthDuration/v2_depth_duration_MTurk/v2_DepthDuration_HTML.html#165,165,1280,800,1280,800,8-29-2022,14-28-20,143,depth_duration_stimuli/000788_2014-06-08_22-34-36_260595134347_rgbf000131-resize_1/000788_2014-06-08_22-34-36_260595134347_rgbf000131-resize_1-target.png,125,3.359,7,4062,116,feet,jsons/VE125_randls_13_rotated.json,578728,889107,52,Woman
143,170213,DepthScenes,duration_manipulation_targetAtFixation,jsons/VE125_randls_13_rotated.json,http://54.235.29.9/FacialAge/BNav_EC2/DepthDuration/v2_depth_duration_MTurk/v2_DepthDuration_HTML.html#165,165,1280,800,1280,800,8-29-2022,14-28-20,144,depth_duration_stimuli/002568_2014-06-24_13-59-21_094959634447_rgbf000062-resize_4/002568_2014-06-24_13-59-21_094959634447_rgbf000062-resize_4-target.png,125,3.015,8,2651,127,feet,jsons/VE125_randls_13_rotated.json,578728,889107,52,Woman
144,170213,DepthScenes,duration_manipulation_targetAtFixation,jsons/VE125_randls_13_rotated.json,http://54.235.29.9/FacialAge/BNav_EC2/DepthDuration/v2_depth_duration_MTurk/v2_DepthDuration_HTML.html#165,165,1280,800,1280,800,8-29-2022,14-28-20,145,depth_duration_stimuli/003492_2014-05-21_15-50-55_094959634447_rgbf000828-resize_1/003492_2014-05-21_15-50-55_094959634447_rgbf000828-resize_1-target.png,125,4.06875,9,3947,137,feet,jsons/VE125_randls_13_rotated.json,578728,889107,52,Woman
145,170213,DepthScenes,duration_manipulation_targetAtFixation,jsons/VE125_randls_13_rotated.json,http://54.235.29.9/FacialAge/BNav_EC2/DepthDuration/v2_depth_duration_MTurk/v2_DepthDuration_HTML.html#165,165,1280,800,1280,800,8-29-2022,14-28-20,146,depth_duration_stimuli/002657_2014-06-13_15-29-54_094959634447_rgbf000150-resize_1/002657_2014-06-13_15-29-54_094959634447_rgbf000150-resize_1-target.png,125,4.919,9,2719,121,feet,jsons/VE125_randls_13_rotated.json,578728,889107,52,Woman
146,170213,DepthScenes,duration_manipulation_targetAtFixation,jsons/VE125_randls_13_rotated.json,http://54.235.29.9/FacialAge/BNav_EC2/DepthDuration/v2_depth_duration_MTurk/v2_DepthDuration_HTML.html#165,165,1280,800,1280,800,8-29-2022,14-28-20,147,depth_duration_stimuli/002375_2014-06-28_20-13-44_260595134347_rgbf000032-resize_1/002375_2014-06-28_20-13-44_260595134347_rgbf000032-resize_1-target.png,125,4.0175,6,3098,120,feet,jsons/VE125_randls_13_rotated.json,578728,889107,52,Woman
147,170213,DepthScenes,duration_manipulation_targetAtFixation,jsons/VE125_randls_13_rotated.json,http://54.235.29.9/FacialAge/BNav_EC2/DepthDuration/v2_depth_duration_MTurk/v2_DepthDuration_HTML.html#165,165,1280,800,1280,800,8-29-2022,14-28-20,148,depth_duration_stimuli/000665_2014-06-09_20-42-35_260595134347_rgbf000110-resize_1/000665_2014-06-09_20-42-35_260595134347_rgbf000110-resize_1-target.png,125,3.057,7,2984,133,feet,jsons/VE125_randls_13_rotated.json,578728,889107,52,Woman
148,170213,DepthScenes,duration_manipulation_targetAtFixation,jsons/VE125_randls_13_rotated.json,http://54.235.29.9/FacialAge/BNav_EC2/DepthDuration/v2_depth_duration_MTurk/v2_DepthDuration_HTML.html#165,165,1280,800,1280,800,8-29-2022,14-28-20,149,depth_duration_stimuli/001150_2014-06-17_15-27-34_260595134347_rgbf000108-resize_2/001150_2014-06-17_15-27-34_260595134347_rgbf000108-resize_2-target.png,125,4.0325,6,2439,128,feet,jsons/VE125_randls_13_rotated.json,578728,889107,52,Woman
149,170213,DepthScenes,duration_manipulation_targetAtFixation,jsons/VE125_randls_13_rotated.json,http://54.235.29.9/FacialAge/BNav_EC2/DepthDuration/v2_depth_duration_MTurk/v2_DepthDuration_HTML.html#165,165,1280,800,1280,800,8-29-2022,14-28-20,150,depth_duration_stimuli/000556_2014-06-09_22-42-56_260595134347_rgbf000214-resize_1/000556_2014-06-09_22-42-56_260595134347_rgbf000214-resize_1-target.png,125,4.8415,9,6651,134,feet,jsons/VE125_randls_13_rotated.json,578728,889107,52,Woman
150,170213,DepthScenes,duration_manipulation_targetAtFixation,jsons/VE125_randls_13_rotated.json,http://54.235.29.9/FacialAge/BNav_EC2/DepthDuration/v2_depth_duration_MTurk/v2_DepthDuration_HTML.html#165,165,1280,800,1280,800,8-29-2022,14-28-20,151,depth_duration_stimuli/001158_2014-06-17_15-32-16_260595134347_rgbf000138-resize_2/001158_2014-06-17_15-32-16_260595134347_rgbf000138-resize_2-target.png,125,4.5315,10,3564,125,feet,jsons/VE125_randls_13_rotated.json,578728,889107,52,Woman
151,170213,DepthScenes,duration_manipulation_targetAtFixation,jsons/VE125_randls_13_rotated.json,http://54.235.29.9/FacialAge/BNav_EC2/DepthDuration/v2_depth_duration_MTurk/v2_DepthDuration_HTML.html#165,165,1280,800,1280,800,8-29-2022,14-28-20,152,depth_duration_stimuli/000569_2014-06-09_22-51-47_260595134347_rgbf000141-resize_3/000569_2014-06-09_22-51-47_260595134347_rgbf000141-resize-original.jpg,125,4.512,0,2541,113,feet,jsons/VE125_randls_13_rotated.json,578728,889107,52,Woman
152,170213,DepthScenes,duration_manipulation_targetAtFixation,jsons/VE125_randls_13_rotated.json,http://54.235.29.9/FacialAge/BNav_EC2/DepthDuration/v2_depth_duration_MTurk/v2_DepthDuration_HTML.html#165,165,1280,800,1280,800,8-29-2022,14-28-20,153,depth_duration_stimuli/003495_2014-05-21_16-01-51_094959634447_rgbf000100-resize_3/003495_2014-05-21_16-01-51_094959634447_rgbf000100-resize_3-target.png,125,1.6255,5,2919,131,feet,jsons/VE125_randls_13_rotated.json,578728,889107,52,Woman
153,170213,DepthScenes,duration_manipulation_targetAtFixation,jsons/VE125_randls_13_rotated.json,http://54.235.29.9/FacialAge/BNav_EC2/DepthDuration/v2_depth_duration_MTurk/v2_DepthDuration_HTML.html#165,165,1280,800,1280,800,8-29-2022,14-28-20,154,depth_duration_stimuli/001244_2014-06-17_16-47-45_260595134347_rgbf000030-resize_4/001244_2014-06-17_16-47-45_260595134347_rgbf000030-resize_4-target.png,125,2.0425,5,2787,137,feet,jsons/VE125_randls_13_rotated.json,578728,889107,52,Woman
154,170213,DepthScenes,duration_manipulation_targetAtFixation,jsons/VE125_randls_13_rotated.json,http://54.235.29.9/FacialAge/BNav_EC2/DepthDuration/v2_depth_duration_MTurk/v2_DepthDuration_HTML.html#165,165,1280,800,1280,800,8-29-2022,14-28-20,155,depth_duration_stimuli/001650_2014-06-20_12-09-00_260595134347_rgbf000087-resize_3/001650_2014-06-20_12-09-00_260595134347_rgbf000087-resize_3-target.png,125,1.9505,3,3592,121,feet,jsons/VE125_randls_13_rotated.json,578728,889107,52,Woman
155,170213,DepthScenes,duration_manipulation_targetAtFixation,jsons/VE125_randls_13_rotated.json,http://54.235.29.9/FacialAge/BNav_EC2/DepthDuration/v2_depth_duration_MTurk/v2_DepthDuration_HTML.html#165,165,1280,800,1280,800,8-29-2022,14-28-20,156,depth_duration_stimuli/000682_2014-06-08_23-14-58_260595134347_rgbf000041-resize_5/000682_2014-06-08_23-14-58_260595134347_rgbf000041-resize_5-target.png,125,2.7239999999999998,4,2501,112,feet,jsons/VE125_randls_13_rotated.json,578728,889107,52,Woman
156,170213,DepthScenes,duration_manipulation_targetAtFixation,jsons/VE125_randls_13_rotated.json,http://54.235.29.9/FacialAge/BNav_EC2/DepthDuration/v2_depth_duration_MTurk/v2_DepthDuration_HTML.html#165,165,1280,800,1280,800,8-29-2022,14-28-20,157,depth_duration_stimuli/003081_2014-06-15_15-19-16_094959634447_rgbf000150-resize_1/003081_2014-06-15_15-19-16_094959634447_rgbf000150-resize_1-target.png,125,3.9125,8,2558,132,feet,jsons/VE125_randls_13_rotated.json,578728,889107,52,Woman
157,170213,DepthScenes,duration_manipulation_targetAtFixation,jsons/VE125_randls_13_rotated.json,http://54.235.29.9/FacialAge/BNav_EC2/DepthDuration/v2_depth_duration_MTurk/v2_DepthDuration_HTML.html#165,165,1280,800,1280,800,8-29-2022,14-28-20,158,depth_duration_stimuli/001417_2014-06-19_16-25-36_260595134347_rgbf000115-resize_5/001417_2014-06-19_16-25-36_260595134347_rgbf000115-resize_5-target.png,125,4.6255,7,3163,117,feet,jsons/VE125_randls_13_rotated.json,578728,889107,52,Woman
158,170213,DepthScenes,duration_manipulation_targetAtFixation,jsons/VE125_randls_13_rotated.json,http://54.235.29.9/FacialAge/BNav_EC2/DepthDuration/v2_depth_duration_MTurk/v2_DepthDuration_HTML.html#165,165,1280,800,1280,800,8-29-2022,14-28-20,159,depth_duration_stimuli/001516_2014-06-20_16-25-09_260595134347_rgbf000076-resize_2/001516_2014-06-20_16-25-09_260595134347_rgbf000076-resize_2-target.png,125,1.7445,6,3072,120,feet,jsons/VE125_randls_13_rotated.json,578728,889107,52,Woman
159,170213,DepthScenes,duration_manipulation_targetAtFixation,jsons/VE125_randls_13_rotated.json,http://54.235.29.9/FacialAge/BNav_EC2/DepthDuration/v2_depth_duration_MTurk/v2_DepthDuration_HTML.html#165,165,1280,800,1280,800,8-29-2022,14-28-20,160,depth_duration_stimuli/002118_2014-06-25_20-32-08_260595134347_rgbf000078-resize_1/002118_2014-06-25_20-32-08_260595134347_rgbf000078-resize_1-target.png,125,2.6460000000000004,5,2707,119,feet,jsons/VE125_randls_13_rotated.json,578728,889107,52,Woman
160,170213,DepthScenes,duration_manipulation_targetAtFixation,jsons/VE125_randls_13_rotated.json,http://54.235.29.9/FacialAge/BNav_EC2/DepthDuration/v2_depth_duration_MTurk/v2_DepthDuration_HTML.html#165,165,1280,800,1280,800,8-29-2022,14-28-20,161,depth_duration_stimuli/000677_2014-06-08_23-10-32_260595134347_rgbf000158-resize_6/000677_2014-06-08_23-10-32_260595134347_rgbf000158-resize_6-target.png,125,3.556,8,3132,123,feet,jsons/VE125_randls_13_rotated.json,578728,889107,52,Woman
161,170213,DepthScenes,duration_manipulation_targetAtFixation,jsons/VE125_randls_13_rotated.json,http://54.235.29.9/FacialAge/BNav_EC2/DepthDuration/v2_depth_duration_MTurk/v2_DepthDuration_HTML.html#165,165,1280,800,1280,800,8-29-2022,14-28-20,162,depth_duration_stimuli/001029_2014-06-08_13-17-57_260595134347_rgbf000065-resize_1/001029_2014-06-08_13-17-57_260595134347_rgbf000065-resize_1-target.png,125,3.0835,8,4075,130,feet,jsons/VE125_randls_13_rotated.json,578728,889107,52,Woman
162,170213,DepthScenes,duration_manipulation_targetAtFixation,jsons/VE125_randls_13_rotated.json,http://54.235.29.9/FacialAge/BNav_EC2/DepthDuration/v2_depth_duration_MTurk/v2_DepthDuration_HTML.html#165,165,1280,800,1280,800,8-29-2022,14-28-20,163,depth_duration_stimuli/001815_2014-06-26_20-52-55_260595134347_rgbf000020-resize_0/001815_2014-06-26_20-52-55_260595134347_rgbf000020-resize_0-target.png,125,3.3865,10,4474,136,feet,jsons/VE125_randls_13_rotated.json,578728,889107,52,Woman
163,170213,DepthScenes,duration_manipulation_targetAtFixation,jsons/VE125_randls_13_rotated.json,http://54.235.29.9/FacialAge/BNav_EC2/DepthDuration/v2_depth_duration_MTurk/v2_DepthDuration_HTML.html#165,165,1280,800,1280,800,8-29-2022,14-28-20,164,depth_duration_stimuli/001808_2014-06-26_20-50-58_260595134347_rgbf000029-resize_1/001808_2014-06-26_20-50-58_260595134347_rgbf000029-resize_1-target.png,125,4.249,8,2704,126,feet,jsons/VE125_randls_13_rotated.json,578728,889107,52,Woman
