,subjID,experimentName,versionName,sequenceName,url,selected_row,windowWidth,windowHeight,screenWidth,screenHeight,startDate,startTime,trial,stimulus,duration,actual_depth,depth_estimate,trial_RT,log_sceneDuration,unitSelection,seq_filepath,experimentTime,totalTime,age,gender
0,172927,DepthScenes,duration_manipulation_targetAtFixation,jsons/VE125_randls_76.json,http://54.235.29.9/FacialAge/BNav_EC2/DepthDuration/v2_depth_duration_MTurk/v2_DepthDuration_HTML.html#141,141,1525,718,1525,858,8-21-2022,19-17-15,1,depth_duration_stimuli/002905_2014-06-03_18-04-43_094959634447_rgbf000151-resize_2/002905_2014-06-03_18-04-43_094959634447_rgbf000151-resize_2-target.png,125,2.0295,20,3895,123,meters,jsons/VE125_randls_76.json,690175,968889,25,Man
1,172927,DepthScenes,duration_manipulation_targetAtFixation,jsons/VE125_randls_76.json,http://54.235.29.9/FacialAge/BNav_EC2/DepthDuration/v2_depth_duration_MTurk/v2_DepthDuration_HTML.html#141,141,1525,718,1525,858,8-21-2022,19-17-15,2,depth_duration_stimuli/003423_2014-05-21_10-23-26_094959634447_rgbf002665-resize_2/003423_2014-05-21_10-23-26_094959634447_rgbf002665-resize_2-target.png,125,3.2575,0,18343,126,meters,jsons/VE125_randls_76.json,690175,968889,25,Man
2,172927,DepthScenes,duration_manipulation_targetAtFixation,jsons/VE125_randls_76.json,http://54.235.29.9/FacialAge/BNav_EC2/DepthDuration/v2_depth_duration_MTurk/v2_DepthDuration_HTML.html#141,141,1525,718,1525,858,8-21-2022,19-17-15,3,depth_duration_stimuli/002989_2014-06-15_12-25-03_094959634447_rgbf000150-resize_3/002989_2014-06-15_12-25-03_094959634447_rgbf000150-resize_3-target.png,125,4.1975,20,3133,133,meters,jsons/VE125_randls_76.json,690175,968889,25,Man
3,172927,DepthScenes,duration_manipulation_targetAtFixation,jsons/VE125_randls_76.json,http://54.235.29.9/FacialAge/BNav_EC2/DepthDuration/v2_depth_duration_MTurk/v2_DepthDuration_HTML.html#141,141,1525,718,1525,858,8-21-2022,19-17-15,4,depth_duration_stimuli/000866_2014-06-09_20-45-42_260595134347_rgbf000139-resize_1/000866_2014-06-09_20-45-42_260595134347_rgbf000139-resize_1-target.png,125,3.2155,30,3041,127,meters,jsons/VE125_randls_76.json,690175,968889,25,Man
4,172927,DepthScenes,duration_manipulation_targetAtFixation,jsons/VE125_randls_76.json,http://54.235.29.9/FacialAge/BNav_EC2/DepthDuration/v2_depth_duration_MTurk/v2_DepthDuration_HTML.html#141,141,1525,718,1525,858,8-21-2022,19-17-15,5,depth_duration_stimuli/002725_2014-06-22_11-47-51_094959634447_rgbf000070-resize_1/002725_2014-06-22_11-47-51_094959634447_rgbf000070-resize_1-target.png,125,2.195,25,2869,132,meters,jsons/VE125_randls_76.json,690175,968889,25,Man
5,172927,DepthScenes,duration_manipulation_targetAtFixation,jsons/VE125_randls_76.json,http://54.235.29.9/FacialAge/BNav_EC2/DepthDuration/v2_depth_duration_MTurk/v2_DepthDuration_HTML.html#141,141,1525,718,1525,858,8-21-2022,19-17-15,6,depth_duration_stimuli/002344_2014-06-28_20-06-29_260595134347_rgbf000030-resize_1/002344_2014-06-28_20-06-29_260595134347_rgbf000030-resize_1-target.png,125,1.5795,25,2484,120,meters,jsons/VE125_randls_76.json,690175,968889,25,Man
6,172927,DepthScenes,duration_manipulation_targetAtFixation,jsons/VE125_randls_76.json,http://54.235.29.9/FacialAge/BNav_EC2/DepthDuration/v2_depth_duration_MTurk/v2_DepthDuration_HTML.html#141,141,1525,718,1525,858,8-21-2022,19-17-15,7,depth_duration_stimuli/001158_2014-06-17_15-32-16_260595134347_rgbf000138-resize_2/001158_2014-06-17_15-32-16_260595134347_rgbf000138-resize_2-target.png,125,4.5315,30,2745,116,meters,jsons/VE125_randls_76.json,690175,968889,25,Man
7,172927,DepthScenes,duration_manipulation_targetAtFixation,jsons/VE125_randls_76.json,http://54.235.29.9/FacialAge/BNav_EC2/DepthDuration/v2_depth_duration_MTurk/v2_DepthDuration_HTML.html#141,141,1525,718,1525,858,8-21-2022,19-17-15,8,depth_duration_stimuli/000556_2014-06-09_22-42-56_260595134347_rgbf000214-resize_1/000556_2014-06-09_22-42-56_260595134347_rgbf000214-resize_1-target.png,125,4.8415,0,2326,115,meters,jsons/VE125_randls_76.json,690175,968889,25,Man
8,172927,DepthScenes,duration_manipulation_targetAtFixation,jsons/VE125_randls_76.json,http://54.235.29.9/FacialAge/BNav_EC2/DepthDuration/v2_depth_duration_MTurk/v2_DepthDuration_HTML.html#141,141,1525,718,1525,858,8-21-2022,19-17-15,9,depth_duration_stimuli/000917_2014-06-09_22-45-29_260595134347_rgbf000149-resize_3/000917_2014-06-09_22-45-29_260595134347_rgbf000149-resize_3-target.png,125,4.1865,40,4471,115,meters,jsons/VE125_randls_76.json,690175,968889,25,Man
9,172927,DepthScenes,duration_manipulation_targetAtFixation,jsons/VE125_randls_76.json,http://54.235.29.9/FacialAge/BNav_EC2/DepthDuration/v2_depth_duration_MTurk/v2_DepthDuration_HTML.html#141,141,1525,718,1525,858,8-21-2022,19-17-15,10,depth_duration_stimuli/002323_2014-06-28_20-01-54_260595134347_rgbf000051-resize_4/002323_2014-06-28_20-01-54_260595134347_rgbf000051-resize_4-target.png,125,3.7310000000000003,30,2466,115,meters,jsons/VE125_randls_76.json,690175,968889,25,Man
10,172927,DepthScenes,duration_manipulation_targetAtFixation,jsons/VE125_randls_76.json,http://54.235.29.9/FacialAge/BNav_EC2/DepthDuration/v2_depth_duration_MTurk/v2_DepthDuration_HTML.html#141,141,1525,718,1525,858,8-21-2022,19-17-15,11,depth_duration_stimuli/000878_2014-06-08_22-52-45_260595134347_rgbf000045-resize_2/000878_2014-06-08_22-52-45_260595134347_rgbf000045-resize_2-target.png,125,2.092,25,4586,137,meters,jsons/VE125_randls_76.json,690175,968889,25,Man
11,172927,DepthScenes,duration_manipulation_targetAtFixation,jsons/VE125_randls_76.json,http://54.235.29.9/FacialAge/BNav_EC2/DepthDuration/v2_depth_duration_MTurk/v2_DepthDuration_HTML.html#141,141,1525,718,1525,858,8-21-2022,19-17-15,12,depth_duration_stimuli/002953_2014-06-08_17-32-18_094959634447_rgbf000059-resize_5/002953_2014-06-08_17-32-18_094959634447_rgbf000059-resize_5-target.png,125,1.551,20,4730,124,meters,jsons/VE125_randls_76.json,690175,968889,25,Man
12,172927,DepthScenes,duration_manipulation_targetAtFixation,jsons/VE125_randls_76.json,http://54.235.29.9/FacialAge/BNav_EC2/DepthDuration/v2_depth_duration_MTurk/v2_DepthDuration_HTML.html#141,141,1525,718,1525,858,8-21-2022,19-17-15,13,depth_duration_stimuli/000569_2014-06-09_22-51-47_260595134347_rgbf000141-resize_3/000569_2014-06-09_22-51-47_260595134347_rgbf000141-resize-original.jpg,125,4.512,0,2195,136,meters,jsons/VE125_randls_76.json,690175,968889,25,Man
13,172927,DepthScenes,duration_manipulation_targetAtFixation,jsons/VE125_randls_76.json,http://54.235.29.9/FacialAge/BNav_EC2/DepthDuration/v2_depth_duration_MTurk/v2_DepthDuration_HTML.html#141,141,1525,718,1525,858,8-21-2022,19-17-15,14,depth_duration_stimuli/001029_2014-06-08_13-17-57_260595134347_rgbf000065-resize_1/001029_2014-06-08_13-17-57_260595134347_rgbf000065-resize_1-target.png,125,3.0835,0,2051,136,meters,jsons/VE125_randls_76.json,690175,968889,25,Man
14,172927,DepthScenes,duration_manipulation_targetAtFixation,jsons/VE125_randls_76.json,http://54.235.29.9/FacialAge/BNav_EC2/DepthDuration/v2_depth_duration_MTurk/v2_DepthDuration_HTML.html#141,141,1525,718,1525,858,8-21-2022,19-17-15,15,depth_duration_stimuli/000677_2014-06-08_23-10-32_260595134347_rgbf000158-resize_6/000677_2014-06-08_23-10-32_260595134347_rgbf000158-resize_6-target.png,125,3.556,20,6646,116,meters,jsons/VE125_randls_76.json,690175,968889,25,Man
15,172927,DepthScenes,duration_manipulation_targetAtFixation,jsons/VE125_randls_76.json,http://54.235.29.9/FacialAge/BNav_EC2/DepthDuration/v2_depth_duration_MTurk/v2_DepthDuration_HTML.html#141,141,1525,718,1525,858,8-21-2022,19-17-15,16,depth_duration_stimuli/002043_2014-06-24_20-29-38_260595134347_rgbf000039-resize_4/002043_2014-06-24_20-29-38_260595134347_rgbf000039-resize_4-target.png,125,2.8435,25,2679,119,meters,jsons/VE125_randls_76.json,690175,968889,25,Man
16,172927,DepthScenes,duration_manipulation_targetAtFixation,jsons/VE125_randls_76.json,http://54.235.29.9/FacialAge/BNav_EC2/DepthDuration/v2_depth_duration_MTurk/v2_DepthDuration_HTML.html#141,141,1525,718,1525,858,8-21-2022,19-17-15,17,depth_duration_stimuli/003048_2014-06-15_13-49-43_094959634447_rgbf000150-resize_1/003048_2014-06-15_13-49-43_094959634447_rgbf000150-resize_1-target.png,125,4.0035,25,2585,123,meters,jsons/VE125_randls_76.json,690175,968889,25,Man
17,172927,DepthScenes,duration_manipulation_targetAtFixation,jsons/VE125_randls_76.json,http://54.235.29.9/FacialAge/BNav_EC2/DepthDuration/v2_depth_duration_MTurk/v2_DepthDuration_HTML.html#141,141,1525,718,1525,858,8-21-2022,19-17-15,18,depth_duration_stimuli/001066_2014-06-08_22-03-20_260595134347_rgbf000066-resize_4/001066_2014-06-08_22-03-20_260595134347_rgbf000066-resize_4-target.png,125,4.2330000000000005,26,3896,123,meters,jsons/VE125_randls_76.json,690175,968889,25,Man
18,172927,DepthScenes,duration_manipulation_targetAtFixation,jsons/VE125_randls_76.json,http://54.235.29.9/FacialAge/BNav_EC2/DepthDuration/v2_depth_duration_MTurk/v2_DepthDuration_HTML.html#141,141,1525,718,1525,858,8-21-2022,19-17-15,19,depth_duration_stimuli/000742_2014-06-08_18-48-09_260595134347_rgbf000164-resize_4/000742_2014-06-08_18-48-09_260595134347_rgbf000164-resize_4-target.png,125,4.632,30,2479,131,meters,jsons/VE125_randls_76.json,690175,968889,25,Man
19,172927,DepthScenes,duration_manipulation_targetAtFixation,jsons/VE125_randls_76.json,http://54.235.29.9/FacialAge/BNav_EC2/DepthDuration/v2_depth_duration_MTurk/v2_DepthDuration_HTML.html#141,141,1525,718,1525,858,8-21-2022,19-17-15,20,depth_duration_stimuli/000368_2014-06-09_15-53-01_260595134347_rgbf000155-resize_2/000368_2014-06-09_15-53-01_260595134347_rgbf000155-resize_2-target.png,125,2.4859999999999998,24,3707,123,meters,jsons/VE125_randls_76.json,690175,968889,25,Man
20,172927,DepthScenes,duration_manipulation_targetAtFixation,jsons/VE125_randls_76.json,http://54.235.29.9/FacialAge/BNav_EC2/DepthDuration/v2_depth_duration_MTurk/v2_DepthDuration_HTML.html#141,141,1525,718,1525,858,8-21-2022,19-17-15,21,depth_duration_stimuli/002678_2014-06-13_16-15-32_094959634447_rgbf000151-resize_6/002678_2014-06-13_16-15-32_094959634447_rgbf000151-resize_6-target.png,125,2.1830000000000003,15,2604,119,meters,jsons/VE125_randls_76.json,690175,968889,25,Man
21,172927,DepthScenes,duration_manipulation_targetAtFixation,jsons/VE125_randls_76.json,http://54.235.29.9/FacialAge/BNav_EC2/DepthDuration/v2_depth_duration_MTurk/v2_DepthDuration_HTML.html#141,141,1525,718,1525,858,8-21-2022,19-17-15,22,depth_duration_stimuli/002549_2014-06-24_13-41-39_094959634447_rgbf000022-resize_3/002549_2014-06-24_13-41-39_094959634447_rgbf000022-resize_3-target.png,125,1.476,18,2712,124,meters,jsons/VE125_randls_76.json,690175,968889,25,Man
22,172927,DepthScenes,duration_manipulation_targetAtFixation,jsons/VE125_randls_76.json,http://54.235.29.9/FacialAge/BNav_EC2/DepthDuration/v2_depth_duration_MTurk/v2_DepthDuration_HTML.html#141,141,1525,718,1525,858,8-21-2022,19-17-15,23,depth_duration_stimuli/002750_2014-06-22_19-08-03_094959634447_rgbf000094-resize_4/002750_2014-06-22_19-08-03_094959634447_rgbf000094-resize_4-target.png,125,2.354,28,4074,136,meters,jsons/VE125_randls_76.json,690175,968889,25,Man
23,172927,DepthScenes,duration_manipulation_targetAtFixation,jsons/VE125_randls_76.json,http://54.235.29.9/FacialAge/BNav_EC2/DepthDuration/v2_depth_duration_MTurk/v2_DepthDuration_HTML.html#141,141,1525,718,1525,858,8-21-2022,19-17-15,24,depth_duration_stimuli/003070_2014-06-15_14-58-27_094959634447_rgbf000150-resize_3/003070_2014-06-15_14-58-27_094959634447_rgbf000150-resize_3-target.png,125,2.9415,35,4009,124,meters,jsons/VE125_randls_76.json,690175,968889,25,Man
24,172927,DepthScenes,duration_manipulation_targetAtFixation,jsons/VE125_randls_76.json,http://54.235.29.9/FacialAge/BNav_EC2/DepthDuration/v2_depth_duration_MTurk/v2_DepthDuration_HTML.html#141,141,1525,718,1525,858,8-21-2022,19-17-15,25,depth_duration_stimuli/000943_2014-06-09_19-31-07_260595134347_rgbf000128-resize_1/000943_2014-06-09_19-31-07_260595134347_rgbf000128-resize_1-target.png,125,1.9765,25,3740,121,meters,jsons/VE125_randls_76.json,690175,968889,25,Man
25,172927,DepthScenes,duration_manipulation_targetAtFixation,jsons/VE125_randls_76.json,http://54.235.29.9/FacialAge/BNav_EC2/DepthDuration/v2_depth_duration_MTurk/v2_DepthDuration_HTML.html#141,141,1525,718,1525,858,8-21-2022,19-17-15,26,depth_duration_stimuli/000929_2014-06-09_16-33-19_260595134347_rgbf000139-resize_0/000929_2014-06-09_16-33-19_260595134347_rgbf000139-resize_0-target.png,125,2.8680000000000003,27,3087,120,meters,jsons/VE125_randls_76.json,690175,968889,25,Man
26,172927,DepthScenes,duration_manipulation_targetAtFixation,jsons/VE125_randls_76.json,http://54.235.29.9/FacialAge/BNav_EC2/DepthDuration/v2_depth_duration_MTurk/v2_DepthDuration_HTML.html#141,141,1525,718,1525,858,8-21-2022,19-17-15,27,depth_duration_stimuli/000457_2014-06-08_16-52-43_260595134347_rgbf000199-resize_1/000457_2014-06-08_16-52-43_260595134347_rgbf000199-resize_1-target.png,125,3.6489999999999996,38,3376,126,meters,jsons/VE125_randls_76.json,690175,968889,25,Man
27,172927,DepthScenes,duration_manipulation_targetAtFixation,jsons/VE125_randls_76.json,http://54.235.29.9/FacialAge/BNav_EC2/DepthDuration/v2_depth_duration_MTurk/v2_DepthDuration_HTML.html#141,141,1525,718,1525,858,8-21-2022,19-17-15,28,depth_duration_stimuli/002600_2014-06-24_14-27-04_094959634447_rgbf000074-resize_2/002600_2014-06-24_14-27-04_094959634447_rgbf000074-resize_2-target.png,125,2.7575,15,3576,116,meters,jsons/VE125_randls_76.json,690175,968889,25,Man
28,172927,DepthScenes,duration_manipulation_targetAtFixation,jsons/VE125_randls_76.json,http://54.235.29.9/FacialAge/BNav_EC2/DepthDuration/v2_depth_duration_MTurk/v2_DepthDuration_HTML.html#141,141,1525,718,1525,858,8-21-2022,19-17-15,29,depth_duration_stimuli/003228_2014-05-14_13-42-35_094959634447_rgbf000101-resize_1/003228_2014-05-14_13-42-35_094959634447_rgbf000101-resize_1-target.png,125,1.9680000000000002,18,3146,123,meters,jsons/VE125_randls_76.json,690175,968889,25,Man
29,172927,DepthScenes,duration_manipulation_targetAtFixation,jsons/VE125_randls_76.json,http://54.235.29.9/FacialAge/BNav_EC2/DepthDuration/v2_depth_duration_MTurk/v2_DepthDuration_HTML.html#141,141,1525,718,1525,858,8-21-2022,19-17-15,30,depth_duration_stimuli/000375_2014-06-08_11-17-29_260595134347_rgbf000133-resize_2/000375_2014-06-08_11-17-29_260595134347_rgbf000133-resize-original.jpg,125,4.718,0,1970,127,meters,jsons/VE125_randls_76.json,690175,968889,25,Man
30,172927,DepthScenes,duration_manipulation_targetAtFixation,jsons/VE125_randls_76.json,http://54.235.29.9/FacialAge/BNav_EC2/DepthDuration/v2_depth_duration_MTurk/v2_DepthDuration_HTML.html#141,141,1525,718,1525,858,8-21-2022,19-17-15,31,depth_duration_stimuli/001199_2014-06-17_16-03-48_260595134347_rgbf000077-resize_0/001199_2014-06-17_16-03-48_260595134347_rgbf000077-resize_0-target.png,125,3.4375,20,99518,124,meters,jsons/VE125_randls_76.json,690175,968889,25,Man
31,172927,DepthScenes,duration_manipulation_targetAtFixation,jsons/VE125_randls_76.json,http://54.235.29.9/FacialAge/BNav_EC2/DepthDuration/v2_depth_duration_MTurk/v2_DepthDuration_HTML.html#141,141,1525,718,1525,858,8-21-2022,19-17-15,32,depth_duration_stimuli/000502_2014-06-08_23-02-32_260595134347_rgbf000063-resize_4/000502_2014-06-08_23-02-32_260595134347_rgbf000063-resize_4-target.png,125,2.431,15,2978,132,meters,jsons/VE125_randls_76.json,690175,968889,25,Man
32,172927,DepthScenes,duration_manipulation_targetAtFixation,jsons/VE125_randls_76.json,http://54.235.29.9/FacialAge/BNav_EC2/DepthDuration/v2_depth_duration_MTurk/v2_DepthDuration_HTML.html#141,141,1525,718,1525,858,8-21-2022,19-17-15,33,depth_duration_stimuli/000486_2014-06-09_20-47-20_260595134347_rgbf000143-resize_2/000486_2014-06-09_20-47-20_260595134347_rgbf000143-resize_2-target.png,125,4.8325,18,2240,119,meters,jsons/VE125_randls_76.json,690175,968889,25,Man
33,172927,DepthScenes,duration_manipulation_targetAtFixation,jsons/VE125_randls_76.json,http://54.235.29.9/FacialAge/BNav_EC2/DepthDuration/v2_depth_duration_MTurk/v2_DepthDuration_HTML.html#141,141,1525,718,1525,858,8-21-2022,19-17-15,34,depth_duration_stimuli/003083_2014-06-15_15-21-03_094959634447_rgbf000063-resize_1/003083_2014-06-15_15-21-03_094959634447_rgbf000063-resize_1-target.png,125,4.1405,29,3167,121,meters,jsons/VE125_randls_76.json,690175,968889,25,Man
34,172927,DepthScenes,duration_manipulation_targetAtFixation,jsons/VE125_randls_76.json,http://54.235.29.9/FacialAge/BNav_EC2/DepthDuration/v2_depth_duration_MTurk/v2_DepthDuration_HTML.html#141,141,1525,718,1525,858,8-21-2022,19-17-15,35,depth_duration_stimuli/001167_2014-06-17_15-38-07_260595134347_rgbf000108-resize_0/001167_2014-06-17_15-38-07_260595134347_rgbf000108-resize_0-target.png,125,1.8505,30,2528,134,meters,jsons/VE125_randls_76.json,690175,968889,25,Man
35,172927,DepthScenes,duration_manipulation_targetAtFixation,jsons/VE125_randls_76.json,http://54.235.29.9/FacialAge/BNav_EC2/DepthDuration/v2_depth_duration_MTurk/v2_DepthDuration_HTML.html#141,141,1525,718,1525,858,8-21-2022,19-17-15,36,depth_duration_stimuli/003587_2014-05-23_16-48-02_094959634447_rgbf002384-resize_2/003587_2014-05-23_16-48-02_094959634447_rgbf002384-resize_2-target.png,125,1.357,0,2617,134,meters,jsons/VE125_randls_76.json,690175,968889,25,Man
36,172927,DepthScenes,duration_manipulation_targetAtFixation,jsons/VE125_randls_76.json,http://54.235.29.9/FacialAge/BNav_EC2/DepthDuration/v2_depth_duration_MTurk/v2_DepthDuration_HTML.html#141,141,1525,718,1525,858,8-21-2022,19-17-15,37,depth_duration_stimuli/000773_2014-06-08_22-24-54_260595134347_rgbf000093-resize_1/000773_2014-06-08_22-24-54_260595134347_rgbf000093-resize_1-target.png,125,4.973,25,2764,136,meters,jsons/VE125_randls_76.json,690175,968889,25,Man
37,172927,DepthScenes,duration_manipulation_targetAtFixation,jsons/VE125_randls_76.json,http://54.235.29.9/FacialAge/BNav_EC2/DepthDuration/v2_depth_duration_MTurk/v2_DepthDuration_HTML.html#141,141,1525,718,1525,858,8-21-2022,19-17-15,38,depth_duration_stimuli/002414_2014-06-28_20-24-58_260595134347_rgbf000067-resize_4/002414_2014-06-28_20-24-58_260595134347_rgbf000067-resize_4-target.png,125,4.363,45,5548,127,meters,jsons/VE125_randls_76.json,690175,968889,25,Man
38,172927,DepthScenes,duration_manipulation_targetAtFixation,jsons/VE125_randls_76.json,http://54.235.29.9/FacialAge/BNav_EC2/DepthDuration/v2_depth_duration_MTurk/v2_DepthDuration_HTML.html#141,141,1525,718,1525,858,8-21-2022,19-17-15,39,depth_duration_stimuli/000447_2014-06-08_16-15-46_260595134347_rgbf000130-resize_1/000447_2014-06-08_16-15-46_260595134347_rgbf000130-resize_1-target.png,125,4.479,20,2605,132,meters,jsons/VE125_randls_76.json,690175,968889,25,Man
39,172927,DepthScenes,duration_manipulation_targetAtFixation,jsons/VE125_randls_76.json,http://54.235.29.9/FacialAge/BNav_EC2/DepthDuration/v2_depth_duration_MTurk/v2_DepthDuration_HTML.html#141,141,1525,718,1525,858,8-21-2022,19-17-15,40,depth_duration_stimuli/001447_2014-06-19_17-00-32_260595134347_rgbf000082-resize_5/001447_2014-06-19_17-00-32_260595134347_rgbf000082-resize_5-target.png,125,4.13775,35,2802,116,meters,jsons/VE125_randls_76.json,690175,968889,25,Man
40,172927,DepthScenes,duration_manipulation_targetAtFixation,jsons/VE125_randls_76.json,http://54.235.29.9/FacialAge/BNav_EC2/DepthDuration/v2_depth_duration_MTurk/v2_DepthDuration_HTML.html#141,141,1525,718,1525,858,8-21-2022,19-17-15,41,depth_duration_stimuli/002272_2014-06-28_18-53-56_260595134347_rgbf000067-resize_2/002272_2014-06-28_18-53-56_260595134347_rgbf000067-resize_2-target.png,125,1.138,25,2588,128,meters,jsons/VE125_randls_76.json,690175,968889,25,Man
41,172927,DepthScenes,duration_manipulation_targetAtFixation,jsons/VE125_randls_76.json,http://54.235.29.9/FacialAge/BNav_EC2/DepthDuration/v2_depth_duration_MTurk/v2_DepthDuration_HTML.html#141,141,1525,718,1525,858,8-21-2022,19-17-15,42,depth_duration_stimuli/001571_2014-06-20_17-21-32_260595134347_rgbf000089-resize_1/001571_2014-06-20_17-21-32_260595134347_rgbf000089-resize_1-target.png,125,1.86,20,2464,120,meters,jsons/VE125_randls_76.json,690175,968889,25,Man
42,172927,DepthScenes,duration_manipulation_targetAtFixation,jsons/VE125_randls_76.json,http://54.235.29.9/FacialAge/BNav_EC2/DepthDuration/v2_depth_duration_MTurk/v2_DepthDuration_HTML.html#141,141,1525,718,1525,858,8-21-2022,19-17-15,43,depth_duration_stimuli/001056_2014-06-08_18-46-44_260595134347_rgbf000068-resize_0/001056_2014-06-08_18-46-44_260595134347_rgbf000068-resize_0-target.png,125,2.6625,28,3026,121,meters,jsons/VE125_randls_76.json,690175,968889,25,Man
43,172927,DepthScenes,duration_manipulation_targetAtFixation,jsons/VE125_randls_76.json,http://54.235.29.9/FacialAge/BNav_EC2/DepthDuration/v2_depth_duration_MTurk/v2_DepthDuration_HTML.html#141,141,1525,718,1525,858,8-21-2022,19-17-15,44,depth_duration_stimuli/002199_2014-06-28_18-33-56_260595134347_rgbf000074-resize_0/002199_2014-06-28_18-33-56_260595134347_rgbf000074-resize_0-target.png,125,1.996,15,2124,125,meters,jsons/VE125_randls_76.json,690175,968889,25,Man
44,172927,DepthScenes,duration_manipulation_targetAtFixation,jsons/VE125_randls_76.json,http://54.235.29.9/FacialAge/BNav_EC2/DepthDuration/v2_depth_duration_MTurk/v2_DepthDuration_HTML.html#141,141,1525,718,1525,858,8-21-2022,19-17-15,45,depth_duration_stimuli/000787_2014-06-08_22-33-53_260595134347_rgbf000175-resize_1/000787_2014-06-08_22-33-53_260595134347_rgbf000175-resize-original.jpg,125,4.784,0,1731,123,meters,jsons/VE125_randls_76.json,690175,968889,25,Man
45,172927,DepthScenes,duration_manipulation_targetAtFixation,jsons/VE125_randls_76.json,http://54.235.29.9/FacialAge/BNav_EC2/DepthDuration/v2_depth_duration_MTurk/v2_DepthDuration_HTML.html#141,141,1525,718,1525,858,8-21-2022,19-17-15,46,depth_duration_stimuli/000642_2014-06-08_16-59-25_260595134347_rgbf000098-resize_2/000642_2014-06-08_16-59-25_260595134347_rgbf000098-resize_2-target.png,125,2.8815,18,3857,123,meters,jsons/VE125_randls_76.json,690175,968889,25,Man
46,172927,DepthScenes,duration_manipulation_targetAtFixation,jsons/VE125_randls_76.json,http://54.235.29.9/FacialAge/BNav_EC2/DepthDuration/v2_depth_duration_MTurk/v2_DepthDuration_HTML.html#141,141,1525,718,1525,858,8-21-2022,19-17-15,47,depth_duration_stimuli/002425_2014-06-28_20-27-29_260595134347_rgbf000031-resize_8/002425_2014-06-28_20-27-29_260595134347_rgbf000031-resize_8-target.png,125,3.8960000000000004,28,2414,120,meters,jsons/VE125_randls_76.json,690175,968889,25,Man
47,172927,DepthScenes,duration_manipulation_targetAtFixation,jsons/VE125_randls_76.json,http://54.235.29.9/FacialAge/BNav_EC2/DepthDuration/v2_depth_duration_MTurk/v2_DepthDuration_HTML.html#141,141,1525,718,1525,858,8-21-2022,19-17-15,48,depth_duration_stimuli/000682_2014-06-08_23-14-58_260595134347_rgbf000041-resize_5/000682_2014-06-08_23-14-58_260595134347_rgbf000041-resize_5-target.png,125,2.7239999999999998,15,2391,119,meters,jsons/VE125_randls_76.json,690175,968889,25,Man
48,172927,DepthScenes,duration_manipulation_targetAtFixation,jsons/VE125_randls_76.json,http://54.235.29.9/FacialAge/BNav_EC2/DepthDuration/v2_depth_duration_MTurk/v2_DepthDuration_HTML.html#141,141,1525,718,1525,858,8-21-2022,19-17-15,49,depth_duration_stimuli/001650_2014-06-20_12-09-00_260595134347_rgbf000087-resize_3/001650_2014-06-20_12-09-00_260595134347_rgbf000087-resize_3-target.png,125,1.9505,18,2312,119,meters,jsons/VE125_randls_76.json,690175,968889,25,Man
49,172927,DepthScenes,duration_manipulation_targetAtFixation,jsons/VE125_randls_76.json,http://54.235.29.9/FacialAge/BNav_EC2/DepthDuration/v2_depth_duration_MTurk/v2_DepthDuration_HTML.html#141,141,1525,718,1525,858,8-21-2022,19-17-15,50,depth_duration_stimuli/002763_2014-06-22_19-13-10_094959634447_rgbf000075-resize_4/002763_2014-06-22_19-13-10_094959634447_rgbf000075-resize_4-target.png,125,1.68375,29,2374,115,meters,jsons/VE125_randls_76.json,690175,968889,25,Man
50,172927,DepthScenes,duration_manipulation_targetAtFixation,jsons/VE125_randls_76.json,http://54.235.29.9/FacialAge/BNav_EC2/DepthDuration/v2_depth_duration_MTurk/v2_DepthDuration_HTML.html#141,141,1525,718,1525,858,8-21-2022,19-17-15,51,depth_duration_stimuli/002209_2014-06-28_18-36-10_260595134347_rgbf000051-resize_1/002209_2014-06-28_18-36-10_260595134347_rgbf000051-resize_1-target.png,125,2.057,27,2263,113,meters,jsons/VE125_randls_76.json,690175,968889,25,Man
51,172927,DepthScenes,duration_manipulation_targetAtFixation,jsons/VE125_randls_76.json,http://54.235.29.9/FacialAge/BNav_EC2/DepthDuration/v2_depth_duration_MTurk/v2_DepthDuration_HTML.html#141,141,1525,718,1525,858,8-21-2022,19-17-15,52,depth_duration_stimuli/000470_2014-06-09_19-42-40_260595134347_rgbf000094-resize_1/000470_2014-06-09_19-42-40_260595134347_rgbf000094-resize_1-target.png,125,1.831,25,4591,128,meters,jsons/VE125_randls_76.json,690175,968889,25,Man
52,172927,DepthScenes,duration_manipulation_targetAtFixation,jsons/VE125_randls_76.json,http://54.235.29.9/FacialAge/BNav_EC2/DepthDuration/v2_depth_duration_MTurk/v2_DepthDuration_HTML.html#141,141,1525,718,1525,858,8-21-2022,19-17-15,53,depth_duration_stimuli/000109_2014-05-14_23-41-52_260595134347_rgbf000035-resize_9/000109_2014-05-14_23-41-52_260595134347_rgbf000035-resize_9-target.png,125,1.3545,13,2689,129,meters,jsons/VE125_randls_76.json,690175,968889,25,Man
53,172927,DepthScenes,duration_manipulation_targetAtFixation,jsons/VE125_randls_76.json,http://54.235.29.9/FacialAge/BNav_EC2/DepthDuration/v2_depth_duration_MTurk/v2_DepthDuration_HTML.html#141,141,1525,718,1525,858,8-21-2022,19-17-15,54,depth_duration_stimuli/002988_2014-06-15_12-24-20_094959634447_rgbf000150-resize_1/002988_2014-06-15_12-24-20_094959634447_rgbf000150-resize_1-target.png,125,4.7669999999999995,35,3020,129,meters,jsons/VE125_randls_76.json,690175,968889,25,Man
54,172927,DepthScenes,duration_manipulation_targetAtFixation,jsons/VE125_randls_76.json,http://54.235.29.9/FacialAge/BNav_EC2/DepthDuration/v2_depth_duration_MTurk/v2_DepthDuration_HTML.html#141,141,1525,718,1525,858,8-21-2022,19-17-15,55,depth_duration_stimuli/001052_2014-06-08_18-24-54_260595134347_rgbf000130-resize_1/001052_2014-06-08_18-24-54_260595134347_rgbf000130-resize_1-target.png,125,4.1045,36,2203,137,meters,jsons/VE125_randls_76.json,690175,968889,25,Man
55,172927,DepthScenes,duration_manipulation_targetAtFixation,jsons/VE125_randls_76.json,http://54.235.29.9/FacialAge/BNav_EC2/DepthDuration/v2_depth_duration_MTurk/v2_DepthDuration_HTML.html#141,141,1525,718,1525,858,8-21-2022,19-17-15,56,depth_duration_stimuli/000522_2014-06-08_13-35-06_260595134347_rgbf000244-resize_1/000522_2014-06-08_13-35-06_260595134347_rgbf000244-resize_1-target.png,125,2.3715,15,2333,123,meters,jsons/VE125_randls_76.json,690175,968889,25,Man
56,172927,DepthScenes,duration_manipulation_targetAtFixation,jsons/VE125_randls_76.json,http://54.235.29.9/FacialAge/BNav_EC2/DepthDuration/v2_depth_duration_MTurk/v2_DepthDuration_HTML.html#141,141,1525,718,1525,858,8-21-2022,19-17-15,57,depth_duration_stimuli/002949_2014-06-26_15-57-42_094959634447_rgbf000079-resize_1/002949_2014-06-26_15-57-42_094959634447_rgbf000079-resize_1-target.png,125,1.8915,2,2503,125,meters,jsons/VE125_randls_76.json,690175,968889,25,Man
57,172927,DepthScenes,duration_manipulation_targetAtFixation,jsons/VE125_randls_76.json,http://54.235.29.9/FacialAge/BNav_EC2/DepthDuration/v2_depth_duration_MTurk/v2_DepthDuration_HTML.html#141,141,1525,718,1525,858,8-21-2022,19-17-15,58,depth_duration_stimuli/002509_2014-06-24_13-19-22_094959634447_rgbf000077-resize_0/002509_2014-06-24_13-19-22_094959634447_rgbf000077-resize_0-target.png,125,1.3065,25,4018,117,meters,jsons/VE125_randls_76.json,690175,968889,25,Man
58,172927,DepthScenes,duration_manipulation_targetAtFixation,jsons/VE125_randls_76.json,http://54.235.29.9/FacialAge/BNav_EC2/DepthDuration/v2_depth_duration_MTurk/v2_DepthDuration_HTML.html#141,141,1525,718,1525,858,8-21-2022,19-17-15,59,depth_duration_stimuli/003338_2014-05-20_11-01-23_094959634447_rgbf000051-resize_6/003338_2014-05-20_11-01-23_094959634447_rgbf000051-resize_6-target.png,125,1.693,16,2458,130,meters,jsons/VE125_randls_76.json,690175,968889,25,Man
59,172927,DepthScenes,duration_manipulation_targetAtFixation,jsons/VE125_randls_76.json,http://54.235.29.9/FacialAge/BNav_EC2/DepthDuration/v2_depth_duration_MTurk/v2_DepthDuration_HTML.html#141,141,1525,718,1525,858,8-21-2022,19-17-15,60,depth_duration_stimuli/000436_2014-06-09_22-25-11_260595134347_rgbf000137-resize_1/000436_2014-06-09_22-25-11_260595134347_rgbf000137-resize_1-target.png,125,4.0705,28,4089,118,meters,jsons/VE125_randls_76.json,690175,968889,25,Man
60,172927,DepthScenes,duration_manipulation_targetAtFixation,jsons/VE125_randls_76.json,http://54.235.29.9/FacialAge/BNav_EC2/DepthDuration/v2_depth_duration_MTurk/v2_DepthDuration_HTML.html#141,141,1525,718,1525,858,8-21-2022,19-17-15,61,depth_duration_stimuli/002444_2014-06-28_20-32-08_260595134347_rgbf000027-resize_0/002444_2014-06-28_20-32-08_260595134347_rgbf000027-resize_0-target.png,125,4.388999999999999,14,2637,130,meters,jsons/VE125_randls_76.json,690175,968889,25,Man
61,172927,DepthScenes,duration_manipulation_targetAtFixation,jsons/VE125_randls_76.json,http://54.235.29.9/FacialAge/BNav_EC2/DepthDuration/v2_depth_duration_MTurk/v2_DepthDuration_HTML.html#141,141,1525,718,1525,858,8-21-2022,19-17-15,62,depth_duration_stimuli/003621_2014-05-23_18-06-08_094959634447_rgbf000101-resize_1/003621_2014-05-23_18-06-08_094959634447_rgbf000101-resize_1-target.png,125,3.9835,16,2337,123,meters,jsons/VE125_randls_76.json,690175,968889,25,Man
62,172927,DepthScenes,duration_manipulation_targetAtFixation,jsons/VE125_randls_76.json,http://54.235.29.9/FacialAge/BNav_EC2/DepthDuration/v2_depth_duration_MTurk/v2_DepthDuration_HTML.html#141,141,1525,718,1525,858,8-21-2022,19-17-15,63,depth_duration_stimuli/001584_2014-06-20_11-07-43_260595134347_rgbf000002-resize_1/001584_2014-06-20_11-07-43_260595134347_rgbf000002-resize_1-target.png,125,3.53,25,2111,122,meters,jsons/VE125_randls_76.json,690175,968889,25,Man
63,172927,DepthScenes,duration_manipulation_targetAtFixation,jsons/VE125_randls_76.json,http://54.235.29.9/FacialAge/BNav_EC2/DepthDuration/v2_depth_duration_MTurk/v2_DepthDuration_HTML.html#141,141,1525,718,1525,858,8-21-2022,19-17-15,64,depth_duration_stimuli/001055_2014-06-08_18-45-35_260595134347_rgbf000111-resize_4/001055_2014-06-08_18-45-35_260595134347_rgbf000111-resize_4-target.png,125,2.4290000000000003,26,2180,118,meters,jsons/VE125_randls_76.json,690175,968889,25,Man
64,172927,DepthScenes,duration_manipulation_targetAtFixation,jsons/VE125_randls_76.json,http://54.235.29.9/FacialAge/BNav_EC2/DepthDuration/v2_depth_duration_MTurk/v2_DepthDuration_HTML.html#141,141,1525,718,1525,858,8-21-2022,19-17-15,65,depth_duration_stimuli/000549_2014-06-08_22-10-24_260595134347_rgbf000247-resize_3/000549_2014-06-08_22-10-24_260595134347_rgbf000247-resize_3-target.png,125,1.841,36,2458,128,meters,jsons/VE125_randls_76.json,690175,968889,25,Man
65,172927,DepthScenes,duration_manipulation_targetAtFixation,jsons/VE125_randls_76.json,http://54.235.29.9/FacialAge/BNav_EC2/DepthDuration/v2_depth_duration_MTurk/v2_DepthDuration_HTML.html#141,141,1525,718,1525,858,8-21-2022,19-17-15,66,depth_duration_stimuli/001222_2014-06-17_16-24-06_260595134347_rgbf000073-resize_0/001222_2014-06-17_16-24-06_260595134347_rgbf000073-resize-original.jpg,125,1.4385,0,2739,136,meters,jsons/VE125_randls_76.json,690175,968889,25,Man
66,172927,DepthScenes,duration_manipulation_targetAtFixation,jsons/VE125_randls_76.json,http://54.235.29.9/FacialAge/BNav_EC2/DepthDuration/v2_depth_duration_MTurk/v2_DepthDuration_HTML.html#141,141,1525,718,1525,858,8-21-2022,19-17-15,67,depth_duration_stimuli/000810_2014-06-08_17-20-01_260595134347_rgbf000105-resize_0/000810_2014-06-08_17-20-01_260595134347_rgbf000105-resize_0-target.png,125,1.4865,25,2188,130,meters,jsons/VE125_randls_76.json,690175,968889,25,Man
67,172927,DepthScenes,duration_manipulation_targetAtFixation,jsons/VE125_randls_76.json,http://54.235.29.9/FacialAge/BNav_EC2/DepthDuration/v2_depth_duration_MTurk/v2_DepthDuration_HTML.html#141,141,1525,718,1525,858,8-21-2022,19-17-15,68,depth_duration_stimuli/001214_2014-06-17_16-13-55_260595134347_rgbf000111-resize_0/001214_2014-06-17_16-13-55_260595134347_rgbf000111-resize_0-target.png,125,2.6505,15,2260,128,meters,jsons/VE125_randls_76.json,690175,968889,25,Man
68,172927,DepthScenes,duration_manipulation_targetAtFixation,jsons/VE125_randls_76.json,http://54.235.29.9/FacialAge/BNav_EC2/DepthDuration/v2_depth_duration_MTurk/v2_DepthDuration_HTML.html#141,141,1525,718,1525,858,8-21-2022,19-17-15,69,depth_duration_stimuli/002039_2014-06-24_20-22-38_260595134347_rgbf000084-resize_1/002039_2014-06-24_20-22-38_260595134347_rgbf000084-resize_1-target.png,125,4.408,35,2034,122,meters,jsons/VE125_randls_76.json,690175,968889,25,Man
69,172927,DepthScenes,duration_manipulation_targetAtFixation,jsons/VE125_randls_76.json,http://54.235.29.9/FacialAge/BNav_EC2/DepthDuration/v2_depth_duration_MTurk/v2_DepthDuration_HTML.html#141,141,1525,718,1525,858,8-21-2022,19-17-15,70,depth_duration_stimuli/002103_2014-06-25_20-00-40_260595134347_rgbf000049-resize_0/002103_2014-06-25_20-00-40_260595134347_rgbf000049-resize_0-target.png,125,4.105,25,2236,136,meters,jsons/VE125_randls_76.json,690175,968889,25,Man
70,172927,DepthScenes,duration_manipulation_targetAtFixation,jsons/VE125_randls_76.json,http://54.235.29.9/FacialAge/BNav_EC2/DepthDuration/v2_depth_duration_MTurk/v2_DepthDuration_HTML.html#141,141,1525,718,1525,858,8-21-2022,19-17-15,71,depth_duration_stimuli/002375_2014-06-28_20-13-44_260595134347_rgbf000032-resize_1/002375_2014-06-28_20-13-44_260595134347_rgbf000032-resize_1-target.png,125,4.0175,15,2892,135,meters,jsons/VE125_randls_76.json,690175,968889,25,Man
71,172927,DepthScenes,duration_manipulation_targetAtFixation,jsons/VE125_randls_76.json,http://54.235.29.9/FacialAge/BNav_EC2/DepthDuration/v2_depth_duration_MTurk/v2_DepthDuration_HTML.html#141,141,1525,718,1525,858,8-21-2022,19-17-15,72,depth_duration_stimuli/002657_2014-06-13_15-29-54_094959634447_rgbf000150-resize_1/002657_2014-06-13_15-29-54_094959634447_rgbf000150-resize_1-target.png,125,4.919,25,2198,126,meters,jsons/VE125_randls_76.json,690175,968889,25,Man
72,172927,DepthScenes,duration_manipulation_targetAtFixation,jsons/VE125_randls_76.json,http://54.235.29.9/FacialAge/BNav_EC2/DepthDuration/v2_depth_duration_MTurk/v2_DepthDuration_HTML.html#141,141,1525,718,1525,858,8-21-2022,19-17-15,73,depth_duration_stimuli/002663_2014-06-13_15-50-26_094959634447_rgbf000075-resize_1/002663_2014-06-13_15-50-26_094959634447_rgbf000075-resize_1-target.png,125,4.7495,35,2049,137,meters,jsons/VE125_randls_76.json,690175,968889,25,Man
73,172927,DepthScenes,duration_manipulation_targetAtFixation,jsons/VE125_randls_76.json,http://54.235.29.9/FacialAge/BNav_EC2/DepthDuration/v2_depth_duration_MTurk/v2_DepthDuration_HTML.html#141,141,1525,718,1525,858,8-21-2022,19-17-15,74,depth_duration_stimuli/000409_2014-06-04_19-23-33_260595134347_rgbf000067-resize_0/000409_2014-06-04_19-23-33_260595134347_rgbf000067-resize_0-target.png,125,3.7335,16,2573,119,meters,jsons/VE125_randls_76.json,690175,968889,25,Man
74,172927,DepthScenes,duration_manipulation_targetAtFixation,jsons/VE125_randls_76.json,http://54.235.29.9/FacialAge/BNav_EC2/DepthDuration/v2_depth_duration_MTurk/v2_DepthDuration_HTML.html#141,141,1525,718,1525,858,8-21-2022,19-17-15,75,depth_duration_stimuli/002153_2014-06-25_21-27-18_260595134347_rgbf000038-resize_5/002153_2014-06-25_21-27-18_260595134347_rgbf000038-resize_5-target.png,125,2.505,20,1995,125,meters,jsons/VE125_randls_76.json,690175,968889,25,Man
75,172927,DepthScenes,duration_manipulation_targetAtFixation,jsons/VE125_randls_76.json,http://54.235.29.9/FacialAge/BNav_EC2/DepthDuration/v2_depth_duration_MTurk/v2_DepthDuration_HTML.html#141,141,1525,718,1525,858,8-21-2022,19-17-15,76,depth_duration_stimuli/002660_2014-06-13_15-44-18_094959634447_rgbf001878-resize_2/002660_2014-06-13_15-44-18_094959634447_rgbf001878-resize_2-target.png,125,3.576,35,2041,123,meters,jsons/VE125_randls_76.json,690175,968889,25,Man
76,172927,DepthScenes,duration_manipulation_targetAtFixation,jsons/VE125_randls_76.json,http://54.235.29.9/FacialAge/BNav_EC2/DepthDuration/v2_depth_duration_MTurk/v2_DepthDuration_HTML.html#141,141,1525,718,1525,858,8-21-2022,19-17-15,77,depth_duration_stimuli/001016_2014-06-09_16-16-10_260595134347_rgbf000112-resize_5/001016_2014-06-09_16-16-10_260595134347_rgbf000112-resize_5-target.png,125,1.6565,30,2158,127,meters,jsons/VE125_randls_76.json,690175,968889,25,Man
77,172927,DepthScenes,duration_manipulation_targetAtFixation,jsons/VE125_randls_76.json,http://54.235.29.9/FacialAge/BNav_EC2/DepthDuration/v2_depth_duration_MTurk/v2_DepthDuration_HTML.html#141,141,1525,718,1525,858,8-21-2022,19-17-15,78,depth_duration_stimuli/002340_2014-06-28_20-05-46_260595134347_rgbf000113-resize_0/002340_2014-06-28_20-05-46_260595134347_rgbf000113-resize_0-target.png,125,2.4735,35,2096,135,meters,jsons/VE125_randls_76.json,690175,968889,25,Man
78,172927,DepthScenes,duration_manipulation_targetAtFixation,jsons/VE125_randls_76.json,http://54.235.29.9/FacialAge/BNav_EC2/DepthDuration/v2_depth_duration_MTurk/v2_DepthDuration_HTML.html#141,141,1525,718,1525,858,8-21-2022,19-17-15,79,depth_duration_stimuli/000009_2014-05-26_14-32-05_260595134347_rgbf000034-resize_3/000009_2014-05-26_14-32-05_260595134347_rgbf000034-resize_3-target.png,125,3.8715,36,2060,127,meters,jsons/VE125_randls_76.json,690175,968889,25,Man
79,172927,DepthScenes,duration_manipulation_targetAtFixation,jsons/VE125_randls_76.json,http://54.235.29.9/FacialAge/BNav_EC2/DepthDuration/v2_depth_duration_MTurk/v2_DepthDuration_HTML.html#141,141,1525,718,1525,858,8-21-2022,19-17-15,80,depth_duration_stimuli/001828_2014-06-26_21-40-03_260595134347_rgbf000024-resize_0/001828_2014-06-26_21-40-03_260595134347_rgbf000024-resize_0-target.png,125,4.8260000000000005,35,2859,135,meters,jsons/VE125_randls_76.json,690175,968889,25,Man
80,172927,DepthScenes,duration_manipulation_targetAtFixation,jsons/VE125_randls_76.json,http://54.235.29.9/FacialAge/BNav_EC2/DepthDuration/v2_depth_duration_MTurk/v2_DepthDuration_HTML.html#141,141,1525,718,1525,858,8-21-2022,19-17-15,81,depth_duration_stimuli/001570_2014-06-20_17-21-09_260595134347_rgbf000135-resize_4/001570_2014-06-20_17-21-09_260595134347_rgbf000135-resize_4-target.png,125,4.467,39,2657,124,meters,jsons/VE125_randls_76.json,690175,968889,25,Man
81,172927,DepthScenes,duration_manipulation_targetAtFixation,jsons/VE125_randls_76.json,http://54.235.29.9/FacialAge/BNav_EC2/DepthDuration/v2_depth_duration_MTurk/v2_DepthDuration_HTML.html#141,141,1525,718,1525,858,8-21-2022,19-17-15,82,depth_duration_stimuli/001392_2014-06-19_16-07-59_260595134347_rgbf000046-resize_1/001392_2014-06-19_16-07-59_260595134347_rgbf000046-resize_1-target.png,125,4.135,38,2215,124,meters,jsons/VE125_randls_76.json,690175,968889,25,Man
82,172927,DepthScenes,duration_manipulation_targetAtFixation,jsons/VE125_randls_76.json,http://54.235.29.9/FacialAge/BNav_EC2/DepthDuration/v2_depth_duration_MTurk/v2_DepthDuration_HTML.html#141,141,1525,718,1525,858,8-21-2022,19-17-15,83,depth_duration_stimuli/002118_2014-06-25_20-32-08_260595134347_rgbf000078-resize_1/002118_2014-06-25_20-32-08_260595134347_rgbf000078-resize_1-target.png,125,2.6460000000000004,20,61599,135,meters,jsons/VE125_randls_76.json,690175,968889,25,Man
83,172927,DepthScenes,duration_manipulation_targetAtFixation,jsons/VE125_randls_76.json,http://54.235.29.9/FacialAge/BNav_EC2/DepthDuration/v2_depth_duration_MTurk/v2_DepthDuration_HTML.html#141,141,1525,718,1525,858,8-21-2022,19-17-15,84,depth_duration_stimuli/001516_2014-06-20_16-25-09_260595134347_rgbf000076-resize_2/001516_2014-06-20_16-25-09_260595134347_rgbf000076-resize_2-target.png,125,1.7445,20,3098,126,meters,jsons/VE125_randls_76.json,690175,968889,25,Man
84,172927,DepthScenes,duration_manipulation_targetAtFixation,jsons/VE125_randls_76.json,http://54.235.29.9/FacialAge/BNav_EC2/DepthDuration/v2_depth_duration_MTurk/v2_DepthDuration_HTML.html#141,141,1525,718,1525,858,8-21-2022,19-17-15,85,depth_duration_stimuli/000692_2014-06-08_13-09-42_260595134347_rgbf000199-resize_2/000692_2014-06-08_13-09-42_260595134347_rgbf000199-resize_2-target.png,125,3.661,15,2748,140,meters,jsons/VE125_randls_76.json,690175,968889,25,Man
85,172927,DepthScenes,duration_manipulation_targetAtFixation,jsons/VE125_randls_76.json,http://54.235.29.9/FacialAge/BNav_EC2/DepthDuration/v2_depth_duration_MTurk/v2_DepthDuration_HTML.html#141,141,1525,718,1525,858,8-21-2022,19-17-15,86,depth_duration_stimuli/001094_2014-06-15_17-36-00_260595134347_rgbf000205-resize_0/001094_2014-06-15_17-36-00_260595134347_rgbf000205-resize_0-target.png,125,4.2175,15,2735,122,meters,jsons/VE125_randls_76.json,690175,968889,25,Man
86,172927,DepthScenes,duration_manipulation_targetAtFixation,jsons/VE125_randls_76.json,http://54.235.29.9/FacialAge/BNav_EC2/DepthDuration/v2_depth_duration_MTurk/v2_DepthDuration_HTML.html#141,141,1525,718,1525,858,8-21-2022,19-17-15,87,depth_duration_stimuli/001417_2014-06-19_16-25-36_260595134347_rgbf000115-resize_5/001417_2014-06-19_16-25-36_260595134347_rgbf000115-resize_5-target.png,125,4.6255,20,2232,124,meters,jsons/VE125_randls_76.json,690175,968889,25,Man
87,172927,DepthScenes,duration_manipulation_targetAtFixation,jsons/VE125_randls_76.json,http://54.235.29.9/FacialAge/BNav_EC2/DepthDuration/v2_depth_duration_MTurk/v2_DepthDuration_HTML.html#141,141,1525,718,1525,858,8-21-2022,19-17-15,88,depth_duration_stimuli/003081_2014-06-15_15-19-16_094959634447_rgbf000150-resize_1/003081_2014-06-15_15-19-16_094959634447_rgbf000150-resize_1-target.png,125,3.9125,35,3114,126,meters,jsons/VE125_randls_76.json,690175,968889,25,Man
88,172927,DepthScenes,duration_manipulation_targetAtFixation,jsons/VE125_randls_76.json,http://54.235.29.9/FacialAge/BNav_EC2/DepthDuration/v2_depth_duration_MTurk/v2_DepthDuration_HTML.html#141,141,1525,718,1525,858,8-21-2022,19-17-15,89,depth_duration_stimuli/000758_2014-06-08_22-05-08_260595134347_rgbf000085-resize_0/000758_2014-06-08_22-05-08_260595134347_rgbf000085-resize_0-target.png,125,3.3810000000000002,36,1967,125,meters,jsons/VE125_randls_76.json,690175,968889,25,Man
89,172927,DepthScenes,duration_manipulation_targetAtFixation,jsons/VE125_randls_76.json,http://54.235.29.9/FacialAge/BNav_EC2/DepthDuration/v2_depth_duration_MTurk/v2_DepthDuration_HTML.html#141,141,1525,718,1525,858,8-21-2022,19-17-15,90,depth_duration_stimuli/000854_2014-06-09_19-43-13_260595134347_rgbf000066-resize_0/000854_2014-06-09_19-43-13_260595134347_rgbf000066-resize_0-target.png,125,3.068,25,1794,124,meters,jsons/VE125_randls_76.json,690175,968889,25,Man
90,172927,DepthScenes,duration_manipulation_targetAtFixation,jsons/VE125_randls_76.json,http://54.235.29.9/FacialAge/BNav_EC2/DepthDuration/v2_depth_duration_MTurk/v2_DepthDuration_HTML.html#141,141,1525,718,1525,858,8-21-2022,19-17-15,91,depth_duration_stimuli/002964_2014-06-08_17-46-11_094959634447_rgbf000091-resize_4/002964_2014-06-08_17-46-11_094959634447_rgbf000091-resize_4-target.png,125,1.6909999999999998,15,6183,125,meters,jsons/VE125_randls_76.json,690175,968889,25,Man
91,172927,DepthScenes,duration_manipulation_targetAtFixation,jsons/VE125_randls_76.json,http://54.235.29.9/FacialAge/BNav_EC2/DepthDuration/v2_depth_duration_MTurk/v2_DepthDuration_HTML.html#141,141,1525,718,1525,858,8-21-2022,19-17-15,92,depth_duration_stimuli/002136_2014-06-25_21-18-03_260595134347_rgbf000109-resize_3/002136_2014-06-25_21-18-03_260595134347_rgbf000109-resize_3-target.png,125,1.9569999999999999,25,3246,123,meters,jsons/VE125_randls_76.json,690175,968889,25,Man
92,172927,DepthScenes,duration_manipulation_targetAtFixation,jsons/VE125_randls_76.json,http://54.235.29.9/FacialAge/BNav_EC2/DepthDuration/v2_depth_duration_MTurk/v2_DepthDuration_HTML.html#141,141,1525,718,1525,858,8-21-2022,19-17-15,93,depth_duration_stimuli/003534_2014-05-22_15-06-10_094959634447_rgbf000102-resize_4/003534_2014-05-22_15-06-10_094959634447_rgbf000102-resize_4-target.png,125,1.426,36,3721,123,meters,jsons/VE125_randls_76.json,690175,968889,25,Man
93,172927,DepthScenes,duration_manipulation_targetAtFixation,jsons/VE125_randls_76.json,http://54.235.29.9/FacialAge/BNav_EC2/DepthDuration/v2_depth_duration_MTurk/v2_DepthDuration_HTML.html#141,141,1525,718,1525,858,8-21-2022,19-17-15,94,depth_duration_stimuli/002637_2014-06-24_14-51-13_094959634447_rgbf000066-resize_4/002637_2014-06-24_14-51-13_094959634447_rgbf000066-resize_4-target.png,125,1.9955,25,2983,122,meters,jsons/VE125_randls_76.json,690175,968889,25,Man
94,172927,DepthScenes,duration_manipulation_targetAtFixation,jsons/VE125_randls_76.json,http://54.235.29.9/FacialAge/BNav_EC2/DepthDuration/v2_depth_duration_MTurk/v2_DepthDuration_HTML.html#141,141,1525,718,1525,858,8-21-2022,19-17-15,95,depth_duration_stimuli/001164_2014-06-17_15-35-46_260595134347_rgbf000085-resize_3/001164_2014-06-17_15-35-46_260595134347_rgbf000085-resize_3-target.png,125,2.354,36,2901,123,meters,jsons/VE125_randls_76.json,690175,968889,25,Man
95,172927,DepthScenes,duration_manipulation_targetAtFixation,jsons/VE125_randls_76.json,http://54.235.29.9/FacialAge/BNav_EC2/DepthDuration/v2_depth_duration_MTurk/v2_DepthDuration_HTML.html#141,141,1525,718,1525,858,8-21-2022,19-17-15,96,depth_duration_stimuli/001136_2014-06-17_15-19-41_260595134347_rgbf000076-resize_3/001136_2014-06-17_15-19-41_260595134347_rgbf000076-resize_3-target.png,125,1.8655,15,2694,124,meters,jsons/VE125_randls_76.json,690175,968889,25,Man
96,172927,DepthScenes,duration_manipulation_targetAtFixation,jsons/VE125_randls_76.json,http://54.235.29.9/FacialAge/BNav_EC2/DepthDuration/v2_depth_duration_MTurk/v2_DepthDuration_HTML.html#141,141,1525,718,1525,858,8-21-2022,19-17-15,97,depth_duration_stimuli/002057_2014-06-24_21-00-13_260595134347_rgbf000120-resize_1/002057_2014-06-24_21-00-13_260595134347_rgbf000120-resize_1-target.png,125,2.967,25,2862,124,meters,jsons/VE125_randls_76.json,690175,968889,25,Man
97,172927,DepthScenes,duration_manipulation_targetAtFixation,jsons/VE125_randls_76.json,http://54.235.29.9/FacialAge/BNav_EC2/DepthDuration/v2_depth_duration_MTurk/v2_DepthDuration_HTML.html#141,141,1525,718,1525,858,8-21-2022,19-17-15,98,depth_duration_stimuli/000709_2014-06-08_13-51-55_260595134347_rgbf000068-resize_3/000709_2014-06-08_13-51-55_260595134347_rgbf000068-resize_3-target.png,125,1.8030000000000002,36,2099,139,meters,jsons/VE125_randls_76.json,690175,968889,25,Man
98,172927,DepthScenes,duration_manipulation_targetAtFixation,jsons/VE125_randls_76.json,http://54.235.29.9/FacialAge/BNav_EC2/DepthDuration/v2_depth_duration_MTurk/v2_DepthDuration_HTML.html#141,141,1525,718,1525,858,8-21-2022,19-17-15,99,depth_duration_stimuli/001540_2014-06-20_17-01-05_260595134347_rgbf000086-resize_2/001540_2014-06-20_17-01-05_260595134347_rgbf000086-resize-original.jpg,125,1.459,15,2242,125,meters,jsons/VE125_randls_76.json,690175,968889,25,Man
99,172927,DepthScenes,duration_manipulation_targetAtFixation,jsons/VE125_randls_76.json,http://54.235.29.9/FacialAge/BNav_EC2/DepthDuration/v2_depth_duration_MTurk/v2_DepthDuration_HTML.html#141,141,1525,718,1525,858,8-21-2022,19-17-15,100,depth_duration_stimuli/001555_2014-06-20_17-12-10_260595134347_rgbf000065-resize_4/001555_2014-06-20_17-12-10_260595134347_rgbf000065-resize_4-target.png,125,1.633,25,2067,124,meters,jsons/VE125_randls_76.json,690175,968889,25,Man
100,172927,DepthScenes,duration_manipulation_targetAtFixation,jsons/VE125_randls_76.json,http://54.235.29.9/FacialAge/BNav_EC2/DepthDuration/v2_depth_duration_MTurk/v2_DepthDuration_HTML.html#141,141,1525,718,1525,858,8-21-2022,19-17-15,101,depth_duration_stimuli/000103_2014-05-14_22-01-17_260595134347_rgbf000152-resize_5/000103_2014-05-14_22-01-17_260595134347_rgbf000152-resize_5-target.png,125,1.993,36,3040,123,meters,jsons/VE125_randls_76.json,690175,968889,25,Man
101,172927,DepthScenes,duration_manipulation_targetAtFixation,jsons/VE125_randls_76.json,http://54.235.29.9/FacialAge/BNav_EC2/DepthDuration/v2_depth_duration_MTurk/v2_DepthDuration_HTML.html#141,141,1525,718,1525,858,8-21-2022,19-17-15,102,depth_duration_stimuli/003292_2014-05-14_21-53-49_094959634447_rgbf000100-resize_2/003292_2014-05-14_21-53-49_094959634447_rgbf000100-resize_2-target.png,125,3.4815,25,2149,121,meters,jsons/VE125_randls_76.json,690175,968889,25,Man
102,172927,DepthScenes,duration_manipulation_targetAtFixation,jsons/VE125_randls_76.json,http://54.235.29.9/FacialAge/BNav_EC2/DepthDuration/v2_depth_duration_MTurk/v2_DepthDuration_HTML.html#141,141,1525,718,1525,858,8-21-2022,19-17-15,103,depth_duration_stimuli/002639_2014-06-24_14-51-37_094959634447_rgbf000074-resize_4/002639_2014-06-24_14-51-37_094959634447_rgbf000074-resize_4-target.png,125,4.0375,15,2426,118,meters,jsons/VE125_randls_76.json,690175,968889,25,Man
103,172927,DepthScenes,duration_manipulation_targetAtFixation,jsons/VE125_randls_76.json,http://54.235.29.9/FacialAge/BNav_EC2/DepthDuration/v2_depth_duration_MTurk/v2_DepthDuration_HTML.html#141,141,1525,718,1525,858,8-21-2022,19-17-15,104,depth_duration_stimuli/001059_2014-06-08_21-53-27_260595134347_rgbf000061-resize_4/001059_2014-06-08_21-53-27_260595134347_rgbf000061-resize_4-target.png,125,2.4185,20,2009,116,meters,jsons/VE125_randls_76.json,690175,968889,25,Man
104,172927,DepthScenes,duration_manipulation_targetAtFixation,jsons/VE125_randls_76.json,http://54.235.29.9/FacialAge/BNav_EC2/DepthDuration/v2_depth_duration_MTurk/v2_DepthDuration_HTML.html#141,141,1525,718,1525,858,8-21-2022,19-17-15,105,depth_duration_stimuli/001032_2014-06-08_13-23-17_260595134347_rgbf000021-resize_3/001032_2014-06-08_13-23-17_260595134347_rgbf000021-resize_3-target.png,125,3.2725,26,2362,124,meters,jsons/VE125_randls_76.json,690175,968889,25,Man
105,172927,DepthScenes,duration_manipulation_targetAtFixation,jsons/VE125_randls_76.json,http://54.235.29.9/FacialAge/BNav_EC2/DepthDuration/v2_depth_duration_MTurk/v2_DepthDuration_HTML.html#141,141,1525,718,1525,858,8-21-2022,19-17-15,106,depth_duration_stimuli/000906_2014-06-08_13-35-43_260595134347_rgbf000155-resize_1/000906_2014-06-08_13-35-43_260595134347_rgbf000155-resize_1-target.png,125,2.8489999999999998,36,1822,120,meters,jsons/VE125_randls_76.json,690175,968889,25,Man
106,172927,DepthScenes,duration_manipulation_targetAtFixation,jsons/VE125_randls_76.json,http://54.235.29.9/FacialAge/BNav_EC2/DepthDuration/v2_depth_duration_MTurk/v2_DepthDuration_HTML.html#141,141,1525,718,1525,858,8-21-2022,19-17-15,107,depth_duration_stimuli/002805_2014-06-22_19-54-03_094959634447_rgbf000079-resize_1/002805_2014-06-22_19-54-03_094959634447_rgbf000079-resize_1-target.png,125,3.1439999999999997,25,1993,133,meters,jsons/VE125_randls_76.json,690175,968889,25,Man
107,172927,DepthScenes,duration_manipulation_targetAtFixation,jsons/VE125_randls_76.json,http://54.235.29.9/FacialAge/BNav_EC2/DepthDuration/v2_depth_duration_MTurk/v2_DepthDuration_HTML.html#141,141,1525,718,1525,858,8-21-2022,19-17-15,108,depth_duration_stimuli/002213_2014-06-28_18-37-58_260595134347_rgbf000055-resize_1/002213_2014-06-28_18-37-58_260595134347_rgbf000055-resize_1-target.png,125,3.62,0,1826,132,meters,jsons/VE125_randls_76.json,690175,968889,25,Man
108,172927,DepthScenes,duration_manipulation_targetAtFixation,jsons/VE125_randls_76.json,http://54.235.29.9/FacialAge/BNav_EC2/DepthDuration/v2_depth_duration_MTurk/v2_DepthDuration_HTML.html#141,141,1525,718,1525,858,8-21-2022,19-17-15,109,depth_duration_stimuli/000691_2014-06-08_13-08-50_260595134347_rgbf000132-resize_3/000691_2014-06-08_13-08-50_260595134347_rgbf000132-resize_3-target.png,125,4.1530000000000005,0,1651,132,meters,jsons/VE125_randls_76.json,690175,968889,25,Man
109,172927,DepthScenes,duration_manipulation_targetAtFixation,jsons/VE125_randls_76.json,http://54.235.29.9/FacialAge/BNav_EC2/DepthDuration/v2_depth_duration_MTurk/v2_DepthDuration_HTML.html#141,141,1525,718,1525,858,8-21-2022,19-17-15,110,depth_duration_stimuli/001011_2014-06-08_23-18-54_260595134347_rgbf000044-resize_4/001011_2014-06-08_23-18-54_260595134347_rgbf000044-resize_4-target.png,125,2.4730000000000003,15,2185,126,meters,jsons/VE125_randls_76.json,690175,968889,25,Man
110,172927,DepthScenes,duration_manipulation_targetAtFixation,jsons/VE125_randls_76.json,http://54.235.29.9/FacialAge/BNav_EC2/DepthDuration/v2_depth_duration_MTurk/v2_DepthDuration_HTML.html#141,141,1525,718,1525,858,8-21-2022,19-17-15,111,depth_duration_stimuli/002875_2014-06-01_15-19-00_094959634447_rgbf000151-resize_1/002875_2014-06-01_15-19-00_094959634447_rgbf000151-resize_1-target.png,125,1.9675,20,2501,128,meters,jsons/VE125_randls_76.json,690175,968889,25,Man
111,172927,DepthScenes,duration_manipulation_targetAtFixation,jsons/VE125_randls_76.json,http://54.235.29.9/FacialAge/BNav_EC2/DepthDuration/v2_depth_duration_MTurk/v2_DepthDuration_HTML.html#141,141,1525,718,1525,858,8-21-2022,19-17-15,112,depth_duration_stimuli/002630_2014-06-24_14-47-50_094959634447_rgbf000055-resize_1/002630_2014-06-24_14-47-50_094959634447_rgbf000055-resize_1-target.png,125,3.0095,20,1991,126,meters,jsons/VE125_randls_76.json,690175,968889,25,Man
112,172927,DepthScenes,duration_manipulation_targetAtFixation,jsons/VE125_randls_76.json,http://54.235.29.9/FacialAge/BNav_EC2/DepthDuration/v2_depth_duration_MTurk/v2_DepthDuration_HTML.html#141,141,1525,718,1525,858,8-21-2022,19-17-15,113,depth_duration_stimuli/002758_2014-06-22_19-11-20_094959634447_rgbf000128-resize_1/002758_2014-06-22_19-11-20_094959634447_rgbf000128-resize_1-target.png,125,2.555,25,3592,133,meters,jsons/VE125_randls_76.json,690175,968889,25,Man
113,172927,DepthScenes,duration_manipulation_targetAtFixation,jsons/VE125_randls_76.json,http://54.235.29.9/FacialAge/BNav_EC2/DepthDuration/v2_depth_duration_MTurk/v2_DepthDuration_HTML.html#141,141,1525,718,1525,858,8-21-2022,19-17-15,114,depth_duration_stimuli/001110_2014-06-15_17-25-28_260595134347_rgbf000150-resize_1/001110_2014-06-15_17-25-28_260595134347_rgbf000150-resize_1-target.png,125,1.7115,25,2302,120,meters,jsons/VE125_randls_76.json,690175,968889,25,Man
114,172927,DepthScenes,duration_manipulation_targetAtFixation,jsons/VE125_randls_76.json,http://54.235.29.9/FacialAge/BNav_EC2/DepthDuration/v2_depth_duration_MTurk/v2_DepthDuration_HTML.html#141,141,1525,718,1525,858,8-21-2022,19-17-15,115,depth_duration_stimuli/000927_2014-06-09_16-32-30_260595134347_rgbf000123-resize_3/000927_2014-06-09_16-32-30_260595134347_rgbf000123-resize_3-target.png,125,2.6785,30,1830,114,meters,jsons/VE125_randls_76.json,690175,968889,25,Man
115,172927,DepthScenes,duration_manipulation_targetAtFixation,jsons/VE125_randls_76.json,http://54.235.29.9/FacialAge/BNav_EC2/DepthDuration/v2_depth_duration_MTurk/v2_DepthDuration_HTML.html#141,141,1525,718,1525,858,8-21-2022,19-17-15,116,depth_duration_stimuli/001170_2014-06-17_15-43-44_260595134347_rgbf000096-resize_6/001170_2014-06-17_15-43-44_260595134347_rgbf000096-resize-original.jpg,125,1.1909999999999998,0,2324,129,meters,jsons/VE125_randls_76.json,690175,968889,25,Man
116,172927,DepthScenes,duration_manipulation_targetAtFixation,jsons/VE125_randls_76.json,http://54.235.29.9/FacialAge/BNav_EC2/DepthDuration/v2_depth_duration_MTurk/v2_DepthDuration_HTML.html#141,141,1525,718,1525,858,8-21-2022,19-17-15,117,depth_duration_stimuli/001806_2014-06-26_20-50-20_260595134347_rgbf000091-resize_1/001806_2014-06-26_20-50-20_260595134347_rgbf000091-resize_1-target.png,125,2.7305,35,2037,127,meters,jsons/VE125_randls_76.json,690175,968889,25,Man
117,172927,DepthScenes,duration_manipulation_targetAtFixation,jsons/VE125_randls_76.json,http://54.235.29.9/FacialAge/BNav_EC2/DepthDuration/v2_depth_duration_MTurk/v2_DepthDuration_HTML.html#141,141,1525,718,1525,858,8-21-2022,19-17-15,118,depth_duration_stimuli/001617_2014-06-20_11-35-32_260595134347_rgbf000066-resize_1/001617_2014-06-20_11-35-32_260595134347_rgbf000066-resize_1-target.png,125,3.7910000000000004,25,4709,122,meters,jsons/VE125_randls_76.json,690175,968889,25,Man
118,172927,DepthScenes,duration_manipulation_targetAtFixation,jsons/VE125_randls_76.json,http://54.235.29.9/FacialAge/BNav_EC2/DepthDuration/v2_depth_duration_MTurk/v2_DepthDuration_HTML.html#141,141,1525,718,1525,858,8-21-2022,19-17-15,119,depth_duration_stimuli/002445_2014-06-28_20-32-16_260595134347_rgbf000029-resize_4/002445_2014-06-28_20-32-16_260595134347_rgbf000029-resize_4-target.png,125,2.5315,0,1723,124,meters,jsons/VE125_randls_76.json,690175,968889,25,Man
119,172927,DepthScenes,duration_manipulation_targetAtFixation,jsons/VE125_randls_76.json,http://54.235.29.9/FacialAge/BNav_EC2/DepthDuration/v2_depth_duration_MTurk/v2_DepthDuration_HTML.html#141,141,1525,718,1525,858,8-21-2022,19-17-15,120,depth_duration_stimuli/000780_2014-06-08_22-28-29_260595134347_rgbf000126-resize_1/000780_2014-06-08_22-28-29_260595134347_rgbf000126-resize_1-target.png,125,3.3825,15,2691,117,meters,jsons/VE125_randls_76.json,690175,968889,25,Man
120,172927,DepthScenes,duration_manipulation_targetAtFixation,jsons/VE125_randls_76.json,http://54.235.29.9/FacialAge/BNav_EC2/DepthDuration/v2_depth_duration_MTurk/v2_DepthDuration_HTML.html#141,141,1525,718,1525,858,8-21-2022,19-17-15,121,depth_duration_stimuli/001808_2014-06-26_20-50-58_260595134347_rgbf000029-resize_1/001808_2014-06-26_20-50-58_260595134347_rgbf000029-resize_1-target.png,125,4.249,25,2106,124,meters,jsons/VE125_randls_76.json,690175,968889,25,Man
121,172927,DepthScenes,duration_manipulation_targetAtFixation,jsons/VE125_randls_76.json,http://54.235.29.9/FacialAge/BNav_EC2/DepthDuration/v2_depth_duration_MTurk/v2_DepthDuration_HTML.html#141,141,1525,718,1525,858,8-21-2022,19-17-15,122,depth_duration_stimuli/001815_2014-06-26_20-52-55_260595134347_rgbf000020-resize_0/001815_2014-06-26_20-52-55_260595134347_rgbf000020-resize_0-target.png,125,3.3865,36,2084,123,meters,jsons/VE125_randls_76.json,690175,968889,25,Man
122,172927,DepthScenes,duration_manipulation_targetAtFixation,jsons/VE125_randls_76.json,http://54.235.29.9/FacialAge/BNav_EC2/DepthDuration/v2_depth_duration_MTurk/v2_DepthDuration_HTML.html#141,141,1525,718,1525,858,8-21-2022,19-17-15,123,depth_duration_stimuli/001810_2014-06-26_20-51-35_260595134347_rgbf000040-resize_3/001810_2014-06-26_20-51-35_260595134347_rgbf000040-resize_3-target.png,125,2.2525,25,1999,119,meters,jsons/VE125_randls_76.json,690175,968889,25,Man
123,172927,DepthScenes,duration_manipulation_targetAtFixation,jsons/VE125_randls_76.json,http://54.235.29.9/FacialAge/BNav_EC2/DepthDuration/v2_depth_duration_MTurk/v2_DepthDuration_HTML.html#141,141,1525,718,1525,858,8-21-2022,19-17-15,124,depth_duration_stimuli/003010_2014-06-15_12-54-35_094959634447_rgbf000112-resize_0/003010_2014-06-15_12-54-35_094959634447_rgbf000112-resize_0-target.png,125,3.1185,15,2072,116,meters,jsons/VE125_randls_76.json,690175,968889,25,Man
124,172927,DepthScenes,duration_manipulation_targetAtFixation,jsons/VE125_randls_76.json,http://54.235.29.9/FacialAge/BNav_EC2/DepthDuration/v2_depth_duration_MTurk/v2_DepthDuration_HTML.html#141,141,1525,718,1525,858,8-21-2022,19-17-15,125,depth_duration_stimuli/001175_2014-06-17_15-45-55_260595134347_rgbf000129-resize_4/001175_2014-06-17_15-45-55_260595134347_rgbf000129-resize_4-target.png,125,4.255,36,2063,128,meters,jsons/VE125_randls_76.json,690175,968889,25,Man
125,172927,DepthScenes,duration_manipulation_targetAtFixation,jsons/VE125_randls_76.json,http://54.235.29.9/FacialAge/BNav_EC2/DepthDuration/v2_depth_duration_MTurk/v2_DepthDuration_HTML.html#141,141,1525,718,1525,858,8-21-2022,19-17-15,126,depth_duration_stimuli/003490_2014-05-21_15-50-11_094959634447_rgbf000101-resize_3/003490_2014-05-21_15-50-11_094959634447_rgbf000101-resize_3-target.png,125,3.6445,0,2011,136,meters,jsons/VE125_randls_76.json,690175,968889,25,Man
126,172927,DepthScenes,duration_manipulation_targetAtFixation,jsons/VE125_randls_76.json,http://54.235.29.9/FacialAge/BNav_EC2/DepthDuration/v2_depth_duration_MTurk/v2_DepthDuration_HTML.html#141,141,1525,718,1525,858,8-21-2022,19-17-15,127,depth_duration_stimuli/000493_2014-06-09_21-01-18_260595134347_rgbf000196-resize_3/000493_2014-06-09_21-01-18_260595134347_rgbf000196-resize_3-target.png,125,3.44,25,1895,121,meters,jsons/VE125_randls_76.json,690175,968889,25,Man
127,172927,DepthScenes,duration_manipulation_targetAtFixation,jsons/VE125_randls_76.json,http://54.235.29.9/FacialAge/BNav_EC2/DepthDuration/v2_depth_duration_MTurk/v2_DepthDuration_HTML.html#141,141,1525,718,1525,858,8-21-2022,19-17-15,128,depth_duration_stimuli/000191_2014-05-12_17-07-38_260595134347_rgbf000199-resize_0/000191_2014-05-12_17-07-38_260595134347_rgbf000199-resize_0-target.png,125,3.7995,15,1998,130,meters,jsons/VE125_randls_76.json,690175,968889,25,Man
128,172927,DepthScenes,duration_manipulation_targetAtFixation,jsons/VE125_randls_76.json,http://54.235.29.9/FacialAge/BNav_EC2/DepthDuration/v2_depth_duration_MTurk/v2_DepthDuration_HTML.html#141,141,1525,718,1525,858,8-21-2022,19-17-15,129,depth_duration_stimuli/002279_2014-06-28_18-55-32_260595134347_rgbf000040-resize_5/002279_2014-06-28_18-55-32_260595134347_rgbf000040-resize_5-target.png,125,1.5043333333333,26,2255,120,meters,jsons/VE125_randls_76.json,690175,968889,25,Man
129,172927,DepthScenes,duration_manipulation_targetAtFixation,jsons/VE125_randls_76.json,http://54.235.29.9/FacialAge/BNav_EC2/DepthDuration/v2_depth_duration_MTurk/v2_DepthDuration_HTML.html#141,141,1525,718,1525,858,8-21-2022,19-17-15,130,depth_duration_stimuli/000635_2014-06-08_16-38-42_260595134347_rgbf000106-resize_1/000635_2014-06-08_16-38-42_260595134347_rgbf000106-resize_1-target.png,125,2.074,26,2576,123,meters,jsons/VE125_randls_76.json,690175,968889,25,Man
130,172927,DepthScenes,duration_manipulation_targetAtFixation,jsons/VE125_randls_76.json,http://54.235.29.9/FacialAge/BNav_EC2/DepthDuration/v2_depth_duration_MTurk/v2_DepthDuration_HTML.html#141,141,1525,718,1525,858,8-21-2022,19-17-15,131,depth_duration_stimuli/001092_2014-06-15_17-34-58_260595134347_rgbf000171-resize_3/001092_2014-06-15_17-34-58_260595134347_rgbf000171-resize_3-target.png,125,2.6935,15,2512,130,meters,jsons/VE125_randls_76.json,690175,968889,25,Man
131,172927,DepthScenes,duration_manipulation_targetAtFixation,jsons/VE125_randls_76.json,http://54.235.29.9/FacialAge/BNav_EC2/DepthDuration/v2_depth_duration_MTurk/v2_DepthDuration_HTML.html#141,141,1525,718,1525,858,8-21-2022,19-17-15,132,depth_duration_stimuli/002545_2014-06-24_13-38-53_094959634447_rgbf000080-resize_4/002545_2014-06-24_13-38-53_094959634447_rgbf000080-resize_4-target.png,125,1.9205,18,2178,123,meters,jsons/VE125_randls_76.json,690175,968889,25,Man
132,172927,DepthScenes,duration_manipulation_targetAtFixation,jsons/VE125_randls_76.json,http://54.235.29.9/FacialAge/BNav_EC2/DepthDuration/v2_depth_duration_MTurk/v2_DepthDuration_HTML.html#141,141,1525,718,1525,858,8-21-2022,19-17-15,133,depth_duration_stimuli/000469_2014-06-09_19-42-10_260595134347_rgbf000081-resize_1/000469_2014-06-09_19-42-10_260595134347_rgbf000081-resize_1-target.png,125,1.652,13,2920,119,meters,jsons/VE125_randls_76.json,690175,968889,25,Man
133,172927,DepthScenes,duration_manipulation_targetAtFixation,jsons/VE125_randls_76.json,http://54.235.29.9/FacialAge/BNav_EC2/DepthDuration/v2_depth_duration_MTurk/v2_DepthDuration_HTML.html#141,141,1525,718,1525,858,8-21-2022,19-17-15,134,depth_duration_stimuli/000483_2014-06-09_20-41-45_260595134347_rgbf000116-resize_4/000483_2014-06-09_20-41-45_260595134347_rgbf000116-resize_4-target.png,125,1.337,0,1679,123,meters,jsons/VE125_randls_76.json,690175,968889,25,Man
134,172927,DepthScenes,duration_manipulation_targetAtFixation,jsons/VE125_randls_76.json,http://54.235.29.9/FacialAge/BNav_EC2/DepthDuration/v2_depth_duration_MTurk/v2_DepthDuration_HTML.html#141,141,1525,718,1525,858,8-21-2022,19-17-15,135,depth_duration_stimuli/002072_2014-06-24_21-48-06_260595134347_rgbf000115-resize_0/002072_2014-06-24_21-48-06_260595134347_rgbf000115-resize-original.jpg,125,4.702,0,1428,122,meters,jsons/VE125_randls_76.json,690175,968889,25,Man
135,172927,DepthScenes,duration_manipulation_targetAtFixation,jsons/VE125_randls_76.json,http://54.235.29.9/FacialAge/BNav_EC2/DepthDuration/v2_depth_duration_MTurk/v2_DepthDuration_HTML.html#141,141,1525,718,1525,858,8-21-2022,19-17-15,136,depth_duration_stimuli/001449_2014-06-19_17-01-27_260595134347_rgbf000116-resize_2/001449_2014-06-19_17-01-27_260595134347_rgbf000116-resize_2-target.png,125,3.452,18,2436,123,meters,jsons/VE125_randls_76.json,690175,968889,25,Man
136,172927,DepthScenes,duration_manipulation_targetAtFixation,jsons/VE125_randls_76.json,http://54.235.29.9/FacialAge/BNav_EC2/DepthDuration/v2_depth_duration_MTurk/v2_DepthDuration_HTML.html#141,141,1525,718,1525,858,8-21-2022,19-17-15,137,depth_duration_stimuli/001450_2014-06-19_17-02-03_260595134347_rgbf000203-resize_4/001450_2014-06-19_17-02-03_260595134347_rgbf000203-resize_4-target.png,125,4.0106666666667,0,2394,124,meters,jsons/VE125_randls_76.json,690175,968889,25,Man
137,172927,DepthScenes,duration_manipulation_targetAtFixation,jsons/VE125_randls_76.json,http://54.235.29.9/FacialAge/BNav_EC2/DepthDuration/v2_depth_duration_MTurk/v2_DepthDuration_HTML.html#141,141,1525,718,1525,858,8-21-2022,19-17-15,138,depth_duration_stimuli/000736_2014-06-08_18-24-15_260595134347_rgbf000206-resize_3/000736_2014-06-08_18-24-15_260595134347_rgbf000206-resize_3-target.png,125,3.515,13,3010,121,meters,jsons/VE125_randls_76.json,690175,968889,25,Man
138,172927,DepthScenes,duration_manipulation_targetAtFixation,jsons/VE125_randls_76.json,http://54.235.29.9/FacialAge/BNav_EC2/DepthDuration/v2_depth_duration_MTurk/v2_DepthDuration_HTML.html#141,141,1525,718,1525,858,8-21-2022,19-17-15,139,depth_duration_stimuli/000137_2014-05-20_17-04-49_260595134347_rgbf000120-resize_1/000137_2014-05-20_17-04-49_260595134347_rgbf000120-resize_1-target.png,125,3.786,18,2131,138,meters,jsons/VE125_randls_76.json,690175,968889,25,Man
139,172927,DepthScenes,duration_manipulation_targetAtFixation,jsons/VE125_randls_76.json,http://54.235.29.9/FacialAge/BNav_EC2/DepthDuration/v2_depth_duration_MTurk/v2_DepthDuration_HTML.html#141,141,1525,718,1525,858,8-21-2022,19-17-15,140,depth_duration_stimuli/000739_2014-06-08_18-45-58_260595134347_rgbf000068-resize_1/000739_2014-06-08_18-45-58_260595134347_rgbf000068-resize_1-target.png,125,3.534,20,2307,138,meters,jsons/VE125_randls_76.json,690175,968889,25,Man
140,172927,DepthScenes,duration_manipulation_targetAtFixation,jsons/VE125_randls_76.json,http://54.235.29.9/FacialAge/BNav_EC2/DepthDuration/v2_depth_duration_MTurk/v2_DepthDuration_HTML.html#141,141,1525,718,1525,858,8-21-2022,19-17-15,141,depth_duration_stimuli/000734_2014-06-08_17-39-11_260595134347_rgbf000128-resize_2/000734_2014-06-08_17-39-11_260595134347_rgbf000128-resize_2-target.png,125,4.098,29,2063,124,meters,jsons/VE125_randls_76.json,690175,968889,25,Man
141,172927,DepthScenes,duration_manipulation_targetAtFixation,jsons/VE125_randls_76.json,http://54.235.29.9/FacialAge/BNav_EC2/DepthDuration/v2_depth_duration_MTurk/v2_DepthDuration_HTML.html#141,141,1525,718,1525,858,8-21-2022,19-17-15,142,depth_duration_stimuli/001244_2014-06-17_16-47-45_260595134347_rgbf000030-resize_4/001244_2014-06-17_16-47-45_260595134347_rgbf000030-resize_4-target.png,125,2.0425,20,2032,125,meters,jsons/VE125_randls_76.json,690175,968889,25,Man
142,172927,DepthScenes,duration_manipulation_targetAtFixation,jsons/VE125_randls_76.json,http://54.235.29.9/FacialAge/BNav_EC2/DepthDuration/v2_depth_duration_MTurk/v2_DepthDuration_HTML.html#141,141,1525,718,1525,858,8-21-2022,19-17-15,143,depth_duration_stimuli/003495_2014-05-21_16-01-51_094959634447_rgbf000100-resize_3/003495_2014-05-21_16-01-51_094959634447_rgbf000100-resize_3-target.png,125,1.6255,0,1917,123,meters,jsons/VE125_randls_76.json,690175,968889,25,Man
143,172927,DepthScenes,duration_manipulation_targetAtFixation,jsons/VE125_randls_76.json,http://54.235.29.9/FacialAge/BNav_EC2/DepthDuration/v2_depth_duration_MTurk/v2_DepthDuration_HTML.html#141,141,1525,718,1525,858,8-21-2022,19-17-15,144,depth_duration_stimuli/001150_2014-06-17_15-27-34_260595134347_rgbf000108-resize_2/001150_2014-06-17_15-27-34_260595134347_rgbf000108-resize_2-target.png,125,4.0325,28,3734,121,meters,jsons/VE125_randls_76.json,690175,968889,25,Man
144,172927,DepthScenes,duration_manipulation_targetAtFixation,jsons/VE125_randls_76.json,http://54.235.29.9/FacialAge/BNav_EC2/DepthDuration/v2_depth_duration_MTurk/v2_DepthDuration_HTML.html#141,141,1525,718,1525,858,8-21-2022,19-17-15,145,depth_duration_stimuli/000665_2014-06-09_20-42-35_260595134347_rgbf000110-resize_1/000665_2014-06-09_20-42-35_260595134347_rgbf000110-resize_1-target.png,125,3.057,20,2764,139,meters,jsons/VE125_randls_76.json,690175,968889,25,Man
145,172927,DepthScenes,duration_manipulation_targetAtFixation,jsons/VE125_randls_76.json,http://54.235.29.9/FacialAge/BNav_EC2/DepthDuration/v2_depth_duration_MTurk/v2_DepthDuration_HTML.html#141,141,1525,718,1525,858,8-21-2022,19-17-15,146,depth_duration_stimuli/001498_2014-06-19_17-45-14_260595134347_rgbf000129-resize_4/001498_2014-06-19_17-45-14_260595134347_rgbf000129-resize-original.jpg,125,1.4075,0,1910,123,meters,jsons/VE125_randls_76.json,690175,968889,25,Man
146,172927,DepthScenes,duration_manipulation_targetAtFixation,jsons/VE125_randls_76.json,http://54.235.29.9/FacialAge/BNav_EC2/DepthDuration/v2_depth_duration_MTurk/v2_DepthDuration_HTML.html#141,141,1525,718,1525,858,8-21-2022,19-17-15,147,depth_duration_stimuli/001133_2014-06-17_14-49-16_260595134347_rgbf000100-resize_0/001133_2014-06-17_14-49-16_260595134347_rgbf000100-resize_0-target.png,125,4.2115,25,3188,123,meters,jsons/VE125_randls_76.json,690175,968889,25,Man
147,172927,DepthScenes,duration_manipulation_targetAtFixation,jsons/VE125_randls_76.json,http://54.235.29.9/FacialAge/BNav_EC2/DepthDuration/v2_depth_duration_MTurk/v2_DepthDuration_HTML.html#141,141,1525,718,1525,858,8-21-2022,19-17-15,148,depth_duration_stimuli/001132_2014-06-17_14-48-54_260595134347_rgbf000100-resize_2/001132_2014-06-17_14-48-54_260595134347_rgbf000100-resize_2-target.png,125,3.753,0,1517,125,meters,jsons/VE125_randls_76.json,690175,968889,25,Man
148,172927,DepthScenes,duration_manipulation_targetAtFixation,jsons/VE125_randls_76.json,http://54.235.29.9/FacialAge/BNav_EC2/DepthDuration/v2_depth_duration_MTurk/v2_DepthDuration_HTML.html#141,141,1525,718,1525,858,8-21-2022,19-17-15,149,depth_duration_stimuli/000414_2014-06-04_19-49-13_260595134347_rgbf000044-resize_0/000414_2014-06-04_19-49-13_260595134347_rgbf000044-resize_0-target.png,125,4.329,29,2223,124,meters,jsons/VE125_randls_76.json,690175,968889,25,Man
149,172927,DepthScenes,duration_manipulation_targetAtFixation,jsons/VE125_randls_76.json,http://54.235.29.9/FacialAge/BNav_EC2/DepthDuration/v2_depth_duration_MTurk/v2_DepthDuration_HTML.html#141,141,1525,718,1525,858,8-21-2022,19-17-15,150,depth_duration_stimuli/003129_2014-05-12_10-48-10_094959634447_rgbf000100-resize_0/003129_2014-05-12_10-48-10_094959634447_rgbf000100-resize_0-target.png,125,4.9305,39,2312,125,meters,jsons/VE125_randls_76.json,690175,968889,25,Man
150,172927,DepthScenes,duration_manipulation_targetAtFixation,jsons/VE125_randls_76.json,http://54.235.29.9/FacialAge/BNav_EC2/DepthDuration/v2_depth_duration_MTurk/v2_DepthDuration_HTML.html#141,141,1525,718,1525,858,8-21-2022,19-17-15,151,depth_duration_stimuli/000788_2014-06-08_22-34-36_260595134347_rgbf000131-resize_1/000788_2014-06-08_22-34-36_260595134347_rgbf000131-resize_1-target.png,125,3.359,0,1815,124,meters,jsons/VE125_randls_76.json,690175,968889,25,Man
151,172927,DepthScenes,duration_manipulation_targetAtFixation,jsons/VE125_randls_76.json,http://54.235.29.9/FacialAge/BNav_EC2/DepthDuration/v2_depth_duration_MTurk/v2_DepthDuration_HTML.html#141,141,1525,718,1525,858,8-21-2022,19-17-15,152,depth_duration_stimuli/001235_2014-06-17_16-37-36_260595134347_rgbf000084-resize_4/001235_2014-06-17_16-37-36_260595134347_rgbf000084-resize_4-target.png,125,3.6605,27,2276,121,meters,jsons/VE125_randls_76.json,690175,968889,25,Man
152,172927,DepthScenes,duration_manipulation_targetAtFixation,jsons/VE125_randls_76.json,http://54.235.29.9/FacialAge/BNav_EC2/DepthDuration/v2_depth_duration_MTurk/v2_DepthDuration_HTML.html#141,141,1525,718,1525,858,8-21-2022,19-17-15,153,depth_duration_stimuli/003492_2014-05-21_15-50-55_094959634447_rgbf000828-resize_1/003492_2014-05-21_15-50-55_094959634447_rgbf000828-resize_1-target.png,125,4.06875,28,2115,137,meters,jsons/VE125_randls_76.json,690175,968889,25,Man
153,172927,DepthScenes,duration_manipulation_targetAtFixation,jsons/VE125_randls_76.json,http://54.235.29.9/FacialAge/BNav_EC2/DepthDuration/v2_depth_duration_MTurk/v2_DepthDuration_HTML.html#141,141,1525,718,1525,858,8-21-2022,19-17-15,154,depth_duration_stimuli/002568_2014-06-24_13-59-21_094959634447_rgbf000062-resize_4/002568_2014-06-24_13-59-21_094959634447_rgbf000062-resize_4-target.png,125,3.015,24,2289,121,meters,jsons/VE125_randls_76.json,690175,968889,25,Man
154,172927,DepthScenes,duration_manipulation_targetAtFixation,jsons/VE125_randls_76.json,http://54.235.29.9/FacialAge/BNav_EC2/DepthDuration/v2_depth_duration_MTurk/v2_DepthDuration_HTML.html#141,141,1525,718,1525,858,8-21-2022,19-17-15,155,depth_duration_stimuli/002748_2014-06-22_19-07-22_094959634447_rgbf000078-resize_1/002748_2014-06-22_19-07-22_094959634447_rgbf000078-resize_1-target.png,125,4.6705,0,1556,125,meters,jsons/VE125_randls_76.json,690175,968889,25,Man
155,172927,DepthScenes,duration_manipulation_targetAtFixation,jsons/VE125_randls_76.json,http://54.235.29.9/FacialAge/BNav_EC2/DepthDuration/v2_depth_duration_MTurk/v2_DepthDuration_HTML.html#141,141,1525,718,1525,858,8-21-2022,19-17-15,156,depth_duration_stimuli/002995_2014-06-15_12-31-26_094959634447_rgbf000150-resize_1/002995_2014-06-15_12-31-26_094959634447_rgbf000150-resize_1-target.png,125,3.8360000000000003,28,1986,139,meters,jsons/VE125_randls_76.json,690175,968889,25,Man
156,172927,DepthScenes,duration_manipulation_targetAtFixation,jsons/VE125_randls_76.json,http://54.235.29.9/FacialAge/BNav_EC2/DepthDuration/v2_depth_duration_MTurk/v2_DepthDuration_HTML.html#141,141,1525,718,1525,858,8-21-2022,19-17-15,157,depth_duration_stimuli/002788_2014-06-22_19-36-03_094959634447_rgbf000088-resize_2/002788_2014-06-22_19-36-03_094959634447_rgbf000088-resize_2-target.png,125,1.6465,29,2224,124,meters,jsons/VE125_randls_76.json,690175,968889,25,Man
157,172927,DepthScenes,duration_manipulation_targetAtFixation,jsons/VE125_randls_76.json,http://54.235.29.9/FacialAge/BNav_EC2/DepthDuration/v2_depth_duration_MTurk/v2_DepthDuration_HTML.html#141,141,1525,718,1525,858,8-21-2022,19-17-15,158,depth_duration_stimuli/000749_2014-06-08_21-55-06_260595134347_rgbf000070-resize_2/000749_2014-06-08_21-55-06_260595134347_rgbf000070-resize_2-target.png,125,2.331,25,2295,122,meters,jsons/VE125_randls_76.json,690175,968889,25,Man
158,172927,DepthScenes,duration_manipulation_targetAtFixation,jsons/VE125_randls_76.json,http://54.235.29.9/FacialAge/BNav_EC2/DepthDuration/v2_depth_duration_MTurk/v2_DepthDuration_HTML.html#141,141,1525,718,1525,858,8-21-2022,19-17-15,159,depth_duration_stimuli/000506_2014-06-08_23-21-00_260595134347_rgbf000070-resize_7/000506_2014-06-08_23-21-00_260595134347_rgbf000070-resize_7-target.png,125,4.0585,26,3570,130,meters,jsons/VE125_randls_76.json,690175,968889,25,Man
159,172927,DepthScenes,duration_manipulation_targetAtFixation,jsons/VE125_randls_76.json,http://54.235.29.9/FacialAge/BNav_EC2/DepthDuration/v2_depth_duration_MTurk/v2_DepthDuration_HTML.html#141,141,1525,718,1525,858,8-21-2022,19-17-15,160,depth_duration_stimuli/003079_2014-06-15_15-18-20_094959634447_rgbf000152-resize_8/003079_2014-06-15_15-18-20_094959634447_rgbf000152-resize_8-target.png,125,2.8775,4,1580,123,meters,jsons/VE125_randls_76.json,690175,968889,25,Man
160,172927,DepthScenes,duration_manipulation_targetAtFixation,jsons/VE125_randls_76.json,http://54.235.29.9/FacialAge/BNav_EC2/DepthDuration/v2_depth_duration_MTurk/v2_DepthDuration_HTML.html#141,141,1525,718,1525,858,8-21-2022,19-17-15,161,depth_duration_stimuli/002570_2014-06-24_13-59-54_094959634447_rgbf000059-resize_0/002570_2014-06-24_13-59-54_094959634447_rgbf000059-resize_0-target.png,125,4.037,24,2136,118,meters,jsons/VE125_randls_76.json,690175,968889,25,Man
161,172927,DepthScenes,duration_manipulation_targetAtFixation,jsons/VE125_randls_76.json,http://54.235.29.9/FacialAge/BNav_EC2/DepthDuration/v2_depth_duration_MTurk/v2_DepthDuration_HTML.html#141,141,1525,718,1525,858,8-21-2022,19-17-15,162,depth_duration_stimuli/002467_2014-06-28_20-38-07_260595134347_rgbf000026-resize_2/002467_2014-06-28_20-38-07_260595134347_rgbf000026-resize_2-target.png,125,4.742,36,5789,123,meters,jsons/VE125_randls_76.json,690175,968889,25,Man
162,172927,DepthScenes,duration_manipulation_targetAtFixation,jsons/VE125_randls_76.json,http://54.235.29.9/FacialAge/BNav_EC2/DepthDuration/v2_depth_duration_MTurk/v2_DepthDuration_HTML.html#141,141,1525,718,1525,858,8-21-2022,19-17-15,163,depth_duration_stimuli/002784_2014-06-22_19-26-30_094959634447_rgbf000083-resize_3/002784_2014-06-22_19-26-30_094959634447_rgbf000083-resize_3-target.png,125,1.8046666666667,0,1943,129,meters,jsons/VE125_randls_76.json,690175,968889,25,Man
163,172927,DepthScenes,duration_manipulation_targetAtFixation,jsons/VE125_randls_76.json,http://54.235.29.9/FacialAge/BNav_EC2/DepthDuration/v2_depth_duration_MTurk/v2_DepthDuration_HTML.html#141,141,1525,718,1525,858,8-21-2022,19-17-15,164,depth_duration_stimuli/001100_2014-06-15_17-46-26_260595134347_rgbf000225-resize_2/001100_2014-06-15_17-46-26_260595134347_rgbf000225-resize_2-target.png,125,2.24,33,3406,118,meters,jsons/VE125_randls_76.json,690175,968889,25,Man
