,subjID,experimentName,versionName,sequenceName,url,selected_row,windowWidth,windowHeight,screenWidth,screenHeight,startDate,startTime,trial,stimulus,duration,actual_depth,depth_estimate,trial_RT,log_sceneDuration,unitSelection,seq_filepath,experimentTime,totalTime,age,gender
0,173362,DepthScenes,duration_manipulation_targetAtFixation,jsons/VE125_randls_16.json,http://54.235.29.9/FacialAge/BNav_EC2/DepthDuration/v2_depth_duration_MTurk/v2_DepthDuration_HTML.html#463,463,1366,768,1366,768,9-3-2022,6-8-55,1,depth_duration_stimuli/002748_2014-06-22_19-07-22_094959634447_rgbf000078-resize_1/002748_2014-06-22_19-07-22_094959634447_rgbf000078-resize_1-target.png,125,4.6705,5,3768,126,feet,jsons/VE125_randls_16.json,737226,877271,44,Woman
1,173362,DepthScenes,duration_manipulation_targetAtFixation,jsons/VE125_randls_16.json,http://54.235.29.9/FacialAge/BNav_EC2/DepthDuration/v2_depth_duration_MTurk/v2_DepthDuration_HTML.html#463,463,1366,768,1366,768,9-3-2022,6-8-55,2,depth_duration_stimuli/002995_2014-06-15_12-31-26_094959634447_rgbf000150-resize_1/002995_2014-06-15_12-31-26_094959634447_rgbf000150-resize_1-target.png,125,3.8360000000000003,8,4016,123,feet,jsons/VE125_randls_16.json,737226,877271,44,Woman
2,173362,DepthScenes,duration_manipulation_targetAtFixation,jsons/VE125_randls_16.json,http://54.235.29.9/FacialAge/BNav_EC2/DepthDuration/v2_depth_duration_MTurk/v2_DepthDuration_HTML.html#463,463,1366,768,1366,768,9-3-2022,6-8-55,3,depth_duration_stimuli/002663_2014-06-13_15-50-26_094959634447_rgbf000075-resize_1/002663_2014-06-13_15-50-26_094959634447_rgbf000075-resize_1-target.png,125,4.7495,15,3844,118,feet,jsons/VE125_randls_16.json,737226,877271,44,Woman
3,173362,DepthScenes,duration_manipulation_targetAtFixation,jsons/VE125_randls_16.json,http://54.235.29.9/FacialAge/BNav_EC2/DepthDuration/v2_depth_duration_MTurk/v2_DepthDuration_HTML.html#463,463,1366,768,1366,768,9-3-2022,6-8-55,4,depth_duration_stimuli/000409_2014-06-04_19-23-33_260595134347_rgbf000067-resize_0/000409_2014-06-04_19-23-33_260595134347_rgbf000067-resize_0-target.png,125,3.7335,12,4203,110,feet,jsons/VE125_randls_16.json,737226,877271,44,Woman
4,173362,DepthScenes,duration_manipulation_targetAtFixation,jsons/VE125_randls_16.json,http://54.235.29.9/FacialAge/BNav_EC2/DepthDuration/v2_depth_duration_MTurk/v2_DepthDuration_HTML.html#463,463,1366,768,1366,768,9-3-2022,6-8-55,5,depth_duration_stimuli/000758_2014-06-08_22-05-08_260595134347_rgbf000085-resize_0/000758_2014-06-08_22-05-08_260595134347_rgbf000085-resize_0-target.png,125,3.3810000000000002,8,4469,123,feet,jsons/VE125_randls_16.json,737226,877271,44,Woman
5,173362,DepthScenes,duration_manipulation_targetAtFixation,jsons/VE125_randls_16.json,http://54.235.29.9/FacialAge/BNav_EC2/DepthDuration/v2_depth_duration_MTurk/v2_DepthDuration_HTML.html#463,463,1366,768,1366,768,9-3-2022,6-8-55,6,depth_duration_stimuli/000854_2014-06-09_19-43-13_260595134347_rgbf000066-resize_0/000854_2014-06-09_19-43-13_260595134347_rgbf000066-resize_0-target.png,125,3.068,4,2765,108,feet,jsons/VE125_randls_16.json,737226,877271,44,Woman
6,173362,DepthScenes,duration_manipulation_targetAtFixation,jsons/VE125_randls_16.json,http://54.235.29.9/FacialAge/BNav_EC2/DepthDuration/v2_depth_duration_MTurk/v2_DepthDuration_HTML.html#463,463,1366,768,1366,768,9-3-2022,6-8-55,7,depth_duration_stimuli/000009_2014-05-26_14-32-05_260595134347_rgbf000034-resize_3/000009_2014-05-26_14-32-05_260595134347_rgbf000034-resize_3-target.png,125,3.8715,25,5141,140,feet,jsons/VE125_randls_16.json,737226,877271,44,Woman
7,173362,DepthScenes,duration_manipulation_targetAtFixation,jsons/VE125_randls_16.json,http://54.235.29.9/FacialAge/BNav_EC2/DepthDuration/v2_depth_duration_MTurk/v2_DepthDuration_HTML.html#463,463,1366,768,1366,768,9-3-2022,6-8-55,8,depth_duration_stimuli/001828_2014-06-26_21-40-03_260595134347_rgbf000024-resize_0/001828_2014-06-26_21-40-03_260595134347_rgbf000024-resize_0-target.png,125,4.8260000000000005,4,2657,140,feet,jsons/VE125_randls_16.json,737226,877271,44,Woman
8,173362,DepthScenes,duration_manipulation_targetAtFixation,jsons/VE125_randls_16.json,http://54.235.29.9/FacialAge/BNav_EC2/DepthDuration/v2_depth_duration_MTurk/v2_DepthDuration_HTML.html#463,463,1366,768,1366,768,9-3-2022,6-8-55,9,depth_duration_stimuli/002213_2014-06-28_18-37-58_260595134347_rgbf000055-resize_1/002213_2014-06-28_18-37-58_260595134347_rgbf000055-resize_1-target.png,125,3.62,15,3375,119,feet,jsons/VE125_randls_16.json,737226,877271,44,Woman
9,173362,DepthScenes,duration_manipulation_targetAtFixation,jsons/VE125_randls_16.json,http://54.235.29.9/FacialAge/BNav_EC2/DepthDuration/v2_depth_duration_MTurk/v2_DepthDuration_HTML.html#463,463,1366,768,1366,768,9-3-2022,6-8-55,10,depth_duration_stimuli/000691_2014-06-08_13-08-50_260595134347_rgbf000132-resize_3/000691_2014-06-08_13-08-50_260595134347_rgbf000132-resize_3-target.png,125,4.1530000000000005,1,2609,135,feet,jsons/VE125_randls_16.json,737226,877271,44,Woman
10,173362,DepthScenes,duration_manipulation_targetAtFixation,jsons/VE125_randls_16.json,http://54.235.29.9/FacialAge/BNav_EC2/DepthDuration/v2_depth_duration_MTurk/v2_DepthDuration_HTML.html#463,463,1366,768,1366,768,9-3-2022,6-8-55,11,depth_duration_stimuli/000506_2014-06-08_23-21-00_260595134347_rgbf000070-resize_7/000506_2014-06-08_23-21-00_260595134347_rgbf000070-resize_7-target.png,125,4.0585,10,3531,114,feet,jsons/VE125_randls_16.json,737226,877271,44,Woman
11,173362,DepthScenes,duration_manipulation_targetAtFixation,jsons/VE125_randls_16.json,http://54.235.29.9/FacialAge/BNav_EC2/DepthDuration/v2_depth_duration_MTurk/v2_DepthDuration_HTML.html#463,463,1366,768,1366,768,9-3-2022,6-8-55,12,depth_duration_stimuli/003079_2014-06-15_15-18-20_094959634447_rgbf000152-resize_8/003079_2014-06-15_15-18-20_094959634447_rgbf000152-resize_8-target.png,125,2.8775,4,2313,123,feet,jsons/VE125_randls_16.json,737226,877271,44,Woman
12,173362,DepthScenes,duration_manipulation_targetAtFixation,jsons/VE125_randls_16.json,http://54.235.29.9/FacialAge/BNav_EC2/DepthDuration/v2_depth_duration_MTurk/v2_DepthDuration_HTML.html#463,463,1366,768,1366,768,9-3-2022,6-8-55,13,depth_duration_stimuli/000569_2014-06-09_22-51-47_260595134347_rgbf000141-resize_3/000569_2014-06-09_22-51-47_260595134347_rgbf000141-resize-original.jpg,125,4.512,8,3219,139,feet,jsons/VE125_randls_16.json,737226,877271,44,Woman
13,173362,DepthScenes,duration_manipulation_targetAtFixation,jsons/VE125_randls_16.json,http://54.235.29.9/FacialAge/BNav_EC2/DepthDuration/v2_depth_duration_MTurk/v2_DepthDuration_HTML.html#463,463,1366,768,1366,768,9-3-2022,6-8-55,14,depth_duration_stimuli/001110_2014-06-15_17-25-28_260595134347_rgbf000150-resize_1/001110_2014-06-15_17-25-28_260595134347_rgbf000150-resize_1-target.png,125,1.7115,4,3031,110,feet,jsons/VE125_randls_16.json,737226,877271,44,Woman
14,173362,DepthScenes,duration_manipulation_targetAtFixation,jsons/VE125_randls_16.json,http://54.235.29.9/FacialAge/BNav_EC2/DepthDuration/v2_depth_duration_MTurk/v2_DepthDuration_HTML.html#463,463,1366,768,1366,768,9-3-2022,6-8-55,15,depth_duration_stimuli/000927_2014-06-09_16-32-30_260595134347_rgbf000123-resize_3/000927_2014-06-09_16-32-30_260595134347_rgbf000123-resize_3-target.png,125,2.6785,5,4109,141,feet,jsons/VE125_randls_16.json,737226,877271,44,Woman
15,173362,DepthScenes,duration_manipulation_targetAtFixation,jsons/VE125_randls_16.json,http://54.235.29.9/FacialAge/BNav_EC2/DepthDuration/v2_depth_duration_MTurk/v2_DepthDuration_HTML.html#463,463,1366,768,1366,768,9-3-2022,6-8-55,16,depth_duration_stimuli/001810_2014-06-26_20-51-35_260595134347_rgbf000040-resize_3/001810_2014-06-26_20-51-35_260595134347_rgbf000040-resize_3-target.png,125,2.2525,4,3247,139,feet,jsons/VE125_randls_16.json,737226,877271,44,Woman
16,173362,DepthScenes,duration_manipulation_targetAtFixation,jsons/VE125_randls_16.json,http://54.235.29.9/FacialAge/BNav_EC2/DepthDuration/v2_depth_duration_MTurk/v2_DepthDuration_HTML.html#463,463,1366,768,1366,768,9-3-2022,6-8-55,17,depth_duration_stimuli/003010_2014-06-15_12-54-35_094959634447_rgbf000112-resize_0/003010_2014-06-15_12-54-35_094959634447_rgbf000112-resize_0-target.png,125,3.1185,12,2454,121,feet,jsons/VE125_randls_16.json,737226,877271,44,Woman
17,173362,DepthScenes,duration_manipulation_targetAtFixation,jsons/VE125_randls_16.json,http://54.235.29.9/FacialAge/BNav_EC2/DepthDuration/v2_depth_duration_MTurk/v2_DepthDuration_HTML.html#463,463,1366,768,1366,768,9-3-2022,6-8-55,18,depth_duration_stimuli/000642_2014-06-08_16-59-25_260595134347_rgbf000098-resize_2/000642_2014-06-08_16-59-25_260595134347_rgbf000098-resize_2-target.png,125,2.8815,6,3069,116,feet,jsons/VE125_randls_16.json,737226,877271,44,Woman
18,173362,DepthScenes,duration_manipulation_targetAtFixation,jsons/VE125_randls_16.json,http://54.235.29.9/FacialAge/BNav_EC2/DepthDuration/v2_depth_duration_MTurk/v2_DepthDuration_HTML.html#463,463,1366,768,1366,768,9-3-2022,6-8-55,19,depth_duration_stimuli/002425_2014-06-28_20-27-29_260595134347_rgbf000031-resize_8/002425_2014-06-28_20-27-29_260595134347_rgbf000031-resize_8-target.png,125,3.8960000000000004,5,2782,124,feet,jsons/VE125_randls_16.json,737226,877271,44,Woman
19,173362,DepthScenes,duration_manipulation_targetAtFixation,jsons/VE125_randls_16.json,http://54.235.29.9/FacialAge/BNav_EC2/DepthDuration/v2_depth_duration_MTurk/v2_DepthDuration_HTML.html#463,463,1366,768,1366,768,9-3-2022,6-8-55,20,depth_duration_stimuli/000469_2014-06-09_19-42-10_260595134347_rgbf000081-resize_1/000469_2014-06-09_19-42-10_260595134347_rgbf000081-resize_1-target.png,125,1.652,3,2781,123,feet,jsons/VE125_randls_16.json,737226,877271,44,Woman
20,173362,DepthScenes,duration_manipulation_targetAtFixation,jsons/VE125_randls_16.json,http://54.235.29.9/FacialAge/BNav_EC2/DepthDuration/v2_depth_duration_MTurk/v2_DepthDuration_HTML.html#463,463,1366,768,1366,768,9-3-2022,6-8-55,21,depth_duration_stimuli/000483_2014-06-09_20-41-45_260595134347_rgbf000116-resize_4/000483_2014-06-09_20-41-45_260595134347_rgbf000116-resize_4-target.png,125,1.337,2,2393,124,feet,jsons/VE125_randls_16.json,737226,877271,44,Woman
21,173362,DepthScenes,duration_manipulation_targetAtFixation,jsons/VE125_randls_16.json,http://54.235.29.9/FacialAge/BNav_EC2/DepthDuration/v2_depth_duration_MTurk/v2_DepthDuration_HTML.html#463,463,1366,768,1366,768,9-3-2022,6-8-55,22,depth_duration_stimuli/001150_2014-06-17_15-27-34_260595134347_rgbf000108-resize_2/001150_2014-06-17_15-27-34_260595134347_rgbf000108-resize_2-target.png,125,4.0325,5,3016,141,feet,jsons/VE125_randls_16.json,737226,877271,44,Woman
22,173362,DepthScenes,duration_manipulation_targetAtFixation,jsons/VE125_randls_16.json,http://54.235.29.9/FacialAge/BNav_EC2/DepthDuration/v2_depth_duration_MTurk/v2_DepthDuration_HTML.html#463,463,1366,768,1366,768,9-3-2022,6-8-55,23,depth_duration_stimuli/000665_2014-06-09_20-42-35_260595134347_rgbf000110-resize_1/000665_2014-06-09_20-42-35_260595134347_rgbf000110-resize_1-target.png,125,3.057,4,2421,155,feet,jsons/VE125_randls_16.json,737226,877271,44,Woman
23,173362,DepthScenes,duration_manipulation_targetAtFixation,jsons/VE125_randls_16.json,http://54.235.29.9/FacialAge/BNav_EC2/DepthDuration/v2_depth_duration_MTurk/v2_DepthDuration_HTML.html#463,463,1366,768,1366,768,9-3-2022,6-8-55,24,depth_duration_stimuli/001555_2014-06-20_17-12-10_260595134347_rgbf000065-resize_4/001555_2014-06-20_17-12-10_260595134347_rgbf000065-resize_4-target.png,125,1.633,3,3079,121,feet,jsons/VE125_randls_16.json,737226,877271,44,Woman
24,173362,DepthScenes,duration_manipulation_targetAtFixation,jsons/VE125_randls_16.json,http://54.235.29.9/FacialAge/BNav_EC2/DepthDuration/v2_depth_duration_MTurk/v2_DepthDuration_HTML.html#463,463,1366,768,1366,768,9-3-2022,6-8-55,25,depth_duration_stimuli/000103_2014-05-14_22-01-17_260595134347_rgbf000152-resize_5/000103_2014-05-14_22-01-17_260595134347_rgbf000152-resize_5-target.png,125,1.993,5,2562,123,feet,jsons/VE125_randls_16.json,737226,877271,44,Woman
25,173362,DepthScenes,duration_manipulation_targetAtFixation,jsons/VE125_randls_16.json,http://54.235.29.9/FacialAge/BNav_EC2/DepthDuration/v2_depth_duration_MTurk/v2_DepthDuration_HTML.html#463,463,1366,768,1366,768,9-3-2022,6-8-55,26,depth_duration_stimuli/001016_2014-06-09_16-16-10_260595134347_rgbf000112-resize_5/001016_2014-06-09_16-16-10_260595134347_rgbf000112-resize_5-target.png,125,1.6565,10,3438,123,feet,jsons/VE125_randls_16.json,737226,877271,44,Woman
26,173362,DepthScenes,duration_manipulation_targetAtFixation,jsons/VE125_randls_16.json,http://54.235.29.9/FacialAge/BNav_EC2/DepthDuration/v2_depth_duration_MTurk/v2_DepthDuration_HTML.html#463,463,1366,768,1366,768,9-3-2022,6-8-55,27,depth_duration_stimuli/002340_2014-06-28_20-05-46_260595134347_rgbf000113-resize_0/002340_2014-06-28_20-05-46_260595134347_rgbf000113-resize_0-target.png,125,2.4735,8,2687,120,feet,jsons/VE125_randls_16.json,737226,877271,44,Woman
27,173362,DepthScenes,duration_manipulation_targetAtFixation,jsons/VE125_randls_16.json,http://54.235.29.9/FacialAge/BNav_EC2/DepthDuration/v2_depth_duration_MTurk/v2_DepthDuration_HTML.html#463,463,1366,768,1366,768,9-3-2022,6-8-55,28,depth_duration_stimuli/000736_2014-06-08_18-24-15_260595134347_rgbf000206-resize_3/000736_2014-06-08_18-24-15_260595134347_rgbf000206-resize_3-target.png,125,3.515,3,3515,125,feet,jsons/VE125_randls_16.json,737226,877271,44,Woman
28,173362,DepthScenes,duration_manipulation_targetAtFixation,jsons/VE125_randls_16.json,http://54.235.29.9/FacialAge/BNav_EC2/DepthDuration/v2_depth_duration_MTurk/v2_DepthDuration_HTML.html#463,463,1366,768,1366,768,9-3-2022,6-8-55,29,depth_duration_stimuli/000137_2014-05-20_17-04-49_260595134347_rgbf000120-resize_1/000137_2014-05-20_17-04-49_260595134347_rgbf000120-resize_1-target.png,125,3.786,2,2547,139,feet,jsons/VE125_randls_16.json,737226,877271,44,Woman
29,173362,DepthScenes,duration_manipulation_targetAtFixation,jsons/VE125_randls_16.json,http://54.235.29.9/FacialAge/BNav_EC2/DepthDuration/v2_depth_duration_MTurk/v2_DepthDuration_HTML.html#463,463,1366,768,1366,768,9-3-2022,6-8-55,30,depth_duration_stimuli/000375_2014-06-08_11-17-29_260595134347_rgbf000133-resize_2/000375_2014-06-08_11-17-29_260595134347_rgbf000133-resize-original.jpg,125,4.718,0,3063,140,feet,jsons/VE125_randls_16.json,737226,877271,44,Woman
30,173362,DepthScenes,duration_manipulation_targetAtFixation,jsons/VE125_randls_16.json,http://54.235.29.9/FacialAge/BNav_EC2/DepthDuration/v2_depth_duration_MTurk/v2_DepthDuration_HTML.html#463,463,1366,768,1366,768,9-3-2022,6-8-55,31,depth_duration_stimuli/002570_2014-06-24_13-59-54_094959634447_rgbf000059-resize_0/002570_2014-06-24_13-59-54_094959634447_rgbf000059-resize_0-target.png,125,4.037,140,3578,124,feet,jsons/VE125_randls_16.json,737226,877271,44,Woman
31,173362,DepthScenes,duration_manipulation_targetAtFixation,jsons/VE125_randls_16.json,http://54.235.29.9/FacialAge/BNav_EC2/DepthDuration/v2_depth_duration_MTurk/v2_DepthDuration_HTML.html#463,463,1366,768,1366,768,9-3-2022,6-8-55,32,depth_duration_stimuli/002467_2014-06-28_20-38-07_260595134347_rgbf000026-resize_2/002467_2014-06-28_20-38-07_260595134347_rgbf000026-resize_2-target.png,125,4.742,10,2703,123,feet,jsons/VE125_randls_16.json,737226,877271,44,Woman
32,173362,DepthScenes,duration_manipulation_targetAtFixation,jsons/VE125_randls_16.json,http://54.235.29.9/FacialAge/BNav_EC2/DepthDuration/v2_depth_duration_MTurk/v2_DepthDuration_HTML.html#463,463,1366,768,1366,768,9-3-2022,6-8-55,33,depth_duration_stimuli/001133_2014-06-17_14-49-16_260595134347_rgbf000100-resize_0/001133_2014-06-17_14-49-16_260595134347_rgbf000100-resize_0-target.png,125,4.2115,15,3219,139,feet,jsons/VE125_randls_16.json,737226,877271,44,Woman
33,173362,DepthScenes,duration_manipulation_targetAtFixation,jsons/VE125_randls_16.json,http://54.235.29.9/FacialAge/BNav_EC2/DepthDuration/v2_depth_duration_MTurk/v2_DepthDuration_HTML.html#463,463,1366,768,1366,768,9-3-2022,6-8-55,34,depth_duration_stimuli/001132_2014-06-17_14-48-54_260595134347_rgbf000100-resize_2/001132_2014-06-17_14-48-54_260595134347_rgbf000100-resize_2-target.png,125,3.753,14,2530,125,feet,jsons/VE125_randls_16.json,737226,877271,44,Woman
34,173362,DepthScenes,duration_manipulation_targetAtFixation,jsons/VE125_randls_16.json,http://54.235.29.9/FacialAge/BNav_EC2/DepthDuration/v2_depth_duration_MTurk/v2_DepthDuration_HTML.html#463,463,1366,768,1366,768,9-3-2022,6-8-55,35,depth_duration_stimuli/002272_2014-06-28_18-53-56_260595134347_rgbf000067-resize_2/002272_2014-06-28_18-53-56_260595134347_rgbf000067-resize_2-target.png,125,1.138,3,4157,124,feet,jsons/VE125_randls_16.json,737226,877271,44,Woman
35,173362,DepthScenes,duration_manipulation_targetAtFixation,jsons/VE125_randls_16.json,http://54.235.29.9/FacialAge/BNav_EC2/DepthDuration/v2_depth_duration_MTurk/v2_DepthDuration_HTML.html#463,463,1366,768,1366,768,9-3-2022,6-8-55,36,depth_duration_stimuli/001571_2014-06-20_17-21-32_260595134347_rgbf000089-resize_1/001571_2014-06-20_17-21-32_260595134347_rgbf000089-resize_1-target.png,125,1.86,25,2610,125,feet,jsons/VE125_randls_16.json,737226,877271,44,Woman
36,173362,DepthScenes,duration_manipulation_targetAtFixation,jsons/VE125_randls_16.json,http://54.235.29.9/FacialAge/BNav_EC2/DepthDuration/v2_depth_duration_MTurk/v2_DepthDuration_HTML.html#463,463,1366,768,1366,768,9-3-2022,6-8-55,37,depth_duration_stimuli/001449_2014-06-19_17-01-27_260595134347_rgbf000116-resize_2/001449_2014-06-19_17-01-27_260595134347_rgbf000116-resize_2-target.png,125,3.452,10,4218,138,feet,jsons/VE125_randls_16.json,737226,877271,44,Woman
37,173362,DepthScenes,duration_manipulation_targetAtFixation,jsons/VE125_randls_16.json,http://54.235.29.9/FacialAge/BNav_EC2/DepthDuration/v2_depth_duration_MTurk/v2_DepthDuration_HTML.html#463,463,1366,768,1366,768,9-3-2022,6-8-55,38,depth_duration_stimuli/001450_2014-06-19_17-02-03_260595134347_rgbf000203-resize_4/001450_2014-06-19_17-02-03_260595134347_rgbf000203-resize_4-target.png,125,4.0106666666667,25,3030,139,feet,jsons/VE125_randls_16.json,737226,877271,44,Woman
38,173362,DepthScenes,duration_manipulation_targetAtFixation,jsons/VE125_randls_16.json,http://54.235.29.9/FacialAge/BNav_EC2/DepthDuration/v2_depth_duration_MTurk/v2_DepthDuration_HTML.html#463,463,1366,768,1366,768,9-3-2022,6-8-55,39,depth_duration_stimuli/001059_2014-06-08_21-53-27_260595134347_rgbf000061-resize_4/001059_2014-06-08_21-53-27_260595134347_rgbf000061-resize_4-target.png,125,2.4185,10,5156,120,feet,jsons/VE125_randls_16.json,737226,877271,44,Woman
39,173362,DepthScenes,duration_manipulation_targetAtFixation,jsons/VE125_randls_16.json,http://54.235.29.9/FacialAge/BNav_EC2/DepthDuration/v2_depth_duration_MTurk/v2_DepthDuration_HTML.html#463,463,1366,768,1366,768,9-3-2022,6-8-55,40,depth_duration_stimuli/001032_2014-06-08_13-23-17_260595134347_rgbf000021-resize_3/001032_2014-06-08_13-23-17_260595134347_rgbf000021-resize_3-target.png,125,3.2725,40,3438,141,feet,jsons/VE125_randls_16.json,737226,877271,44,Woman
40,173362,DepthScenes,duration_manipulation_targetAtFixation,jsons/VE125_randls_16.json,http://54.235.29.9/FacialAge/BNav_EC2/DepthDuration/v2_depth_duration_MTurk/v2_DepthDuration_HTML.html#463,463,1366,768,1366,768,9-3-2022,6-8-55,41,depth_duration_stimuli/002788_2014-06-22_19-36-03_094959634447_rgbf000088-resize_2/002788_2014-06-22_19-36-03_094959634447_rgbf000088-resize_2-target.png,125,1.6465,25,4546,124,feet,jsons/VE125_randls_16.json,737226,877271,44,Woman
41,173362,DepthScenes,duration_manipulation_targetAtFixation,jsons/VE125_randls_16.json,http://54.235.29.9/FacialAge/BNav_EC2/DepthDuration/v2_depth_duration_MTurk/v2_DepthDuration_HTML.html#463,463,1366,768,1366,768,9-3-2022,6-8-55,42,depth_duration_stimuli/000749_2014-06-08_21-55-06_260595134347_rgbf000070-resize_2/000749_2014-06-08_21-55-06_260595134347_rgbf000070-resize_2-target.png,125,2.331,4,2937,120,feet,jsons/VE125_randls_16.json,737226,877271,44,Woman
42,173362,DepthScenes,duration_manipulation_targetAtFixation,jsons/VE125_randls_16.json,http://54.235.29.9/FacialAge/BNav_EC2/DepthDuration/v2_depth_duration_MTurk/v2_DepthDuration_HTML.html#463,463,1366,768,1366,768,9-3-2022,6-8-55,43,depth_duration_stimuli/002375_2014-06-28_20-13-44_260595134347_rgbf000032-resize_1/002375_2014-06-28_20-13-44_260595134347_rgbf000032-resize_1-target.png,125,4.0175,12,5140,124,feet,jsons/VE125_randls_16.json,737226,877271,44,Woman
43,173362,DepthScenes,duration_manipulation_targetAtFixation,jsons/VE125_randls_16.json,http://54.235.29.9/FacialAge/BNav_EC2/DepthDuration/v2_depth_duration_MTurk/v2_DepthDuration_HTML.html#463,463,1366,768,1366,768,9-3-2022,6-8-55,44,depth_duration_stimuli/002657_2014-06-13_15-29-54_094959634447_rgbf000150-resize_1/002657_2014-06-13_15-29-54_094959634447_rgbf000150-resize_1-target.png,125,4.919,45,4458,116,feet,jsons/VE125_randls_16.json,737226,877271,44,Woman
44,173362,DepthScenes,duration_manipulation_targetAtFixation,jsons/VE125_randls_16.json,http://54.235.29.9/FacialAge/BNav_EC2/DepthDuration/v2_depth_duration_MTurk/v2_DepthDuration_HTML.html#463,463,1366,768,1366,768,9-3-2022,6-8-55,45,depth_duration_stimuli/000787_2014-06-08_22-33-53_260595134347_rgbf000175-resize_1/000787_2014-06-08_22-33-53_260595134347_rgbf000175-resize-original.jpg,125,4.784,0,3906,124,feet,jsons/VE125_randls_16.json,737226,877271,44,Woman
45,173362,DepthScenes,duration_manipulation_targetAtFixation,jsons/VE125_randls_16.json,http://54.235.29.9/FacialAge/BNav_EC2/DepthDuration/v2_depth_duration_MTurk/v2_DepthDuration_HTML.html#463,463,1366,768,1366,768,9-3-2022,6-8-55,46,depth_duration_stimuli/001029_2014-06-08_13-17-57_260595134347_rgbf000065-resize_1/001029_2014-06-08_13-17-57_260595134347_rgbf000065-resize_1-target.png,125,3.0835,8,4234,124,feet,jsons/VE125_randls_16.json,737226,877271,44,Woman
46,173362,DepthScenes,duration_manipulation_targetAtFixation,jsons/VE125_randls_16.json,http://54.235.29.9/FacialAge/BNav_EC2/DepthDuration/v2_depth_duration_MTurk/v2_DepthDuration_HTML.html#463,463,1366,768,1366,768,9-3-2022,6-8-55,47,depth_duration_stimuli/000677_2014-06-08_23-10-32_260595134347_rgbf000158-resize_6/000677_2014-06-08_23-10-32_260595134347_rgbf000158-resize_6-target.png,125,3.556,14,3390,139,feet,jsons/VE125_randls_16.json,737226,877271,44,Woman
47,173362,DepthScenes,duration_manipulation_targetAtFixation,jsons/VE125_randls_16.json,http://54.235.29.9/FacialAge/BNav_EC2/DepthDuration/v2_depth_duration_MTurk/v2_DepthDuration_HTML.html#463,463,1366,768,1366,768,9-3-2022,6-8-55,48,depth_duration_stimuli/000810_2014-06-08_17-20-01_260595134347_rgbf000105-resize_0/000810_2014-06-08_17-20-01_260595134347_rgbf000105-resize_0-target.png,125,1.4865,4,7765,114,feet,jsons/VE125_randls_16.json,737226,877271,44,Woman
48,173362,DepthScenes,duration_manipulation_targetAtFixation,jsons/VE125_randls_16.json,http://54.235.29.9/FacialAge/BNav_EC2/DepthDuration/v2_depth_duration_MTurk/v2_DepthDuration_HTML.html#463,463,1366,768,1366,768,9-3-2022,6-8-55,49,depth_duration_stimuli/001214_2014-06-17_16-13-55_260595134347_rgbf000111-resize_0/001214_2014-06-17_16-13-55_260595134347_rgbf000111-resize_0-target.png,125,2.6505,56,4157,108,feet,jsons/VE125_randls_16.json,737226,877271,44,Woman
49,173362,DepthScenes,duration_manipulation_targetAtFixation,jsons/VE125_randls_16.json,http://54.235.29.9/FacialAge/BNav_EC2/DepthDuration/v2_depth_duration_MTurk/v2_DepthDuration_HTML.html#463,463,1366,768,1366,768,9-3-2022,6-8-55,50,depth_duration_stimuli/003292_2014-05-14_21-53-49_094959634447_rgbf000100-resize_2/003292_2014-05-14_21-53-49_094959634447_rgbf000100-resize_2-target.png,125,3.4815,12,4235,123,feet,jsons/VE125_randls_16.json,737226,877271,44,Woman
50,173362,DepthScenes,duration_manipulation_targetAtFixation,jsons/VE125_randls_16.json,http://54.235.29.9/FacialAge/BNav_EC2/DepthDuration/v2_depth_duration_MTurk/v2_DepthDuration_HTML.html#463,463,1366,768,1366,768,9-3-2022,6-8-55,51,depth_duration_stimuli/002639_2014-06-24_14-51-37_094959634447_rgbf000074-resize_4/002639_2014-06-24_14-51-37_094959634447_rgbf000074-resize_4-target.png,125,4.0375,18,3250,120,feet,jsons/VE125_randls_16.json,737226,877271,44,Woman
51,173362,DepthScenes,duration_manipulation_targetAtFixation,jsons/VE125_randls_16.json,http://54.235.29.9/FacialAge/BNav_EC2/DepthDuration/v2_depth_duration_MTurk/v2_DepthDuration_HTML.html#463,463,1366,768,1366,768,9-3-2022,6-8-55,52,depth_duration_stimuli/002763_2014-06-22_19-13-10_094959634447_rgbf000075-resize_4/002763_2014-06-22_19-13-10_094959634447_rgbf000075-resize_4-target.png,125,1.68375,12,4422,138,feet,jsons/VE125_randls_16.json,737226,877271,44,Woman
52,173362,DepthScenes,duration_manipulation_targetAtFixation,jsons/VE125_randls_16.json,http://54.235.29.9/FacialAge/BNav_EC2/DepthDuration/v2_depth_duration_MTurk/v2_DepthDuration_HTML.html#463,463,1366,768,1366,768,9-3-2022,6-8-55,53,depth_duration_stimuli/002209_2014-06-28_18-36-10_260595134347_rgbf000051-resize_1/002209_2014-06-28_18-36-10_260595134347_rgbf000051-resize_1-target.png,125,2.057,14,4985,113,feet,jsons/VE125_randls_16.json,737226,877271,44,Woman
53,173362,DepthScenes,duration_manipulation_targetAtFixation,jsons/VE125_randls_16.json,http://54.235.29.9/FacialAge/BNav_EC2/DepthDuration/v2_depth_duration_MTurk/v2_DepthDuration_HTML.html#463,463,1366,768,1366,768,9-3-2022,6-8-55,54,depth_duration_stimuli/001808_2014-06-26_20-50-58_260595134347_rgbf000029-resize_1/001808_2014-06-26_20-50-58_260595134347_rgbf000029-resize_1-target.png,125,4.249,15,4890,141,feet,jsons/VE125_randls_16.json,737226,877271,44,Woman
54,173362,DepthScenes,duration_manipulation_targetAtFixation,jsons/VE125_randls_16.json,http://54.235.29.9/FacialAge/BNav_EC2/DepthDuration/v2_depth_duration_MTurk/v2_DepthDuration_HTML.html#463,463,1366,768,1366,768,9-3-2022,6-8-55,55,depth_duration_stimuli/001815_2014-06-26_20-52-55_260595134347_rgbf000020-resize_0/001815_2014-06-26_20-52-55_260595134347_rgbf000020-resize_0-target.png,125,3.3865,12,2968,124,feet,jsons/VE125_randls_16.json,737226,877271,44,Woman
55,173362,DepthScenes,duration_manipulation_targetAtFixation,jsons/VE125_randls_16.json,http://54.235.29.9/FacialAge/BNav_EC2/DepthDuration/v2_depth_duration_MTurk/v2_DepthDuration_HTML.html#463,463,1366,768,1366,768,9-3-2022,6-8-55,56,depth_duration_stimuli/002057_2014-06-24_21-00-13_260595134347_rgbf000120-resize_1/002057_2014-06-24_21-00-13_260595134347_rgbf000120-resize_1-target.png,125,2.967,14,4562,125,feet,jsons/VE125_randls_16.json,737226,877271,44,Woman
56,173362,DepthScenes,duration_manipulation_targetAtFixation,jsons/VE125_randls_16.json,http://54.235.29.9/FacialAge/BNav_EC2/DepthDuration/v2_depth_duration_MTurk/v2_DepthDuration_HTML.html#463,463,1366,768,1366,768,9-3-2022,6-8-55,57,depth_duration_stimuli/000709_2014-06-08_13-51-55_260595134347_rgbf000068-resize_3/000709_2014-06-08_13-51-55_260595134347_rgbf000068-resize_3-target.png,125,1.8030000000000002,16,3250,139,feet,jsons/VE125_randls_16.json,737226,877271,44,Woman
57,173362,DepthScenes,duration_manipulation_targetAtFixation,jsons/VE125_randls_16.json,http://54.235.29.9/FacialAge/BNav_EC2/DepthDuration/v2_depth_duration_MTurk/v2_DepthDuration_HTML.html#463,463,1366,768,1366,768,9-3-2022,6-8-55,58,depth_duration_stimuli/000917_2014-06-09_22-45-29_260595134347_rgbf000149-resize_3/000917_2014-06-09_22-45-29_260595134347_rgbf000149-resize_3-target.png,125,4.1865,18,4234,125,feet,jsons/VE125_randls_16.json,737226,877271,44,Woman
58,173362,DepthScenes,duration_manipulation_targetAtFixation,jsons/VE125_randls_16.json,http://54.235.29.9/FacialAge/BNav_EC2/DepthDuration/v2_depth_duration_MTurk/v2_DepthDuration_HTML.html#463,463,1366,768,1366,768,9-3-2022,6-8-55,59,depth_duration_stimuli/002323_2014-06-28_20-01-54_260595134347_rgbf000051-resize_4/002323_2014-06-28_20-01-54_260595134347_rgbf000051-resize_4-target.png,125,3.7310000000000003,25,3078,123,feet,jsons/VE125_randls_16.json,737226,877271,44,Woman
59,173362,DepthScenes,duration_manipulation_targetAtFixation,jsons/VE125_randls_16.json,http://54.235.29.9/FacialAge/BNav_EC2/DepthDuration/v2_depth_duration_MTurk/v2_DepthDuration_HTML.html#463,463,1366,768,1366,768,9-3-2022,6-8-55,60,depth_duration_stimuli/001175_2014-06-17_15-45-55_260595134347_rgbf000129-resize_4/001175_2014-06-17_15-45-55_260595134347_rgbf000129-resize_4-target.png,125,4.255,24,4640,123,feet,jsons/VE125_randls_16.json,737226,877271,44,Woman
60,173362,DepthScenes,duration_manipulation_targetAtFixation,jsons/VE125_randls_16.json,http://54.235.29.9/FacialAge/BNav_EC2/DepthDuration/v2_depth_duration_MTurk/v2_DepthDuration_HTML.html#463,463,1366,768,1366,768,9-3-2022,6-8-55,61,depth_duration_stimuli/003490_2014-05-21_15-50-11_094959634447_rgbf000101-resize_3/003490_2014-05-21_15-50-11_094959634447_rgbf000101-resize_3-target.png,125,3.6445,36,3531,108,feet,jsons/VE125_randls_16.json,737226,877271,44,Woman
61,173362,DepthScenes,duration_manipulation_targetAtFixation,jsons/VE125_randls_16.json,http://54.235.29.9/FacialAge/BNav_EC2/DepthDuration/v2_depth_duration_MTurk/v2_DepthDuration_HTML.html#463,463,1366,768,1366,768,9-3-2022,6-8-55,62,depth_duration_stimuli/000436_2014-06-09_22-25-11_260595134347_rgbf000137-resize_1/000436_2014-06-09_22-25-11_260595134347_rgbf000137-resize_1-target.png,125,4.0705,42,6203,140,feet,jsons/VE125_randls_16.json,737226,877271,44,Woman
62,173362,DepthScenes,duration_manipulation_targetAtFixation,jsons/VE125_randls_16.json,http://54.235.29.9/FacialAge/BNav_EC2/DepthDuration/v2_depth_duration_MTurk/v2_DepthDuration_HTML.html#463,463,1366,768,1366,768,9-3-2022,6-8-55,63,depth_duration_stimuli/002444_2014-06-28_20-32-08_260595134347_rgbf000027-resize_0/002444_2014-06-28_20-32-08_260595134347_rgbf000027-resize_0-target.png,125,4.388999999999999,36,3328,124,feet,jsons/VE125_randls_16.json,737226,877271,44,Woman
63,173362,DepthScenes,duration_manipulation_targetAtFixation,jsons/VE125_randls_16.json,http://54.235.29.9/FacialAge/BNav_EC2/DepthDuration/v2_depth_duration_MTurk/v2_DepthDuration_HTML.html#463,463,1366,768,1366,768,9-3-2022,6-8-55,64,depth_duration_stimuli/003070_2014-06-15_14-58-27_094959634447_rgbf000150-resize_3/003070_2014-06-15_14-58-27_094959634447_rgbf000150-resize_3-target.png,125,2.9415,18,4422,123,feet,jsons/VE125_randls_16.json,737226,877271,44,Woman
64,173362,DepthScenes,duration_manipulation_targetAtFixation,jsons/VE125_randls_16.json,http://54.235.29.9/FacialAge/BNav_EC2/DepthDuration/v2_depth_duration_MTurk/v2_DepthDuration_HTML.html#463,463,1366,768,1366,768,9-3-2022,6-8-55,65,depth_duration_stimuli/000943_2014-06-09_19-31-07_260595134347_rgbf000128-resize_1/000943_2014-06-09_19-31-07_260595134347_rgbf000128-resize_1-target.png,125,1.9765,14,3046,119,feet,jsons/VE125_randls_16.json,737226,877271,44,Woman
65,173362,DepthScenes,duration_manipulation_targetAtFixation,jsons/VE125_randls_16.json,http://54.235.29.9/FacialAge/BNav_EC2/DepthDuration/v2_depth_duration_MTurk/v2_DepthDuration_HTML.html#463,463,1366,768,1366,768,9-3-2022,6-8-55,66,depth_duration_stimuli/001222_2014-06-17_16-24-06_260595134347_rgbf000073-resize_0/001222_2014-06-17_16-24-06_260595134347_rgbf000073-resize-original.jpg,125,1.4385,18,4094,139,feet,jsons/VE125_randls_16.json,737226,877271,44,Woman
66,173362,DepthScenes,duration_manipulation_targetAtFixation,jsons/VE125_randls_16.json,http://54.235.29.9/FacialAge/BNav_EC2/DepthDuration/v2_depth_duration_MTurk/v2_DepthDuration_HTML.html#463,463,1366,768,1366,768,9-3-2022,6-8-55,67,depth_duration_stimuli/001164_2014-06-17_15-35-46_260595134347_rgbf000085-resize_3/001164_2014-06-17_15-35-46_260595134347_rgbf000085-resize_3-target.png,125,2.354,25,4328,122,feet,jsons/VE125_randls_16.json,737226,877271,44,Woman
67,173362,DepthScenes,duration_manipulation_targetAtFixation,jsons/VE125_randls_16.json,http://54.235.29.9/FacialAge/BNav_EC2/DepthDuration/v2_depth_duration_MTurk/v2_DepthDuration_HTML.html#463,463,1366,768,1366,768,9-3-2022,6-8-55,68,depth_duration_stimuli/001136_2014-06-17_15-19-41_260595134347_rgbf000076-resize_3/001136_2014-06-17_15-19-41_260595134347_rgbf000076-resize_3-target.png,125,1.8655,45,3266,118,feet,jsons/VE125_randls_16.json,737226,877271,44,Woman
68,173362,DepthScenes,duration_manipulation_targetAtFixation,jsons/VE125_randls_16.json,http://54.235.29.9/FacialAge/BNav_EC2/DepthDuration/v2_depth_duration_MTurk/v2_DepthDuration_HTML.html#463,463,1366,768,1366,768,9-3-2022,6-8-55,69,depth_duration_stimuli/000414_2014-06-04_19-49-13_260595134347_rgbf000044-resize_0/000414_2014-06-04_19-49-13_260595134347_rgbf000044-resize_0-target.png,125,4.329,65,4172,114,feet,jsons/VE125_randls_16.json,737226,877271,44,Woman
69,173362,DepthScenes,duration_manipulation_targetAtFixation,jsons/VE125_randls_16.json,http://54.235.29.9/FacialAge/BNav_EC2/DepthDuration/v2_depth_duration_MTurk/v2_DepthDuration_HTML.html#463,463,1366,768,1366,768,9-3-2022,6-8-55,70,depth_duration_stimuli/003129_2014-05-12_10-48-10_094959634447_rgbf000100-resize_0/003129_2014-05-12_10-48-10_094959634447_rgbf000100-resize_0-target.png,125,4.9305,85,3250,117,feet,jsons/VE125_randls_16.json,737226,877271,44,Woman
70,173362,DepthScenes,duration_manipulation_targetAtFixation,jsons/VE125_randls_16.json,http://54.235.29.9/FacialAge/BNav_EC2/DepthDuration/v2_depth_duration_MTurk/v2_DepthDuration_HTML.html#463,463,1366,768,1366,768,9-3-2022,6-8-55,71,depth_duration_stimuli/001158_2014-06-17_15-32-16_260595134347_rgbf000138-resize_2/001158_2014-06-17_15-32-16_260595134347_rgbf000138-resize_2-target.png,125,4.5315,120,4359,109,feet,jsons/VE125_randls_16.json,737226,877271,44,Woman
71,173362,DepthScenes,duration_manipulation_targetAtFixation,jsons/VE125_randls_16.json,http://54.235.29.9/FacialAge/BNav_EC2/DepthDuration/v2_depth_duration_MTurk/v2_DepthDuration_HTML.html#463,463,1366,768,1366,768,9-3-2022,6-8-55,72,depth_duration_stimuli/000556_2014-06-09_22-42-56_260595134347_rgbf000214-resize_1/000556_2014-06-09_22-42-56_260595134347_rgbf000214-resize_1-target.png,125,4.8415,105,3260,138,feet,jsons/VE125_randls_16.json,737226,877271,44,Woman
72,173362,DepthScenes,duration_manipulation_targetAtFixation,jsons/VE125_randls_16.json,http://54.235.29.9/FacialAge/BNav_EC2/DepthDuration/v2_depth_duration_MTurk/v2_DepthDuration_HTML.html#463,463,1366,768,1366,768,9-3-2022,6-8-55,73,depth_duration_stimuli/001167_2014-06-17_15-38-07_260595134347_rgbf000108-resize_0/001167_2014-06-17_15-38-07_260595134347_rgbf000108-resize_0-target.png,125,1.8505,110,3282,123,feet,jsons/VE125_randls_16.json,737226,877271,44,Woman
73,173362,DepthScenes,duration_manipulation_targetAtFixation,jsons/VE125_randls_16.json,http://54.235.29.9/FacialAge/BNav_EC2/DepthDuration/v2_depth_duration_MTurk/v2_DepthDuration_HTML.html#463,463,1366,768,1366,768,9-3-2022,6-8-55,74,depth_duration_stimuli/003587_2014-05-23_16-48-02_094959634447_rgbf002384-resize_2/003587_2014-05-23_16-48-02_094959634447_rgbf002384-resize_2-target.png,125,1.357,5,4750,125,feet,jsons/VE125_randls_16.json,737226,877271,44,Woman
74,173362,DepthScenes,duration_manipulation_targetAtFixation,jsons/VE125_randls_16.json,http://54.235.29.9/FacialAge/BNav_EC2/DepthDuration/v2_depth_duration_MTurk/v2_DepthDuration_HTML.html#463,463,1366,768,1366,768,9-3-2022,6-8-55,75,depth_duration_stimuli/000522_2014-06-08_13-35-06_260595134347_rgbf000244-resize_1/000522_2014-06-08_13-35-06_260595134347_rgbf000244-resize_1-target.png,125,2.3715,6,4281,139,feet,jsons/VE125_randls_16.json,737226,877271,44,Woman
75,173362,DepthScenes,duration_manipulation_targetAtFixation,jsons/VE125_randls_16.json,http://54.235.29.9/FacialAge/BNav_EC2/DepthDuration/v2_depth_duration_MTurk/v2_DepthDuration_HTML.html#463,463,1366,768,1366,768,9-3-2022,6-8-55,76,depth_duration_stimuli/002949_2014-06-26_15-57-42_094959634447_rgbf000079-resize_1/002949_2014-06-26_15-57-42_094959634447_rgbf000079-resize_1-target.png,125,1.8915,4,2954,112,feet,jsons/VE125_randls_16.json,737226,877271,44,Woman
76,173362,DepthScenes,duration_manipulation_targetAtFixation,jsons/VE125_randls_16.json,http://54.235.29.9/FacialAge/BNav_EC2/DepthDuration/v2_depth_duration_MTurk/v2_DepthDuration_HTML.html#463,463,1366,768,1366,768,9-3-2022,6-8-55,77,depth_duration_stimuli/000493_2014-06-09_21-01-18_260595134347_rgbf000196-resize_3/000493_2014-06-09_21-01-18_260595134347_rgbf000196-resize_3-target.png,125,3.44,12,4016,109,feet,jsons/VE125_randls_16.json,737226,877271,44,Woman
77,173362,DepthScenes,duration_manipulation_targetAtFixation,jsons/VE125_randls_16.json,http://54.235.29.9/FacialAge/BNav_EC2/DepthDuration/v2_depth_duration_MTurk/v2_DepthDuration_HTML.html#463,463,1366,768,1366,768,9-3-2022,6-8-55,78,depth_duration_stimuli/000191_2014-05-12_17-07-38_260595134347_rgbf000199-resize_0/000191_2014-05-12_17-07-38_260595134347_rgbf000199-resize_0-target.png,125,3.7995,15,2735,123,feet,jsons/VE125_randls_16.json,737226,877271,44,Woman
78,173362,DepthScenes,duration_manipulation_targetAtFixation,jsons/VE125_randls_16.json,http://54.235.29.9/FacialAge/BNav_EC2/DepthDuration/v2_depth_duration_MTurk/v2_DepthDuration_HTML.html#463,463,1366,768,1366,768,9-3-2022,6-8-55,79,depth_duration_stimuli/000878_2014-06-08_22-52-45_260595134347_rgbf000045-resize_2/000878_2014-06-08_22-52-45_260595134347_rgbf000045-resize_2-target.png,125,2.092,22,3999,102,feet,jsons/VE125_randls_16.json,737226,877271,44,Woman
79,173362,DepthScenes,duration_manipulation_targetAtFixation,jsons/VE125_randls_16.json,http://54.235.29.9/FacialAge/BNav_EC2/DepthDuration/v2_depth_duration_MTurk/v2_DepthDuration_HTML.html#463,463,1366,768,1366,768,9-3-2022,6-8-55,80,depth_duration_stimuli/002953_2014-06-08_17-32-18_094959634447_rgbf000059-resize_5/002953_2014-06-08_17-32-18_094959634447_rgbf000059-resize_5-target.png,125,1.551,18,3095,123,feet,jsons/VE125_randls_16.json,737226,877271,44,Woman
80,173362,DepthScenes,duration_manipulation_targetAtFixation,jsons/VE125_randls_16.json,http://54.235.29.9/FacialAge/BNav_EC2/DepthDuration/v2_depth_duration_MTurk/v2_DepthDuration_HTML.html#463,463,1366,768,1366,768,9-3-2022,6-8-55,81,depth_duration_stimuli/003492_2014-05-21_15-50-55_094959634447_rgbf000828-resize_1/003492_2014-05-21_15-50-55_094959634447_rgbf000828-resize_1-target.png,125,4.06875,98,5409,120,feet,jsons/VE125_randls_16.json,737226,877271,44,Woman
81,173362,DepthScenes,duration_manipulation_targetAtFixation,jsons/VE125_randls_16.json,http://54.235.29.9/FacialAge/BNav_EC2/DepthDuration/v2_depth_duration_MTurk/v2_DepthDuration_HTML.html#463,463,1366,768,1366,768,9-3-2022,6-8-55,82,depth_duration_stimuli/002568_2014-06-24_13-59-21_094959634447_rgbf000062-resize_4/002568_2014-06-24_13-59-21_094959634447_rgbf000062-resize_4-target.png,125,3.015,65,2971,126,feet,jsons/VE125_randls_16.json,737226,877271,44,Woman
82,173362,DepthScenes,duration_manipulation_targetAtFixation,jsons/VE125_randls_16.json,http://54.235.29.9/FacialAge/BNav_EC2/DepthDuration/v2_depth_duration_MTurk/v2_DepthDuration_HTML.html#463,463,1366,768,1366,768,9-3-2022,6-8-55,83,depth_duration_stimuli/000682_2014-06-08_23-14-58_260595134347_rgbf000041-resize_5/000682_2014-06-08_23-14-58_260595134347_rgbf000041-resize_5-target.png,125,2.7239999999999998,15,5714,139,feet,jsons/VE125_randls_16.json,737226,877271,44,Woman
83,173362,DepthScenes,duration_manipulation_targetAtFixation,jsons/VE125_randls_16.json,http://54.235.29.9/FacialAge/BNav_EC2/DepthDuration/v2_depth_duration_MTurk/v2_DepthDuration_HTML.html#463,463,1366,768,1366,768,9-3-2022,6-8-55,84,depth_duration_stimuli/001650_2014-06-20_12-09-00_260595134347_rgbf000087-resize_3/001650_2014-06-20_12-09-00_260595134347_rgbf000087-resize_3-target.png,125,1.9505,5,2593,139,feet,jsons/VE125_randls_16.json,737226,877271,44,Woman
84,173362,DepthScenes,duration_manipulation_targetAtFixation,jsons/VE125_randls_16.json,http://54.235.29.9/FacialAge/BNav_EC2/DepthDuration/v2_depth_duration_MTurk/v2_DepthDuration_HTML.html#463,463,1366,768,1366,768,9-3-2022,6-8-55,85,depth_duration_stimuli/001570_2014-06-20_17-21-09_260595134347_rgbf000135-resize_4/001570_2014-06-20_17-21-09_260595134347_rgbf000135-resize_4-target.png,125,4.467,15,3953,124,feet,jsons/VE125_randls_16.json,737226,877271,44,Woman
85,173362,DepthScenes,duration_manipulation_targetAtFixation,jsons/VE125_randls_16.json,http://54.235.29.9/FacialAge/BNav_EC2/DepthDuration/v2_depth_duration_MTurk/v2_DepthDuration_HTML.html#463,463,1366,768,1366,768,9-3-2022,6-8-55,86,depth_duration_stimuli/001392_2014-06-19_16-07-59_260595134347_rgbf000046-resize_1/001392_2014-06-19_16-07-59_260595134347_rgbf000046-resize_1-target.png,125,4.135,16,3343,119,feet,jsons/VE125_randls_16.json,737226,877271,44,Woman
86,173362,DepthScenes,duration_manipulation_targetAtFixation,jsons/VE125_randls_16.json,http://54.235.29.9/FacialAge/BNav_EC2/DepthDuration/v2_depth_duration_MTurk/v2_DepthDuration_HTML.html#463,463,1366,768,1366,768,9-3-2022,6-8-55,87,depth_duration_stimuli/000447_2014-06-08_16-15-46_260595134347_rgbf000130-resize_1/000447_2014-06-08_16-15-46_260595134347_rgbf000130-resize_1-target.png,125,4.479,24,3922,123,feet,jsons/VE125_randls_16.json,737226,877271,44,Woman
87,173362,DepthScenes,duration_manipulation_targetAtFixation,jsons/VE125_randls_16.json,http://54.235.29.9/FacialAge/BNav_EC2/DepthDuration/v2_depth_duration_MTurk/v2_DepthDuration_HTML.html#463,463,1366,768,1366,768,9-3-2022,6-8-55,88,depth_duration_stimuli/001447_2014-06-19_17-00-32_260595134347_rgbf000082-resize_5/001447_2014-06-19_17-00-32_260595134347_rgbf000082-resize_5-target.png,125,4.13775,18,3138,140,feet,jsons/VE125_randls_16.json,737226,877271,44,Woman
88,173362,DepthScenes,duration_manipulation_targetAtFixation,jsons/VE125_randls_16.json,http://54.235.29.9/FacialAge/BNav_EC2/DepthDuration/v2_depth_duration_MTurk/v2_DepthDuration_HTML.html#463,463,1366,768,1366,768,9-3-2022,6-8-55,89,depth_duration_stimuli/001199_2014-06-17_16-03-48_260595134347_rgbf000077-resize_0/001199_2014-06-17_16-03-48_260595134347_rgbf000077-resize_0-target.png,125,3.4375,24,4375,139,feet,jsons/VE125_randls_16.json,737226,877271,44,Woman
89,173362,DepthScenes,duration_manipulation_targetAtFixation,jsons/VE125_randls_16.json,http://54.235.29.9/FacialAge/BNav_EC2/DepthDuration/v2_depth_duration_MTurk/v2_DepthDuration_HTML.html#463,463,1366,768,1366,768,9-3-2022,6-8-55,90,depth_duration_stimuli/000502_2014-06-08_23-02-32_260595134347_rgbf000063-resize_4/000502_2014-06-08_23-02-32_260595134347_rgbf000063-resize_4-target.png,125,2.431,18,4406,108,feet,jsons/VE125_randls_16.json,737226,877271,44,Woman
90,173362,DepthScenes,duration_manipulation_targetAtFixation,jsons/VE125_randls_16.json,http://54.235.29.9/FacialAge/BNav_EC2/DepthDuration/v2_depth_duration_MTurk/v2_DepthDuration_HTML.html#463,463,1366,768,1366,768,9-3-2022,6-8-55,91,depth_duration_stimuli/000368_2014-06-09_15-53-01_260595134347_rgbf000155-resize_2/000368_2014-06-09_15-53-01_260595134347_rgbf000155-resize_2-target.png,125,2.4859999999999998,6,4282,117,feet,jsons/VE125_randls_16.json,737226,877271,44,Woman
91,173362,DepthScenes,duration_manipulation_targetAtFixation,jsons/VE125_randls_16.json,http://54.235.29.9/FacialAge/BNav_EC2/DepthDuration/v2_depth_duration_MTurk/v2_DepthDuration_HTML.html#463,463,1366,768,1366,768,9-3-2022,6-8-55,92,depth_duration_stimuli/002678_2014-06-13_16-15-32_094959634447_rgbf000151-resize_6/002678_2014-06-13_16-15-32_094959634447_rgbf000151-resize_6-target.png,125,2.1830000000000003,45,3031,138,feet,jsons/VE125_randls_16.json,737226,877271,44,Woman
92,173362,DepthScenes,duration_manipulation_targetAtFixation,jsons/VE125_randls_16.json,http://54.235.29.9/FacialAge/BNav_EC2/DepthDuration/v2_depth_duration_MTurk/v2_DepthDuration_HTML.html#463,463,1366,768,1366,768,9-3-2022,6-8-55,93,depth_duration_stimuli/001244_2014-06-17_16-47-45_260595134347_rgbf000030-resize_4/001244_2014-06-17_16-47-45_260595134347_rgbf000030-resize_4-target.png,125,2.0425,8,3844,121,feet,jsons/VE125_randls_16.json,737226,877271,44,Woman
93,173362,DepthScenes,duration_manipulation_targetAtFixation,jsons/VE125_randls_16.json,http://54.235.29.9/FacialAge/BNav_EC2/DepthDuration/v2_depth_duration_MTurk/v2_DepthDuration_HTML.html#463,463,1366,768,1366,768,9-3-2022,6-8-55,94,depth_duration_stimuli/003495_2014-05-21_16-01-51_094959634447_rgbf000100-resize_3/003495_2014-05-21_16-01-51_094959634447_rgbf000100-resize_3-target.png,125,1.6255,45,3969,139,feet,jsons/VE125_randls_16.json,737226,877271,44,Woman
94,173362,DepthScenes,duration_manipulation_targetAtFixation,jsons/VE125_randls_16.json,http://54.235.29.9/FacialAge/BNav_EC2/DepthDuration/v2_depth_duration_MTurk/v2_DepthDuration_HTML.html#463,463,1366,768,1366,768,9-3-2022,6-8-55,95,depth_duration_stimuli/002039_2014-06-24_20-22-38_260595134347_rgbf000084-resize_1/002039_2014-06-24_20-22-38_260595134347_rgbf000084-resize_1-target.png,125,4.408,50,4454,123,feet,jsons/VE125_randls_16.json,737226,877271,44,Woman
95,173362,DepthScenes,duration_manipulation_targetAtFixation,jsons/VE125_randls_16.json,http://54.235.29.9/FacialAge/BNav_EC2/DepthDuration/v2_depth_duration_MTurk/v2_DepthDuration_HTML.html#463,463,1366,768,1366,768,9-3-2022,6-8-55,96,depth_duration_stimuli/002103_2014-06-25_20-00-40_260595134347_rgbf000049-resize_0/002103_2014-06-25_20-00-40_260595134347_rgbf000049-resize_0-target.png,125,4.105,55,2906,124,feet,jsons/VE125_randls_16.json,737226,877271,44,Woman
96,173362,DepthScenes,duration_manipulation_targetAtFixation,jsons/VE125_randls_16.json,http://54.235.29.9/FacialAge/BNav_EC2/DepthDuration/v2_depth_duration_MTurk/v2_DepthDuration_HTML.html#463,463,1366,768,1366,768,9-3-2022,6-8-55,97,depth_duration_stimuli/002988_2014-06-15_12-24-20_094959634447_rgbf000150-resize_1/002988_2014-06-15_12-24-20_094959634447_rgbf000150-resize_1-target.png,125,4.7669999999999995,98,4750,140,feet,jsons/VE125_randls_16.json,737226,877271,44,Woman
97,173362,DepthScenes,duration_manipulation_targetAtFixation,jsons/VE125_randls_16.json,http://54.235.29.9/FacialAge/BNav_EC2/DepthDuration/v2_depth_duration_MTurk/v2_DepthDuration_HTML.html#463,463,1366,768,1366,768,9-3-2022,6-8-55,98,depth_duration_stimuli/001052_2014-06-08_18-24-54_260595134347_rgbf000130-resize_1/001052_2014-06-08_18-24-54_260595134347_rgbf000130-resize_1-target.png,125,4.1045,98,3109,124,feet,jsons/VE125_randls_16.json,737226,877271,44,Woman
98,173362,DepthScenes,duration_manipulation_targetAtFixation,jsons/VE125_randls_16.json,http://54.235.29.9/FacialAge/BNav_EC2/DepthDuration/v2_depth_duration_MTurk/v2_DepthDuration_HTML.html#463,463,1366,768,1366,768,9-3-2022,6-8-55,99,depth_duration_stimuli/001540_2014-06-20_17-01-05_260595134347_rgbf000086-resize_2/001540_2014-06-20_17-01-05_260595134347_rgbf000086-resize-original.jpg,125,1.459,0,4063,110,feet,jsons/VE125_randls_16.json,737226,877271,44,Woman
99,173362,DepthScenes,duration_manipulation_targetAtFixation,jsons/VE125_randls_16.json,http://54.235.29.9/FacialAge/BNav_EC2/DepthDuration/v2_depth_duration_MTurk/v2_DepthDuration_HTML.html#463,463,1366,768,1366,768,9-3-2022,6-8-55,100,depth_duration_stimuli/000470_2014-06-09_19-42-40_260595134347_rgbf000094-resize_1/000470_2014-06-09_19-42-40_260595134347_rgbf000094-resize_1-target.png,125,1.831,6,4080,126,feet,jsons/VE125_randls_16.json,737226,877271,44,Woman
100,173362,DepthScenes,duration_manipulation_targetAtFixation,jsons/VE125_randls_16.json,http://54.235.29.9/FacialAge/BNav_EC2/DepthDuration/v2_depth_duration_MTurk/v2_DepthDuration_HTML.html#463,463,1366,768,1366,768,9-3-2022,6-8-55,101,depth_duration_stimuli/000109_2014-05-14_23-41-52_260595134347_rgbf000035-resize_9/000109_2014-05-14_23-41-52_260595134347_rgbf000035-resize_9-target.png,125,1.3545,8,2938,124,feet,jsons/VE125_randls_16.json,737226,877271,44,Woman
101,173362,DepthScenes,duration_manipulation_targetAtFixation,jsons/VE125_randls_16.json,http://54.235.29.9/FacialAge/BNav_EC2/DepthDuration/v2_depth_duration_MTurk/v2_DepthDuration_HTML.html#463,463,1366,768,1366,768,9-3-2022,6-8-55,102,depth_duration_stimuli/001806_2014-06-26_20-50-20_260595134347_rgbf000091-resize_1/001806_2014-06-26_20-50-20_260595134347_rgbf000091-resize_1-target.png,125,2.7305,12,4125,139,feet,jsons/VE125_randls_16.json,737226,877271,44,Woman
102,173362,DepthScenes,duration_manipulation_targetAtFixation,jsons/VE125_randls_16.json,http://54.235.29.9/FacialAge/BNav_EC2/DepthDuration/v2_depth_duration_MTurk/v2_DepthDuration_HTML.html#463,463,1366,768,1366,768,9-3-2022,6-8-55,103,depth_duration_stimuli/001617_2014-06-20_11-35-32_260595134347_rgbf000066-resize_1/001617_2014-06-20_11-35-32_260595134347_rgbf000066-resize_1-target.png,125,3.7910000000000004,15,3015,108,feet,jsons/VE125_randls_16.json,737226,877271,44,Woman
103,173362,DepthScenes,duration_manipulation_targetAtFixation,jsons/VE125_randls_16.json,http://54.235.29.9/FacialAge/BNav_EC2/DepthDuration/v2_depth_duration_MTurk/v2_DepthDuration_HTML.html#463,463,1366,768,1366,768,9-3-2022,6-8-55,104,depth_duration_stimuli/000929_2014-06-09_16-33-19_260595134347_rgbf000139-resize_0/000929_2014-06-09_16-33-19_260595134347_rgbf000139-resize_0-target.png,125,2.8680000000000003,12,3672,141,feet,jsons/VE125_randls_16.json,737226,877271,44,Woman
104,173362,DepthScenes,duration_manipulation_targetAtFixation,jsons/VE125_randls_16.json,http://54.235.29.9/FacialAge/BNav_EC2/DepthDuration/v2_depth_duration_MTurk/v2_DepthDuration_HTML.html#463,463,1366,768,1366,768,9-3-2022,6-8-55,105,depth_duration_stimuli/000457_2014-06-08_16-52-43_260595134347_rgbf000199-resize_1/000457_2014-06-08_16-52-43_260595134347_rgbf000199-resize_1-target.png,125,3.6489999999999996,18,4344,111,feet,jsons/VE125_randls_16.json,737226,877271,44,Woman
105,173362,DepthScenes,duration_manipulation_targetAtFixation,jsons/VE125_randls_16.json,http://54.235.29.9/FacialAge/BNav_EC2/DepthDuration/v2_depth_duration_MTurk/v2_DepthDuration_HTML.html#463,463,1366,768,1366,768,9-3-2022,6-8-55,106,depth_duration_stimuli/002989_2014-06-15_12-25-03_094959634447_rgbf000150-resize_3/002989_2014-06-15_12-25-03_094959634447_rgbf000150-resize_3-target.png,125,4.1975,26,4362,122,feet,jsons/VE125_randls_16.json,737226,877271,44,Woman
106,173362,DepthScenes,duration_manipulation_targetAtFixation,jsons/VE125_randls_16.json,http://54.235.29.9/FacialAge/BNav_EC2/DepthDuration/v2_depth_duration_MTurk/v2_DepthDuration_HTML.html#463,463,1366,768,1366,768,9-3-2022,6-8-55,107,depth_duration_stimuli/000866_2014-06-09_20-45-42_260595134347_rgbf000139-resize_1/000866_2014-06-09_20-45-42_260595134347_rgbf000139-resize_1-target.png,125,3.2155,32,3169,124,feet,jsons/VE125_randls_16.json,737226,877271,44,Woman
107,173362,DepthScenes,duration_manipulation_targetAtFixation,jsons/VE125_randls_16.json,http://54.235.29.9/FacialAge/BNav_EC2/DepthDuration/v2_depth_duration_MTurk/v2_DepthDuration_HTML.html#463,463,1366,768,1366,768,9-3-2022,6-8-55,108,depth_duration_stimuli/002279_2014-06-28_18-55-32_260595134347_rgbf000040-resize_5/002279_2014-06-28_18-55-32_260595134347_rgbf000040-resize_5-target.png,125,1.5043333333333,8,3636,137,feet,jsons/VE125_randls_16.json,737226,877271,44,Woman
108,173362,DepthScenes,duration_manipulation_targetAtFixation,jsons/VE125_randls_16.json,http://54.235.29.9/FacialAge/BNav_EC2/DepthDuration/v2_depth_duration_MTurk/v2_DepthDuration_HTML.html#463,463,1366,768,1366,768,9-3-2022,6-8-55,109,depth_duration_stimuli/000635_2014-06-08_16-38-42_260595134347_rgbf000106-resize_1/000635_2014-06-08_16-38-42_260595134347_rgbf000106-resize_1-target.png,125,2.074,24,3673,125,feet,jsons/VE125_randls_16.json,737226,877271,44,Woman
109,173362,DepthScenes,duration_manipulation_targetAtFixation,jsons/VE125_randls_16.json,http://54.235.29.9/FacialAge/BNav_EC2/DepthDuration/v2_depth_duration_MTurk/v2_DepthDuration_HTML.html#463,463,1366,768,1366,768,9-3-2022,6-8-55,110,depth_duration_stimuli/000739_2014-06-08_18-45-58_260595134347_rgbf000068-resize_1/000739_2014-06-08_18-45-58_260595134347_rgbf000068-resize_1-target.png,125,3.534,16,15547,122,feet,jsons/VE125_randls_16.json,737226,877271,44,Woman
110,173362,DepthScenes,duration_manipulation_targetAtFixation,jsons/VE125_randls_16.json,http://54.235.29.9/FacialAge/BNav_EC2/DepthDuration/v2_depth_duration_MTurk/v2_DepthDuration_HTML.html#463,463,1366,768,1366,768,9-3-2022,6-8-55,111,depth_duration_stimuli/000734_2014-06-08_17-39-11_260595134347_rgbf000128-resize_2/000734_2014-06-08_17-39-11_260595134347_rgbf000128-resize_2-target.png,125,4.098,28,3485,112,feet,jsons/VE125_randls_16.json,737226,877271,44,Woman
111,173362,DepthScenes,duration_manipulation_targetAtFixation,jsons/VE125_randls_16.json,http://54.235.29.9/FacialAge/BNav_EC2/DepthDuration/v2_depth_duration_MTurk/v2_DepthDuration_HTML.html#463,463,1366,768,1366,768,9-3-2022,6-8-55,112,depth_duration_stimuli/002043_2014-06-24_20-29-38_260595134347_rgbf000039-resize_4/002043_2014-06-24_20-29-38_260595134347_rgbf000039-resize_4-target.png,125,2.8435,18,7407,125,feet,jsons/VE125_randls_16.json,737226,877271,44,Woman
112,173362,DepthScenes,duration_manipulation_targetAtFixation,jsons/VE125_randls_16.json,http://54.235.29.9/FacialAge/BNav_EC2/DepthDuration/v2_depth_duration_MTurk/v2_DepthDuration_HTML.html#463,463,1366,768,1366,768,9-3-2022,6-8-55,113,depth_duration_stimuli/003048_2014-06-15_13-49-43_094959634447_rgbf000150-resize_1/003048_2014-06-15_13-49-43_094959634447_rgbf000150-resize_1-target.png,125,4.0035,40,3297,128,feet,jsons/VE125_randls_16.json,737226,877271,44,Woman
113,173362,DepthScenes,duration_manipulation_targetAtFixation,jsons/VE125_randls_16.json,http://54.235.29.9/FacialAge/BNav_EC2/DepthDuration/v2_depth_duration_MTurk/v2_DepthDuration_HTML.html#463,463,1366,768,1366,768,9-3-2022,6-8-55,114,depth_duration_stimuli/003534_2014-05-22_15-06-10_094959634447_rgbf000102-resize_4/003534_2014-05-22_15-06-10_094959634447_rgbf000102-resize_4-target.png,125,1.426,8,3797,140,feet,jsons/VE125_randls_16.json,737226,877271,44,Woman
114,173362,DepthScenes,duration_manipulation_targetAtFixation,jsons/VE125_randls_16.json,http://54.235.29.9/FacialAge/BNav_EC2/DepthDuration/v2_depth_duration_MTurk/v2_DepthDuration_HTML.html#463,463,1366,768,1366,768,9-3-2022,6-8-55,115,depth_duration_stimuli/002637_2014-06-24_14-51-13_094959634447_rgbf000066-resize_4/002637_2014-06-24_14-51-13_094959634447_rgbf000066-resize_4-target.png,125,1.9955,15,3344,138,feet,jsons/VE125_randls_16.json,737226,877271,44,Woman
115,173362,DepthScenes,duration_manipulation_targetAtFixation,jsons/VE125_randls_16.json,http://54.235.29.9/FacialAge/BNav_EC2/DepthDuration/v2_depth_duration_MTurk/v2_DepthDuration_HTML.html#463,463,1366,768,1366,768,9-3-2022,6-8-55,116,depth_duration_stimuli/001170_2014-06-17_15-43-44_260595134347_rgbf000096-resize_6/001170_2014-06-17_15-43-44_260595134347_rgbf000096-resize-original.jpg,125,1.1909999999999998,0,3954,125,feet,jsons/VE125_randls_16.json,737226,877271,44,Woman
116,173362,DepthScenes,duration_manipulation_targetAtFixation,jsons/VE125_randls_16.json,http://54.235.29.9/FacialAge/BNav_EC2/DepthDuration/v2_depth_duration_MTurk/v2_DepthDuration_HTML.html#463,463,1366,768,1366,768,9-3-2022,6-8-55,117,depth_duration_stimuli/002153_2014-06-25_21-27-18_260595134347_rgbf000038-resize_5/002153_2014-06-25_21-27-18_260595134347_rgbf000038-resize_5-target.png,125,2.505,15,4249,122,feet,jsons/VE125_randls_16.json,737226,877271,44,Woman
117,173362,DepthScenes,duration_manipulation_targetAtFixation,jsons/VE125_randls_16.json,http://54.235.29.9/FacialAge/BNav_EC2/DepthDuration/v2_depth_duration_MTurk/v2_DepthDuration_HTML.html#463,463,1366,768,1366,768,9-3-2022,6-8-55,118,depth_duration_stimuli/002660_2014-06-13_15-44-18_094959634447_rgbf001878-resize_2/002660_2014-06-13_15-44-18_094959634447_rgbf001878-resize_2-target.png,125,3.576,48,3687,138,feet,jsons/VE125_randls_16.json,737226,877271,44,Woman
118,173362,DepthScenes,duration_manipulation_targetAtFixation,jsons/VE125_randls_16.json,http://54.235.29.9/FacialAge/BNav_EC2/DepthDuration/v2_depth_duration_MTurk/v2_DepthDuration_HTML.html#463,463,1366,768,1366,768,9-3-2022,6-8-55,119,depth_duration_stimuli/001066_2014-06-08_22-03-20_260595134347_rgbf000066-resize_4/001066_2014-06-08_22-03-20_260595134347_rgbf000066-resize_4-target.png,125,4.2330000000000005,14,5203,121,feet,jsons/VE125_randls_16.json,737226,877271,44,Woman
119,173362,DepthScenes,duration_manipulation_targetAtFixation,jsons/VE125_randls_16.json,http://54.235.29.9/FacialAge/BNav_EC2/DepthDuration/v2_depth_duration_MTurk/v2_DepthDuration_HTML.html#463,463,1366,768,1366,768,9-3-2022,6-8-55,120,depth_duration_stimuli/000742_2014-06-08_18-48-09_260595134347_rgbf000164-resize_4/000742_2014-06-08_18-48-09_260595134347_rgbf000164-resize_4-target.png,125,4.632,42,3547,114,feet,jsons/VE125_randls_16.json,737226,877271,44,Woman
120,173362,DepthScenes,duration_manipulation_targetAtFixation,jsons/VE125_randls_16.json,http://54.235.29.9/FacialAge/BNav_EC2/DepthDuration/v2_depth_duration_MTurk/v2_DepthDuration_HTML.html#463,463,1366,768,1366,768,9-3-2022,6-8-55,121,depth_duration_stimuli/001092_2014-06-15_17-34-58_260595134347_rgbf000171-resize_3/001092_2014-06-15_17-34-58_260595134347_rgbf000171-resize_3-target.png,125,2.6935,18,5359,123,feet,jsons/VE125_randls_16.json,737226,877271,44,Woman
121,173362,DepthScenes,duration_manipulation_targetAtFixation,jsons/VE125_randls_16.json,http://54.235.29.9/FacialAge/BNav_EC2/DepthDuration/v2_depth_duration_MTurk/v2_DepthDuration_HTML.html#463,463,1366,768,1366,768,9-3-2022,6-8-55,122,depth_duration_stimuli/002545_2014-06-24_13-38-53_094959634447_rgbf000080-resize_4/002545_2014-06-24_13-38-53_094959634447_rgbf000080-resize_4-target.png,125,1.9205,26,5249,122,feet,jsons/VE125_randls_16.json,737226,877271,44,Woman
122,173362,DepthScenes,duration_manipulation_targetAtFixation,jsons/VE125_randls_16.json,http://54.235.29.9/FacialAge/BNav_EC2/DepthDuration/v2_depth_duration_MTurk/v2_DepthDuration_HTML.html#463,463,1366,768,1366,768,9-3-2022,6-8-55,123,depth_duration_stimuli/002964_2014-06-08_17-46-11_094959634447_rgbf000091-resize_4/002964_2014-06-08_17-46-11_094959634447_rgbf000091-resize_4-target.png,125,1.6909999999999998,20,4894,125,feet,jsons/VE125_randls_16.json,737226,877271,44,Woman
123,173362,DepthScenes,duration_manipulation_targetAtFixation,jsons/VE125_randls_16.json,http://54.235.29.9/FacialAge/BNav_EC2/DepthDuration/v2_depth_duration_MTurk/v2_DepthDuration_HTML.html#463,463,1366,768,1366,768,9-3-2022,6-8-55,124,depth_duration_stimuli/002136_2014-06-25_21-18-03_260595134347_rgbf000109-resize_3/002136_2014-06-25_21-18-03_260595134347_rgbf000109-resize_3-target.png,125,1.9569999999999999,13,7370,124,feet,jsons/VE125_randls_16.json,737226,877271,44,Woman
124,173362,DepthScenes,duration_manipulation_targetAtFixation,jsons/VE125_randls_16.json,http://54.235.29.9/FacialAge/BNav_EC2/DepthDuration/v2_depth_duration_MTurk/v2_DepthDuration_HTML.html#463,463,1366,768,1366,768,9-3-2022,6-8-55,125,depth_duration_stimuli/001055_2014-06-08_18-45-35_260595134347_rgbf000111-resize_4/001055_2014-06-08_18-45-35_260595134347_rgbf000111-resize_4-target.png,125,2.4290000000000003,19,6781,113,feet,jsons/VE125_randls_16.json,737226,877271,44,Woman
125,173362,DepthScenes,duration_manipulation_targetAtFixation,jsons/VE125_randls_16.json,http://54.235.29.9/FacialAge/BNav_EC2/DepthDuration/v2_depth_duration_MTurk/v2_DepthDuration_HTML.html#463,463,1366,768,1366,768,9-3-2022,6-8-55,126,depth_duration_stimuli/000549_2014-06-08_22-10-24_260595134347_rgbf000247-resize_3/000549_2014-06-08_22-10-24_260595134347_rgbf000247-resize_3-target.png,125,1.841,28,3470,120,feet,jsons/VE125_randls_16.json,737226,877271,44,Woman
126,173362,DepthScenes,duration_manipulation_targetAtFixation,jsons/VE125_randls_16.json,http://54.235.29.9/FacialAge/BNav_EC2/DepthDuration/v2_depth_duration_MTurk/v2_DepthDuration_HTML.html#463,463,1366,768,1366,768,9-3-2022,6-8-55,127,depth_duration_stimuli/001011_2014-06-08_23-18-54_260595134347_rgbf000044-resize_4/001011_2014-06-08_23-18-54_260595134347_rgbf000044-resize_4-target.png,125,2.4730000000000003,19,6297,110,feet,jsons/VE125_randls_16.json,737226,877271,44,Woman
127,173362,DepthScenes,duration_manipulation_targetAtFixation,jsons/VE125_randls_16.json,http://54.235.29.9/FacialAge/BNav_EC2/DepthDuration/v2_depth_duration_MTurk/v2_DepthDuration_HTML.html#463,463,1366,768,1366,768,9-3-2022,6-8-55,128,depth_duration_stimuli/002875_2014-06-01_15-19-00_094959634447_rgbf000151-resize_1/002875_2014-06-01_15-19-00_094959634447_rgbf000151-resize_1-target.png,125,1.9675,21,3484,109,feet,jsons/VE125_randls_16.json,737226,877271,44,Woman
128,173362,DepthScenes,duration_manipulation_targetAtFixation,jsons/VE125_randls_16.json,http://54.235.29.9/FacialAge/BNav_EC2/DepthDuration/v2_depth_duration_MTurk/v2_DepthDuration_HTML.html#463,463,1366,768,1366,768,9-3-2022,6-8-55,129,depth_duration_stimuli/002784_2014-06-22_19-26-30_094959634447_rgbf000083-resize_3/002784_2014-06-22_19-26-30_094959634447_rgbf000083-resize_3-target.png,125,1.8046666666667,4,3781,140,feet,jsons/VE125_randls_16.json,737226,877271,44,Woman
129,173362,DepthScenes,duration_manipulation_targetAtFixation,jsons/VE125_randls_16.json,http://54.235.29.9/FacialAge/BNav_EC2/DepthDuration/v2_depth_duration_MTurk/v2_DepthDuration_HTML.html#463,463,1366,768,1366,768,9-3-2022,6-8-55,130,depth_duration_stimuli/001100_2014-06-15_17-46-26_260595134347_rgbf000225-resize_2/001100_2014-06-15_17-46-26_260595134347_rgbf000225-resize_2-target.png,125,2.24,0,5765,115,feet,jsons/VE125_randls_16.json,737226,877271,44,Woman
130,173362,DepthScenes,duration_manipulation_targetAtFixation,jsons/VE125_randls_16.json,http://54.235.29.9/FacialAge/BNav_EC2/DepthDuration/v2_depth_duration_MTurk/v2_DepthDuration_HTML.html#463,463,1366,768,1366,768,9-3-2022,6-8-55,131,depth_duration_stimuli/001056_2014-06-08_18-46-44_260595134347_rgbf000068-resize_0/001056_2014-06-08_18-46-44_260595134347_rgbf000068-resize_0-target.png,125,2.6625,13,5610,124,feet,jsons/VE125_randls_16.json,737226,877271,44,Woman
131,173362,DepthScenes,duration_manipulation_targetAtFixation,jsons/VE125_randls_16.json,http://54.235.29.9/FacialAge/BNav_EC2/DepthDuration/v2_depth_duration_MTurk/v2_DepthDuration_HTML.html#463,463,1366,768,1366,768,9-3-2022,6-8-55,132,depth_duration_stimuli/002199_2014-06-28_18-33-56_260595134347_rgbf000074-resize_0/002199_2014-06-28_18-33-56_260595134347_rgbf000074-resize_0-target.png,125,1.996,9,4016,109,feet,jsons/VE125_randls_16.json,737226,877271,44,Woman
132,173362,DepthScenes,duration_manipulation_targetAtFixation,jsons/VE125_randls_16.json,http://54.235.29.9/FacialAge/BNav_EC2/DepthDuration/v2_depth_duration_MTurk/v2_DepthDuration_HTML.html#463,463,1366,768,1366,768,9-3-2022,6-8-55,133,depth_duration_stimuli/002509_2014-06-24_13-19-22_094959634447_rgbf000077-resize_0/002509_2014-06-24_13-19-22_094959634447_rgbf000077-resize_0-target.png,125,1.3065,7,5078,122,feet,jsons/VE125_randls_16.json,737226,877271,44,Woman
133,173362,DepthScenes,duration_manipulation_targetAtFixation,jsons/VE125_randls_16.json,http://54.235.29.9/FacialAge/BNav_EC2/DepthDuration/v2_depth_duration_MTurk/v2_DepthDuration_HTML.html#463,463,1366,768,1366,768,9-3-2022,6-8-55,134,depth_duration_stimuli/003338_2014-05-20_11-01-23_094959634447_rgbf000051-resize_6/003338_2014-05-20_11-01-23_094959634447_rgbf000051-resize_6-target.png,125,1.693,6,3234,120,feet,jsons/VE125_randls_16.json,737226,877271,44,Woman
134,173362,DepthScenes,duration_manipulation_targetAtFixation,jsons/VE125_randls_16.json,http://54.235.29.9/FacialAge/BNav_EC2/DepthDuration/v2_depth_duration_MTurk/v2_DepthDuration_HTML.html#463,463,1366,768,1366,768,9-3-2022,6-8-55,135,depth_duration_stimuli/002072_2014-06-24_21-48-06_260595134347_rgbf000115-resize_0/002072_2014-06-24_21-48-06_260595134347_rgbf000115-resize-original.jpg,125,4.702,0,4703,123,feet,jsons/VE125_randls_16.json,737226,877271,44,Woman
135,173362,DepthScenes,duration_manipulation_targetAtFixation,jsons/VE125_randls_16.json,http://54.235.29.9/FacialAge/BNav_EC2/DepthDuration/v2_depth_duration_MTurk/v2_DepthDuration_HTML.html#463,463,1366,768,1366,768,9-3-2022,6-8-55,136,depth_duration_stimuli/002630_2014-06-24_14-47-50_094959634447_rgbf000055-resize_1/002630_2014-06-24_14-47-50_094959634447_rgbf000055-resize_1-target.png,125,3.0095,36,4888,121,feet,jsons/VE125_randls_16.json,737226,877271,44,Woman
136,173362,DepthScenes,duration_manipulation_targetAtFixation,jsons/VE125_randls_16.json,http://54.235.29.9/FacialAge/BNav_EC2/DepthDuration/v2_depth_duration_MTurk/v2_DepthDuration_HTML.html#463,463,1366,768,1366,768,9-3-2022,6-8-55,137,depth_duration_stimuli/002758_2014-06-22_19-11-20_094959634447_rgbf000128-resize_1/002758_2014-06-22_19-11-20_094959634447_rgbf000128-resize_1-target.png,125,2.555,18,3630,123,feet,jsons/VE125_randls_16.json,737226,877271,44,Woman
137,173362,DepthScenes,duration_manipulation_targetAtFixation,jsons/VE125_randls_16.json,http://54.235.29.9/FacialAge/BNav_EC2/DepthDuration/v2_depth_duration_MTurk/v2_DepthDuration_HTML.html#463,463,1366,768,1366,768,9-3-2022,6-8-55,138,depth_duration_stimuli/000906_2014-06-08_13-35-43_260595134347_rgbf000155-resize_1/000906_2014-06-08_13-35-43_260595134347_rgbf000155-resize_1-target.png,125,2.8489999999999998,62,4441,124,feet,jsons/VE125_randls_16.json,737226,877271,44,Woman
138,173362,DepthScenes,duration_manipulation_targetAtFixation,jsons/VE125_randls_16.json,http://54.235.29.9/FacialAge/BNav_EC2/DepthDuration/v2_depth_duration_MTurk/v2_DepthDuration_HTML.html#463,463,1366,768,1366,768,9-3-2022,6-8-55,139,depth_duration_stimuli/002805_2014-06-22_19-54-03_094959634447_rgbf000079-resize_1/002805_2014-06-22_19-54-03_094959634447_rgbf000079-resize_1-target.png,125,3.1439999999999997,70,3704,126,feet,jsons/VE125_randls_16.json,737226,877271,44,Woman
139,173362,DepthScenes,duration_manipulation_targetAtFixation,jsons/VE125_randls_16.json,http://54.235.29.9/FacialAge/BNav_EC2/DepthDuration/v2_depth_duration_MTurk/v2_DepthDuration_HTML.html#463,463,1366,768,1366,768,9-3-2022,6-8-55,140,depth_duration_stimuli/002118_2014-06-25_20-32-08_260595134347_rgbf000078-resize_1/002118_2014-06-25_20-32-08_260595134347_rgbf000078-resize_1-target.png,125,2.6460000000000004,14,3625,111,feet,jsons/VE125_randls_16.json,737226,877271,44,Woman
140,173362,DepthScenes,duration_manipulation_targetAtFixation,jsons/VE125_randls_16.json,http://54.235.29.9/FacialAge/BNav_EC2/DepthDuration/v2_depth_duration_MTurk/v2_DepthDuration_HTML.html#463,463,1366,768,1366,768,9-3-2022,6-8-55,141,depth_duration_stimuli/001516_2014-06-20_16-25-09_260595134347_rgbf000076-resize_2/001516_2014-06-20_16-25-09_260595134347_rgbf000076-resize_2-target.png,125,1.7445,10,3516,123,feet,jsons/VE125_randls_16.json,737226,877271,44,Woman
141,173362,DepthScenes,duration_manipulation_targetAtFixation,jsons/VE125_randls_16.json,http://54.235.29.9/FacialAge/BNav_EC2/DepthDuration/v2_depth_duration_MTurk/v2_DepthDuration_HTML.html#463,463,1366,768,1366,768,9-3-2022,6-8-55,142,depth_duration_stimuli/002600_2014-06-24_14-27-04_094959634447_rgbf000074-resize_2/002600_2014-06-24_14-27-04_094959634447_rgbf000074-resize_2-target.png,125,2.7575,123,5081,123,feet,jsons/VE125_randls_16.json,737226,877271,44,Woman
142,173362,DepthScenes,duration_manipulation_targetAtFixation,jsons/VE125_randls_16.json,http://54.235.29.9/FacialAge/BNav_EC2/DepthDuration/v2_depth_duration_MTurk/v2_DepthDuration_HTML.html#463,463,1366,768,1366,768,9-3-2022,6-8-55,143,depth_duration_stimuli/003228_2014-05-14_13-42-35_094959634447_rgbf000101-resize_1/003228_2014-05-14_13-42-35_094959634447_rgbf000101-resize_1-target.png,125,1.9680000000000002,6,3235,124,feet,jsons/VE125_randls_16.json,737226,877271,44,Woman
143,173362,DepthScenes,duration_manipulation_targetAtFixation,jsons/VE125_randls_16.json,http://54.235.29.9/FacialAge/BNav_EC2/DepthDuration/v2_depth_duration_MTurk/v2_DepthDuration_HTML.html#463,463,1366,768,1366,768,9-3-2022,6-8-55,144,depth_duration_stimuli/000788_2014-06-08_22-34-36_260595134347_rgbf000131-resize_1/000788_2014-06-08_22-34-36_260595134347_rgbf000131-resize_1-target.png,125,3.359,18,4453,124,feet,jsons/VE125_randls_16.json,737226,877271,44,Woman
144,173362,DepthScenes,duration_manipulation_targetAtFixation,jsons/VE125_randls_16.json,http://54.235.29.9/FacialAge/BNav_EC2/DepthDuration/v2_depth_duration_MTurk/v2_DepthDuration_HTML.html#463,463,1366,768,1366,768,9-3-2022,6-8-55,145,depth_duration_stimuli/001235_2014-06-17_16-37-36_260595134347_rgbf000084-resize_4/001235_2014-06-17_16-37-36_260595134347_rgbf000084-resize_4-target.png,125,3.6605,19,3438,138,feet,jsons/VE125_randls_16.json,737226,877271,44,Woman
145,173362,DepthScenes,duration_manipulation_targetAtFixation,jsons/VE125_randls_16.json,http://54.235.29.9/FacialAge/BNav_EC2/DepthDuration/v2_depth_duration_MTurk/v2_DepthDuration_HTML.html#463,463,1366,768,1366,768,9-3-2022,6-8-55,146,depth_duration_stimuli/001498_2014-06-19_17-45-14_260595134347_rgbf000129-resize_4/001498_2014-06-19_17-45-14_260595134347_rgbf000129-resize-original.jpg,125,1.4075,0,3328,123,feet,jsons/VE125_randls_16.json,737226,877271,44,Woman
146,173362,DepthScenes,duration_manipulation_targetAtFixation,jsons/VE125_randls_16.json,http://54.235.29.9/FacialAge/BNav_EC2/DepthDuration/v2_depth_duration_MTurk/v2_DepthDuration_HTML.html#463,463,1366,768,1366,768,9-3-2022,6-8-55,147,depth_duration_stimuli/001417_2014-06-19_16-25-36_260595134347_rgbf000115-resize_5/001417_2014-06-19_16-25-36_260595134347_rgbf000115-resize_5-target.png,125,4.6255,18,4171,114,feet,jsons/VE125_randls_16.json,737226,877271,44,Woman
147,173362,DepthScenes,duration_manipulation_targetAtFixation,jsons/VE125_randls_16.json,http://54.235.29.9/FacialAge/BNav_EC2/DepthDuration/v2_depth_duration_MTurk/v2_DepthDuration_HTML.html#463,463,1366,768,1366,768,9-3-2022,6-8-55,148,depth_duration_stimuli/003081_2014-06-15_15-19-16_094959634447_rgbf000150-resize_1/003081_2014-06-15_15-19-16_094959634447_rgbf000150-resize_1-target.png,125,3.9125,4,3326,122,feet,jsons/VE125_randls_16.json,737226,877271,44,Woman
148,173362,DepthScenes,duration_manipulation_targetAtFixation,jsons/VE125_randls_16.json,http://54.235.29.9/FacialAge/BNav_EC2/DepthDuration/v2_depth_duration_MTurk/v2_DepthDuration_HTML.html#463,463,1366,768,1366,768,9-3-2022,6-8-55,149,depth_duration_stimuli/002905_2014-06-03_18-04-43_094959634447_rgbf000151-resize_2/002905_2014-06-03_18-04-43_094959634447_rgbf000151-resize_2-target.png,125,2.0295,14,5507,102,feet,jsons/VE125_randls_16.json,737226,877271,44,Woman
149,173362,DepthScenes,duration_manipulation_targetAtFixation,jsons/VE125_randls_16.json,http://54.235.29.9/FacialAge/BNav_EC2/DepthDuration/v2_depth_duration_MTurk/v2_DepthDuration_HTML.html#463,463,1366,768,1366,768,9-3-2022,6-8-55,150,depth_duration_stimuli/003423_2014-05-21_10-23-26_094959634447_rgbf002665-resize_2/003423_2014-05-21_10-23-26_094959634447_rgbf002665-resize_2-target.png,125,3.2575,20,2993,124,feet,jsons/VE125_randls_16.json,737226,877271,44,Woman
150,173362,DepthScenes,duration_manipulation_targetAtFixation,jsons/VE125_randls_16.json,http://54.235.29.9/FacialAge/BNav_EC2/DepthDuration/v2_depth_duration_MTurk/v2_DepthDuration_HTML.html#463,463,1366,768,1366,768,9-3-2022,6-8-55,151,depth_duration_stimuli/000692_2014-06-08_13-09-42_260595134347_rgbf000199-resize_2/000692_2014-06-08_13-09-42_260595134347_rgbf000199-resize_2-target.png,125,3.661,26,3500,139,feet,jsons/VE125_randls_16.json,737226,877271,44,Woman
151,173362,DepthScenes,duration_manipulation_targetAtFixation,jsons/VE125_randls_16.json,http://54.235.29.9/FacialAge/BNav_EC2/DepthDuration/v2_depth_duration_MTurk/v2_DepthDuration_HTML.html#463,463,1366,768,1366,768,9-3-2022,6-8-55,152,depth_duration_stimuli/001094_2014-06-15_17-36-00_260595134347_rgbf000205-resize_0/001094_2014-06-15_17-36-00_260595134347_rgbf000205-resize_0-target.png,125,4.2175,32,3016,94,feet,jsons/VE125_randls_16.json,737226,877271,44,Woman
152,173362,DepthScenes,duration_manipulation_targetAtFixation,jsons/VE125_randls_16.json,http://54.235.29.9/FacialAge/BNav_EC2/DepthDuration/v2_depth_duration_MTurk/v2_DepthDuration_HTML.html#463,463,1366,768,1366,768,9-3-2022,6-8-55,153,depth_duration_stimuli/002445_2014-06-28_20-32-16_260595134347_rgbf000029-resize_4/002445_2014-06-28_20-32-16_260595134347_rgbf000029-resize_4-target.png,125,2.5315,12,3515,138,feet,jsons/VE125_randls_16.json,737226,877271,44,Woman
153,173362,DepthScenes,duration_manipulation_targetAtFixation,jsons/VE125_randls_16.json,http://54.235.29.9/FacialAge/BNav_EC2/DepthDuration/v2_depth_duration_MTurk/v2_DepthDuration_HTML.html#463,463,1366,768,1366,768,9-3-2022,6-8-55,154,depth_duration_stimuli/000780_2014-06-08_22-28-29_260595134347_rgbf000126-resize_1/000780_2014-06-08_22-28-29_260595134347_rgbf000126-resize_1-target.png,125,3.3825,36,2937,140,feet,jsons/VE125_randls_16.json,737226,877271,44,Woman
154,173362,DepthScenes,duration_manipulation_targetAtFixation,jsons/VE125_randls_16.json,http://54.235.29.9/FacialAge/BNav_EC2/DepthDuration/v2_depth_duration_MTurk/v2_DepthDuration_HTML.html#463,463,1366,768,1366,768,9-3-2022,6-8-55,155,depth_duration_stimuli/000773_2014-06-08_22-24-54_260595134347_rgbf000093-resize_1/000773_2014-06-08_22-24-54_260595134347_rgbf000093-resize_1-target.png,125,4.973,142,4031,124,feet,jsons/VE125_randls_16.json,737226,877271,44,Woman
155,173362,DepthScenes,duration_manipulation_targetAtFixation,jsons/VE125_randls_16.json,http://54.235.29.9/FacialAge/BNav_EC2/DepthDuration/v2_depth_duration_MTurk/v2_DepthDuration_HTML.html#463,463,1366,768,1366,768,9-3-2022,6-8-55,156,depth_duration_stimuli/002414_2014-06-28_20-24-58_260595134347_rgbf000067-resize_4/002414_2014-06-28_20-24-58_260595134347_rgbf000067-resize_4-target.png,125,4.363,36,3125,124,feet,jsons/VE125_randls_16.json,737226,877271,44,Woman
156,173362,DepthScenes,duration_manipulation_targetAtFixation,jsons/VE125_randls_16.json,http://54.235.29.9/FacialAge/BNav_EC2/DepthDuration/v2_depth_duration_MTurk/v2_DepthDuration_HTML.html#463,463,1366,768,1366,768,9-3-2022,6-8-55,157,depth_duration_stimuli/000486_2014-06-09_20-47-20_260595134347_rgbf000143-resize_2/000486_2014-06-09_20-47-20_260595134347_rgbf000143-resize_2-target.png,125,4.8325,16,4829,124,feet,jsons/VE125_randls_16.json,737226,877271,44,Woman
157,173362,DepthScenes,duration_manipulation_targetAtFixation,jsons/VE125_randls_16.json,http://54.235.29.9/FacialAge/BNav_EC2/DepthDuration/v2_depth_duration_MTurk/v2_DepthDuration_HTML.html#463,463,1366,768,1366,768,9-3-2022,6-8-55,158,depth_duration_stimuli/003083_2014-06-15_15-21-03_094959634447_rgbf000063-resize_1/003083_2014-06-15_15-21-03_094959634447_rgbf000063-resize_1-target.png,125,4.1405,46,11782,123,feet,jsons/VE125_randls_16.json,737226,877271,44,Woman
158,173362,DepthScenes,duration_manipulation_targetAtFixation,jsons/VE125_randls_16.json,http://54.235.29.9/FacialAge/BNav_EC2/DepthDuration/v2_depth_duration_MTurk/v2_DepthDuration_HTML.html#463,463,1366,768,1366,768,9-3-2022,6-8-55,159,depth_duration_stimuli/002549_2014-06-24_13-41-39_094959634447_rgbf000022-resize_3/002549_2014-06-24_13-41-39_094959634447_rgbf000022-resize_3-target.png,125,1.476,26,4281,124,feet,jsons/VE125_randls_16.json,737226,877271,44,Woman
159,173362,DepthScenes,duration_manipulation_targetAtFixation,jsons/VE125_randls_16.json,http://54.235.29.9/FacialAge/BNav_EC2/DepthDuration/v2_depth_duration_MTurk/v2_DepthDuration_HTML.html#463,463,1366,768,1366,768,9-3-2022,6-8-55,160,depth_duration_stimuli/002750_2014-06-22_19-08-03_094959634447_rgbf000094-resize_4/002750_2014-06-22_19-08-03_094959634447_rgbf000094-resize_4-target.png,125,2.354,23,3078,123,feet,jsons/VE125_randls_16.json,737226,877271,44,Woman
160,173362,DepthScenes,duration_manipulation_targetAtFixation,jsons/VE125_randls_16.json,http://54.235.29.9/FacialAge/BNav_EC2/DepthDuration/v2_depth_duration_MTurk/v2_DepthDuration_HTML.html#463,463,1366,768,1366,768,9-3-2022,6-8-55,161,depth_duration_stimuli/003621_2014-05-23_18-06-08_094959634447_rgbf000101-resize_1/003621_2014-05-23_18-06-08_094959634447_rgbf000101-resize_1-target.png,125,3.9835,26,3126,108,feet,jsons/VE125_randls_16.json,737226,877271,44,Woman
161,173362,DepthScenes,duration_manipulation_targetAtFixation,jsons/VE125_randls_16.json,http://54.235.29.9/FacialAge/BNav_EC2/DepthDuration/v2_depth_duration_MTurk/v2_DepthDuration_HTML.html#463,463,1366,768,1366,768,9-3-2022,6-8-55,162,depth_duration_stimuli/001584_2014-06-20_11-07-43_260595134347_rgbf000002-resize_1/001584_2014-06-20_11-07-43_260595134347_rgbf000002-resize_1-target.png,125,3.53,12,2828,123,feet,jsons/VE125_randls_16.json,737226,877271,44,Woman
162,173362,DepthScenes,duration_manipulation_targetAtFixation,jsons/VE125_randls_16.json,http://54.235.29.9/FacialAge/BNav_EC2/DepthDuration/v2_depth_duration_MTurk/v2_DepthDuration_HTML.html#463,463,1366,768,1366,768,9-3-2022,6-8-55,163,depth_duration_stimuli/002725_2014-06-22_11-47-51_094959634447_rgbf000070-resize_1/002725_2014-06-22_11-47-51_094959634447_rgbf000070-resize_1-target.png,125,2.195,14,2593,139,feet,jsons/VE125_randls_16.json,737226,877271,44,Woman
163,173362,DepthScenes,duration_manipulation_targetAtFixation,jsons/VE125_randls_16.json,http://54.235.29.9/FacialAge/BNav_EC2/DepthDuration/v2_depth_duration_MTurk/v2_DepthDuration_HTML.html#463,463,1366,768,1366,768,9-3-2022,6-8-55,164,depth_duration_stimuli/002344_2014-06-28_20-06-29_260595134347_rgbf000030-resize_1/002344_2014-06-28_20-06-29_260595134347_rgbf000030-resize_1-target.png,125,1.5795,8,4766,121,feet,jsons/VE125_randls_16.json,737226,877271,44,Woman
