,subjID,experimentName,versionName,sequenceName,url,selected_row,windowWidth,windowHeight,screenWidth,screenHeight,startDate,startTime,trial,stimulus,duration,actual_depth,depth_estimate,trial_RT,log_sceneDuration,unitSelection,seq_filepath,experimentTime,totalTime,age,gender
0,174966,DepthScenes,duration_manipulation_targetAtFixation,jsons/VE125_randls_26.json,http://54.235.29.9/FacialAge/BNav_EC2/DepthDuration/v2_depth_duration_MTurk/v2_DepthDuration_HTML.html#125,125,1366,625,1366,768,8-21-2022,10-48-36,1,depth_duration_stimuli/000810_2014-06-08_17-20-01_260595134347_rgbf000105-resize_0/000810_2014-06-08_17-20-01_260595134347_rgbf000105-resize_0-target.png,125,1.4865,1,3091,126,meters,jsons/VE125_randls_26.json,809618,908310,25,Man
1,174966,DepthScenes,duration_manipulation_targetAtFixation,jsons/VE125_randls_26.json,http://54.235.29.9/FacialAge/BNav_EC2/DepthDuration/v2_depth_duration_MTurk/v2_DepthDuration_HTML.html#125,125,1366,625,1366,768,8-21-2022,10-48-36,2,depth_duration_stimuli/001214_2014-06-17_16-13-55_260595134347_rgbf000111-resize_0/001214_2014-06-17_16-13-55_260595134347_rgbf000111-resize_0-target.png,125,2.6505,2,2819,126,meters,jsons/VE125_randls_26.json,809618,908310,25,Man
2,174966,DepthScenes,duration_manipulation_targetAtFixation,jsons/VE125_randls_26.json,http://54.235.29.9/FacialAge/BNav_EC2/DepthDuration/v2_depth_duration_MTurk/v2_DepthDuration_HTML.html#125,125,1366,625,1366,768,8-21-2022,10-48-36,3,depth_duration_stimuli/002213_2014-06-28_18-37-58_260595134347_rgbf000055-resize_1/002213_2014-06-28_18-37-58_260595134347_rgbf000055-resize_1-target.png,125,3.62,3,2978,126,meters,jsons/VE125_randls_26.json,809618,908310,25,Man
3,174966,DepthScenes,duration_manipulation_targetAtFixation,jsons/VE125_randls_26.json,http://54.235.29.9/FacialAge/BNav_EC2/DepthDuration/v2_depth_duration_MTurk/v2_DepthDuration_HTML.html#125,125,1366,625,1366,768,8-21-2022,10-48-36,4,depth_duration_stimuli/000691_2014-06-08_13-08-50_260595134347_rgbf000132-resize_3/000691_2014-06-08_13-08-50_260595134347_rgbf000132-resize_3-target.png,125,4.1530000000000005,2,2545,125,meters,jsons/VE125_randls_26.json,809618,908310,25,Man
4,174966,DepthScenes,duration_manipulation_targetAtFixation,jsons/VE125_randls_26.json,http://54.235.29.9/FacialAge/BNav_EC2/DepthDuration/v2_depth_duration_MTurk/v2_DepthDuration_HTML.html#125,125,1366,625,1366,768,8-21-2022,10-48-36,5,depth_duration_stimuli/002989_2014-06-15_12-25-03_094959634447_rgbf000150-resize_3/002989_2014-06-15_12-25-03_094959634447_rgbf000150-resize_3-target.png,125,4.1975,3,2700,126,meters,jsons/VE125_randls_26.json,809618,908310,25,Man
5,174966,DepthScenes,duration_manipulation_targetAtFixation,jsons/VE125_randls_26.json,http://54.235.29.9/FacialAge/BNav_EC2/DepthDuration/v2_depth_duration_MTurk/v2_DepthDuration_HTML.html#125,125,1366,625,1366,768,8-21-2022,10-48-36,6,depth_duration_stimuli/000866_2014-06-09_20-45-42_260595134347_rgbf000139-resize_1/000866_2014-06-09_20-45-42_260595134347_rgbf000139-resize_1-target.png,125,3.2155,1,2745,123,meters,jsons/VE125_randls_26.json,809618,908310,25,Man
6,174966,DepthScenes,duration_manipulation_targetAtFixation,jsons/VE125_randls_26.json,http://54.235.29.9/FacialAge/BNav_EC2/DepthDuration/v2_depth_duration_MTurk/v2_DepthDuration_HTML.html#125,125,1366,625,1366,768,8-21-2022,10-48-36,7,depth_duration_stimuli/002043_2014-06-24_20-29-38_260595134347_rgbf000039-resize_4/002043_2014-06-24_20-29-38_260595134347_rgbf000039-resize_4-target.png,125,2.8435,2,2574,125,meters,jsons/VE125_randls_26.json,809618,908310,25,Man
7,174966,DepthScenes,duration_manipulation_targetAtFixation,jsons/VE125_randls_26.json,http://54.235.29.9/FacialAge/BNav_EC2/DepthDuration/v2_depth_duration_MTurk/v2_DepthDuration_HTML.html#125,125,1366,625,1366,768,8-21-2022,10-48-36,8,depth_duration_stimuli/003048_2014-06-15_13-49-43_094959634447_rgbf000150-resize_1/003048_2014-06-15_13-49-43_094959634447_rgbf000150-resize_1-target.png,125,4.0035,3,2895,124,meters,jsons/VE125_randls_26.json,809618,908310,25,Man
8,174966,DepthScenes,duration_manipulation_targetAtFixation,jsons/VE125_randls_26.json,http://54.235.29.9/FacialAge/BNav_EC2/DepthDuration/v2_depth_duration_MTurk/v2_DepthDuration_HTML.html#125,125,1366,625,1366,768,8-21-2022,10-48-36,9,depth_duration_stimuli/001110_2014-06-15_17-25-28_260595134347_rgbf000150-resize_1/001110_2014-06-15_17-25-28_260595134347_rgbf000150-resize_1-target.png,125,1.7115,1,2699,125,meters,jsons/VE125_randls_26.json,809618,908310,25,Man
9,174966,DepthScenes,duration_manipulation_targetAtFixation,jsons/VE125_randls_26.json,http://54.235.29.9/FacialAge/BNav_EC2/DepthDuration/v2_depth_duration_MTurk/v2_DepthDuration_HTML.html#125,125,1366,625,1366,768,8-21-2022,10-48-36,10,depth_duration_stimuli/000927_2014-06-09_16-32-30_260595134347_rgbf000123-resize_3/000927_2014-06-09_16-32-30_260595134347_rgbf000123-resize_3-target.png,125,2.6785,2,2949,125,meters,jsons/VE125_randls_26.json,809618,908310,25,Man
10,174966,DepthScenes,duration_manipulation_targetAtFixation,jsons/VE125_randls_26.json,http://54.235.29.9/FacialAge/BNav_EC2/DepthDuration/v2_depth_duration_MTurk/v2_DepthDuration_HTML.html#125,125,1366,625,1366,768,8-21-2022,10-48-36,11,depth_duration_stimuli/000436_2014-06-09_22-25-11_260595134347_rgbf000137-resize_1/000436_2014-06-09_22-25-11_260595134347_rgbf000137-resize_1-target.png,125,4.0705,3,3043,126,meters,jsons/VE125_randls_26.json,809618,908310,25,Man
11,174966,DepthScenes,duration_manipulation_targetAtFixation,jsons/VE125_randls_26.json,http://54.235.29.9/FacialAge/BNav_EC2/DepthDuration/v2_depth_duration_MTurk/v2_DepthDuration_HTML.html#125,125,1366,625,1366,768,8-21-2022,10-48-36,12,depth_duration_stimuli/002444_2014-06-28_20-32-08_260595134347_rgbf000027-resize_0/002444_2014-06-28_20-32-08_260595134347_rgbf000027-resize_0-target.png,125,4.388999999999999,2,2826,125,meters,jsons/VE125_randls_26.json,809618,908310,25,Man
12,174966,DepthScenes,duration_manipulation_targetAtFixation,jsons/VE125_randls_26.json,http://54.235.29.9/FacialAge/BNav_EC2/DepthDuration/v2_depth_duration_MTurk/v2_DepthDuration_HTML.html#125,125,1366,625,1366,768,8-21-2022,10-48-36,13,depth_duration_stimuli/000569_2014-06-09_22-51-47_260595134347_rgbf000141-resize_3/000569_2014-06-09_22-51-47_260595134347_rgbf000141-resize-original.jpg,125,4.512,0,2690,125,meters,jsons/VE125_randls_26.json,809618,908310,25,Man
13,174966,DepthScenes,duration_manipulation_targetAtFixation,jsons/VE125_randls_26.json,http://54.235.29.9/FacialAge/BNav_EC2/DepthDuration/v2_depth_duration_MTurk/v2_DepthDuration_HTML.html#125,125,1366,625,1366,768,8-21-2022,10-48-36,14,depth_duration_stimuli/000493_2014-06-09_21-01-18_260595134347_rgbf000196-resize_3/000493_2014-06-09_21-01-18_260595134347_rgbf000196-resize_3-target.png,125,3.44,1,2731,126,meters,jsons/VE125_randls_26.json,809618,908310,25,Man
14,174966,DepthScenes,duration_manipulation_targetAtFixation,jsons/VE125_randls_26.json,http://54.235.29.9/FacialAge/BNav_EC2/DepthDuration/v2_depth_duration_MTurk/v2_DepthDuration_HTML.html#125,125,1366,625,1366,768,8-21-2022,10-48-36,15,depth_duration_stimuli/000191_2014-05-12_17-07-38_260595134347_rgbf000199-resize_0/000191_2014-05-12_17-07-38_260595134347_rgbf000199-resize_0-target.png,125,3.7995,2,2946,125,meters,jsons/VE125_randls_26.json,809618,908310,25,Man
15,174966,DepthScenes,duration_manipulation_targetAtFixation,jsons/VE125_randls_26.json,http://54.235.29.9/FacialAge/BNav_EC2/DepthDuration/v2_depth_duration_MTurk/v2_DepthDuration_HTML.html#125,125,1366,625,1366,768,8-21-2022,10-48-36,16,depth_duration_stimuli/000878_2014-06-08_22-52-45_260595134347_rgbf000045-resize_2/000878_2014-06-08_22-52-45_260595134347_rgbf000045-resize_2-target.png,125,2.092,3,3233,124,meters,jsons/VE125_randls_26.json,809618,908310,25,Man
16,174966,DepthScenes,duration_manipulation_targetAtFixation,jsons/VE125_randls_26.json,http://54.235.29.9/FacialAge/BNav_EC2/DepthDuration/v2_depth_duration_MTurk/v2_DepthDuration_HTML.html#125,125,1366,625,1366,768,8-21-2022,10-48-36,17,depth_duration_stimuli/002953_2014-06-08_17-32-18_094959634447_rgbf000059-resize_5/002953_2014-06-08_17-32-18_094959634447_rgbf000059-resize_5-target.png,125,1.551,2,26244,126,meters,jsons/VE125_randls_26.json,809618,908310,25,Man
17,174966,DepthScenes,duration_manipulation_targetAtFixation,jsons/VE125_randls_26.json,http://54.235.29.9/FacialAge/BNav_EC2/DepthDuration/v2_depth_duration_MTurk/v2_DepthDuration_HTML.html#125,125,1366,625,1366,768,8-21-2022,10-48-36,18,depth_duration_stimuli/000929_2014-06-09_16-33-19_260595134347_rgbf000139-resize_0/000929_2014-06-09_16-33-19_260595134347_rgbf000139-resize_0-target.png,125,2.8680000000000003,3,4372,126,meters,jsons/VE125_randls_26.json,809618,908310,25,Man
18,174966,DepthScenes,duration_manipulation_targetAtFixation,jsons/VE125_randls_26.json,http://54.235.29.9/FacialAge/BNav_EC2/DepthDuration/v2_depth_duration_MTurk/v2_DepthDuration_HTML.html#125,125,1366,625,1366,768,8-21-2022,10-48-36,19,depth_duration_stimuli/000457_2014-06-08_16-52-43_260595134347_rgbf000199-resize_1/000457_2014-06-08_16-52-43_260595134347_rgbf000199-resize_1-target.png,125,3.6489999999999996,4,3601,125,meters,jsons/VE125_randls_26.json,809618,908310,25,Man
19,174966,DepthScenes,duration_manipulation_targetAtFixation,jsons/VE125_randls_26.json,http://54.235.29.9/FacialAge/BNav_EC2/DepthDuration/v2_depth_duration_MTurk/v2_DepthDuration_HTML.html#125,125,1366,625,1366,768,8-21-2022,10-48-36,20,depth_duration_stimuli/002630_2014-06-24_14-47-50_094959634447_rgbf000055-resize_1/002630_2014-06-24_14-47-50_094959634447_rgbf000055-resize_1-target.png,125,3.0095,2,3204,124,meters,jsons/VE125_randls_26.json,809618,908310,25,Man
20,174966,DepthScenes,duration_manipulation_targetAtFixation,jsons/VE125_randls_26.json,http://54.235.29.9/FacialAge/BNav_EC2/DepthDuration/v2_depth_duration_MTurk/v2_DepthDuration_HTML.html#125,125,1366,625,1366,768,8-21-2022,10-48-36,21,depth_duration_stimuli/002758_2014-06-22_19-11-20_094959634447_rgbf000128-resize_1/002758_2014-06-22_19-11-20_094959634447_rgbf000128-resize_1-target.png,125,2.555,3,3107,125,meters,jsons/VE125_randls_26.json,809618,908310,25,Man
21,174966,DepthScenes,duration_manipulation_targetAtFixation,jsons/VE125_randls_26.json,http://54.235.29.9/FacialAge/BNav_EC2/DepthDuration/v2_depth_duration_MTurk/v2_DepthDuration_HTML.html#125,125,1366,625,1366,768,8-21-2022,10-48-36,22,depth_duration_stimuli/000368_2014-06-09_15-53-01_260595134347_rgbf000155-resize_2/000368_2014-06-09_15-53-01_260595134347_rgbf000155-resize_2-target.png,125,2.4859999999999998,2,3315,125,meters,jsons/VE125_randls_26.json,809618,908310,25,Man
22,174966,DepthScenes,duration_manipulation_targetAtFixation,jsons/VE125_randls_26.json,http://54.235.29.9/FacialAge/BNav_EC2/DepthDuration/v2_depth_duration_MTurk/v2_DepthDuration_HTML.html#125,125,1366,625,1366,768,8-21-2022,10-48-36,23,depth_duration_stimuli/002678_2014-06-13_16-15-32_094959634447_rgbf000151-resize_6/002678_2014-06-13_16-15-32_094959634447_rgbf000151-resize_6-target.png,125,2.1830000000000003,3,3025,125,meters,jsons/VE125_randls_26.json,809618,908310,25,Man
23,174966,DepthScenes,duration_manipulation_targetAtFixation,jsons/VE125_randls_26.json,http://54.235.29.9/FacialAge/BNav_EC2/DepthDuration/v2_depth_duration_MTurk/v2_DepthDuration_HTML.html#125,125,1366,625,1366,768,8-21-2022,10-48-36,24,depth_duration_stimuli/002784_2014-06-22_19-26-30_094959634447_rgbf000083-resize_3/002784_2014-06-22_19-26-30_094959634447_rgbf000083-resize_3-target.png,125,1.8046666666667,1,3330,123,meters,jsons/VE125_randls_26.json,809618,908310,25,Man
24,174966,DepthScenes,duration_manipulation_targetAtFixation,jsons/VE125_randls_26.json,http://54.235.29.9/FacialAge/BNav_EC2/DepthDuration/v2_depth_duration_MTurk/v2_DepthDuration_HTML.html#125,125,1366,625,1366,768,8-21-2022,10-48-36,25,depth_duration_stimuli/001100_2014-06-15_17-46-26_260595134347_rgbf000225-resize_2/001100_2014-06-15_17-46-26_260595134347_rgbf000225-resize_2-target.png,125,2.24,2,3364,125,meters,jsons/VE125_randls_26.json,809618,908310,25,Man
25,174966,DepthScenes,duration_manipulation_targetAtFixation,jsons/VE125_randls_26.json,http://54.235.29.9/FacialAge/BNav_EC2/DepthDuration/v2_depth_duration_MTurk/v2_DepthDuration_HTML.html#125,125,1366,625,1366,768,8-21-2022,10-48-36,26,depth_duration_stimuli/001150_2014-06-17_15-27-34_260595134347_rgbf000108-resize_2/001150_2014-06-17_15-27-34_260595134347_rgbf000108-resize_2-target.png,125,4.0325,3,3452,126,meters,jsons/VE125_randls_26.json,809618,908310,25,Man
26,174966,DepthScenes,duration_manipulation_targetAtFixation,jsons/VE125_randls_26.json,http://54.235.29.9/FacialAge/BNav_EC2/DepthDuration/v2_depth_duration_MTurk/v2_DepthDuration_HTML.html#125,125,1366,625,1366,768,8-21-2022,10-48-36,27,depth_duration_stimuli/000665_2014-06-09_20-42-35_260595134347_rgbf000110-resize_1/000665_2014-06-09_20-42-35_260595134347_rgbf000110-resize_1-target.png,125,3.057,4,2897,125,meters,jsons/VE125_randls_26.json,809618,908310,25,Man
27,174966,DepthScenes,duration_manipulation_targetAtFixation,jsons/VE125_randls_26.json,http://54.235.29.9/FacialAge/BNav_EC2/DepthDuration/v2_depth_duration_MTurk/v2_DepthDuration_HTML.html#125,125,1366,625,1366,768,8-21-2022,10-48-36,28,depth_duration_stimuli/001158_2014-06-17_15-32-16_260595134347_rgbf000138-resize_2/001158_2014-06-17_15-32-16_260595134347_rgbf000138-resize_2-target.png,125,4.5315,2,2723,125,meters,jsons/VE125_randls_26.json,809618,908310,25,Man
28,174966,DepthScenes,duration_manipulation_targetAtFixation,jsons/VE125_randls_26.json,http://54.235.29.9/FacialAge/BNav_EC2/DepthDuration/v2_depth_duration_MTurk/v2_DepthDuration_HTML.html#125,125,1366,625,1366,768,8-21-2022,10-48-36,29,depth_duration_stimuli/000556_2014-06-09_22-42-56_260595134347_rgbf000214-resize_1/000556_2014-06-09_22-42-56_260595134347_rgbf000214-resize_1-target.png,125,4.8415,3,2787,125,meters,jsons/VE125_randls_26.json,809618,908310,25,Man
29,174966,DepthScenes,duration_manipulation_targetAtFixation,jsons/VE125_randls_26.json,http://54.235.29.9/FacialAge/BNav_EC2/DepthDuration/v2_depth_duration_MTurk/v2_DepthDuration_HTML.html#125,125,1366,625,1366,768,8-21-2022,10-48-36,30,depth_duration_stimuli/000375_2014-06-08_11-17-29_260595134347_rgbf000133-resize_2/000375_2014-06-08_11-17-29_260595134347_rgbf000133-resize-original.jpg,125,4.718,0,2707,126,meters,jsons/VE125_randls_26.json,809618,908310,25,Man
30,174966,DepthScenes,duration_manipulation_targetAtFixation,jsons/VE125_randls_26.json,http://54.235.29.9/FacialAge/BNav_EC2/DepthDuration/v2_depth_duration_MTurk/v2_DepthDuration_HTML.html#125,125,1366,625,1366,768,8-21-2022,10-48-36,31,depth_duration_stimuli/002445_2014-06-28_20-32-16_260595134347_rgbf000029-resize_4/002445_2014-06-28_20-32-16_260595134347_rgbf000029-resize_4-target.png,125,2.5315,1,2843,126,meters,jsons/VE125_randls_26.json,809618,908310,25,Man
31,174966,DepthScenes,duration_manipulation_targetAtFixation,jsons/VE125_randls_26.json,http://54.235.29.9/FacialAge/BNav_EC2/DepthDuration/v2_depth_duration_MTurk/v2_DepthDuration_HTML.html#125,125,1366,625,1366,768,8-21-2022,10-48-36,32,depth_duration_stimuli/000780_2014-06-08_22-28-29_260595134347_rgbf000126-resize_1/000780_2014-06-08_22-28-29_260595134347_rgbf000126-resize_1-target.png,125,3.3825,2,2602,123,meters,jsons/VE125_randls_26.json,809618,908310,25,Man
32,174966,DepthScenes,duration_manipulation_targetAtFixation,jsons/VE125_randls_26.json,http://54.235.29.9/FacialAge/BNav_EC2/DepthDuration/v2_depth_duration_MTurk/v2_DepthDuration_HTML.html#125,125,1366,625,1366,768,8-21-2022,10-48-36,33,depth_duration_stimuli/002788_2014-06-22_19-36-03_094959634447_rgbf000088-resize_2/002788_2014-06-22_19-36-03_094959634447_rgbf000088-resize_2-target.png,125,1.6465,3,2780,125,meters,jsons/VE125_randls_26.json,809618,908310,25,Man
33,174966,DepthScenes,duration_manipulation_targetAtFixation,jsons/VE125_randls_26.json,http://54.235.29.9/FacialAge/BNav_EC2/DepthDuration/v2_depth_duration_MTurk/v2_DepthDuration_HTML.html#125,125,1366,625,1366,768,8-21-2022,10-48-36,34,depth_duration_stimuli/000749_2014-06-08_21-55-06_260595134347_rgbf000070-resize_2/000749_2014-06-08_21-55-06_260595134347_rgbf000070-resize_2-target.png,125,2.331,1,3067,125,meters,jsons/VE125_randls_26.json,809618,908310,25,Man
34,174966,DepthScenes,duration_manipulation_targetAtFixation,jsons/VE125_randls_26.json,http://54.235.29.9/FacialAge/BNav_EC2/DepthDuration/v2_depth_duration_MTurk/v2_DepthDuration_HTML.html#125,125,1366,625,1366,768,8-21-2022,10-48-36,35,depth_duration_stimuli/002057_2014-06-24_21-00-13_260595134347_rgbf000120-resize_1/002057_2014-06-24_21-00-13_260595134347_rgbf000120-resize_1-target.png,125,2.967,2,3083,125,meters,jsons/VE125_randls_26.json,809618,908310,25,Man
35,174966,DepthScenes,duration_manipulation_targetAtFixation,jsons/VE125_randls_26.json,http://54.235.29.9/FacialAge/BNav_EC2/DepthDuration/v2_depth_duration_MTurk/v2_DepthDuration_HTML.html#125,125,1366,625,1366,768,8-21-2022,10-48-36,36,depth_duration_stimuli/000709_2014-06-08_13-51-55_260595134347_rgbf000068-resize_3/000709_2014-06-08_13-51-55_260595134347_rgbf000068-resize_3-target.png,125,1.8030000000000002,3,2852,125,meters,jsons/VE125_randls_26.json,809618,908310,25,Man
36,174966,DepthScenes,duration_manipulation_targetAtFixation,jsons/VE125_randls_26.json,http://54.235.29.9/FacialAge/BNav_EC2/DepthDuration/v2_depth_duration_MTurk/v2_DepthDuration_HTML.html#125,125,1366,625,1366,768,8-21-2022,10-48-36,37,depth_duration_stimuli/000906_2014-06-08_13-35-43_260595134347_rgbf000155-resize_1/000906_2014-06-08_13-35-43_260595134347_rgbf000155-resize_1-target.png,125,2.8489999999999998,4,3027,125,meters,jsons/VE125_randls_26.json,809618,908310,25,Man
37,174966,DepthScenes,duration_manipulation_targetAtFixation,jsons/VE125_randls_26.json,http://54.235.29.9/FacialAge/BNav_EC2/DepthDuration/v2_depth_duration_MTurk/v2_DepthDuration_HTML.html#125,125,1366,625,1366,768,8-21-2022,10-48-36,38,depth_duration_stimuli/002805_2014-06-22_19-54-03_094959634447_rgbf000079-resize_1/002805_2014-06-22_19-54-03_094959634447_rgbf000079-resize_1-target.png,125,3.1439999999999997,2,3338,126,meters,jsons/VE125_randls_26.json,809618,908310,25,Man
38,174966,DepthScenes,duration_manipulation_targetAtFixation,jsons/VE125_randls_26.json,http://54.235.29.9/FacialAge/BNav_EC2/DepthDuration/v2_depth_duration_MTurk/v2_DepthDuration_HTML.html#125,125,1366,625,1366,768,8-21-2022,10-48-36,39,depth_duration_stimuli/002725_2014-06-22_11-47-51_094959634447_rgbf000070-resize_1/002725_2014-06-22_11-47-51_094959634447_rgbf000070-resize_1-target.png,125,2.195,1,3146,125,meters,jsons/VE125_randls_26.json,809618,908310,25,Man
39,174966,DepthScenes,duration_manipulation_targetAtFixation,jsons/VE125_randls_26.json,http://54.235.29.9/FacialAge/BNav_EC2/DepthDuration/v2_depth_duration_MTurk/v2_DepthDuration_HTML.html#125,125,1366,625,1366,768,8-21-2022,10-48-36,40,depth_duration_stimuli/002344_2014-06-28_20-06-29_260595134347_rgbf000030-resize_1/002344_2014-06-28_20-06-29_260595134347_rgbf000030-resize_1-target.png,125,1.5795,2,3122,124,meters,jsons/VE125_randls_26.json,809618,908310,25,Man
40,174966,DepthScenes,duration_manipulation_targetAtFixation,jsons/VE125_randls_26.json,http://54.235.29.9/FacialAge/BNav_EC2/DepthDuration/v2_depth_duration_MTurk/v2_DepthDuration_HTML.html#125,125,1366,625,1366,768,8-21-2022,10-48-36,41,depth_duration_stimuli/002549_2014-06-24_13-41-39_094959634447_rgbf000022-resize_3/002549_2014-06-24_13-41-39_094959634447_rgbf000022-resize_3-target.png,125,1.476,3,3172,124,meters,jsons/VE125_randls_26.json,809618,908310,25,Man
41,174966,DepthScenes,duration_manipulation_targetAtFixation,jsons/VE125_randls_26.json,http://54.235.29.9/FacialAge/BNav_EC2/DepthDuration/v2_depth_duration_MTurk/v2_DepthDuration_HTML.html#125,125,1366,625,1366,768,8-21-2022,10-48-36,42,depth_duration_stimuli/002750_2014-06-22_19-08-03_094959634447_rgbf000094-resize_4/002750_2014-06-22_19-08-03_094959634447_rgbf000094-resize_4-target.png,125,2.354,2,3244,125,meters,jsons/VE125_randls_26.json,809618,908310,25,Man
42,174966,DepthScenes,duration_manipulation_targetAtFixation,jsons/VE125_randls_26.json,http://54.235.29.9/FacialAge/BNav_EC2/DepthDuration/v2_depth_duration_MTurk/v2_DepthDuration_HTML.html#125,125,1366,625,1366,768,8-21-2022,10-48-36,43,depth_duration_stimuli/003070_2014-06-15_14-58-27_094959634447_rgbf000150-resize_3/003070_2014-06-15_14-58-27_094959634447_rgbf000150-resize_3-target.png,125,2.9415,4,2962,126,meters,jsons/VE125_randls_26.json,809618,908310,25,Man
43,174966,DepthScenes,duration_manipulation_targetAtFixation,jsons/VE125_randls_26.json,http://54.235.29.9/FacialAge/BNav_EC2/DepthDuration/v2_depth_duration_MTurk/v2_DepthDuration_HTML.html#125,125,1366,625,1366,768,8-21-2022,10-48-36,44,depth_duration_stimuli/000943_2014-06-09_19-31-07_260595134347_rgbf000128-resize_1/000943_2014-06-09_19-31-07_260595134347_rgbf000128-resize_1-target.png,125,1.9765,3,3027,126,meters,jsons/VE125_randls_26.json,809618,908310,25,Man
44,174966,DepthScenes,duration_manipulation_targetAtFixation,jsons/VE125_randls_26.json,http://54.235.29.9/FacialAge/BNav_EC2/DepthDuration/v2_depth_duration_MTurk/v2_DepthDuration_HTML.html#125,125,1366,625,1366,768,8-21-2022,10-48-36,45,depth_duration_stimuli/000787_2014-06-08_22-33-53_260595134347_rgbf000175-resize_1/000787_2014-06-08_22-33-53_260595134347_rgbf000175-resize-original.jpg,125,4.784,0,2650,125,meters,jsons/VE125_randls_26.json,809618,908310,25,Man
45,174966,DepthScenes,duration_manipulation_targetAtFixation,jsons/VE125_randls_26.json,http://54.235.29.9/FacialAge/BNav_EC2/DepthDuration/v2_depth_duration_MTurk/v2_DepthDuration_HTML.html#125,125,1366,625,1366,768,8-21-2022,10-48-36,46,depth_duration_stimuli/001555_2014-06-20_17-12-10_260595134347_rgbf000065-resize_4/001555_2014-06-20_17-12-10_260595134347_rgbf000065-resize_4-target.png,125,1.633,1,2787,124,meters,jsons/VE125_randls_26.json,809618,908310,25,Man
46,174966,DepthScenes,duration_manipulation_targetAtFixation,jsons/VE125_randls_26.json,http://54.235.29.9/FacialAge/BNav_EC2/DepthDuration/v2_depth_duration_MTurk/v2_DepthDuration_HTML.html#125,125,1366,625,1366,768,8-21-2022,10-48-36,47,depth_duration_stimuli/000103_2014-05-14_22-01-17_260595134347_rgbf000152-resize_5/000103_2014-05-14_22-01-17_260595134347_rgbf000152-resize_5-target.png,125,1.993,2,3290,126,meters,jsons/VE125_randls_26.json,809618,908310,25,Man
47,174966,DepthScenes,duration_manipulation_targetAtFixation,jsons/VE125_randls_26.json,http://54.235.29.9/FacialAge/BNav_EC2/DepthDuration/v2_depth_duration_MTurk/v2_DepthDuration_HTML.html#125,125,1366,625,1366,768,8-21-2022,10-48-36,48,depth_duration_stimuli/002600_2014-06-24_14-27-04_094959634447_rgbf000074-resize_2/002600_2014-06-24_14-27-04_094959634447_rgbf000074-resize_2-target.png,125,2.7575,3,3698,124,meters,jsons/VE125_randls_26.json,809618,908310,25,Man
48,174966,DepthScenes,duration_manipulation_targetAtFixation,jsons/VE125_randls_26.json,http://54.235.29.9/FacialAge/BNav_EC2/DepthDuration/v2_depth_duration_MTurk/v2_DepthDuration_HTML.html#125,125,1366,625,1366,768,8-21-2022,10-48-36,49,depth_duration_stimuli/003228_2014-05-14_13-42-35_094959634447_rgbf000101-resize_1/003228_2014-05-14_13-42-35_094959634447_rgbf000101-resize_1-target.png,125,1.9680000000000002,2,3171,124,meters,jsons/VE125_randls_26.json,809618,908310,25,Man
49,174966,DepthScenes,duration_manipulation_targetAtFixation,jsons/VE125_randls_26.json,http://54.235.29.9/FacialAge/BNav_EC2/DepthDuration/v2_depth_duration_MTurk/v2_DepthDuration_HTML.html#125,125,1366,625,1366,768,8-21-2022,10-48-36,50,depth_duration_stimuli/002663_2014-06-13_15-50-26_094959634447_rgbf000075-resize_1/002663_2014-06-13_15-50-26_094959634447_rgbf000075-resize_1-target.png,125,4.7495,4,3083,126,meters,jsons/VE125_randls_26.json,809618,908310,25,Man
50,174966,DepthScenes,duration_manipulation_targetAtFixation,jsons/VE125_randls_26.json,http://54.235.29.9/FacialAge/BNav_EC2/DepthDuration/v2_depth_duration_MTurk/v2_DepthDuration_HTML.html#125,125,1366,625,1366,768,8-21-2022,10-48-36,51,depth_duration_stimuli/000409_2014-06-04_19-23-33_260595134347_rgbf000067-resize_0/000409_2014-06-04_19-23-33_260595134347_rgbf000067-resize_0-target.png,125,3.7335,3,3243,126,meters,jsons/VE125_randls_26.json,809618,908310,25,Man
51,174966,DepthScenes,duration_manipulation_targetAtFixation,jsons/VE125_randls_26.json,http://54.235.29.9/FacialAge/BNav_EC2/DepthDuration/v2_depth_duration_MTurk/v2_DepthDuration_HTML.html#125,125,1366,625,1366,768,8-21-2022,10-48-36,52,depth_duration_stimuli/000788_2014-06-08_22-34-36_260595134347_rgbf000131-resize_1/000788_2014-06-08_22-34-36_260595134347_rgbf000131-resize_1-target.png,125,3.359,1,3304,126,meters,jsons/VE125_randls_26.json,809618,908310,25,Man
52,174966,DepthScenes,duration_manipulation_targetAtFixation,jsons/VE125_randls_26.json,http://54.235.29.9/FacialAge/BNav_EC2/DepthDuration/v2_depth_duration_MTurk/v2_DepthDuration_HTML.html#125,125,1366,625,1366,768,8-21-2022,10-48-36,53,depth_duration_stimuli/001235_2014-06-17_16-37-36_260595134347_rgbf000084-resize_4/001235_2014-06-17_16-37-36_260595134347_rgbf000084-resize_4-target.png,125,3.6605,2,3485,124,meters,jsons/VE125_randls_26.json,809618,908310,25,Man
53,174966,DepthScenes,duration_manipulation_targetAtFixation,jsons/VE125_randls_26.json,http://54.235.29.9/FacialAge/BNav_EC2/DepthDuration/v2_depth_duration_MTurk/v2_DepthDuration_HTML.html#125,125,1366,625,1366,768,8-21-2022,10-48-36,54,depth_duration_stimuli/001810_2014-06-26_20-51-35_260595134347_rgbf000040-resize_3/001810_2014-06-26_20-51-35_260595134347_rgbf000040-resize_3-target.png,125,2.2525,3,2909,128,meters,jsons/VE125_randls_26.json,809618,908310,25,Man
54,174966,DepthScenes,duration_manipulation_targetAtFixation,jsons/VE125_randls_26.json,http://54.235.29.9/FacialAge/BNav_EC2/DepthDuration/v2_depth_duration_MTurk/v2_DepthDuration_HTML.html#125,125,1366,625,1366,768,8-21-2022,10-48-36,55,depth_duration_stimuli/003010_2014-06-15_12-54-35_094959634447_rgbf000112-resize_0/003010_2014-06-15_12-54-35_094959634447_rgbf000112-resize_0-target.png,125,3.1185,2,3138,126,meters,jsons/VE125_randls_26.json,809618,908310,25,Man
55,174966,DepthScenes,duration_manipulation_targetAtFixation,jsons/VE125_randls_26.json,http://54.235.29.9/FacialAge/BNav_EC2/DepthDuration/v2_depth_duration_MTurk/v2_DepthDuration_HTML.html#125,125,1366,625,1366,768,8-21-2022,10-48-36,56,depth_duration_stimuli/001570_2014-06-20_17-21-09_260595134347_rgbf000135-resize_4/001570_2014-06-20_17-21-09_260595134347_rgbf000135-resize_4-target.png,125,4.467,3,2787,125,meters,jsons/VE125_randls_26.json,809618,908310,25,Man
56,174966,DepthScenes,duration_manipulation_targetAtFixation,jsons/VE125_randls_26.json,http://54.235.29.9/FacialAge/BNav_EC2/DepthDuration/v2_depth_duration_MTurk/v2_DepthDuration_HTML.html#125,125,1366,625,1366,768,8-21-2022,10-48-36,57,depth_duration_stimuli/001392_2014-06-19_16-07-59_260595134347_rgbf000046-resize_1/001392_2014-06-19_16-07-59_260595134347_rgbf000046-resize_1-target.png,125,4.135,1,2819,125,meters,jsons/VE125_randls_26.json,809618,908310,25,Man
57,174966,DepthScenes,duration_manipulation_targetAtFixation,jsons/VE125_randls_26.json,http://54.235.29.9/FacialAge/BNav_EC2/DepthDuration/v2_depth_duration_MTurk/v2_DepthDuration_HTML.html#125,125,1366,625,1366,768,8-21-2022,10-48-36,58,depth_duration_stimuli/001133_2014-06-17_14-49-16_260595134347_rgbf000100-resize_0/001133_2014-06-17_14-49-16_260595134347_rgbf000100-resize_0-target.png,125,4.2115,2,2699,125,meters,jsons/VE125_randls_26.json,809618,908310,25,Man
58,174966,DepthScenes,duration_manipulation_targetAtFixation,jsons/VE125_randls_26.json,http://54.235.29.9/FacialAge/BNav_EC2/DepthDuration/v2_depth_duration_MTurk/v2_DepthDuration_HTML.html#125,125,1366,625,1366,768,8-21-2022,10-48-36,59,depth_duration_stimuli/001132_2014-06-17_14-48-54_260595134347_rgbf000100-resize_2/001132_2014-06-17_14-48-54_260595134347_rgbf000100-resize_2-target.png,125,3.753,3,3012,125,meters,jsons/VE125_randls_26.json,809618,908310,25,Man
59,174966,DepthScenes,duration_manipulation_targetAtFixation,jsons/VE125_randls_26.json,http://54.235.29.9/FacialAge/BNav_EC2/DepthDuration/v2_depth_duration_MTurk/v2_DepthDuration_HTML.html#125,125,1366,625,1366,768,8-21-2022,10-48-36,60,depth_duration_stimuli/002118_2014-06-25_20-32-08_260595134347_rgbf000078-resize_1/002118_2014-06-25_20-32-08_260595134347_rgbf000078-resize_1-target.png,125,2.6460000000000004,1,2842,124,meters,jsons/VE125_randls_26.json,809618,908310,25,Man
60,174966,DepthScenes,duration_manipulation_targetAtFixation,jsons/VE125_randls_26.json,http://54.235.29.9/FacialAge/BNav_EC2/DepthDuration/v2_depth_duration_MTurk/v2_DepthDuration_HTML.html#125,125,1366,625,1366,768,8-21-2022,10-48-36,61,depth_duration_stimuli/001516_2014-06-20_16-25-09_260595134347_rgbf000076-resize_2/001516_2014-06-20_16-25-09_260595134347_rgbf000076-resize_2-target.png,125,1.7445,2,2739,124,meters,jsons/VE125_randls_26.json,809618,908310,25,Man
61,174966,DepthScenes,duration_manipulation_targetAtFixation,jsons/VE125_randls_26.json,http://54.235.29.9/FacialAge/BNav_EC2/DepthDuration/v2_depth_duration_MTurk/v2_DepthDuration_HTML.html#125,125,1366,625,1366,768,8-21-2022,10-48-36,62,depth_duration_stimuli/001806_2014-06-26_20-50-20_260595134347_rgbf000091-resize_1/001806_2014-06-26_20-50-20_260595134347_rgbf000091-resize_1-target.png,125,2.7305,4,3163,126,meters,jsons/VE125_randls_26.json,809618,908310,25,Man
62,174966,DepthScenes,duration_manipulation_targetAtFixation,jsons/VE125_randls_26.json,http://54.235.29.9/FacialAge/BNav_EC2/DepthDuration/v2_depth_duration_MTurk/v2_DepthDuration_HTML.html#125,125,1366,625,1366,768,8-21-2022,10-48-36,63,depth_duration_stimuli/001617_2014-06-20_11-35-32_260595134347_rgbf000066-resize_1/001617_2014-06-20_11-35-32_260595134347_rgbf000066-resize_1-target.png,125,3.7910000000000004,3,2916,126,meters,jsons/VE125_randls_26.json,809618,908310,25,Man
63,174966,DepthScenes,duration_manipulation_targetAtFixation,jsons/VE125_randls_26.json,http://54.235.29.9/FacialAge/BNav_EC2/DepthDuration/v2_depth_duration_MTurk/v2_DepthDuration_HTML.html#125,125,1366,625,1366,768,8-21-2022,10-48-36,64,depth_duration_stimuli/001066_2014-06-08_22-03-20_260595134347_rgbf000066-resize_4/001066_2014-06-08_22-03-20_260595134347_rgbf000066-resize_4-target.png,125,4.2330000000000005,3,2850,125,meters,jsons/VE125_randls_26.json,809618,908310,25,Man
64,174966,DepthScenes,duration_manipulation_targetAtFixation,jsons/VE125_randls_26.json,http://54.235.29.9/FacialAge/BNav_EC2/DepthDuration/v2_depth_duration_MTurk/v2_DepthDuration_HTML.html#125,125,1366,625,1366,768,8-21-2022,10-48-36,65,depth_duration_stimuli/000742_2014-06-08_18-48-09_260595134347_rgbf000164-resize_4/000742_2014-06-08_18-48-09_260595134347_rgbf000164-resize_4-target.png,125,4.632,3,2387,125,meters,jsons/VE125_randls_26.json,809618,908310,25,Man
65,174966,DepthScenes,duration_manipulation_targetAtFixation,jsons/VE125_randls_26.json,http://54.235.29.9/FacialAge/BNav_EC2/DepthDuration/v2_depth_duration_MTurk/v2_DepthDuration_HTML.html#125,125,1366,625,1366,768,8-21-2022,10-48-36,66,depth_duration_stimuli/001222_2014-06-17_16-24-06_260595134347_rgbf000073-resize_0/001222_2014-06-17_16-24-06_260595134347_rgbf000073-resize-original.jpg,125,1.4385,2,2499,125,meters,jsons/VE125_randls_26.json,809618,908310,25,Man
66,174966,DepthScenes,duration_manipulation_targetAtFixation,jsons/VE125_randls_26.json,http://54.235.29.9/FacialAge/BNav_EC2/DepthDuration/v2_depth_duration_MTurk/v2_DepthDuration_HTML.html#125,125,1366,625,1366,768,8-21-2022,10-48-36,67,depth_duration_stimuli/001244_2014-06-17_16-47-45_260595134347_rgbf000030-resize_4/001244_2014-06-17_16-47-45_260595134347_rgbf000030-resize_4-target.png,125,2.0425,1,4611,125,meters,jsons/VE125_randls_26.json,809618,908310,25,Man
67,174966,DepthScenes,duration_manipulation_targetAtFixation,jsons/VE125_randls_26.json,http://54.235.29.9/FacialAge/BNav_EC2/DepthDuration/v2_depth_duration_MTurk/v2_DepthDuration_HTML.html#125,125,1366,625,1366,768,8-21-2022,10-48-36,68,depth_duration_stimuli/003495_2014-05-21_16-01-51_094959634447_rgbf000100-resize_3/003495_2014-05-21_16-01-51_094959634447_rgbf000100-resize_3-target.png,125,1.6255,2,3595,126,meters,jsons/VE125_randls_26.json,809618,908310,25,Man
68,174966,DepthScenes,duration_manipulation_targetAtFixation,jsons/VE125_randls_26.json,http://54.235.29.9/FacialAge/BNav_EC2/DepthDuration/v2_depth_duration_MTurk/v2_DepthDuration_HTML.html#125,125,1366,625,1366,768,8-21-2022,10-48-36,69,depth_duration_stimuli/000522_2014-06-08_13-35-06_260595134347_rgbf000244-resize_1/000522_2014-06-08_13-35-06_260595134347_rgbf000244-resize_1-target.png,125,2.3715,3,3044,126,meters,jsons/VE125_randls_26.json,809618,908310,25,Man
69,174966,DepthScenes,duration_manipulation_targetAtFixation,jsons/VE125_randls_26.json,http://54.235.29.9/FacialAge/BNav_EC2/DepthDuration/v2_depth_duration_MTurk/v2_DepthDuration_HTML.html#125,125,1366,625,1366,768,8-21-2022,10-48-36,70,depth_duration_stimuli/002949_2014-06-26_15-57-42_094959634447_rgbf000079-resize_1/002949_2014-06-26_15-57-42_094959634447_rgbf000079-resize_1-target.png,125,1.8915,3,2370,126,meters,jsons/VE125_randls_26.json,809618,908310,25,Man
70,174966,DepthScenes,duration_manipulation_targetAtFixation,jsons/VE125_randls_26.json,http://54.235.29.9/FacialAge/BNav_EC2/DepthDuration/v2_depth_duration_MTurk/v2_DepthDuration_HTML.html#125,125,1366,625,1366,768,8-21-2022,10-48-36,71,depth_duration_stimuli/001167_2014-06-17_15-38-07_260595134347_rgbf000108-resize_0/001167_2014-06-17_15-38-07_260595134347_rgbf000108-resize_0-target.png,125,1.8505,22,2828,125,meters,jsons/VE125_randls_26.json,809618,908310,25,Man
71,174966,DepthScenes,duration_manipulation_targetAtFixation,jsons/VE125_randls_26.json,http://54.235.29.9/FacialAge/BNav_EC2/DepthDuration/v2_depth_duration_MTurk/v2_DepthDuration_HTML.html#125,125,1366,625,1366,768,8-21-2022,10-48-36,72,depth_duration_stimuli/003587_2014-05-23_16-48-02_094959634447_rgbf002384-resize_2/003587_2014-05-23_16-48-02_094959634447_rgbf002384-resize_2-target.png,125,1.357,1,2539,126,meters,jsons/VE125_randls_26.json,809618,908310,25,Man
72,174966,DepthScenes,duration_manipulation_targetAtFixation,jsons/VE125_randls_26.json,http://54.235.29.9/FacialAge/BNav_EC2/DepthDuration/v2_depth_duration_MTurk/v2_DepthDuration_HTML.html#125,125,1366,625,1366,768,8-21-2022,10-48-36,73,depth_duration_stimuli/000773_2014-06-08_22-24-54_260595134347_rgbf000093-resize_1/000773_2014-06-08_22-24-54_260595134347_rgbf000093-resize_1-target.png,125,4.973,2,2778,125,meters,jsons/VE125_randls_26.json,809618,908310,25,Man
73,174966,DepthScenes,duration_manipulation_targetAtFixation,jsons/VE125_randls_26.json,http://54.235.29.9/FacialAge/BNav_EC2/DepthDuration/v2_depth_duration_MTurk/v2_DepthDuration_HTML.html#125,125,1366,625,1366,768,8-21-2022,10-48-36,74,depth_duration_stimuli/002414_2014-06-28_20-24-58_260595134347_rgbf000067-resize_4/002414_2014-06-28_20-24-58_260595134347_rgbf000067-resize_4-target.png,125,4.363,3,2306,125,meters,jsons/VE125_randls_26.json,809618,908310,25,Man
74,174966,DepthScenes,duration_manipulation_targetAtFixation,jsons/VE125_randls_26.json,http://54.235.29.9/FacialAge/BNav_EC2/DepthDuration/v2_depth_duration_MTurk/v2_DepthDuration_HTML.html#125,125,1366,625,1366,768,8-21-2022,10-48-36,75,depth_duration_stimuli/000414_2014-06-04_19-49-13_260595134347_rgbf000044-resize_0/000414_2014-06-04_19-49-13_260595134347_rgbf000044-resize_0-target.png,125,4.329,2,2691,126,meters,jsons/VE125_randls_26.json,809618,908310,25,Man
75,174966,DepthScenes,duration_manipulation_targetAtFixation,jsons/VE125_randls_26.json,http://54.235.29.9/FacialAge/BNav_EC2/DepthDuration/v2_depth_duration_MTurk/v2_DepthDuration_HTML.html#125,125,1366,625,1366,768,8-21-2022,10-48-36,76,depth_duration_stimuli/003129_2014-05-12_10-48-10_094959634447_rgbf000100-resize_0/003129_2014-05-12_10-48-10_094959634447_rgbf000100-resize_0-target.png,125,4.9305,1,2252,126,meters,jsons/VE125_randls_26.json,809618,908310,25,Man
76,174966,DepthScenes,duration_manipulation_targetAtFixation,jsons/VE125_randls_26.json,http://54.235.29.9/FacialAge/BNav_EC2/DepthDuration/v2_depth_duration_MTurk/v2_DepthDuration_HTML.html#125,125,1366,625,1366,768,8-21-2022,10-48-36,77,depth_duration_stimuli/000739_2014-06-08_18-45-58_260595134347_rgbf000068-resize_1/000739_2014-06-08_18-45-58_260595134347_rgbf000068-resize_1-target.png,125,3.534,2,2322,125,meters,jsons/VE125_randls_26.json,809618,908310,25,Man
77,174966,DepthScenes,duration_manipulation_targetAtFixation,jsons/VE125_randls_26.json,http://54.235.29.9/FacialAge/BNav_EC2/DepthDuration/v2_depth_duration_MTurk/v2_DepthDuration_HTML.html#125,125,1366,625,1366,768,8-21-2022,10-48-36,78,depth_duration_stimuli/000734_2014-06-08_17-39-11_260595134347_rgbf000128-resize_2/000734_2014-06-08_17-39-11_260595134347_rgbf000128-resize_2-target.png,125,4.098,4,2327,125,meters,jsons/VE125_randls_26.json,809618,908310,25,Man
78,174966,DepthScenes,duration_manipulation_targetAtFixation,jsons/VE125_randls_26.json,http://54.235.29.9/FacialAge/BNav_EC2/DepthDuration/v2_depth_duration_MTurk/v2_DepthDuration_HTML.html#125,125,1366,625,1366,768,8-21-2022,10-48-36,79,depth_duration_stimuli/000469_2014-06-09_19-42-10_260595134347_rgbf000081-resize_1/000469_2014-06-09_19-42-10_260595134347_rgbf000081-resize_1-target.png,125,1.652,3,1960,125,meters,jsons/VE125_randls_26.json,809618,908310,25,Man
79,174966,DepthScenes,duration_manipulation_targetAtFixation,jsons/VE125_randls_26.json,http://54.235.29.9/FacialAge/BNav_EC2/DepthDuration/v2_depth_duration_MTurk/v2_DepthDuration_HTML.html#125,125,1366,625,1366,768,8-21-2022,10-48-36,80,depth_duration_stimuli/000483_2014-06-09_20-41-45_260595134347_rgbf000116-resize_4/000483_2014-06-09_20-41-45_260595134347_rgbf000116-resize_4-target.png,125,1.337,2,2498,124,meters,jsons/VE125_randls_26.json,809618,908310,25,Man
80,174966,DepthScenes,duration_manipulation_targetAtFixation,jsons/VE125_randls_26.json,http://54.235.29.9/FacialAge/BNav_EC2/DepthDuration/v2_depth_duration_MTurk/v2_DepthDuration_HTML.html#125,125,1366,625,1366,768,8-21-2022,10-48-36,81,depth_duration_stimuli/003534_2014-05-22_15-06-10_094959634447_rgbf000102-resize_4/003534_2014-05-22_15-06-10_094959634447_rgbf000102-resize_4-target.png,125,1.426,1,2249,125,meters,jsons/VE125_randls_26.json,809618,908310,25,Man
81,174966,DepthScenes,duration_manipulation_targetAtFixation,jsons/VE125_randls_26.json,http://54.235.29.9/FacialAge/BNav_EC2/DepthDuration/v2_depth_duration_MTurk/v2_DepthDuration_HTML.html#125,125,1366,625,1366,768,8-21-2022,10-48-36,82,depth_duration_stimuli/002637_2014-06-24_14-51-13_094959634447_rgbf000066-resize_4/002637_2014-06-24_14-51-13_094959634447_rgbf000066-resize_4-target.png,125,1.9955,2,2161,125,meters,jsons/VE125_randls_26.json,809618,908310,25,Man
82,174966,DepthScenes,duration_manipulation_targetAtFixation,jsons/VE125_randls_26.json,http://54.235.29.9/FacialAge/BNav_EC2/DepthDuration/v2_depth_duration_MTurk/v2_DepthDuration_HTML.html#125,125,1366,625,1366,768,8-21-2022,10-48-36,83,depth_duration_stimuli/000642_2014-06-08_16-59-25_260595134347_rgbf000098-resize_2/000642_2014-06-08_16-59-25_260595134347_rgbf000098-resize_2-target.png,125,2.8815,2,3011,126,meters,jsons/VE125_randls_26.json,809618,908310,25,Man
83,174966,DepthScenes,duration_manipulation_targetAtFixation,jsons/VE125_randls_26.json,http://54.235.29.9/FacialAge/BNav_EC2/DepthDuration/v2_depth_duration_MTurk/v2_DepthDuration_HTML.html#125,125,1366,625,1366,768,8-21-2022,10-48-36,84,depth_duration_stimuli/002425_2014-06-28_20-27-29_260595134347_rgbf000031-resize_8/002425_2014-06-28_20-27-29_260595134347_rgbf000031-resize_8-target.png,125,3.8960000000000004,3,2699,125,meters,jsons/VE125_randls_26.json,809618,908310,25,Man
84,174966,DepthScenes,duration_manipulation_targetAtFixation,jsons/VE125_randls_26.json,http://54.235.29.9/FacialAge/BNav_EC2/DepthDuration/v2_depth_duration_MTurk/v2_DepthDuration_HTML.html#125,125,1366,625,1366,768,8-21-2022,10-48-36,85,depth_duration_stimuli/001011_2014-06-08_23-18-54_260595134347_rgbf000044-resize_4/001011_2014-06-08_23-18-54_260595134347_rgbf000044-resize_4-target.png,125,2.4730000000000003,2,2698,125,meters,jsons/VE125_randls_26.json,809618,908310,25,Man
85,174966,DepthScenes,duration_manipulation_targetAtFixation,jsons/VE125_randls_26.json,http://54.235.29.9/FacialAge/BNav_EC2/DepthDuration/v2_depth_duration_MTurk/v2_DepthDuration_HTML.html#125,125,1366,625,1366,768,8-21-2022,10-48-36,86,depth_duration_stimuli/002875_2014-06-01_15-19-00_094959634447_rgbf000151-resize_1/002875_2014-06-01_15-19-00_094959634447_rgbf000151-resize_1-target.png,125,1.9675,1,2195,125,meters,jsons/VE125_randls_26.json,809618,908310,25,Man
86,174966,DepthScenes,duration_manipulation_targetAtFixation,jsons/VE125_randls_26.json,http://54.235.29.9/FacialAge/BNav_EC2/DepthDuration/v2_depth_duration_MTurk/v2_DepthDuration_HTML.html#125,125,1366,625,1366,768,8-21-2022,10-48-36,87,depth_duration_stimuli/001092_2014-06-15_17-34-58_260595134347_rgbf000171-resize_3/001092_2014-06-15_17-34-58_260595134347_rgbf000171-resize_3-target.png,125,2.6935,3,2140,125,meters,jsons/VE125_randls_26.json,809618,908310,25,Man
87,174966,DepthScenes,duration_manipulation_targetAtFixation,jsons/VE125_randls_26.json,http://54.235.29.9/FacialAge/BNav_EC2/DepthDuration/v2_depth_duration_MTurk/v2_DepthDuration_HTML.html#125,125,1366,625,1366,768,8-21-2022,10-48-36,88,depth_duration_stimuli/002545_2014-06-24_13-38-53_094959634447_rgbf000080-resize_4/002545_2014-06-24_13-38-53_094959634447_rgbf000080-resize_4-target.png,125,1.9205,2,2153,124,meters,jsons/VE125_randls_26.json,809618,908310,25,Man
88,174966,DepthScenes,duration_manipulation_targetAtFixation,jsons/VE125_randls_26.json,http://54.235.29.9/FacialAge/BNav_EC2/DepthDuration/v2_depth_duration_MTurk/v2_DepthDuration_HTML.html#125,125,1366,625,1366,768,8-21-2022,10-48-36,89,depth_duration_stimuli/002375_2014-06-28_20-13-44_260595134347_rgbf000032-resize_1/002375_2014-06-28_20-13-44_260595134347_rgbf000032-resize_1-target.png,125,4.0175,1,2379,126,meters,jsons/VE125_randls_26.json,809618,908310,25,Man
89,174966,DepthScenes,duration_manipulation_targetAtFixation,jsons/VE125_randls_26.json,http://54.235.29.9/FacialAge/BNav_EC2/DepthDuration/v2_depth_duration_MTurk/v2_DepthDuration_HTML.html#125,125,1366,625,1366,768,8-21-2022,10-48-36,90,depth_duration_stimuli/002657_2014-06-13_15-29-54_094959634447_rgbf000150-resize_1/002657_2014-06-13_15-29-54_094959634447_rgbf000150-resize_1-target.png,125,4.919,3,2371,126,meters,jsons/VE125_randls_26.json,809618,908310,25,Man
90,174966,DepthScenes,duration_manipulation_targetAtFixation,jsons/VE125_randls_26.json,http://54.235.29.9/FacialAge/BNav_EC2/DepthDuration/v2_depth_duration_MTurk/v2_DepthDuration_HTML.html#125,125,1366,625,1366,768,8-21-2022,10-48-36,91,depth_duration_stimuli/000682_2014-06-08_23-14-58_260595134347_rgbf000041-resize_5/000682_2014-06-08_23-14-58_260595134347_rgbf000041-resize_5-target.png,125,2.7239999999999998,5,3320,125,meters,jsons/VE125_randls_26.json,809618,908310,25,Man
91,174966,DepthScenes,duration_manipulation_targetAtFixation,jsons/VE125_randls_26.json,http://54.235.29.9/FacialAge/BNav_EC2/DepthDuration/v2_depth_duration_MTurk/v2_DepthDuration_HTML.html#125,125,1366,625,1366,768,8-21-2022,10-48-36,92,depth_duration_stimuli/001650_2014-06-20_12-09-00_260595134347_rgbf000087-resize_3/001650_2014-06-20_12-09-00_260595134347_rgbf000087-resize_3-target.png,125,1.9505,4,2583,123,meters,jsons/VE125_randls_26.json,809618,908310,25,Man
92,174966,DepthScenes,duration_manipulation_targetAtFixation,jsons/VE125_randls_26.json,http://54.235.29.9/FacialAge/BNav_EC2/DepthDuration/v2_depth_duration_MTurk/v2_DepthDuration_HTML.html#125,125,1366,625,1366,768,8-21-2022,10-48-36,93,depth_duration_stimuli/003292_2014-05-14_21-53-49_094959634447_rgbf000100-resize_2/003292_2014-05-14_21-53-49_094959634447_rgbf000100-resize_2-target.png,125,3.4815,2,2852,125,meters,jsons/VE125_randls_26.json,809618,908310,25,Man
93,174966,DepthScenes,duration_manipulation_targetAtFixation,jsons/VE125_randls_26.json,http://54.235.29.9/FacialAge/BNav_EC2/DepthDuration/v2_depth_duration_MTurk/v2_DepthDuration_HTML.html#125,125,1366,625,1366,768,8-21-2022,10-48-36,94,depth_duration_stimuli/002639_2014-06-24_14-51-37_094959634447_rgbf000074-resize_4/002639_2014-06-24_14-51-37_094959634447_rgbf000074-resize_4-target.png,125,4.0375,1,2403,125,meters,jsons/VE125_randls_26.json,809618,908310,25,Man
94,174966,DepthScenes,duration_manipulation_targetAtFixation,jsons/VE125_randls_26.json,http://54.235.29.9/FacialAge/BNav_EC2/DepthDuration/v2_depth_duration_MTurk/v2_DepthDuration_HTML.html#125,125,1366,625,1366,768,8-21-2022,10-48-36,95,depth_duration_stimuli/000486_2014-06-09_20-47-20_260595134347_rgbf000143-resize_2/000486_2014-06-09_20-47-20_260595134347_rgbf000143-resize_2-target.png,125,4.8325,2,2475,125,meters,jsons/VE125_randls_26.json,809618,908310,25,Man
95,174966,DepthScenes,duration_manipulation_targetAtFixation,jsons/VE125_randls_26.json,http://54.235.29.9/FacialAge/BNav_EC2/DepthDuration/v2_depth_duration_MTurk/v2_DepthDuration_HTML.html#125,125,1366,625,1366,768,8-21-2022,10-48-36,96,depth_duration_stimuli/003083_2014-06-15_15-21-03_094959634447_rgbf000063-resize_1/003083_2014-06-15_15-21-03_094959634447_rgbf000063-resize_1-target.png,125,4.1405,4,2587,125,meters,jsons/VE125_randls_26.json,809618,908310,25,Man
96,174966,DepthScenes,duration_manipulation_targetAtFixation,jsons/VE125_randls_26.json,http://54.235.29.9/FacialAge/BNav_EC2/DepthDuration/v2_depth_duration_MTurk/v2_DepthDuration_HTML.html#125,125,1366,625,1366,768,8-21-2022,10-48-36,97,depth_duration_stimuli/001175_2014-06-17_15-45-55_260595134347_rgbf000129-resize_4/001175_2014-06-17_15-45-55_260595134347_rgbf000129-resize_4-target.png,125,4.255,2,2643,125,meters,jsons/VE125_randls_26.json,809618,908310,25,Man
97,174966,DepthScenes,duration_manipulation_targetAtFixation,jsons/VE125_randls_26.json,http://54.235.29.9/FacialAge/BNav_EC2/DepthDuration/v2_depth_duration_MTurk/v2_DepthDuration_HTML.html#125,125,1366,625,1366,768,8-21-2022,10-48-36,98,depth_duration_stimuli/003490_2014-05-21_15-50-11_094959634447_rgbf000101-resize_3/003490_2014-05-21_15-50-11_094959634447_rgbf000101-resize_3-target.png,125,3.6445,1,2410,124,meters,jsons/VE125_randls_26.json,809618,908310,25,Man
98,174966,DepthScenes,duration_manipulation_targetAtFixation,jsons/VE125_randls_26.json,http://54.235.29.9/FacialAge/BNav_EC2/DepthDuration/v2_depth_duration_MTurk/v2_DepthDuration_HTML.html#125,125,1366,625,1366,768,8-21-2022,10-48-36,99,depth_duration_stimuli/001540_2014-06-20_17-01-05_260595134347_rgbf000086-resize_2/001540_2014-06-20_17-01-05_260595134347_rgbf000086-resize-original.jpg,125,1.459,0,5836,125,meters,jsons/VE125_randls_26.json,809618,908310,25,Man
99,174966,DepthScenes,duration_manipulation_targetAtFixation,jsons/VE125_randls_26.json,http://54.235.29.9/FacialAge/BNav_EC2/DepthDuration/v2_depth_duration_MTurk/v2_DepthDuration_HTML.html#125,125,1366,625,1366,768,8-21-2022,10-48-36,100,depth_duration_stimuli/001808_2014-06-26_20-50-58_260595134347_rgbf000029-resize_1/001808_2014-06-26_20-50-58_260595134347_rgbf000029-resize_1-target.png,125,4.249,3,2483,125,meters,jsons/VE125_randls_26.json,809618,908310,25,Man
100,174966,DepthScenes,duration_manipulation_targetAtFixation,jsons/VE125_randls_26.json,http://54.235.29.9/FacialAge/BNav_EC2/DepthDuration/v2_depth_duration_MTurk/v2_DepthDuration_HTML.html#125,125,1366,625,1366,768,8-21-2022,10-48-36,101,depth_duration_stimuli/001815_2014-06-26_20-52-55_260595134347_rgbf000020-resize_0/001815_2014-06-26_20-52-55_260595134347_rgbf000020-resize_0-target.png,125,3.3865,4,2404,125,meters,jsons/VE125_randls_26.json,809618,908310,25,Man
101,174966,DepthScenes,duration_manipulation_targetAtFixation,jsons/VE125_randls_26.json,http://54.235.29.9/FacialAge/BNav_EC2/DepthDuration/v2_depth_duration_MTurk/v2_DepthDuration_HTML.html#125,125,1366,625,1366,768,8-21-2022,10-48-36,102,depth_duration_stimuli/003492_2014-05-21_15-50-55_094959634447_rgbf000828-resize_1/003492_2014-05-21_15-50-55_094959634447_rgbf000828-resize_1-target.png,125,4.06875,3,2700,125,meters,jsons/VE125_randls_26.json,809618,908310,25,Man
102,174966,DepthScenes,duration_manipulation_targetAtFixation,jsons/VE125_randls_26.json,http://54.235.29.9/FacialAge/BNav_EC2/DepthDuration/v2_depth_duration_MTurk/v2_DepthDuration_HTML.html#125,125,1366,625,1366,768,8-21-2022,10-48-36,103,depth_duration_stimuli/002568_2014-06-24_13-59-21_094959634447_rgbf000062-resize_4/002568_2014-06-24_13-59-21_094959634447_rgbf000062-resize_4-target.png,125,3.015,2,2595,124,meters,jsons/VE125_randls_26.json,809618,908310,25,Man
103,174966,DepthScenes,duration_manipulation_targetAtFixation,jsons/VE125_randls_26.json,http://54.235.29.9/FacialAge/BNav_EC2/DepthDuration/v2_depth_duration_MTurk/v2_DepthDuration_HTML.html#125,125,1366,625,1366,768,8-21-2022,10-48-36,104,depth_duration_stimuli/003621_2014-05-23_18-06-08_094959634447_rgbf000101-resize_1/003621_2014-05-23_18-06-08_094959634447_rgbf000101-resize_1-target.png,125,3.9835,3,2427,125,meters,jsons/VE125_randls_26.json,809618,908310,25,Man
104,174966,DepthScenes,duration_manipulation_targetAtFixation,jsons/VE125_randls_26.json,http://54.235.29.9/FacialAge/BNav_EC2/DepthDuration/v2_depth_duration_MTurk/v2_DepthDuration_HTML.html#125,125,1366,625,1366,768,8-21-2022,10-48-36,105,depth_duration_stimuli/001584_2014-06-20_11-07-43_260595134347_rgbf000002-resize_1/001584_2014-06-20_11-07-43_260595134347_rgbf000002-resize_1-target.png,125,3.53,2,239333,124,meters,jsons/VE125_randls_26.json,809618,908310,25,Man
105,174966,DepthScenes,duration_manipulation_targetAtFixation,jsons/VE125_randls_26.json,http://54.235.29.9/FacialAge/BNav_EC2/DepthDuration/v2_depth_duration_MTurk/v2_DepthDuration_HTML.html#125,125,1366,625,1366,768,8-21-2022,10-48-36,106,depth_duration_stimuli/001059_2014-06-08_21-53-27_260595134347_rgbf000061-resize_4/001059_2014-06-08_21-53-27_260595134347_rgbf000061-resize_4-target.png,125,2.4185,1,2651,125,meters,jsons/VE125_randls_26.json,809618,908310,25,Man
106,174966,DepthScenes,duration_manipulation_targetAtFixation,jsons/VE125_randls_26.json,http://54.235.29.9/FacialAge/BNav_EC2/DepthDuration/v2_depth_duration_MTurk/v2_DepthDuration_HTML.html#125,125,1366,625,1366,768,8-21-2022,10-48-36,107,depth_duration_stimuli/001032_2014-06-08_13-23-17_260595134347_rgbf000021-resize_3/001032_2014-06-08_13-23-17_260595134347_rgbf000021-resize_3-target.png,125,3.2725,3,3076,125,meters,jsons/VE125_randls_26.json,809618,908310,25,Man
107,174966,DepthScenes,duration_manipulation_targetAtFixation,jsons/VE125_randls_26.json,http://54.235.29.9/FacialAge/BNav_EC2/DepthDuration/v2_depth_duration_MTurk/v2_DepthDuration_HTML.html#125,125,1366,625,1366,768,8-21-2022,10-48-36,108,depth_duration_stimuli/002748_2014-06-22_19-07-22_094959634447_rgbf000078-resize_1/002748_2014-06-22_19-07-22_094959634447_rgbf000078-resize_1-target.png,125,4.6705,2,2147,124,meters,jsons/VE125_randls_26.json,809618,908310,25,Man
108,174966,DepthScenes,duration_manipulation_targetAtFixation,jsons/VE125_randls_26.json,http://54.235.29.9/FacialAge/BNav_EC2/DepthDuration/v2_depth_duration_MTurk/v2_DepthDuration_HTML.html#125,125,1366,625,1366,768,8-21-2022,10-48-36,109,depth_duration_stimuli/002995_2014-06-15_12-31-26_094959634447_rgbf000150-resize_1/002995_2014-06-15_12-31-26_094959634447_rgbf000150-resize_1-target.png,125,3.8360000000000003,0,3347,125,meters,jsons/VE125_randls_26.json,809618,908310,25,Man
109,174966,DepthScenes,duration_manipulation_targetAtFixation,jsons/VE125_randls_26.json,http://54.235.29.9/FacialAge/BNav_EC2/DepthDuration/v2_depth_duration_MTurk/v2_DepthDuration_HTML.html#125,125,1366,625,1366,768,8-21-2022,10-48-36,110,depth_duration_stimuli/002763_2014-06-22_19-13-10_094959634447_rgbf000075-resize_4/002763_2014-06-22_19-13-10_094959634447_rgbf000075-resize_4-target.png,125,1.68375,2,2171,125,meters,jsons/VE125_randls_26.json,809618,908310,25,Man
110,174966,DepthScenes,duration_manipulation_targetAtFixation,jsons/VE125_randls_26.json,http://54.235.29.9/FacialAge/BNav_EC2/DepthDuration/v2_depth_duration_MTurk/v2_DepthDuration_HTML.html#125,125,1366,625,1366,768,8-21-2022,10-48-36,111,depth_duration_stimuli/002209_2014-06-28_18-36-10_260595134347_rgbf000051-resize_1/002209_2014-06-28_18-36-10_260595134347_rgbf000051-resize_1-target.png,125,2.057,1,1884,125,meters,jsons/VE125_randls_26.json,809618,908310,25,Man
111,174966,DepthScenes,duration_manipulation_targetAtFixation,jsons/VE125_randls_26.json,http://54.235.29.9/FacialAge/BNav_EC2/DepthDuration/v2_depth_duration_MTurk/v2_DepthDuration_HTML.html#125,125,1366,625,1366,768,8-21-2022,10-48-36,112,depth_duration_stimuli/001417_2014-06-19_16-25-36_260595134347_rgbf000115-resize_5/001417_2014-06-19_16-25-36_260595134347_rgbf000115-resize_5-target.png,125,4.6255,2,2186,124,meters,jsons/VE125_randls_26.json,809618,908310,25,Man
112,174966,DepthScenes,duration_manipulation_targetAtFixation,jsons/VE125_randls_26.json,http://54.235.29.9/FacialAge/BNav_EC2/DepthDuration/v2_depth_duration_MTurk/v2_DepthDuration_HTML.html#125,125,1366,625,1366,768,8-21-2022,10-48-36,113,depth_duration_stimuli/003081_2014-06-15_15-19-16_094959634447_rgbf000150-resize_1/003081_2014-06-15_15-19-16_094959634447_rgbf000150-resize_1-target.png,125,3.9125,3,2187,125,meters,jsons/VE125_randls_26.json,809618,908310,25,Man
113,174966,DepthScenes,duration_manipulation_targetAtFixation,jsons/VE125_randls_26.json,http://54.235.29.9/FacialAge/BNav_EC2/DepthDuration/v2_depth_duration_MTurk/v2_DepthDuration_HTML.html#125,125,1366,625,1366,768,8-21-2022,10-48-36,114,depth_duration_stimuli/001056_2014-06-08_18-46-44_260595134347_rgbf000068-resize_0/001056_2014-06-08_18-46-44_260595134347_rgbf000068-resize_0-target.png,125,2.6625,3,3514,124,meters,jsons/VE125_randls_26.json,809618,908310,25,Man
114,174966,DepthScenes,duration_manipulation_targetAtFixation,jsons/VE125_randls_26.json,http://54.235.29.9/FacialAge/BNav_EC2/DepthDuration/v2_depth_duration_MTurk/v2_DepthDuration_HTML.html#125,125,1366,625,1366,768,8-21-2022,10-48-36,115,depth_duration_stimuli/002199_2014-06-28_18-33-56_260595134347_rgbf000074-resize_0/002199_2014-06-28_18-33-56_260595134347_rgbf000074-resize_0-target.png,125,1.996,2,2835,125,meters,jsons/VE125_randls_26.json,809618,908310,25,Man
115,174966,DepthScenes,duration_manipulation_targetAtFixation,jsons/VE125_randls_26.json,http://54.235.29.9/FacialAge/BNav_EC2/DepthDuration/v2_depth_duration_MTurk/v2_DepthDuration_HTML.html#125,125,1366,625,1366,768,8-21-2022,10-48-36,116,depth_duration_stimuli/001170_2014-06-17_15-43-44_260595134347_rgbf000096-resize_6/001170_2014-06-17_15-43-44_260595134347_rgbf000096-resize-original.jpg,125,1.1909999999999998,0,2932,126,meters,jsons/VE125_randls_26.json,809618,908310,25,Man
116,174966,DepthScenes,duration_manipulation_targetAtFixation,jsons/VE125_randls_26.json,http://54.235.29.9/FacialAge/BNav_EC2/DepthDuration/v2_depth_duration_MTurk/v2_DepthDuration_HTML.html#125,125,1366,625,1366,768,8-21-2022,10-48-36,117,depth_duration_stimuli/001199_2014-06-17_16-03-48_260595134347_rgbf000077-resize_0/001199_2014-06-17_16-03-48_260595134347_rgbf000077-resize_0-target.png,125,3.4375,1,2201,125,meters,jsons/VE125_randls_26.json,809618,908310,25,Man
117,174966,DepthScenes,duration_manipulation_targetAtFixation,jsons/VE125_randls_26.json,http://54.235.29.9/FacialAge/BNav_EC2/DepthDuration/v2_depth_duration_MTurk/v2_DepthDuration_HTML.html#125,125,1366,625,1366,768,8-21-2022,10-48-36,118,depth_duration_stimuli/000502_2014-06-08_23-02-32_260595134347_rgbf000063-resize_4/000502_2014-06-08_23-02-32_260595134347_rgbf000063-resize_4-target.png,125,2.431,3,2138,125,meters,jsons/VE125_randls_26.json,809618,908310,25,Man
118,174966,DepthScenes,duration_manipulation_targetAtFixation,jsons/VE125_randls_26.json,http://54.235.29.9/FacialAge/BNav_EC2/DepthDuration/v2_depth_duration_MTurk/v2_DepthDuration_HTML.html#125,125,1366,625,1366,768,8-21-2022,10-48-36,119,depth_duration_stimuli/000506_2014-06-08_23-21-00_260595134347_rgbf000070-resize_7/000506_2014-06-08_23-21-00_260595134347_rgbf000070-resize_7-target.png,125,4.0585,2,2570,124,meters,jsons/VE125_randls_26.json,809618,908310,25,Man
119,174966,DepthScenes,duration_manipulation_targetAtFixation,jsons/VE125_randls_26.json,http://54.235.29.9/FacialAge/BNav_EC2/DepthDuration/v2_depth_duration_MTurk/v2_DepthDuration_HTML.html#125,125,1366,625,1366,768,8-21-2022,10-48-36,120,depth_duration_stimuli/003079_2014-06-15_15-18-20_094959634447_rgbf000152-resize_8/003079_2014-06-15_15-18-20_094959634447_rgbf000152-resize_8-target.png,125,2.8775,1,2299,125,meters,jsons/VE125_randls_26.json,809618,908310,25,Man
120,174966,DepthScenes,duration_manipulation_targetAtFixation,jsons/VE125_randls_26.json,http://54.235.29.9/FacialAge/BNav_EC2/DepthDuration/v2_depth_duration_MTurk/v2_DepthDuration_HTML.html#125,125,1366,625,1366,768,8-21-2022,10-48-36,121,depth_duration_stimuli/002964_2014-06-08_17-46-11_094959634447_rgbf000091-resize_4/002964_2014-06-08_17-46-11_094959634447_rgbf000091-resize_4-target.png,125,1.6909999999999998,3,2900,125,meters,jsons/VE125_randls_26.json,809618,908310,25,Man
121,174966,DepthScenes,duration_manipulation_targetAtFixation,jsons/VE125_randls_26.json,http://54.235.29.9/FacialAge/BNav_EC2/DepthDuration/v2_depth_duration_MTurk/v2_DepthDuration_HTML.html#125,125,1366,625,1366,768,8-21-2022,10-48-36,122,depth_duration_stimuli/002136_2014-06-25_21-18-03_260595134347_rgbf000109-resize_3/002136_2014-06-25_21-18-03_260595134347_rgbf000109-resize_3-target.png,125,1.9569999999999999,2,2482,125,meters,jsons/VE125_randls_26.json,809618,908310,25,Man
122,174966,DepthScenes,duration_manipulation_targetAtFixation,jsons/VE125_randls_26.json,http://54.235.29.9/FacialAge/BNav_EC2/DepthDuration/v2_depth_duration_MTurk/v2_DepthDuration_HTML.html#125,125,1366,625,1366,768,8-21-2022,10-48-36,123,depth_duration_stimuli/000736_2014-06-08_18-24-15_260595134347_rgbf000206-resize_3/000736_2014-06-08_18-24-15_260595134347_rgbf000206-resize_3-target.png,125,3.515,1,2210,124,meters,jsons/VE125_randls_26.json,809618,908310,25,Man
123,174966,DepthScenes,duration_manipulation_targetAtFixation,jsons/VE125_randls_26.json,http://54.235.29.9/FacialAge/BNav_EC2/DepthDuration/v2_depth_duration_MTurk/v2_DepthDuration_HTML.html#125,125,1366,625,1366,768,8-21-2022,10-48-36,124,depth_duration_stimuli/000137_2014-05-20_17-04-49_260595134347_rgbf000120-resize_1/000137_2014-05-20_17-04-49_260595134347_rgbf000120-resize_1-target.png,125,3.786,2,2733,125,meters,jsons/VE125_randls_26.json,809618,908310,25,Man
124,174966,DepthScenes,duration_manipulation_targetAtFixation,jsons/VE125_randls_26.json,http://54.235.29.9/FacialAge/BNav_EC2/DepthDuration/v2_depth_duration_MTurk/v2_DepthDuration_HTML.html#125,125,1366,625,1366,768,8-21-2022,10-48-36,125,depth_duration_stimuli/002570_2014-06-24_13-59-54_094959634447_rgbf000059-resize_0/002570_2014-06-24_13-59-54_094959634447_rgbf000059-resize_0-target.png,125,4.037,4,3116,126,meters,jsons/VE125_randls_26.json,809618,908310,25,Man
125,174966,DepthScenes,duration_manipulation_targetAtFixation,jsons/VE125_randls_26.json,http://54.235.29.9/FacialAge/BNav_EC2/DepthDuration/v2_depth_duration_MTurk/v2_DepthDuration_HTML.html#125,125,1366,625,1366,768,8-21-2022,10-48-36,126,depth_duration_stimuli/002467_2014-06-28_20-38-07_260595134347_rgbf000026-resize_2/002467_2014-06-28_20-38-07_260595134347_rgbf000026-resize_2-target.png,125,4.742,3,2491,125,meters,jsons/VE125_randls_26.json,809618,908310,25,Man
126,174966,DepthScenes,duration_manipulation_targetAtFixation,jsons/VE125_randls_26.json,http://54.235.29.9/FacialAge/BNav_EC2/DepthDuration/v2_depth_duration_MTurk/v2_DepthDuration_HTML.html#125,125,1366,625,1366,768,8-21-2022,10-48-36,127,depth_duration_stimuli/001449_2014-06-19_17-01-27_260595134347_rgbf000116-resize_2/001449_2014-06-19_17-01-27_260595134347_rgbf000116-resize_2-target.png,125,3.452,4,3099,124,meters,jsons/VE125_randls_26.json,809618,908310,25,Man
127,174966,DepthScenes,duration_manipulation_targetAtFixation,jsons/VE125_randls_26.json,http://54.235.29.9/FacialAge/BNav_EC2/DepthDuration/v2_depth_duration_MTurk/v2_DepthDuration_HTML.html#125,125,1366,625,1366,768,8-21-2022,10-48-36,128,depth_duration_stimuli/001450_2014-06-19_17-02-03_260595134347_rgbf000203-resize_4/001450_2014-06-19_17-02-03_260595134347_rgbf000203-resize_4-target.png,125,4.0106666666667,4,2946,126,meters,jsons/VE125_randls_26.json,809618,908310,25,Man
128,174966,DepthScenes,duration_manipulation_targetAtFixation,jsons/VE125_randls_26.json,http://54.235.29.9/FacialAge/BNav_EC2/DepthDuration/v2_depth_duration_MTurk/v2_DepthDuration_HTML.html#125,125,1366,625,1366,768,8-21-2022,10-48-36,129,depth_duration_stimuli/001055_2014-06-08_18-45-35_260595134347_rgbf000111-resize_4/001055_2014-06-08_18-45-35_260595134347_rgbf000111-resize_4-target.png,125,2.4290000000000003,3,3115,125,meters,jsons/VE125_randls_26.json,809618,908310,25,Man
129,174966,DepthScenes,duration_manipulation_targetAtFixation,jsons/VE125_randls_26.json,http://54.235.29.9/FacialAge/BNav_EC2/DepthDuration/v2_depth_duration_MTurk/v2_DepthDuration_HTML.html#125,125,1366,625,1366,768,8-21-2022,10-48-36,130,depth_duration_stimuli/000549_2014-06-08_22-10-24_260595134347_rgbf000247-resize_3/000549_2014-06-08_22-10-24_260595134347_rgbf000247-resize_3-target.png,125,1.841,2,3116,125,meters,jsons/VE125_randls_26.json,809618,908310,25,Man
130,174966,DepthScenes,duration_manipulation_targetAtFixation,jsons/VE125_randls_26.json,http://54.235.29.9/FacialAge/BNav_EC2/DepthDuration/v2_depth_duration_MTurk/v2_DepthDuration_HTML.html#125,125,1366,625,1366,768,8-21-2022,10-48-36,131,depth_duration_stimuli/001029_2014-06-08_13-17-57_260595134347_rgbf000065-resize_1/001029_2014-06-08_13-17-57_260595134347_rgbf000065-resize_1-target.png,125,3.0835,2,3108,126,meters,jsons/VE125_randls_26.json,809618,908310,25,Man
131,174966,DepthScenes,duration_manipulation_targetAtFixation,jsons/VE125_randls_26.json,http://54.235.29.9/FacialAge/BNav_EC2/DepthDuration/v2_depth_duration_MTurk/v2_DepthDuration_HTML.html#125,125,1366,625,1366,768,8-21-2022,10-48-36,132,depth_duration_stimuli/000677_2014-06-08_23-10-32_260595134347_rgbf000158-resize_6/000677_2014-06-08_23-10-32_260595134347_rgbf000158-resize_6-target.png,125,3.556,4,3858,124,meters,jsons/VE125_randls_26.json,809618,908310,25,Man
132,174966,DepthScenes,duration_manipulation_targetAtFixation,jsons/VE125_randls_26.json,http://54.235.29.9/FacialAge/BNav_EC2/DepthDuration/v2_depth_duration_MTurk/v2_DepthDuration_HTML.html#125,125,1366,625,1366,768,8-21-2022,10-48-36,133,depth_duration_stimuli/002153_2014-06-25_21-27-18_260595134347_rgbf000038-resize_5/002153_2014-06-25_21-27-18_260595134347_rgbf000038-resize_5-target.png,125,2.505,2,2523,126,meters,jsons/VE125_randls_26.json,809618,908310,25,Man
133,174966,DepthScenes,duration_manipulation_targetAtFixation,jsons/VE125_randls_26.json,http://54.235.29.9/FacialAge/BNav_EC2/DepthDuration/v2_depth_duration_MTurk/v2_DepthDuration_HTML.html#125,125,1366,625,1366,768,8-21-2022,10-48-36,134,depth_duration_stimuli/002660_2014-06-13_15-44-18_094959634447_rgbf001878-resize_2/002660_2014-06-13_15-44-18_094959634447_rgbf001878-resize_2-target.png,125,3.576,0,3010,126,meters,jsons/VE125_randls_26.json,809618,908310,25,Man
134,174966,DepthScenes,duration_manipulation_targetAtFixation,jsons/VE125_randls_26.json,http://54.235.29.9/FacialAge/BNav_EC2/DepthDuration/v2_depth_duration_MTurk/v2_DepthDuration_HTML.html#125,125,1366,625,1366,768,8-21-2022,10-48-36,135,depth_duration_stimuli/002072_2014-06-24_21-48-06_260595134347_rgbf000115-resize_0/002072_2014-06-24_21-48-06_260595134347_rgbf000115-resize-original.jpg,125,4.702,0,2834,126,meters,jsons/VE125_randls_26.json,809618,908310,25,Man
135,174966,DepthScenes,duration_manipulation_targetAtFixation,jsons/VE125_randls_26.json,http://54.235.29.9/FacialAge/BNav_EC2/DepthDuration/v2_depth_duration_MTurk/v2_DepthDuration_HTML.html#125,125,1366,625,1366,768,8-21-2022,10-48-36,136,depth_duration_stimuli/000470_2014-06-09_19-42-40_260595134347_rgbf000094-resize_1/000470_2014-06-09_19-42-40_260595134347_rgbf000094-resize_1-target.png,125,1.831,1,2338,126,meters,jsons/VE125_randls_26.json,809618,908310,25,Man
136,174966,DepthScenes,duration_manipulation_targetAtFixation,jsons/VE125_randls_26.json,http://54.235.29.9/FacialAge/BNav_EC2/DepthDuration/v2_depth_duration_MTurk/v2_DepthDuration_HTML.html#125,125,1366,625,1366,768,8-21-2022,10-48-36,137,depth_duration_stimuli/000109_2014-05-14_23-41-52_260595134347_rgbf000035-resize_9/000109_2014-05-14_23-41-52_260595134347_rgbf000035-resize_9-target.png,125,1.3545,2,2754,126,meters,jsons/VE125_randls_26.json,809618,908310,25,Man
137,174966,DepthScenes,duration_manipulation_targetAtFixation,jsons/VE125_randls_26.json,http://54.235.29.9/FacialAge/BNav_EC2/DepthDuration/v2_depth_duration_MTurk/v2_DepthDuration_HTML.html#125,125,1366,625,1366,768,8-21-2022,10-48-36,138,depth_duration_stimuli/000692_2014-06-08_13-09-42_260595134347_rgbf000199-resize_2/000692_2014-06-08_13-09-42_260595134347_rgbf000199-resize_2-target.png,125,3.661,3,2522,125,meters,jsons/VE125_randls_26.json,809618,908310,25,Man
138,174966,DepthScenes,duration_manipulation_targetAtFixation,jsons/VE125_randls_26.json,http://54.235.29.9/FacialAge/BNav_EC2/DepthDuration/v2_depth_duration_MTurk/v2_DepthDuration_HTML.html#125,125,1366,625,1366,768,8-21-2022,10-48-36,139,depth_duration_stimuli/001094_2014-06-15_17-36-00_260595134347_rgbf000205-resize_0/001094_2014-06-15_17-36-00_260595134347_rgbf000205-resize_0-target.png,125,4.2175,2,2419,127,meters,jsons/VE125_randls_26.json,809618,908310,25,Man
139,174966,DepthScenes,duration_manipulation_targetAtFixation,jsons/VE125_randls_26.json,http://54.235.29.9/FacialAge/BNav_EC2/DepthDuration/v2_depth_duration_MTurk/v2_DepthDuration_HTML.html#125,125,1366,625,1366,768,8-21-2022,10-48-36,140,depth_duration_stimuli/002905_2014-06-03_18-04-43_094959634447_rgbf000151-resize_2/002905_2014-06-03_18-04-43_094959634447_rgbf000151-resize_2-target.png,125,2.0295,1,2428,126,meters,jsons/VE125_randls_26.json,809618,908310,25,Man
140,174966,DepthScenes,duration_manipulation_targetAtFixation,jsons/VE125_randls_26.json,http://54.235.29.9/FacialAge/BNav_EC2/DepthDuration/v2_depth_duration_MTurk/v2_DepthDuration_HTML.html#125,125,1366,625,1366,768,8-21-2022,10-48-36,141,depth_duration_stimuli/003423_2014-05-21_10-23-26_094959634447_rgbf002665-resize_2/003423_2014-05-21_10-23-26_094959634447_rgbf002665-resize_2-target.png,125,3.2575,2,2290,125,meters,jsons/VE125_randls_26.json,809618,908310,25,Man
141,174966,DepthScenes,duration_manipulation_targetAtFixation,jsons/VE125_randls_26.json,http://54.235.29.9/FacialAge/BNav_EC2/DepthDuration/v2_depth_duration_MTurk/v2_DepthDuration_HTML.html#125,125,1366,625,1366,768,8-21-2022,10-48-36,142,depth_duration_stimuli/002988_2014-06-15_12-24-20_094959634447_rgbf000150-resize_1/002988_2014-06-15_12-24-20_094959634447_rgbf000150-resize_1-target.png,125,4.7669999999999995,3,2531,125,meters,jsons/VE125_randls_26.json,809618,908310,25,Man
142,174966,DepthScenes,duration_manipulation_targetAtFixation,jsons/VE125_randls_26.json,http://54.235.29.9/FacialAge/BNav_EC2/DepthDuration/v2_depth_duration_MTurk/v2_DepthDuration_HTML.html#125,125,1366,625,1366,768,8-21-2022,10-48-36,143,depth_duration_stimuli/001052_2014-06-08_18-24-54_260595134347_rgbf000130-resize_1/001052_2014-06-08_18-24-54_260595134347_rgbf000130-resize_1-target.png,125,4.1045,2,2251,125,meters,jsons/VE125_randls_26.json,809618,908310,25,Man
143,174966,DepthScenes,duration_manipulation_targetAtFixation,jsons/VE125_randls_26.json,http://54.235.29.9/FacialAge/BNav_EC2/DepthDuration/v2_depth_duration_MTurk/v2_DepthDuration_HTML.html#125,125,1366,625,1366,768,8-21-2022,10-48-36,144,depth_duration_stimuli/001164_2014-06-17_15-35-46_260595134347_rgbf000085-resize_3/001164_2014-06-17_15-35-46_260595134347_rgbf000085-resize_3-target.png,125,2.354,3,2962,126,meters,jsons/VE125_randls_26.json,809618,908310,25,Man
144,174966,DepthScenes,duration_manipulation_targetAtFixation,jsons/VE125_randls_26.json,http://54.235.29.9/FacialAge/BNav_EC2/DepthDuration/v2_depth_duration_MTurk/v2_DepthDuration_HTML.html#125,125,1366,625,1366,768,8-21-2022,10-48-36,145,depth_duration_stimuli/001136_2014-06-17_15-19-41_260595134347_rgbf000076-resize_3/001136_2014-06-17_15-19-41_260595134347_rgbf000076-resize_3-target.png,125,1.8655,4,2922,124,meters,jsons/VE125_randls_26.json,809618,908310,25,Man
145,174966,DepthScenes,duration_manipulation_targetAtFixation,jsons/VE125_randls_26.json,http://54.235.29.9/FacialAge/BNav_EC2/DepthDuration/v2_depth_duration_MTurk/v2_DepthDuration_HTML.html#125,125,1366,625,1366,768,8-21-2022,10-48-36,146,depth_duration_stimuli/001498_2014-06-19_17-45-14_260595134347_rgbf000129-resize_4/001498_2014-06-19_17-45-14_260595134347_rgbf000129-resize-original.jpg,125,1.4075,0,3067,125,meters,jsons/VE125_randls_26.json,809618,908310,25,Man
146,174966,DepthScenes,duration_manipulation_targetAtFixation,jsons/VE125_randls_26.json,http://54.235.29.9/FacialAge/BNav_EC2/DepthDuration/v2_depth_duration_MTurk/v2_DepthDuration_HTML.html#125,125,1366,625,1366,768,8-21-2022,10-48-36,147,depth_duration_stimuli/002272_2014-06-28_18-53-56_260595134347_rgbf000067-resize_2/002272_2014-06-28_18-53-56_260595134347_rgbf000067-resize_2-target.png,125,1.138,3,2171,126,meters,jsons/VE125_randls_26.json,809618,908310,25,Man
147,174966,DepthScenes,duration_manipulation_targetAtFixation,jsons/VE125_randls_26.json,http://54.235.29.9/FacialAge/BNav_EC2/DepthDuration/v2_depth_duration_MTurk/v2_DepthDuration_HTML.html#125,125,1366,625,1366,768,8-21-2022,10-48-36,148,depth_duration_stimuli/001571_2014-06-20_17-21-32_260595134347_rgbf000089-resize_1/001571_2014-06-20_17-21-32_260595134347_rgbf000089-resize_1-target.png,125,1.86,2,2642,125,meters,jsons/VE125_randls_26.json,809618,908310,25,Man
148,174966,DepthScenes,duration_manipulation_targetAtFixation,jsons/VE125_randls_26.json,http://54.235.29.9/FacialAge/BNav_EC2/DepthDuration/v2_depth_duration_MTurk/v2_DepthDuration_HTML.html#125,125,1366,625,1366,768,8-21-2022,10-48-36,149,depth_duration_stimuli/000447_2014-06-08_16-15-46_260595134347_rgbf000130-resize_1/000447_2014-06-08_16-15-46_260595134347_rgbf000130-resize_1-target.png,125,4.479,3,2394,126,meters,jsons/VE125_randls_26.json,809618,908310,25,Man
149,174966,DepthScenes,duration_manipulation_targetAtFixation,jsons/VE125_randls_26.json,http://54.235.29.9/FacialAge/BNav_EC2/DepthDuration/v2_depth_duration_MTurk/v2_DepthDuration_HTML.html#125,125,1366,625,1366,768,8-21-2022,10-48-36,150,depth_duration_stimuli/001447_2014-06-19_17-00-32_260595134347_rgbf000082-resize_5/001447_2014-06-19_17-00-32_260595134347_rgbf000082-resize_5-target.png,125,4.13775,2,2132,126,meters,jsons/VE125_randls_26.json,809618,908310,25,Man
150,174966,DepthScenes,duration_manipulation_targetAtFixation,jsons/VE125_randls_26.json,http://54.235.29.9/FacialAge/BNav_EC2/DepthDuration/v2_depth_duration_MTurk/v2_DepthDuration_HTML.html#125,125,1366,625,1366,768,8-21-2022,10-48-36,151,depth_duration_stimuli/000758_2014-06-08_22-05-08_260595134347_rgbf000085-resize_0/000758_2014-06-08_22-05-08_260595134347_rgbf000085-resize_0-target.png,125,3.3810000000000002,1,2738,125,meters,jsons/VE125_randls_26.json,809618,908310,25,Man
151,174966,DepthScenes,duration_manipulation_targetAtFixation,jsons/VE125_randls_26.json,http://54.235.29.9/FacialAge/BNav_EC2/DepthDuration/v2_depth_duration_MTurk/v2_DepthDuration_HTML.html#125,125,1366,625,1366,768,8-21-2022,10-48-36,152,depth_duration_stimuli/000854_2014-06-09_19-43-13_260595134347_rgbf000066-resize_0/000854_2014-06-09_19-43-13_260595134347_rgbf000066-resize_0-target.png,125,3.068,3,2091,126,meters,jsons/VE125_randls_26.json,809618,908310,25,Man
152,174966,DepthScenes,duration_manipulation_targetAtFixation,jsons/VE125_randls_26.json,http://54.235.29.9/FacialAge/BNav_EC2/DepthDuration/v2_depth_duration_MTurk/v2_DepthDuration_HTML.html#125,125,1366,625,1366,768,8-21-2022,10-48-36,153,depth_duration_stimuli/002509_2014-06-24_13-19-22_094959634447_rgbf000077-resize_0/002509_2014-06-24_13-19-22_094959634447_rgbf000077-resize_0-target.png,125,1.3065,2,2306,126,meters,jsons/VE125_randls_26.json,809618,908310,25,Man
153,174966,DepthScenes,duration_manipulation_targetAtFixation,jsons/VE125_randls_26.json,http://54.235.29.9/FacialAge/BNav_EC2/DepthDuration/v2_depth_duration_MTurk/v2_DepthDuration_HTML.html#125,125,1366,625,1366,768,8-21-2022,10-48-36,154,depth_duration_stimuli/003338_2014-05-20_11-01-23_094959634447_rgbf000051-resize_6/003338_2014-05-20_11-01-23_094959634447_rgbf000051-resize_6-target.png,125,1.693,4,2306,124,meters,jsons/VE125_randls_26.json,809618,908310,25,Man
154,174966,DepthScenes,duration_manipulation_targetAtFixation,jsons/VE125_randls_26.json,http://54.235.29.9/FacialAge/BNav_EC2/DepthDuration/v2_depth_duration_MTurk/v2_DepthDuration_HTML.html#125,125,1366,625,1366,768,8-21-2022,10-48-36,155,depth_duration_stimuli/002279_2014-06-28_18-55-32_260595134347_rgbf000040-resize_5/002279_2014-06-28_18-55-32_260595134347_rgbf000040-resize_5-target.png,125,1.5043333333333,3,2204,123,meters,jsons/VE125_randls_26.json,809618,908310,25,Man
155,174966,DepthScenes,duration_manipulation_targetAtFixation,jsons/VE125_randls_26.json,http://54.235.29.9/FacialAge/BNav_EC2/DepthDuration/v2_depth_duration_MTurk/v2_DepthDuration_HTML.html#125,125,1366,625,1366,768,8-21-2022,10-48-36,156,depth_duration_stimuli/000635_2014-06-08_16-38-42_260595134347_rgbf000106-resize_1/000635_2014-06-08_16-38-42_260595134347_rgbf000106-resize_1-target.png,125,2.074,2,2785,124,meters,jsons/VE125_randls_26.json,809618,908310,25,Man
156,174966,DepthScenes,duration_manipulation_targetAtFixation,jsons/VE125_randls_26.json,http://54.235.29.9/FacialAge/BNav_EC2/DepthDuration/v2_depth_duration_MTurk/v2_DepthDuration_HTML.html#125,125,1366,625,1366,768,8-21-2022,10-48-36,157,depth_duration_stimuli/002039_2014-06-24_20-22-38_260595134347_rgbf000084-resize_1/002039_2014-06-24_20-22-38_260595134347_rgbf000084-resize_1-target.png,125,4.408,1,4315,124,meters,jsons/VE125_randls_26.json,809618,908310,25,Man
157,174966,DepthScenes,duration_manipulation_targetAtFixation,jsons/VE125_randls_26.json,http://54.235.29.9/FacialAge/BNav_EC2/DepthDuration/v2_depth_duration_MTurk/v2_DepthDuration_HTML.html#125,125,1366,625,1366,768,8-21-2022,10-48-36,158,depth_duration_stimuli/002103_2014-06-25_20-00-40_260595134347_rgbf000049-resize_0/002103_2014-06-25_20-00-40_260595134347_rgbf000049-resize_0-target.png,125,4.105,2,11340,126,meters,jsons/VE125_randls_26.json,809618,908310,25,Man
158,174966,DepthScenes,duration_manipulation_targetAtFixation,jsons/VE125_randls_26.json,http://54.235.29.9/FacialAge/BNav_EC2/DepthDuration/v2_depth_duration_MTurk/v2_DepthDuration_HTML.html#125,125,1366,625,1366,768,8-21-2022,10-48-36,159,depth_duration_stimuli/000009_2014-05-26_14-32-05_260595134347_rgbf000034-resize_3/000009_2014-05-26_14-32-05_260595134347_rgbf000034-resize_3-target.png,125,3.8715,3,2401,125,meters,jsons/VE125_randls_26.json,809618,908310,25,Man
159,174966,DepthScenes,duration_manipulation_targetAtFixation,jsons/VE125_randls_26.json,http://54.235.29.9/FacialAge/BNav_EC2/DepthDuration/v2_depth_duration_MTurk/v2_DepthDuration_HTML.html#125,125,1366,625,1366,768,8-21-2022,10-48-36,160,depth_duration_stimuli/001828_2014-06-26_21-40-03_260595134347_rgbf000024-resize_0/001828_2014-06-26_21-40-03_260595134347_rgbf000024-resize_0-target.png,125,4.8260000000000005,2,2361,123,meters,jsons/VE125_randls_26.json,809618,908310,25,Man
160,174966,DepthScenes,duration_manipulation_targetAtFixation,jsons/VE125_randls_26.json,http://54.235.29.9/FacialAge/BNav_EC2/DepthDuration/v2_depth_duration_MTurk/v2_DepthDuration_HTML.html#125,125,1366,625,1366,768,8-21-2022,10-48-36,161,depth_duration_stimuli/001016_2014-06-09_16-16-10_260595134347_rgbf000112-resize_5/001016_2014-06-09_16-16-10_260595134347_rgbf000112-resize_5-target.png,125,1.6565,3,2283,126,meters,jsons/VE125_randls_26.json,809618,908310,25,Man
161,174966,DepthScenes,duration_manipulation_targetAtFixation,jsons/VE125_randls_26.json,http://54.235.29.9/FacialAge/BNav_EC2/DepthDuration/v2_depth_duration_MTurk/v2_DepthDuration_HTML.html#125,125,1366,625,1366,768,8-21-2022,10-48-36,162,depth_duration_stimuli/002340_2014-06-28_20-05-46_260595134347_rgbf000113-resize_0/002340_2014-06-28_20-05-46_260595134347_rgbf000113-resize_0-target.png,125,2.4735,2,2187,126,meters,jsons/VE125_randls_26.json,809618,908310,25,Man
162,174966,DepthScenes,duration_manipulation_targetAtFixation,jsons/VE125_randls_26.json,http://54.235.29.9/FacialAge/BNav_EC2/DepthDuration/v2_depth_duration_MTurk/v2_DepthDuration_HTML.html#125,125,1366,625,1366,768,8-21-2022,10-48-36,163,depth_duration_stimuli/000917_2014-06-09_22-45-29_260595134347_rgbf000149-resize_3/000917_2014-06-09_22-45-29_260595134347_rgbf000149-resize_3-target.png,125,4.1865,1,3082,125,meters,jsons/VE125_randls_26.json,809618,908310,25,Man
163,174966,DepthScenes,duration_manipulation_targetAtFixation,jsons/VE125_randls_26.json,http://54.235.29.9/FacialAge/BNav_EC2/DepthDuration/v2_depth_duration_MTurk/v2_DepthDuration_HTML.html#125,125,1366,625,1366,768,8-21-2022,10-48-36,164,depth_duration_stimuli/002323_2014-06-28_20-01-54_260595134347_rgbf000051-resize_4/002323_2014-06-28_20-01-54_260595134347_rgbf000051-resize_4-target.png,125,3.7310000000000003,4,2955,126,meters,jsons/VE125_randls_26.json,809618,908310,25,Man
