,subjID,experimentName,versionName,sequenceName,url,selected_row,windowWidth,windowHeight,screenWidth,screenHeight,startDate,startTime,trial,stimulus,duration,actual_depth,depth_estimate,trial_RT,log_sceneDuration,unitSelection,seq_filepath,experimentTime,totalTime,age,gender
0,175604,DepthScenes,duration_manipulation_targetAtFixation,jsons/v1_VE1000_randls_56.json,http://54.235.29.9/FacialAge/BNav_EC2/DepthDuration/v2_depth_duration_MTurk/v2_DepthDuration_HTML.html#27,27,1280,577,1280,720,8-29-2022,14-29-27,1,depth_duration_stimuli/001016_2014-06-09_16-16-10_260595134347_rgbf000112-resize_5/001016_2014-06-09_16-16-10_260595134347_rgbf000112-resize_5-target.png,1000,1.6565,0.05,7952,1020,feet,jsons/v1_VE1000_randls_56.json,1515494,1867115,37,Woman
1,175604,DepthScenes,duration_manipulation_targetAtFixation,jsons/v1_VE1000_randls_56.json,http://54.235.29.9/FacialAge/BNav_EC2/DepthDuration/v2_depth_duration_MTurk/v2_DepthDuration_HTML.html#27,27,1280,577,1280,720,8-29-2022,14-29-27,2,depth_duration_stimuli/002340_2014-06-28_20-05-46_260595134347_rgbf000113-resize_0/002340_2014-06-28_20-05-46_260595134347_rgbf000113-resize_0-target.png,1000,2.4735,0.05,7224,986,feet,jsons/v1_VE1000_randls_56.json,1515494,1867115,37,Woman
2,175604,DepthScenes,duration_manipulation_targetAtFixation,jsons/v1_VE1000_randls_56.json,http://54.235.29.9/FacialAge/BNav_EC2/DepthDuration/v2_depth_duration_MTurk/v2_DepthDuration_HTML.html#27,27,1280,577,1280,720,8-29-2022,14-29-27,3,depth_duration_stimuli/000414_2014-06-04_19-49-13_260595134347_rgbf000044-resize_0/000414_2014-06-04_19-49-13_260595134347_rgbf000044-resize_0-target.png,1000,4.329,0.15,8600,998,feet,jsons/v1_VE1000_randls_56.json,1515494,1867115,37,Woman
3,175604,DepthScenes,duration_manipulation_targetAtFixation,jsons/v1_VE1000_randls_56.json,http://54.235.29.9/FacialAge/BNav_EC2/DepthDuration/v2_depth_duration_MTurk/v2_DepthDuration_HTML.html#27,27,1280,577,1280,720,8-29-2022,14-29-27,4,depth_duration_stimuli/003129_2014-05-12_10-48-10_094959634447_rgbf000100-resize_0/003129_2014-05-12_10-48-10_094959634447_rgbf000100-resize_0-target.png,1000,4.9305,0.1,7337,953,feet,jsons/v1_VE1000_randls_56.json,1515494,1867115,37,Woman
4,175604,DepthScenes,duration_manipulation_targetAtFixation,jsons/v1_VE1000_randls_56.json,http://54.235.29.9/FacialAge/BNav_EC2/DepthDuration/v2_depth_duration_MTurk/v2_DepthDuration_HTML.html#27,27,1280,577,1280,720,8-29-2022,14-29-27,5,depth_duration_stimuli/001029_2014-06-08_13-17-57_260595134347_rgbf000065-resize_1/001029_2014-06-08_13-17-57_260595134347_rgbf000065-resize_1-target.png,1000,3.0835,0.05,7266,1005,feet,jsons/v1_VE1000_randls_56.json,1515494,1867115,37,Woman
5,175604,DepthScenes,duration_manipulation_targetAtFixation,jsons/v1_VE1000_randls_56.json,http://54.235.29.9/FacialAge/BNav_EC2/DepthDuration/v2_depth_duration_MTurk/v2_DepthDuration_HTML.html#27,27,1280,577,1280,720,8-29-2022,14-29-27,6,depth_duration_stimuli/000677_2014-06-08_23-10-32_260595134347_rgbf000158-resize_6/000677_2014-06-08_23-10-32_260595134347_rgbf000158-resize_6-target.png,1000,3.556,0.04,6899,999,feet,jsons/v1_VE1000_randls_56.json,1515494,1867115,37,Woman
6,175604,DepthScenes,duration_manipulation_targetAtFixation,jsons/v1_VE1000_randls_56.json,http://54.235.29.9/FacialAge/BNav_EC2/DepthDuration/v2_depth_duration_MTurk/v2_DepthDuration_HTML.html#27,27,1280,577,1280,720,8-29-2022,14-29-27,7,depth_duration_stimuli/001555_2014-06-20_17-12-10_260595134347_rgbf000065-resize_4/001555_2014-06-20_17-12-10_260595134347_rgbf000065-resize_4-target.png,1000,1.633,0.03,6540,996,feet,jsons/v1_VE1000_randls_56.json,1515494,1867115,37,Woman
7,175604,DepthScenes,duration_manipulation_targetAtFixation,jsons/v1_VE1000_randls_56.json,http://54.235.29.9/FacialAge/BNav_EC2/DepthDuration/v2_depth_duration_MTurk/v2_DepthDuration_HTML.html#27,27,1280,577,1280,720,8-29-2022,14-29-27,8,depth_duration_stimuli/000103_2014-05-14_22-01-17_260595134347_rgbf000152-resize_5/000103_2014-05-14_22-01-17_260595134347_rgbf000152-resize_5-target.png,1000,1.993,0.09,10320,1000,feet,jsons/v1_VE1000_randls_56.json,1515494,1867115,37,Woman
8,175604,DepthScenes,duration_manipulation_targetAtFixation,jsons/v1_VE1000_randls_56.json,http://54.235.29.9/FacialAge/BNav_EC2/DepthDuration/v2_depth_duration_MTurk/v2_DepthDuration_HTML.html#27,27,1280,577,1280,720,8-29-2022,14-29-27,9,depth_duration_stimuli/002763_2014-06-22_19-13-10_094959634447_rgbf000075-resize_4/002763_2014-06-22_19-13-10_094959634447_rgbf000075-resize_4-target.png,1000,1.68375,0.0,7802,998,feet,jsons/v1_VE1000_randls_56.json,1515494,1867115,37,Woman
9,175604,DepthScenes,duration_manipulation_targetAtFixation,jsons/v1_VE1000_randls_56.json,http://54.235.29.9/FacialAge/BNav_EC2/DepthDuration/v2_depth_duration_MTurk/v2_DepthDuration_HTML.html#27,27,1280,577,1280,720,8-29-2022,14-29-27,10,depth_duration_stimuli/002209_2014-06-28_18-36-10_260595134347_rgbf000051-resize_1/002209_2014-06-28_18-36-10_260595134347_rgbf000051-resize_1-target.png,1000,2.057,0.05,6550,990,feet,jsons/v1_VE1000_randls_56.json,1515494,1867115,37,Woman
10,175604,DepthScenes,duration_manipulation_targetAtFixation,jsons/v1_VE1000_randls_56.json,http://54.235.29.9/FacialAge/BNav_EC2/DepthDuration/v2_depth_duration_MTurk/v2_DepthDuration_HTML.html#27,27,1280,577,1280,720,8-29-2022,14-29-27,11,depth_duration_stimuli/002964_2014-06-08_17-46-11_094959634447_rgbf000091-resize_4/002964_2014-06-08_17-46-11_094959634447_rgbf000091-resize_4-target.png,1000,1.6909999999999998,0.03,6855,998,feet,jsons/v1_VE1000_randls_56.json,1515494,1867115,37,Woman
11,175604,DepthScenes,duration_manipulation_targetAtFixation,jsons/v1_VE1000_randls_56.json,http://54.235.29.9/FacialAge/BNav_EC2/DepthDuration/v2_depth_duration_MTurk/v2_DepthDuration_HTML.html#27,27,1280,577,1280,720,8-29-2022,14-29-27,12,depth_duration_stimuli/002136_2014-06-25_21-18-03_260595134347_rgbf000109-resize_3/002136_2014-06-25_21-18-03_260595134347_rgbf000109-resize_3-target.png,1000,1.9569999999999999,0.02,5976,1001,feet,jsons/v1_VE1000_randls_56.json,1515494,1867115,37,Woman
12,175604,DepthScenes,duration_manipulation_targetAtFixation,jsons/v1_VE1000_randls_56.json,http://54.235.29.9/FacialAge/BNav_EC2/DepthDuration/v2_depth_duration_MTurk/v2_DepthDuration_HTML.html#27,27,1280,577,1280,720,8-29-2022,14-29-27,13,depth_duration_stimuli/000569_2014-06-09_22-51-47_260595134347_rgbf000141-resize_3/000569_2014-06-09_22-51-47_260595134347_rgbf000141-resize-original.jpg,1000,4.512,0.05,6274,1001,feet,jsons/v1_VE1000_randls_56.json,1515494,1867115,37,Woman
13,175604,DepthScenes,duration_manipulation_targetAtFixation,jsons/v1_VE1000_randls_56.json,http://54.235.29.9/FacialAge/BNav_EC2/DepthDuration/v2_depth_duration_MTurk/v2_DepthDuration_HTML.html#27,27,1280,577,1280,720,8-29-2022,14-29-27,14,depth_duration_stimuli/001810_2014-06-26_20-51-35_260595134347_rgbf000040-resize_3/001810_2014-06-26_20-51-35_260595134347_rgbf000040-resize_3-target.png,1000,2.2525,0.03,7865,1000,feet,jsons/v1_VE1000_randls_56.json,1515494,1867115,37,Woman
14,175604,DepthScenes,duration_manipulation_targetAtFixation,jsons/v1_VE1000_randls_56.json,http://54.235.29.9/FacialAge/BNav_EC2/DepthDuration/v2_depth_duration_MTurk/v2_DepthDuration_HTML.html#27,27,1280,577,1280,720,8-29-2022,14-29-27,15,depth_duration_stimuli/003010_2014-06-15_12-54-35_094959634447_rgbf000112-resize_0/003010_2014-06-15_12-54-35_094959634447_rgbf000112-resize_0-target.png,1000,3.1185,0.15,6750,998,feet,jsons/v1_VE1000_randls_56.json,1515494,1867115,37,Woman
15,175604,DepthScenes,duration_manipulation_targetAtFixation,jsons/v1_VE1000_randls_56.json,http://54.235.29.9/FacialAge/BNav_EC2/DepthDuration/v2_depth_duration_MTurk/v2_DepthDuration_HTML.html#27,27,1280,577,1280,720,8-29-2022,14-29-27,16,depth_duration_stimuli/001158_2014-06-17_15-32-16_260595134347_rgbf000138-resize_2/001158_2014-06-17_15-32-16_260595134347_rgbf000138-resize_2-target.png,1000,4.5315,0.05,8124,1000,feet,jsons/v1_VE1000_randls_56.json,1515494,1867115,37,Woman
16,175604,DepthScenes,duration_manipulation_targetAtFixation,jsons/v1_VE1000_randls_56.json,http://54.235.29.9/FacialAge/BNav_EC2/DepthDuration/v2_depth_duration_MTurk/v2_DepthDuration_HTML.html#27,27,1280,577,1280,720,8-29-2022,14-29-27,17,depth_duration_stimuli/000556_2014-06-09_22-42-56_260595134347_rgbf000214-resize_1/000556_2014-06-09_22-42-56_260595134347_rgbf000214-resize_1-target.png,1000,4.8415,0.08,13126,998,feet,jsons/v1_VE1000_randls_56.json,1515494,1867115,37,Woman
17,175604,DepthScenes,duration_manipulation_targetAtFixation,jsons/v1_VE1000_randls_56.json,http://54.235.29.9/FacialAge/BNav_EC2/DepthDuration/v2_depth_duration_MTurk/v2_DepthDuration_HTML.html#27,27,1280,577,1280,720,8-29-2022,14-29-27,18,depth_duration_stimuli/000692_2014-06-08_13-09-42_260595134347_rgbf000199-resize_2/000692_2014-06-08_13-09-42_260595134347_rgbf000199-resize_2-target.png,1000,3.661,0.1,11814,999,feet,jsons/v1_VE1000_randls_56.json,1515494,1867115,37,Woman
18,175604,DepthScenes,duration_manipulation_targetAtFixation,jsons/v1_VE1000_randls_56.json,http://54.235.29.9/FacialAge/BNav_EC2/DepthDuration/v2_depth_duration_MTurk/v2_DepthDuration_HTML.html#27,27,1280,577,1280,720,8-29-2022,14-29-27,19,depth_duration_stimuli/001094_2014-06-15_17-36-00_260595134347_rgbf000205-resize_0/001094_2014-06-15_17-36-00_260595134347_rgbf000205-resize_0-target.png,1000,4.2175,0.0,7074,998,feet,jsons/v1_VE1000_randls_56.json,1515494,1867115,37,Woman
19,175604,DepthScenes,duration_manipulation_targetAtFixation,jsons/v1_VE1000_randls_56.json,http://54.235.29.9/FacialAge/BNav_EC2/DepthDuration/v2_depth_duration_MTurk/v2_DepthDuration_HTML.html#27,27,1280,577,1280,720,8-29-2022,14-29-27,20,depth_duration_stimuli/000470_2014-06-09_19-42-40_260595134347_rgbf000094-resize_1/000470_2014-06-09_19-42-40_260595134347_rgbf000094-resize_1-target.png,1000,1.831,0.05,10277,999,feet,jsons/v1_VE1000_randls_56.json,1515494,1867115,37,Woman
20,175604,DepthScenes,duration_manipulation_targetAtFixation,jsons/v1_VE1000_randls_56.json,http://54.235.29.9/FacialAge/BNav_EC2/DepthDuration/v2_depth_duration_MTurk/v2_DepthDuration_HTML.html#27,27,1280,577,1280,720,8-29-2022,14-29-27,21,depth_duration_stimuli/000109_2014-05-14_23-41-52_260595134347_rgbf000035-resize_9/000109_2014-05-14_23-41-52_260595134347_rgbf000035-resize_9-target.png,1000,1.3545,0.04,6518,999,feet,jsons/v1_VE1000_randls_56.json,1515494,1867115,37,Woman
21,175604,DepthScenes,duration_manipulation_targetAtFixation,jsons/v1_VE1000_randls_56.json,http://54.235.29.9/FacialAge/BNav_EC2/DepthDuration/v2_depth_duration_MTurk/v2_DepthDuration_HTML.html#27,27,1280,577,1280,720,8-29-2022,14-29-27,22,depth_duration_stimuli/003292_2014-05-14_21-53-49_094959634447_rgbf000100-resize_2/003292_2014-05-14_21-53-49_094959634447_rgbf000100-resize_2-target.png,1000,3.4815,0.03,11057,992,feet,jsons/v1_VE1000_randls_56.json,1515494,1867115,37,Woman
22,175604,DepthScenes,duration_manipulation_targetAtFixation,jsons/v1_VE1000_randls_56.json,http://54.235.29.9/FacialAge/BNav_EC2/DepthDuration/v2_depth_duration_MTurk/v2_DepthDuration_HTML.html#27,27,1280,577,1280,720,8-29-2022,14-29-27,23,depth_duration_stimuli/002639_2014-06-24_14-51-37_094959634447_rgbf000074-resize_4/002639_2014-06-24_14-51-37_094959634447_rgbf000074-resize_4-target.png,1000,4.0375,0.0,8858,1000,feet,jsons/v1_VE1000_randls_56.json,1515494,1867115,37,Woman
23,175604,DepthScenes,duration_manipulation_targetAtFixation,jsons/v1_VE1000_randls_56.json,http://54.235.29.9/FacialAge/BNav_EC2/DepthDuration/v2_depth_duration_MTurk/v2_DepthDuration_HTML.html#27,27,1280,577,1280,720,8-29-2022,14-29-27,24,depth_duration_stimuli/002039_2014-06-24_20-22-38_260595134347_rgbf000084-resize_1/002039_2014-06-24_20-22-38_260595134347_rgbf000084-resize_1-target.png,1000,4.408,0.1,6313,996,feet,jsons/v1_VE1000_randls_56.json,1515494,1867115,37,Woman
24,175604,DepthScenes,duration_manipulation_targetAtFixation,jsons/v1_VE1000_randls_56.json,http://54.235.29.9/FacialAge/BNav_EC2/DepthDuration/v2_depth_duration_MTurk/v2_DepthDuration_HTML.html#27,27,1280,577,1280,720,8-29-2022,14-29-27,25,depth_duration_stimuli/002103_2014-06-25_20-00-40_260595134347_rgbf000049-resize_0/002103_2014-06-25_20-00-40_260595134347_rgbf000049-resize_0-target.png,1000,4.105,0.2,7326,1026,feet,jsons/v1_VE1000_randls_56.json,1515494,1867115,37,Woman
25,175604,DepthScenes,duration_manipulation_targetAtFixation,jsons/v1_VE1000_randls_56.json,http://54.235.29.9/FacialAge/BNav_EC2/DepthDuration/v2_depth_duration_MTurk/v2_DepthDuration_HTML.html#27,27,1280,577,1280,720,8-29-2022,14-29-27,26,depth_duration_stimuli/002784_2014-06-22_19-26-30_094959634447_rgbf000083-resize_3/002784_2014-06-22_19-26-30_094959634447_rgbf000083-resize_3-target.png,1000,1.8046666666667,0.1,7659,999,feet,jsons/v1_VE1000_randls_56.json,1515494,1867115,37,Woman
26,175604,DepthScenes,duration_manipulation_targetAtFixation,jsons/v1_VE1000_randls_56.json,http://54.235.29.9/FacialAge/BNav_EC2/DepthDuration/v2_depth_duration_MTurk/v2_DepthDuration_HTML.html#27,27,1280,577,1280,720,8-29-2022,14-29-27,27,depth_duration_stimuli/001100_2014-06-15_17-46-26_260595134347_rgbf000225-resize_2/001100_2014-06-15_17-46-26_260595134347_rgbf000225-resize_2-target.png,1000,2.24,0.0,7407,999,feet,jsons/v1_VE1000_randls_56.json,1515494,1867115,37,Woman
27,175604,DepthScenes,duration_manipulation_targetAtFixation,jsons/v1_VE1000_randls_56.json,http://54.235.29.9/FacialAge/BNav_EC2/DepthDuration/v2_depth_duration_MTurk/v2_DepthDuration_HTML.html#27,27,1280,577,1280,720,8-29-2022,14-29-27,28,depth_duration_stimuli/000009_2014-05-26_14-32-05_260595134347_rgbf000034-resize_3/000009_2014-05-26_14-32-05_260595134347_rgbf000034-resize_3-target.png,1000,3.8715,0.2,7950,1000,feet,jsons/v1_VE1000_randls_56.json,1515494,1867115,37,Woman
28,175604,DepthScenes,duration_manipulation_targetAtFixation,jsons/v1_VE1000_randls_56.json,http://54.235.29.9/FacialAge/BNav_EC2/DepthDuration/v2_depth_duration_MTurk/v2_DepthDuration_HTML.html#27,27,1280,577,1280,720,8-29-2022,14-29-27,29,depth_duration_stimuli/001828_2014-06-26_21-40-03_260595134347_rgbf000024-resize_0/001828_2014-06-26_21-40-03_260595134347_rgbf000024-resize_0-target.png,1000,4.8260000000000005,0.15,6632,1000,feet,jsons/v1_VE1000_randls_56.json,1515494,1867115,37,Woman
29,175604,DepthScenes,duration_manipulation_targetAtFixation,jsons/v1_VE1000_randls_56.json,http://54.235.29.9/FacialAge/BNav_EC2/DepthDuration/v2_depth_duration_MTurk/v2_DepthDuration_HTML.html#27,27,1280,577,1280,720,8-29-2022,14-29-27,30,depth_duration_stimuli/000375_2014-06-08_11-17-29_260595134347_rgbf000133-resize_2/000375_2014-06-08_11-17-29_260595134347_rgbf000133-resize-original.jpg,1000,4.718,0.02,9627,998,feet,jsons/v1_VE1000_randls_56.json,1515494,1867115,37,Woman
30,175604,DepthScenes,duration_manipulation_targetAtFixation,jsons/v1_VE1000_randls_56.json,http://54.235.29.9/FacialAge/BNav_EC2/DepthDuration/v2_depth_duration_MTurk/v2_DepthDuration_HTML.html#27,27,1280,577,1280,720,8-29-2022,14-29-27,31,depth_duration_stimuli/000917_2014-06-09_22-45-29_260595134347_rgbf000149-resize_3/000917_2014-06-09_22-45-29_260595134347_rgbf000149-resize_3-target.png,1000,4.1865,0.05,6535,1013,feet,jsons/v1_VE1000_randls_56.json,1515494,1867115,37,Woman
31,175604,DepthScenes,duration_manipulation_targetAtFixation,jsons/v1_VE1000_randls_56.json,http://54.235.29.9/FacialAge/BNav_EC2/DepthDuration/v2_depth_duration_MTurk/v2_DepthDuration_HTML.html#27,27,1280,577,1280,720,8-29-2022,14-29-27,32,depth_duration_stimuli/002323_2014-06-28_20-01-54_260595134347_rgbf000051-resize_4/002323_2014-06-28_20-01-54_260595134347_rgbf000051-resize_4-target.png,1000,3.7310000000000003,0.06,6209,982,feet,jsons/v1_VE1000_randls_56.json,1515494,1867115,37,Woman
32,175604,DepthScenes,duration_manipulation_targetAtFixation,jsons/v1_VE1000_randls_56.json,http://54.235.29.9/FacialAge/BNav_EC2/DepthDuration/v2_depth_duration_MTurk/v2_DepthDuration_HTML.html#27,27,1280,577,1280,720,8-29-2022,14-29-27,33,depth_duration_stimuli/001055_2014-06-08_18-45-35_260595134347_rgbf000111-resize_4/001055_2014-06-08_18-45-35_260595134347_rgbf000111-resize_4-target.png,1000,2.4290000000000003,0.15,7380,979,feet,jsons/v1_VE1000_randls_56.json,1515494,1867115,37,Woman
33,175604,DepthScenes,duration_manipulation_targetAtFixation,jsons/v1_VE1000_randls_56.json,http://54.235.29.9/FacialAge/BNav_EC2/DepthDuration/v2_depth_duration_MTurk/v2_DepthDuration_HTML.html#27,27,1280,577,1280,720,8-29-2022,14-29-27,34,depth_duration_stimuli/000549_2014-06-08_22-10-24_260595134347_rgbf000247-resize_3/000549_2014-06-08_22-10-24_260595134347_rgbf000247-resize_3-target.png,1000,1.841,0.1,5468,1000,feet,jsons/v1_VE1000_randls_56.json,1515494,1867115,37,Woman
34,175604,DepthScenes,duration_manipulation_targetAtFixation,jsons/v1_VE1000_randls_56.json,http://54.235.29.9/FacialAge/BNav_EC2/DepthDuration/v2_depth_duration_MTurk/v2_DepthDuration_HTML.html#27,27,1280,577,1280,720,8-29-2022,14-29-27,35,depth_duration_stimuli/003492_2014-05-21_15-50-55_094959634447_rgbf000828-resize_1/003492_2014-05-21_15-50-55_094959634447_rgbf000828-resize_1-target.png,1000,4.06875,0.05,9385,999,feet,jsons/v1_VE1000_randls_56.json,1515494,1867115,37,Woman
35,175604,DepthScenes,duration_manipulation_targetAtFixation,jsons/v1_VE1000_randls_56.json,http://54.235.29.9/FacialAge/BNav_EC2/DepthDuration/v2_depth_duration_MTurk/v2_DepthDuration_HTML.html#27,27,1280,577,1280,720,8-29-2022,14-29-27,36,depth_duration_stimuli/002568_2014-06-24_13-59-21_094959634447_rgbf000062-resize_4/002568_2014-06-24_13-59-21_094959634447_rgbf000062-resize_4-target.png,1000,3.015,0.05,7668,990,feet,jsons/v1_VE1000_randls_56.json,1515494,1867115,37,Woman
36,175604,DepthScenes,duration_manipulation_targetAtFixation,jsons/v1_VE1000_randls_56.json,http://54.235.29.9/FacialAge/BNav_EC2/DepthDuration/v2_depth_duration_MTurk/v2_DepthDuration_HTML.html#27,27,1280,577,1280,720,8-29-2022,14-29-27,37,depth_duration_stimuli/002272_2014-06-28_18-53-56_260595134347_rgbf000067-resize_2/002272_2014-06-28_18-53-56_260595134347_rgbf000067-resize_2-target.png,1000,1.138,0.1,6774,998,feet,jsons/v1_VE1000_randls_56.json,1515494,1867115,37,Woman
37,175604,DepthScenes,duration_manipulation_targetAtFixation,jsons/v1_VE1000_randls_56.json,http://54.235.29.9/FacialAge/BNav_EC2/DepthDuration/v2_depth_duration_MTurk/v2_DepthDuration_HTML.html#27,27,1280,577,1280,720,8-29-2022,14-29-27,38,depth_duration_stimuli/001571_2014-06-20_17-21-32_260595134347_rgbf000089-resize_1/001571_2014-06-20_17-21-32_260595134347_rgbf000089-resize_1-target.png,1000,1.86,0.0,13423,999,feet,jsons/v1_VE1000_randls_56.json,1515494,1867115,37,Woman
38,175604,DepthScenes,duration_manipulation_targetAtFixation,jsons/v1_VE1000_randls_56.json,http://54.235.29.9/FacialAge/BNav_EC2/DepthDuration/v2_depth_duration_MTurk/v2_DepthDuration_HTML.html#27,27,1280,577,1280,720,8-29-2022,14-29-27,39,depth_duration_stimuli/000493_2014-06-09_21-01-18_260595134347_rgbf000196-resize_3/000493_2014-06-09_21-01-18_260595134347_rgbf000196-resize_3-target.png,1000,3.44,0.0,9667,999,feet,jsons/v1_VE1000_randls_56.json,1515494,1867115,37,Woman
39,175604,DepthScenes,duration_manipulation_targetAtFixation,jsons/v1_VE1000_randls_56.json,http://54.235.29.9/FacialAge/BNav_EC2/DepthDuration/v2_depth_duration_MTurk/v2_DepthDuration_HTML.html#27,27,1280,577,1280,720,8-29-2022,14-29-27,40,depth_duration_stimuli/000191_2014-05-12_17-07-38_260595134347_rgbf000199-resize_0/000191_2014-05-12_17-07-38_260595134347_rgbf000199-resize_0-target.png,1000,3.7995,0.2,10891,1000,feet,jsons/v1_VE1000_randls_56.json,1515494,1867115,37,Woman
40,175604,DepthScenes,duration_manipulation_targetAtFixation,jsons/v1_VE1000_randls_56.json,http://54.235.29.9/FacialAge/BNav_EC2/DepthDuration/v2_depth_duration_MTurk/v2_DepthDuration_HTML.html#27,27,1280,577,1280,720,8-29-2022,14-29-27,41,depth_duration_stimuli/002905_2014-06-03_18-04-43_094959634447_rgbf000151-resize_2/002905_2014-06-03_18-04-43_094959634447_rgbf000151-resize_2-target.png,1000,2.0295,0.05,8291,998,feet,jsons/v1_VE1000_randls_56.json,1515494,1867115,37,Woman
41,175604,DepthScenes,duration_manipulation_targetAtFixation,jsons/v1_VE1000_randls_56.json,http://54.235.29.9/FacialAge/BNav_EC2/DepthDuration/v2_depth_duration_MTurk/v2_DepthDuration_HTML.html#27,27,1280,577,1280,720,8-29-2022,14-29-27,42,depth_duration_stimuli/003423_2014-05-21_10-23-26_094959634447_rgbf002665-resize_2/003423_2014-05-21_10-23-26_094959634447_rgbf002665-resize_2-target.png,1000,3.2575,0.08,7366,1000,feet,jsons/v1_VE1000_randls_56.json,1515494,1867115,37,Woman
42,175604,DepthScenes,duration_manipulation_targetAtFixation,jsons/v1_VE1000_randls_56.json,http://54.235.29.9/FacialAge/BNav_EC2/DepthDuration/v2_depth_duration_MTurk/v2_DepthDuration_HTML.html#27,27,1280,577,1280,720,8-29-2022,14-29-27,43,depth_duration_stimuli/000878_2014-06-08_22-52-45_260595134347_rgbf000045-resize_2/000878_2014-06-08_22-52-45_260595134347_rgbf000045-resize_2-target.png,1000,2.092,0.1,10924,999,feet,jsons/v1_VE1000_randls_56.json,1515494,1867115,37,Woman
43,175604,DepthScenes,duration_manipulation_targetAtFixation,jsons/v1_VE1000_randls_56.json,http://54.235.29.9/FacialAge/BNav_EC2/DepthDuration/v2_depth_duration_MTurk/v2_DepthDuration_HTML.html#27,27,1280,577,1280,720,8-29-2022,14-29-27,44,depth_duration_stimuli/002953_2014-06-08_17-32-18_094959634447_rgbf000059-resize_5/002953_2014-06-08_17-32-18_094959634447_rgbf000059-resize_5-target.png,1000,1.551,0.05,5719,997,feet,jsons/v1_VE1000_randls_56.json,1515494,1867115,37,Woman
44,175604,DepthScenes,duration_manipulation_targetAtFixation,jsons/v1_VE1000_randls_56.json,http://54.235.29.9/FacialAge/BNav_EC2/DepthDuration/v2_depth_duration_MTurk/v2_DepthDuration_HTML.html#27,27,1280,577,1280,720,8-29-2022,14-29-27,45,depth_duration_stimuli/000787_2014-06-08_22-33-53_260595134347_rgbf000175-resize_1/000787_2014-06-08_22-33-53_260595134347_rgbf000175-resize-original.jpg,1000,4.784,0.1,9507,1001,feet,jsons/v1_VE1000_randls_56.json,1515494,1867115,37,Woman
45,175604,DepthScenes,duration_manipulation_targetAtFixation,jsons/v1_VE1000_randls_56.json,http://54.235.29.9/FacialAge/BNav_EC2/DepthDuration/v2_depth_duration_MTurk/v2_DepthDuration_HTML.html#27,27,1280,577,1280,720,8-29-2022,14-29-27,46,depth_duration_stimuli/002153_2014-06-25_21-27-18_260595134347_rgbf000038-resize_5/002153_2014-06-25_21-27-18_260595134347_rgbf000038-resize_5-target.png,1000,2.505,0.1,5956,998,feet,jsons/v1_VE1000_randls_56.json,1515494,1867115,37,Woman
46,175604,DepthScenes,duration_manipulation_targetAtFixation,jsons/v1_VE1000_randls_56.json,http://54.235.29.9/FacialAge/BNav_EC2/DepthDuration/v2_depth_duration_MTurk/v2_DepthDuration_HTML.html#27,27,1280,577,1280,720,8-29-2022,14-29-27,47,depth_duration_stimuli/002660_2014-06-13_15-44-18_094959634447_rgbf001878-resize_2/002660_2014-06-13_15-44-18_094959634447_rgbf001878-resize_2-target.png,1000,3.576,0.25,7184,1013,feet,jsons/v1_VE1000_randls_56.json,1515494,1867115,37,Woman
47,175604,DepthScenes,duration_manipulation_targetAtFixation,jsons/v1_VE1000_randls_56.json,http://54.235.29.9/FacialAge/BNav_EC2/DepthDuration/v2_depth_duration_MTurk/v2_DepthDuration_HTML.html#27,27,1280,577,1280,720,8-29-2022,14-29-27,48,depth_duration_stimuli/000929_2014-06-09_16-33-19_260595134347_rgbf000139-resize_0/000929_2014-06-09_16-33-19_260595134347_rgbf000139-resize_0-target.png,1000,2.8680000000000003,0.05,7243,998,feet,jsons/v1_VE1000_randls_56.json,1515494,1867115,37,Woman
48,175604,DepthScenes,duration_manipulation_targetAtFixation,jsons/v1_VE1000_randls_56.json,http://54.235.29.9/FacialAge/BNav_EC2/DepthDuration/v2_depth_duration_MTurk/v2_DepthDuration_HTML.html#27,27,1280,577,1280,720,8-29-2022,14-29-27,49,depth_duration_stimuli/000457_2014-06-08_16-52-43_260595134347_rgbf000199-resize_1/000457_2014-06-08_16-52-43_260595134347_rgbf000199-resize_1-target.png,1000,3.6489999999999996,0.1,6308,997,feet,jsons/v1_VE1000_randls_56.json,1515494,1867115,37,Woman
49,175604,DepthScenes,duration_manipulation_targetAtFixation,jsons/v1_VE1000_randls_56.json,http://54.235.29.9/FacialAge/BNav_EC2/DepthDuration/v2_depth_duration_MTurk/v2_DepthDuration_HTML.html#27,27,1280,577,1280,720,8-29-2022,14-29-27,50,depth_duration_stimuli/001167_2014-06-17_15-38-07_260595134347_rgbf000108-resize_0/001167_2014-06-17_15-38-07_260595134347_rgbf000108-resize_0-target.png,1000,1.8505,0.05,8321,999,feet,jsons/v1_VE1000_randls_56.json,1515494,1867115,37,Woman
50,175604,DepthScenes,duration_manipulation_targetAtFixation,jsons/v1_VE1000_randls_56.json,http://54.235.29.9/FacialAge/BNav_EC2/DepthDuration/v2_depth_duration_MTurk/v2_DepthDuration_HTML.html#27,27,1280,577,1280,720,8-29-2022,14-29-27,51,depth_duration_stimuli/003587_2014-05-23_16-48-02_094959634447_rgbf002384-resize_2/003587_2014-05-23_16-48-02_094959634447_rgbf002384-resize_2-target.png,1000,1.357,0.1,7921,979,feet,jsons/v1_VE1000_randls_56.json,1515494,1867115,37,Woman
51,175604,DepthScenes,duration_manipulation_targetAtFixation,jsons/v1_VE1000_randls_56.json,http://54.235.29.9/FacialAge/BNav_EC2/DepthDuration/v2_depth_duration_MTurk/v2_DepthDuration_HTML.html#27,27,1280,577,1280,720,8-29-2022,14-29-27,52,depth_duration_stimuli/001059_2014-06-08_21-53-27_260595134347_rgbf000061-resize_4/001059_2014-06-08_21-53-27_260595134347_rgbf000061-resize_4-target.png,1000,2.4185,0.2,6722,999,feet,jsons/v1_VE1000_randls_56.json,1515494,1867115,37,Woman
52,175604,DepthScenes,duration_manipulation_targetAtFixation,jsons/v1_VE1000_randls_56.json,http://54.235.29.9/FacialAge/BNav_EC2/DepthDuration/v2_depth_duration_MTurk/v2_DepthDuration_HTML.html#27,27,1280,577,1280,720,8-29-2022,14-29-27,53,depth_duration_stimuli/001032_2014-06-08_13-23-17_260595134347_rgbf000021-resize_3/001032_2014-06-08_13-23-17_260595134347_rgbf000021-resize_3-target.png,1000,3.2725,0.1,9158,986,feet,jsons/v1_VE1000_randls_56.json,1515494,1867115,37,Woman
53,175604,DepthScenes,duration_manipulation_targetAtFixation,jsons/v1_VE1000_randls_56.json,http://54.235.29.9/FacialAge/BNav_EC2/DepthDuration/v2_depth_duration_MTurk/v2_DepthDuration_HTML.html#27,27,1280,577,1280,720,8-29-2022,14-29-27,54,depth_duration_stimuli/002445_2014-06-28_20-32-16_260595134347_rgbf000029-resize_4/002445_2014-06-28_20-32-16_260595134347_rgbf000029-resize_4-target.png,1000,2.5315,0.1,15704,989,feet,jsons/v1_VE1000_randls_56.json,1515494,1867115,37,Woman
54,175604,DepthScenes,duration_manipulation_targetAtFixation,jsons/v1_VE1000_randls_56.json,http://54.235.29.9/FacialAge/BNav_EC2/DepthDuration/v2_depth_duration_MTurk/v2_DepthDuration_HTML.html#27,27,1280,577,1280,720,8-29-2022,14-29-27,55,depth_duration_stimuli/000780_2014-06-08_22-28-29_260595134347_rgbf000126-resize_1/000780_2014-06-08_22-28-29_260595134347_rgbf000126-resize_1-target.png,1000,3.3825,0.15,9212,1000,feet,jsons/v1_VE1000_randls_56.json,1515494,1867115,37,Woman
55,175604,DepthScenes,duration_manipulation_targetAtFixation,jsons/v1_VE1000_randls_56.json,http://54.235.29.9/FacialAge/BNav_EC2/DepthDuration/v2_depth_duration_MTurk/v2_DepthDuration_HTML.html#27,27,1280,577,1280,720,8-29-2022,14-29-27,56,depth_duration_stimuli/000758_2014-06-08_22-05-08_260595134347_rgbf000085-resize_0/000758_2014-06-08_22-05-08_260595134347_rgbf000085-resize_0-target.png,1000,3.3810000000000002,0.05,5929,993,feet,jsons/v1_VE1000_randls_56.json,1515494,1867115,37,Woman
56,175604,DepthScenes,duration_manipulation_targetAtFixation,jsons/v1_VE1000_randls_56.json,http://54.235.29.9/FacialAge/BNav_EC2/DepthDuration/v2_depth_duration_MTurk/v2_DepthDuration_HTML.html#27,27,1280,577,1280,720,8-29-2022,14-29-27,57,depth_duration_stimuli/000854_2014-06-09_19-43-13_260595134347_rgbf000066-resize_0/000854_2014-06-09_19-43-13_260595134347_rgbf000066-resize_0-target.png,1000,3.068,0.2,7614,998,feet,jsons/v1_VE1000_randls_56.json,1515494,1867115,37,Woman
57,175604,DepthScenes,duration_manipulation_targetAtFixation,jsons/v1_VE1000_randls_56.json,http://54.235.29.9/FacialAge/BNav_EC2/DepthDuration/v2_depth_duration_MTurk/v2_DepthDuration_HTML.html#27,27,1280,577,1280,720,8-29-2022,14-29-27,58,depth_duration_stimuli/000447_2014-06-08_16-15-46_260595134347_rgbf000130-resize_1/000447_2014-06-08_16-15-46_260595134347_rgbf000130-resize_1-target.png,1000,4.479,0.1,8058,998,feet,jsons/v1_VE1000_randls_56.json,1515494,1867115,37,Woman
58,175604,DepthScenes,duration_manipulation_targetAtFixation,jsons/v1_VE1000_randls_56.json,http://54.235.29.9/FacialAge/BNav_EC2/DepthDuration/v2_depth_duration_MTurk/v2_DepthDuration_HTML.html#27,27,1280,577,1280,720,8-29-2022,14-29-27,59,depth_duration_stimuli/001447_2014-06-19_17-00-32_260595134347_rgbf000082-resize_5/001447_2014-06-19_17-00-32_260595134347_rgbf000082-resize_5-target.png,1000,4.13775,0.1,6666,999,feet,jsons/v1_VE1000_randls_56.json,1515494,1867115,37,Woman
59,175604,DepthScenes,duration_manipulation_targetAtFixation,jsons/v1_VE1000_randls_56.json,http://54.235.29.9/FacialAge/BNav_EC2/DepthDuration/v2_depth_duration_MTurk/v2_DepthDuration_HTML.html#27,27,1280,577,1280,720,8-29-2022,14-29-27,60,depth_duration_stimuli/001110_2014-06-15_17-25-28_260595134347_rgbf000150-resize_1/001110_2014-06-15_17-25-28_260595134347_rgbf000150-resize_1-target.png,1000,1.7115,0.0,9482,1002,feet,jsons/v1_VE1000_randls_56.json,1515494,1867115,37,Woman
60,175604,DepthScenes,duration_manipulation_targetAtFixation,jsons/v1_VE1000_randls_56.json,http://54.235.29.9/FacialAge/BNav_EC2/DepthDuration/v2_depth_duration_MTurk/v2_DepthDuration_HTML.html#27,27,1280,577,1280,720,8-29-2022,14-29-27,61,depth_duration_stimuli/000927_2014-06-09_16-32-30_260595134347_rgbf000123-resize_3/000927_2014-06-09_16-32-30_260595134347_rgbf000123-resize_3-target.png,1000,2.6785,0.15,6541,1000,feet,jsons/v1_VE1000_randls_56.json,1515494,1867115,37,Woman
61,175604,DepthScenes,duration_manipulation_targetAtFixation,jsons/v1_VE1000_randls_56.json,http://54.235.29.9/FacialAge/BNav_EC2/DepthDuration/v2_depth_duration_MTurk/v2_DepthDuration_HTML.html#27,27,1280,577,1280,720,8-29-2022,14-29-27,62,depth_duration_stimuli/002375_2014-06-28_20-13-44_260595134347_rgbf000032-resize_1/002375_2014-06-28_20-13-44_260595134347_rgbf000032-resize_1-target.png,1000,4.0175,0.05,8859,1003,feet,jsons/v1_VE1000_randls_56.json,1515494,1867115,37,Woman
62,175604,DepthScenes,duration_manipulation_targetAtFixation,jsons/v1_VE1000_randls_56.json,http://54.235.29.9/FacialAge/BNav_EC2/DepthDuration/v2_depth_duration_MTurk/v2_DepthDuration_HTML.html#27,27,1280,577,1280,720,8-29-2022,14-29-27,63,depth_duration_stimuli/002657_2014-06-13_15-29-54_094959634447_rgbf000150-resize_1/002657_2014-06-13_15-29-54_094959634447_rgbf000150-resize_1-target.png,1000,4.919,0.02,7120,1000,feet,jsons/v1_VE1000_randls_56.json,1515494,1867115,37,Woman
63,175604,DepthScenes,duration_manipulation_targetAtFixation,jsons/v1_VE1000_randls_56.json,http://54.235.29.9/FacialAge/BNav_EC2/DepthDuration/v2_depth_duration_MTurk/v2_DepthDuration_HTML.html#27,27,1280,577,1280,720,8-29-2022,14-29-27,64,depth_duration_stimuli/002213_2014-06-28_18-37-58_260595134347_rgbf000055-resize_1/002213_2014-06-28_18-37-58_260595134347_rgbf000055-resize_1-target.png,1000,3.62,0.0,10251,994,feet,jsons/v1_VE1000_randls_56.json,1515494,1867115,37,Woman
64,175604,DepthScenes,duration_manipulation_targetAtFixation,jsons/v1_VE1000_randls_56.json,http://54.235.29.9/FacialAge/BNav_EC2/DepthDuration/v2_depth_duration_MTurk/v2_DepthDuration_HTML.html#27,27,1280,577,1280,720,8-29-2022,14-29-27,65,depth_duration_stimuli/000691_2014-06-08_13-08-50_260595134347_rgbf000132-resize_3/000691_2014-06-08_13-08-50_260595134347_rgbf000132-resize_3-target.png,1000,4.1530000000000005,0.15,8005,1000,feet,jsons/v1_VE1000_randls_56.json,1515494,1867115,37,Woman
65,175604,DepthScenes,duration_manipulation_targetAtFixation,jsons/v1_VE1000_randls_56.json,http://54.235.29.9/FacialAge/BNav_EC2/DepthDuration/v2_depth_duration_MTurk/v2_DepthDuration_HTML.html#27,27,1280,577,1280,720,8-29-2022,14-29-27,66,depth_duration_stimuli/001222_2014-06-17_16-24-06_260595134347_rgbf000073-resize_0/001222_2014-06-17_16-24-06_260595134347_rgbf000073-resize-original.jpg,1000,1.4385,0.0,8226,999,feet,jsons/v1_VE1000_randls_56.json,1515494,1867115,37,Woman
66,175604,DepthScenes,duration_manipulation_targetAtFixation,jsons/v1_VE1000_randls_56.json,http://54.235.29.9/FacialAge/BNav_EC2/DepthDuration/v2_depth_duration_MTurk/v2_DepthDuration_HTML.html#27,27,1280,577,1280,720,8-29-2022,14-29-27,67,depth_duration_stimuli/000469_2014-06-09_19-42-10_260595134347_rgbf000081-resize_1/000469_2014-06-09_19-42-10_260595134347_rgbf000081-resize_1-target.png,1000,1.652,0.05,7850,1001,feet,jsons/v1_VE1000_randls_56.json,1515494,1867115,37,Woman
67,175604,DepthScenes,duration_manipulation_targetAtFixation,jsons/v1_VE1000_randls_56.json,http://54.235.29.9/FacialAge/BNav_EC2/DepthDuration/v2_depth_duration_MTurk/v2_DepthDuration_HTML.html#27,27,1280,577,1280,720,8-29-2022,14-29-27,68,depth_duration_stimuli/000483_2014-06-09_20-41-45_260595134347_rgbf000116-resize_4/000483_2014-06-09_20-41-45_260595134347_rgbf000116-resize_4-target.png,1000,1.337,0.0,4313,998,feet,jsons/v1_VE1000_randls_56.json,1515494,1867115,37,Woman
68,175604,DepthScenes,duration_manipulation_targetAtFixation,jsons/v1_VE1000_randls_56.json,http://54.235.29.9/FacialAge/BNav_EC2/DepthDuration/v2_depth_duration_MTurk/v2_DepthDuration_HTML.html#27,27,1280,577,1280,720,8-29-2022,14-29-27,69,depth_duration_stimuli/000642_2014-06-08_16-59-25_260595134347_rgbf000098-resize_2/000642_2014-06-08_16-59-25_260595134347_rgbf000098-resize_2-target.png,1000,2.8815,0.02,6129,999,feet,jsons/v1_VE1000_randls_56.json,1515494,1867115,37,Woman
69,175604,DepthScenes,duration_manipulation_targetAtFixation,jsons/v1_VE1000_randls_56.json,http://54.235.29.9/FacialAge/BNav_EC2/DepthDuration/v2_depth_duration_MTurk/v2_DepthDuration_HTML.html#27,27,1280,577,1280,720,8-29-2022,14-29-27,70,depth_duration_stimuli/002425_2014-06-28_20-27-29_260595134347_rgbf000031-resize_8/002425_2014-06-28_20-27-29_260595134347_rgbf000031-resize_8-target.png,1000,3.8960000000000004,0.2,7146,999,feet,jsons/v1_VE1000_randls_56.json,1515494,1867115,37,Woman
70,175604,DepthScenes,duration_manipulation_targetAtFixation,jsons/v1_VE1000_randls_56.json,http://54.235.29.9/FacialAge/BNav_EC2/DepthDuration/v2_depth_duration_MTurk/v2_DepthDuration_HTML.html#27,27,1280,577,1280,720,8-29-2022,14-29-27,71,depth_duration_stimuli/002118_2014-06-25_20-32-08_260595134347_rgbf000078-resize_1/002118_2014-06-25_20-32-08_260595134347_rgbf000078-resize_1-target.png,1000,2.6460000000000004,0.04,6616,998,feet,jsons/v1_VE1000_randls_56.json,1515494,1867115,37,Woman
71,175604,DepthScenes,duration_manipulation_targetAtFixation,jsons/v1_VE1000_randls_56.json,http://54.235.29.9/FacialAge/BNav_EC2/DepthDuration/v2_depth_duration_MTurk/v2_DepthDuration_HTML.html#27,27,1280,577,1280,720,8-29-2022,14-29-27,72,depth_duration_stimuli/001516_2014-06-20_16-25-09_260595134347_rgbf000076-resize_2/001516_2014-06-20_16-25-09_260595134347_rgbf000076-resize_2-target.png,1000,1.7445,0.26,6424,1000,feet,jsons/v1_VE1000_randls_56.json,1515494,1867115,37,Woman
72,175604,DepthScenes,duration_manipulation_targetAtFixation,jsons/v1_VE1000_randls_56.json,http://54.235.29.9/FacialAge/BNav_EC2/DepthDuration/v2_depth_duration_MTurk/v2_DepthDuration_HTML.html#27,27,1280,577,1280,720,8-29-2022,14-29-27,73,depth_duration_stimuli/000486_2014-06-09_20-47-20_260595134347_rgbf000143-resize_2/000486_2014-06-09_20-47-20_260595134347_rgbf000143-resize_2-target.png,1000,4.8325,0.09,8668,1000,feet,jsons/v1_VE1000_randls_56.json,1515494,1867115,37,Woman
73,175604,DepthScenes,duration_manipulation_targetAtFixation,jsons/v1_VE1000_randls_56.json,http://54.235.29.9/FacialAge/BNav_EC2/DepthDuration/v2_depth_duration_MTurk/v2_DepthDuration_HTML.html#27,27,1280,577,1280,720,8-29-2022,14-29-27,74,depth_duration_stimuli/003083_2014-06-15_15-21-03_094959634447_rgbf000063-resize_1/003083_2014-06-15_15-21-03_094959634447_rgbf000063-resize_1-target.png,1000,4.1405,0.2,7089,999,feet,jsons/v1_VE1000_randls_56.json,1515494,1867115,37,Woman
74,175604,DepthScenes,duration_manipulation_targetAtFixation,jsons/v1_VE1000_randls_56.json,http://54.235.29.9/FacialAge/BNav_EC2/DepthDuration/v2_depth_duration_MTurk/v2_DepthDuration_HTML.html#27,27,1280,577,1280,720,8-29-2022,14-29-27,75,depth_duration_stimuli/000788_2014-06-08_22-34-36_260595134347_rgbf000131-resize_1/000788_2014-06-08_22-34-36_260595134347_rgbf000131-resize_1-target.png,1000,3.359,0.0,7953,984,feet,jsons/v1_VE1000_randls_56.json,1515494,1867115,37,Woman
75,175604,DepthScenes,duration_manipulation_targetAtFixation,jsons/v1_VE1000_randls_56.json,http://54.235.29.9/FacialAge/BNav_EC2/DepthDuration/v2_depth_duration_MTurk/v2_DepthDuration_HTML.html#27,27,1280,577,1280,720,8-29-2022,14-29-27,76,depth_duration_stimuli/001235_2014-06-17_16-37-36_260595134347_rgbf000084-resize_4/001235_2014-06-17_16-37-36_260595134347_rgbf000084-resize_4-target.png,1000,3.6605,0.0,7497,998,feet,jsons/v1_VE1000_randls_56.json,1515494,1867115,37,Woman
76,175604,DepthScenes,duration_manipulation_targetAtFixation,jsons/v1_VE1000_randls_56.json,http://54.235.29.9/FacialAge/BNav_EC2/DepthDuration/v2_depth_duration_MTurk/v2_DepthDuration_HTML.html#27,27,1280,577,1280,720,8-29-2022,14-29-27,77,depth_duration_stimuli/001133_2014-06-17_14-49-16_260595134347_rgbf000100-resize_0/001133_2014-06-17_14-49-16_260595134347_rgbf000100-resize_0-target.png,1000,4.2115,0.1,5974,998,feet,jsons/v1_VE1000_randls_56.json,1515494,1867115,37,Woman
77,175604,DepthScenes,duration_manipulation_targetAtFixation,jsons/v1_VE1000_randls_56.json,http://54.235.29.9/FacialAge/BNav_EC2/DepthDuration/v2_depth_duration_MTurk/v2_DepthDuration_HTML.html#27,27,1280,577,1280,720,8-29-2022,14-29-27,78,depth_duration_stimuli/001132_2014-06-17_14-48-54_260595134347_rgbf000100-resize_2/001132_2014-06-17_14-48-54_260595134347_rgbf000100-resize_2-target.png,1000,3.753,0.05,6378,998,feet,jsons/v1_VE1000_randls_56.json,1515494,1867115,37,Woman
78,175604,DepthScenes,duration_manipulation_targetAtFixation,jsons/v1_VE1000_randls_56.json,http://54.235.29.9/FacialAge/BNav_EC2/DepthDuration/v2_depth_duration_MTurk/v2_DepthDuration_HTML.html#27,27,1280,577,1280,720,8-29-2022,14-29-27,79,depth_duration_stimuli/002057_2014-06-24_21-00-13_260595134347_rgbf000120-resize_1/002057_2014-06-24_21-00-13_260595134347_rgbf000120-resize_1-target.png,1000,2.967,0.15,9485,1000,feet,jsons/v1_VE1000_randls_56.json,1515494,1867115,37,Woman
79,175604,DepthScenes,duration_manipulation_targetAtFixation,jsons/v1_VE1000_randls_56.json,http://54.235.29.9/FacialAge/BNav_EC2/DepthDuration/v2_depth_duration_MTurk/v2_DepthDuration_HTML.html#27,27,1280,577,1280,720,8-29-2022,14-29-27,80,depth_duration_stimuli/000709_2014-06-08_13-51-55_260595134347_rgbf000068-resize_3/000709_2014-06-08_13-51-55_260595134347_rgbf000068-resize_3-target.png,1000,1.8030000000000002,0.0,9162,1000,feet,jsons/v1_VE1000_randls_56.json,1515494,1867115,37,Woman
80,175604,DepthScenes,duration_manipulation_targetAtFixation,jsons/v1_VE1000_randls_56.json,http://54.235.29.9/FacialAge/BNav_EC2/DepthDuration/v2_depth_duration_MTurk/v2_DepthDuration_HTML.html#27,27,1280,577,1280,720,8-29-2022,14-29-27,81,depth_duration_stimuli/001199_2014-06-17_16-03-48_260595134347_rgbf000077-resize_0/001199_2014-06-17_16-03-48_260595134347_rgbf000077-resize_0-target.png,1000,3.4375,0.15,7491,1009,feet,jsons/v1_VE1000_randls_56.json,1515494,1867115,37,Woman
81,175604,DepthScenes,duration_manipulation_targetAtFixation,jsons/v1_VE1000_randls_56.json,http://54.235.29.9/FacialAge/BNav_EC2/DepthDuration/v2_depth_duration_MTurk/v2_DepthDuration_HTML.html#27,27,1280,577,1280,720,8-29-2022,14-29-27,82,depth_duration_stimuli/000502_2014-06-08_23-02-32_260595134347_rgbf000063-resize_4/000502_2014-06-08_23-02-32_260595134347_rgbf000063-resize_4-target.png,1000,2.431,0.05,7337,997,feet,jsons/v1_VE1000_randls_56.json,1515494,1867115,37,Woman
82,175604,DepthScenes,duration_manipulation_targetAtFixation,jsons/v1_VE1000_randls_56.json,http://54.235.29.9/FacialAge/BNav_EC2/DepthDuration/v2_depth_duration_MTurk/v2_DepthDuration_HTML.html#27,27,1280,577,1280,720,8-29-2022,14-29-27,83,depth_duration_stimuli/002630_2014-06-24_14-47-50_094959634447_rgbf000055-resize_1/002630_2014-06-24_14-47-50_094959634447_rgbf000055-resize_1-target.png,1000,3.0095,0.04,6073,999,feet,jsons/v1_VE1000_randls_56.json,1515494,1867115,37,Woman
83,175604,DepthScenes,duration_manipulation_targetAtFixation,jsons/v1_VE1000_randls_56.json,http://54.235.29.9/FacialAge/BNav_EC2/DepthDuration/v2_depth_duration_MTurk/v2_DepthDuration_HTML.html#27,27,1280,577,1280,720,8-29-2022,14-29-27,84,depth_duration_stimuli/002758_2014-06-22_19-11-20_094959634447_rgbf000128-resize_1/002758_2014-06-22_19-11-20_094959634447_rgbf000128-resize_1-target.png,1000,2.555,0.07,9079,999,feet,jsons/v1_VE1000_randls_56.json,1515494,1867115,37,Woman
84,175604,DepthScenes,duration_manipulation_targetAtFixation,jsons/v1_VE1000_randls_56.json,http://54.235.29.9/FacialAge/BNav_EC2/DepthDuration/v2_depth_duration_MTurk/v2_DepthDuration_HTML.html#27,27,1280,577,1280,720,8-29-2022,14-29-27,85,depth_duration_stimuli/001806_2014-06-26_20-50-20_260595134347_rgbf000091-resize_1/001806_2014-06-26_20-50-20_260595134347_rgbf000091-resize_1-target.png,1000,2.7305,0.1,6208,998,feet,jsons/v1_VE1000_randls_56.json,1515494,1867115,37,Woman
85,175604,DepthScenes,duration_manipulation_targetAtFixation,jsons/v1_VE1000_randls_56.json,http://54.235.29.9/FacialAge/BNav_EC2/DepthDuration/v2_depth_duration_MTurk/v2_DepthDuration_HTML.html#27,27,1280,577,1280,720,8-29-2022,14-29-27,86,depth_duration_stimuli/001617_2014-06-20_11-35-32_260595134347_rgbf000066-resize_1/001617_2014-06-20_11-35-32_260595134347_rgbf000066-resize_1-target.png,1000,3.7910000000000004,16.0,135219,1000,feet,jsons/v1_VE1000_randls_56.json,1515494,1867115,37,Woman
86,175604,DepthScenes,duration_manipulation_targetAtFixation,jsons/v1_VE1000_randls_56.json,http://54.235.29.9/FacialAge/BNav_EC2/DepthDuration/v2_depth_duration_MTurk/v2_DepthDuration_HTML.html#27,27,1280,577,1280,720,8-29-2022,14-29-27,87,depth_duration_stimuli/001056_2014-06-08_18-46-44_260595134347_rgbf000068-resize_0/001056_2014-06-08_18-46-44_260595134347_rgbf000068-resize_0-target.png,1000,2.6625,0.08,11039,1000,feet,jsons/v1_VE1000_randls_56.json,1515494,1867115,37,Woman
87,175604,DepthScenes,duration_manipulation_targetAtFixation,jsons/v1_VE1000_randls_56.json,http://54.235.29.9/FacialAge/BNav_EC2/DepthDuration/v2_depth_duration_MTurk/v2_DepthDuration_HTML.html#27,27,1280,577,1280,720,8-29-2022,14-29-27,88,depth_duration_stimuli/002199_2014-06-28_18-33-56_260595134347_rgbf000074-resize_0/002199_2014-06-28_18-33-56_260595134347_rgbf000074-resize_0-target.png,1000,1.996,0.1,6101,1000,feet,jsons/v1_VE1000_randls_56.json,1515494,1867115,37,Woman
88,175604,DepthScenes,duration_manipulation_targetAtFixation,jsons/v1_VE1000_randls_56.json,http://54.235.29.9/FacialAge/BNav_EC2/DepthDuration/v2_depth_duration_MTurk/v2_DepthDuration_HTML.html#27,27,1280,577,1280,720,8-29-2022,14-29-27,89,depth_duration_stimuli/002549_2014-06-24_13-41-39_094959634447_rgbf000022-resize_3/002549_2014-06-24_13-41-39_094959634447_rgbf000022-resize_3-target.png,1000,1.476,0.15,6347,999,feet,jsons/v1_VE1000_randls_56.json,1515494,1867115,37,Woman
89,175604,DepthScenes,duration_manipulation_targetAtFixation,jsons/v1_VE1000_randls_56.json,http://54.235.29.9/FacialAge/BNav_EC2/DepthDuration/v2_depth_duration_MTurk/v2_DepthDuration_HTML.html#27,27,1280,577,1280,720,8-29-2022,14-29-27,90,depth_duration_stimuli/002750_2014-06-22_19-08-03_094959634447_rgbf000094-resize_4/002750_2014-06-22_19-08-03_094959634447_rgbf000094-resize_4-target.png,1000,2.354,0.1,8570,995,feet,jsons/v1_VE1000_randls_56.json,1515494,1867115,37,Woman
90,175604,DepthScenes,duration_manipulation_targetAtFixation,jsons/v1_VE1000_randls_56.json,http://54.235.29.9/FacialAge/BNav_EC2/DepthDuration/v2_depth_duration_MTurk/v2_DepthDuration_HTML.html#27,27,1280,577,1280,720,8-29-2022,14-29-27,91,depth_duration_stimuli/002748_2014-06-22_19-07-22_094959634447_rgbf000078-resize_1/002748_2014-06-22_19-07-22_094959634447_rgbf000078-resize_1-target.png,1000,4.6705,0.3,11987,998,feet,jsons/v1_VE1000_randls_56.json,1515494,1867115,37,Woman
91,175604,DepthScenes,duration_manipulation_targetAtFixation,jsons/v1_VE1000_randls_56.json,http://54.235.29.9/FacialAge/BNav_EC2/DepthDuration/v2_depth_duration_MTurk/v2_DepthDuration_HTML.html#27,27,1280,577,1280,720,8-29-2022,14-29-27,92,depth_duration_stimuli/002995_2014-06-15_12-31-26_094959634447_rgbf000150-resize_1/002995_2014-06-15_12-31-26_094959634447_rgbf000150-resize_1-target.png,1000,3.8360000000000003,0.2,8538,999,feet,jsons/v1_VE1000_randls_56.json,1515494,1867115,37,Woman
92,175604,DepthScenes,duration_manipulation_targetAtFixation,jsons/v1_VE1000_randls_56.json,http://54.235.29.9/FacialAge/BNav_EC2/DepthDuration/v2_depth_duration_MTurk/v2_DepthDuration_HTML.html#27,27,1280,577,1280,720,8-29-2022,14-29-27,93,depth_duration_stimuli/001011_2014-06-08_23-18-54_260595134347_rgbf000044-resize_4/001011_2014-06-08_23-18-54_260595134347_rgbf000044-resize_4-target.png,1000,2.4730000000000003,0.15,9163,998,feet,jsons/v1_VE1000_randls_56.json,1515494,1867115,37,Woman
93,175604,DepthScenes,duration_manipulation_targetAtFixation,jsons/v1_VE1000_randls_56.json,http://54.235.29.9/FacialAge/BNav_EC2/DepthDuration/v2_depth_duration_MTurk/v2_DepthDuration_HTML.html#27,27,1280,577,1280,720,8-29-2022,14-29-27,94,depth_duration_stimuli/002875_2014-06-01_15-19-00_094959634447_rgbf000151-resize_1/002875_2014-06-01_15-19-00_094959634447_rgbf000151-resize_1-target.png,1000,1.9675,0.1,6399,999,feet,jsons/v1_VE1000_randls_56.json,1515494,1867115,37,Woman
94,175604,DepthScenes,duration_manipulation_targetAtFixation,jsons/v1_VE1000_randls_56.json,http://54.235.29.9/FacialAge/BNav_EC2/DepthDuration/v2_depth_duration_MTurk/v2_DepthDuration_HTML.html#27,27,1280,577,1280,720,8-29-2022,14-29-27,95,depth_duration_stimuli/003070_2014-06-15_14-58-27_094959634447_rgbf000150-resize_3/003070_2014-06-15_14-58-27_094959634447_rgbf000150-resize_3-target.png,1000,2.9415,0.1,7208,978,feet,jsons/v1_VE1000_randls_56.json,1515494,1867115,37,Woman
95,175604,DepthScenes,duration_manipulation_targetAtFixation,jsons/v1_VE1000_randls_56.json,http://54.235.29.9/FacialAge/BNav_EC2/DepthDuration/v2_depth_duration_MTurk/v2_DepthDuration_HTML.html#27,27,1280,577,1280,720,8-29-2022,14-29-27,96,depth_duration_stimuli/000943_2014-06-09_19-31-07_260595134347_rgbf000128-resize_1/000943_2014-06-09_19-31-07_260595134347_rgbf000128-resize_1-target.png,1000,1.9765,0.15,7138,999,feet,jsons/v1_VE1000_randls_56.json,1515494,1867115,37,Woman
96,175604,DepthScenes,duration_manipulation_targetAtFixation,jsons/v1_VE1000_randls_56.json,http://54.235.29.9/FacialAge/BNav_EC2/DepthDuration/v2_depth_duration_MTurk/v2_DepthDuration_HTML.html#27,27,1280,577,1280,720,8-29-2022,14-29-27,97,depth_duration_stimuli/002989_2014-06-15_12-25-03_094959634447_rgbf000150-resize_3/002989_2014-06-15_12-25-03_094959634447_rgbf000150-resize_3-target.png,1000,4.1975,0.05,7400,997,feet,jsons/v1_VE1000_randls_56.json,1515494,1867115,37,Woman
97,175604,DepthScenes,duration_manipulation_targetAtFixation,jsons/v1_VE1000_randls_56.json,http://54.235.29.9/FacialAge/BNav_EC2/DepthDuration/v2_depth_duration_MTurk/v2_DepthDuration_HTML.html#27,27,1280,577,1280,720,8-29-2022,14-29-27,98,depth_duration_stimuli/000866_2014-06-09_20-45-42_260595134347_rgbf000139-resize_1/000866_2014-06-09_20-45-42_260595134347_rgbf000139-resize_1-target.png,1000,3.2155,0.15,7085,1000,feet,jsons/v1_VE1000_randls_56.json,1515494,1867115,37,Woman
98,175604,DepthScenes,duration_manipulation_targetAtFixation,jsons/v1_VE1000_randls_56.json,http://54.235.29.9/FacialAge/BNav_EC2/DepthDuration/v2_depth_duration_MTurk/v2_DepthDuration_HTML.html#27,27,1280,577,1280,720,8-29-2022,14-29-27,99,depth_duration_stimuli/001540_2014-06-20_17-01-05_260595134347_rgbf000086-resize_2/001540_2014-06-20_17-01-05_260595134347_rgbf000086-resize-original.jpg,1000,1.459,0.05,9784,988,feet,jsons/v1_VE1000_randls_56.json,1515494,1867115,37,Woman
99,175604,DepthScenes,duration_manipulation_targetAtFixation,jsons/v1_VE1000_randls_56.json,http://54.235.29.9/FacialAge/BNav_EC2/DepthDuration/v2_depth_duration_MTurk/v2_DepthDuration_HTML.html#27,27,1280,577,1280,720,8-29-2022,14-29-27,100,depth_duration_stimuli/002279_2014-06-28_18-55-32_260595134347_rgbf000040-resize_5/002279_2014-06-28_18-55-32_260595134347_rgbf000040-resize_5-target.png,1000,1.5043333333333,0.13,8493,1000,feet,jsons/v1_VE1000_randls_56.json,1515494,1867115,37,Woman
100,175604,DepthScenes,duration_manipulation_targetAtFixation,jsons/v1_VE1000_randls_56.json,http://54.235.29.9/FacialAge/BNav_EC2/DepthDuration/v2_depth_duration_MTurk/v2_DepthDuration_HTML.html#27,27,1280,577,1280,720,8-29-2022,14-29-27,101,depth_duration_stimuli/000635_2014-06-08_16-38-42_260595134347_rgbf000106-resize_1/000635_2014-06-08_16-38-42_260595134347_rgbf000106-resize_1-target.png,1000,2.074,0.06,5875,998,feet,jsons/v1_VE1000_randls_56.json,1515494,1867115,37,Woman
101,175604,DepthScenes,duration_manipulation_targetAtFixation,jsons/v1_VE1000_randls_56.json,http://54.235.29.9/FacialAge/BNav_EC2/DepthDuration/v2_depth_duration_MTurk/v2_DepthDuration_HTML.html#27,27,1280,577,1280,720,8-29-2022,14-29-27,102,depth_duration_stimuli/001164_2014-06-17_15-35-46_260595134347_rgbf000085-resize_3/001164_2014-06-17_15-35-46_260595134347_rgbf000085-resize_3-target.png,1000,2.354,0.1,11008,1000,feet,jsons/v1_VE1000_randls_56.json,1515494,1867115,37,Woman
102,175604,DepthScenes,duration_manipulation_targetAtFixation,jsons/v1_VE1000_randls_56.json,http://54.235.29.9/FacialAge/BNav_EC2/DepthDuration/v2_depth_duration_MTurk/v2_DepthDuration_HTML.html#27,27,1280,577,1280,720,8-29-2022,14-29-27,103,depth_duration_stimuli/001136_2014-06-17_15-19-41_260595134347_rgbf000076-resize_3/001136_2014-06-17_15-19-41_260595134347_rgbf000076-resize_3-target.png,1000,1.8655,0.15,15893,984,feet,jsons/v1_VE1000_randls_56.json,1515494,1867115,37,Woman
103,175604,DepthScenes,duration_manipulation_targetAtFixation,jsons/v1_VE1000_randls_56.json,http://54.235.29.9/FacialAge/BNav_EC2/DepthDuration/v2_depth_duration_MTurk/v2_DepthDuration_HTML.html#27,27,1280,577,1280,720,8-29-2022,14-29-27,104,depth_duration_stimuli/000682_2014-06-08_23-14-58_260595134347_rgbf000041-resize_5/000682_2014-06-08_23-14-58_260595134347_rgbf000041-resize_5-target.png,1000,2.7239999999999998,0.05,7444,986,feet,jsons/v1_VE1000_randls_56.json,1515494,1867115,37,Woman
104,175604,DepthScenes,duration_manipulation_targetAtFixation,jsons/v1_VE1000_randls_56.json,http://54.235.29.9/FacialAge/BNav_EC2/DepthDuration/v2_depth_duration_MTurk/v2_DepthDuration_HTML.html#27,27,1280,577,1280,720,8-29-2022,14-29-27,105,depth_duration_stimuli/001650_2014-06-20_12-09-00_260595134347_rgbf000087-resize_3/001650_2014-06-20_12-09-00_260595134347_rgbf000087-resize_3-target.png,1000,1.9505,0.0,6895,998,feet,jsons/v1_VE1000_randls_56.json,1515494,1867115,37,Woman
105,175604,DepthScenes,duration_manipulation_targetAtFixation,jsons/v1_VE1000_randls_56.json,http://54.235.29.9/FacialAge/BNav_EC2/DepthDuration/v2_depth_duration_MTurk/v2_DepthDuration_HTML.html#27,27,1280,577,1280,720,8-29-2022,14-29-27,106,depth_duration_stimuli/001150_2014-06-17_15-27-34_260595134347_rgbf000108-resize_2/001150_2014-06-17_15-27-34_260595134347_rgbf000108-resize_2-target.png,1000,4.0325,0.1,7259,992,feet,jsons/v1_VE1000_randls_56.json,1515494,1867115,37,Woman
106,175604,DepthScenes,duration_manipulation_targetAtFixation,jsons/v1_VE1000_randls_56.json,http://54.235.29.9/FacialAge/BNav_EC2/DepthDuration/v2_depth_duration_MTurk/v2_DepthDuration_HTML.html#27,27,1280,577,1280,720,8-29-2022,14-29-27,107,depth_duration_stimuli/000665_2014-06-09_20-42-35_260595134347_rgbf000110-resize_1/000665_2014-06-09_20-42-35_260595134347_rgbf000110-resize_1-target.png,1000,3.057,0.0,9058,986,feet,jsons/v1_VE1000_randls_56.json,1515494,1867115,37,Woman
107,175604,DepthScenes,duration_manipulation_targetAtFixation,jsons/v1_VE1000_randls_56.json,http://54.235.29.9/FacialAge/BNav_EC2/DepthDuration/v2_depth_duration_MTurk/v2_DepthDuration_HTML.html#27,27,1280,577,1280,720,8-29-2022,14-29-27,108,depth_duration_stimuli/001175_2014-06-17_15-45-55_260595134347_rgbf000129-resize_4/001175_2014-06-17_15-45-55_260595134347_rgbf000129-resize_4-target.png,1000,4.255,0.15,10400,1000,feet,jsons/v1_VE1000_randls_56.json,1515494,1867115,37,Woman
108,175604,DepthScenes,duration_manipulation_targetAtFixation,jsons/v1_VE1000_randls_56.json,http://54.235.29.9/FacialAge/BNav_EC2/DepthDuration/v2_depth_duration_MTurk/v2_DepthDuration_HTML.html#27,27,1280,577,1280,720,8-29-2022,14-29-27,109,depth_duration_stimuli/003490_2014-05-21_15-50-11_094959634447_rgbf000101-resize_3/003490_2014-05-21_15-50-11_094959634447_rgbf000101-resize_3-target.png,1000,3.6445,0.05,5925,986,feet,jsons/v1_VE1000_randls_56.json,1515494,1867115,37,Woman
109,175604,DepthScenes,duration_manipulation_targetAtFixation,jsons/v1_VE1000_randls_56.json,http://54.235.29.9/FacialAge/BNav_EC2/DepthDuration/v2_depth_duration_MTurk/v2_DepthDuration_HTML.html#27,27,1280,577,1280,720,8-29-2022,14-29-27,110,depth_duration_stimuli/001244_2014-06-17_16-47-45_260595134347_rgbf000030-resize_4/001244_2014-06-17_16-47-45_260595134347_rgbf000030-resize_4-target.png,1000,2.0425,0.1,5793,998,feet,jsons/v1_VE1000_randls_56.json,1515494,1867115,37,Woman
110,175604,DepthScenes,duration_manipulation_targetAtFixation,jsons/v1_VE1000_randls_56.json,http://54.235.29.9/FacialAge/BNav_EC2/DepthDuration/v2_depth_duration_MTurk/v2_DepthDuration_HTML.html#27,27,1280,577,1280,720,8-29-2022,14-29-27,111,depth_duration_stimuli/003495_2014-05-21_16-01-51_094959634447_rgbf000100-resize_3/003495_2014-05-21_16-01-51_094959634447_rgbf000100-resize_3-target.png,1000,1.6255,0.05,7239,998,feet,jsons/v1_VE1000_randls_56.json,1515494,1867115,37,Woman
111,175604,DepthScenes,duration_manipulation_targetAtFixation,jsons/v1_VE1000_randls_56.json,http://54.235.29.9/FacialAge/BNav_EC2/DepthDuration/v2_depth_duration_MTurk/v2_DepthDuration_HTML.html#27,27,1280,577,1280,720,8-29-2022,14-29-27,112,depth_duration_stimuli/000773_2014-06-08_22-24-54_260595134347_rgbf000093-resize_1/000773_2014-06-08_22-24-54_260595134347_rgbf000093-resize_1-target.png,1000,4.973,0.1,5941,999,feet,jsons/v1_VE1000_randls_56.json,1515494,1867115,37,Woman
112,175604,DepthScenes,duration_manipulation_targetAtFixation,jsons/v1_VE1000_randls_56.json,http://54.235.29.9/FacialAge/BNav_EC2/DepthDuration/v2_depth_duration_MTurk/v2_DepthDuration_HTML.html#27,27,1280,577,1280,720,8-29-2022,14-29-27,113,depth_duration_stimuli/002414_2014-06-28_20-24-58_260595134347_rgbf000067-resize_4/002414_2014-06-28_20-24-58_260595134347_rgbf000067-resize_4-target.png,1000,4.363,0.15,7772,998,feet,jsons/v1_VE1000_randls_56.json,1515494,1867115,37,Woman
113,175604,DepthScenes,duration_manipulation_targetAtFixation,jsons/v1_VE1000_randls_56.json,http://54.235.29.9/FacialAge/BNav_EC2/DepthDuration/v2_depth_duration_MTurk/v2_DepthDuration_HTML.html#27,27,1280,577,1280,720,8-29-2022,14-29-27,114,depth_duration_stimuli/000736_2014-06-08_18-24-15_260595134347_rgbf000206-resize_3/000736_2014-06-08_18-24-15_260595134347_rgbf000206-resize_3-target.png,1000,3.515,0.1,9794,990,feet,jsons/v1_VE1000_randls_56.json,1515494,1867115,37,Woman
114,175604,DepthScenes,duration_manipulation_targetAtFixation,jsons/v1_VE1000_randls_56.json,http://54.235.29.9/FacialAge/BNav_EC2/DepthDuration/v2_depth_duration_MTurk/v2_DepthDuration_HTML.html#27,27,1280,577,1280,720,8-29-2022,14-29-27,115,depth_duration_stimuli/000137_2014-05-20_17-04-49_260595134347_rgbf000120-resize_1/000137_2014-05-20_17-04-49_260595134347_rgbf000120-resize_1-target.png,1000,3.786,0.1,6862,999,feet,jsons/v1_VE1000_randls_56.json,1515494,1867115,37,Woman
115,175604,DepthScenes,duration_manipulation_targetAtFixation,jsons/v1_VE1000_randls_56.json,http://54.235.29.9/FacialAge/BNav_EC2/DepthDuration/v2_depth_duration_MTurk/v2_DepthDuration_HTML.html#27,27,1280,577,1280,720,8-29-2022,14-29-27,116,depth_duration_stimuli/001170_2014-06-17_15-43-44_260595134347_rgbf000096-resize_6/001170_2014-06-17_15-43-44_260595134347_rgbf000096-resize-original.jpg,1000,1.1909999999999998,0.05,10148,998,feet,jsons/v1_VE1000_randls_56.json,1515494,1867115,37,Woman
116,175604,DepthScenes,duration_manipulation_targetAtFixation,jsons/v1_VE1000_randls_56.json,http://54.235.29.9/FacialAge/BNav_EC2/DepthDuration/v2_depth_duration_MTurk/v2_DepthDuration_HTML.html#27,27,1280,577,1280,720,8-29-2022,14-29-27,117,depth_duration_stimuli/001092_2014-06-15_17-34-58_260595134347_rgbf000171-resize_3/001092_2014-06-15_17-34-58_260595134347_rgbf000171-resize_3-target.png,1000,2.6935,0.0,8524,1007,feet,jsons/v1_VE1000_randls_56.json,1515494,1867115,37,Woman
117,175604,DepthScenes,duration_manipulation_targetAtFixation,jsons/v1_VE1000_randls_56.json,http://54.235.29.9/FacialAge/BNav_EC2/DepthDuration/v2_depth_duration_MTurk/v2_DepthDuration_HTML.html#27,27,1280,577,1280,720,8-29-2022,14-29-27,118,depth_duration_stimuli/002545_2014-06-24_13-38-53_094959634447_rgbf000080-resize_4/002545_2014-06-24_13-38-53_094959634447_rgbf000080-resize_4-target.png,1000,1.9205,0.02,6127,1013,feet,jsons/v1_VE1000_randls_56.json,1515494,1867115,37,Woman
118,175604,DepthScenes,duration_manipulation_targetAtFixation,jsons/v1_VE1000_randls_56.json,http://54.235.29.9/FacialAge/BNav_EC2/DepthDuration/v2_depth_duration_MTurk/v2_DepthDuration_HTML.html#27,27,1280,577,1280,720,8-29-2022,14-29-27,119,depth_duration_stimuli/002788_2014-06-22_19-36-03_094959634447_rgbf000088-resize_2/002788_2014-06-22_19-36-03_094959634447_rgbf000088-resize_2-target.png,1000,1.6465,0.1,9383,1000,feet,jsons/v1_VE1000_randls_56.json,1515494,1867115,37,Woman
119,175604,DepthScenes,duration_manipulation_targetAtFixation,jsons/v1_VE1000_randls_56.json,http://54.235.29.9/FacialAge/BNav_EC2/DepthDuration/v2_depth_duration_MTurk/v2_DepthDuration_HTML.html#27,27,1280,577,1280,720,8-29-2022,14-29-27,120,depth_duration_stimuli/000749_2014-06-08_21-55-06_260595134347_rgbf000070-resize_2/000749_2014-06-08_21-55-06_260595134347_rgbf000070-resize_2-target.png,1000,2.331,0.02,6150,1000,feet,jsons/v1_VE1000_randls_56.json,1515494,1867115,37,Woman
120,175604,DepthScenes,duration_manipulation_targetAtFixation,jsons/v1_VE1000_randls_56.json,http://54.235.29.9/FacialAge/BNav_EC2/DepthDuration/v2_depth_duration_MTurk/v2_DepthDuration_HTML.html#27,27,1280,577,1280,720,8-29-2022,14-29-27,121,depth_duration_stimuli/002988_2014-06-15_12-24-20_094959634447_rgbf000150-resize_1/002988_2014-06-15_12-24-20_094959634447_rgbf000150-resize_1-target.png,1000,4.7669999999999995,0.15,13548,1000,feet,jsons/v1_VE1000_randls_56.json,1515494,1867115,37,Woman
121,175604,DepthScenes,duration_manipulation_targetAtFixation,jsons/v1_VE1000_randls_56.json,http://54.235.29.9/FacialAge/BNav_EC2/DepthDuration/v2_depth_duration_MTurk/v2_DepthDuration_HTML.html#27,27,1280,577,1280,720,8-29-2022,14-29-27,122,depth_duration_stimuli/001052_2014-06-08_18-24-54_260595134347_rgbf000130-resize_1/001052_2014-06-08_18-24-54_260595134347_rgbf000130-resize_1-target.png,1000,4.1045,0.0,6563,1000,feet,jsons/v1_VE1000_randls_56.json,1515494,1867115,37,Woman
122,175604,DepthScenes,duration_manipulation_targetAtFixation,jsons/v1_VE1000_randls_56.json,http://54.235.29.9/FacialAge/BNav_EC2/DepthDuration/v2_depth_duration_MTurk/v2_DepthDuration_HTML.html#27,27,1280,577,1280,720,8-29-2022,14-29-27,123,depth_duration_stimuli/000739_2014-06-08_18-45-58_260595134347_rgbf000068-resize_1/000739_2014-06-08_18-45-58_260595134347_rgbf000068-resize_1-target.png,1000,3.534,0.2,8175,997,feet,jsons/v1_VE1000_randls_56.json,1515494,1867115,37,Woman
123,175604,DepthScenes,duration_manipulation_targetAtFixation,jsons/v1_VE1000_randls_56.json,http://54.235.29.9/FacialAge/BNav_EC2/DepthDuration/v2_depth_duration_MTurk/v2_DepthDuration_HTML.html#27,27,1280,577,1280,720,8-29-2022,14-29-27,124,depth_duration_stimuli/000734_2014-06-08_17-39-11_260595134347_rgbf000128-resize_2/000734_2014-06-08_17-39-11_260595134347_rgbf000128-resize_2-target.png,1000,4.098,0.1,5930,999,feet,jsons/v1_VE1000_randls_56.json,1515494,1867115,37,Woman
124,175604,DepthScenes,duration_manipulation_targetAtFixation,jsons/v1_VE1000_randls_56.json,http://54.235.29.9/FacialAge/BNav_EC2/DepthDuration/v2_depth_duration_MTurk/v2_DepthDuration_HTML.html#27,27,1280,577,1280,720,8-29-2022,14-29-27,125,depth_duration_stimuli/002600_2014-06-24_14-27-04_094959634447_rgbf000074-resize_2/002600_2014-06-24_14-27-04_094959634447_rgbf000074-resize_2-target.png,1000,2.7575,0.03,8656,1001,feet,jsons/v1_VE1000_randls_56.json,1515494,1867115,37,Woman
125,175604,DepthScenes,duration_manipulation_targetAtFixation,jsons/v1_VE1000_randls_56.json,http://54.235.29.9/FacialAge/BNav_EC2/DepthDuration/v2_depth_duration_MTurk/v2_DepthDuration_HTML.html#27,27,1280,577,1280,720,8-29-2022,14-29-27,126,depth_duration_stimuli/003228_2014-05-14_13-42-35_094959634447_rgbf000101-resize_1/003228_2014-05-14_13-42-35_094959634447_rgbf000101-resize_1-target.png,1000,1.9680000000000002,0.04,9238,998,feet,jsons/v1_VE1000_randls_56.json,1515494,1867115,37,Woman
126,175604,DepthScenes,duration_manipulation_targetAtFixation,jsons/v1_VE1000_randls_56.json,http://54.235.29.9/FacialAge/BNav_EC2/DepthDuration/v2_depth_duration_MTurk/v2_DepthDuration_HTML.html#27,27,1280,577,1280,720,8-29-2022,14-29-27,127,depth_duration_stimuli/002663_2014-06-13_15-50-26_094959634447_rgbf000075-resize_1/002663_2014-06-13_15-50-26_094959634447_rgbf000075-resize_1-target.png,1000,4.7495,0.05,8070,999,feet,jsons/v1_VE1000_randls_56.json,1515494,1867115,37,Woman
127,175604,DepthScenes,duration_manipulation_targetAtFixation,jsons/v1_VE1000_randls_56.json,http://54.235.29.9/FacialAge/BNav_EC2/DepthDuration/v2_depth_duration_MTurk/v2_DepthDuration_HTML.html#27,27,1280,577,1280,720,8-29-2022,14-29-27,128,depth_duration_stimuli/000409_2014-06-04_19-23-33_260595134347_rgbf000067-resize_0/000409_2014-06-04_19-23-33_260595134347_rgbf000067-resize_0-target.png,1000,3.7335,0.03,15291,1005,feet,jsons/v1_VE1000_randls_56.json,1515494,1867115,37,Woman
128,175604,DepthScenes,duration_manipulation_targetAtFixation,jsons/v1_VE1000_randls_56.json,http://54.235.29.9/FacialAge/BNav_EC2/DepthDuration/v2_depth_duration_MTurk/v2_DepthDuration_HTML.html#27,27,1280,577,1280,720,8-29-2022,14-29-27,129,depth_duration_stimuli/001449_2014-06-19_17-01-27_260595134347_rgbf000116-resize_2/001449_2014-06-19_17-01-27_260595134347_rgbf000116-resize_2-target.png,1000,3.452,0.02,7969,998,feet,jsons/v1_VE1000_randls_56.json,1515494,1867115,37,Woman
129,175604,DepthScenes,duration_manipulation_targetAtFixation,jsons/v1_VE1000_randls_56.json,http://54.235.29.9/FacialAge/BNav_EC2/DepthDuration/v2_depth_duration_MTurk/v2_DepthDuration_HTML.html#27,27,1280,577,1280,720,8-29-2022,14-29-27,130,depth_duration_stimuli/001450_2014-06-19_17-02-03_260595134347_rgbf000203-resize_4/001450_2014-06-19_17-02-03_260595134347_rgbf000203-resize_4-target.png,1000,4.0106666666667,0.08,10004,982,feet,jsons/v1_VE1000_randls_56.json,1515494,1867115,37,Woman
130,175604,DepthScenes,duration_manipulation_targetAtFixation,jsons/v1_VE1000_randls_56.json,http://54.235.29.9/FacialAge/BNav_EC2/DepthDuration/v2_depth_duration_MTurk/v2_DepthDuration_HTML.html#27,27,1280,577,1280,720,8-29-2022,14-29-27,131,depth_duration_stimuli/002570_2014-06-24_13-59-54_094959634447_rgbf000059-resize_0/002570_2014-06-24_13-59-54_094959634447_rgbf000059-resize_0-target.png,1000,4.037,0.1,8702,987,feet,jsons/v1_VE1000_randls_56.json,1515494,1867115,37,Woman
131,175604,DepthScenes,duration_manipulation_targetAtFixation,jsons/v1_VE1000_randls_56.json,http://54.235.29.9/FacialAge/BNav_EC2/DepthDuration/v2_depth_duration_MTurk/v2_DepthDuration_HTML.html#27,27,1280,577,1280,720,8-29-2022,14-29-27,132,depth_duration_stimuli/002467_2014-06-28_20-38-07_260595134347_rgbf000026-resize_2/002467_2014-06-28_20-38-07_260595134347_rgbf000026-resize_2-target.png,1000,4.742,0.1,8336,1011,feet,jsons/v1_VE1000_randls_56.json,1515494,1867115,37,Woman
132,175604,DepthScenes,duration_manipulation_targetAtFixation,jsons/v1_VE1000_randls_56.json,http://54.235.29.9/FacialAge/BNav_EC2/DepthDuration/v2_depth_duration_MTurk/v2_DepthDuration_HTML.html#27,27,1280,577,1280,720,8-29-2022,14-29-27,133,depth_duration_stimuli/000506_2014-06-08_23-21-00_260595134347_rgbf000070-resize_7/000506_2014-06-08_23-21-00_260595134347_rgbf000070-resize_7-target.png,1000,4.0585,0.15,6541,999,feet,jsons/v1_VE1000_randls_56.json,1515494,1867115,37,Woman
133,175604,DepthScenes,duration_manipulation_targetAtFixation,jsons/v1_VE1000_randls_56.json,http://54.235.29.9/FacialAge/BNav_EC2/DepthDuration/v2_depth_duration_MTurk/v2_DepthDuration_HTML.html#27,27,1280,577,1280,720,8-29-2022,14-29-27,134,depth_duration_stimuli/003079_2014-06-15_15-18-20_094959634447_rgbf000152-resize_8/003079_2014-06-15_15-18-20_094959634447_rgbf000152-resize_8-target.png,1000,2.8775,0.2,7627,980,feet,jsons/v1_VE1000_randls_56.json,1515494,1867115,37,Woman
134,175604,DepthScenes,duration_manipulation_targetAtFixation,jsons/v1_VE1000_randls_56.json,http://54.235.29.9/FacialAge/BNav_EC2/DepthDuration/v2_depth_duration_MTurk/v2_DepthDuration_HTML.html#27,27,1280,577,1280,720,8-29-2022,14-29-27,135,depth_duration_stimuli/002072_2014-06-24_21-48-06_260595134347_rgbf000115-resize_0/002072_2014-06-24_21-48-06_260595134347_rgbf000115-resize-original.jpg,1000,4.702,0.05,8078,1000,feet,jsons/v1_VE1000_randls_56.json,1515494,1867115,37,Woman
135,175604,DepthScenes,duration_manipulation_targetAtFixation,jsons/v1_VE1000_randls_56.json,http://54.235.29.9/FacialAge/BNav_EC2/DepthDuration/v2_depth_duration_MTurk/v2_DepthDuration_HTML.html#27,27,1280,577,1280,720,8-29-2022,14-29-27,136,depth_duration_stimuli/000522_2014-06-08_13-35-06_260595134347_rgbf000244-resize_1/000522_2014-06-08_13-35-06_260595134347_rgbf000244-resize_1-target.png,1000,2.3715,0.01,6849,997,feet,jsons/v1_VE1000_randls_56.json,1515494,1867115,37,Woman
136,175604,DepthScenes,duration_manipulation_targetAtFixation,jsons/v1_VE1000_randls_56.json,http://54.235.29.9/FacialAge/BNav_EC2/DepthDuration/v2_depth_duration_MTurk/v2_DepthDuration_HTML.html#27,27,1280,577,1280,720,8-29-2022,14-29-27,137,depth_duration_stimuli/002949_2014-06-26_15-57-42_094959634447_rgbf000079-resize_1/002949_2014-06-26_15-57-42_094959634447_rgbf000079-resize_1-target.png,1000,1.8915,0.06,6432,1008,feet,jsons/v1_VE1000_randls_56.json,1515494,1867115,37,Woman
137,175604,DepthScenes,duration_manipulation_targetAtFixation,jsons/v1_VE1000_randls_56.json,http://54.235.29.9/FacialAge/BNav_EC2/DepthDuration/v2_depth_duration_MTurk/v2_DepthDuration_HTML.html#27,27,1280,577,1280,720,8-29-2022,14-29-27,138,depth_duration_stimuli/000436_2014-06-09_22-25-11_260595134347_rgbf000137-resize_1/000436_2014-06-09_22-25-11_260595134347_rgbf000137-resize_1-target.png,1000,4.0705,0.05,6729,998,feet,jsons/v1_VE1000_randls_56.json,1515494,1867115,37,Woman
138,175604,DepthScenes,duration_manipulation_targetAtFixation,jsons/v1_VE1000_randls_56.json,http://54.235.29.9/FacialAge/BNav_EC2/DepthDuration/v2_depth_duration_MTurk/v2_DepthDuration_HTML.html#27,27,1280,577,1280,720,8-29-2022,14-29-27,139,depth_duration_stimuli/002444_2014-06-28_20-32-08_260595134347_rgbf000027-resize_0/002444_2014-06-28_20-32-08_260595134347_rgbf000027-resize_0-target.png,1000,4.388999999999999,0.1,6346,1014,feet,jsons/v1_VE1000_randls_56.json,1515494,1867115,37,Woman
139,175604,DepthScenes,duration_manipulation_targetAtFixation,jsons/v1_VE1000_randls_56.json,http://54.235.29.9/FacialAge/BNav_EC2/DepthDuration/v2_depth_duration_MTurk/v2_DepthDuration_HTML.html#27,27,1280,577,1280,720,8-29-2022,14-29-27,140,depth_duration_stimuli/001570_2014-06-20_17-21-09_260595134347_rgbf000135-resize_4/001570_2014-06-20_17-21-09_260595134347_rgbf000135-resize_4-target.png,1000,4.467,0.04,13237,1012,feet,jsons/v1_VE1000_randls_56.json,1515494,1867115,37,Woman
140,175604,DepthScenes,duration_manipulation_targetAtFixation,jsons/v1_VE1000_randls_56.json,http://54.235.29.9/FacialAge/BNav_EC2/DepthDuration/v2_depth_duration_MTurk/v2_DepthDuration_HTML.html#27,27,1280,577,1280,720,8-29-2022,14-29-27,141,depth_duration_stimuli/001392_2014-06-19_16-07-59_260595134347_rgbf000046-resize_1/001392_2014-06-19_16-07-59_260595134347_rgbf000046-resize_1-target.png,1000,4.135,0.2,6985,984,feet,jsons/v1_VE1000_randls_56.json,1515494,1867115,37,Woman
141,175604,DepthScenes,duration_manipulation_targetAtFixation,jsons/v1_VE1000_randls_56.json,http://54.235.29.9/FacialAge/BNav_EC2/DepthDuration/v2_depth_duration_MTurk/v2_DepthDuration_HTML.html#27,27,1280,577,1280,720,8-29-2022,14-29-27,142,depth_duration_stimuli/002043_2014-06-24_20-29-38_260595134347_rgbf000039-resize_4/002043_2014-06-24_20-29-38_260595134347_rgbf000039-resize_4-target.png,1000,2.8435,0.01,6668,999,feet,jsons/v1_VE1000_randls_56.json,1515494,1867115,37,Woman
142,175604,DepthScenes,duration_manipulation_targetAtFixation,jsons/v1_VE1000_randls_56.json,http://54.235.29.9/FacialAge/BNav_EC2/DepthDuration/v2_depth_duration_MTurk/v2_DepthDuration_HTML.html#27,27,1280,577,1280,720,8-29-2022,14-29-27,143,depth_duration_stimuli/003048_2014-06-15_13-49-43_094959634447_rgbf000150-resize_1/003048_2014-06-15_13-49-43_094959634447_rgbf000150-resize_1-target.png,1000,4.0035,0.15,6518,997,feet,jsons/v1_VE1000_randls_56.json,1515494,1867115,37,Woman
143,175604,DepthScenes,duration_manipulation_targetAtFixation,jsons/v1_VE1000_randls_56.json,http://54.235.29.9/FacialAge/BNav_EC2/DepthDuration/v2_depth_duration_MTurk/v2_DepthDuration_HTML.html#27,27,1280,577,1280,720,8-29-2022,14-29-27,144,depth_duration_stimuli/003621_2014-05-23_18-06-08_094959634447_rgbf000101-resize_1/003621_2014-05-23_18-06-08_094959634447_rgbf000101-resize_1-target.png,1000,3.9835,0.14,9577,998,feet,jsons/v1_VE1000_randls_56.json,1515494,1867115,37,Woman
144,175604,DepthScenes,duration_manipulation_targetAtFixation,jsons/v1_VE1000_randls_56.json,http://54.235.29.9/FacialAge/BNav_EC2/DepthDuration/v2_depth_duration_MTurk/v2_DepthDuration_HTML.html#27,27,1280,577,1280,720,8-29-2022,14-29-27,145,depth_duration_stimuli/001584_2014-06-20_11-07-43_260595134347_rgbf000002-resize_1/001584_2014-06-20_11-07-43_260595134347_rgbf000002-resize_1-target.png,1000,3.53,0.12,6319,998,feet,jsons/v1_VE1000_randls_56.json,1515494,1867115,37,Woman
145,175604,DepthScenes,duration_manipulation_targetAtFixation,jsons/v1_VE1000_randls_56.json,http://54.235.29.9/FacialAge/BNav_EC2/DepthDuration/v2_depth_duration_MTurk/v2_DepthDuration_HTML.html#27,27,1280,577,1280,720,8-29-2022,14-29-27,146,depth_duration_stimuli/001498_2014-06-19_17-45-14_260595134347_rgbf000129-resize_4/001498_2014-06-19_17-45-14_260595134347_rgbf000129-resize-original.jpg,1000,1.4075,0.0,9528,1000,feet,jsons/v1_VE1000_randls_56.json,1515494,1867115,37,Woman
146,175604,DepthScenes,duration_manipulation_targetAtFixation,jsons/v1_VE1000_randls_56.json,http://54.235.29.9/FacialAge/BNav_EC2/DepthDuration/v2_depth_duration_MTurk/v2_DepthDuration_HTML.html#27,27,1280,577,1280,720,8-29-2022,14-29-27,147,depth_duration_stimuli/001066_2014-06-08_22-03-20_260595134347_rgbf000066-resize_4/001066_2014-06-08_22-03-20_260595134347_rgbf000066-resize_4-target.png,1000,4.2330000000000005,0.1,9393,999,feet,jsons/v1_VE1000_randls_56.json,1515494,1867115,37,Woman
147,175604,DepthScenes,duration_manipulation_targetAtFixation,jsons/v1_VE1000_randls_56.json,http://54.235.29.9/FacialAge/BNav_EC2/DepthDuration/v2_depth_duration_MTurk/v2_DepthDuration_HTML.html#27,27,1280,577,1280,720,8-29-2022,14-29-27,148,depth_duration_stimuli/000742_2014-06-08_18-48-09_260595134347_rgbf000164-resize_4/000742_2014-06-08_18-48-09_260595134347_rgbf000164-resize_4-target.png,1000,4.632,0.05,6986,998,feet,jsons/v1_VE1000_randls_56.json,1515494,1867115,37,Woman
148,175604,DepthScenes,duration_manipulation_targetAtFixation,jsons/v1_VE1000_randls_56.json,http://54.235.29.9/FacialAge/BNav_EC2/DepthDuration/v2_depth_duration_MTurk/v2_DepthDuration_HTML.html#27,27,1280,577,1280,720,8-29-2022,14-29-27,149,depth_duration_stimuli/002725_2014-06-22_11-47-51_094959634447_rgbf000070-resize_1/002725_2014-06-22_11-47-51_094959634447_rgbf000070-resize_1-target.png,1000,2.195,0.06,8467,999,feet,jsons/v1_VE1000_randls_56.json,1515494,1867115,37,Woman
149,175604,DepthScenes,duration_manipulation_targetAtFixation,jsons/v1_VE1000_randls_56.json,http://54.235.29.9/FacialAge/BNav_EC2/DepthDuration/v2_depth_duration_MTurk/v2_DepthDuration_HTML.html#27,27,1280,577,1280,720,8-29-2022,14-29-27,150,depth_duration_stimuli/002344_2014-06-28_20-06-29_260595134347_rgbf000030-resize_1/002344_2014-06-28_20-06-29_260595134347_rgbf000030-resize_1-target.png,1000,1.5795,0.0,6169,998,feet,jsons/v1_VE1000_randls_56.json,1515494,1867115,37,Woman
150,175604,DepthScenes,duration_manipulation_targetAtFixation,jsons/v1_VE1000_randls_56.json,http://54.235.29.9/FacialAge/BNav_EC2/DepthDuration/v2_depth_duration_MTurk/v2_DepthDuration_HTML.html#27,27,1280,577,1280,720,8-29-2022,14-29-27,151,depth_duration_stimuli/002509_2014-06-24_13-19-22_094959634447_rgbf000077-resize_0/002509_2014-06-24_13-19-22_094959634447_rgbf000077-resize_0-target.png,1000,1.3065,0.02,7213,985,feet,jsons/v1_VE1000_randls_56.json,1515494,1867115,37,Woman
151,175604,DepthScenes,duration_manipulation_targetAtFixation,jsons/v1_VE1000_randls_56.json,http://54.235.29.9/FacialAge/BNav_EC2/DepthDuration/v2_depth_duration_MTurk/v2_DepthDuration_HTML.html#27,27,1280,577,1280,720,8-29-2022,14-29-27,152,depth_duration_stimuli/003338_2014-05-20_11-01-23_094959634447_rgbf000051-resize_6/003338_2014-05-20_11-01-23_094959634447_rgbf000051-resize_6-target.png,1000,1.693,0.01,5432,1000,feet,jsons/v1_VE1000_randls_56.json,1515494,1867115,37,Woman
152,175604,DepthScenes,duration_manipulation_targetAtFixation,jsons/v1_VE1000_randls_56.json,http://54.235.29.9/FacialAge/BNav_EC2/DepthDuration/v2_depth_duration_MTurk/v2_DepthDuration_HTML.html#27,27,1280,577,1280,720,8-29-2022,14-29-27,153,depth_duration_stimuli/001808_2014-06-26_20-50-58_260595134347_rgbf000029-resize_1/001808_2014-06-26_20-50-58_260595134347_rgbf000029-resize_1-target.png,1000,4.249,0.1,7557,999,feet,jsons/v1_VE1000_randls_56.json,1515494,1867115,37,Woman
153,175604,DepthScenes,duration_manipulation_targetAtFixation,jsons/v1_VE1000_randls_56.json,http://54.235.29.9/FacialAge/BNav_EC2/DepthDuration/v2_depth_duration_MTurk/v2_DepthDuration_HTML.html#27,27,1280,577,1280,720,8-29-2022,14-29-27,154,depth_duration_stimuli/001815_2014-06-26_20-52-55_260595134347_rgbf000020-resize_0/001815_2014-06-26_20-52-55_260595134347_rgbf000020-resize_0-target.png,1000,3.3865,0.15,5854,999,feet,jsons/v1_VE1000_randls_56.json,1515494,1867115,37,Woman
154,175604,DepthScenes,duration_manipulation_targetAtFixation,jsons/v1_VE1000_randls_56.json,http://54.235.29.9/FacialAge/BNav_EC2/DepthDuration/v2_depth_duration_MTurk/v2_DepthDuration_HTML.html#27,27,1280,577,1280,720,8-29-2022,14-29-27,155,depth_duration_stimuli/000368_2014-06-09_15-53-01_260595134347_rgbf000155-resize_2/000368_2014-06-09_15-53-01_260595134347_rgbf000155-resize_2-target.png,1000,2.4859999999999998,0.02,7249,998,feet,jsons/v1_VE1000_randls_56.json,1515494,1867115,37,Woman
155,175604,DepthScenes,duration_manipulation_targetAtFixation,jsons/v1_VE1000_randls_56.json,http://54.235.29.9/FacialAge/BNav_EC2/DepthDuration/v2_depth_duration_MTurk/v2_DepthDuration_HTML.html#27,27,1280,577,1280,720,8-29-2022,14-29-27,156,depth_duration_stimuli/002678_2014-06-13_16-15-32_094959634447_rgbf000151-resize_6/002678_2014-06-13_16-15-32_094959634447_rgbf000151-resize_6-target.png,1000,2.1830000000000003,0.1,5813,998,feet,jsons/v1_VE1000_randls_56.json,1515494,1867115,37,Woman
156,175604,DepthScenes,duration_manipulation_targetAtFixation,jsons/v1_VE1000_randls_56.json,http://54.235.29.9/FacialAge/BNav_EC2/DepthDuration/v2_depth_duration_MTurk/v2_DepthDuration_HTML.html#27,27,1280,577,1280,720,8-29-2022,14-29-27,157,depth_duration_stimuli/001417_2014-06-19_16-25-36_260595134347_rgbf000115-resize_5/001417_2014-06-19_16-25-36_260595134347_rgbf000115-resize_5-target.png,1000,4.6255,0.0,6680,999,feet,jsons/v1_VE1000_randls_56.json,1515494,1867115,37,Woman
157,175604,DepthScenes,duration_manipulation_targetAtFixation,jsons/v1_VE1000_randls_56.json,http://54.235.29.9/FacialAge/BNav_EC2/DepthDuration/v2_depth_duration_MTurk/v2_DepthDuration_HTML.html#27,27,1280,577,1280,720,8-29-2022,14-29-27,158,depth_duration_stimuli/003081_2014-06-15_15-19-16_094959634447_rgbf000150-resize_1/003081_2014-06-15_15-19-16_094959634447_rgbf000150-resize_1-target.png,1000,3.9125,0.1,7465,992,feet,jsons/v1_VE1000_randls_56.json,1515494,1867115,37,Woman
158,175604,DepthScenes,duration_manipulation_targetAtFixation,jsons/v1_VE1000_randls_56.json,http://54.235.29.9/FacialAge/BNav_EC2/DepthDuration/v2_depth_duration_MTurk/v2_DepthDuration_HTML.html#27,27,1280,577,1280,720,8-29-2022,14-29-27,159,depth_duration_stimuli/000810_2014-06-08_17-20-01_260595134347_rgbf000105-resize_0/000810_2014-06-08_17-20-01_260595134347_rgbf000105-resize_0-target.png,1000,1.4865,0.13,8796,997,feet,jsons/v1_VE1000_randls_56.json,1515494,1867115,37,Woman
159,175604,DepthScenes,duration_manipulation_targetAtFixation,jsons/v1_VE1000_randls_56.json,http://54.235.29.9/FacialAge/BNav_EC2/DepthDuration/v2_depth_duration_MTurk/v2_DepthDuration_HTML.html#27,27,1280,577,1280,720,8-29-2022,14-29-27,160,depth_duration_stimuli/001214_2014-06-17_16-13-55_260595134347_rgbf000111-resize_0/001214_2014-06-17_16-13-55_260595134347_rgbf000111-resize_0-target.png,1000,2.6505,0.1,6911,999,feet,jsons/v1_VE1000_randls_56.json,1515494,1867115,37,Woman
160,175604,DepthScenes,duration_manipulation_targetAtFixation,jsons/v1_VE1000_randls_56.json,http://54.235.29.9/FacialAge/BNav_EC2/DepthDuration/v2_depth_duration_MTurk/v2_DepthDuration_HTML.html#27,27,1280,577,1280,720,8-29-2022,14-29-27,161,depth_duration_stimuli/003534_2014-05-22_15-06-10_094959634447_rgbf000102-resize_4/003534_2014-05-22_15-06-10_094959634447_rgbf000102-resize_4-target.png,1000,1.426,0.12,8451,999,feet,jsons/v1_VE1000_randls_56.json,1515494,1867115,37,Woman
161,175604,DepthScenes,duration_manipulation_targetAtFixation,jsons/v1_VE1000_randls_56.json,http://54.235.29.9/FacialAge/BNav_EC2/DepthDuration/v2_depth_duration_MTurk/v2_DepthDuration_HTML.html#27,27,1280,577,1280,720,8-29-2022,14-29-27,162,depth_duration_stimuli/002637_2014-06-24_14-51-13_094959634447_rgbf000066-resize_4/002637_2014-06-24_14-51-13_094959634447_rgbf000066-resize_4-target.png,1000,1.9955,0.0,5660,998,feet,jsons/v1_VE1000_randls_56.json,1515494,1867115,37,Woman
162,175604,DepthScenes,duration_manipulation_targetAtFixation,jsons/v1_VE1000_randls_56.json,http://54.235.29.9/FacialAge/BNav_EC2/DepthDuration/v2_depth_duration_MTurk/v2_DepthDuration_HTML.html#27,27,1280,577,1280,720,8-29-2022,14-29-27,163,depth_duration_stimuli/000906_2014-06-08_13-35-43_260595134347_rgbf000155-resize_1/000906_2014-06-08_13-35-43_260595134347_rgbf000155-resize_1-target.png,1000,2.8489999999999998,0.1,6991,996,feet,jsons/v1_VE1000_randls_56.json,1515494,1867115,37,Woman
163,175604,DepthScenes,duration_manipulation_targetAtFixation,jsons/v1_VE1000_randls_56.json,http://54.235.29.9/FacialAge/BNav_EC2/DepthDuration/v2_depth_duration_MTurk/v2_DepthDuration_HTML.html#27,27,1280,577,1280,720,8-29-2022,14-29-27,164,depth_duration_stimuli/002805_2014-06-22_19-54-03_094959634447_rgbf000079-resize_1/002805_2014-06-22_19-54-03_094959634447_rgbf000079-resize_1-target.png,1000,3.1439999999999997,0.05,6566,1000,feet,jsons/v1_VE1000_randls_56.json,1515494,1867115,37,Woman
