,subjID,experimentName,versionName,sequenceName,url,selected_row,windowWidth,windowHeight,screenWidth,screenHeight,startDate,startTime,trial,stimulus,duration,actual_depth,depth_estimate,trial_RT,log_sceneDuration,unitSelection,seq_filepath,experimentTime,totalTime,age,gender
0,180046,DepthScenes,duration_manipulation_targetAtFixation,jsons/VE125_randls_49.json,http://54.235.29.9/FacialAge/BNav_EC2/DepthDuration/v2_depth_duration_MTurk/v2_DepthDuration_HTML.html#224,224,1366,625,1366,768,8-30-2022,8-58-43,1,depth_duration_stimuli/000642_2014-06-08_16-59-25_260595134347_rgbf000098-resize_2/000642_2014-06-08_16-59-25_260595134347_rgbf000098-resize_2-target.png,125,2.8815,4.0,18545,125,feet,jsons/VE125_randls_49.json,2301102,2804621,28,Woman
1,180046,DepthScenes,duration_manipulation_targetAtFixation,jsons/VE125_randls_49.json,http://54.235.29.9/FacialAge/BNav_EC2/DepthDuration/v2_depth_duration_MTurk/v2_DepthDuration_HTML.html#224,224,1366,625,1366,768,8-30-2022,8-58-43,2,depth_duration_stimuli/002425_2014-06-28_20-27-29_260595134347_rgbf000031-resize_8/002425_2014-06-28_20-27-29_260595134347_rgbf000031-resize_8-target.png,125,3.8960000000000004,10.0,9734,125,feet,jsons/VE125_randls_49.json,2301102,2804621,28,Woman
2,180046,DepthScenes,duration_manipulation_targetAtFixation,jsons/VE125_randls_49.json,http://54.235.29.9/FacialAge/BNav_EC2/DepthDuration/v2_depth_duration_MTurk/v2_DepthDuration_HTML.html#224,224,1366,625,1366,768,8-30-2022,8-58-43,3,depth_duration_stimuli/001016_2014-06-09_16-16-10_260595134347_rgbf000112-resize_5/001016_2014-06-09_16-16-10_260595134347_rgbf000112-resize_5-target.png,125,1.6565,4.0,16581,125,feet,jsons/VE125_randls_49.json,2301102,2804621,28,Woman
3,180046,DepthScenes,duration_manipulation_targetAtFixation,jsons/VE125_randls_49.json,http://54.235.29.9/FacialAge/BNav_EC2/DepthDuration/v2_depth_duration_MTurk/v2_DepthDuration_HTML.html#224,224,1366,625,1366,768,8-30-2022,8-58-43,4,depth_duration_stimuli/002340_2014-06-28_20-05-46_260595134347_rgbf000113-resize_0/002340_2014-06-28_20-05-46_260595134347_rgbf000113-resize_0-target.png,125,2.4735,9.0,5927,125,feet,jsons/VE125_randls_49.json,2301102,2804621,28,Woman
4,180046,DepthScenes,duration_manipulation_targetAtFixation,jsons/VE125_randls_49.json,http://54.235.29.9/FacialAge/BNav_EC2/DepthDuration/v2_depth_duration_MTurk/v2_DepthDuration_HTML.html#224,224,1366,625,1366,768,8-30-2022,8-58-43,5,depth_duration_stimuli/001808_2014-06-26_20-50-58_260595134347_rgbf000029-resize_1/001808_2014-06-26_20-50-58_260595134347_rgbf000029-resize_1-target.png,125,4.249,8.0,24915,124,feet,jsons/VE125_randls_49.json,2301102,2804621,28,Woman
5,180046,DepthScenes,duration_manipulation_targetAtFixation,jsons/VE125_randls_49.json,http://54.235.29.9/FacialAge/BNav_EC2/DepthDuration/v2_depth_duration_MTurk/v2_DepthDuration_HTML.html#224,224,1366,625,1366,768,8-30-2022,8-58-43,6,depth_duration_stimuli/001815_2014-06-26_20-52-55_260595134347_rgbf000020-resize_0/001815_2014-06-26_20-52-55_260595134347_rgbf000020-resize_0-target.png,125,3.3865,10.0,4603,125,feet,jsons/VE125_randls_49.json,2301102,2804621,28,Woman
6,180046,DepthScenes,duration_manipulation_targetAtFixation,jsons/VE125_randls_49.json,http://54.235.29.9/FacialAge/BNav_EC2/DepthDuration/v2_depth_duration_MTurk/v2_DepthDuration_HTML.html#224,224,1366,625,1366,768,8-30-2022,8-58-43,7,depth_duration_stimuli/000878_2014-06-08_22-52-45_260595134347_rgbf000045-resize_2/000878_2014-06-08_22-52-45_260595134347_rgbf000045-resize_2-target.png,125,2.092,3.0,20487,125,feet,jsons/VE125_randls_49.json,2301102,2804621,28,Woman
7,180046,DepthScenes,duration_manipulation_targetAtFixation,jsons/VE125_randls_49.json,http://54.235.29.9/FacialAge/BNav_EC2/DepthDuration/v2_depth_duration_MTurk/v2_DepthDuration_HTML.html#224,224,1366,625,1366,768,8-30-2022,8-58-43,8,depth_duration_stimuli/002953_2014-06-08_17-32-18_094959634447_rgbf000059-resize_5/002953_2014-06-08_17-32-18_094959634447_rgbf000059-resize_5-target.png,125,1.551,2.0,3215,125,feet,jsons/VE125_randls_49.json,2301102,2804621,28,Woman
8,180046,DepthScenes,duration_manipulation_targetAtFixation,jsons/VE125_randls_49.json,http://54.235.29.9/FacialAge/BNav_EC2/DepthDuration/v2_depth_duration_MTurk/v2_DepthDuration_HTML.html#224,224,1366,625,1366,768,8-30-2022,8-58-43,9,depth_duration_stimuli/000368_2014-06-09_15-53-01_260595134347_rgbf000155-resize_2/000368_2014-06-09_15-53-01_260595134347_rgbf000155-resize_2-target.png,125,2.4859999999999998,3.0,17063,124,feet,jsons/VE125_randls_49.json,2301102,2804621,28,Woman
9,180046,DepthScenes,duration_manipulation_targetAtFixation,jsons/VE125_randls_49.json,http://54.235.29.9/FacialAge/BNav_EC2/DepthDuration/v2_depth_duration_MTurk/v2_DepthDuration_HTML.html#224,224,1366,625,1366,768,8-30-2022,8-58-43,10,depth_duration_stimuli/002678_2014-06-13_16-15-32_094959634447_rgbf000151-resize_6/002678_2014-06-13_16-15-32_094959634447_rgbf000151-resize_6-target.png,125,2.1830000000000003,7.0,6143,125,feet,jsons/VE125_randls_49.json,2301102,2804621,28,Woman
10,180046,DepthScenes,duration_manipulation_targetAtFixation,jsons/VE125_randls_49.json,http://54.235.29.9/FacialAge/BNav_EC2/DepthDuration/v2_depth_duration_MTurk/v2_DepthDuration_HTML.html#224,224,1366,625,1366,768,8-30-2022,8-58-43,11,depth_duration_stimuli/000447_2014-06-08_16-15-46_260595134347_rgbf000130-resize_1/000447_2014-06-08_16-15-46_260595134347_rgbf000130-resize_1-target.png,125,4.479,9.0,26291,125,feet,jsons/VE125_randls_49.json,2301102,2804621,28,Woman
11,180046,DepthScenes,duration_manipulation_targetAtFixation,jsons/VE125_randls_49.json,http://54.235.29.9/FacialAge/BNav_EC2/DepthDuration/v2_depth_duration_MTurk/v2_DepthDuration_HTML.html#224,224,1366,625,1366,768,8-30-2022,8-58-43,12,depth_duration_stimuli/001447_2014-06-19_17-00-32_260595134347_rgbf000082-resize_5/001447_2014-06-19_17-00-32_260595134347_rgbf000082-resize_5-target.png,125,4.13775,6.0,9369,125,feet,jsons/VE125_randls_49.json,2301102,2804621,28,Woman
12,180046,DepthScenes,duration_manipulation_targetAtFixation,jsons/VE125_randls_49.json,http://54.235.29.9/FacialAge/BNav_EC2/DepthDuration/v2_depth_duration_MTurk/v2_DepthDuration_HTML.html#224,224,1366,625,1366,768,8-30-2022,8-58-43,13,depth_duration_stimuli/000569_2014-06-09_22-51-47_260595134347_rgbf000141-resize_3/000569_2014-06-09_22-51-47_260595134347_rgbf000141-resize-original.jpg,125,4.512,0.0,18164,126,feet,jsons/VE125_randls_49.json,2301102,2804621,28,Woman
13,180046,DepthScenes,duration_manipulation_targetAtFixation,jsons/VE125_randls_49.json,http://54.235.29.9/FacialAge/BNav_EC2/DepthDuration/v2_depth_duration_MTurk/v2_DepthDuration_HTML.html#224,224,1366,625,1366,768,8-30-2022,8-58-43,14,depth_duration_stimuli/002725_2014-06-22_11-47-51_094959634447_rgbf000070-resize_1/002725_2014-06-22_11-47-51_094959634447_rgbf000070-resize_1-target.png,125,2.195,4.0,26329,125,feet,jsons/VE125_randls_49.json,2301102,2804621,28,Woman
14,180046,DepthScenes,duration_manipulation_targetAtFixation,jsons/VE125_randls_49.json,http://54.235.29.9/FacialAge/BNav_EC2/DepthDuration/v2_depth_duration_MTurk/v2_DepthDuration_HTML.html#224,224,1366,625,1366,768,8-30-2022,8-58-43,15,depth_duration_stimuli/002344_2014-06-28_20-06-29_260595134347_rgbf000030-resize_1/002344_2014-06-28_20-06-29_260595134347_rgbf000030-resize_1-target.png,125,1.5795,1.0,5379,125,feet,jsons/VE125_randls_49.json,2301102,2804621,28,Woman
15,180046,DepthScenes,duration_manipulation_targetAtFixation,jsons/VE125_randls_49.json,http://54.235.29.9/FacialAge/BNav_EC2/DepthDuration/v2_depth_duration_MTurk/v2_DepthDuration_HTML.html#224,224,1366,625,1366,768,8-30-2022,8-58-43,16,depth_duration_stimuli/000682_2014-06-08_23-14-58_260595134347_rgbf000041-resize_5/000682_2014-06-08_23-14-58_260595134347_rgbf000041-resize_5-target.png,125,2.7239999999999998,5.0,21801,126,feet,jsons/VE125_randls_49.json,2301102,2804621,28,Woman
16,180046,DepthScenes,duration_manipulation_targetAtFixation,jsons/VE125_randls_49.json,http://54.235.29.9/FacialAge/BNav_EC2/DepthDuration/v2_depth_duration_MTurk/v2_DepthDuration_HTML.html#224,224,1366,625,1366,768,8-30-2022,8-58-43,17,depth_duration_stimuli/001650_2014-06-20_12-09-00_260595134347_rgbf000087-resize_3/001650_2014-06-20_12-09-00_260595134347_rgbf000087-resize_3-target.png,125,1.9505,2.0,3651,125,feet,jsons/VE125_randls_49.json,2301102,2804621,28,Woman
17,180046,DepthScenes,duration_manipulation_targetAtFixation,jsons/VE125_randls_49.json,http://54.235.29.9/FacialAge/BNav_EC2/DepthDuration/v2_depth_duration_MTurk/v2_DepthDuration_HTML.html#224,224,1366,625,1366,768,8-30-2022,8-58-43,18,depth_duration_stimuli/001806_2014-06-26_20-50-20_260595134347_rgbf000091-resize_1/001806_2014-06-26_20-50-20_260595134347_rgbf000091-resize_1-target.png,125,2.7305,4.0,21716,125,feet,jsons/VE125_randls_49.json,2301102,2804621,28,Woman
18,180046,DepthScenes,duration_manipulation_targetAtFixation,jsons/VE125_randls_49.json,http://54.235.29.9/FacialAge/BNav_EC2/DepthDuration/v2_depth_duration_MTurk/v2_DepthDuration_HTML.html#224,224,1366,625,1366,768,8-30-2022,8-58-43,19,depth_duration_stimuli/001617_2014-06-20_11-35-32_260595134347_rgbf000066-resize_1/001617_2014-06-20_11-35-32_260595134347_rgbf000066-resize_1-target.png,125,3.7910000000000004,10.0,6553,130,feet,jsons/VE125_randls_49.json,2301102,2804621,28,Woman
19,180046,DepthScenes,duration_manipulation_targetAtFixation,jsons/VE125_randls_49.json,http://54.235.29.9/FacialAge/BNav_EC2/DepthDuration/v2_depth_duration_MTurk/v2_DepthDuration_HTML.html#224,224,1366,625,1366,768,8-30-2022,8-58-43,20,depth_duration_stimuli/001810_2014-06-26_20-51-35_260595134347_rgbf000040-resize_3/001810_2014-06-26_20-51-35_260595134347_rgbf000040-resize_3-target.png,125,2.2525,4.0,19165,150,feet,jsons/VE125_randls_49.json,2301102,2804621,28,Woman
20,180046,DepthScenes,duration_manipulation_targetAtFixation,jsons/VE125_randls_49.json,http://54.235.29.9/FacialAge/BNav_EC2/DepthDuration/v2_depth_duration_MTurk/v2_DepthDuration_HTML.html#224,224,1366,625,1366,768,8-30-2022,8-58-43,21,depth_duration_stimuli/003010_2014-06-15_12-54-35_094959634447_rgbf000112-resize_0/003010_2014-06-15_12-54-35_094959634447_rgbf000112-resize_0-target.png,125,3.1185,11.0,4120,123,feet,jsons/VE125_randls_49.json,2301102,2804621,28,Woman
21,180046,DepthScenes,duration_manipulation_targetAtFixation,jsons/VE125_randls_49.json,http://54.235.29.9/FacialAge/BNav_EC2/DepthDuration/v2_depth_duration_MTurk/v2_DepthDuration_HTML.html#224,224,1366,625,1366,768,8-30-2022,8-58-43,22,depth_duration_stimuli/001417_2014-06-19_16-25-36_260595134347_rgbf000115-resize_5/001417_2014-06-19_16-25-36_260595134347_rgbf000115-resize_5-target.png,125,4.6255,14.0,22727,112,feet,jsons/VE125_randls_49.json,2301102,2804621,28,Woman
22,180046,DepthScenes,duration_manipulation_targetAtFixation,jsons/VE125_randls_49.json,http://54.235.29.9/FacialAge/BNav_EC2/DepthDuration/v2_depth_duration_MTurk/v2_DepthDuration_HTML.html#224,224,1366,625,1366,768,8-30-2022,8-58-43,23,depth_duration_stimuli/003081_2014-06-15_15-19-16_094959634447_rgbf000150-resize_1/003081_2014-06-15_15-19-16_094959634447_rgbf000150-resize_1-target.png,125,3.9125,10.0,14777,124,feet,jsons/VE125_randls_49.json,2301102,2804621,28,Woman
23,180046,DepthScenes,duration_manipulation_targetAtFixation,jsons/VE125_randls_49.json,http://54.235.29.9/FacialAge/BNav_EC2/DepthDuration/v2_depth_duration_MTurk/v2_DepthDuration_HTML.html#224,224,1366,625,1366,768,8-30-2022,8-58-43,24,depth_duration_stimuli/001110_2014-06-15_17-25-28_260595134347_rgbf000150-resize_1/001110_2014-06-15_17-25-28_260595134347_rgbf000150-resize_1-target.png,125,1.7115,0.0,4259,125,feet,jsons/VE125_randls_49.json,2301102,2804621,28,Woman
24,180046,DepthScenes,duration_manipulation_targetAtFixation,jsons/VE125_randls_49.json,http://54.235.29.9/FacialAge/BNav_EC2/DepthDuration/v2_depth_duration_MTurk/v2_DepthDuration_HTML.html#224,224,1366,625,1366,768,8-30-2022,8-58-43,25,depth_duration_stimuli/000927_2014-06-09_16-32-30_260595134347_rgbf000123-resize_3/000927_2014-06-09_16-32-30_260595134347_rgbf000123-resize_3-target.png,125,2.6785,10.0,5378,125,feet,jsons/VE125_randls_49.json,2301102,2804621,28,Woman
25,180046,DepthScenes,duration_manipulation_targetAtFixation,jsons/VE125_randls_49.json,http://54.235.29.9/FacialAge/BNav_EC2/DepthDuration/v2_depth_duration_MTurk/v2_DepthDuration_HTML.html#224,224,1366,625,1366,768,8-30-2022,8-58-43,26,depth_duration_stimuli/002763_2014-06-22_19-13-10_094959634447_rgbf000075-resize_4/002763_2014-06-22_19-13-10_094959634447_rgbf000075-resize_4-target.png,125,1.68375,2.0,19569,125,feet,jsons/VE125_randls_49.json,2301102,2804621,28,Woman
26,180046,DepthScenes,duration_manipulation_targetAtFixation,jsons/VE125_randls_49.json,http://54.235.29.9/FacialAge/BNav_EC2/DepthDuration/v2_depth_duration_MTurk/v2_DepthDuration_HTML.html#224,224,1366,625,1366,768,8-30-2022,8-58-43,27,depth_duration_stimuli/002209_2014-06-28_18-36-10_260595134347_rgbf000051-resize_1/002209_2014-06-28_18-36-10_260595134347_rgbf000051-resize_1-target.png,125,2.057,2.0,10773,126,feet,jsons/VE125_randls_49.json,2301102,2804621,28,Woman
27,180046,DepthScenes,duration_manipulation_targetAtFixation,jsons/VE125_randls_49.json,http://54.235.29.9/FacialAge/BNav_EC2/DepthDuration/v2_depth_duration_MTurk/v2_DepthDuration_HTML.html#224,224,1366,625,1366,768,8-30-2022,8-58-43,28,depth_duration_stimuli/000810_2014-06-08_17-20-01_260595134347_rgbf000105-resize_0/000810_2014-06-08_17-20-01_260595134347_rgbf000105-resize_0-target.png,125,1.4865,3.0,22285,134,feet,jsons/VE125_randls_49.json,2301102,2804621,28,Woman
28,180046,DepthScenes,duration_manipulation_targetAtFixation,jsons/VE125_randls_49.json,http://54.235.29.9/FacialAge/BNav_EC2/DepthDuration/v2_depth_duration_MTurk/v2_DepthDuration_HTML.html#224,224,1366,625,1366,768,8-30-2022,8-58-43,29,depth_duration_stimuli/001214_2014-06-17_16-13-55_260595134347_rgbf000111-resize_0/001214_2014-06-17_16-13-55_260595134347_rgbf000111-resize_0-target.png,125,2.6505,3.0,8373,124,feet,jsons/VE125_randls_49.json,2301102,2804621,28,Woman
29,180046,DepthScenes,duration_manipulation_targetAtFixation,jsons/VE125_randls_49.json,http://54.235.29.9/FacialAge/BNav_EC2/DepthDuration/v2_depth_duration_MTurk/v2_DepthDuration_HTML.html#224,224,1366,625,1366,768,8-30-2022,8-58-43,30,depth_duration_stimuli/000375_2014-06-08_11-17-29_260595134347_rgbf000133-resize_2/000375_2014-06-08_11-17-29_260595134347_rgbf000133-resize-original.jpg,125,4.718,0.0,4490,124,feet,jsons/VE125_randls_49.json,2301102,2804621,28,Woman
30,180046,DepthScenes,duration_manipulation_targetAtFixation,jsons/VE125_randls_49.json,http://54.235.29.9/FacialAge/BNav_EC2/DepthDuration/v2_depth_duration_MTurk/v2_DepthDuration_HTML.html#224,224,1366,625,1366,768,8-30-2022,8-58-43,31,depth_duration_stimuli/000692_2014-06-08_13-09-42_260595134347_rgbf000199-resize_2/000692_2014-06-08_13-09-42_260595134347_rgbf000199-resize_2-target.png,125,3.661,6.0,17992,124,feet,jsons/VE125_randls_49.json,2301102,2804621,28,Woman
31,180046,DepthScenes,duration_manipulation_targetAtFixation,jsons/VE125_randls_49.json,http://54.235.29.9/FacialAge/BNav_EC2/DepthDuration/v2_depth_duration_MTurk/v2_DepthDuration_HTML.html#224,224,1366,625,1366,768,8-30-2022,8-58-43,32,depth_duration_stimuli/001094_2014-06-15_17-36-00_260595134347_rgbf000205-resize_0/001094_2014-06-15_17-36-00_260595134347_rgbf000205-resize_0-target.png,125,4.2175,11.0,14118,125,feet,jsons/VE125_randls_49.json,2301102,2804621,28,Woman
32,180046,DepthScenes,duration_manipulation_targetAtFixation,jsons/VE125_randls_49.json,http://54.235.29.9/FacialAge/BNav_EC2/DepthDuration/v2_depth_duration_MTurk/v2_DepthDuration_HTML.html#224,224,1366,625,1366,768,8-30-2022,8-58-43,33,depth_duration_stimuli/000470_2014-06-09_19-42-40_260595134347_rgbf000094-resize_1/000470_2014-06-09_19-42-40_260595134347_rgbf000094-resize_1-target.png,125,1.831,3.0,16628,125,feet,jsons/VE125_randls_49.json,2301102,2804621,28,Woman
33,180046,DepthScenes,duration_manipulation_targetAtFixation,jsons/VE125_randls_49.json,http://54.235.29.9/FacialAge/BNav_EC2/DepthDuration/v2_depth_duration_MTurk/v2_DepthDuration_HTML.html#224,224,1366,625,1366,768,8-30-2022,8-58-43,34,depth_duration_stimuli/000109_2014-05-14_23-41-52_260595134347_rgbf000035-resize_9/000109_2014-05-14_23-41-52_260595134347_rgbf000035-resize_9-target.png,125,1.3545,2.0,3928,125,feet,jsons/VE125_randls_49.json,2301102,2804621,28,Woman
34,180046,DepthScenes,duration_manipulation_targetAtFixation,jsons/VE125_randls_49.json,http://54.235.29.9/FacialAge/BNav_EC2/DepthDuration/v2_depth_duration_MTurk/v2_DepthDuration_HTML.html#224,224,1366,625,1366,768,8-30-2022,8-58-43,35,depth_duration_stimuli/001175_2014-06-17_15-45-55_260595134347_rgbf000129-resize_4/001175_2014-06-17_15-45-55_260595134347_rgbf000129-resize_4-target.png,125,4.255,14.0,21389,124,feet,jsons/VE125_randls_49.json,2301102,2804621,28,Woman
35,180046,DepthScenes,duration_manipulation_targetAtFixation,jsons/VE125_randls_49.json,http://54.235.29.9/FacialAge/BNav_EC2/DepthDuration/v2_depth_duration_MTurk/v2_DepthDuration_HTML.html#224,224,1366,625,1366,768,8-30-2022,8-58-43,36,depth_duration_stimuli/003490_2014-05-21_15-50-11_094959634447_rgbf000101-resize_3/003490_2014-05-21_15-50-11_094959634447_rgbf000101-resize_3-target.png,125,3.6445,8.0,9496,125,feet,jsons/VE125_randls_49.json,2301102,2804621,28,Woman
36,180046,DepthScenes,duration_manipulation_targetAtFixation,jsons/VE125_randls_49.json,http://54.235.29.9/FacialAge/BNav_EC2/DepthDuration/v2_depth_duration_MTurk/v2_DepthDuration_HTML.html#224,224,1366,625,1366,768,8-30-2022,8-58-43,37,depth_duration_stimuli/000469_2014-06-09_19-42-10_260595134347_rgbf000081-resize_1/000469_2014-06-09_19-42-10_260595134347_rgbf000081-resize_1-target.png,125,1.652,2.0,17157,125,feet,jsons/VE125_randls_49.json,2301102,2804621,28,Woman
37,180046,DepthScenes,duration_manipulation_targetAtFixation,jsons/VE125_randls_49.json,http://54.235.29.9/FacialAge/BNav_EC2/DepthDuration/v2_depth_duration_MTurk/v2_DepthDuration_HTML.html#224,224,1366,625,1366,768,8-30-2022,8-58-43,38,depth_duration_stimuli/000483_2014-06-09_20-41-45_260595134347_rgbf000116-resize_4/000483_2014-06-09_20-41-45_260595134347_rgbf000116-resize_4-target.png,125,1.337,2.0,10212,124,feet,jsons/VE125_randls_49.json,2301102,2804621,28,Woman
38,180046,DepthScenes,duration_manipulation_targetAtFixation,jsons/VE125_randls_49.json,http://54.235.29.9/FacialAge/BNav_EC2/DepthDuration/v2_depth_duration_MTurk/v2_DepthDuration_HTML.html#224,224,1366,625,1366,768,8-30-2022,8-58-43,39,depth_duration_stimuli/001199_2014-06-17_16-03-48_260595134347_rgbf000077-resize_0/001199_2014-06-17_16-03-48_260595134347_rgbf000077-resize_0-target.png,125,3.4375,20.0,18030,125,feet,jsons/VE125_randls_49.json,2301102,2804621,28,Woman
39,180046,DepthScenes,duration_manipulation_targetAtFixation,jsons/VE125_randls_49.json,http://54.235.29.9/FacialAge/BNav_EC2/DepthDuration/v2_depth_duration_MTurk/v2_DepthDuration_HTML.html#224,224,1366,625,1366,768,8-30-2022,8-58-43,40,depth_duration_stimuli/000502_2014-06-08_23-02-32_260595134347_rgbf000063-resize_4/000502_2014-06-08_23-02-32_260595134347_rgbf000063-resize_4-target.png,125,2.431,6.0,8046,125,feet,jsons/VE125_randls_49.json,2301102,2804621,28,Woman
40,180046,DepthScenes,duration_manipulation_targetAtFixation,jsons/VE125_randls_49.json,http://54.235.29.9/FacialAge/BNav_EC2/DepthDuration/v2_depth_duration_MTurk/v2_DepthDuration_HTML.html#224,224,1366,625,1366,768,8-30-2022,8-58-43,41,depth_duration_stimuli/002509_2014-06-24_13-19-22_094959634447_rgbf000077-resize_0/002509_2014-06-24_13-19-22_094959634447_rgbf000077-resize_0-target.png,125,1.3065,4.0,16962,124,feet,jsons/VE125_randls_49.json,2301102,2804621,28,Woman
41,180046,DepthScenes,duration_manipulation_targetAtFixation,jsons/VE125_randls_49.json,http://54.235.29.9/FacialAge/BNav_EC2/DepthDuration/v2_depth_duration_MTurk/v2_DepthDuration_HTML.html#224,224,1366,625,1366,768,8-30-2022,8-58-43,42,depth_duration_stimuli/003338_2014-05-20_11-01-23_094959634447_rgbf000051-resize_6/003338_2014-05-20_11-01-23_094959634447_rgbf000051-resize_6-target.png,125,1.693,5.0,11904,124,feet,jsons/VE125_randls_49.json,2301102,2804621,28,Woman
42,180046,DepthScenes,duration_manipulation_targetAtFixation,jsons/VE125_randls_49.json,http://54.235.29.9/FacialAge/BNav_EC2/DepthDuration/v2_depth_duration_MTurk/v2_DepthDuration_HTML.html#224,224,1366,625,1366,768,8-30-2022,8-58-43,43,depth_duration_stimuli/002784_2014-06-22_19-26-30_094959634447_rgbf000083-resize_3/002784_2014-06-22_19-26-30_094959634447_rgbf000083-resize_3-target.png,125,1.8046666666667,3.0,20702,124,feet,jsons/VE125_randls_49.json,2301102,2804621,28,Woman
43,180046,DepthScenes,duration_manipulation_targetAtFixation,jsons/VE125_randls_49.json,http://54.235.29.9/FacialAge/BNav_EC2/DepthDuration/v2_depth_duration_MTurk/v2_DepthDuration_HTML.html#224,224,1366,625,1366,768,8-30-2022,8-58-43,44,depth_duration_stimuli/001100_2014-06-15_17-46-26_260595134347_rgbf000225-resize_2/001100_2014-06-15_17-46-26_260595134347_rgbf000225-resize_2-target.png,125,2.24,2.0,3232,124,feet,jsons/VE125_randls_49.json,2301102,2804621,28,Woman
44,180046,DepthScenes,duration_manipulation_targetAtFixation,jsons/VE125_randls_49.json,http://54.235.29.9/FacialAge/BNav_EC2/DepthDuration/v2_depth_duration_MTurk/v2_DepthDuration_HTML.html#224,224,1366,625,1366,768,8-30-2022,8-58-43,45,depth_duration_stimuli/000787_2014-06-08_22-33-53_260595134347_rgbf000175-resize_1/000787_2014-06-08_22-33-53_260595134347_rgbf000175-resize-original.jpg,125,4.784,0.0,22962,126,feet,jsons/VE125_randls_49.json,2301102,2804621,28,Woman
45,180046,DepthScenes,duration_manipulation_targetAtFixation,jsons/VE125_randls_49.json,http://54.235.29.9/FacialAge/BNav_EC2/DepthDuration/v2_depth_duration_MTurk/v2_DepthDuration_HTML.html#224,224,1366,625,1366,768,8-30-2022,8-58-43,46,depth_duration_stimuli/001167_2014-06-17_15-38-07_260595134347_rgbf000108-resize_0/001167_2014-06-17_15-38-07_260595134347_rgbf000108-resize_0-target.png,125,1.8505,0.0,3380,128,feet,jsons/VE125_randls_49.json,2301102,2804621,28,Woman
46,180046,DepthScenes,duration_manipulation_targetAtFixation,jsons/VE125_randls_49.json,http://54.235.29.9/FacialAge/BNav_EC2/DepthDuration/v2_depth_duration_MTurk/v2_DepthDuration_HTML.html#224,224,1366,625,1366,768,8-30-2022,8-58-43,47,depth_duration_stimuli/003587_2014-05-23_16-48-02_094959634447_rgbf002384-resize_2/003587_2014-05-23_16-48-02_094959634447_rgbf002384-resize_2-target.png,125,1.357,1.0,20603,125,feet,jsons/VE125_randls_49.json,2301102,2804621,28,Woman
47,180046,DepthScenes,duration_manipulation_targetAtFixation,jsons/VE125_randls_49.json,http://54.235.29.9/FacialAge/BNav_EC2/DepthDuration/v2_depth_duration_MTurk/v2_DepthDuration_HTML.html#224,224,1366,625,1366,768,8-30-2022,8-58-43,48,depth_duration_stimuli/002905_2014-06-03_18-04-43_094959634447_rgbf000151-resize_2/002905_2014-06-03_18-04-43_094959634447_rgbf000151-resize_2-target.png,125,2.0295,3.0,21498,124,feet,jsons/VE125_randls_49.json,2301102,2804621,28,Woman
48,180046,DepthScenes,duration_manipulation_targetAtFixation,jsons/VE125_randls_49.json,http://54.235.29.9/FacialAge/BNav_EC2/DepthDuration/v2_depth_duration_MTurk/v2_DepthDuration_HTML.html#224,224,1366,625,1366,768,8-30-2022,8-58-43,49,depth_duration_stimuli/003423_2014-05-21_10-23-26_094959634447_rgbf002665-resize_2/003423_2014-05-21_10-23-26_094959634447_rgbf002665-resize_2-target.png,125,3.2575,7.0,16827,125,feet,jsons/VE125_randls_49.json,2301102,2804621,28,Woman
49,180046,DepthScenes,duration_manipulation_targetAtFixation,jsons/VE125_randls_49.json,http://54.235.29.9/FacialAge/BNav_EC2/DepthDuration/v2_depth_duration_MTurk/v2_DepthDuration_HTML.html#224,224,1366,625,1366,768,8-30-2022,8-58-43,50,depth_duration_stimuli/001029_2014-06-08_13-17-57_260595134347_rgbf000065-resize_1/001029_2014-06-08_13-17-57_260595134347_rgbf000065-resize_1-target.png,125,3.0835,7.0,17530,124,feet,jsons/VE125_randls_49.json,2301102,2804621,28,Woman
50,180046,DepthScenes,duration_manipulation_targetAtFixation,jsons/VE125_randls_49.json,http://54.235.29.9/FacialAge/BNav_EC2/DepthDuration/v2_depth_duration_MTurk/v2_DepthDuration_HTML.html#224,224,1366,625,1366,768,8-30-2022,8-58-43,51,depth_duration_stimuli/000677_2014-06-08_23-10-32_260595134347_rgbf000158-resize_6/000677_2014-06-08_23-10-32_260595134347_rgbf000158-resize_6-target.png,125,3.556,8.0,3808,124,feet,jsons/VE125_randls_49.json,2301102,2804621,28,Woman
51,180046,DepthScenes,duration_manipulation_targetAtFixation,jsons/VE125_randls_49.json,http://54.235.29.9/FacialAge/BNav_EC2/DepthDuration/v2_depth_duration_MTurk/v2_DepthDuration_HTML.html#224,224,1366,625,1366,768,8-30-2022,8-58-43,52,depth_duration_stimuli/000506_2014-06-08_23-21-00_260595134347_rgbf000070-resize_7/000506_2014-06-08_23-21-00_260595134347_rgbf000070-resize_7-target.png,125,4.0585,8.0,16314,124,feet,jsons/VE125_randls_49.json,2301102,2804621,28,Woman
52,180046,DepthScenes,duration_manipulation_targetAtFixation,jsons/VE125_randls_49.json,http://54.235.29.9/FacialAge/BNav_EC2/DepthDuration/v2_depth_duration_MTurk/v2_DepthDuration_HTML.html#224,224,1366,625,1366,768,8-30-2022,8-58-43,53,depth_duration_stimuli/003079_2014-06-15_15-18-20_094959634447_rgbf000152-resize_8/003079_2014-06-15_15-18-20_094959634447_rgbf000152-resize_8-target.png,125,2.8775,10.0,4009,126,feet,jsons/VE125_randls_49.json,2301102,2804621,28,Woman
53,180046,DepthScenes,duration_manipulation_targetAtFixation,jsons/VE125_randls_49.json,http://54.235.29.9/FacialAge/BNav_EC2/DepthDuration/v2_depth_duration_MTurk/v2_DepthDuration_HTML.html#224,224,1366,625,1366,768,8-30-2022,8-58-43,54,depth_duration_stimuli/000009_2014-05-26_14-32-05_260595134347_rgbf000034-resize_3/000009_2014-05-26_14-32-05_260595134347_rgbf000034-resize_3-target.png,125,3.8715,16.0,19845,123,feet,jsons/VE125_randls_49.json,2301102,2804621,28,Woman
54,180046,DepthScenes,duration_manipulation_targetAtFixation,jsons/VE125_randls_49.json,http://54.235.29.9/FacialAge/BNav_EC2/DepthDuration/v2_depth_duration_MTurk/v2_DepthDuration_HTML.html#224,224,1366,625,1366,768,8-30-2022,8-58-43,55,depth_duration_stimuli/001828_2014-06-26_21-40-03_260595134347_rgbf000024-resize_0/001828_2014-06-26_21-40-03_260595134347_rgbf000024-resize_0-target.png,125,4.8260000000000005,10.0,12376,125,feet,jsons/VE125_randls_49.json,2301102,2804621,28,Woman
55,180046,DepthScenes,duration_manipulation_targetAtFixation,jsons/VE125_randls_49.json,http://54.235.29.9/FacialAge/BNav_EC2/DepthDuration/v2_depth_duration_MTurk/v2_DepthDuration_HTML.html#224,224,1366,625,1366,768,8-30-2022,8-58-43,56,depth_duration_stimuli/001158_2014-06-17_15-32-16_260595134347_rgbf000138-resize_2/001158_2014-06-17_15-32-16_260595134347_rgbf000138-resize_2-target.png,125,4.5315,10.0,18625,125,feet,jsons/VE125_randls_49.json,2301102,2804621,28,Woman
56,180046,DepthScenes,duration_manipulation_targetAtFixation,jsons/VE125_randls_49.json,http://54.235.29.9/FacialAge/BNav_EC2/DepthDuration/v2_depth_duration_MTurk/v2_DepthDuration_HTML.html#224,224,1366,625,1366,768,8-30-2022,8-58-43,57,depth_duration_stimuli/000556_2014-06-09_22-42-56_260595134347_rgbf000214-resize_1/000556_2014-06-09_22-42-56_260595134347_rgbf000214-resize_1-target.png,125,4.8415,10.0,14951,126,feet,jsons/VE125_randls_49.json,2301102,2804621,28,Woman
57,180046,DepthScenes,duration_manipulation_targetAtFixation,jsons/VE125_randls_49.json,http://54.235.29.9/FacialAge/BNav_EC2/DepthDuration/v2_depth_duration_MTurk/v2_DepthDuration_HTML.html#224,224,1366,625,1366,768,8-30-2022,8-58-43,58,depth_duration_stimuli/002043_2014-06-24_20-29-38_260595134347_rgbf000039-resize_4/002043_2014-06-24_20-29-38_260595134347_rgbf000039-resize_4-target.png,125,2.8435,6.0,14845,126,feet,jsons/VE125_randls_49.json,2301102,2804621,28,Woman
58,180046,DepthScenes,duration_manipulation_targetAtFixation,jsons/VE125_randls_49.json,http://54.235.29.9/FacialAge/BNav_EC2/DepthDuration/v2_depth_duration_MTurk/v2_DepthDuration_HTML.html#224,224,1366,625,1366,768,8-30-2022,8-58-43,59,depth_duration_stimuli/003048_2014-06-15_13-49-43_094959634447_rgbf000150-resize_1/003048_2014-06-15_13-49-43_094959634447_rgbf000150-resize_1-target.png,125,4.0035,10.0,7961,125,feet,jsons/VE125_randls_49.json,2301102,2804621,28,Woman
59,180046,DepthScenes,duration_manipulation_targetAtFixation,jsons/VE125_randls_49.json,http://54.235.29.9/FacialAge/BNav_EC2/DepthDuration/v2_depth_duration_MTurk/v2_DepthDuration_HTML.html#224,224,1366,625,1366,768,8-30-2022,8-58-43,60,depth_duration_stimuli/002989_2014-06-15_12-25-03_094959634447_rgbf000150-resize_3/002989_2014-06-15_12-25-03_094959634447_rgbf000150-resize_3-target.png,125,4.1975,10.0,13829,125,feet,jsons/VE125_randls_49.json,2301102,2804621,28,Woman
60,180046,DepthScenes,duration_manipulation_targetAtFixation,jsons/VE125_randls_49.json,http://54.235.29.9/FacialAge/BNav_EC2/DepthDuration/v2_depth_duration_MTurk/v2_DepthDuration_HTML.html#224,224,1366,625,1366,768,8-30-2022,8-58-43,61,depth_duration_stimuli/000866_2014-06-09_20-45-42_260595134347_rgbf000139-resize_1/000866_2014-06-09_20-45-42_260595134347_rgbf000139-resize_1-target.png,125,3.2155,5.0,3237,125,feet,jsons/VE125_randls_49.json,2301102,2804621,28,Woman
61,180046,DepthScenes,duration_manipulation_targetAtFixation,jsons/VE125_randls_49.json,http://54.235.29.9/FacialAge/BNav_EC2/DepthDuration/v2_depth_duration_MTurk/v2_DepthDuration_HTML.html#224,224,1366,625,1366,768,8-30-2022,8-58-43,62,depth_duration_stimuli/000486_2014-06-09_20-47-20_260595134347_rgbf000143-resize_2/000486_2014-06-09_20-47-20_260595134347_rgbf000143-resize_2-target.png,125,4.8325,9.0,18815,125,feet,jsons/VE125_randls_49.json,2301102,2804621,28,Woman
62,180046,DepthScenes,duration_manipulation_targetAtFixation,jsons/VE125_randls_49.json,http://54.235.29.9/FacialAge/BNav_EC2/DepthDuration/v2_depth_duration_MTurk/v2_DepthDuration_HTML.html#224,224,1366,625,1366,768,8-30-2022,8-58-43,63,depth_duration_stimuli/003083_2014-06-15_15-21-03_094959634447_rgbf000063-resize_1/003083_2014-06-15_15-21-03_094959634447_rgbf000063-resize_1-target.png,125,4.1405,9.0,8688,124,feet,jsons/VE125_randls_49.json,2301102,2804621,28,Woman
63,180046,DepthScenes,duration_manipulation_targetAtFixation,jsons/VE125_randls_49.json,http://54.235.29.9/FacialAge/BNav_EC2/DepthDuration/v2_depth_duration_MTurk/v2_DepthDuration_HTML.html#224,224,1366,625,1366,768,8-30-2022,8-58-43,64,depth_duration_stimuli/002788_2014-06-22_19-36-03_094959634447_rgbf000088-resize_2/002788_2014-06-22_19-36-03_094959634447_rgbf000088-resize_2-target.png,125,1.6465,6.0,15136,125,feet,jsons/VE125_randls_49.json,2301102,2804621,28,Woman
64,180046,DepthScenes,duration_manipulation_targetAtFixation,jsons/VE125_randls_49.json,http://54.235.29.9/FacialAge/BNav_EC2/DepthDuration/v2_depth_duration_MTurk/v2_DepthDuration_HTML.html#224,224,1366,625,1366,768,8-30-2022,8-58-43,65,depth_duration_stimuli/000749_2014-06-08_21-55-06_260595134347_rgbf000070-resize_2/000749_2014-06-08_21-55-06_260595134347_rgbf000070-resize_2-target.png,125,2.331,6.0,12892,124,feet,jsons/VE125_randls_49.json,2301102,2804621,28,Woman
65,180046,DepthScenes,duration_manipulation_targetAtFixation,jsons/VE125_randls_49.json,http://54.235.29.9/FacialAge/BNav_EC2/DepthDuration/v2_depth_duration_MTurk/v2_DepthDuration_HTML.html#224,224,1366,625,1366,768,8-30-2022,8-58-43,66,depth_duration_stimuli/001222_2014-06-17_16-24-06_260595134347_rgbf000073-resize_0/001222_2014-06-17_16-24-06_260595134347_rgbf000073-resize-original.jpg,125,1.4385,10.0,22891,124,feet,jsons/VE125_randls_49.json,2301102,2804621,28,Woman
66,180046,DepthScenes,duration_manipulation_targetAtFixation,jsons/VE125_randls_49.json,http://54.235.29.9/FacialAge/BNav_EC2/DepthDuration/v2_depth_duration_MTurk/v2_DepthDuration_HTML.html#224,224,1366,625,1366,768,8-30-2022,8-58-43,67,depth_duration_stimuli/002375_2014-06-28_20-13-44_260595134347_rgbf000032-resize_1/002375_2014-06-28_20-13-44_260595134347_rgbf000032-resize_1-target.png,125,4.0175,6.0,16077,126,feet,jsons/VE125_randls_49.json,2301102,2804621,28,Woman
67,180046,DepthScenes,duration_manipulation_targetAtFixation,jsons/VE125_randls_49.json,http://54.235.29.9/FacialAge/BNav_EC2/DepthDuration/v2_depth_duration_MTurk/v2_DepthDuration_HTML.html#224,224,1366,625,1366,768,8-30-2022,8-58-43,68,depth_duration_stimuli/002657_2014-06-13_15-29-54_094959634447_rgbf000150-resize_1/002657_2014-06-13_15-29-54_094959634447_rgbf000150-resize_1-target.png,125,4.919,11.0,15734,125,feet,jsons/VE125_randls_49.json,2301102,2804621,28,Woman
68,180046,DepthScenes,duration_manipulation_targetAtFixation,jsons/VE125_randls_49.json,http://54.235.29.9/FacialAge/BNav_EC2/DepthDuration/v2_depth_duration_MTurk/v2_DepthDuration_HTML.html#224,224,1366,625,1366,768,8-30-2022,8-58-43,69,depth_duration_stimuli/001133_2014-06-17_14-49-16_260595134347_rgbf000100-resize_0/001133_2014-06-17_14-49-16_260595134347_rgbf000100-resize_0-target.png,125,4.2115,0.0,3731,124,feet,jsons/VE125_randls_49.json,2301102,2804621,28,Woman
69,180046,DepthScenes,duration_manipulation_targetAtFixation,jsons/VE125_randls_49.json,http://54.235.29.9/FacialAge/BNav_EC2/DepthDuration/v2_depth_duration_MTurk/v2_DepthDuration_HTML.html#224,224,1366,625,1366,768,8-30-2022,8-58-43,70,depth_duration_stimuli/001132_2014-06-17_14-48-54_260595134347_rgbf000100-resize_2/001132_2014-06-17_14-48-54_260595134347_rgbf000100-resize_2-target.png,125,3.753,10.0,13891,125,feet,jsons/VE125_randls_49.json,2301102,2804621,28,Woman
70,180046,DepthScenes,duration_manipulation_targetAtFixation,jsons/VE125_randls_49.json,http://54.235.29.9/FacialAge/BNav_EC2/DepthDuration/v2_depth_duration_MTurk/v2_DepthDuration_HTML.html#224,224,1366,625,1366,768,8-30-2022,8-58-43,71,depth_duration_stimuli/002039_2014-06-24_20-22-38_260595134347_rgbf000084-resize_1/002039_2014-06-24_20-22-38_260595134347_rgbf000084-resize_1-target.png,125,4.408,14.0,16864,124,feet,jsons/VE125_randls_49.json,2301102,2804621,28,Woman
71,180046,DepthScenes,duration_manipulation_targetAtFixation,jsons/VE125_randls_49.json,http://54.235.29.9/FacialAge/BNav_EC2/DepthDuration/v2_depth_duration_MTurk/v2_DepthDuration_HTML.html#224,224,1366,625,1366,768,8-30-2022,8-58-43,72,depth_duration_stimuli/002103_2014-06-25_20-00-40_260595134347_rgbf000049-resize_0/002103_2014-06-25_20-00-40_260595134347_rgbf000049-resize_0-target.png,125,4.105,21.0,19277,124,feet,jsons/VE125_randls_49.json,2301102,2804621,28,Woman
72,180046,DepthScenes,duration_manipulation_targetAtFixation,jsons/VE125_randls_49.json,http://54.235.29.9/FacialAge/BNav_EC2/DepthDuration/v2_depth_duration_MTurk/v2_DepthDuration_HTML.html#224,224,1366,625,1366,768,8-30-2022,8-58-43,73,depth_duration_stimuli/000414_2014-06-04_19-49-13_260595134347_rgbf000044-resize_0/000414_2014-06-04_19-49-13_260595134347_rgbf000044-resize_0-target.png,125,4.329,16.0,22760,125,feet,jsons/VE125_randls_49.json,2301102,2804621,28,Woman
73,180046,DepthScenes,duration_manipulation_targetAtFixation,jsons/VE125_randls_49.json,http://54.235.29.9/FacialAge/BNav_EC2/DepthDuration/v2_depth_duration_MTurk/v2_DepthDuration_HTML.html#224,224,1366,625,1366,768,8-30-2022,8-58-43,74,depth_duration_stimuli/003129_2014-05-12_10-48-10_094959634447_rgbf000100-resize_0/003129_2014-05-12_10-48-10_094959634447_rgbf000100-resize_0-target.png,125,4.9305,15.0,7948,124,feet,jsons/VE125_randls_49.json,2301102,2804621,28,Woman
74,180046,DepthScenes,duration_manipulation_targetAtFixation,jsons/VE125_randls_49.json,http://54.235.29.9/FacialAge/BNav_EC2/DepthDuration/v2_depth_duration_MTurk/v2_DepthDuration_HTML.html#224,224,1366,625,1366,768,8-30-2022,8-58-43,75,depth_duration_stimuli/001164_2014-06-17_15-35-46_260595134347_rgbf000085-resize_3/001164_2014-06-17_15-35-46_260595134347_rgbf000085-resize_3-target.png,125,2.354,6.0,19111,123,feet,jsons/VE125_randls_49.json,2301102,2804621,28,Woman
75,180046,DepthScenes,duration_manipulation_targetAtFixation,jsons/VE125_randls_49.json,http://54.235.29.9/FacialAge/BNav_EC2/DepthDuration/v2_depth_duration_MTurk/v2_DepthDuration_HTML.html#224,224,1366,625,1366,768,8-30-2022,8-58-43,76,depth_duration_stimuli/001136_2014-06-17_15-19-41_260595134347_rgbf000076-resize_3/001136_2014-06-17_15-19-41_260595134347_rgbf000076-resize_3-target.png,125,1.8655,4.0,3616,125,feet,jsons/VE125_randls_49.json,2301102,2804621,28,Woman
76,180046,DepthScenes,duration_manipulation_targetAtFixation,jsons/VE125_randls_49.json,http://54.235.29.9/FacialAge/BNav_EC2/DepthDuration/v2_depth_duration_MTurk/v2_DepthDuration_HTML.html#224,224,1366,625,1366,768,8-30-2022,8-58-43,77,depth_duration_stimuli/002570_2014-06-24_13-59-54_094959634447_rgbf000059-resize_0/002570_2014-06-24_13-59-54_094959634447_rgbf000059-resize_0-target.png,125,4.037,8.0,21104,125,feet,jsons/VE125_randls_49.json,2301102,2804621,28,Woman
77,180046,DepthScenes,duration_manipulation_targetAtFixation,jsons/VE125_randls_49.json,http://54.235.29.9/FacialAge/BNav_EC2/DepthDuration/v2_depth_duration_MTurk/v2_DepthDuration_HTML.html#224,224,1366,625,1366,768,8-30-2022,8-58-43,78,depth_duration_stimuli/002467_2014-06-28_20-38-07_260595134347_rgbf000026-resize_2/002467_2014-06-28_20-38-07_260595134347_rgbf000026-resize_2-target.png,125,4.742,8.0,4701,125,feet,jsons/VE125_randls_49.json,2301102,2804621,28,Woman
78,180046,DepthScenes,duration_manipulation_targetAtFixation,jsons/VE125_randls_49.json,http://54.235.29.9/FacialAge/BNav_EC2/DepthDuration/v2_depth_duration_MTurk/v2_DepthDuration_HTML.html#224,224,1366,625,1366,768,8-30-2022,8-58-43,79,depth_duration_stimuli/002964_2014-06-08_17-46-11_094959634447_rgbf000091-resize_4/002964_2014-06-08_17-46-11_094959634447_rgbf000091-resize_4-target.png,125,1.6909999999999998,2.0,19591,126,feet,jsons/VE125_randls_49.json,2301102,2804621,28,Woman
79,180046,DepthScenes,duration_manipulation_targetAtFixation,jsons/VE125_randls_49.json,http://54.235.29.9/FacialAge/BNav_EC2/DepthDuration/v2_depth_duration_MTurk/v2_DepthDuration_HTML.html#224,224,1366,625,1366,768,8-30-2022,8-58-43,80,depth_duration_stimuli/002136_2014-06-25_21-18-03_260595134347_rgbf000109-resize_3/002136_2014-06-25_21-18-03_260595134347_rgbf000109-resize_3-target.png,125,1.9569999999999999,4.0,12639,125,feet,jsons/VE125_randls_49.json,2301102,2804621,28,Woman
80,180046,DepthScenes,duration_manipulation_targetAtFixation,jsons/VE125_randls_49.json,http://54.235.29.9/FacialAge/BNav_EC2/DepthDuration/v2_depth_duration_MTurk/v2_DepthDuration_HTML.html#224,224,1366,625,1366,768,8-30-2022,8-58-43,81,depth_duration_stimuli/000906_2014-06-08_13-35-43_260595134347_rgbf000155-resize_1/000906_2014-06-08_13-35-43_260595134347_rgbf000155-resize_1-target.png,125,2.8489999999999998,12.0,16352,125,feet,jsons/VE125_randls_49.json,2301102,2804621,28,Woman
81,180046,DepthScenes,duration_manipulation_targetAtFixation,jsons/VE125_randls_49.json,http://54.235.29.9/FacialAge/BNav_EC2/DepthDuration/v2_depth_duration_MTurk/v2_DepthDuration_HTML.html#224,224,1366,625,1366,768,8-30-2022,8-58-43,82,depth_duration_stimuli/002805_2014-06-22_19-54-03_094959634447_rgbf000079-resize_1/002805_2014-06-22_19-54-03_094959634447_rgbf000079-resize_1-target.png,125,3.1439999999999997,0.0,3812,125,feet,jsons/VE125_randls_49.json,2301102,2804621,28,Woman
82,180046,DepthScenes,duration_manipulation_targetAtFixation,jsons/VE125_randls_49.json,http://54.235.29.9/FacialAge/BNav_EC2/DepthDuration/v2_depth_duration_MTurk/v2_DepthDuration_HTML.html#224,224,1366,625,1366,768,8-30-2022,8-58-43,83,depth_duration_stimuli/003070_2014-06-15_14-58-27_094959634447_rgbf000150-resize_3/003070_2014-06-15_14-58-27_094959634447_rgbf000150-resize_3-target.png,125,2.9415,10.0,17193,125,feet,jsons/VE125_randls_49.json,2301102,2804621,28,Woman
83,180046,DepthScenes,duration_manipulation_targetAtFixation,jsons/VE125_randls_49.json,http://54.235.29.9/FacialAge/BNav_EC2/DepthDuration/v2_depth_duration_MTurk/v2_DepthDuration_HTML.html#224,224,1366,625,1366,768,8-30-2022,8-58-43,84,depth_duration_stimuli/000943_2014-06-09_19-31-07_260595134347_rgbf000128-resize_1/000943_2014-06-09_19-31-07_260595134347_rgbf000128-resize_1-target.png,125,1.9765,5.0,10242,124,feet,jsons/VE125_randls_49.json,2301102,2804621,28,Woman
84,180046,DepthScenes,duration_manipulation_targetAtFixation,jsons/VE125_randls_49.json,http://54.235.29.9/FacialAge/BNav_EC2/DepthDuration/v2_depth_duration_MTurk/v2_DepthDuration_HTML.html#224,224,1366,625,1366,768,8-30-2022,8-58-43,85,depth_duration_stimuli/000739_2014-06-08_18-45-58_260595134347_rgbf000068-resize_1/000739_2014-06-08_18-45-58_260595134347_rgbf000068-resize_1-target.png,125,3.534,8.0,21723,121,feet,jsons/VE125_randls_49.json,2301102,2804621,28,Woman
85,180046,DepthScenes,duration_manipulation_targetAtFixation,jsons/VE125_randls_49.json,http://54.235.29.9/FacialAge/BNav_EC2/DepthDuration/v2_depth_duration_MTurk/v2_DepthDuration_HTML.html#224,224,1366,625,1366,768,8-30-2022,8-58-43,86,depth_duration_stimuli/000734_2014-06-08_17-39-11_260595134347_rgbf000128-resize_2/000734_2014-06-08_17-39-11_260595134347_rgbf000128-resize_2-target.png,125,4.098,6.0,11330,125,feet,jsons/VE125_randls_49.json,2301102,2804621,28,Woman
86,180046,DepthScenes,duration_manipulation_targetAtFixation,jsons/VE125_randls_49.json,http://54.235.29.9/FacialAge/BNav_EC2/DepthDuration/v2_depth_duration_MTurk/v2_DepthDuration_HTML.html#224,224,1366,625,1366,768,8-30-2022,8-58-43,87,depth_duration_stimuli/003534_2014-05-22_15-06-10_094959634447_rgbf000102-resize_4/003534_2014-05-22_15-06-10_094959634447_rgbf000102-resize_4-target.png,125,1.426,2.0,19248,126,feet,jsons/VE125_randls_49.json,2301102,2804621,28,Woman
87,180046,DepthScenes,duration_manipulation_targetAtFixation,jsons/VE125_randls_49.json,http://54.235.29.9/FacialAge/BNav_EC2/DepthDuration/v2_depth_duration_MTurk/v2_DepthDuration_HTML.html#224,224,1366,625,1366,768,8-30-2022,8-58-43,88,depth_duration_stimuli/002637_2014-06-24_14-51-13_094959634447_rgbf000066-resize_4/002637_2014-06-24_14-51-13_094959634447_rgbf000066-resize_4-target.png,125,1.9955,6.0,10457,124,feet,jsons/VE125_randls_49.json,2301102,2804621,28,Woman
88,180046,DepthScenes,duration_manipulation_targetAtFixation,jsons/VE125_randls_49.json,http://54.235.29.9/FacialAge/BNav_EC2/DepthDuration/v2_depth_duration_MTurk/v2_DepthDuration_HTML.html#224,224,1366,625,1366,768,8-30-2022,8-58-43,89,depth_duration_stimuli/001055_2014-06-08_18-45-35_260595134347_rgbf000111-resize_4/001055_2014-06-08_18-45-35_260595134347_rgbf000111-resize_4-target.png,125,2.4290000000000003,6.0,18685,124,feet,jsons/VE125_randls_49.json,2301102,2804621,28,Woman
89,180046,DepthScenes,duration_manipulation_targetAtFixation,jsons/VE125_randls_49.json,http://54.235.29.9/FacialAge/BNav_EC2/DepthDuration/v2_depth_duration_MTurk/v2_DepthDuration_HTML.html#224,224,1366,625,1366,768,8-30-2022,8-58-43,90,depth_duration_stimuli/000549_2014-06-08_22-10-24_260595134347_rgbf000247-resize_3/000549_2014-06-08_22-10-24_260595134347_rgbf000247-resize_3-target.png,125,1.841,2.0,2954,125,feet,jsons/VE125_randls_49.json,2301102,2804621,28,Woman
90,180046,DepthScenes,duration_manipulation_targetAtFixation,jsons/VE125_randls_49.json,http://54.235.29.9/FacialAge/BNav_EC2/DepthDuration/v2_depth_duration_MTurk/v2_DepthDuration_HTML.html#224,224,1366,625,1366,768,8-30-2022,8-58-43,91,depth_duration_stimuli/001555_2014-06-20_17-12-10_260595134347_rgbf000065-resize_4/001555_2014-06-20_17-12-10_260595134347_rgbf000065-resize_4-target.png,125,1.633,2.0,17289,126,feet,jsons/VE125_randls_49.json,2301102,2804621,28,Woman
91,180046,DepthScenes,duration_manipulation_targetAtFixation,jsons/VE125_randls_49.json,http://54.235.29.9/FacialAge/BNav_EC2/DepthDuration/v2_depth_duration_MTurk/v2_DepthDuration_HTML.html#224,224,1366,625,1366,768,8-30-2022,8-58-43,92,depth_duration_stimuli/000103_2014-05-14_22-01-17_260595134347_rgbf000152-resize_5/000103_2014-05-14_22-01-17_260595134347_rgbf000152-resize_5-target.png,125,1.993,4.0,3443,126,feet,jsons/VE125_randls_49.json,2301102,2804621,28,Woman
92,180046,DepthScenes,duration_manipulation_targetAtFixation,jsons/VE125_randls_49.json,http://54.235.29.9/FacialAge/BNav_EC2/DepthDuration/v2_depth_duration_MTurk/v2_DepthDuration_HTML.html#224,224,1366,625,1366,768,8-30-2022,8-58-43,93,depth_duration_stimuli/000788_2014-06-08_22-34-36_260595134347_rgbf000131-resize_1/000788_2014-06-08_22-34-36_260595134347_rgbf000131-resize_1-target.png,125,3.359,6.0,13270,125,feet,jsons/VE125_randls_49.json,2301102,2804621,28,Woman
93,180046,DepthScenes,duration_manipulation_targetAtFixation,jsons/VE125_randls_49.json,http://54.235.29.9/FacialAge/BNav_EC2/DepthDuration/v2_depth_duration_MTurk/v2_DepthDuration_HTML.html#224,224,1366,625,1366,768,8-30-2022,8-58-43,94,depth_duration_stimuli/001235_2014-06-17_16-37-36_260595134347_rgbf000084-resize_4/001235_2014-06-17_16-37-36_260595134347_rgbf000084-resize_4-target.png,125,3.6605,6.0,2946,125,feet,jsons/VE125_randls_49.json,2301102,2804621,28,Woman
94,180046,DepthScenes,duration_manipulation_targetAtFixation,jsons/VE125_randls_49.json,http://54.235.29.9/FacialAge/BNav_EC2/DepthDuration/v2_depth_duration_MTurk/v2_DepthDuration_HTML.html#224,224,1366,625,1366,768,8-30-2022,8-58-43,95,depth_duration_stimuli/000773_2014-06-08_22-24-54_260595134347_rgbf000093-resize_1/000773_2014-06-08_22-24-54_260595134347_rgbf000093-resize_1-target.png,125,4.973,10.0,18667,125,feet,jsons/VE125_randls_49.json,2301102,2804621,28,Woman
95,180046,DepthScenes,duration_manipulation_targetAtFixation,jsons/VE125_randls_49.json,http://54.235.29.9/FacialAge/BNav_EC2/DepthDuration/v2_depth_duration_MTurk/v2_DepthDuration_HTML.html#224,224,1366,625,1366,768,8-30-2022,8-58-43,96,depth_duration_stimuli/002414_2014-06-28_20-24-58_260595134347_rgbf000067-resize_4/002414_2014-06-28_20-24-58_260595134347_rgbf000067-resize_4-target.png,125,4.363,7.0,4346,124,feet,jsons/VE125_randls_49.json,2301102,2804621,28,Woman
96,180046,DepthScenes,duration_manipulation_targetAtFixation,jsons/VE125_randls_49.json,http://54.235.29.9/FacialAge/BNav_EC2/DepthDuration/v2_depth_duration_MTurk/v2_DepthDuration_HTML.html#224,224,1366,625,1366,768,8-30-2022,8-58-43,97,depth_duration_stimuli/003492_2014-05-21_15-50-55_094959634447_rgbf000828-resize_1/003492_2014-05-21_15-50-55_094959634447_rgbf000828-resize_1-target.png,125,4.06875,25.0,20431,125,feet,jsons/VE125_randls_49.json,2301102,2804621,28,Woman
97,180046,DepthScenes,duration_manipulation_targetAtFixation,jsons/VE125_randls_49.json,http://54.235.29.9/FacialAge/BNav_EC2/DepthDuration/v2_depth_duration_MTurk/v2_DepthDuration_HTML.html#224,224,1366,625,1366,768,8-30-2022,8-58-43,98,depth_duration_stimuli/002568_2014-06-24_13-59-21_094959634447_rgbf000062-resize_4/002568_2014-06-24_13-59-21_094959634447_rgbf000062-resize_4-target.png,125,3.015,9.0,5097,124,feet,jsons/VE125_randls_49.json,2301102,2804621,28,Woman
98,180046,DepthScenes,duration_manipulation_targetAtFixation,jsons/VE125_randls_49.json,http://54.235.29.9/FacialAge/BNav_EC2/DepthDuration/v2_depth_duration_MTurk/v2_DepthDuration_HTML.html#224,224,1366,625,1366,768,8-30-2022,8-58-43,99,depth_duration_stimuli/001540_2014-06-20_17-01-05_260595134347_rgbf000086-resize_2/001540_2014-06-20_17-01-05_260595134347_rgbf000086-resize-original.jpg,125,1.459,0.0,10786,125,feet,jsons/VE125_randls_49.json,2301102,2804621,28,Woman
99,180046,DepthScenes,duration_manipulation_targetAtFixation,jsons/VE125_randls_49.json,http://54.235.29.9/FacialAge/BNav_EC2/DepthDuration/v2_depth_duration_MTurk/v2_DepthDuration_HTML.html#224,224,1366,625,1366,768,8-30-2022,8-58-43,100,depth_duration_stimuli/003292_2014-05-14_21-53-49_094959634447_rgbf000100-resize_2/003292_2014-05-14_21-53-49_094959634447_rgbf000100-resize_2-target.png,125,3.4815,7.0,19939,125,feet,jsons/VE125_randls_49.json,2301102,2804621,28,Woman
100,180046,DepthScenes,duration_manipulation_targetAtFixation,jsons/VE125_randls_49.json,http://54.235.29.9/FacialAge/BNav_EC2/DepthDuration/v2_depth_duration_MTurk/v2_DepthDuration_HTML.html#224,224,1366,625,1366,768,8-30-2022,8-58-43,101,depth_duration_stimuli/002639_2014-06-24_14-51-37_094959634447_rgbf000074-resize_4/002639_2014-06-24_14-51-37_094959634447_rgbf000074-resize_4-target.png,125,4.0375,8.0,4784,124,feet,jsons/VE125_randls_49.json,2301102,2804621,28,Woman
101,180046,DepthScenes,duration_manipulation_targetAtFixation,jsons/VE125_randls_49.json,http://54.235.29.9/FacialAge/BNav_EC2/DepthDuration/v2_depth_duration_MTurk/v2_DepthDuration_HTML.html#224,224,1366,625,1366,768,8-30-2022,8-58-43,102,depth_duration_stimuli/001244_2014-06-17_16-47-45_260595134347_rgbf000030-resize_4/001244_2014-06-17_16-47-45_260595134347_rgbf000030-resize_4-target.png,125,2.0425,4.0,15168,124,feet,jsons/VE125_randls_49.json,2301102,2804621,28,Woman
102,180046,DepthScenes,duration_manipulation_targetAtFixation,jsons/VE125_randls_49.json,http://54.235.29.9/FacialAge/BNav_EC2/DepthDuration/v2_depth_duration_MTurk/v2_DepthDuration_HTML.html#224,224,1366,625,1366,768,8-30-2022,8-58-43,103,depth_duration_stimuli/003495_2014-05-21_16-01-51_094959634447_rgbf000100-resize_3/003495_2014-05-21_16-01-51_094959634447_rgbf000100-resize_3-target.png,125,1.6255,3.0,3606,124,feet,jsons/VE125_randls_49.json,2301102,2804621,28,Woman
103,180046,DepthScenes,duration_manipulation_targetAtFixation,jsons/VE125_randls_49.json,http://54.235.29.9/FacialAge/BNav_EC2/DepthDuration/v2_depth_duration_MTurk/v2_DepthDuration_HTML.html#224,224,1366,625,1366,768,8-30-2022,8-58-43,104,depth_duration_stimuli/001449_2014-06-19_17-01-27_260595134347_rgbf000116-resize_2/001449_2014-06-19_17-01-27_260595134347_rgbf000116-resize_2-target.png,125,3.452,5.0,15707,124,feet,jsons/VE125_randls_49.json,2301102,2804621,28,Woman
104,180046,DepthScenes,duration_manipulation_targetAtFixation,jsons/VE125_randls_49.json,http://54.235.29.9/FacialAge/BNav_EC2/DepthDuration/v2_depth_duration_MTurk/v2_DepthDuration_HTML.html#224,224,1366,625,1366,768,8-30-2022,8-58-43,105,depth_duration_stimuli/001450_2014-06-19_17-02-03_260595134347_rgbf000203-resize_4/001450_2014-06-19_17-02-03_260595134347_rgbf000203-resize_4-target.png,125,4.0106666666667,10.0,15297,125,feet,jsons/VE125_randls_49.json,2301102,2804621,28,Woman
105,180046,DepthScenes,duration_manipulation_targetAtFixation,jsons/VE125_randls_49.json,http://54.235.29.9/FacialAge/BNav_EC2/DepthDuration/v2_depth_duration_MTurk/v2_DepthDuration_HTML.html#224,224,1366,625,1366,768,8-30-2022,8-58-43,106,depth_duration_stimuli/002153_2014-06-25_21-27-18_260595134347_rgbf000038-resize_5/002153_2014-06-25_21-27-18_260595134347_rgbf000038-resize_5-target.png,125,2.505,5.0,18741,125,feet,jsons/VE125_randls_49.json,2301102,2804621,28,Woman
106,180046,DepthScenes,duration_manipulation_targetAtFixation,jsons/VE125_randls_49.json,http://54.235.29.9/FacialAge/BNav_EC2/DepthDuration/v2_depth_duration_MTurk/v2_DepthDuration_HTML.html#224,224,1366,625,1366,768,8-30-2022,8-58-43,107,depth_duration_stimuli/002660_2014-06-13_15-44-18_094959634447_rgbf001878-resize_2/002660_2014-06-13_15-44-18_094959634447_rgbf001878-resize_2-target.png,125,3.576,13.0,5216,125,feet,jsons/VE125_randls_49.json,2301102,2804621,28,Woman
107,180046,DepthScenes,duration_manipulation_targetAtFixation,jsons/VE125_randls_49.json,http://54.235.29.9/FacialAge/BNav_EC2/DepthDuration/v2_depth_duration_MTurk/v2_DepthDuration_HTML.html#224,224,1366,625,1366,768,8-30-2022,8-58-43,108,depth_duration_stimuli/000522_2014-06-08_13-35-06_260595134347_rgbf000244-resize_1/000522_2014-06-08_13-35-06_260595134347_rgbf000244-resize_1-target.png,125,2.3715,1.0,18649,124,feet,jsons/VE125_randls_49.json,2301102,2804621,28,Woman
108,180046,DepthScenes,duration_manipulation_targetAtFixation,jsons/VE125_randls_49.json,http://54.235.29.9/FacialAge/BNav_EC2/DepthDuration/v2_depth_duration_MTurk/v2_DepthDuration_HTML.html#224,224,1366,625,1366,768,8-30-2022,8-58-43,109,depth_duration_stimuli/002949_2014-06-26_15-57-42_094959634447_rgbf000079-resize_1/002949_2014-06-26_15-57-42_094959634447_rgbf000079-resize_1-target.png,125,1.8915,3.0,4931,125,feet,jsons/VE125_randls_49.json,2301102,2804621,28,Woman
109,180046,DepthScenes,duration_manipulation_targetAtFixation,jsons/VE125_randls_49.json,http://54.235.29.9/FacialAge/BNav_EC2/DepthDuration/v2_depth_duration_MTurk/v2_DepthDuration_HTML.html#224,224,1366,625,1366,768,8-30-2022,8-58-43,110,depth_duration_stimuli/002748_2014-06-22_19-07-22_094959634447_rgbf000078-resize_1/002748_2014-06-22_19-07-22_094959634447_rgbf000078-resize_1-target.png,125,4.6705,17.0,21714,126,feet,jsons/VE125_randls_49.json,2301102,2804621,28,Woman
110,180046,DepthScenes,duration_manipulation_targetAtFixation,jsons/VE125_randls_49.json,http://54.235.29.9/FacialAge/BNav_EC2/DepthDuration/v2_depth_duration_MTurk/v2_DepthDuration_HTML.html#224,224,1366,625,1366,768,8-30-2022,8-58-43,111,depth_duration_stimuli/002995_2014-06-15_12-31-26_094959634447_rgbf000150-resize_1/002995_2014-06-15_12-31-26_094959634447_rgbf000150-resize_1-target.png,125,3.8360000000000003,21.0,11328,124,feet,jsons/VE125_randls_49.json,2301102,2804621,28,Woman
111,180046,DepthScenes,duration_manipulation_targetAtFixation,jsons/VE125_randls_49.json,http://54.235.29.9/FacialAge/BNav_EC2/DepthDuration/v2_depth_duration_MTurk/v2_DepthDuration_HTML.html#224,224,1366,625,1366,768,8-30-2022,8-58-43,112,depth_duration_stimuli/002445_2014-06-28_20-32-16_260595134347_rgbf000029-resize_4/002445_2014-06-28_20-32-16_260595134347_rgbf000029-resize_4-target.png,125,2.5315,4.0,12890,124,feet,jsons/VE125_randls_49.json,2301102,2804621,28,Woman
112,180046,DepthScenes,duration_manipulation_targetAtFixation,jsons/VE125_randls_49.json,http://54.235.29.9/FacialAge/BNav_EC2/DepthDuration/v2_depth_duration_MTurk/v2_DepthDuration_HTML.html#224,224,1366,625,1366,768,8-30-2022,8-58-43,113,depth_duration_stimuli/000780_2014-06-08_22-28-29_260595134347_rgbf000126-resize_1/000780_2014-06-08_22-28-29_260595134347_rgbf000126-resize_1-target.png,125,3.3825,6.0,5962,124,feet,jsons/VE125_randls_49.json,2301102,2804621,28,Woman
113,180046,DepthScenes,duration_manipulation_targetAtFixation,jsons/VE125_randls_49.json,http://54.235.29.9/FacialAge/BNav_EC2/DepthDuration/v2_depth_duration_MTurk/v2_DepthDuration_HTML.html#224,224,1366,625,1366,768,8-30-2022,8-58-43,114,depth_duration_stimuli/001066_2014-06-08_22-03-20_260595134347_rgbf000066-resize_4/001066_2014-06-08_22-03-20_260595134347_rgbf000066-resize_4-target.png,125,4.2330000000000005,11.0,17203,125,feet,jsons/VE125_randls_49.json,2301102,2804621,28,Woman
114,180046,DepthScenes,duration_manipulation_targetAtFixation,jsons/VE125_randls_49.json,http://54.235.29.9/FacialAge/BNav_EC2/DepthDuration/v2_depth_duration_MTurk/v2_DepthDuration_HTML.html#224,224,1366,625,1366,768,8-30-2022,8-58-43,115,depth_duration_stimuli/000742_2014-06-08_18-48-09_260595134347_rgbf000164-resize_4/000742_2014-06-08_18-48-09_260595134347_rgbf000164-resize_4-target.png,125,4.632,0.0,3888,125,feet,jsons/VE125_randls_49.json,2301102,2804621,28,Woman
115,180046,DepthScenes,duration_manipulation_targetAtFixation,jsons/VE125_randls_49.json,http://54.235.29.9/FacialAge/BNav_EC2/DepthDuration/v2_depth_duration_MTurk/v2_DepthDuration_HTML.html#224,224,1366,625,1366,768,8-30-2022,8-58-43,116,depth_duration_stimuli/001170_2014-06-17_15-43-44_260595134347_rgbf000096-resize_6/001170_2014-06-17_15-43-44_260595134347_rgbf000096-resize-original.jpg,125,1.1909999999999998,0.0,18589,125,feet,jsons/VE125_randls_49.json,2301102,2804621,28,Woman
116,180046,DepthScenes,duration_manipulation_targetAtFixation,jsons/VE125_randls_49.json,http://54.235.29.9/FacialAge/BNav_EC2/DepthDuration/v2_depth_duration_MTurk/v2_DepthDuration_HTML.html#224,224,1366,625,1366,768,8-30-2022,8-58-43,117,depth_duration_stimuli/002272_2014-06-28_18-53-56_260595134347_rgbf000067-resize_2/002272_2014-06-28_18-53-56_260595134347_rgbf000067-resize_2-target.png,125,1.138,1.0,29550,125,feet,jsons/VE125_randls_49.json,2301102,2804621,28,Woman
117,180046,DepthScenes,duration_manipulation_targetAtFixation,jsons/VE125_randls_49.json,http://54.235.29.9/FacialAge/BNav_EC2/DepthDuration/v2_depth_duration_MTurk/v2_DepthDuration_HTML.html#224,224,1366,625,1366,768,8-30-2022,8-58-43,118,depth_duration_stimuli/001571_2014-06-20_17-21-32_260595134347_rgbf000089-resize_1/001571_2014-06-20_17-21-32_260595134347_rgbf000089-resize_1-target.png,125,1.86,1.0,2912,124,feet,jsons/VE125_randls_49.json,2301102,2804621,28,Woman
118,180046,DepthScenes,duration_manipulation_targetAtFixation,jsons/VE125_randls_49.json,http://54.235.29.9/FacialAge/BNav_EC2/DepthDuration/v2_depth_duration_MTurk/v2_DepthDuration_HTML.html#224,224,1366,625,1366,768,8-30-2022,8-58-43,119,depth_duration_stimuli/001570_2014-06-20_17-21-09_260595134347_rgbf000135-resize_4/001570_2014-06-20_17-21-09_260595134347_rgbf000135-resize_4-target.png,125,4.467,10.0,20690,124,feet,jsons/VE125_randls_49.json,2301102,2804621,28,Woman
119,180046,DepthScenes,duration_manipulation_targetAtFixation,jsons/VE125_randls_49.json,http://54.235.29.9/FacialAge/BNav_EC2/DepthDuration/v2_depth_duration_MTurk/v2_DepthDuration_HTML.html#224,224,1366,625,1366,768,8-30-2022,8-58-43,120,depth_duration_stimuli/001392_2014-06-19_16-07-59_260595134347_rgbf000046-resize_1/001392_2014-06-19_16-07-59_260595134347_rgbf000046-resize_1-target.png,125,4.135,12.0,13735,126,feet,jsons/VE125_randls_49.json,2301102,2804621,28,Woman
120,180046,DepthScenes,duration_manipulation_targetAtFixation,jsons/VE125_randls_49.json,http://54.235.29.9/FacialAge/BNav_EC2/DepthDuration/v2_depth_duration_MTurk/v2_DepthDuration_HTML.html#224,224,1366,625,1366,768,8-30-2022,8-58-43,121,depth_duration_stimuli/002549_2014-06-24_13-41-39_094959634447_rgbf000022-resize_3/002549_2014-06-24_13-41-39_094959634447_rgbf000022-resize_3-target.png,125,1.476,2.0,16866,124,feet,jsons/VE125_randls_49.json,2301102,2804621,28,Woman
121,180046,DepthScenes,duration_manipulation_targetAtFixation,jsons/VE125_randls_49.json,http://54.235.29.9/FacialAge/BNav_EC2/DepthDuration/v2_depth_duration_MTurk/v2_DepthDuration_HTML.html#224,224,1366,625,1366,768,8-30-2022,8-58-43,122,depth_duration_stimuli/002750_2014-06-22_19-08-03_094959634447_rgbf000094-resize_4/002750_2014-06-22_19-08-03_094959634447_rgbf000094-resize_4-target.png,125,2.354,8.0,10084,124,feet,jsons/VE125_randls_49.json,2301102,2804621,28,Woman
122,180046,DepthScenes,duration_manipulation_targetAtFixation,jsons/VE125_randls_49.json,http://54.235.29.9/FacialAge/BNav_EC2/DepthDuration/v2_depth_duration_MTurk/v2_DepthDuration_HTML.html#224,224,1366,625,1366,768,8-30-2022,8-58-43,123,depth_duration_stimuli/002988_2014-06-15_12-24-20_094959634447_rgbf000150-resize_1/002988_2014-06-15_12-24-20_094959634447_rgbf000150-resize_1-target.png,125,4.7669999999999995,11.0,18714,124,feet,jsons/VE125_randls_49.json,2301102,2804621,28,Woman
123,180046,DepthScenes,duration_manipulation_targetAtFixation,jsons/VE125_randls_49.json,http://54.235.29.9/FacialAge/BNav_EC2/DepthDuration/v2_depth_duration_MTurk/v2_DepthDuration_HTML.html#224,224,1366,625,1366,768,8-30-2022,8-58-43,124,depth_duration_stimuli/001052_2014-06-08_18-24-54_260595134347_rgbf000130-resize_1/001052_2014-06-08_18-24-54_260595134347_rgbf000130-resize_1-target.png,125,4.1045,15.0,9364,124,feet,jsons/VE125_randls_49.json,2301102,2804621,28,Woman
124,180046,DepthScenes,duration_manipulation_targetAtFixation,jsons/VE125_randls_49.json,http://54.235.29.9/FacialAge/BNav_EC2/DepthDuration/v2_depth_duration_MTurk/v2_DepthDuration_HTML.html#224,224,1366,625,1366,768,8-30-2022,8-58-43,125,depth_duration_stimuli/002663_2014-06-13_15-50-26_094959634447_rgbf000075-resize_1/002663_2014-06-13_15-50-26_094959634447_rgbf000075-resize_1-target.png,125,4.7495,15.0,21227,123,feet,jsons/VE125_randls_49.json,2301102,2804621,28,Woman
125,180046,DepthScenes,duration_manipulation_targetAtFixation,jsons/VE125_randls_49.json,http://54.235.29.9/FacialAge/BNav_EC2/DepthDuration/v2_depth_duration_MTurk/v2_DepthDuration_HTML.html#224,224,1366,625,1366,768,8-30-2022,8-58-43,126,depth_duration_stimuli/000409_2014-06-04_19-23-33_260595134347_rgbf000067-resize_0/000409_2014-06-04_19-23-33_260595134347_rgbf000067-resize_0-target.png,125,3.7335,8.0,5843,124,feet,jsons/VE125_randls_49.json,2301102,2804621,28,Woman
126,180046,DepthScenes,duration_manipulation_targetAtFixation,jsons/VE125_randls_49.json,http://54.235.29.9/FacialAge/BNav_EC2/DepthDuration/v2_depth_duration_MTurk/v2_DepthDuration_HTML.html#224,224,1366,625,1366,768,8-30-2022,8-58-43,127,depth_duration_stimuli/001056_2014-06-08_18-46-44_260595134347_rgbf000068-resize_0/001056_2014-06-08_18-46-44_260595134347_rgbf000068-resize_0-target.png,125,2.6625,8.0,17717,126,feet,jsons/VE125_randls_49.json,2301102,2804621,28,Woman
127,180046,DepthScenes,duration_manipulation_targetAtFixation,jsons/VE125_randls_49.json,http://54.235.29.9/FacialAge/BNav_EC2/DepthDuration/v2_depth_duration_MTurk/v2_DepthDuration_HTML.html#224,224,1366,625,1366,768,8-30-2022,8-58-43,128,depth_duration_stimuli/002199_2014-06-28_18-33-56_260595134347_rgbf000074-resize_0/002199_2014-06-28_18-33-56_260595134347_rgbf000074-resize_0-target.png,125,1.996,2.0,3418,124,feet,jsons/VE125_randls_49.json,2301102,2804621,28,Woman
128,180046,DepthScenes,duration_manipulation_targetAtFixation,jsons/VE125_randls_49.json,http://54.235.29.9/FacialAge/BNav_EC2/DepthDuration/v2_depth_duration_MTurk/v2_DepthDuration_HTML.html#224,224,1366,625,1366,768,8-30-2022,8-58-43,129,depth_duration_stimuli/000736_2014-06-08_18-24-15_260595134347_rgbf000206-resize_3/000736_2014-06-08_18-24-15_260595134347_rgbf000206-resize_3-target.png,125,3.515,4.0,21020,125,feet,jsons/VE125_randls_49.json,2301102,2804621,28,Woman
129,180046,DepthScenes,duration_manipulation_targetAtFixation,jsons/VE125_randls_49.json,http://54.235.29.9/FacialAge/BNav_EC2/DepthDuration/v2_depth_duration_MTurk/v2_DepthDuration_HTML.html#224,224,1366,625,1366,768,8-30-2022,8-58-43,130,depth_duration_stimuli/000137_2014-05-20_17-04-49_260595134347_rgbf000120-resize_1/000137_2014-05-20_17-04-49_260595134347_rgbf000120-resize_1-target.png,125,3.786,8.0,12248,126,feet,jsons/VE125_randls_49.json,2301102,2804621,28,Woman
130,180046,DepthScenes,duration_manipulation_targetAtFixation,jsons/VE125_randls_49.json,http://54.235.29.9/FacialAge/BNav_EC2/DepthDuration/v2_depth_duration_MTurk/v2_DepthDuration_HTML.html#224,224,1366,625,1366,768,8-30-2022,8-58-43,131,depth_duration_stimuli/000758_2014-06-08_22-05-08_260595134347_rgbf000085-resize_0/000758_2014-06-08_22-05-08_260595134347_rgbf000085-resize_0-target.png,125,3.3810000000000002,12.0,19639,125,feet,jsons/VE125_randls_49.json,2301102,2804621,28,Woman
131,180046,DepthScenes,duration_manipulation_targetAtFixation,jsons/VE125_randls_49.json,http://54.235.29.9/FacialAge/BNav_EC2/DepthDuration/v2_depth_duration_MTurk/v2_DepthDuration_HTML.html#224,224,1366,625,1366,768,8-30-2022,8-58-43,132,depth_duration_stimuli/000854_2014-06-09_19-43-13_260595134347_rgbf000066-resize_0/000854_2014-06-09_19-43-13_260595134347_rgbf000066-resize_0-target.png,125,3.068,4.0,8841,124,feet,jsons/VE125_randls_49.json,2301102,2804621,28,Woman
132,180046,DepthScenes,duration_manipulation_targetAtFixation,jsons/VE125_randls_49.json,http://54.235.29.9/FacialAge/BNav_EC2/DepthDuration/v2_depth_duration_MTurk/v2_DepthDuration_HTML.html#224,224,1366,625,1366,768,8-30-2022,8-58-43,133,depth_duration_stimuli/002118_2014-06-25_20-32-08_260595134347_rgbf000078-resize_1/002118_2014-06-25_20-32-08_260595134347_rgbf000078-resize_1-target.png,125,2.6460000000000004,7.0,19550,126,feet,jsons/VE125_randls_49.json,2301102,2804621,28,Woman
133,180046,DepthScenes,duration_manipulation_targetAtFixation,jsons/VE125_randls_49.json,http://54.235.29.9/FacialAge/BNav_EC2/DepthDuration/v2_depth_duration_MTurk/v2_DepthDuration_HTML.html#224,224,1366,625,1366,768,8-30-2022,8-58-43,134,depth_duration_stimuli/001516_2014-06-20_16-25-09_260595134347_rgbf000076-resize_2/001516_2014-06-20_16-25-09_260595134347_rgbf000076-resize_2-target.png,125,1.7445,7.0,3252,125,feet,jsons/VE125_randls_49.json,2301102,2804621,28,Woman
134,180046,DepthScenes,duration_manipulation_targetAtFixation,jsons/VE125_randls_49.json,http://54.235.29.9/FacialAge/BNav_EC2/DepthDuration/v2_depth_duration_MTurk/v2_DepthDuration_HTML.html#224,224,1366,625,1366,768,8-30-2022,8-58-43,135,depth_duration_stimuli/002072_2014-06-24_21-48-06_260595134347_rgbf000115-resize_0/002072_2014-06-24_21-48-06_260595134347_rgbf000115-resize-original.jpg,125,4.702,0.0,16535,125,feet,jsons/VE125_randls_49.json,2301102,2804621,28,Woman
135,180046,DepthScenes,duration_manipulation_targetAtFixation,jsons/VE125_randls_49.json,http://54.235.29.9/FacialAge/BNav_EC2/DepthDuration/v2_depth_duration_MTurk/v2_DepthDuration_HTML.html#224,224,1366,625,1366,768,8-30-2022,8-58-43,136,depth_duration_stimuli/002057_2014-06-24_21-00-13_260595134347_rgbf000120-resize_1/002057_2014-06-24_21-00-13_260595134347_rgbf000120-resize_1-target.png,125,2.967,8.0,17993,126,feet,jsons/VE125_randls_49.json,2301102,2804621,28,Woman
136,180046,DepthScenes,duration_manipulation_targetAtFixation,jsons/VE125_randls_49.json,http://54.235.29.9/FacialAge/BNav_EC2/DepthDuration/v2_depth_duration_MTurk/v2_DepthDuration_HTML.html#224,224,1366,625,1366,768,8-30-2022,8-58-43,137,depth_duration_stimuli/000709_2014-06-08_13-51-55_260595134347_rgbf000068-resize_3/000709_2014-06-08_13-51-55_260595134347_rgbf000068-resize_3-target.png,125,1.8030000000000002,2.0,3430,124,feet,jsons/VE125_randls_49.json,2301102,2804621,28,Woman
137,180046,DepthScenes,duration_manipulation_targetAtFixation,jsons/VE125_randls_49.json,http://54.235.29.9/FacialAge/BNav_EC2/DepthDuration/v2_depth_duration_MTurk/v2_DepthDuration_HTML.html#224,224,1366,625,1366,768,8-30-2022,8-58-43,138,depth_duration_stimuli/001011_2014-06-08_23-18-54_260595134347_rgbf000044-resize_4/001011_2014-06-08_23-18-54_260595134347_rgbf000044-resize_4-target.png,125,2.4730000000000003,6.0,17840,125,feet,jsons/VE125_randls_49.json,2301102,2804621,28,Woman
138,180046,DepthScenes,duration_manipulation_targetAtFixation,jsons/VE125_randls_49.json,http://54.235.29.9/FacialAge/BNav_EC2/DepthDuration/v2_depth_duration_MTurk/v2_DepthDuration_HTML.html#224,224,1366,625,1366,768,8-30-2022,8-58-43,139,depth_duration_stimuli/002875_2014-06-01_15-19-00_094959634447_rgbf000151-resize_1/002875_2014-06-01_15-19-00_094959634447_rgbf000151-resize_1-target.png,125,1.9675,3.0,8114,125,feet,jsons/VE125_randls_49.json,2301102,2804621,28,Woman
139,180046,DepthScenes,duration_manipulation_targetAtFixation,jsons/VE125_randls_49.json,http://54.235.29.9/FacialAge/BNav_EC2/DepthDuration/v2_depth_duration_MTurk/v2_DepthDuration_HTML.html#224,224,1366,625,1366,768,8-30-2022,8-58-43,140,depth_duration_stimuli/002630_2014-06-24_14-47-50_094959634447_rgbf000055-resize_1/002630_2014-06-24_14-47-50_094959634447_rgbf000055-resize_1-target.png,125,3.0095,7.0,15232,126,feet,jsons/VE125_randls_49.json,2301102,2804621,28,Woman
140,180046,DepthScenes,duration_manipulation_targetAtFixation,jsons/VE125_randls_49.json,http://54.235.29.9/FacialAge/BNav_EC2/DepthDuration/v2_depth_duration_MTurk/v2_DepthDuration_HTML.html#224,224,1366,625,1366,768,8-30-2022,8-58-43,141,depth_duration_stimuli/002758_2014-06-22_19-11-20_094959634447_rgbf000128-resize_1/002758_2014-06-22_19-11-20_094959634447_rgbf000128-resize_1-target.png,125,2.555,4.0,10531,126,feet,jsons/VE125_randls_49.json,2301102,2804621,28,Woman
141,180046,DepthScenes,duration_manipulation_targetAtFixation,jsons/VE125_randls_49.json,http://54.235.29.9/FacialAge/BNav_EC2/DepthDuration/v2_depth_duration_MTurk/v2_DepthDuration_HTML.html#224,224,1366,625,1366,768,8-30-2022,8-58-43,142,depth_duration_stimuli/001092_2014-06-15_17-34-58_260595134347_rgbf000171-resize_3/001092_2014-06-15_17-34-58_260595134347_rgbf000171-resize_3-target.png,125,2.6935,4.0,20368,124,feet,jsons/VE125_randls_49.json,2301102,2804621,28,Woman
142,180046,DepthScenes,duration_manipulation_targetAtFixation,jsons/VE125_randls_49.json,http://54.235.29.9/FacialAge/BNav_EC2/DepthDuration/v2_depth_duration_MTurk/v2_DepthDuration_HTML.html#224,224,1366,625,1366,768,8-30-2022,8-58-43,143,depth_duration_stimuli/002545_2014-06-24_13-38-53_094959634447_rgbf000080-resize_4/002545_2014-06-24_13-38-53_094959634447_rgbf000080-resize_4-target.png,125,1.9205,0.0,5179,126,feet,jsons/VE125_randls_49.json,2301102,2804621,28,Woman
143,180046,DepthScenes,duration_manipulation_targetAtFixation,jsons/VE125_randls_49.json,http://54.235.29.9/FacialAge/BNav_EC2/DepthDuration/v2_depth_duration_MTurk/v2_DepthDuration_HTML.html#224,224,1366,625,1366,768,8-30-2022,8-58-43,144,depth_duration_stimuli/002279_2014-06-28_18-55-32_260595134347_rgbf000040-resize_5/002279_2014-06-28_18-55-32_260595134347_rgbf000040-resize_5-target.png,125,1.5043333333333,1.5,20360,123,feet,jsons/VE125_randls_49.json,2301102,2804621,28,Woman
144,180046,DepthScenes,duration_manipulation_targetAtFixation,jsons/VE125_randls_49.json,http://54.235.29.9/FacialAge/BNav_EC2/DepthDuration/v2_depth_duration_MTurk/v2_DepthDuration_HTML.html#224,224,1366,625,1366,768,8-30-2022,8-58-43,145,depth_duration_stimuli/000635_2014-06-08_16-38-42_260595134347_rgbf000106-resize_1/000635_2014-06-08_16-38-42_260595134347_rgbf000106-resize_1-target.png,125,2.074,7.0,4187,126,feet,jsons/VE125_randls_49.json,2301102,2804621,28,Woman
145,180046,DepthScenes,duration_manipulation_targetAtFixation,jsons/VE125_randls_49.json,http://54.235.29.9/FacialAge/BNav_EC2/DepthDuration/v2_depth_duration_MTurk/v2_DepthDuration_HTML.html#224,224,1366,625,1366,768,8-30-2022,8-58-43,146,depth_duration_stimuli/001498_2014-06-19_17-45-14_260595134347_rgbf000129-resize_4/001498_2014-06-19_17-45-14_260595134347_rgbf000129-resize-original.jpg,125,1.4075,0.0,3830,125,feet,jsons/VE125_randls_49.json,2301102,2804621,28,Woman
146,180046,DepthScenes,duration_manipulation_targetAtFixation,jsons/VE125_randls_49.json,http://54.235.29.9/FacialAge/BNav_EC2/DepthDuration/v2_depth_duration_MTurk/v2_DepthDuration_HTML.html#224,224,1366,625,1366,768,8-30-2022,8-58-43,147,depth_duration_stimuli/000493_2014-06-09_21-01-18_260595134347_rgbf000196-resize_3/000493_2014-06-09_21-01-18_260595134347_rgbf000196-resize_3-target.png,125,3.44,7.0,17144,124,feet,jsons/VE125_randls_49.json,2301102,2804621,28,Woman
147,180046,DepthScenes,duration_manipulation_targetAtFixation,jsons/VE125_randls_49.json,http://54.235.29.9/FacialAge/BNav_EC2/DepthDuration/v2_depth_duration_MTurk/v2_DepthDuration_HTML.html#224,224,1366,625,1366,768,8-30-2022,8-58-43,148,depth_duration_stimuli/000191_2014-05-12_17-07-38_260595134347_rgbf000199-resize_0/000191_2014-05-12_17-07-38_260595134347_rgbf000199-resize_0-target.png,125,3.7995,8.0,9705,125,feet,jsons/VE125_randls_49.json,2301102,2804621,28,Woman
148,180046,DepthScenes,duration_manipulation_targetAtFixation,jsons/VE125_randls_49.json,http://54.235.29.9/FacialAge/BNav_EC2/DepthDuration/v2_depth_duration_MTurk/v2_DepthDuration_HTML.html#224,224,1366,625,1366,768,8-30-2022,8-58-43,149,depth_duration_stimuli/002600_2014-06-24_14-27-04_094959634447_rgbf000074-resize_2/002600_2014-06-24_14-27-04_094959634447_rgbf000074-resize_2-target.png,125,2.7575,10.0,19742,125,feet,jsons/VE125_randls_49.json,2301102,2804621,28,Woman
149,180046,DepthScenes,duration_manipulation_targetAtFixation,jsons/VE125_randls_49.json,http://54.235.29.9/FacialAge/BNav_EC2/DepthDuration/v2_depth_duration_MTurk/v2_DepthDuration_HTML.html#224,224,1366,625,1366,768,8-30-2022,8-58-43,150,depth_duration_stimuli/003228_2014-05-14_13-42-35_094959634447_rgbf000101-resize_1/003228_2014-05-14_13-42-35_094959634447_rgbf000101-resize_1-target.png,125,1.9680000000000002,3.0,3523,126,feet,jsons/VE125_randls_49.json,2301102,2804621,28,Woman
150,180046,DepthScenes,duration_manipulation_targetAtFixation,jsons/VE125_randls_49.json,http://54.235.29.9/FacialAge/BNav_EC2/DepthDuration/v2_depth_duration_MTurk/v2_DepthDuration_HTML.html#224,224,1366,625,1366,768,8-30-2022,8-58-43,151,depth_duration_stimuli/003621_2014-05-23_18-06-08_094959634447_rgbf000101-resize_1/003621_2014-05-23_18-06-08_094959634447_rgbf000101-resize_1-target.png,125,3.9835,16.0,20850,124,feet,jsons/VE125_randls_49.json,2301102,2804621,28,Woman
151,180046,DepthScenes,duration_manipulation_targetAtFixation,jsons/VE125_randls_49.json,http://54.235.29.9/FacialAge/BNav_EC2/DepthDuration/v2_depth_duration_MTurk/v2_DepthDuration_HTML.html#224,224,1366,625,1366,768,8-30-2022,8-58-43,152,depth_duration_stimuli/001584_2014-06-20_11-07-43_260595134347_rgbf000002-resize_1/001584_2014-06-20_11-07-43_260595134347_rgbf000002-resize_1-target.png,125,3.53,7.0,14564,126,feet,jsons/VE125_randls_49.json,2301102,2804621,28,Woman
152,180046,DepthScenes,duration_manipulation_targetAtFixation,jsons/VE125_randls_49.json,http://54.235.29.9/FacialAge/BNav_EC2/DepthDuration/v2_depth_duration_MTurk/v2_DepthDuration_HTML.html#224,224,1366,625,1366,768,8-30-2022,8-58-43,153,depth_duration_stimuli/000929_2014-06-09_16-33-19_260595134347_rgbf000139-resize_0/000929_2014-06-09_16-33-19_260595134347_rgbf000139-resize_0-target.png,125,2.8680000000000003,0.0,34168,124,feet,jsons/VE125_randls_49.json,2301102,2804621,28,Woman
153,180046,DepthScenes,duration_manipulation_targetAtFixation,jsons/VE125_randls_49.json,http://54.235.29.9/FacialAge/BNav_EC2/DepthDuration/v2_depth_duration_MTurk/v2_DepthDuration_HTML.html#224,224,1366,625,1366,768,8-30-2022,8-58-43,154,depth_duration_stimuli/000457_2014-06-08_16-52-43_260595134347_rgbf000199-resize_1/000457_2014-06-08_16-52-43_260595134347_rgbf000199-resize_1-target.png,125,3.6489999999999996,7.0,12502,124,feet,jsons/VE125_randls_49.json,2301102,2804621,28,Woman
154,180046,DepthScenes,duration_manipulation_targetAtFixation,jsons/VE125_randls_49.json,http://54.235.29.9/FacialAge/BNav_EC2/DepthDuration/v2_depth_duration_MTurk/v2_DepthDuration_HTML.html#224,224,1366,625,1366,768,8-30-2022,8-58-43,155,depth_duration_stimuli/002213_2014-06-28_18-37-58_260595134347_rgbf000055-resize_1/002213_2014-06-28_18-37-58_260595134347_rgbf000055-resize_1-target.png,125,3.62,9.0,19561,125,feet,jsons/VE125_randls_49.json,2301102,2804621,28,Woman
155,180046,DepthScenes,duration_manipulation_targetAtFixation,jsons/VE125_randls_49.json,http://54.235.29.9/FacialAge/BNav_EC2/DepthDuration/v2_depth_duration_MTurk/v2_DepthDuration_HTML.html#224,224,1366,625,1366,768,8-30-2022,8-58-43,156,depth_duration_stimuli/000691_2014-06-08_13-08-50_260595134347_rgbf000132-resize_3/000691_2014-06-08_13-08-50_260595134347_rgbf000132-resize_3-target.png,125,4.1530000000000005,10.0,4384,125,feet,jsons/VE125_randls_49.json,2301102,2804621,28,Woman
156,180046,DepthScenes,duration_manipulation_targetAtFixation,jsons/VE125_randls_49.json,http://54.235.29.9/FacialAge/BNav_EC2/DepthDuration/v2_depth_duration_MTurk/v2_DepthDuration_HTML.html#224,224,1366,625,1366,768,8-30-2022,8-58-43,157,depth_duration_stimuli/000917_2014-06-09_22-45-29_260595134347_rgbf000149-resize_3/000917_2014-06-09_22-45-29_260595134347_rgbf000149-resize_3-target.png,125,4.1865,10.0,16188,125,feet,jsons/VE125_randls_49.json,2301102,2804621,28,Woman
157,180046,DepthScenes,duration_manipulation_targetAtFixation,jsons/VE125_randls_49.json,http://54.235.29.9/FacialAge/BNav_EC2/DepthDuration/v2_depth_duration_MTurk/v2_DepthDuration_HTML.html#224,224,1366,625,1366,768,8-30-2022,8-58-43,158,depth_duration_stimuli/002323_2014-06-28_20-01-54_260595134347_rgbf000051-resize_4/002323_2014-06-28_20-01-54_260595134347_rgbf000051-resize_4-target.png,125,3.7310000000000003,11.0,11776,116,feet,jsons/VE125_randls_49.json,2301102,2804621,28,Woman
158,180046,DepthScenes,duration_manipulation_targetAtFixation,jsons/VE125_randls_49.json,http://54.235.29.9/FacialAge/BNav_EC2/DepthDuration/v2_depth_duration_MTurk/v2_DepthDuration_HTML.html#224,224,1366,625,1366,768,8-30-2022,8-58-43,159,depth_duration_stimuli/001059_2014-06-08_21-53-27_260595134347_rgbf000061-resize_4/001059_2014-06-08_21-53-27_260595134347_rgbf000061-resize_4-target.png,125,2.4185,5.0,17908,125,feet,jsons/VE125_randls_49.json,2301102,2804621,28,Woman
159,180046,DepthScenes,duration_manipulation_targetAtFixation,jsons/VE125_randls_49.json,http://54.235.29.9/FacialAge/BNav_EC2/DepthDuration/v2_depth_duration_MTurk/v2_DepthDuration_HTML.html#224,224,1366,625,1366,768,8-30-2022,8-58-43,160,depth_duration_stimuli/001032_2014-06-08_13-23-17_260595134347_rgbf000021-resize_3/001032_2014-06-08_13-23-17_260595134347_rgbf000021-resize_3-target.png,125,3.2725,6.0,15323,124,feet,jsons/VE125_randls_49.json,2301102,2804621,28,Woman
160,180046,DepthScenes,duration_manipulation_targetAtFixation,jsons/VE125_randls_49.json,http://54.235.29.9/FacialAge/BNav_EC2/DepthDuration/v2_depth_duration_MTurk/v2_DepthDuration_HTML.html#224,224,1366,625,1366,768,8-30-2022,8-58-43,161,depth_duration_stimuli/000436_2014-06-09_22-25-11_260595134347_rgbf000137-resize_1/000436_2014-06-09_22-25-11_260595134347_rgbf000137-resize_1-target.png,125,4.0705,0.0,22262,125,feet,jsons/VE125_randls_49.json,2301102,2804621,28,Woman
161,180046,DepthScenes,duration_manipulation_targetAtFixation,jsons/VE125_randls_49.json,http://54.235.29.9/FacialAge/BNav_EC2/DepthDuration/v2_depth_duration_MTurk/v2_DepthDuration_HTML.html#224,224,1366,625,1366,768,8-30-2022,8-58-43,162,depth_duration_stimuli/002444_2014-06-28_20-32-08_260595134347_rgbf000027-resize_0/002444_2014-06-28_20-32-08_260595134347_rgbf000027-resize_0-target.png,125,4.388999999999999,11.0,10324,124,feet,jsons/VE125_randls_49.json,2301102,2804621,28,Woman
162,180046,DepthScenes,duration_manipulation_targetAtFixation,jsons/VE125_randls_49.json,http://54.235.29.9/FacialAge/BNav_EC2/DepthDuration/v2_depth_duration_MTurk/v2_DepthDuration_HTML.html#224,224,1366,625,1366,768,8-30-2022,8-58-43,163,depth_duration_stimuli/001150_2014-06-17_15-27-34_260595134347_rgbf000108-resize_2/001150_2014-06-17_15-27-34_260595134347_rgbf000108-resize_2-target.png,125,4.0325,11.0,24564,125,feet,jsons/VE125_randls_49.json,2301102,2804621,28,Woman
163,180046,DepthScenes,duration_manipulation_targetAtFixation,jsons/VE125_randls_49.json,http://54.235.29.9/FacialAge/BNav_EC2/DepthDuration/v2_depth_duration_MTurk/v2_DepthDuration_HTML.html#224,224,1366,625,1366,768,8-30-2022,8-58-43,164,depth_duration_stimuli/000665_2014-06-09_20-42-35_260595134347_rgbf000110-resize_1/000665_2014-06-09_20-42-35_260595134347_rgbf000110-resize_1-target.png,125,3.057,11.0,3961,125,feet,jsons/VE125_randls_49.json,2301102,2804621,28,Woman
