,subjID,experimentName,versionName,sequenceName,url,selected_row,windowWidth,windowHeight,screenWidth,screenHeight,startDate,startTime,trial,stimulus,duration,actual_depth,depth_estimate,trial_RT,log_sceneDuration,unitSelection,seq_filepath,experimentTime,totalTime,age,gender
0,181767,DepthScenes,duration_manipulation_targetAtFixation,jsons/v1_VE1000_randls_18.json,http://54.235.29.9/FacialAge/BNav_EC2/DepthDuration/v2_depth_duration_MTurk/v2_DepthDuration_HTML.html#148,148,1348,606,1366,768,8-22-2022,8-29-32,1,depth_duration_stimuli/002509_2014-06-24_13-19-22_094959634447_rgbf000077-resize_0/002509_2014-06-24_13-19-22_094959634447_rgbf000077-resize_0-target.png,1000,1.3065,1,7515,996,meters,jsons/v1_VE1000_randls_18.json,983743,1282797,24,Man
1,181767,DepthScenes,duration_manipulation_targetAtFixation,jsons/v1_VE1000_randls_18.json,http://54.235.29.9/FacialAge/BNav_EC2/DepthDuration/v2_depth_duration_MTurk/v2_DepthDuration_HTML.html#148,148,1348,606,1366,768,8-22-2022,8-29-32,2,depth_duration_stimuli/003338_2014-05-20_11-01-23_094959634447_rgbf000051-resize_6/003338_2014-05-20_11-01-23_094959634447_rgbf000051-resize_6-target.png,1000,1.693,0,4428,998,meters,jsons/v1_VE1000_randls_18.json,983743,1282797,24,Man
2,181767,DepthScenes,duration_manipulation_targetAtFixation,jsons/v1_VE1000_randls_18.json,http://54.235.29.9/FacialAge/BNav_EC2/DepthDuration/v2_depth_duration_MTurk/v2_DepthDuration_HTML.html#148,148,1348,606,1366,768,8-22-2022,8-29-32,3,depth_duration_stimuli/002375_2014-06-28_20-13-44_260595134347_rgbf000032-resize_1/002375_2014-06-28_20-13-44_260595134347_rgbf000032-resize_1-target.png,1000,4.0175,1,12672,999,meters,jsons/v1_VE1000_randls_18.json,983743,1282797,24,Man
3,181767,DepthScenes,duration_manipulation_targetAtFixation,jsons/v1_VE1000_randls_18.json,http://54.235.29.9/FacialAge/BNav_EC2/DepthDuration/v2_depth_duration_MTurk/v2_DepthDuration_HTML.html#148,148,1348,606,1366,768,8-22-2022,8-29-32,4,depth_duration_stimuli/002657_2014-06-13_15-29-54_094959634447_rgbf000150-resize_1/002657_2014-06-13_15-29-54_094959634447_rgbf000150-resize_1-target.png,1000,4.919,1,3218,998,meters,jsons/v1_VE1000_randls_18.json,983743,1282797,24,Man
4,181767,DepthScenes,duration_manipulation_targetAtFixation,jsons/v1_VE1000_randls_18.json,http://54.235.29.9/FacialAge/BNav_EC2/DepthDuration/v2_depth_duration_MTurk/v2_DepthDuration_HTML.html#148,148,1348,606,1366,768,8-22-2022,8-29-32,5,depth_duration_stimuli/001110_2014-06-15_17-25-28_260595134347_rgbf000150-resize_1/001110_2014-06-15_17-25-28_260595134347_rgbf000150-resize_1-target.png,1000,1.7115,1,8689,1006,meters,jsons/v1_VE1000_randls_18.json,983743,1282797,24,Man
5,181767,DepthScenes,duration_manipulation_targetAtFixation,jsons/v1_VE1000_randls_18.json,http://54.235.29.9/FacialAge/BNav_EC2/DepthDuration/v2_depth_duration_MTurk/v2_DepthDuration_HTML.html#148,148,1348,606,1366,768,8-22-2022,8-29-32,6,depth_duration_stimuli/000927_2014-06-09_16-32-30_260595134347_rgbf000123-resize_3/000927_2014-06-09_16-32-30_260595134347_rgbf000123-resize_3-target.png,1000,2.6785,1,20643,1000,meters,jsons/v1_VE1000_randls_18.json,983743,1282797,24,Man
6,181767,DepthScenes,duration_manipulation_targetAtFixation,jsons/v1_VE1000_randls_18.json,http://54.235.29.9/FacialAge/BNav_EC2/DepthDuration/v2_depth_duration_MTurk/v2_DepthDuration_HTML.html#148,148,1348,606,1366,768,8-22-2022,8-29-32,7,depth_duration_stimuli/000692_2014-06-08_13-09-42_260595134347_rgbf000199-resize_2/000692_2014-06-08_13-09-42_260595134347_rgbf000199-resize_2-target.png,1000,3.661,1,5492,1000,meters,jsons/v1_VE1000_randls_18.json,983743,1282797,24,Man
7,181767,DepthScenes,duration_manipulation_targetAtFixation,jsons/v1_VE1000_randls_18.json,http://54.235.29.9/FacialAge/BNav_EC2/DepthDuration/v2_depth_duration_MTurk/v2_DepthDuration_HTML.html#148,148,1348,606,1366,768,8-22-2022,8-29-32,8,depth_duration_stimuli/001094_2014-06-15_17-36-00_260595134347_rgbf000205-resize_0/001094_2014-06-15_17-36-00_260595134347_rgbf000205-resize_0-target.png,1000,4.2175,1,4114,999,meters,jsons/v1_VE1000_randls_18.json,983743,1282797,24,Man
8,181767,DepthScenes,duration_manipulation_targetAtFixation,jsons/v1_VE1000_randls_18.json,http://54.235.29.9/FacialAge/BNav_EC2/DepthDuration/v2_depth_duration_MTurk/v2_DepthDuration_HTML.html#148,148,1348,606,1366,768,8-22-2022,8-29-32,9,depth_duration_stimuli/001417_2014-06-19_16-25-36_260595134347_rgbf000115-resize_5/001417_2014-06-19_16-25-36_260595134347_rgbf000115-resize_5-target.png,1000,4.6255,1,5193,999,meters,jsons/v1_VE1000_randls_18.json,983743,1282797,24,Man
9,181767,DepthScenes,duration_manipulation_targetAtFixation,jsons/v1_VE1000_randls_18.json,http://54.235.29.9/FacialAge/BNav_EC2/DepthDuration/v2_depth_duration_MTurk/v2_DepthDuration_HTML.html#148,148,1348,606,1366,768,8-22-2022,8-29-32,10,depth_duration_stimuli/003081_2014-06-15_15-19-16_094959634447_rgbf000150-resize_1/003081_2014-06-15_15-19-16_094959634447_rgbf000150-resize_1-target.png,1000,3.9125,1,8967,1000,meters,jsons/v1_VE1000_randls_18.json,983743,1282797,24,Man
10,181767,DepthScenes,duration_manipulation_targetAtFixation,jsons/v1_VE1000_randls_18.json,http://54.235.29.9/FacialAge/BNav_EC2/DepthDuration/v2_depth_duration_MTurk/v2_DepthDuration_HTML.html#148,148,1348,606,1366,768,8-22-2022,8-29-32,11,depth_duration_stimuli/001055_2014-06-08_18-45-35_260595134347_rgbf000111-resize_4/001055_2014-06-08_18-45-35_260595134347_rgbf000111-resize_4-target.png,1000,2.4290000000000003,1,4161,999,meters,jsons/v1_VE1000_randls_18.json,983743,1282797,24,Man
11,181767,DepthScenes,duration_manipulation_targetAtFixation,jsons/v1_VE1000_randls_18.json,http://54.235.29.9/FacialAge/BNav_EC2/DepthDuration/v2_depth_duration_MTurk/v2_DepthDuration_HTML.html#148,148,1348,606,1366,768,8-22-2022,8-29-32,12,depth_duration_stimuli/000549_2014-06-08_22-10-24_260595134347_rgbf000247-resize_3/000549_2014-06-08_22-10-24_260595134347_rgbf000247-resize_3-target.png,1000,1.841,0,4704,1000,meters,jsons/v1_VE1000_randls_18.json,983743,1282797,24,Man
12,181767,DepthScenes,duration_manipulation_targetAtFixation,jsons/v1_VE1000_randls_18.json,http://54.235.29.9/FacialAge/BNav_EC2/DepthDuration/v2_depth_duration_MTurk/v2_DepthDuration_HTML.html#148,148,1348,606,1366,768,8-22-2022,8-29-32,13,depth_duration_stimuli/000569_2014-06-09_22-51-47_260595134347_rgbf000141-resize_3/000569_2014-06-09_22-51-47_260595134347_rgbf000141-resize-original.jpg,1000,4.512,0,4937,1020,meters,jsons/v1_VE1000_randls_18.json,983743,1282797,24,Man
13,181767,DepthScenes,duration_manipulation_targetAtFixation,jsons/v1_VE1000_randls_18.json,http://54.235.29.9/FacialAge/BNav_EC2/DepthDuration/v2_depth_duration_MTurk/v2_DepthDuration_HTML.html#148,148,1348,606,1366,768,8-22-2022,8-29-32,14,depth_duration_stimuli/001175_2014-06-17_15-45-55_260595134347_rgbf000129-resize_4/001175_2014-06-17_15-45-55_260595134347_rgbf000129-resize_4-target.png,1000,4.255,1,3386,1000,meters,jsons/v1_VE1000_randls_18.json,983743,1282797,24,Man
14,181767,DepthScenes,duration_manipulation_targetAtFixation,jsons/v1_VE1000_randls_18.json,http://54.235.29.9/FacialAge/BNav_EC2/DepthDuration/v2_depth_duration_MTurk/v2_DepthDuration_HTML.html#148,148,1348,606,1366,768,8-22-2022,8-29-32,15,depth_duration_stimuli/003490_2014-05-21_15-50-11_094959634447_rgbf000101-resize_3/003490_2014-05-21_15-50-11_094959634447_rgbf000101-resize_3-target.png,1000,3.6445,1,2718,1001,meters,jsons/v1_VE1000_randls_18.json,983743,1282797,24,Man
15,181767,DepthScenes,duration_manipulation_targetAtFixation,jsons/v1_VE1000_randls_18.json,http://54.235.29.9/FacialAge/BNav_EC2/DepthDuration/v2_depth_duration_MTurk/v2_DepthDuration_HTML.html#148,148,1348,606,1366,768,8-22-2022,8-29-32,16,depth_duration_stimuli/000788_2014-06-08_22-34-36_260595134347_rgbf000131-resize_1/000788_2014-06-08_22-34-36_260595134347_rgbf000131-resize_1-target.png,1000,3.359,0,2871,1001,meters,jsons/v1_VE1000_randls_18.json,983743,1282797,24,Man
16,181767,DepthScenes,duration_manipulation_targetAtFixation,jsons/v1_VE1000_randls_18.json,http://54.235.29.9/FacialAge/BNav_EC2/DepthDuration/v2_depth_duration_MTurk/v2_DepthDuration_HTML.html#148,148,1348,606,1366,768,8-22-2022,8-29-32,17,depth_duration_stimuli/001235_2014-06-17_16-37-36_260595134347_rgbf000084-resize_4/001235_2014-06-17_16-37-36_260595134347_rgbf000084-resize_4-target.png,1000,3.6605,1,2957,1009,meters,jsons/v1_VE1000_randls_18.json,983743,1282797,24,Man
17,181767,DepthScenes,duration_manipulation_targetAtFixation,jsons/v1_VE1000_randls_18.json,http://54.235.29.9/FacialAge/BNav_EC2/DepthDuration/v2_depth_duration_MTurk/v2_DepthDuration_HTML.html#148,148,1348,606,1366,768,8-22-2022,8-29-32,18,depth_duration_stimuli/000436_2014-06-09_22-25-11_260595134347_rgbf000137-resize_1/000436_2014-06-09_22-25-11_260595134347_rgbf000137-resize_1-target.png,1000,4.0705,1,2978,1000,meters,jsons/v1_VE1000_randls_18.json,983743,1282797,24,Man
18,181767,DepthScenes,duration_manipulation_targetAtFixation,jsons/v1_VE1000_randls_18.json,http://54.235.29.9/FacialAge/BNav_EC2/DepthDuration/v2_depth_duration_MTurk/v2_DepthDuration_HTML.html#148,148,1348,606,1366,768,8-22-2022,8-29-32,19,depth_duration_stimuli/002444_2014-06-28_20-32-08_260595134347_rgbf000027-resize_0/002444_2014-06-28_20-32-08_260595134347_rgbf000027-resize_0-target.png,1000,4.388999999999999,1,2762,999,meters,jsons/v1_VE1000_randls_18.json,983743,1282797,24,Man
19,181767,DepthScenes,duration_manipulation_targetAtFixation,jsons/v1_VE1000_randls_18.json,http://54.235.29.9/FacialAge/BNav_EC2/DepthDuration/v2_depth_duration_MTurk/v2_DepthDuration_HTML.html#148,148,1348,606,1366,768,8-22-2022,8-29-32,20,depth_duration_stimuli/002570_2014-06-24_13-59-54_094959634447_rgbf000059-resize_0/002570_2014-06-24_13-59-54_094959634447_rgbf000059-resize_0-target.png,1000,4.037,1,3438,1010,meters,jsons/v1_VE1000_randls_18.json,983743,1282797,24,Man
20,181767,DepthScenes,duration_manipulation_targetAtFixation,jsons/v1_VE1000_randls_18.json,http://54.235.29.9/FacialAge/BNav_EC2/DepthDuration/v2_depth_duration_MTurk/v2_DepthDuration_HTML.html#148,148,1348,606,1366,768,8-22-2022,8-29-32,21,depth_duration_stimuli/002467_2014-06-28_20-38-07_260595134347_rgbf000026-resize_2/002467_2014-06-28_20-38-07_260595134347_rgbf000026-resize_2-target.png,1000,4.742,1,2950,997,meters,jsons/v1_VE1000_randls_18.json,983743,1282797,24,Man
21,181767,DepthScenes,duration_manipulation_targetAtFixation,jsons/v1_VE1000_randls_18.json,http://54.235.29.9/FacialAge/BNav_EC2/DepthDuration/v2_depth_duration_MTurk/v2_DepthDuration_HTML.html#148,148,1348,606,1366,768,8-22-2022,8-29-32,22,depth_duration_stimuli/002988_2014-06-15_12-24-20_094959634447_rgbf000150-resize_1/002988_2014-06-15_12-24-20_094959634447_rgbf000150-resize_1-target.png,1000,4.7669999999999995,1,3215,998,meters,jsons/v1_VE1000_randls_18.json,983743,1282797,24,Man
22,181767,DepthScenes,duration_manipulation_targetAtFixation,jsons/v1_VE1000_randls_18.json,http://54.235.29.9/FacialAge/BNav_EC2/DepthDuration/v2_depth_duration_MTurk/v2_DepthDuration_HTML.html#148,148,1348,606,1366,768,8-22-2022,8-29-32,23,depth_duration_stimuli/001052_2014-06-08_18-24-54_260595134347_rgbf000130-resize_1/001052_2014-06-08_18-24-54_260595134347_rgbf000130-resize_1-target.png,1000,4.1045,1,3042,1002,meters,jsons/v1_VE1000_randls_18.json,983743,1282797,24,Man
23,181767,DepthScenes,duration_manipulation_targetAtFixation,jsons/v1_VE1000_randls_18.json,http://54.235.29.9/FacialAge/BNav_EC2/DepthDuration/v2_depth_duration_MTurk/v2_DepthDuration_HTML.html#148,148,1348,606,1366,768,8-22-2022,8-29-32,24,depth_duration_stimuli/000739_2014-06-08_18-45-58_260595134347_rgbf000068-resize_1/000739_2014-06-08_18-45-58_260595134347_rgbf000068-resize_1-target.png,1000,3.534,1,3067,999,meters,jsons/v1_VE1000_randls_18.json,983743,1282797,24,Man
24,181767,DepthScenes,duration_manipulation_targetAtFixation,jsons/v1_VE1000_randls_18.json,http://54.235.29.9/FacialAge/BNav_EC2/DepthDuration/v2_depth_duration_MTurk/v2_DepthDuration_HTML.html#148,148,1348,606,1366,768,8-22-2022,8-29-32,25,depth_duration_stimuli/000734_2014-06-08_17-39-11_260595134347_rgbf000128-resize_2/000734_2014-06-08_17-39-11_260595134347_rgbf000128-resize_2-target.png,1000,4.098,1,3039,1000,meters,jsons/v1_VE1000_randls_18.json,983743,1282797,24,Man
25,181767,DepthScenes,duration_manipulation_targetAtFixation,jsons/v1_VE1000_randls_18.json,http://54.235.29.9/FacialAge/BNav_EC2/DepthDuration/v2_depth_duration_MTurk/v2_DepthDuration_HTML.html#148,148,1348,606,1366,768,8-22-2022,8-29-32,26,depth_duration_stimuli/002279_2014-06-28_18-55-32_260595134347_rgbf000040-resize_5/002279_2014-06-28_18-55-32_260595134347_rgbf000040-resize_5-target.png,1000,1.5043333333333,0,2950,999,meters,jsons/v1_VE1000_randls_18.json,983743,1282797,24,Man
26,181767,DepthScenes,duration_manipulation_targetAtFixation,jsons/v1_VE1000_randls_18.json,http://54.235.29.9/FacialAge/BNav_EC2/DepthDuration/v2_depth_duration_MTurk/v2_DepthDuration_HTML.html#148,148,1348,606,1366,768,8-22-2022,8-29-32,27,depth_duration_stimuli/000635_2014-06-08_16-38-42_260595134347_rgbf000106-resize_1/000635_2014-06-08_16-38-42_260595134347_rgbf000106-resize_1-target.png,1000,2.074,1,2750,1000,meters,jsons/v1_VE1000_randls_18.json,983743,1282797,24,Man
27,181767,DepthScenes,duration_manipulation_targetAtFixation,jsons/v1_VE1000_randls_18.json,http://54.235.29.9/FacialAge/BNav_EC2/DepthDuration/v2_depth_duration_MTurk/v2_DepthDuration_HTML.html#148,148,1348,606,1366,768,8-22-2022,8-29-32,28,depth_duration_stimuli/001133_2014-06-17_14-49-16_260595134347_rgbf000100-resize_0/001133_2014-06-17_14-49-16_260595134347_rgbf000100-resize_0-target.png,1000,4.2115,1,2770,1005,meters,jsons/v1_VE1000_randls_18.json,983743,1282797,24,Man
28,181767,DepthScenes,duration_manipulation_targetAtFixation,jsons/v1_VE1000_randls_18.json,http://54.235.29.9/FacialAge/BNav_EC2/DepthDuration/v2_depth_duration_MTurk/v2_DepthDuration_HTML.html#148,148,1348,606,1366,768,8-22-2022,8-29-32,29,depth_duration_stimuli/001132_2014-06-17_14-48-54_260595134347_rgbf000100-resize_2/001132_2014-06-17_14-48-54_260595134347_rgbf000100-resize_2-target.png,1000,3.753,1,2711,999,meters,jsons/v1_VE1000_randls_18.json,983743,1282797,24,Man
29,181767,DepthScenes,duration_manipulation_targetAtFixation,jsons/v1_VE1000_randls_18.json,http://54.235.29.9/FacialAge/BNav_EC2/DepthDuration/v2_depth_duration_MTurk/v2_DepthDuration_HTML.html#148,148,1348,606,1366,768,8-22-2022,8-29-32,30,depth_duration_stimuli/000375_2014-06-08_11-17-29_260595134347_rgbf000133-resize_2/000375_2014-06-08_11-17-29_260595134347_rgbf000133-resize-original.jpg,1000,4.718,0,2695,1000,meters,jsons/v1_VE1000_randls_18.json,983743,1282797,24,Man
30,181767,DepthScenes,duration_manipulation_targetAtFixation,jsons/v1_VE1000_randls_18.json,http://54.235.29.9/FacialAge/BNav_EC2/DepthDuration/v2_depth_duration_MTurk/v2_DepthDuration_HTML.html#148,148,1348,606,1366,768,8-22-2022,8-29-32,31,depth_duration_stimuli/001029_2014-06-08_13-17-57_260595134347_rgbf000065-resize_1/001029_2014-06-08_13-17-57_260595134347_rgbf000065-resize_1-target.png,1000,3.0835,1,3406,1001,meters,jsons/v1_VE1000_randls_18.json,983743,1282797,24,Man
31,181767,DepthScenes,duration_manipulation_targetAtFixation,jsons/v1_VE1000_randls_18.json,http://54.235.29.9/FacialAge/BNav_EC2/DepthDuration/v2_depth_duration_MTurk/v2_DepthDuration_HTML.html#148,148,1348,606,1366,768,8-22-2022,8-29-32,32,depth_duration_stimuli/000677_2014-06-08_23-10-32_260595134347_rgbf000158-resize_6/000677_2014-06-08_23-10-32_260595134347_rgbf000158-resize_6-target.png,1000,3.556,1,2780,999,meters,jsons/v1_VE1000_randls_18.json,983743,1282797,24,Man
32,181767,DepthScenes,duration_manipulation_targetAtFixation,jsons/v1_VE1000_randls_18.json,http://54.235.29.9/FacialAge/BNav_EC2/DepthDuration/v2_depth_duration_MTurk/v2_DepthDuration_HTML.html#148,148,1348,606,1366,768,8-22-2022,8-29-32,33,depth_duration_stimuli/001066_2014-06-08_22-03-20_260595134347_rgbf000066-resize_4/001066_2014-06-08_22-03-20_260595134347_rgbf000066-resize_4-target.png,1000,4.2330000000000005,1,3452,998,meters,jsons/v1_VE1000_randls_18.json,983743,1282797,24,Man
33,181767,DepthScenes,duration_manipulation_targetAtFixation,jsons/v1_VE1000_randls_18.json,http://54.235.29.9/FacialAge/BNav_EC2/DepthDuration/v2_depth_duration_MTurk/v2_DepthDuration_HTML.html#148,148,1348,606,1366,768,8-22-2022,8-29-32,34,depth_duration_stimuli/000742_2014-06-08_18-48-09_260595134347_rgbf000164-resize_4/000742_2014-06-08_18-48-09_260595134347_rgbf000164-resize_4-target.png,1000,4.632,1,3228,999,meters,jsons/v1_VE1000_randls_18.json,983743,1282797,24,Man
34,181767,DepthScenes,duration_manipulation_targetAtFixation,jsons/v1_VE1000_randls_18.json,http://54.235.29.9/FacialAge/BNav_EC2/DepthDuration/v2_depth_duration_MTurk/v2_DepthDuration_HTML.html#148,148,1348,606,1366,768,8-22-2022,8-29-32,35,depth_duration_stimuli/001059_2014-06-08_21-53-27_260595134347_rgbf000061-resize_4/001059_2014-06-08_21-53-27_260595134347_rgbf000061-resize_4-target.png,1000,2.4185,1,8828,998,meters,jsons/v1_VE1000_randls_18.json,983743,1282797,24,Man
35,181767,DepthScenes,duration_manipulation_targetAtFixation,jsons/v1_VE1000_randls_18.json,http://54.235.29.9/FacialAge/BNav_EC2/DepthDuration/v2_depth_duration_MTurk/v2_DepthDuration_HTML.html#148,148,1348,606,1366,768,8-22-2022,8-29-32,36,depth_duration_stimuli/001032_2014-06-08_13-23-17_260595134347_rgbf000021-resize_3/001032_2014-06-08_13-23-17_260595134347_rgbf000021-resize_3-target.png,1000,3.2725,0,3409,1000,meters,jsons/v1_VE1000_randls_18.json,983743,1282797,24,Man
36,181767,DepthScenes,duration_manipulation_targetAtFixation,jsons/v1_VE1000_randls_18.json,http://54.235.29.9/FacialAge/BNav_EC2/DepthDuration/v2_depth_duration_MTurk/v2_DepthDuration_HTML.html#148,148,1348,606,1366,768,8-22-2022,8-29-32,37,depth_duration_stimuli/000506_2014-06-08_23-21-00_260595134347_rgbf000070-resize_7/000506_2014-06-08_23-21-00_260595134347_rgbf000070-resize_7-target.png,1000,4.0585,1,3136,999,meters,jsons/v1_VE1000_randls_18.json,983743,1282797,24,Man
37,181767,DepthScenes,duration_manipulation_targetAtFixation,jsons/v1_VE1000_randls_18.json,http://54.235.29.9/FacialAge/BNav_EC2/DepthDuration/v2_depth_duration_MTurk/v2_DepthDuration_HTML.html#148,148,1348,606,1366,768,8-22-2022,8-29-32,38,depth_duration_stimuli/003079_2014-06-15_15-18-20_094959634447_rgbf000152-resize_8/003079_2014-06-15_15-18-20_094959634447_rgbf000152-resize_8-target.png,1000,2.8775,1,3690,1000,meters,jsons/v1_VE1000_randls_18.json,983743,1282797,24,Man
38,181767,DepthScenes,duration_manipulation_targetAtFixation,jsons/v1_VE1000_randls_18.json,http://54.235.29.9/FacialAge/BNav_EC2/DepthDuration/v2_depth_duration_MTurk/v2_DepthDuration_HTML.html#148,148,1348,606,1366,768,8-22-2022,8-29-32,39,depth_duration_stimuli/001056_2014-06-08_18-46-44_260595134347_rgbf000068-resize_0/001056_2014-06-08_18-46-44_260595134347_rgbf000068-resize_0-target.png,1000,2.6625,1,3614,1001,meters,jsons/v1_VE1000_randls_18.json,983743,1282797,24,Man
39,181767,DepthScenes,duration_manipulation_targetAtFixation,jsons/v1_VE1000_randls_18.json,http://54.235.29.9/FacialAge/BNav_EC2/DepthDuration/v2_depth_duration_MTurk/v2_DepthDuration_HTML.html#148,148,1348,606,1366,768,8-22-2022,8-29-32,40,depth_duration_stimuli/002199_2014-06-28_18-33-56_260595134347_rgbf000074-resize_0/002199_2014-06-28_18-33-56_260595134347_rgbf000074-resize_0-target.png,1000,1.996,1,8329,999,meters,jsons/v1_VE1000_randls_18.json,983743,1282797,24,Man
40,181767,DepthScenes,duration_manipulation_targetAtFixation,jsons/v1_VE1000_randls_18.json,http://54.235.29.9/FacialAge/BNav_EC2/DepthDuration/v2_depth_duration_MTurk/v2_DepthDuration_HTML.html#148,148,1348,606,1366,768,8-22-2022,8-29-32,41,depth_duration_stimuli/000368_2014-06-09_15-53-01_260595134347_rgbf000155-resize_2/000368_2014-06-09_15-53-01_260595134347_rgbf000155-resize_2-target.png,1000,2.4859999999999998,1,18450,999,meters,jsons/v1_VE1000_randls_18.json,983743,1282797,24,Man
41,181767,DepthScenes,duration_manipulation_targetAtFixation,jsons/v1_VE1000_randls_18.json,http://54.235.29.9/FacialAge/BNav_EC2/DepthDuration/v2_depth_duration_MTurk/v2_DepthDuration_HTML.html#148,148,1348,606,1366,768,8-22-2022,8-29-32,42,depth_duration_stimuli/002678_2014-06-13_16-15-32_094959634447_rgbf000151-resize_6/002678_2014-06-13_16-15-32_094959634447_rgbf000151-resize_6-target.png,1000,2.1830000000000003,1,4148,1003,meters,jsons/v1_VE1000_randls_18.json,983743,1282797,24,Man
42,181767,DepthScenes,duration_manipulation_targetAtFixation,jsons/v1_VE1000_randls_18.json,http://54.235.29.9/FacialAge/BNav_EC2/DepthDuration/v2_depth_duration_MTurk/v2_DepthDuration_HTML.html#148,148,1348,606,1366,768,8-22-2022,8-29-32,43,depth_duration_stimuli/001016_2014-06-09_16-16-10_260595134347_rgbf000112-resize_5/001016_2014-06-09_16-16-10_260595134347_rgbf000112-resize_5-target.png,1000,1.6565,1,5216,1000,meters,jsons/v1_VE1000_randls_18.json,983743,1282797,24,Man
43,181767,DepthScenes,duration_manipulation_targetAtFixation,jsons/v1_VE1000_randls_18.json,http://54.235.29.9/FacialAge/BNav_EC2/DepthDuration/v2_depth_duration_MTurk/v2_DepthDuration_HTML.html#148,148,1348,606,1366,768,8-22-2022,8-29-32,44,depth_duration_stimuli/002340_2014-06-28_20-05-46_260595134347_rgbf000113-resize_0/002340_2014-06-28_20-05-46_260595134347_rgbf000113-resize_0-target.png,1000,2.4735,1,5095,972,meters,jsons/v1_VE1000_randls_18.json,983743,1282797,24,Man
44,181767,DepthScenes,duration_manipulation_targetAtFixation,jsons/v1_VE1000_randls_18.json,http://54.235.29.9/FacialAge/BNav_EC2/DepthDuration/v2_depth_duration_MTurk/v2_DepthDuration_HTML.html#148,148,1348,606,1366,768,8-22-2022,8-29-32,45,depth_duration_stimuli/000787_2014-06-08_22-33-53_260595134347_rgbf000175-resize_1/000787_2014-06-08_22-33-53_260595134347_rgbf000175-resize-original.jpg,1000,4.784,0,3381,999,meters,jsons/v1_VE1000_randls_18.json,983743,1282797,24,Man
45,181767,DepthScenes,duration_manipulation_targetAtFixation,jsons/v1_VE1000_randls_18.json,http://54.235.29.9/FacialAge/BNav_EC2/DepthDuration/v2_depth_duration_MTurk/v2_DepthDuration_HTML.html#148,148,1348,606,1366,768,8-22-2022,8-29-32,46,depth_duration_stimuli/000929_2014-06-09_16-33-19_260595134347_rgbf000139-resize_0/000929_2014-06-09_16-33-19_260595134347_rgbf000139-resize_0-target.png,1000,2.8680000000000003,1,4264,987,meters,jsons/v1_VE1000_randls_18.json,983743,1282797,24,Man
46,181767,DepthScenes,duration_manipulation_targetAtFixation,jsons/v1_VE1000_randls_18.json,http://54.235.29.9/FacialAge/BNav_EC2/DepthDuration/v2_depth_duration_MTurk/v2_DepthDuration_HTML.html#148,148,1348,606,1366,768,8-22-2022,8-29-32,47,depth_duration_stimuli/000457_2014-06-08_16-52-43_260595134347_rgbf000199-resize_1/000457_2014-06-08_16-52-43_260595134347_rgbf000199-resize_1-target.png,1000,3.6489999999999996,1,5266,1001,meters,jsons/v1_VE1000_randls_18.json,983743,1282797,24,Man
47,181767,DepthScenes,duration_manipulation_targetAtFixation,jsons/v1_VE1000_randls_18.json,http://54.235.29.9/FacialAge/BNav_EC2/DepthDuration/v2_depth_duration_MTurk/v2_DepthDuration_HTML.html#148,148,1348,606,1366,768,8-22-2022,8-29-32,48,depth_duration_stimuli/000522_2014-06-08_13-35-06_260595134347_rgbf000244-resize_1/000522_2014-06-08_13-35-06_260595134347_rgbf000244-resize_1-target.png,1000,2.3715,1,3952,996,meters,jsons/v1_VE1000_randls_18.json,983743,1282797,24,Man
48,181767,DepthScenes,duration_manipulation_targetAtFixation,jsons/v1_VE1000_randls_18.json,http://54.235.29.9/FacialAge/BNav_EC2/DepthDuration/v2_depth_duration_MTurk/v2_DepthDuration_HTML.html#148,148,1348,606,1366,768,8-22-2022,8-29-32,49,depth_duration_stimuli/002949_2014-06-26_15-57-42_094959634447_rgbf000079-resize_1/002949_2014-06-26_15-57-42_094959634447_rgbf000079-resize_1-target.png,1000,1.8915,1,2625,999,meters,jsons/v1_VE1000_randls_18.json,983743,1282797,24,Man
49,181767,DepthScenes,duration_manipulation_targetAtFixation,jsons/v1_VE1000_randls_18.json,http://54.235.29.9/FacialAge/BNav_EC2/DepthDuration/v2_depth_duration_MTurk/v2_DepthDuration_HTML.html#148,148,1348,606,1366,768,8-22-2022,8-29-32,50,depth_duration_stimuli/000414_2014-06-04_19-49-13_260595134347_rgbf000044-resize_0/000414_2014-06-04_19-49-13_260595134347_rgbf000044-resize_0-target.png,1000,4.329,1,2998,1001,meters,jsons/v1_VE1000_randls_18.json,983743,1282797,24,Man
50,181767,DepthScenes,duration_manipulation_targetAtFixation,jsons/v1_VE1000_randls_18.json,http://54.235.29.9/FacialAge/BNav_EC2/DepthDuration/v2_depth_duration_MTurk/v2_DepthDuration_HTML.html#148,148,1348,606,1366,768,8-22-2022,8-29-32,51,depth_duration_stimuli/003129_2014-05-12_10-48-10_094959634447_rgbf000100-resize_0/003129_2014-05-12_10-48-10_094959634447_rgbf000100-resize_0-target.png,1000,4.9305,0,6032,1000,meters,jsons/v1_VE1000_randls_18.json,983743,1282797,24,Man
51,181767,DepthScenes,duration_manipulation_targetAtFixation,jsons/v1_VE1000_randls_18.json,http://54.235.29.9/FacialAge/BNav_EC2/DepthDuration/v2_depth_duration_MTurk/v2_DepthDuration_HTML.html#148,148,1348,606,1366,768,8-22-2022,8-29-32,52,depth_duration_stimuli/000758_2014-06-08_22-05-08_260595134347_rgbf000085-resize_0/000758_2014-06-08_22-05-08_260595134347_rgbf000085-resize_0-target.png,1000,3.3810000000000002,1,5640,995,meters,jsons/v1_VE1000_randls_18.json,983743,1282797,24,Man
52,181767,DepthScenes,duration_manipulation_targetAtFixation,jsons/v1_VE1000_randls_18.json,http://54.235.29.9/FacialAge/BNav_EC2/DepthDuration/v2_depth_duration_MTurk/v2_DepthDuration_HTML.html#148,148,1348,606,1366,768,8-22-2022,8-29-32,53,depth_duration_stimuli/000854_2014-06-09_19-43-13_260595134347_rgbf000066-resize_0/000854_2014-06-09_19-43-13_260595134347_rgbf000066-resize_0-target.png,1000,3.068,0,3336,1003,meters,jsons/v1_VE1000_randls_18.json,983743,1282797,24,Man
53,181767,DepthScenes,duration_manipulation_targetAtFixation,jsons/v1_VE1000_randls_18.json,http://54.235.29.9/FacialAge/BNav_EC2/DepthDuration/v2_depth_duration_MTurk/v2_DepthDuration_HTML.html#148,148,1348,606,1366,768,8-22-2022,8-29-32,54,depth_duration_stimuli/000486_2014-06-09_20-47-20_260595134347_rgbf000143-resize_2/000486_2014-06-09_20-47-20_260595134347_rgbf000143-resize_2-target.png,1000,4.8325,1,3793,996,meters,jsons/v1_VE1000_randls_18.json,983743,1282797,24,Man
54,181767,DepthScenes,duration_manipulation_targetAtFixation,jsons/v1_VE1000_randls_18.json,http://54.235.29.9/FacialAge/BNav_EC2/DepthDuration/v2_depth_duration_MTurk/v2_DepthDuration_HTML.html#148,148,1348,606,1366,768,8-22-2022,8-29-32,55,depth_duration_stimuli/003083_2014-06-15_15-21-03_094959634447_rgbf000063-resize_1/003083_2014-06-15_15-21-03_094959634447_rgbf000063-resize_1-target.png,1000,4.1405,1,2879,1007,meters,jsons/v1_VE1000_randls_18.json,983743,1282797,24,Man
55,181767,DepthScenes,duration_manipulation_targetAtFixation,jsons/v1_VE1000_randls_18.json,http://54.235.29.9/FacialAge/BNav_EC2/DepthDuration/v2_depth_duration_MTurk/v2_DepthDuration_HTML.html#148,148,1348,606,1366,768,8-22-2022,8-29-32,56,depth_duration_stimuli/000773_2014-06-08_22-24-54_260595134347_rgbf000093-resize_1/000773_2014-06-08_22-24-54_260595134347_rgbf000093-resize_1-target.png,1000,4.973,1,2744,1005,meters,jsons/v1_VE1000_randls_18.json,983743,1282797,24,Man
56,181767,DepthScenes,duration_manipulation_targetAtFixation,jsons/v1_VE1000_randls_18.json,http://54.235.29.9/FacialAge/BNav_EC2/DepthDuration/v2_depth_duration_MTurk/v2_DepthDuration_HTML.html#148,148,1348,606,1366,768,8-22-2022,8-29-32,57,depth_duration_stimuli/002414_2014-06-28_20-24-58_260595134347_rgbf000067-resize_4/002414_2014-06-28_20-24-58_260595134347_rgbf000067-resize_4-target.png,1000,4.363,1,2766,1006,meters,jsons/v1_VE1000_randls_18.json,983743,1282797,24,Man
57,181767,DepthScenes,duration_manipulation_targetAtFixation,jsons/v1_VE1000_randls_18.json,http://54.235.29.9/FacialAge/BNav_EC2/DepthDuration/v2_depth_duration_MTurk/v2_DepthDuration_HTML.html#148,148,1348,606,1366,768,8-22-2022,8-29-32,58,depth_duration_stimuli/000493_2014-06-09_21-01-18_260595134347_rgbf000196-resize_3/000493_2014-06-09_21-01-18_260595134347_rgbf000196-resize_3-target.png,1000,3.44,1,3403,1009,meters,jsons/v1_VE1000_randls_18.json,983743,1282797,24,Man
58,181767,DepthScenes,duration_manipulation_targetAtFixation,jsons/v1_VE1000_randls_18.json,http://54.235.29.9/FacialAge/BNav_EC2/DepthDuration/v2_depth_duration_MTurk/v2_DepthDuration_HTML.html#148,148,1348,606,1366,768,8-22-2022,8-29-32,59,depth_duration_stimuli/000191_2014-05-12_17-07-38_260595134347_rgbf000199-resize_0/000191_2014-05-12_17-07-38_260595134347_rgbf000199-resize_0-target.png,1000,3.7995,1,3494,991,meters,jsons/v1_VE1000_randls_18.json,983743,1282797,24,Man
59,181767,DepthScenes,duration_manipulation_targetAtFixation,jsons/v1_VE1000_randls_18.json,http://54.235.29.9/FacialAge/BNav_EC2/DepthDuration/v2_depth_duration_MTurk/v2_DepthDuration_HTML.html#148,148,1348,606,1366,768,8-22-2022,8-29-32,60,depth_duration_stimuli/002153_2014-06-25_21-27-18_260595134347_rgbf000038-resize_5/002153_2014-06-25_21-27-18_260595134347_rgbf000038-resize_5-target.png,1000,2.505,1,3156,1007,meters,jsons/v1_VE1000_randls_18.json,983743,1282797,24,Man
60,181767,DepthScenes,duration_manipulation_targetAtFixation,jsons/v1_VE1000_randls_18.json,http://54.235.29.9/FacialAge/BNav_EC2/DepthDuration/v2_depth_duration_MTurk/v2_DepthDuration_HTML.html#148,148,1348,606,1366,768,8-22-2022,8-29-32,61,depth_duration_stimuli/002660_2014-06-13_15-44-18_094959634447_rgbf001878-resize_2/002660_2014-06-13_15-44-18_094959634447_rgbf001878-resize_2-target.png,1000,3.576,1,3026,993,meters,jsons/v1_VE1000_randls_18.json,983743,1282797,24,Man
61,181767,DepthScenes,duration_manipulation_targetAtFixation,jsons/v1_VE1000_randls_18.json,http://54.235.29.9/FacialAge/BNav_EC2/DepthDuration/v2_depth_duration_MTurk/v2_DepthDuration_HTML.html#148,148,1348,606,1366,768,8-22-2022,8-29-32,62,depth_duration_stimuli/002748_2014-06-22_19-07-22_094959634447_rgbf000078-resize_1/002748_2014-06-22_19-07-22_094959634447_rgbf000078-resize_1-target.png,1000,4.6705,1,3462,999,meters,jsons/v1_VE1000_randls_18.json,983743,1282797,24,Man
62,181767,DepthScenes,duration_manipulation_targetAtFixation,jsons/v1_VE1000_randls_18.json,http://54.235.29.9/FacialAge/BNav_EC2/DepthDuration/v2_depth_duration_MTurk/v2_DepthDuration_HTML.html#148,148,1348,606,1366,768,8-22-2022,8-29-32,63,depth_duration_stimuli/002995_2014-06-15_12-31-26_094959634447_rgbf000150-resize_1/002995_2014-06-15_12-31-26_094959634447_rgbf000150-resize_1-target.png,1000,3.8360000000000003,1,3112,1025,meters,jsons/v1_VE1000_randls_18.json,983743,1282797,24,Man
63,181767,DepthScenes,duration_manipulation_targetAtFixation,jsons/v1_VE1000_randls_18.json,http://54.235.29.9/FacialAge/BNav_EC2/DepthDuration/v2_depth_duration_MTurk/v2_DepthDuration_HTML.html#148,148,1348,606,1366,768,8-22-2022,8-29-32,64,depth_duration_stimuli/001092_2014-06-15_17-34-58_260595134347_rgbf000171-resize_3/001092_2014-06-15_17-34-58_260595134347_rgbf000171-resize_3-target.png,1000,2.6935,1,3330,1000,meters,jsons/v1_VE1000_randls_18.json,983743,1282797,24,Man
64,181767,DepthScenes,duration_manipulation_targetAtFixation,jsons/v1_VE1000_randls_18.json,http://54.235.29.9/FacialAge/BNav_EC2/DepthDuration/v2_depth_duration_MTurk/v2_DepthDuration_HTML.html#148,148,1348,606,1366,768,8-22-2022,8-29-32,65,depth_duration_stimuli/002545_2014-06-24_13-38-53_094959634447_rgbf000080-resize_4/002545_2014-06-24_13-38-53_094959634447_rgbf000080-resize_4-target.png,1000,1.9205,1,3234,1000,meters,jsons/v1_VE1000_randls_18.json,983743,1282797,24,Man
65,181767,DepthScenes,duration_manipulation_targetAtFixation,jsons/v1_VE1000_randls_18.json,http://54.235.29.9/FacialAge/BNav_EC2/DepthDuration/v2_depth_duration_MTurk/v2_DepthDuration_HTML.html#148,148,1348,606,1366,768,8-22-2022,8-29-32,66,depth_duration_stimuli/001222_2014-06-17_16-24-06_260595134347_rgbf000073-resize_0/001222_2014-06-17_16-24-06_260595134347_rgbf000073-resize-original.jpg,1000,1.4385,0,4799,998,meters,jsons/v1_VE1000_randls_18.json,983743,1282797,24,Man
66,181767,DepthScenes,duration_manipulation_targetAtFixation,jsons/v1_VE1000_randls_18.json,http://54.235.29.9/FacialAge/BNav_EC2/DepthDuration/v2_depth_duration_MTurk/v2_DepthDuration_HTML.html#148,148,1348,606,1366,768,8-22-2022,8-29-32,67,depth_duration_stimuli/001555_2014-06-20_17-12-10_260595134347_rgbf000065-resize_4/001555_2014-06-20_17-12-10_260595134347_rgbf000065-resize_4-target.png,1000,1.633,1,5518,1001,meters,jsons/v1_VE1000_randls_18.json,983743,1282797,24,Man
67,181767,DepthScenes,duration_manipulation_targetAtFixation,jsons/v1_VE1000_randls_18.json,http://54.235.29.9/FacialAge/BNav_EC2/DepthDuration/v2_depth_duration_MTurk/v2_DepthDuration_HTML.html#148,148,1348,606,1366,768,8-22-2022,8-29-32,68,depth_duration_stimuli/000103_2014-05-14_22-01-17_260595134347_rgbf000152-resize_5/000103_2014-05-14_22-01-17_260595134347_rgbf000152-resize_5-target.png,1000,1.993,1,5848,992,meters,jsons/v1_VE1000_randls_18.json,983743,1282797,24,Man
68,181767,DepthScenes,duration_manipulation_targetAtFixation,jsons/v1_VE1000_randls_18.json,http://54.235.29.9/FacialAge/BNav_EC2/DepthDuration/v2_depth_duration_MTurk/v2_DepthDuration_HTML.html#148,148,1348,606,1366,768,8-22-2022,8-29-32,69,depth_duration_stimuli/000447_2014-06-08_16-15-46_260595134347_rgbf000130-resize_1/000447_2014-06-08_16-15-46_260595134347_rgbf000130-resize_1-target.png,1000,4.479,1,4061,1000,meters,jsons/v1_VE1000_randls_18.json,983743,1282797,24,Man
69,181767,DepthScenes,duration_manipulation_targetAtFixation,jsons/v1_VE1000_randls_18.json,http://54.235.29.9/FacialAge/BNav_EC2/DepthDuration/v2_depth_duration_MTurk/v2_DepthDuration_HTML.html#148,148,1348,606,1366,768,8-22-2022,8-29-32,70,depth_duration_stimuli/001447_2014-06-19_17-00-32_260595134347_rgbf000082-resize_5/001447_2014-06-19_17-00-32_260595134347_rgbf000082-resize_5-target.png,1000,4.13775,1,2871,997,meters,jsons/v1_VE1000_randls_18.json,983743,1282797,24,Man
70,181767,DepthScenes,duration_manipulation_targetAtFixation,jsons/v1_VE1000_randls_18.json,http://54.235.29.9/FacialAge/BNav_EC2/DepthDuration/v2_depth_duration_MTurk/v2_DepthDuration_HTML.html#148,148,1348,606,1366,768,8-22-2022,8-29-32,71,depth_duration_stimuli/001808_2014-06-26_20-50-58_260595134347_rgbf000029-resize_1/001808_2014-06-26_20-50-58_260595134347_rgbf000029-resize_1-target.png,1000,4.249,1,3429,986,meters,jsons/v1_VE1000_randls_18.json,983743,1282797,24,Man
71,181767,DepthScenes,duration_manipulation_targetAtFixation,jsons/v1_VE1000_randls_18.json,http://54.235.29.9/FacialAge/BNav_EC2/DepthDuration/v2_depth_duration_MTurk/v2_DepthDuration_HTML.html#148,148,1348,606,1366,768,8-22-2022,8-29-32,72,depth_duration_stimuli/001815_2014-06-26_20-52-55_260595134347_rgbf000020-resize_0/001815_2014-06-26_20-52-55_260595134347_rgbf000020-resize_0-target.png,1000,3.3865,1,4836,1000,meters,jsons/v1_VE1000_randls_18.json,983743,1282797,24,Man
72,181767,DepthScenes,duration_manipulation_targetAtFixation,jsons/v1_VE1000_randls_18.json,http://54.235.29.9/FacialAge/BNav_EC2/DepthDuration/v2_depth_duration_MTurk/v2_DepthDuration_HTML.html#148,148,1348,606,1366,768,8-22-2022,8-29-32,73,depth_duration_stimuli/000469_2014-06-09_19-42-10_260595134347_rgbf000081-resize_1/000469_2014-06-09_19-42-10_260595134347_rgbf000081-resize_1-target.png,1000,1.652,1,4521,998,meters,jsons/v1_VE1000_randls_18.json,983743,1282797,24,Man
73,181767,DepthScenes,duration_manipulation_targetAtFixation,jsons/v1_VE1000_randls_18.json,http://54.235.29.9/FacialAge/BNav_EC2/DepthDuration/v2_depth_duration_MTurk/v2_DepthDuration_HTML.html#148,148,1348,606,1366,768,8-22-2022,8-29-32,74,depth_duration_stimuli/000483_2014-06-09_20-41-45_260595134347_rgbf000116-resize_4/000483_2014-06-09_20-41-45_260595134347_rgbf000116-resize_4-target.png,1000,1.337,0,3970,985,meters,jsons/v1_VE1000_randls_18.json,983743,1282797,24,Man
74,181767,DepthScenes,duration_manipulation_targetAtFixation,jsons/v1_VE1000_randls_18.json,http://54.235.29.9/FacialAge/BNav_EC2/DepthDuration/v2_depth_duration_MTurk/v2_DepthDuration_HTML.html#148,148,1348,606,1366,768,8-22-2022,8-29-32,75,depth_duration_stimuli/002600_2014-06-24_14-27-04_094959634447_rgbf000074-resize_2/002600_2014-06-24_14-27-04_094959634447_rgbf000074-resize_2-target.png,1000,2.7575,1,3669,994,meters,jsons/v1_VE1000_randls_18.json,983743,1282797,24,Man
75,181767,DepthScenes,duration_manipulation_targetAtFixation,jsons/v1_VE1000_randls_18.json,http://54.235.29.9/FacialAge/BNav_EC2/DepthDuration/v2_depth_duration_MTurk/v2_DepthDuration_HTML.html#148,148,1348,606,1366,768,8-22-2022,8-29-32,76,depth_duration_stimuli/003228_2014-05-14_13-42-35_094959634447_rgbf000101-resize_1/003228_2014-05-14_13-42-35_094959634447_rgbf000101-resize_1-target.png,1000,1.9680000000000002,1,32423,1001,meters,jsons/v1_VE1000_randls_18.json,983743,1282797,24,Man
76,181767,DepthScenes,duration_manipulation_targetAtFixation,jsons/v1_VE1000_randls_18.json,http://54.235.29.9/FacialAge/BNav_EC2/DepthDuration/v2_depth_duration_MTurk/v2_DepthDuration_HTML.html#148,148,1348,606,1366,768,8-22-2022,8-29-32,77,depth_duration_stimuli/002989_2014-06-15_12-25-03_094959634447_rgbf000150-resize_3/002989_2014-06-15_12-25-03_094959634447_rgbf000150-resize_3-target.png,1000,4.1975,1,5760,1026,meters,jsons/v1_VE1000_randls_18.json,983743,1282797,24,Man
77,181767,DepthScenes,duration_manipulation_targetAtFixation,jsons/v1_VE1000_randls_18.json,http://54.235.29.9/FacialAge/BNav_EC2/DepthDuration/v2_depth_duration_MTurk/v2_DepthDuration_HTML.html#148,148,1348,606,1366,768,8-22-2022,8-29-32,78,depth_duration_stimuli/000866_2014-06-09_20-45-42_260595134347_rgbf000139-resize_1/000866_2014-06-09_20-45-42_260595134347_rgbf000139-resize_1-target.png,1000,3.2155,1,3453,986,meters,jsons/v1_VE1000_randls_18.json,983743,1282797,24,Man
78,181767,DepthScenes,duration_manipulation_targetAtFixation,jsons/v1_VE1000_randls_18.json,http://54.235.29.9/FacialAge/BNav_EC2/DepthDuration/v2_depth_duration_MTurk/v2_DepthDuration_HTML.html#148,148,1348,606,1366,768,8-22-2022,8-29-32,79,depth_duration_stimuli/001810_2014-06-26_20-51-35_260595134347_rgbf000040-resize_3/001810_2014-06-26_20-51-35_260595134347_rgbf000040-resize_3-target.png,1000,2.2525,1,3124,985,meters,jsons/v1_VE1000_randls_18.json,983743,1282797,24,Man
79,181767,DepthScenes,duration_manipulation_targetAtFixation,jsons/v1_VE1000_randls_18.json,http://54.235.29.9/FacialAge/BNav_EC2/DepthDuration/v2_depth_duration_MTurk/v2_DepthDuration_HTML.html#148,148,1348,606,1366,768,8-22-2022,8-29-32,80,depth_duration_stimuli/003010_2014-06-15_12-54-35_094959634447_rgbf000112-resize_0/003010_2014-06-15_12-54-35_094959634447_rgbf000112-resize_0-target.png,1000,3.1185,1,3288,1009,meters,jsons/v1_VE1000_randls_18.json,983743,1282797,24,Man
80,181767,DepthScenes,duration_manipulation_targetAtFixation,jsons/v1_VE1000_randls_18.json,http://54.235.29.9/FacialAge/BNav_EC2/DepthDuration/v2_depth_duration_MTurk/v2_DepthDuration_HTML.html#148,148,1348,606,1366,768,8-22-2022,8-29-32,81,depth_duration_stimuli/000642_2014-06-08_16-59-25_260595134347_rgbf000098-resize_2/000642_2014-06-08_16-59-25_260595134347_rgbf000098-resize_2-target.png,1000,2.8815,1,5660,980,meters,jsons/v1_VE1000_randls_18.json,983743,1282797,24,Man
81,181767,DepthScenes,duration_manipulation_targetAtFixation,jsons/v1_VE1000_randls_18.json,http://54.235.29.9/FacialAge/BNav_EC2/DepthDuration/v2_depth_duration_MTurk/v2_DepthDuration_HTML.html#148,148,1348,606,1366,768,8-22-2022,8-29-32,82,depth_duration_stimuli/002425_2014-06-28_20-27-29_260595134347_rgbf000031-resize_8/002425_2014-06-28_20-27-29_260595134347_rgbf000031-resize_8-target.png,1000,3.8960000000000004,1,2903,1011,meters,jsons/v1_VE1000_randls_18.json,983743,1282797,24,Man
82,181767,DepthScenes,duration_manipulation_targetAtFixation,jsons/v1_VE1000_randls_18.json,http://54.235.29.9/FacialAge/BNav_EC2/DepthDuration/v2_depth_duration_MTurk/v2_DepthDuration_HTML.html#148,148,1348,606,1366,768,8-22-2022,8-29-32,83,depth_duration_stimuli/002057_2014-06-24_21-00-13_260595134347_rgbf000120-resize_1/002057_2014-06-24_21-00-13_260595134347_rgbf000120-resize_1-target.png,1000,2.967,1,8588,999,meters,jsons/v1_VE1000_randls_18.json,983743,1282797,24,Man
83,181767,DepthScenes,duration_manipulation_targetAtFixation,jsons/v1_VE1000_randls_18.json,http://54.235.29.9/FacialAge/BNav_EC2/DepthDuration/v2_depth_duration_MTurk/v2_DepthDuration_HTML.html#148,148,1348,606,1366,768,8-22-2022,8-29-32,84,depth_duration_stimuli/000709_2014-06-08_13-51-55_260595134347_rgbf000068-resize_3/000709_2014-06-08_13-51-55_260595134347_rgbf000068-resize_3-target.png,1000,1.8030000000000002,1,3552,749,meters,jsons/v1_VE1000_randls_18.json,983743,1282797,24,Man
84,181767,DepthScenes,duration_manipulation_targetAtFixation,jsons/v1_VE1000_randls_18.json,http://54.235.29.9/FacialAge/BNav_EC2/DepthDuration/v2_depth_duration_MTurk/v2_DepthDuration_HTML.html#148,148,1348,606,1366,768,8-22-2022,8-29-32,85,depth_duration_stimuli/001449_2014-06-19_17-01-27_260595134347_rgbf000116-resize_2/001449_2014-06-19_17-01-27_260595134347_rgbf000116-resize_2-target.png,1000,3.452,1,3311,1002,meters,jsons/v1_VE1000_randls_18.json,983743,1282797,24,Man
85,181767,DepthScenes,duration_manipulation_targetAtFixation,jsons/v1_VE1000_randls_18.json,http://54.235.29.9/FacialAge/BNav_EC2/DepthDuration/v2_depth_duration_MTurk/v2_DepthDuration_HTML.html#148,148,1348,606,1366,768,8-22-2022,8-29-32,86,depth_duration_stimuli/001450_2014-06-19_17-02-03_260595134347_rgbf000203-resize_4/001450_2014-06-19_17-02-03_260595134347_rgbf000203-resize_4-target.png,1000,4.0106666666667,1,11105,1001,meters,jsons/v1_VE1000_randls_18.json,983743,1282797,24,Man
86,181767,DepthScenes,duration_manipulation_targetAtFixation,jsons/v1_VE1000_randls_18.json,http://54.235.29.9/FacialAge/BNav_EC2/DepthDuration/v2_depth_duration_MTurk/v2_DepthDuration_HTML.html#148,148,1348,606,1366,768,8-22-2022,8-29-32,87,depth_duration_stimuli/000878_2014-06-08_22-52-45_260595134347_rgbf000045-resize_2/000878_2014-06-08_22-52-45_260595134347_rgbf000045-resize_2-target.png,1000,2.092,1,6356,999,meters,jsons/v1_VE1000_randls_18.json,983743,1282797,24,Man
87,181767,DepthScenes,duration_manipulation_targetAtFixation,jsons/v1_VE1000_randls_18.json,http://54.235.29.9/FacialAge/BNav_EC2/DepthDuration/v2_depth_duration_MTurk/v2_DepthDuration_HTML.html#148,148,1348,606,1366,768,8-22-2022,8-29-32,88,depth_duration_stimuli/002953_2014-06-08_17-32-18_094959634447_rgbf000059-resize_5/002953_2014-06-08_17-32-18_094959634447_rgbf000059-resize_5-target.png,1000,1.551,1,3723,997,meters,jsons/v1_VE1000_randls_18.json,983743,1282797,24,Man
88,181767,DepthScenes,duration_manipulation_targetAtFixation,jsons/v1_VE1000_randls_18.json,http://54.235.29.9/FacialAge/BNav_EC2/DepthDuration/v2_depth_duration_MTurk/v2_DepthDuration_HTML.html#148,148,1348,606,1366,768,8-22-2022,8-29-32,89,depth_duration_stimuli/002118_2014-06-25_20-32-08_260595134347_rgbf000078-resize_1/002118_2014-06-25_20-32-08_260595134347_rgbf000078-resize_1-target.png,1000,2.6460000000000004,0,3784,968,meters,jsons/v1_VE1000_randls_18.json,983743,1282797,24,Man
89,181767,DepthScenes,duration_manipulation_targetAtFixation,jsons/v1_VE1000_randls_18.json,http://54.235.29.9/FacialAge/BNav_EC2/DepthDuration/v2_depth_duration_MTurk/v2_DepthDuration_HTML.html#148,148,1348,606,1366,768,8-22-2022,8-29-32,90,depth_duration_stimuli/001516_2014-06-20_16-25-09_260595134347_rgbf000076-resize_2/001516_2014-06-20_16-25-09_260595134347_rgbf000076-resize_2-target.png,1000,1.7445,1,3485,1006,meters,jsons/v1_VE1000_randls_18.json,983743,1282797,24,Man
90,181767,DepthScenes,duration_manipulation_targetAtFixation,jsons/v1_VE1000_randls_18.json,http://54.235.29.9/FacialAge/BNav_EC2/DepthDuration/v2_depth_duration_MTurk/v2_DepthDuration_HTML.html#148,148,1348,606,1366,768,8-22-2022,8-29-32,91,depth_duration_stimuli/002549_2014-06-24_13-41-39_094959634447_rgbf000022-resize_3/002549_2014-06-24_13-41-39_094959634447_rgbf000022-resize_3-target.png,1000,1.476,1,4725,996,meters,jsons/v1_VE1000_randls_18.json,983743,1282797,24,Man
91,181767,DepthScenes,duration_manipulation_targetAtFixation,jsons/v1_VE1000_randls_18.json,http://54.235.29.9/FacialAge/BNav_EC2/DepthDuration/v2_depth_duration_MTurk/v2_DepthDuration_HTML.html#148,148,1348,606,1366,768,8-22-2022,8-29-32,92,depth_duration_stimuli/002750_2014-06-22_19-08-03_094959634447_rgbf000094-resize_4/002750_2014-06-22_19-08-03_094959634447_rgbf000094-resize_4-target.png,1000,2.354,1,3880,957,meters,jsons/v1_VE1000_randls_18.json,983743,1282797,24,Man
92,181767,DepthScenes,duration_manipulation_targetAtFixation,jsons/v1_VE1000_randls_18.json,http://54.235.29.9/FacialAge/BNav_EC2/DepthDuration/v2_depth_duration_MTurk/v2_DepthDuration_HTML.html#148,148,1348,606,1366,768,8-22-2022,8-29-32,93,depth_duration_stimuli/002663_2014-06-13_15-50-26_094959634447_rgbf000075-resize_1/002663_2014-06-13_15-50-26_094959634447_rgbf000075-resize_1-target.png,1000,4.7495,1,5766,1003,meters,jsons/v1_VE1000_randls_18.json,983743,1282797,24,Man
93,181767,DepthScenes,duration_manipulation_targetAtFixation,jsons/v1_VE1000_randls_18.json,http://54.235.29.9/FacialAge/BNav_EC2/DepthDuration/v2_depth_duration_MTurk/v2_DepthDuration_HTML.html#148,148,1348,606,1366,768,8-22-2022,8-29-32,94,depth_duration_stimuli/000409_2014-06-04_19-23-33_260595134347_rgbf000067-resize_0/000409_2014-06-04_19-23-33_260595134347_rgbf000067-resize_0-target.png,1000,3.7335,1,4635,998,meters,jsons/v1_VE1000_randls_18.json,983743,1282797,24,Man
94,181767,DepthScenes,duration_manipulation_targetAtFixation,jsons/v1_VE1000_randls_18.json,http://54.235.29.9/FacialAge/BNav_EC2/DepthDuration/v2_depth_duration_MTurk/v2_DepthDuration_HTML.html#148,148,1348,606,1366,768,8-22-2022,8-29-32,95,depth_duration_stimuli/002272_2014-06-28_18-53-56_260595134347_rgbf000067-resize_2/002272_2014-06-28_18-53-56_260595134347_rgbf000067-resize_2-target.png,1000,1.138,1,15498,998,meters,jsons/v1_VE1000_randls_18.json,983743,1282797,24,Man
95,181767,DepthScenes,duration_manipulation_targetAtFixation,jsons/v1_VE1000_randls_18.json,http://54.235.29.9/FacialAge/BNav_EC2/DepthDuration/v2_depth_duration_MTurk/v2_DepthDuration_HTML.html#148,148,1348,606,1366,768,8-22-2022,8-29-32,96,depth_duration_stimuli/001571_2014-06-20_17-21-32_260595134347_rgbf000089-resize_1/001571_2014-06-20_17-21-32_260595134347_rgbf000089-resize_1-target.png,1000,1.86,1,18191,1139,meters,jsons/v1_VE1000_randls_18.json,983743,1282797,24,Man
96,181767,DepthScenes,duration_manipulation_targetAtFixation,jsons/v1_VE1000_randls_18.json,http://54.235.29.9/FacialAge/BNav_EC2/DepthDuration/v2_depth_duration_MTurk/v2_DepthDuration_HTML.html#148,148,1348,606,1366,768,8-22-2022,8-29-32,97,depth_duration_stimuli/002630_2014-06-24_14-47-50_094959634447_rgbf000055-resize_1/002630_2014-06-24_14-47-50_094959634447_rgbf000055-resize_1-target.png,1000,3.0095,1,79615,997,meters,jsons/v1_VE1000_randls_18.json,983743,1282797,24,Man
97,181767,DepthScenes,duration_manipulation_targetAtFixation,jsons/v1_VE1000_randls_18.json,http://54.235.29.9/FacialAge/BNav_EC2/DepthDuration/v2_depth_duration_MTurk/v2_DepthDuration_HTML.html#148,148,1348,606,1366,768,8-22-2022,8-29-32,98,depth_duration_stimuli/002758_2014-06-22_19-11-20_094959634447_rgbf000128-resize_1/002758_2014-06-22_19-11-20_094959634447_rgbf000128-resize_1-target.png,1000,2.555,1,4124,921,meters,jsons/v1_VE1000_randls_18.json,983743,1282797,24,Man
98,181767,DepthScenes,duration_manipulation_targetAtFixation,jsons/v1_VE1000_randls_18.json,http://54.235.29.9/FacialAge/BNav_EC2/DepthDuration/v2_depth_duration_MTurk/v2_DepthDuration_HTML.html#148,148,1348,606,1366,768,8-22-2022,8-29-32,99,depth_duration_stimuli/001540_2014-06-20_17-01-05_260595134347_rgbf000086-resize_2/001540_2014-06-20_17-01-05_260595134347_rgbf000086-resize-original.jpg,1000,1.459,0,4222,989,meters,jsons/v1_VE1000_randls_18.json,983743,1282797,24,Man
99,181767,DepthScenes,duration_manipulation_targetAtFixation,jsons/v1_VE1000_randls_18.json,http://54.235.29.9/FacialAge/BNav_EC2/DepthDuration/v2_depth_duration_MTurk/v2_DepthDuration_HTML.html#148,148,1348,606,1366,768,8-22-2022,8-29-32,100,depth_duration_stimuli/002788_2014-06-22_19-36-03_094959634447_rgbf000088-resize_2/002788_2014-06-22_19-36-03_094959634447_rgbf000088-resize_2-target.png,1000,1.6465,1,3423,1000,meters,jsons/v1_VE1000_randls_18.json,983743,1282797,24,Man
100,181767,DepthScenes,duration_manipulation_targetAtFixation,jsons/v1_VE1000_randls_18.json,http://54.235.29.9/FacialAge/BNav_EC2/DepthDuration/v2_depth_duration_MTurk/v2_DepthDuration_HTML.html#148,148,1348,606,1366,768,8-22-2022,8-29-32,101,depth_duration_stimuli/000749_2014-06-08_21-55-06_260595134347_rgbf000070-resize_2/000749_2014-06-08_21-55-06_260595134347_rgbf000070-resize_2-target.png,1000,2.331,1,2891,982,meters,jsons/v1_VE1000_randls_18.json,983743,1282797,24,Man
101,181767,DepthScenes,duration_manipulation_targetAtFixation,jsons/v1_VE1000_randls_18.json,http://54.235.29.9/FacialAge/BNav_EC2/DepthDuration/v2_depth_duration_MTurk/v2_DepthDuration_HTML.html#148,148,1348,606,1366,768,8-22-2022,8-29-32,102,depth_duration_stimuli/000906_2014-06-08_13-35-43_260595134347_rgbf000155-resize_1/000906_2014-06-08_13-35-43_260595134347_rgbf000155-resize_1-target.png,1000,2.8489999999999998,1,3186,924,meters,jsons/v1_VE1000_randls_18.json,983743,1282797,24,Man
102,181767,DepthScenes,duration_manipulation_targetAtFixation,jsons/v1_VE1000_randls_18.json,http://54.235.29.9/FacialAge/BNav_EC2/DepthDuration/v2_depth_duration_MTurk/v2_DepthDuration_HTML.html#148,148,1348,606,1366,768,8-22-2022,8-29-32,103,depth_duration_stimuli/002805_2014-06-22_19-54-03_094959634447_rgbf000079-resize_1/002805_2014-06-22_19-54-03_094959634447_rgbf000079-resize_1-target.png,1000,3.1439999999999997,1,2937,1014,meters,jsons/v1_VE1000_randls_18.json,983743,1282797,24,Man
103,181767,DepthScenes,duration_manipulation_targetAtFixation,jsons/v1_VE1000_randls_18.json,http://54.235.29.9/FacialAge/BNav_EC2/DepthDuration/v2_depth_duration_MTurk/v2_DepthDuration_HTML.html#148,148,1348,606,1366,768,8-22-2022,8-29-32,104,depth_duration_stimuli/001570_2014-06-20_17-21-09_260595134347_rgbf000135-resize_4/001570_2014-06-20_17-21-09_260595134347_rgbf000135-resize_4-target.png,1000,4.467,1,5369,1005,meters,jsons/v1_VE1000_randls_18.json,983743,1282797,24,Man
104,181767,DepthScenes,duration_manipulation_targetAtFixation,jsons/v1_VE1000_randls_18.json,http://54.235.29.9/FacialAge/BNav_EC2/DepthDuration/v2_depth_duration_MTurk/v2_DepthDuration_HTML.html#148,148,1348,606,1366,768,8-22-2022,8-29-32,105,depth_duration_stimuli/001392_2014-06-19_16-07-59_260595134347_rgbf000046-resize_1/001392_2014-06-19_16-07-59_260595134347_rgbf000046-resize_1-target.png,1000,4.135,1,2803,1004,meters,jsons/v1_VE1000_randls_18.json,983743,1282797,24,Man
105,181767,DepthScenes,duration_manipulation_targetAtFixation,jsons/v1_VE1000_randls_18.json,http://54.235.29.9/FacialAge/BNav_EC2/DepthDuration/v2_depth_duration_MTurk/v2_DepthDuration_HTML.html#148,148,1348,606,1366,768,8-22-2022,8-29-32,106,depth_duration_stimuli/002905_2014-06-03_18-04-43_094959634447_rgbf000151-resize_2/002905_2014-06-03_18-04-43_094959634447_rgbf000151-resize_2-target.png,1000,2.0295,1,2704,1015,meters,jsons/v1_VE1000_randls_18.json,983743,1282797,24,Man
106,181767,DepthScenes,duration_manipulation_targetAtFixation,jsons/v1_VE1000_randls_18.json,http://54.235.29.9/FacialAge/BNav_EC2/DepthDuration/v2_depth_duration_MTurk/v2_DepthDuration_HTML.html#148,148,1348,606,1366,768,8-22-2022,8-29-32,107,depth_duration_stimuli/003423_2014-05-21_10-23-26_094959634447_rgbf002665-resize_2/003423_2014-05-21_10-23-26_094959634447_rgbf002665-resize_2-target.png,1000,3.2575,0,3249,1002,meters,jsons/v1_VE1000_randls_18.json,983743,1282797,24,Man
107,181767,DepthScenes,duration_manipulation_targetAtFixation,jsons/v1_VE1000_randls_18.json,http://54.235.29.9/FacialAge/BNav_EC2/DepthDuration/v2_depth_duration_MTurk/v2_DepthDuration_HTML.html#148,148,1348,606,1366,768,8-22-2022,8-29-32,108,depth_duration_stimuli/002725_2014-06-22_11-47-51_094959634447_rgbf000070-resize_1/002725_2014-06-22_11-47-51_094959634447_rgbf000070-resize_1-target.png,1000,2.195,1,5962,1076,meters,jsons/v1_VE1000_randls_18.json,983743,1282797,24,Man
108,181767,DepthScenes,duration_manipulation_targetAtFixation,jsons/v1_VE1000_randls_18.json,http://54.235.29.9/FacialAge/BNav_EC2/DepthDuration/v2_depth_duration_MTurk/v2_DepthDuration_HTML.html#148,148,1348,606,1366,768,8-22-2022,8-29-32,109,depth_duration_stimuli/002344_2014-06-28_20-06-29_260595134347_rgbf000030-resize_1/002344_2014-06-28_20-06-29_260595134347_rgbf000030-resize_1-target.png,1000,1.5795,1,4798,2,meters,jsons/v1_VE1000_randls_18.json,983743,1282797,24,Man
109,181767,DepthScenes,duration_manipulation_targetAtFixation,jsons/v1_VE1000_randls_18.json,http://54.235.29.9/FacialAge/BNav_EC2/DepthDuration/v2_depth_duration_MTurk/v2_DepthDuration_HTML.html#148,148,1348,606,1366,768,8-22-2022,8-29-32,110,depth_duration_stimuli/003621_2014-05-23_18-06-08_094959634447_rgbf000101-resize_1/003621_2014-05-23_18-06-08_094959634447_rgbf000101-resize_1-target.png,1000,3.9835,1,4672,999,meters,jsons/v1_VE1000_randls_18.json,983743,1282797,24,Man
110,181767,DepthScenes,duration_manipulation_targetAtFixation,jsons/v1_VE1000_randls_18.json,http://54.235.29.9/FacialAge/BNav_EC2/DepthDuration/v2_depth_duration_MTurk/v2_DepthDuration_HTML.html#148,148,1348,606,1366,768,8-22-2022,8-29-32,111,depth_duration_stimuli/001584_2014-06-20_11-07-43_260595134347_rgbf000002-resize_1/001584_2014-06-20_11-07-43_260595134347_rgbf000002-resize_1-target.png,1000,3.53,1,7549,332,meters,jsons/v1_VE1000_randls_18.json,983743,1282797,24,Man
111,181767,DepthScenes,duration_manipulation_targetAtFixation,jsons/v1_VE1000_randls_18.json,http://54.235.29.9/FacialAge/BNav_EC2/DepthDuration/v2_depth_duration_MTurk/v2_DepthDuration_HTML.html#148,148,1348,606,1366,768,8-22-2022,8-29-32,112,depth_duration_stimuli/002213_2014-06-28_18-37-58_260595134347_rgbf000055-resize_1/002213_2014-06-28_18-37-58_260595134347_rgbf000055-resize_1-target.png,1000,3.62,1,3751,1001,meters,jsons/v1_VE1000_randls_18.json,983743,1282797,24,Man
112,181767,DepthScenes,duration_manipulation_targetAtFixation,jsons/v1_VE1000_randls_18.json,http://54.235.29.9/FacialAge/BNav_EC2/DepthDuration/v2_depth_duration_MTurk/v2_DepthDuration_HTML.html#148,148,1348,606,1366,768,8-22-2022,8-29-32,113,depth_duration_stimuli/000691_2014-06-08_13-08-50_260595134347_rgbf000132-resize_3/000691_2014-06-08_13-08-50_260595134347_rgbf000132-resize_3-target.png,1000,4.1530000000000005,1,3972,1000,meters,jsons/v1_VE1000_randls_18.json,983743,1282797,24,Man
113,181767,DepthScenes,duration_manipulation_targetAtFixation,jsons/v1_VE1000_randls_18.json,http://54.235.29.9/FacialAge/BNav_EC2/DepthDuration/v2_depth_duration_MTurk/v2_DepthDuration_HTML.html#148,148,1348,606,1366,768,8-22-2022,8-29-32,114,depth_duration_stimuli/001199_2014-06-17_16-03-48_260595134347_rgbf000077-resize_0/001199_2014-06-17_16-03-48_260595134347_rgbf000077-resize_0-target.png,1000,3.4375,1,5677,999,meters,jsons/v1_VE1000_randls_18.json,983743,1282797,24,Man
114,181767,DepthScenes,duration_manipulation_targetAtFixation,jsons/v1_VE1000_randls_18.json,http://54.235.29.9/FacialAge/BNav_EC2/DepthDuration/v2_depth_duration_MTurk/v2_DepthDuration_HTML.html#148,148,1348,606,1366,768,8-22-2022,8-29-32,115,depth_duration_stimuli/000502_2014-06-08_23-02-32_260595134347_rgbf000063-resize_4/000502_2014-06-08_23-02-32_260595134347_rgbf000063-resize_4-target.png,1000,2.431,1,28958,997,meters,jsons/v1_VE1000_randls_18.json,983743,1282797,24,Man
115,181767,DepthScenes,duration_manipulation_targetAtFixation,jsons/v1_VE1000_randls_18.json,http://54.235.29.9/FacialAge/BNav_EC2/DepthDuration/v2_depth_duration_MTurk/v2_DepthDuration_HTML.html#148,148,1348,606,1366,768,8-22-2022,8-29-32,116,depth_duration_stimuli/001170_2014-06-17_15-43-44_260595134347_rgbf000096-resize_6/001170_2014-06-17_15-43-44_260595134347_rgbf000096-resize-original.jpg,1000,1.1909999999999998,1,4078,996,meters,jsons/v1_VE1000_randls_18.json,983743,1282797,24,Man
116,181767,DepthScenes,duration_manipulation_targetAtFixation,jsons/v1_VE1000_randls_18.json,http://54.235.29.9/FacialAge/BNav_EC2/DepthDuration/v2_depth_duration_MTurk/v2_DepthDuration_HTML.html#148,148,1348,606,1366,768,8-22-2022,8-29-32,117,depth_duration_stimuli/003492_2014-05-21_15-50-55_094959634447_rgbf000828-resize_1/003492_2014-05-21_15-50-55_094959634447_rgbf000828-resize_1-target.png,1000,4.06875,1,5796,998,meters,jsons/v1_VE1000_randls_18.json,983743,1282797,24,Man
117,181767,DepthScenes,duration_manipulation_targetAtFixation,jsons/v1_VE1000_randls_18.json,http://54.235.29.9/FacialAge/BNav_EC2/DepthDuration/v2_depth_duration_MTurk/v2_DepthDuration_HTML.html#148,148,1348,606,1366,768,8-22-2022,8-29-32,118,depth_duration_stimuli/002568_2014-06-24_13-59-21_094959634447_rgbf000062-resize_4/002568_2014-06-24_13-59-21_094959634447_rgbf000062-resize_4-target.png,1000,3.015,1,5190,1000,meters,jsons/v1_VE1000_randls_18.json,983743,1282797,24,Man
118,181767,DepthScenes,duration_manipulation_targetAtFixation,jsons/v1_VE1000_randls_18.json,http://54.235.29.9/FacialAge/BNav_EC2/DepthDuration/v2_depth_duration_MTurk/v2_DepthDuration_HTML.html#148,148,1348,606,1366,768,8-22-2022,8-29-32,119,depth_duration_stimuli/001158_2014-06-17_15-32-16_260595134347_rgbf000138-resize_2/001158_2014-06-17_15-32-16_260595134347_rgbf000138-resize_2-target.png,1000,4.5315,1,3661,1001,meters,jsons/v1_VE1000_randls_18.json,983743,1282797,24,Man
119,181767,DepthScenes,duration_manipulation_targetAtFixation,jsons/v1_VE1000_randls_18.json,http://54.235.29.9/FacialAge/BNav_EC2/DepthDuration/v2_depth_duration_MTurk/v2_DepthDuration_HTML.html#148,148,1348,606,1366,768,8-22-2022,8-29-32,120,depth_duration_stimuli/000556_2014-06-09_22-42-56_260595134347_rgbf000214-resize_1/000556_2014-06-09_22-42-56_260595134347_rgbf000214-resize_1-target.png,1000,4.8415,0,4963,1001,meters,jsons/v1_VE1000_randls_18.json,983743,1282797,24,Man
120,181767,DepthScenes,duration_manipulation_targetAtFixation,jsons/v1_VE1000_randls_18.json,http://54.235.29.9/FacialAge/BNav_EC2/DepthDuration/v2_depth_duration_MTurk/v2_DepthDuration_HTML.html#148,148,1348,606,1366,768,8-22-2022,8-29-32,121,depth_duration_stimuli/002784_2014-06-22_19-26-30_094959634447_rgbf000083-resize_3/002784_2014-06-22_19-26-30_094959634447_rgbf000083-resize_3-target.png,1000,1.8046666666667,0,3510,999,meters,jsons/v1_VE1000_randls_18.json,983743,1282797,24,Man
121,181767,DepthScenes,duration_manipulation_targetAtFixation,jsons/v1_VE1000_randls_18.json,http://54.235.29.9/FacialAge/BNav_EC2/DepthDuration/v2_depth_duration_MTurk/v2_DepthDuration_HTML.html#148,148,1348,606,1366,768,8-22-2022,8-29-32,122,depth_duration_stimuli/001100_2014-06-15_17-46-26_260595134347_rgbf000225-resize_2/001100_2014-06-15_17-46-26_260595134347_rgbf000225-resize_2-target.png,1000,2.24,1,3729,998,meters,jsons/v1_VE1000_randls_18.json,983743,1282797,24,Man
122,181767,DepthScenes,duration_manipulation_targetAtFixation,jsons/v1_VE1000_randls_18.json,http://54.235.29.9/FacialAge/BNav_EC2/DepthDuration/v2_depth_duration_MTurk/v2_DepthDuration_HTML.html#148,148,1348,606,1366,768,8-22-2022,8-29-32,123,depth_duration_stimuli/003070_2014-06-15_14-58-27_094959634447_rgbf000150-resize_3/003070_2014-06-15_14-58-27_094959634447_rgbf000150-resize_3-target.png,1000,2.9415,1,4361,995,meters,jsons/v1_VE1000_randls_18.json,983743,1282797,24,Man
123,181767,DepthScenes,duration_manipulation_targetAtFixation,jsons/v1_VE1000_randls_18.json,http://54.235.29.9/FacialAge/BNav_EC2/DepthDuration/v2_depth_duration_MTurk/v2_DepthDuration_HTML.html#148,148,1348,606,1366,768,8-22-2022,8-29-32,124,depth_duration_stimuli/000943_2014-06-09_19-31-07_260595134347_rgbf000128-resize_1/000943_2014-06-09_19-31-07_260595134347_rgbf000128-resize_1-target.png,1000,1.9765,1,4487,1097,meters,jsons/v1_VE1000_randls_18.json,983743,1282797,24,Man
124,181767,DepthScenes,duration_manipulation_targetAtFixation,jsons/v1_VE1000_randls_18.json,http://54.235.29.9/FacialAge/BNav_EC2/DepthDuration/v2_depth_duration_MTurk/v2_DepthDuration_HTML.html#148,148,1348,606,1366,768,8-22-2022,8-29-32,125,depth_duration_stimuli/003534_2014-05-22_15-06-10_094959634447_rgbf000102-resize_4/003534_2014-05-22_15-06-10_094959634447_rgbf000102-resize_4-target.png,1000,1.426,0,6444,1065,meters,jsons/v1_VE1000_randls_18.json,983743,1282797,24,Man
125,181767,DepthScenes,duration_manipulation_targetAtFixation,jsons/v1_VE1000_randls_18.json,http://54.235.29.9/FacialAge/BNav_EC2/DepthDuration/v2_depth_duration_MTurk/v2_DepthDuration_HTML.html#148,148,1348,606,1366,768,8-22-2022,8-29-32,126,depth_duration_stimuli/002637_2014-06-24_14-51-13_094959634447_rgbf000066-resize_4/002637_2014-06-24_14-51-13_094959634447_rgbf000066-resize_4-target.png,1000,1.9955,1,3484,669,meters,jsons/v1_VE1000_randls_18.json,983743,1282797,24,Man
126,181767,DepthScenes,duration_manipulation_targetAtFixation,jsons/v1_VE1000_randls_18.json,http://54.235.29.9/FacialAge/BNav_EC2/DepthDuration/v2_depth_duration_MTurk/v2_DepthDuration_HTML.html#148,148,1348,606,1366,768,8-22-2022,8-29-32,127,depth_duration_stimuli/000009_2014-05-26_14-32-05_260595134347_rgbf000034-resize_3/000009_2014-05-26_14-32-05_260595134347_rgbf000034-resize_3-target.png,1000,3.8715,1,4213,1010,meters,jsons/v1_VE1000_randls_18.json,983743,1282797,24,Man
127,181767,DepthScenes,duration_manipulation_targetAtFixation,jsons/v1_VE1000_randls_18.json,http://54.235.29.9/FacialAge/BNav_EC2/DepthDuration/v2_depth_duration_MTurk/v2_DepthDuration_HTML.html#148,148,1348,606,1366,768,8-22-2022,8-29-32,128,depth_duration_stimuli/001828_2014-06-26_21-40-03_260595134347_rgbf000024-resize_0/001828_2014-06-26_21-40-03_260595134347_rgbf000024-resize_0-target.png,1000,4.8260000000000005,1,4091,969,meters,jsons/v1_VE1000_randls_18.json,983743,1282797,24,Man
128,181767,DepthScenes,duration_manipulation_targetAtFixation,jsons/v1_VE1000_randls_18.json,http://54.235.29.9/FacialAge/BNav_EC2/DepthDuration/v2_depth_duration_MTurk/v2_DepthDuration_HTML.html#148,148,1348,606,1366,768,8-22-2022,8-29-32,129,depth_duration_stimuli/001806_2014-06-26_20-50-20_260595134347_rgbf000091-resize_1/001806_2014-06-26_20-50-20_260595134347_rgbf000091-resize_1-target.png,1000,2.7305,0,3319,1001,meters,jsons/v1_VE1000_randls_18.json,983743,1282797,24,Man
129,181767,DepthScenes,duration_manipulation_targetAtFixation,jsons/v1_VE1000_randls_18.json,http://54.235.29.9/FacialAge/BNav_EC2/DepthDuration/v2_depth_duration_MTurk/v2_DepthDuration_HTML.html#148,148,1348,606,1366,768,8-22-2022,8-29-32,130,depth_duration_stimuli/001617_2014-06-20_11-35-32_260595134347_rgbf000066-resize_1/001617_2014-06-20_11-35-32_260595134347_rgbf000066-resize_1-target.png,1000,3.7910000000000004,1,3229,996,meters,jsons/v1_VE1000_randls_18.json,983743,1282797,24,Man
130,181767,DepthScenes,duration_manipulation_targetAtFixation,jsons/v1_VE1000_randls_18.json,http://54.235.29.9/FacialAge/BNav_EC2/DepthDuration/v2_depth_duration_MTurk/v2_DepthDuration_HTML.html#148,148,1348,606,1366,768,8-22-2022,8-29-32,131,depth_duration_stimuli/002445_2014-06-28_20-32-16_260595134347_rgbf000029-resize_4/002445_2014-06-28_20-32-16_260595134347_rgbf000029-resize_4-target.png,1000,2.5315,0,3580,1010,meters,jsons/v1_VE1000_randls_18.json,983743,1282797,24,Man
131,181767,DepthScenes,duration_manipulation_targetAtFixation,jsons/v1_VE1000_randls_18.json,http://54.235.29.9/FacialAge/BNav_EC2/DepthDuration/v2_depth_duration_MTurk/v2_DepthDuration_HTML.html#148,148,1348,606,1366,768,8-22-2022,8-29-32,132,depth_duration_stimuli/000780_2014-06-08_22-28-29_260595134347_rgbf000126-resize_1/000780_2014-06-08_22-28-29_260595134347_rgbf000126-resize_1-target.png,1000,3.3825,1,2944,967,meters,jsons/v1_VE1000_randls_18.json,983743,1282797,24,Man
132,181767,DepthScenes,duration_manipulation_targetAtFixation,jsons/v1_VE1000_randls_18.json,http://54.235.29.9/FacialAge/BNav_EC2/DepthDuration/v2_depth_duration_MTurk/v2_DepthDuration_HTML.html#148,148,1348,606,1366,768,8-22-2022,8-29-32,133,depth_duration_stimuli/000917_2014-06-09_22-45-29_260595134347_rgbf000149-resize_3/000917_2014-06-09_22-45-29_260595134347_rgbf000149-resize_3-target.png,1000,4.1865,1,6592,984,meters,jsons/v1_VE1000_randls_18.json,983743,1282797,24,Man
133,181767,DepthScenes,duration_manipulation_targetAtFixation,jsons/v1_VE1000_randls_18.json,http://54.235.29.9/FacialAge/BNav_EC2/DepthDuration/v2_depth_duration_MTurk/v2_DepthDuration_HTML.html#148,148,1348,606,1366,768,8-22-2022,8-29-32,134,depth_duration_stimuli/002323_2014-06-28_20-01-54_260595134347_rgbf000051-resize_4/002323_2014-06-28_20-01-54_260595134347_rgbf000051-resize_4-target.png,1000,3.7310000000000003,1,4143,982,meters,jsons/v1_VE1000_randls_18.json,983743,1282797,24,Man
134,181767,DepthScenes,duration_manipulation_targetAtFixation,jsons/v1_VE1000_randls_18.json,http://54.235.29.9/FacialAge/BNav_EC2/DepthDuration/v2_depth_duration_MTurk/v2_DepthDuration_HTML.html#148,148,1348,606,1366,768,8-22-2022,8-29-32,135,depth_duration_stimuli/002072_2014-06-24_21-48-06_260595134347_rgbf000115-resize_0/002072_2014-06-24_21-48-06_260595134347_rgbf000115-resize-original.jpg,1000,4.702,0,3134,995,meters,jsons/v1_VE1000_randls_18.json,983743,1282797,24,Man
135,181767,DepthScenes,duration_manipulation_targetAtFixation,jsons/v1_VE1000_randls_18.json,http://54.235.29.9/FacialAge/BNav_EC2/DepthDuration/v2_depth_duration_MTurk/v2_DepthDuration_HTML.html#148,148,1348,606,1366,768,8-22-2022,8-29-32,136,depth_duration_stimuli/002043_2014-06-24_20-29-38_260595134347_rgbf000039-resize_4/002043_2014-06-24_20-29-38_260595134347_rgbf000039-resize_4-target.png,1000,2.8435,1,3568,951,meters,jsons/v1_VE1000_randls_18.json,983743,1282797,24,Man
136,181767,DepthScenes,duration_manipulation_targetAtFixation,jsons/v1_VE1000_randls_18.json,http://54.235.29.9/FacialAge/BNav_EC2/DepthDuration/v2_depth_duration_MTurk/v2_DepthDuration_HTML.html#148,148,1348,606,1366,768,8-22-2022,8-29-32,137,depth_duration_stimuli/003048_2014-06-15_13-49-43_094959634447_rgbf000150-resize_1/003048_2014-06-15_13-49-43_094959634447_rgbf000150-resize_1-target.png,1000,4.0035,1,3967,899,meters,jsons/v1_VE1000_randls_18.json,983743,1282797,24,Man
137,181767,DepthScenes,duration_manipulation_targetAtFixation,jsons/v1_VE1000_randls_18.json,http://54.235.29.9/FacialAge/BNav_EC2/DepthDuration/v2_depth_duration_MTurk/v2_DepthDuration_HTML.html#148,148,1348,606,1366,768,8-22-2022,8-29-32,138,depth_duration_stimuli/000682_2014-06-08_23-14-58_260595134347_rgbf000041-resize_5/000682_2014-06-08_23-14-58_260595134347_rgbf000041-resize_5-target.png,1000,2.7239999999999998,1,4697,1078,meters,jsons/v1_VE1000_randls_18.json,983743,1282797,24,Man
138,181767,DepthScenes,duration_manipulation_targetAtFixation,jsons/v1_VE1000_randls_18.json,http://54.235.29.9/FacialAge/BNav_EC2/DepthDuration/v2_depth_duration_MTurk/v2_DepthDuration_HTML.html#148,148,1348,606,1366,768,8-22-2022,8-29-32,139,depth_duration_stimuli/001650_2014-06-20_12-09-00_260595134347_rgbf000087-resize_3/001650_2014-06-20_12-09-00_260595134347_rgbf000087-resize_3-target.png,1000,1.9505,1,5853,1010,meters,jsons/v1_VE1000_randls_18.json,983743,1282797,24,Man
139,181767,DepthScenes,duration_manipulation_targetAtFixation,jsons/v1_VE1000_randls_18.json,http://54.235.29.9/FacialAge/BNav_EC2/DepthDuration/v2_depth_duration_MTurk/v2_DepthDuration_HTML.html#148,148,1348,606,1366,768,8-22-2022,8-29-32,140,depth_duration_stimuli/000736_2014-06-08_18-24-15_260595134347_rgbf000206-resize_3/000736_2014-06-08_18-24-15_260595134347_rgbf000206-resize_3-target.png,1000,3.515,1,4544,1000,meters,jsons/v1_VE1000_randls_18.json,983743,1282797,24,Man
140,181767,DepthScenes,duration_manipulation_targetAtFixation,jsons/v1_VE1000_randls_18.json,http://54.235.29.9/FacialAge/BNav_EC2/DepthDuration/v2_depth_duration_MTurk/v2_DepthDuration_HTML.html#148,148,1348,606,1366,768,8-22-2022,8-29-32,141,depth_duration_stimuli/000137_2014-05-20_17-04-49_260595134347_rgbf000120-resize_1/000137_2014-05-20_17-04-49_260595134347_rgbf000120-resize_1-target.png,1000,3.786,1,3591,998,meters,jsons/v1_VE1000_randls_18.json,983743,1282797,24,Man
141,181767,DepthScenes,duration_manipulation_targetAtFixation,jsons/v1_VE1000_randls_18.json,http://54.235.29.9/FacialAge/BNav_EC2/DepthDuration/v2_depth_duration_MTurk/v2_DepthDuration_HTML.html#148,148,1348,606,1366,768,8-22-2022,8-29-32,142,depth_duration_stimuli/000810_2014-06-08_17-20-01_260595134347_rgbf000105-resize_0/000810_2014-06-08_17-20-01_260595134347_rgbf000105-resize_0-target.png,1000,1.4865,1,4021,994,meters,jsons/v1_VE1000_randls_18.json,983743,1282797,24,Man
142,181767,DepthScenes,duration_manipulation_targetAtFixation,jsons/v1_VE1000_randls_18.json,http://54.235.29.9/FacialAge/BNav_EC2/DepthDuration/v2_depth_duration_MTurk/v2_DepthDuration_HTML.html#148,148,1348,606,1366,768,8-22-2022,8-29-32,143,depth_duration_stimuli/001214_2014-06-17_16-13-55_260595134347_rgbf000111-resize_0/001214_2014-06-17_16-13-55_260595134347_rgbf000111-resize_0-target.png,1000,2.6505,1,9941,1353,meters,jsons/v1_VE1000_randls_18.json,983743,1282797,24,Man
143,181767,DepthScenes,duration_manipulation_targetAtFixation,jsons/v1_VE1000_randls_18.json,http://54.235.29.9/FacialAge/BNav_EC2/DepthDuration/v2_depth_duration_MTurk/v2_DepthDuration_HTML.html#148,148,1348,606,1366,768,8-22-2022,8-29-32,144,depth_duration_stimuli/002964_2014-06-08_17-46-11_094959634447_rgbf000091-resize_4/002964_2014-06-08_17-46-11_094959634447_rgbf000091-resize_4-target.png,1000,1.6909999999999998,1,8274,999,meters,jsons/v1_VE1000_randls_18.json,983743,1282797,24,Man
144,181767,DepthScenes,duration_manipulation_targetAtFixation,jsons/v1_VE1000_randls_18.json,http://54.235.29.9/FacialAge/BNav_EC2/DepthDuration/v2_depth_duration_MTurk/v2_DepthDuration_HTML.html#148,148,1348,606,1366,768,8-22-2022,8-29-32,145,depth_duration_stimuli/002136_2014-06-25_21-18-03_260595134347_rgbf000109-resize_3/002136_2014-06-25_21-18-03_260595134347_rgbf000109-resize_3-target.png,1000,1.9569999999999999,1,5874,1002,meters,jsons/v1_VE1000_randls_18.json,983743,1282797,24,Man
145,181767,DepthScenes,duration_manipulation_targetAtFixation,jsons/v1_VE1000_randls_18.json,http://54.235.29.9/FacialAge/BNav_EC2/DepthDuration/v2_depth_duration_MTurk/v2_DepthDuration_HTML.html#148,148,1348,606,1366,768,8-22-2022,8-29-32,146,depth_duration_stimuli/001498_2014-06-19_17-45-14_260595134347_rgbf000129-resize_4/001498_2014-06-19_17-45-14_260595134347_rgbf000129-resize-original.jpg,1000,1.4075,1,3971,998,meters,jsons/v1_VE1000_randls_18.json,983743,1282797,24,Man
146,181767,DepthScenes,duration_manipulation_targetAtFixation,jsons/v1_VE1000_randls_18.json,http://54.235.29.9/FacialAge/BNav_EC2/DepthDuration/v2_depth_duration_MTurk/v2_DepthDuration_HTML.html#148,148,1348,606,1366,768,8-22-2022,8-29-32,147,depth_duration_stimuli/001244_2014-06-17_16-47-45_260595134347_rgbf000030-resize_4/001244_2014-06-17_16-47-45_260595134347_rgbf000030-resize_4-target.png,1000,2.0425,1,6655,1001,meters,jsons/v1_VE1000_randls_18.json,983743,1282797,24,Man
147,181767,DepthScenes,duration_manipulation_targetAtFixation,jsons/v1_VE1000_randls_18.json,http://54.235.29.9/FacialAge/BNav_EC2/DepthDuration/v2_depth_duration_MTurk/v2_DepthDuration_HTML.html#148,148,1348,606,1366,768,8-22-2022,8-29-32,148,depth_duration_stimuli/003495_2014-05-21_16-01-51_094959634447_rgbf000100-resize_3/003495_2014-05-21_16-01-51_094959634447_rgbf000100-resize_3-target.png,1000,1.6255,1,6041,999,meters,jsons/v1_VE1000_randls_18.json,983743,1282797,24,Man
148,181767,DepthScenes,duration_manipulation_targetAtFixation,jsons/v1_VE1000_randls_18.json,http://54.235.29.9/FacialAge/BNav_EC2/DepthDuration/v2_depth_duration_MTurk/v2_DepthDuration_HTML.html#148,148,1348,606,1366,768,8-22-2022,8-29-32,149,depth_duration_stimuli/001167_2014-06-17_15-38-07_260595134347_rgbf000108-resize_0/001167_2014-06-17_15-38-07_260595134347_rgbf000108-resize_0-target.png,1000,1.8505,1,5068,999,meters,jsons/v1_VE1000_randls_18.json,983743,1282797,24,Man
149,181767,DepthScenes,duration_manipulation_targetAtFixation,jsons/v1_VE1000_randls_18.json,http://54.235.29.9/FacialAge/BNav_EC2/DepthDuration/v2_depth_duration_MTurk/v2_DepthDuration_HTML.html#148,148,1348,606,1366,768,8-22-2022,8-29-32,150,depth_duration_stimuli/003587_2014-05-23_16-48-02_094959634447_rgbf002384-resize_2/003587_2014-05-23_16-48-02_094959634447_rgbf002384-resize_2-target.png,1000,1.357,1,5433,1000,meters,jsons/v1_VE1000_randls_18.json,983743,1282797,24,Man
150,181767,DepthScenes,duration_manipulation_targetAtFixation,jsons/v1_VE1000_randls_18.json,http://54.235.29.9/FacialAge/BNav_EC2/DepthDuration/v2_depth_duration_MTurk/v2_DepthDuration_HTML.html#148,148,1348,606,1366,768,8-22-2022,8-29-32,151,depth_duration_stimuli/001164_2014-06-17_15-35-46_260595134347_rgbf000085-resize_3/001164_2014-06-17_15-35-46_260595134347_rgbf000085-resize_3-target.png,1000,2.354,1,5797,600,meters,jsons/v1_VE1000_randls_18.json,983743,1282797,24,Man
151,181767,DepthScenes,duration_manipulation_targetAtFixation,jsons/v1_VE1000_randls_18.json,http://54.235.29.9/FacialAge/BNav_EC2/DepthDuration/v2_depth_duration_MTurk/v2_DepthDuration_HTML.html#148,148,1348,606,1366,768,8-22-2022,8-29-32,152,depth_duration_stimuli/001136_2014-06-17_15-19-41_260595134347_rgbf000076-resize_3/001136_2014-06-17_15-19-41_260595134347_rgbf000076-resize_3-target.png,1000,1.8655,1,10177,1000,meters,jsons/v1_VE1000_randls_18.json,983743,1282797,24,Man
152,181767,DepthScenes,duration_manipulation_targetAtFixation,jsons/v1_VE1000_randls_18.json,http://54.235.29.9/FacialAge/BNav_EC2/DepthDuration/v2_depth_duration_MTurk/v2_DepthDuration_HTML.html#148,148,1348,606,1366,768,8-22-2022,8-29-32,153,depth_duration_stimuli/002039_2014-06-24_20-22-38_260595134347_rgbf000084-resize_1/002039_2014-06-24_20-22-38_260595134347_rgbf000084-resize_1-target.png,1000,4.408,1,3509,1004,meters,jsons/v1_VE1000_randls_18.json,983743,1282797,24,Man
153,181767,DepthScenes,duration_manipulation_targetAtFixation,jsons/v1_VE1000_randls_18.json,http://54.235.29.9/FacialAge/BNav_EC2/DepthDuration/v2_depth_duration_MTurk/v2_DepthDuration_HTML.html#148,148,1348,606,1366,768,8-22-2022,8-29-32,154,depth_duration_stimuli/002103_2014-06-25_20-00-40_260595134347_rgbf000049-resize_0/002103_2014-06-25_20-00-40_260595134347_rgbf000049-resize_0-target.png,1000,4.105,1,2680,1017,meters,jsons/v1_VE1000_randls_18.json,983743,1282797,24,Man
154,181767,DepthScenes,duration_manipulation_targetAtFixation,jsons/v1_VE1000_randls_18.json,http://54.235.29.9/FacialAge/BNav_EC2/DepthDuration/v2_depth_duration_MTurk/v2_DepthDuration_HTML.html#148,148,1348,606,1366,768,8-22-2022,8-29-32,155,depth_duration_stimuli/001011_2014-06-08_23-18-54_260595134347_rgbf000044-resize_4/001011_2014-06-08_23-18-54_260595134347_rgbf000044-resize_4-target.png,1000,2.4730000000000003,1,2947,1006,meters,jsons/v1_VE1000_randls_18.json,983743,1282797,24,Man
155,181767,DepthScenes,duration_manipulation_targetAtFixation,jsons/v1_VE1000_randls_18.json,http://54.235.29.9/FacialAge/BNav_EC2/DepthDuration/v2_depth_duration_MTurk/v2_DepthDuration_HTML.html#148,148,1348,606,1366,768,8-22-2022,8-29-32,156,depth_duration_stimuli/002875_2014-06-01_15-19-00_094959634447_rgbf000151-resize_1/002875_2014-06-01_15-19-00_094959634447_rgbf000151-resize_1-target.png,1000,1.9675,1,2828,942,meters,jsons/v1_VE1000_randls_18.json,983743,1282797,24,Man
156,181767,DepthScenes,duration_manipulation_targetAtFixation,jsons/v1_VE1000_randls_18.json,http://54.235.29.9/FacialAge/BNav_EC2/DepthDuration/v2_depth_duration_MTurk/v2_DepthDuration_HTML.html#148,148,1348,606,1366,768,8-22-2022,8-29-32,157,depth_duration_stimuli/001150_2014-06-17_15-27-34_260595134347_rgbf000108-resize_2/001150_2014-06-17_15-27-34_260595134347_rgbf000108-resize_2-target.png,1000,4.0325,1,3034,961,meters,jsons/v1_VE1000_randls_18.json,983743,1282797,24,Man
157,181767,DepthScenes,duration_manipulation_targetAtFixation,jsons/v1_VE1000_randls_18.json,http://54.235.29.9/FacialAge/BNav_EC2/DepthDuration/v2_depth_duration_MTurk/v2_DepthDuration_HTML.html#148,148,1348,606,1366,768,8-22-2022,8-29-32,158,depth_duration_stimuli/000665_2014-06-09_20-42-35_260595134347_rgbf000110-resize_1/000665_2014-06-09_20-42-35_260595134347_rgbf000110-resize_1-target.png,1000,3.057,0,4591,1000,meters,jsons/v1_VE1000_randls_18.json,983743,1282797,24,Man
158,181767,DepthScenes,duration_manipulation_targetAtFixation,jsons/v1_VE1000_randls_18.json,http://54.235.29.9/FacialAge/BNav_EC2/DepthDuration/v2_depth_duration_MTurk/v2_DepthDuration_HTML.html#148,148,1348,606,1366,768,8-22-2022,8-29-32,159,depth_duration_stimuli/002763_2014-06-22_19-13-10_094959634447_rgbf000075-resize_4/002763_2014-06-22_19-13-10_094959634447_rgbf000075-resize_4-target.png,1000,1.68375,1,3253,979,meters,jsons/v1_VE1000_randls_18.json,983743,1282797,24,Man
159,181767,DepthScenes,duration_manipulation_targetAtFixation,jsons/v1_VE1000_randls_18.json,http://54.235.29.9/FacialAge/BNav_EC2/DepthDuration/v2_depth_duration_MTurk/v2_DepthDuration_HTML.html#148,148,1348,606,1366,768,8-22-2022,8-29-32,160,depth_duration_stimuli/002209_2014-06-28_18-36-10_260595134347_rgbf000051-resize_1/002209_2014-06-28_18-36-10_260595134347_rgbf000051-resize_1-target.png,1000,2.057,1,4580,992,meters,jsons/v1_VE1000_randls_18.json,983743,1282797,24,Man
160,181767,DepthScenes,duration_manipulation_targetAtFixation,jsons/v1_VE1000_randls_18.json,http://54.235.29.9/FacialAge/BNav_EC2/DepthDuration/v2_depth_duration_MTurk/v2_DepthDuration_HTML.html#148,148,1348,606,1366,768,8-22-2022,8-29-32,161,depth_duration_stimuli/003292_2014-05-14_21-53-49_094959634447_rgbf000100-resize_2/003292_2014-05-14_21-53-49_094959634447_rgbf000100-resize_2-target.png,1000,3.4815,1,2910,895,meters,jsons/v1_VE1000_randls_18.json,983743,1282797,24,Man
161,181767,DepthScenes,duration_manipulation_targetAtFixation,jsons/v1_VE1000_randls_18.json,http://54.235.29.9/FacialAge/BNav_EC2/DepthDuration/v2_depth_duration_MTurk/v2_DepthDuration_HTML.html#148,148,1348,606,1366,768,8-22-2022,8-29-32,162,depth_duration_stimuli/002639_2014-06-24_14-51-37_094959634447_rgbf000074-resize_4/002639_2014-06-24_14-51-37_094959634447_rgbf000074-resize_4-target.png,1000,4.0375,1,3246,973,meters,jsons/v1_VE1000_randls_18.json,983743,1282797,24,Man
162,181767,DepthScenes,duration_manipulation_targetAtFixation,jsons/v1_VE1000_randls_18.json,http://54.235.29.9/FacialAge/BNav_EC2/DepthDuration/v2_depth_duration_MTurk/v2_DepthDuration_HTML.html#148,148,1348,606,1366,768,8-22-2022,8-29-32,163,depth_duration_stimuli/000470_2014-06-09_19-42-40_260595134347_rgbf000094-resize_1/000470_2014-06-09_19-42-40_260595134347_rgbf000094-resize_1-target.png,1000,1.831,0,3677,983,meters,jsons/v1_VE1000_randls_18.json,983743,1282797,24,Man
163,181767,DepthScenes,duration_manipulation_targetAtFixation,jsons/v1_VE1000_randls_18.json,http://54.235.29.9/FacialAge/BNav_EC2/DepthDuration/v2_depth_duration_MTurk/v2_DepthDuration_HTML.html#148,148,1348,606,1366,768,8-22-2022,8-29-32,164,depth_duration_stimuli/000109_2014-05-14_23-41-52_260595134347_rgbf000035-resize_9/000109_2014-05-14_23-41-52_260595134347_rgbf000035-resize_9-target.png,1000,1.3545,0,3174,991,meters,jsons/v1_VE1000_randls_18.json,983743,1282797,24,Man
