,subjID,experimentName,versionName,sequenceName,url,selected_row,windowWidth,windowHeight,screenWidth,screenHeight,startDate,startTime,trial,stimulus,duration,actual_depth,depth_estimate,trial_RT,log_sceneDuration,unitSelection,seq_filepath,experimentTime,totalTime,age,gender
0,181744,DepthScenes,duration_manipulation_targetAtFixation,jsons/VE125_randls_56.json,http://54.235.29.9/FacialAge/BNav_EC2/DepthDuration/v2_depth_duration_MTurk/v2_DepthDuration_HTML.html#382,382,1366,768,1366,768,8-29-2022,10-44-21,1,depth_duration_stimuli/001016_2014-06-09_16-16-10_260595134347_rgbf000112-resize_5/001016_2014-06-09_16-16-10_260595134347_rgbf000112-resize_5-target.png,125,1.6565,5,4294,125,meters,jsons/VE125_randls_56.json,666096,787685,32,Man
1,181744,DepthScenes,duration_manipulation_targetAtFixation,jsons/VE125_randls_56.json,http://54.235.29.9/FacialAge/BNav_EC2/DepthDuration/v2_depth_duration_MTurk/v2_DepthDuration_HTML.html#382,382,1366,768,1366,768,8-29-2022,10-44-21,2,depth_duration_stimuli/002340_2014-06-28_20-05-46_260595134347_rgbf000113-resize_0/002340_2014-06-28_20-05-46_260595134347_rgbf000113-resize_0-target.png,125,2.4735,6,2516,124,meters,jsons/VE125_randls_56.json,666096,787685,32,Man
2,181744,DepthScenes,duration_manipulation_targetAtFixation,jsons/VE125_randls_56.json,http://54.235.29.9/FacialAge/BNav_EC2/DepthDuration/v2_depth_duration_MTurk/v2_DepthDuration_HTML.html#382,382,1366,768,1366,768,8-29-2022,10-44-21,3,depth_duration_stimuli/000414_2014-06-04_19-49-13_260595134347_rgbf000044-resize_0/000414_2014-06-04_19-49-13_260595134347_rgbf000044-resize_0-target.png,125,4.329,7,3040,127,meters,jsons/VE125_randls_56.json,666096,787685,32,Man
3,181744,DepthScenes,duration_manipulation_targetAtFixation,jsons/VE125_randls_56.json,http://54.235.29.9/FacialAge/BNav_EC2/DepthDuration/v2_depth_duration_MTurk/v2_DepthDuration_HTML.html#382,382,1366,768,1366,768,8-29-2022,10-44-21,4,depth_duration_stimuli/003129_2014-05-12_10-48-10_094959634447_rgbf000100-resize_0/003129_2014-05-12_10-48-10_094959634447_rgbf000100-resize_0-target.png,125,4.9305,7,2539,124,meters,jsons/VE125_randls_56.json,666096,787685,32,Man
4,181744,DepthScenes,duration_manipulation_targetAtFixation,jsons/VE125_randls_56.json,http://54.235.29.9/FacialAge/BNav_EC2/DepthDuration/v2_depth_duration_MTurk/v2_DepthDuration_HTML.html#382,382,1366,768,1366,768,8-29-2022,10-44-21,5,depth_duration_stimuli/001029_2014-06-08_13-17-57_260595134347_rgbf000065-resize_1/001029_2014-06-08_13-17-57_260595134347_rgbf000065-resize_1-target.png,125,3.0835,6,2337,127,meters,jsons/VE125_randls_56.json,666096,787685,32,Man
5,181744,DepthScenes,duration_manipulation_targetAtFixation,jsons/VE125_randls_56.json,http://54.235.29.9/FacialAge/BNav_EC2/DepthDuration/v2_depth_duration_MTurk/v2_DepthDuration_HTML.html#382,382,1366,768,1366,768,8-29-2022,10-44-21,6,depth_duration_stimuli/000677_2014-06-08_23-10-32_260595134347_rgbf000158-resize_6/000677_2014-06-08_23-10-32_260595134347_rgbf000158-resize_6-target.png,125,3.556,7,2562,119,meters,jsons/VE125_randls_56.json,666096,787685,32,Man
6,181744,DepthScenes,duration_manipulation_targetAtFixation,jsons/VE125_randls_56.json,http://54.235.29.9/FacialAge/BNav_EC2/DepthDuration/v2_depth_duration_MTurk/v2_DepthDuration_HTML.html#382,382,1366,768,1366,768,8-29-2022,10-44-21,7,depth_duration_stimuli/001555_2014-06-20_17-12-10_260595134347_rgbf000065-resize_4/001555_2014-06-20_17-12-10_260595134347_rgbf000065-resize_4-target.png,125,1.633,5,2404,127,meters,jsons/VE125_randls_56.json,666096,787685,32,Man
7,181744,DepthScenes,duration_manipulation_targetAtFixation,jsons/VE125_randls_56.json,http://54.235.29.9/FacialAge/BNav_EC2/DepthDuration/v2_depth_duration_MTurk/v2_DepthDuration_HTML.html#382,382,1366,768,1366,768,8-29-2022,10-44-21,8,depth_duration_stimuli/000103_2014-05-14_22-01-17_260595134347_rgbf000152-resize_5/000103_2014-05-14_22-01-17_260595134347_rgbf000152-resize_5-target.png,125,1.993,6,2949,135,meters,jsons/VE125_randls_56.json,666096,787685,32,Man
8,181744,DepthScenes,duration_manipulation_targetAtFixation,jsons/VE125_randls_56.json,http://54.235.29.9/FacialAge/BNav_EC2/DepthDuration/v2_depth_duration_MTurk/v2_DepthDuration_HTML.html#382,382,1366,768,1366,768,8-29-2022,10-44-21,9,depth_duration_stimuli/002763_2014-06-22_19-13-10_094959634447_rgbf000075-resize_4/002763_2014-06-22_19-13-10_094959634447_rgbf000075-resize_4-target.png,125,1.68375,5,5056,135,meters,jsons/VE125_randls_56.json,666096,787685,32,Man
9,181744,DepthScenes,duration_manipulation_targetAtFixation,jsons/VE125_randls_56.json,http://54.235.29.9/FacialAge/BNav_EC2/DepthDuration/v2_depth_duration_MTurk/v2_DepthDuration_HTML.html#382,382,1366,768,1366,768,8-29-2022,10-44-21,10,depth_duration_stimuli/002209_2014-06-28_18-36-10_260595134347_rgbf000051-resize_1/002209_2014-06-28_18-36-10_260595134347_rgbf000051-resize_1-target.png,125,2.057,6,2640,113,meters,jsons/VE125_randls_56.json,666096,787685,32,Man
10,181744,DepthScenes,duration_manipulation_targetAtFixation,jsons/VE125_randls_56.json,http://54.235.29.9/FacialAge/BNav_EC2/DepthDuration/v2_depth_duration_MTurk/v2_DepthDuration_HTML.html#382,382,1366,768,1366,768,8-29-2022,10-44-21,11,depth_duration_stimuli/002964_2014-06-08_17-46-11_094959634447_rgbf000091-resize_4/002964_2014-06-08_17-46-11_094959634447_rgbf000091-resize_4-target.png,125,1.6909999999999998,6,2849,125,meters,jsons/VE125_randls_56.json,666096,787685,32,Man
11,181744,DepthScenes,duration_manipulation_targetAtFixation,jsons/VE125_randls_56.json,http://54.235.29.9/FacialAge/BNav_EC2/DepthDuration/v2_depth_duration_MTurk/v2_DepthDuration_HTML.html#382,382,1366,768,1366,768,8-29-2022,10-44-21,12,depth_duration_stimuli/002136_2014-06-25_21-18-03_260595134347_rgbf000109-resize_3/002136_2014-06-25_21-18-03_260595134347_rgbf000109-resize_3-target.png,125,1.9569999999999999,5,2992,123,meters,jsons/VE125_randls_56.json,666096,787685,32,Man
12,181744,DepthScenes,duration_manipulation_targetAtFixation,jsons/VE125_randls_56.json,http://54.235.29.9/FacialAge/BNav_EC2/DepthDuration/v2_depth_duration_MTurk/v2_DepthDuration_HTML.html#382,382,1366,768,1366,768,8-29-2022,10-44-21,13,depth_duration_stimuli/000569_2014-06-09_22-51-47_260595134347_rgbf000141-resize_3/000569_2014-06-09_22-51-47_260595134347_rgbf000141-resize-original.jpg,125,4.512,0,2764,116,meters,jsons/VE125_randls_56.json,666096,787685,32,Man
13,181744,DepthScenes,duration_manipulation_targetAtFixation,jsons/VE125_randls_56.json,http://54.235.29.9/FacialAge/BNav_EC2/DepthDuration/v2_depth_duration_MTurk/v2_DepthDuration_HTML.html#382,382,1366,768,1366,768,8-29-2022,10-44-21,14,depth_duration_stimuli/001810_2014-06-26_20-51-35_260595134347_rgbf000040-resize_3/001810_2014-06-26_20-51-35_260595134347_rgbf000040-resize_3-target.png,125,2.2525,5,2648,125,meters,jsons/VE125_randls_56.json,666096,787685,32,Man
14,181744,DepthScenes,duration_manipulation_targetAtFixation,jsons/VE125_randls_56.json,http://54.235.29.9/FacialAge/BNav_EC2/DepthDuration/v2_depth_duration_MTurk/v2_DepthDuration_HTML.html#382,382,1366,768,1366,768,8-29-2022,10-44-21,15,depth_duration_stimuli/003010_2014-06-15_12-54-35_094959634447_rgbf000112-resize_0/003010_2014-06-15_12-54-35_094959634447_rgbf000112-resize_0-target.png,125,3.1185,6,2298,125,meters,jsons/VE125_randls_56.json,666096,787685,32,Man
15,181744,DepthScenes,duration_manipulation_targetAtFixation,jsons/VE125_randls_56.json,http://54.235.29.9/FacialAge/BNav_EC2/DepthDuration/v2_depth_duration_MTurk/v2_DepthDuration_HTML.html#382,382,1366,768,1366,768,8-29-2022,10-44-21,16,depth_duration_stimuli/001158_2014-06-17_15-32-16_260595134347_rgbf000138-resize_2/001158_2014-06-17_15-32-16_260595134347_rgbf000138-resize_2-target.png,125,4.5315,6,2642,121,meters,jsons/VE125_randls_56.json,666096,787685,32,Man
16,181744,DepthScenes,duration_manipulation_targetAtFixation,jsons/VE125_randls_56.json,http://54.235.29.9/FacialAge/BNav_EC2/DepthDuration/v2_depth_duration_MTurk/v2_DepthDuration_HTML.html#382,382,1366,768,1366,768,8-29-2022,10-44-21,17,depth_duration_stimuli/000556_2014-06-09_22-42-56_260595134347_rgbf000214-resize_1/000556_2014-06-09_22-42-56_260595134347_rgbf000214-resize_1-target.png,125,4.8415,5,2398,123,meters,jsons/VE125_randls_56.json,666096,787685,32,Man
17,181744,DepthScenes,duration_manipulation_targetAtFixation,jsons/VE125_randls_56.json,http://54.235.29.9/FacialAge/BNav_EC2/DepthDuration/v2_depth_duration_MTurk/v2_DepthDuration_HTML.html#382,382,1366,768,1366,768,8-29-2022,10-44-21,18,depth_duration_stimuli/000692_2014-06-08_13-09-42_260595134347_rgbf000199-resize_2/000692_2014-06-08_13-09-42_260595134347_rgbf000199-resize_2-target.png,125,3.661,5,12656,116,meters,jsons/VE125_randls_56.json,666096,787685,32,Man
18,181744,DepthScenes,duration_manipulation_targetAtFixation,jsons/VE125_randls_56.json,http://54.235.29.9/FacialAge/BNav_EC2/DepthDuration/v2_depth_duration_MTurk/v2_DepthDuration_HTML.html#382,382,1366,768,1366,768,8-29-2022,10-44-21,19,depth_duration_stimuli/001094_2014-06-15_17-36-00_260595134347_rgbf000205-resize_0/001094_2014-06-15_17-36-00_260595134347_rgbf000205-resize_0-target.png,125,4.2175,7,2481,122,meters,jsons/VE125_randls_56.json,666096,787685,32,Man
19,181744,DepthScenes,duration_manipulation_targetAtFixation,jsons/VE125_randls_56.json,http://54.235.29.9/FacialAge/BNav_EC2/DepthDuration/v2_depth_duration_MTurk/v2_DepthDuration_HTML.html#382,382,1366,768,1366,768,8-29-2022,10-44-21,20,depth_duration_stimuli/000470_2014-06-09_19-42-40_260595134347_rgbf000094-resize_1/000470_2014-06-09_19-42-40_260595134347_rgbf000094-resize_1-target.png,125,1.831,6,9015,128,meters,jsons/VE125_randls_56.json,666096,787685,32,Man
20,181744,DepthScenes,duration_manipulation_targetAtFixation,jsons/VE125_randls_56.json,http://54.235.29.9/FacialAge/BNav_EC2/DepthDuration/v2_depth_duration_MTurk/v2_DepthDuration_HTML.html#382,382,1366,768,1366,768,8-29-2022,10-44-21,21,depth_duration_stimuli/000109_2014-05-14_23-41-52_260595134347_rgbf000035-resize_9/000109_2014-05-14_23-41-52_260595134347_rgbf000035-resize_9-target.png,125,1.3545,5,5679,126,meters,jsons/VE125_randls_56.json,666096,787685,32,Man
21,181744,DepthScenes,duration_manipulation_targetAtFixation,jsons/VE125_randls_56.json,http://54.235.29.9/FacialAge/BNav_EC2/DepthDuration/v2_depth_duration_MTurk/v2_DepthDuration_HTML.html#382,382,1366,768,1366,768,8-29-2022,10-44-21,22,depth_duration_stimuli/003292_2014-05-14_21-53-49_094959634447_rgbf000100-resize_2/003292_2014-05-14_21-53-49_094959634447_rgbf000100-resize_2-target.png,125,3.4815,6,3435,124,meters,jsons/VE125_randls_56.json,666096,787685,32,Man
22,181744,DepthScenes,duration_manipulation_targetAtFixation,jsons/VE125_randls_56.json,http://54.235.29.9/FacialAge/BNav_EC2/DepthDuration/v2_depth_duration_MTurk/v2_DepthDuration_HTML.html#382,382,1366,768,1366,768,8-29-2022,10-44-21,23,depth_duration_stimuli/002639_2014-06-24_14-51-37_094959634447_rgbf000074-resize_4/002639_2014-06-24_14-51-37_094959634447_rgbf000074-resize_4-target.png,125,4.0375,5,53757,128,meters,jsons/VE125_randls_56.json,666096,787685,32,Man
23,181744,DepthScenes,duration_manipulation_targetAtFixation,jsons/VE125_randls_56.json,http://54.235.29.9/FacialAge/BNav_EC2/DepthDuration/v2_depth_duration_MTurk/v2_DepthDuration_HTML.html#382,382,1366,768,1366,768,8-29-2022,10-44-21,24,depth_duration_stimuli/002039_2014-06-24_20-22-38_260595134347_rgbf000084-resize_1/002039_2014-06-24_20-22-38_260595134347_rgbf000084-resize_1-target.png,125,4.408,6,25956,125,meters,jsons/VE125_randls_56.json,666096,787685,32,Man
24,181744,DepthScenes,duration_manipulation_targetAtFixation,jsons/VE125_randls_56.json,http://54.235.29.9/FacialAge/BNav_EC2/DepthDuration/v2_depth_duration_MTurk/v2_DepthDuration_HTML.html#382,382,1366,768,1366,768,8-29-2022,10-44-21,25,depth_duration_stimuli/002103_2014-06-25_20-00-40_260595134347_rgbf000049-resize_0/002103_2014-06-25_20-00-40_260595134347_rgbf000049-resize_0-target.png,125,4.105,7,2484,134,meters,jsons/VE125_randls_56.json,666096,787685,32,Man
25,181744,DepthScenes,duration_manipulation_targetAtFixation,jsons/VE125_randls_56.json,http://54.235.29.9/FacialAge/BNav_EC2/DepthDuration/v2_depth_duration_MTurk/v2_DepthDuration_HTML.html#382,382,1366,768,1366,768,8-29-2022,10-44-21,26,depth_duration_stimuli/002784_2014-06-22_19-26-30_094959634447_rgbf000083-resize_3/002784_2014-06-22_19-26-30_094959634447_rgbf000083-resize_3-target.png,125,1.8046666666667,5,2736,126,meters,jsons/VE125_randls_56.json,666096,787685,32,Man
26,181744,DepthScenes,duration_manipulation_targetAtFixation,jsons/VE125_randls_56.json,http://54.235.29.9/FacialAge/BNav_EC2/DepthDuration/v2_depth_duration_MTurk/v2_DepthDuration_HTML.html#382,382,1366,768,1366,768,8-29-2022,10-44-21,27,depth_duration_stimuli/001100_2014-06-15_17-46-26_260595134347_rgbf000225-resize_2/001100_2014-06-15_17-46-26_260595134347_rgbf000225-resize_2-target.png,125,2.24,6,4026,130,meters,jsons/VE125_randls_56.json,666096,787685,32,Man
27,181744,DepthScenes,duration_manipulation_targetAtFixation,jsons/VE125_randls_56.json,http://54.235.29.9/FacialAge/BNav_EC2/DepthDuration/v2_depth_duration_MTurk/v2_DepthDuration_HTML.html#382,382,1366,768,1366,768,8-29-2022,10-44-21,28,depth_duration_stimuli/000009_2014-05-26_14-32-05_260595134347_rgbf000034-resize_3/000009_2014-05-26_14-32-05_260595134347_rgbf000034-resize_3-target.png,125,3.8715,7,2139,148,meters,jsons/VE125_randls_56.json,666096,787685,32,Man
28,181744,DepthScenes,duration_manipulation_targetAtFixation,jsons/VE125_randls_56.json,http://54.235.29.9/FacialAge/BNav_EC2/DepthDuration/v2_depth_duration_MTurk/v2_DepthDuration_HTML.html#382,382,1366,768,1366,768,8-29-2022,10-44-21,29,depth_duration_stimuli/001828_2014-06-26_21-40-03_260595134347_rgbf000024-resize_0/001828_2014-06-26_21-40-03_260595134347_rgbf000024-resize_0-target.png,125,4.8260000000000005,5,2519,122,meters,jsons/VE125_randls_56.json,666096,787685,32,Man
29,181744,DepthScenes,duration_manipulation_targetAtFixation,jsons/VE125_randls_56.json,http://54.235.29.9/FacialAge/BNav_EC2/DepthDuration/v2_depth_duration_MTurk/v2_DepthDuration_HTML.html#382,382,1366,768,1366,768,8-29-2022,10-44-21,30,depth_duration_stimuli/000375_2014-06-08_11-17-29_260595134347_rgbf000133-resize_2/000375_2014-06-08_11-17-29_260595134347_rgbf000133-resize-original.jpg,125,4.718,0,2242,127,meters,jsons/VE125_randls_56.json,666096,787685,32,Man
30,181744,DepthScenes,duration_manipulation_targetAtFixation,jsons/VE125_randls_56.json,http://54.235.29.9/FacialAge/BNav_EC2/DepthDuration/v2_depth_duration_MTurk/v2_DepthDuration_HTML.html#382,382,1366,768,1366,768,8-29-2022,10-44-21,31,depth_duration_stimuli/000917_2014-06-09_22-45-29_260595134347_rgbf000149-resize_3/000917_2014-06-09_22-45-29_260595134347_rgbf000149-resize_3-target.png,125,4.1865,7,2484,125,meters,jsons/VE125_randls_56.json,666096,787685,32,Man
31,181744,DepthScenes,duration_manipulation_targetAtFixation,jsons/VE125_randls_56.json,http://54.235.29.9/FacialAge/BNav_EC2/DepthDuration/v2_depth_duration_MTurk/v2_DepthDuration_HTML.html#382,382,1366,768,1366,768,8-29-2022,10-44-21,32,depth_duration_stimuli/002323_2014-06-28_20-01-54_260595134347_rgbf000051-resize_4/002323_2014-06-28_20-01-54_260595134347_rgbf000051-resize_4-target.png,125,3.7310000000000003,6,3567,128,meters,jsons/VE125_randls_56.json,666096,787685,32,Man
32,181744,DepthScenes,duration_manipulation_targetAtFixation,jsons/VE125_randls_56.json,http://54.235.29.9/FacialAge/BNav_EC2/DepthDuration/v2_depth_duration_MTurk/v2_DepthDuration_HTML.html#382,382,1366,768,1366,768,8-29-2022,10-44-21,33,depth_duration_stimuli/001055_2014-06-08_18-45-35_260595134347_rgbf000111-resize_4/001055_2014-06-08_18-45-35_260595134347_rgbf000111-resize_4-target.png,125,2.4290000000000003,7,2404,128,meters,jsons/VE125_randls_56.json,666096,787685,32,Man
33,181744,DepthScenes,duration_manipulation_targetAtFixation,jsons/VE125_randls_56.json,http://54.235.29.9/FacialAge/BNav_EC2/DepthDuration/v2_depth_duration_MTurk/v2_DepthDuration_HTML.html#382,382,1366,768,1366,768,8-29-2022,10-44-21,34,depth_duration_stimuli/000549_2014-06-08_22-10-24_260595134347_rgbf000247-resize_3/000549_2014-06-08_22-10-24_260595134347_rgbf000247-resize_3-target.png,125,1.841,5,5608,126,meters,jsons/VE125_randls_56.json,666096,787685,32,Man
34,181744,DepthScenes,duration_manipulation_targetAtFixation,jsons/VE125_randls_56.json,http://54.235.29.9/FacialAge/BNav_EC2/DepthDuration/v2_depth_duration_MTurk/v2_DepthDuration_HTML.html#382,382,1366,768,1366,768,8-29-2022,10-44-21,35,depth_duration_stimuli/003492_2014-05-21_15-50-55_094959634447_rgbf000828-resize_1/003492_2014-05-21_15-50-55_094959634447_rgbf000828-resize_1-target.png,125,4.06875,7,2301,126,meters,jsons/VE125_randls_56.json,666096,787685,32,Man
35,181744,DepthScenes,duration_manipulation_targetAtFixation,jsons/VE125_randls_56.json,http://54.235.29.9/FacialAge/BNav_EC2/DepthDuration/v2_depth_duration_MTurk/v2_DepthDuration_HTML.html#382,382,1366,768,1366,768,8-29-2022,10-44-21,36,depth_duration_stimuli/002568_2014-06-24_13-59-21_094959634447_rgbf000062-resize_4/002568_2014-06-24_13-59-21_094959634447_rgbf000062-resize_4-target.png,125,3.015,6,2500,126,meters,jsons/VE125_randls_56.json,666096,787685,32,Man
36,181744,DepthScenes,duration_manipulation_targetAtFixation,jsons/VE125_randls_56.json,http://54.235.29.9/FacialAge/BNav_EC2/DepthDuration/v2_depth_duration_MTurk/v2_DepthDuration_HTML.html#382,382,1366,768,1366,768,8-29-2022,10-44-21,37,depth_duration_stimuli/002272_2014-06-28_18-53-56_260595134347_rgbf000067-resize_2/002272_2014-06-28_18-53-56_260595134347_rgbf000067-resize_2-target.png,125,1.138,3,3503,124,meters,jsons/VE125_randls_56.json,666096,787685,32,Man
37,181744,DepthScenes,duration_manipulation_targetAtFixation,jsons/VE125_randls_56.json,http://54.235.29.9/FacialAge/BNav_EC2/DepthDuration/v2_depth_duration_MTurk/v2_DepthDuration_HTML.html#382,382,1366,768,1366,768,8-29-2022,10-44-21,38,depth_duration_stimuli/001571_2014-06-20_17-21-32_260595134347_rgbf000089-resize_1/001571_2014-06-20_17-21-32_260595134347_rgbf000089-resize_1-target.png,125,1.86,5,2510,128,meters,jsons/VE125_randls_56.json,666096,787685,32,Man
38,181744,DepthScenes,duration_manipulation_targetAtFixation,jsons/VE125_randls_56.json,http://54.235.29.9/FacialAge/BNav_EC2/DepthDuration/v2_depth_duration_MTurk/v2_DepthDuration_HTML.html#382,382,1366,768,1366,768,8-29-2022,10-44-21,39,depth_duration_stimuli/000493_2014-06-09_21-01-18_260595134347_rgbf000196-resize_3/000493_2014-06-09_21-01-18_260595134347_rgbf000196-resize_3-target.png,125,3.44,7,2141,124,meters,jsons/VE125_randls_56.json,666096,787685,32,Man
39,181744,DepthScenes,duration_manipulation_targetAtFixation,jsons/VE125_randls_56.json,http://54.235.29.9/FacialAge/BNav_EC2/DepthDuration/v2_depth_duration_MTurk/v2_DepthDuration_HTML.html#382,382,1366,768,1366,768,8-29-2022,10-44-21,40,depth_duration_stimuli/000191_2014-05-12_17-07-38_260595134347_rgbf000199-resize_0/000191_2014-05-12_17-07-38_260595134347_rgbf000199-resize_0-target.png,125,3.7995,7,2276,124,meters,jsons/VE125_randls_56.json,666096,787685,32,Man
40,181744,DepthScenes,duration_manipulation_targetAtFixation,jsons/VE125_randls_56.json,http://54.235.29.9/FacialAge/BNav_EC2/DepthDuration/v2_depth_duration_MTurk/v2_DepthDuration_HTML.html#382,382,1366,768,1366,768,8-29-2022,10-44-21,41,depth_duration_stimuli/002905_2014-06-03_18-04-43_094959634447_rgbf000151-resize_2/002905_2014-06-03_18-04-43_094959634447_rgbf000151-resize_2-target.png,125,2.0295,5,2490,124,meters,jsons/VE125_randls_56.json,666096,787685,32,Man
41,181744,DepthScenes,duration_manipulation_targetAtFixation,jsons/VE125_randls_56.json,http://54.235.29.9/FacialAge/BNav_EC2/DepthDuration/v2_depth_duration_MTurk/v2_DepthDuration_HTML.html#382,382,1366,768,1366,768,8-29-2022,10-44-21,42,depth_duration_stimuli/003423_2014-05-21_10-23-26_094959634447_rgbf002665-resize_2/003423_2014-05-21_10-23-26_094959634447_rgbf002665-resize_2-target.png,125,3.2575,7,2539,126,meters,jsons/VE125_randls_56.json,666096,787685,32,Man
42,181744,DepthScenes,duration_manipulation_targetAtFixation,jsons/VE125_randls_56.json,http://54.235.29.9/FacialAge/BNav_EC2/DepthDuration/v2_depth_duration_MTurk/v2_DepthDuration_HTML.html#382,382,1366,768,1366,768,8-29-2022,10-44-21,43,depth_duration_stimuli/000878_2014-06-08_22-52-45_260595134347_rgbf000045-resize_2/000878_2014-06-08_22-52-45_260595134347_rgbf000045-resize_2-target.png,125,2.092,7,2521,124,meters,jsons/VE125_randls_56.json,666096,787685,32,Man
43,181744,DepthScenes,duration_manipulation_targetAtFixation,jsons/VE125_randls_56.json,http://54.235.29.9/FacialAge/BNav_EC2/DepthDuration/v2_depth_duration_MTurk/v2_DepthDuration_HTML.html#382,382,1366,768,1366,768,8-29-2022,10-44-21,44,depth_duration_stimuli/002953_2014-06-08_17-32-18_094959634447_rgbf000059-resize_5/002953_2014-06-08_17-32-18_094959634447_rgbf000059-resize_5-target.png,125,1.551,2,2575,124,meters,jsons/VE125_randls_56.json,666096,787685,32,Man
44,181744,DepthScenes,duration_manipulation_targetAtFixation,jsons/VE125_randls_56.json,http://54.235.29.9/FacialAge/BNav_EC2/DepthDuration/v2_depth_duration_MTurk/v2_DepthDuration_HTML.html#382,382,1366,768,1366,768,8-29-2022,10-44-21,45,depth_duration_stimuli/000787_2014-06-08_22-33-53_260595134347_rgbf000175-resize_1/000787_2014-06-08_22-33-53_260595134347_rgbf000175-resize-original.jpg,125,4.784,0,2877,123,meters,jsons/VE125_randls_56.json,666096,787685,32,Man
45,181744,DepthScenes,duration_manipulation_targetAtFixation,jsons/VE125_randls_56.json,http://54.235.29.9/FacialAge/BNav_EC2/DepthDuration/v2_depth_duration_MTurk/v2_DepthDuration_HTML.html#382,382,1366,768,1366,768,8-29-2022,10-44-21,46,depth_duration_stimuli/002153_2014-06-25_21-27-18_260595134347_rgbf000038-resize_5/002153_2014-06-25_21-27-18_260595134347_rgbf000038-resize_5-target.png,125,2.505,3,3169,128,meters,jsons/VE125_randls_56.json,666096,787685,32,Man
46,181744,DepthScenes,duration_manipulation_targetAtFixation,jsons/VE125_randls_56.json,http://54.235.29.9/FacialAge/BNav_EC2/DepthDuration/v2_depth_duration_MTurk/v2_DepthDuration_HTML.html#382,382,1366,768,1366,768,8-29-2022,10-44-21,47,depth_duration_stimuli/002660_2014-06-13_15-44-18_094959634447_rgbf001878-resize_2/002660_2014-06-13_15-44-18_094959634447_rgbf001878-resize_2-target.png,125,3.576,6,2888,154,meters,jsons/VE125_randls_56.json,666096,787685,32,Man
47,181744,DepthScenes,duration_manipulation_targetAtFixation,jsons/VE125_randls_56.json,http://54.235.29.9/FacialAge/BNav_EC2/DepthDuration/v2_depth_duration_MTurk/v2_DepthDuration_HTML.html#382,382,1366,768,1366,768,8-29-2022,10-44-21,48,depth_duration_stimuli/000929_2014-06-09_16-33-19_260595134347_rgbf000139-resize_0/000929_2014-06-09_16-33-19_260595134347_rgbf000139-resize_0-target.png,125,2.8680000000000003,5,3509,124,meters,jsons/VE125_randls_56.json,666096,787685,32,Man
48,181744,DepthScenes,duration_manipulation_targetAtFixation,jsons/VE125_randls_56.json,http://54.235.29.9/FacialAge/BNav_EC2/DepthDuration/v2_depth_duration_MTurk/v2_DepthDuration_HTML.html#382,382,1366,768,1366,768,8-29-2022,10-44-21,49,depth_duration_stimuli/000457_2014-06-08_16-52-43_260595134347_rgbf000199-resize_1/000457_2014-06-08_16-52-43_260595134347_rgbf000199-resize_1-target.png,125,3.6489999999999996,7,2169,125,meters,jsons/VE125_randls_56.json,666096,787685,32,Man
49,181744,DepthScenes,duration_manipulation_targetAtFixation,jsons/VE125_randls_56.json,http://54.235.29.9/FacialAge/BNav_EC2/DepthDuration/v2_depth_duration_MTurk/v2_DepthDuration_HTML.html#382,382,1366,768,1366,768,8-29-2022,10-44-21,50,depth_duration_stimuli/001167_2014-06-17_15-38-07_260595134347_rgbf000108-resize_0/001167_2014-06-17_15-38-07_260595134347_rgbf000108-resize_0-target.png,125,1.8505,6,2938,129,meters,jsons/VE125_randls_56.json,666096,787685,32,Man
50,181744,DepthScenes,duration_manipulation_targetAtFixation,jsons/VE125_randls_56.json,http://54.235.29.9/FacialAge/BNav_EC2/DepthDuration/v2_depth_duration_MTurk/v2_DepthDuration_HTML.html#382,382,1366,768,1366,768,8-29-2022,10-44-21,51,depth_duration_stimuli/003587_2014-05-23_16-48-02_094959634447_rgbf002384-resize_2/003587_2014-05-23_16-48-02_094959634447_rgbf002384-resize_2-target.png,125,1.357,5,2709,122,meters,jsons/VE125_randls_56.json,666096,787685,32,Man
51,181744,DepthScenes,duration_manipulation_targetAtFixation,jsons/VE125_randls_56.json,http://54.235.29.9/FacialAge/BNav_EC2/DepthDuration/v2_depth_duration_MTurk/v2_DepthDuration_HTML.html#382,382,1366,768,1366,768,8-29-2022,10-44-21,52,depth_duration_stimuli/001059_2014-06-08_21-53-27_260595134347_rgbf000061-resize_4/001059_2014-06-08_21-53-27_260595134347_rgbf000061-resize_4-target.png,125,2.4185,7,3326,137,meters,jsons/VE125_randls_56.json,666096,787685,32,Man
52,181744,DepthScenes,duration_manipulation_targetAtFixation,jsons/VE125_randls_56.json,http://54.235.29.9/FacialAge/BNav_EC2/DepthDuration/v2_depth_duration_MTurk/v2_DepthDuration_HTML.html#382,382,1366,768,1366,768,8-29-2022,10-44-21,53,depth_duration_stimuli/001032_2014-06-08_13-23-17_260595134347_rgbf000021-resize_3/001032_2014-06-08_13-23-17_260595134347_rgbf000021-resize_3-target.png,125,3.2725,5,6036,126,meters,jsons/VE125_randls_56.json,666096,787685,32,Man
53,181744,DepthScenes,duration_manipulation_targetAtFixation,jsons/VE125_randls_56.json,http://54.235.29.9/FacialAge/BNav_EC2/DepthDuration/v2_depth_duration_MTurk/v2_DepthDuration_HTML.html#382,382,1366,768,1366,768,8-29-2022,10-44-21,54,depth_duration_stimuli/002445_2014-06-28_20-32-16_260595134347_rgbf000029-resize_4/002445_2014-06-28_20-32-16_260595134347_rgbf000029-resize_4-target.png,125,2.5315,0,3913,115,meters,jsons/VE125_randls_56.json,666096,787685,32,Man
54,181744,DepthScenes,duration_manipulation_targetAtFixation,jsons/VE125_randls_56.json,http://54.235.29.9/FacialAge/BNav_EC2/DepthDuration/v2_depth_duration_MTurk/v2_DepthDuration_HTML.html#382,382,1366,768,1366,768,8-29-2022,10-44-21,55,depth_duration_stimuli/000780_2014-06-08_22-28-29_260595134347_rgbf000126-resize_1/000780_2014-06-08_22-28-29_260595134347_rgbf000126-resize_1-target.png,125,3.3825,7,2305,125,meters,jsons/VE125_randls_56.json,666096,787685,32,Man
55,181744,DepthScenes,duration_manipulation_targetAtFixation,jsons/VE125_randls_56.json,http://54.235.29.9/FacialAge/BNav_EC2/DepthDuration/v2_depth_duration_MTurk/v2_DepthDuration_HTML.html#382,382,1366,768,1366,768,8-29-2022,10-44-21,56,depth_duration_stimuli/000758_2014-06-08_22-05-08_260595134347_rgbf000085-resize_0/000758_2014-06-08_22-05-08_260595134347_rgbf000085-resize_0-target.png,125,3.3810000000000002,7,2945,122,meters,jsons/VE125_randls_56.json,666096,787685,32,Man
56,181744,DepthScenes,duration_manipulation_targetAtFixation,jsons/VE125_randls_56.json,http://54.235.29.9/FacialAge/BNav_EC2/DepthDuration/v2_depth_duration_MTurk/v2_DepthDuration_HTML.html#382,382,1366,768,1366,768,8-29-2022,10-44-21,57,depth_duration_stimuli/000854_2014-06-09_19-43-13_260595134347_rgbf000066-resize_0/000854_2014-06-09_19-43-13_260595134347_rgbf000066-resize_0-target.png,125,3.068,6,2903,128,meters,jsons/VE125_randls_56.json,666096,787685,32,Man
57,181744,DepthScenes,duration_manipulation_targetAtFixation,jsons/VE125_randls_56.json,http://54.235.29.9/FacialAge/BNav_EC2/DepthDuration/v2_depth_duration_MTurk/v2_DepthDuration_HTML.html#382,382,1366,768,1366,768,8-29-2022,10-44-21,58,depth_duration_stimuli/000447_2014-06-08_16-15-46_260595134347_rgbf000130-resize_1/000447_2014-06-08_16-15-46_260595134347_rgbf000130-resize_1-target.png,125,4.479,7,3306,124,meters,jsons/VE125_randls_56.json,666096,787685,32,Man
58,181744,DepthScenes,duration_manipulation_targetAtFixation,jsons/VE125_randls_56.json,http://54.235.29.9/FacialAge/BNav_EC2/DepthDuration/v2_depth_duration_MTurk/v2_DepthDuration_HTML.html#382,382,1366,768,1366,768,8-29-2022,10-44-21,59,depth_duration_stimuli/001447_2014-06-19_17-00-32_260595134347_rgbf000082-resize_5/001447_2014-06-19_17-00-32_260595134347_rgbf000082-resize_5-target.png,125,4.13775,5,2220,133,meters,jsons/VE125_randls_56.json,666096,787685,32,Man
59,181744,DepthScenes,duration_manipulation_targetAtFixation,jsons/VE125_randls_56.json,http://54.235.29.9/FacialAge/BNav_EC2/DepthDuration/v2_depth_duration_MTurk/v2_DepthDuration_HTML.html#382,382,1366,768,1366,768,8-29-2022,10-44-21,60,depth_duration_stimuli/001110_2014-06-15_17-25-28_260595134347_rgbf000150-resize_1/001110_2014-06-15_17-25-28_260595134347_rgbf000150-resize_1-target.png,125,1.7115,7,2321,127,meters,jsons/VE125_randls_56.json,666096,787685,32,Man
60,181744,DepthScenes,duration_manipulation_targetAtFixation,jsons/VE125_randls_56.json,http://54.235.29.9/FacialAge/BNav_EC2/DepthDuration/v2_depth_duration_MTurk/v2_DepthDuration_HTML.html#382,382,1366,768,1366,768,8-29-2022,10-44-21,61,depth_duration_stimuli/000927_2014-06-09_16-32-30_260595134347_rgbf000123-resize_3/000927_2014-06-09_16-32-30_260595134347_rgbf000123-resize_3-target.png,125,2.6785,5,1950,130,meters,jsons/VE125_randls_56.json,666096,787685,32,Man
61,181744,DepthScenes,duration_manipulation_targetAtFixation,jsons/VE125_randls_56.json,http://54.235.29.9/FacialAge/BNav_EC2/DepthDuration/v2_depth_duration_MTurk/v2_DepthDuration_HTML.html#382,382,1366,768,1366,768,8-29-2022,10-44-21,62,depth_duration_stimuli/002375_2014-06-28_20-13-44_260595134347_rgbf000032-resize_1/002375_2014-06-28_20-13-44_260595134347_rgbf000032-resize_1-target.png,125,4.0175,5,2117,125,meters,jsons/VE125_randls_56.json,666096,787685,32,Man
62,181744,DepthScenes,duration_manipulation_targetAtFixation,jsons/VE125_randls_56.json,http://54.235.29.9/FacialAge/BNav_EC2/DepthDuration/v2_depth_duration_MTurk/v2_DepthDuration_HTML.html#382,382,1366,768,1366,768,8-29-2022,10-44-21,63,depth_duration_stimuli/002657_2014-06-13_15-29-54_094959634447_rgbf000150-resize_1/002657_2014-06-13_15-29-54_094959634447_rgbf000150-resize_1-target.png,125,4.919,6,4530,126,meters,jsons/VE125_randls_56.json,666096,787685,32,Man
63,181744,DepthScenes,duration_manipulation_targetAtFixation,jsons/VE125_randls_56.json,http://54.235.29.9/FacialAge/BNav_EC2/DepthDuration/v2_depth_duration_MTurk/v2_DepthDuration_HTML.html#382,382,1366,768,1366,768,8-29-2022,10-44-21,64,depth_duration_stimuli/002213_2014-06-28_18-37-58_260595134347_rgbf000055-resize_1/002213_2014-06-28_18-37-58_260595134347_rgbf000055-resize_1-target.png,125,3.62,7,2490,126,meters,jsons/VE125_randls_56.json,666096,787685,32,Man
64,181744,DepthScenes,duration_manipulation_targetAtFixation,jsons/VE125_randls_56.json,http://54.235.29.9/FacialAge/BNav_EC2/DepthDuration/v2_depth_duration_MTurk/v2_DepthDuration_HTML.html#382,382,1366,768,1366,768,8-29-2022,10-44-21,65,depth_duration_stimuli/000691_2014-06-08_13-08-50_260595134347_rgbf000132-resize_3/000691_2014-06-08_13-08-50_260595134347_rgbf000132-resize_3-target.png,125,4.1530000000000005,5,2025,134,meters,jsons/VE125_randls_56.json,666096,787685,32,Man
65,181744,DepthScenes,duration_manipulation_targetAtFixation,jsons/VE125_randls_56.json,http://54.235.29.9/FacialAge/BNav_EC2/DepthDuration/v2_depth_duration_MTurk/v2_DepthDuration_HTML.html#382,382,1366,768,1366,768,8-29-2022,10-44-21,66,depth_duration_stimuli/001222_2014-06-17_16-24-06_260595134347_rgbf000073-resize_0/001222_2014-06-17_16-24-06_260595134347_rgbf000073-resize-original.jpg,125,1.4385,0,3759,129,meters,jsons/VE125_randls_56.json,666096,787685,32,Man
66,181744,DepthScenes,duration_manipulation_targetAtFixation,jsons/VE125_randls_56.json,http://54.235.29.9/FacialAge/BNav_EC2/DepthDuration/v2_depth_duration_MTurk/v2_DepthDuration_HTML.html#382,382,1366,768,1366,768,8-29-2022,10-44-21,67,depth_duration_stimuli/000469_2014-06-09_19-42-10_260595134347_rgbf000081-resize_1/000469_2014-06-09_19-42-10_260595134347_rgbf000081-resize_1-target.png,125,1.652,3,6014,122,meters,jsons/VE125_randls_56.json,666096,787685,32,Man
67,181744,DepthScenes,duration_manipulation_targetAtFixation,jsons/VE125_randls_56.json,http://54.235.29.9/FacialAge/BNav_EC2/DepthDuration/v2_depth_duration_MTurk/v2_DepthDuration_HTML.html#382,382,1366,768,1366,768,8-29-2022,10-44-21,68,depth_duration_stimuli/000483_2014-06-09_20-41-45_260595134347_rgbf000116-resize_4/000483_2014-06-09_20-41-45_260595134347_rgbf000116-resize_4-target.png,125,1.337,5,2899,125,meters,jsons/VE125_randls_56.json,666096,787685,32,Man
68,181744,DepthScenes,duration_manipulation_targetAtFixation,jsons/VE125_randls_56.json,http://54.235.29.9/FacialAge/BNav_EC2/DepthDuration/v2_depth_duration_MTurk/v2_DepthDuration_HTML.html#382,382,1366,768,1366,768,8-29-2022,10-44-21,69,depth_duration_stimuli/000642_2014-06-08_16-59-25_260595134347_rgbf000098-resize_2/000642_2014-06-08_16-59-25_260595134347_rgbf000098-resize_2-target.png,125,2.8815,5,2771,127,meters,jsons/VE125_randls_56.json,666096,787685,32,Man
69,181744,DepthScenes,duration_manipulation_targetAtFixation,jsons/VE125_randls_56.json,http://54.235.29.9/FacialAge/BNav_EC2/DepthDuration/v2_depth_duration_MTurk/v2_DepthDuration_HTML.html#382,382,1366,768,1366,768,8-29-2022,10-44-21,70,depth_duration_stimuli/002425_2014-06-28_20-27-29_260595134347_rgbf000031-resize_8/002425_2014-06-28_20-27-29_260595134347_rgbf000031-resize_8-target.png,125,3.8960000000000004,6,2364,117,meters,jsons/VE125_randls_56.json,666096,787685,32,Man
70,181744,DepthScenes,duration_manipulation_targetAtFixation,jsons/VE125_randls_56.json,http://54.235.29.9/FacialAge/BNav_EC2/DepthDuration/v2_depth_duration_MTurk/v2_DepthDuration_HTML.html#382,382,1366,768,1366,768,8-29-2022,10-44-21,71,depth_duration_stimuli/002118_2014-06-25_20-32-08_260595134347_rgbf000078-resize_1/002118_2014-06-25_20-32-08_260595134347_rgbf000078-resize_1-target.png,125,2.6460000000000004,5,2682,126,meters,jsons/VE125_randls_56.json,666096,787685,32,Man
71,181744,DepthScenes,duration_manipulation_targetAtFixation,jsons/VE125_randls_56.json,http://54.235.29.9/FacialAge/BNav_EC2/DepthDuration/v2_depth_duration_MTurk/v2_DepthDuration_HTML.html#382,382,1366,768,1366,768,8-29-2022,10-44-21,72,depth_duration_stimuli/001516_2014-06-20_16-25-09_260595134347_rgbf000076-resize_2/001516_2014-06-20_16-25-09_260595134347_rgbf000076-resize_2-target.png,125,1.7445,5,2565,123,meters,jsons/VE125_randls_56.json,666096,787685,32,Man
72,181744,DepthScenes,duration_manipulation_targetAtFixation,jsons/VE125_randls_56.json,http://54.235.29.9/FacialAge/BNav_EC2/DepthDuration/v2_depth_duration_MTurk/v2_DepthDuration_HTML.html#382,382,1366,768,1366,768,8-29-2022,10-44-21,73,depth_duration_stimuli/000486_2014-06-09_20-47-20_260595134347_rgbf000143-resize_2/000486_2014-06-09_20-47-20_260595134347_rgbf000143-resize_2-target.png,125,4.8325,6,2487,124,meters,jsons/VE125_randls_56.json,666096,787685,32,Man
73,181744,DepthScenes,duration_manipulation_targetAtFixation,jsons/VE125_randls_56.json,http://54.235.29.9/FacialAge/BNav_EC2/DepthDuration/v2_depth_duration_MTurk/v2_DepthDuration_HTML.html#382,382,1366,768,1366,768,8-29-2022,10-44-21,74,depth_duration_stimuli/003083_2014-06-15_15-21-03_094959634447_rgbf000063-resize_1/003083_2014-06-15_15-21-03_094959634447_rgbf000063-resize_1-target.png,125,4.1405,6,2526,124,meters,jsons/VE125_randls_56.json,666096,787685,32,Man
74,181744,DepthScenes,duration_manipulation_targetAtFixation,jsons/VE125_randls_56.json,http://54.235.29.9/FacialAge/BNav_EC2/DepthDuration/v2_depth_duration_MTurk/v2_DepthDuration_HTML.html#382,382,1366,768,1366,768,8-29-2022,10-44-21,75,depth_duration_stimuli/000788_2014-06-08_22-34-36_260595134347_rgbf000131-resize_1/000788_2014-06-08_22-34-36_260595134347_rgbf000131-resize_1-target.png,125,3.359,7,3088,128,meters,jsons/VE125_randls_56.json,666096,787685,32,Man
75,181744,DepthScenes,duration_manipulation_targetAtFixation,jsons/VE125_randls_56.json,http://54.235.29.9/FacialAge/BNav_EC2/DepthDuration/v2_depth_duration_MTurk/v2_DepthDuration_HTML.html#382,382,1366,768,1366,768,8-29-2022,10-44-21,76,depth_duration_stimuli/001235_2014-06-17_16-37-36_260595134347_rgbf000084-resize_4/001235_2014-06-17_16-37-36_260595134347_rgbf000084-resize_4-target.png,125,3.6605,6,2889,118,meters,jsons/VE125_randls_56.json,666096,787685,32,Man
76,181744,DepthScenes,duration_manipulation_targetAtFixation,jsons/VE125_randls_56.json,http://54.235.29.9/FacialAge/BNav_EC2/DepthDuration/v2_depth_duration_MTurk/v2_DepthDuration_HTML.html#382,382,1366,768,1366,768,8-29-2022,10-44-21,77,depth_duration_stimuli/001133_2014-06-17_14-49-16_260595134347_rgbf000100-resize_0/001133_2014-06-17_14-49-16_260595134347_rgbf000100-resize_0-target.png,125,4.2115,6,2720,126,meters,jsons/VE125_randls_56.json,666096,787685,32,Man
77,181744,DepthScenes,duration_manipulation_targetAtFixation,jsons/VE125_randls_56.json,http://54.235.29.9/FacialAge/BNav_EC2/DepthDuration/v2_depth_duration_MTurk/v2_DepthDuration_HTML.html#382,382,1366,768,1366,768,8-29-2022,10-44-21,78,depth_duration_stimuli/001132_2014-06-17_14-48-54_260595134347_rgbf000100-resize_2/001132_2014-06-17_14-48-54_260595134347_rgbf000100-resize_2-target.png,125,3.753,7,2164,125,meters,jsons/VE125_randls_56.json,666096,787685,32,Man
78,181744,DepthScenes,duration_manipulation_targetAtFixation,jsons/VE125_randls_56.json,http://54.235.29.9/FacialAge/BNav_EC2/DepthDuration/v2_depth_duration_MTurk/v2_DepthDuration_HTML.html#382,382,1366,768,1366,768,8-29-2022,10-44-21,79,depth_duration_stimuli/002057_2014-06-24_21-00-13_260595134347_rgbf000120-resize_1/002057_2014-06-24_21-00-13_260595134347_rgbf000120-resize_1-target.png,125,2.967,6,2948,128,meters,jsons/VE125_randls_56.json,666096,787685,32,Man
79,181744,DepthScenes,duration_manipulation_targetAtFixation,jsons/VE125_randls_56.json,http://54.235.29.9/FacialAge/BNav_EC2/DepthDuration/v2_depth_duration_MTurk/v2_DepthDuration_HTML.html#382,382,1366,768,1366,768,8-29-2022,10-44-21,80,depth_duration_stimuli/000709_2014-06-08_13-51-55_260595134347_rgbf000068-resize_3/000709_2014-06-08_13-51-55_260595134347_rgbf000068-resize_3-target.png,125,1.8030000000000002,5,2607,125,meters,jsons/VE125_randls_56.json,666096,787685,32,Man
80,181744,DepthScenes,duration_manipulation_targetAtFixation,jsons/VE125_randls_56.json,http://54.235.29.9/FacialAge/BNav_EC2/DepthDuration/v2_depth_duration_MTurk/v2_DepthDuration_HTML.html#382,382,1366,768,1366,768,8-29-2022,10-44-21,81,depth_duration_stimuli/001199_2014-06-17_16-03-48_260595134347_rgbf000077-resize_0/001199_2014-06-17_16-03-48_260595134347_rgbf000077-resize_0-target.png,125,3.4375,6,3298,125,meters,jsons/VE125_randls_56.json,666096,787685,32,Man
81,181744,DepthScenes,duration_manipulation_targetAtFixation,jsons/VE125_randls_56.json,http://54.235.29.9/FacialAge/BNav_EC2/DepthDuration/v2_depth_duration_MTurk/v2_DepthDuration_HTML.html#382,382,1366,768,1366,768,8-29-2022,10-44-21,82,depth_duration_stimuli/000502_2014-06-08_23-02-32_260595134347_rgbf000063-resize_4/000502_2014-06-08_23-02-32_260595134347_rgbf000063-resize_4-target.png,125,2.431,6,2682,124,meters,jsons/VE125_randls_56.json,666096,787685,32,Man
82,181744,DepthScenes,duration_manipulation_targetAtFixation,jsons/VE125_randls_56.json,http://54.235.29.9/FacialAge/BNav_EC2/DepthDuration/v2_depth_duration_MTurk/v2_DepthDuration_HTML.html#382,382,1366,768,1366,768,8-29-2022,10-44-21,83,depth_duration_stimuli/002630_2014-06-24_14-47-50_094959634447_rgbf000055-resize_1/002630_2014-06-24_14-47-50_094959634447_rgbf000055-resize_1-target.png,125,3.0095,6,3243,126,meters,jsons/VE125_randls_56.json,666096,787685,32,Man
83,181744,DepthScenes,duration_manipulation_targetAtFixation,jsons/VE125_randls_56.json,http://54.235.29.9/FacialAge/BNav_EC2/DepthDuration/v2_depth_duration_MTurk/v2_DepthDuration_HTML.html#382,382,1366,768,1366,768,8-29-2022,10-44-21,84,depth_duration_stimuli/002758_2014-06-22_19-11-20_094959634447_rgbf000128-resize_1/002758_2014-06-22_19-11-20_094959634447_rgbf000128-resize_1-target.png,125,2.555,6,5824,123,meters,jsons/VE125_randls_56.json,666096,787685,32,Man
84,181744,DepthScenes,duration_manipulation_targetAtFixation,jsons/VE125_randls_56.json,http://54.235.29.9/FacialAge/BNav_EC2/DepthDuration/v2_depth_duration_MTurk/v2_DepthDuration_HTML.html#382,382,1366,768,1366,768,8-29-2022,10-44-21,85,depth_duration_stimuli/001806_2014-06-26_20-50-20_260595134347_rgbf000091-resize_1/001806_2014-06-26_20-50-20_260595134347_rgbf000091-resize_1-target.png,125,2.7305,5,3617,128,meters,jsons/VE125_randls_56.json,666096,787685,32,Man
85,181744,DepthScenes,duration_manipulation_targetAtFixation,jsons/VE125_randls_56.json,http://54.235.29.9/FacialAge/BNav_EC2/DepthDuration/v2_depth_duration_MTurk/v2_DepthDuration_HTML.html#382,382,1366,768,1366,768,8-29-2022,10-44-21,86,depth_duration_stimuli/001617_2014-06-20_11-35-32_260595134347_rgbf000066-resize_1/001617_2014-06-20_11-35-32_260595134347_rgbf000066-resize_1-target.png,125,3.7910000000000004,6,2477,122,meters,jsons/VE125_randls_56.json,666096,787685,32,Man
86,181744,DepthScenes,duration_manipulation_targetAtFixation,jsons/VE125_randls_56.json,http://54.235.29.9/FacialAge/BNav_EC2/DepthDuration/v2_depth_duration_MTurk/v2_DepthDuration_HTML.html#382,382,1366,768,1366,768,8-29-2022,10-44-21,87,depth_duration_stimuli/001056_2014-06-08_18-46-44_260595134347_rgbf000068-resize_0/001056_2014-06-08_18-46-44_260595134347_rgbf000068-resize_0-target.png,125,2.6625,6,5535,123,meters,jsons/VE125_randls_56.json,666096,787685,32,Man
87,181744,DepthScenes,duration_manipulation_targetAtFixation,jsons/VE125_randls_56.json,http://54.235.29.9/FacialAge/BNav_EC2/DepthDuration/v2_depth_duration_MTurk/v2_DepthDuration_HTML.html#382,382,1366,768,1366,768,8-29-2022,10-44-21,88,depth_duration_stimuli/002199_2014-06-28_18-33-56_260595134347_rgbf000074-resize_0/002199_2014-06-28_18-33-56_260595134347_rgbf000074-resize_0-target.png,125,1.996,7,2970,112,meters,jsons/VE125_randls_56.json,666096,787685,32,Man
88,181744,DepthScenes,duration_manipulation_targetAtFixation,jsons/VE125_randls_56.json,http://54.235.29.9/FacialAge/BNav_EC2/DepthDuration/v2_depth_duration_MTurk/v2_DepthDuration_HTML.html#382,382,1366,768,1366,768,8-29-2022,10-44-21,89,depth_duration_stimuli/002549_2014-06-24_13-41-39_094959634447_rgbf000022-resize_3/002549_2014-06-24_13-41-39_094959634447_rgbf000022-resize_3-target.png,125,1.476,5,3340,135,meters,jsons/VE125_randls_56.json,666096,787685,32,Man
89,181744,DepthScenes,duration_manipulation_targetAtFixation,jsons/VE125_randls_56.json,http://54.235.29.9/FacialAge/BNav_EC2/DepthDuration/v2_depth_duration_MTurk/v2_DepthDuration_HTML.html#382,382,1366,768,1366,768,8-29-2022,10-44-21,90,depth_duration_stimuli/002750_2014-06-22_19-08-03_094959634447_rgbf000094-resize_4/002750_2014-06-22_19-08-03_094959634447_rgbf000094-resize_4-target.png,125,2.354,6,3132,132,meters,jsons/VE125_randls_56.json,666096,787685,32,Man
90,181744,DepthScenes,duration_manipulation_targetAtFixation,jsons/VE125_randls_56.json,http://54.235.29.9/FacialAge/BNav_EC2/DepthDuration/v2_depth_duration_MTurk/v2_DepthDuration_HTML.html#382,382,1366,768,1366,768,8-29-2022,10-44-21,91,depth_duration_stimuli/002748_2014-06-22_19-07-22_094959634447_rgbf000078-resize_1/002748_2014-06-22_19-07-22_094959634447_rgbf000078-resize_1-target.png,125,4.6705,7,3077,123,meters,jsons/VE125_randls_56.json,666096,787685,32,Man
91,181744,DepthScenes,duration_manipulation_targetAtFixation,jsons/VE125_randls_56.json,http://54.235.29.9/FacialAge/BNav_EC2/DepthDuration/v2_depth_duration_MTurk/v2_DepthDuration_HTML.html#382,382,1366,768,1366,768,8-29-2022,10-44-21,92,depth_duration_stimuli/002995_2014-06-15_12-31-26_094959634447_rgbf000150-resize_1/002995_2014-06-15_12-31-26_094959634447_rgbf000150-resize_1-target.png,125,3.8360000000000003,8,2410,127,meters,jsons/VE125_randls_56.json,666096,787685,32,Man
92,181744,DepthScenes,duration_manipulation_targetAtFixation,jsons/VE125_randls_56.json,http://54.235.29.9/FacialAge/BNav_EC2/DepthDuration/v2_depth_duration_MTurk/v2_DepthDuration_HTML.html#382,382,1366,768,1366,768,8-29-2022,10-44-21,93,depth_duration_stimuli/001011_2014-06-08_23-18-54_260595134347_rgbf000044-resize_4/001011_2014-06-08_23-18-54_260595134347_rgbf000044-resize_4-target.png,125,2.4730000000000003,8,2916,130,meters,jsons/VE125_randls_56.json,666096,787685,32,Man
93,181744,DepthScenes,duration_manipulation_targetAtFixation,jsons/VE125_randls_56.json,http://54.235.29.9/FacialAge/BNav_EC2/DepthDuration/v2_depth_duration_MTurk/v2_DepthDuration_HTML.html#382,382,1366,768,1366,768,8-29-2022,10-44-21,94,depth_duration_stimuli/002875_2014-06-01_15-19-00_094959634447_rgbf000151-resize_1/002875_2014-06-01_15-19-00_094959634447_rgbf000151-resize_1-target.png,125,1.9675,6,2716,129,meters,jsons/VE125_randls_56.json,666096,787685,32,Man
94,181744,DepthScenes,duration_manipulation_targetAtFixation,jsons/VE125_randls_56.json,http://54.235.29.9/FacialAge/BNav_EC2/DepthDuration/v2_depth_duration_MTurk/v2_DepthDuration_HTML.html#382,382,1366,768,1366,768,8-29-2022,10-44-21,95,depth_duration_stimuli/003070_2014-06-15_14-58-27_094959634447_rgbf000150-resize_3/003070_2014-06-15_14-58-27_094959634447_rgbf000150-resize_3-target.png,125,2.9415,7,2758,125,meters,jsons/VE125_randls_56.json,666096,787685,32,Man
95,181744,DepthScenes,duration_manipulation_targetAtFixation,jsons/VE125_randls_56.json,http://54.235.29.9/FacialAge/BNav_EC2/DepthDuration/v2_depth_duration_MTurk/v2_DepthDuration_HTML.html#382,382,1366,768,1366,768,8-29-2022,10-44-21,96,depth_duration_stimuli/000943_2014-06-09_19-31-07_260595134347_rgbf000128-resize_1/000943_2014-06-09_19-31-07_260595134347_rgbf000128-resize_1-target.png,125,1.9765,6,2566,123,meters,jsons/VE125_randls_56.json,666096,787685,32,Man
96,181744,DepthScenes,duration_manipulation_targetAtFixation,jsons/VE125_randls_56.json,http://54.235.29.9/FacialAge/BNav_EC2/DepthDuration/v2_depth_duration_MTurk/v2_DepthDuration_HTML.html#382,382,1366,768,1366,768,8-29-2022,10-44-21,97,depth_duration_stimuli/002989_2014-06-15_12-25-03_094959634447_rgbf000150-resize_3/002989_2014-06-15_12-25-03_094959634447_rgbf000150-resize_3-target.png,125,4.1975,8,3665,124,meters,jsons/VE125_randls_56.json,666096,787685,32,Man
97,181744,DepthScenes,duration_manipulation_targetAtFixation,jsons/VE125_randls_56.json,http://54.235.29.9/FacialAge/BNav_EC2/DepthDuration/v2_depth_duration_MTurk/v2_DepthDuration_HTML.html#382,382,1366,768,1366,768,8-29-2022,10-44-21,98,depth_duration_stimuli/000866_2014-06-09_20-45-42_260595134347_rgbf000139-resize_1/000866_2014-06-09_20-45-42_260595134347_rgbf000139-resize_1-target.png,125,3.2155,6,3883,124,meters,jsons/VE125_randls_56.json,666096,787685,32,Man
98,181744,DepthScenes,duration_manipulation_targetAtFixation,jsons/VE125_randls_56.json,http://54.235.29.9/FacialAge/BNav_EC2/DepthDuration/v2_depth_duration_MTurk/v2_DepthDuration_HTML.html#382,382,1366,768,1366,768,8-29-2022,10-44-21,99,depth_duration_stimuli/001540_2014-06-20_17-01-05_260595134347_rgbf000086-resize_2/001540_2014-06-20_17-01-05_260595134347_rgbf000086-resize-original.jpg,125,1.459,10,2802,124,meters,jsons/VE125_randls_56.json,666096,787685,32,Man
99,181744,DepthScenes,duration_manipulation_targetAtFixation,jsons/VE125_randls_56.json,http://54.235.29.9/FacialAge/BNav_EC2/DepthDuration/v2_depth_duration_MTurk/v2_DepthDuration_HTML.html#382,382,1366,768,1366,768,8-29-2022,10-44-21,100,depth_duration_stimuli/002279_2014-06-28_18-55-32_260595134347_rgbf000040-resize_5/002279_2014-06-28_18-55-32_260595134347_rgbf000040-resize_5-target.png,125,1.5043333333333,4,3610,126,meters,jsons/VE125_randls_56.json,666096,787685,32,Man
100,181744,DepthScenes,duration_manipulation_targetAtFixation,jsons/VE125_randls_56.json,http://54.235.29.9/FacialAge/BNav_EC2/DepthDuration/v2_depth_duration_MTurk/v2_DepthDuration_HTML.html#382,382,1366,768,1366,768,8-29-2022,10-44-21,101,depth_duration_stimuli/000635_2014-06-08_16-38-42_260595134347_rgbf000106-resize_1/000635_2014-06-08_16-38-42_260595134347_rgbf000106-resize_1-target.png,125,2.074,5,3702,124,meters,jsons/VE125_randls_56.json,666096,787685,32,Man
101,181744,DepthScenes,duration_manipulation_targetAtFixation,jsons/VE125_randls_56.json,http://54.235.29.9/FacialAge/BNav_EC2/DepthDuration/v2_depth_duration_MTurk/v2_DepthDuration_HTML.html#382,382,1366,768,1366,768,8-29-2022,10-44-21,102,depth_duration_stimuli/001164_2014-06-17_15-35-46_260595134347_rgbf000085-resize_3/001164_2014-06-17_15-35-46_260595134347_rgbf000085-resize_3-target.png,125,2.354,6,2616,129,meters,jsons/VE125_randls_56.json,666096,787685,32,Man
102,181744,DepthScenes,duration_manipulation_targetAtFixation,jsons/VE125_randls_56.json,http://54.235.29.9/FacialAge/BNav_EC2/DepthDuration/v2_depth_duration_MTurk/v2_DepthDuration_HTML.html#382,382,1366,768,1366,768,8-29-2022,10-44-21,103,depth_duration_stimuli/001136_2014-06-17_15-19-41_260595134347_rgbf000076-resize_3/001136_2014-06-17_15-19-41_260595134347_rgbf000076-resize_3-target.png,125,1.8655,5,2721,126,meters,jsons/VE125_randls_56.json,666096,787685,32,Man
103,181744,DepthScenes,duration_manipulation_targetAtFixation,jsons/VE125_randls_56.json,http://54.235.29.9/FacialAge/BNav_EC2/DepthDuration/v2_depth_duration_MTurk/v2_DepthDuration_HTML.html#382,382,1366,768,1366,768,8-29-2022,10-44-21,104,depth_duration_stimuli/000682_2014-06-08_23-14-58_260595134347_rgbf000041-resize_5/000682_2014-06-08_23-14-58_260595134347_rgbf000041-resize_5-target.png,125,2.7239999999999998,6,3049,126,meters,jsons/VE125_randls_56.json,666096,787685,32,Man
104,181744,DepthScenes,duration_manipulation_targetAtFixation,jsons/VE125_randls_56.json,http://54.235.29.9/FacialAge/BNav_EC2/DepthDuration/v2_depth_duration_MTurk/v2_DepthDuration_HTML.html#382,382,1366,768,1366,768,8-29-2022,10-44-21,105,depth_duration_stimuli/001650_2014-06-20_12-09-00_260595134347_rgbf000087-resize_3/001650_2014-06-20_12-09-00_260595134347_rgbf000087-resize_3-target.png,125,1.9505,7,2747,125,meters,jsons/VE125_randls_56.json,666096,787685,32,Man
105,181744,DepthScenes,duration_manipulation_targetAtFixation,jsons/VE125_randls_56.json,http://54.235.29.9/FacialAge/BNav_EC2/DepthDuration/v2_depth_duration_MTurk/v2_DepthDuration_HTML.html#382,382,1366,768,1366,768,8-29-2022,10-44-21,106,depth_duration_stimuli/001150_2014-06-17_15-27-34_260595134347_rgbf000108-resize_2/001150_2014-06-17_15-27-34_260595134347_rgbf000108-resize_2-target.png,125,4.0325,6,3007,124,meters,jsons/VE125_randls_56.json,666096,787685,32,Man
106,181744,DepthScenes,duration_manipulation_targetAtFixation,jsons/VE125_randls_56.json,http://54.235.29.9/FacialAge/BNav_EC2/DepthDuration/v2_depth_duration_MTurk/v2_DepthDuration_HTML.html#382,382,1366,768,1366,768,8-29-2022,10-44-21,107,depth_duration_stimuli/000665_2014-06-09_20-42-35_260595134347_rgbf000110-resize_1/000665_2014-06-09_20-42-35_260595134347_rgbf000110-resize_1-target.png,125,3.057,5,2482,124,meters,jsons/VE125_randls_56.json,666096,787685,32,Man
107,181744,DepthScenes,duration_manipulation_targetAtFixation,jsons/VE125_randls_56.json,http://54.235.29.9/FacialAge/BNav_EC2/DepthDuration/v2_depth_duration_MTurk/v2_DepthDuration_HTML.html#382,382,1366,768,1366,768,8-29-2022,10-44-21,108,depth_duration_stimuli/001175_2014-06-17_15-45-55_260595134347_rgbf000129-resize_4/001175_2014-06-17_15-45-55_260595134347_rgbf000129-resize_4-target.png,125,4.255,8,3167,130,meters,jsons/VE125_randls_56.json,666096,787685,32,Man
108,181744,DepthScenes,duration_manipulation_targetAtFixation,jsons/VE125_randls_56.json,http://54.235.29.9/FacialAge/BNav_EC2/DepthDuration/v2_depth_duration_MTurk/v2_DepthDuration_HTML.html#382,382,1366,768,1366,768,8-29-2022,10-44-21,109,depth_duration_stimuli/003490_2014-05-21_15-50-11_094959634447_rgbf000101-resize_3/003490_2014-05-21_15-50-11_094959634447_rgbf000101-resize_3-target.png,125,3.6445,6,2593,123,meters,jsons/VE125_randls_56.json,666096,787685,32,Man
109,181744,DepthScenes,duration_manipulation_targetAtFixation,jsons/VE125_randls_56.json,http://54.235.29.9/FacialAge/BNav_EC2/DepthDuration/v2_depth_duration_MTurk/v2_DepthDuration_HTML.html#382,382,1366,768,1366,768,8-29-2022,10-44-21,110,depth_duration_stimuli/001244_2014-06-17_16-47-45_260595134347_rgbf000030-resize_4/001244_2014-06-17_16-47-45_260595134347_rgbf000030-resize_4-target.png,125,2.0425,5,3073,124,meters,jsons/VE125_randls_56.json,666096,787685,32,Man
110,181744,DepthScenes,duration_manipulation_targetAtFixation,jsons/VE125_randls_56.json,http://54.235.29.9/FacialAge/BNav_EC2/DepthDuration/v2_depth_duration_MTurk/v2_DepthDuration_HTML.html#382,382,1366,768,1366,768,8-29-2022,10-44-21,111,depth_duration_stimuli/003495_2014-05-21_16-01-51_094959634447_rgbf000100-resize_3/003495_2014-05-21_16-01-51_094959634447_rgbf000100-resize_3-target.png,125,1.6255,4,2996,127,meters,jsons/VE125_randls_56.json,666096,787685,32,Man
111,181744,DepthScenes,duration_manipulation_targetAtFixation,jsons/VE125_randls_56.json,http://54.235.29.9/FacialAge/BNav_EC2/DepthDuration/v2_depth_duration_MTurk/v2_DepthDuration_HTML.html#382,382,1366,768,1366,768,8-29-2022,10-44-21,112,depth_duration_stimuli/000773_2014-06-08_22-24-54_260595134347_rgbf000093-resize_1/000773_2014-06-08_22-24-54_260595134347_rgbf000093-resize_1-target.png,125,4.973,6,3323,126,meters,jsons/VE125_randls_56.json,666096,787685,32,Man
112,181744,DepthScenes,duration_manipulation_targetAtFixation,jsons/VE125_randls_56.json,http://54.235.29.9/FacialAge/BNav_EC2/DepthDuration/v2_depth_duration_MTurk/v2_DepthDuration_HTML.html#382,382,1366,768,1366,768,8-29-2022,10-44-21,113,depth_duration_stimuli/002414_2014-06-28_20-24-58_260595134347_rgbf000067-resize_4/002414_2014-06-28_20-24-58_260595134347_rgbf000067-resize_4-target.png,125,4.363,5,2707,123,meters,jsons/VE125_randls_56.json,666096,787685,32,Man
113,181744,DepthScenes,duration_manipulation_targetAtFixation,jsons/VE125_randls_56.json,http://54.235.29.9/FacialAge/BNav_EC2/DepthDuration/v2_depth_duration_MTurk/v2_DepthDuration_HTML.html#382,382,1366,768,1366,768,8-29-2022,10-44-21,114,depth_duration_stimuli/000736_2014-06-08_18-24-15_260595134347_rgbf000206-resize_3/000736_2014-06-08_18-24-15_260595134347_rgbf000206-resize_3-target.png,125,3.515,6,2348,125,meters,jsons/VE125_randls_56.json,666096,787685,32,Man
114,181744,DepthScenes,duration_manipulation_targetAtFixation,jsons/VE125_randls_56.json,http://54.235.29.9/FacialAge/BNav_EC2/DepthDuration/v2_depth_duration_MTurk/v2_DepthDuration_HTML.html#382,382,1366,768,1366,768,8-29-2022,10-44-21,115,depth_duration_stimuli/000137_2014-05-20_17-04-49_260595134347_rgbf000120-resize_1/000137_2014-05-20_17-04-49_260595134347_rgbf000120-resize_1-target.png,125,3.786,6,2736,124,meters,jsons/VE125_randls_56.json,666096,787685,32,Man
115,181744,DepthScenes,duration_manipulation_targetAtFixation,jsons/VE125_randls_56.json,http://54.235.29.9/FacialAge/BNav_EC2/DepthDuration/v2_depth_duration_MTurk/v2_DepthDuration_HTML.html#382,382,1366,768,1366,768,8-29-2022,10-44-21,116,depth_duration_stimuli/001170_2014-06-17_15-43-44_260595134347_rgbf000096-resize_6/001170_2014-06-17_15-43-44_260595134347_rgbf000096-resize-original.jpg,125,1.1909999999999998,0,8644,120,meters,jsons/VE125_randls_56.json,666096,787685,32,Man
116,181744,DepthScenes,duration_manipulation_targetAtFixation,jsons/VE125_randls_56.json,http://54.235.29.9/FacialAge/BNav_EC2/DepthDuration/v2_depth_duration_MTurk/v2_DepthDuration_HTML.html#382,382,1366,768,1366,768,8-29-2022,10-44-21,117,depth_duration_stimuli/001092_2014-06-15_17-34-58_260595134347_rgbf000171-resize_3/001092_2014-06-15_17-34-58_260595134347_rgbf000171-resize_3-target.png,125,2.6935,5,2882,118,meters,jsons/VE125_randls_56.json,666096,787685,32,Man
117,181744,DepthScenes,duration_manipulation_targetAtFixation,jsons/VE125_randls_56.json,http://54.235.29.9/FacialAge/BNav_EC2/DepthDuration/v2_depth_duration_MTurk/v2_DepthDuration_HTML.html#382,382,1366,768,1366,768,8-29-2022,10-44-21,118,depth_duration_stimuli/002545_2014-06-24_13-38-53_094959634447_rgbf000080-resize_4/002545_2014-06-24_13-38-53_094959634447_rgbf000080-resize_4-target.png,125,1.9205,5,2302,125,meters,jsons/VE125_randls_56.json,666096,787685,32,Man
118,181744,DepthScenes,duration_manipulation_targetAtFixation,jsons/VE125_randls_56.json,http://54.235.29.9/FacialAge/BNav_EC2/DepthDuration/v2_depth_duration_MTurk/v2_DepthDuration_HTML.html#382,382,1366,768,1366,768,8-29-2022,10-44-21,119,depth_duration_stimuli/002788_2014-06-22_19-36-03_094959634447_rgbf000088-resize_2/002788_2014-06-22_19-36-03_094959634447_rgbf000088-resize_2-target.png,125,1.6465,4,2002,127,meters,jsons/VE125_randls_56.json,666096,787685,32,Man
119,181744,DepthScenes,duration_manipulation_targetAtFixation,jsons/VE125_randls_56.json,http://54.235.29.9/FacialAge/BNav_EC2/DepthDuration/v2_depth_duration_MTurk/v2_DepthDuration_HTML.html#382,382,1366,768,1366,768,8-29-2022,10-44-21,120,depth_duration_stimuli/000749_2014-06-08_21-55-06_260595134347_rgbf000070-resize_2/000749_2014-06-08_21-55-06_260595134347_rgbf000070-resize_2-target.png,125,2.331,6,2167,125,meters,jsons/VE125_randls_56.json,666096,787685,32,Man
120,181744,DepthScenes,duration_manipulation_targetAtFixation,jsons/VE125_randls_56.json,http://54.235.29.9/FacialAge/BNav_EC2/DepthDuration/v2_depth_duration_MTurk/v2_DepthDuration_HTML.html#382,382,1366,768,1366,768,8-29-2022,10-44-21,121,depth_duration_stimuli/002988_2014-06-15_12-24-20_094959634447_rgbf000150-resize_1/002988_2014-06-15_12-24-20_094959634447_rgbf000150-resize_1-target.png,125,4.7669999999999995,8,2209,124,meters,jsons/VE125_randls_56.json,666096,787685,32,Man
121,181744,DepthScenes,duration_manipulation_targetAtFixation,jsons/VE125_randls_56.json,http://54.235.29.9/FacialAge/BNav_EC2/DepthDuration/v2_depth_duration_MTurk/v2_DepthDuration_HTML.html#382,382,1366,768,1366,768,8-29-2022,10-44-21,122,depth_duration_stimuli/001052_2014-06-08_18-24-54_260595134347_rgbf000130-resize_1/001052_2014-06-08_18-24-54_260595134347_rgbf000130-resize_1-target.png,125,4.1045,8,2397,127,meters,jsons/VE125_randls_56.json,666096,787685,32,Man
122,181744,DepthScenes,duration_manipulation_targetAtFixation,jsons/VE125_randls_56.json,http://54.235.29.9/FacialAge/BNav_EC2/DepthDuration/v2_depth_duration_MTurk/v2_DepthDuration_HTML.html#382,382,1366,768,1366,768,8-29-2022,10-44-21,123,depth_duration_stimuli/000739_2014-06-08_18-45-58_260595134347_rgbf000068-resize_1/000739_2014-06-08_18-45-58_260595134347_rgbf000068-resize_1-target.png,125,3.534,5,2013,124,meters,jsons/VE125_randls_56.json,666096,787685,32,Man
123,181744,DepthScenes,duration_manipulation_targetAtFixation,jsons/VE125_randls_56.json,http://54.235.29.9/FacialAge/BNav_EC2/DepthDuration/v2_depth_duration_MTurk/v2_DepthDuration_HTML.html#382,382,1366,768,1366,768,8-29-2022,10-44-21,124,depth_duration_stimuli/000734_2014-06-08_17-39-11_260595134347_rgbf000128-resize_2/000734_2014-06-08_17-39-11_260595134347_rgbf000128-resize_2-target.png,125,4.098,8,3342,116,meters,jsons/VE125_randls_56.json,666096,787685,32,Man
124,181744,DepthScenes,duration_manipulation_targetAtFixation,jsons/VE125_randls_56.json,http://54.235.29.9/FacialAge/BNav_EC2/DepthDuration/v2_depth_duration_MTurk/v2_DepthDuration_HTML.html#382,382,1366,768,1366,768,8-29-2022,10-44-21,125,depth_duration_stimuli/002600_2014-06-24_14-27-04_094959634447_rgbf000074-resize_2/002600_2014-06-24_14-27-04_094959634447_rgbf000074-resize_2-target.png,125,2.7575,8,2109,126,meters,jsons/VE125_randls_56.json,666096,787685,32,Man
125,181744,DepthScenes,duration_manipulation_targetAtFixation,jsons/VE125_randls_56.json,http://54.235.29.9/FacialAge/BNav_EC2/DepthDuration/v2_depth_duration_MTurk/v2_DepthDuration_HTML.html#382,382,1366,768,1366,768,8-29-2022,10-44-21,126,depth_duration_stimuli/003228_2014-05-14_13-42-35_094959634447_rgbf000101-resize_1/003228_2014-05-14_13-42-35_094959634447_rgbf000101-resize_1-target.png,125,1.9680000000000002,4,2387,125,meters,jsons/VE125_randls_56.json,666096,787685,32,Man
126,181744,DepthScenes,duration_manipulation_targetAtFixation,jsons/VE125_randls_56.json,http://54.235.29.9/FacialAge/BNav_EC2/DepthDuration/v2_depth_duration_MTurk/v2_DepthDuration_HTML.html#382,382,1366,768,1366,768,8-29-2022,10-44-21,127,depth_duration_stimuli/002663_2014-06-13_15-50-26_094959634447_rgbf000075-resize_1/002663_2014-06-13_15-50-26_094959634447_rgbf000075-resize_1-target.png,125,4.7495,6,2286,126,meters,jsons/VE125_randls_56.json,666096,787685,32,Man
127,181744,DepthScenes,duration_manipulation_targetAtFixation,jsons/VE125_randls_56.json,http://54.235.29.9/FacialAge/BNav_EC2/DepthDuration/v2_depth_duration_MTurk/v2_DepthDuration_HTML.html#382,382,1366,768,1366,768,8-29-2022,10-44-21,128,depth_duration_stimuli/000409_2014-06-04_19-23-33_260595134347_rgbf000067-resize_0/000409_2014-06-04_19-23-33_260595134347_rgbf000067-resize_0-target.png,125,3.7335,5,3158,126,meters,jsons/VE125_randls_56.json,666096,787685,32,Man
128,181744,DepthScenes,duration_manipulation_targetAtFixation,jsons/VE125_randls_56.json,http://54.235.29.9/FacialAge/BNav_EC2/DepthDuration/v2_depth_duration_MTurk/v2_DepthDuration_HTML.html#382,382,1366,768,1366,768,8-29-2022,10-44-21,129,depth_duration_stimuli/001449_2014-06-19_17-01-27_260595134347_rgbf000116-resize_2/001449_2014-06-19_17-01-27_260595134347_rgbf000116-resize_2-target.png,125,3.452,8,2269,125,meters,jsons/VE125_randls_56.json,666096,787685,32,Man
129,181744,DepthScenes,duration_manipulation_targetAtFixation,jsons/VE125_randls_56.json,http://54.235.29.9/FacialAge/BNav_EC2/DepthDuration/v2_depth_duration_MTurk/v2_DepthDuration_HTML.html#382,382,1366,768,1366,768,8-29-2022,10-44-21,130,depth_duration_stimuli/001450_2014-06-19_17-02-03_260595134347_rgbf000203-resize_4/001450_2014-06-19_17-02-03_260595134347_rgbf000203-resize_4-target.png,125,4.0106666666667,6,2532,126,meters,jsons/VE125_randls_56.json,666096,787685,32,Man
130,181744,DepthScenes,duration_manipulation_targetAtFixation,jsons/VE125_randls_56.json,http://54.235.29.9/FacialAge/BNav_EC2/DepthDuration/v2_depth_duration_MTurk/v2_DepthDuration_HTML.html#382,382,1366,768,1366,768,8-29-2022,10-44-21,131,depth_duration_stimuli/002570_2014-06-24_13-59-54_094959634447_rgbf000059-resize_0/002570_2014-06-24_13-59-54_094959634447_rgbf000059-resize_0-target.png,125,4.037,8,3113,125,meters,jsons/VE125_randls_56.json,666096,787685,32,Man
131,181744,DepthScenes,duration_manipulation_targetAtFixation,jsons/VE125_randls_56.json,http://54.235.29.9/FacialAge/BNav_EC2/DepthDuration/v2_depth_duration_MTurk/v2_DepthDuration_HTML.html#382,382,1366,768,1366,768,8-29-2022,10-44-21,132,depth_duration_stimuli/002467_2014-06-28_20-38-07_260595134347_rgbf000026-resize_2/002467_2014-06-28_20-38-07_260595134347_rgbf000026-resize_2-target.png,125,4.742,8,3254,126,meters,jsons/VE125_randls_56.json,666096,787685,32,Man
132,181744,DepthScenes,duration_manipulation_targetAtFixation,jsons/VE125_randls_56.json,http://54.235.29.9/FacialAge/BNav_EC2/DepthDuration/v2_depth_duration_MTurk/v2_DepthDuration_HTML.html#382,382,1366,768,1366,768,8-29-2022,10-44-21,133,depth_duration_stimuli/000506_2014-06-08_23-21-00_260595134347_rgbf000070-resize_7/000506_2014-06-08_23-21-00_260595134347_rgbf000070-resize_7-target.png,125,4.0585,6,2783,127,meters,jsons/VE125_randls_56.json,666096,787685,32,Man
133,181744,DepthScenes,duration_manipulation_targetAtFixation,jsons/VE125_randls_56.json,http://54.235.29.9/FacialAge/BNav_EC2/DepthDuration/v2_depth_duration_MTurk/v2_DepthDuration_HTML.html#382,382,1366,768,1366,768,8-29-2022,10-44-21,134,depth_duration_stimuli/003079_2014-06-15_15-18-20_094959634447_rgbf000152-resize_8/003079_2014-06-15_15-18-20_094959634447_rgbf000152-resize_8-target.png,125,2.8775,8,2879,129,meters,jsons/VE125_randls_56.json,666096,787685,32,Man
134,181744,DepthScenes,duration_manipulation_targetAtFixation,jsons/VE125_randls_56.json,http://54.235.29.9/FacialAge/BNav_EC2/DepthDuration/v2_depth_duration_MTurk/v2_DepthDuration_HTML.html#382,382,1366,768,1366,768,8-29-2022,10-44-21,135,depth_duration_stimuli/002072_2014-06-24_21-48-06_260595134347_rgbf000115-resize_0/002072_2014-06-24_21-48-06_260595134347_rgbf000115-resize-original.jpg,125,4.702,0,2788,125,meters,jsons/VE125_randls_56.json,666096,787685,32,Man
135,181744,DepthScenes,duration_manipulation_targetAtFixation,jsons/VE125_randls_56.json,http://54.235.29.9/FacialAge/BNav_EC2/DepthDuration/v2_depth_duration_MTurk/v2_DepthDuration_HTML.html#382,382,1366,768,1366,768,8-29-2022,10-44-21,136,depth_duration_stimuli/000522_2014-06-08_13-35-06_260595134347_rgbf000244-resize_1/000522_2014-06-08_13-35-06_260595134347_rgbf000244-resize_1-target.png,125,2.3715,5,2597,126,meters,jsons/VE125_randls_56.json,666096,787685,32,Man
136,181744,DepthScenes,duration_manipulation_targetAtFixation,jsons/VE125_randls_56.json,http://54.235.29.9/FacialAge/BNav_EC2/DepthDuration/v2_depth_duration_MTurk/v2_DepthDuration_HTML.html#382,382,1366,768,1366,768,8-29-2022,10-44-21,137,depth_duration_stimuli/002949_2014-06-26_15-57-42_094959634447_rgbf000079-resize_1/002949_2014-06-26_15-57-42_094959634447_rgbf000079-resize_1-target.png,125,1.8915,6,2701,121,meters,jsons/VE125_randls_56.json,666096,787685,32,Man
137,181744,DepthScenes,duration_manipulation_targetAtFixation,jsons/VE125_randls_56.json,http://54.235.29.9/FacialAge/BNav_EC2/DepthDuration/v2_depth_duration_MTurk/v2_DepthDuration_HTML.html#382,382,1366,768,1366,768,8-29-2022,10-44-21,138,depth_duration_stimuli/000436_2014-06-09_22-25-11_260595134347_rgbf000137-resize_1/000436_2014-06-09_22-25-11_260595134347_rgbf000137-resize_1-target.png,125,4.0705,5,4541,127,meters,jsons/VE125_randls_56.json,666096,787685,32,Man
138,181744,DepthScenes,duration_manipulation_targetAtFixation,jsons/VE125_randls_56.json,http://54.235.29.9/FacialAge/BNav_EC2/DepthDuration/v2_depth_duration_MTurk/v2_DepthDuration_HTML.html#382,382,1366,768,1366,768,8-29-2022,10-44-21,139,depth_duration_stimuli/002444_2014-06-28_20-32-08_260595134347_rgbf000027-resize_0/002444_2014-06-28_20-32-08_260595134347_rgbf000027-resize_0-target.png,125,4.388999999999999,6,2875,131,meters,jsons/VE125_randls_56.json,666096,787685,32,Man
139,181744,DepthScenes,duration_manipulation_targetAtFixation,jsons/VE125_randls_56.json,http://54.235.29.9/FacialAge/BNav_EC2/DepthDuration/v2_depth_duration_MTurk/v2_DepthDuration_HTML.html#382,382,1366,768,1366,768,8-29-2022,10-44-21,140,depth_duration_stimuli/001570_2014-06-20_17-21-09_260595134347_rgbf000135-resize_4/001570_2014-06-20_17-21-09_260595134347_rgbf000135-resize_4-target.png,125,4.467,8,2356,129,meters,jsons/VE125_randls_56.json,666096,787685,32,Man
140,181744,DepthScenes,duration_manipulation_targetAtFixation,jsons/VE125_randls_56.json,http://54.235.29.9/FacialAge/BNav_EC2/DepthDuration/v2_depth_duration_MTurk/v2_DepthDuration_HTML.html#382,382,1366,768,1366,768,8-29-2022,10-44-21,141,depth_duration_stimuli/001392_2014-06-19_16-07-59_260595134347_rgbf000046-resize_1/001392_2014-06-19_16-07-59_260595134347_rgbf000046-resize_1-target.png,125,4.135,6,2476,127,meters,jsons/VE125_randls_56.json,666096,787685,32,Man
141,181744,DepthScenes,duration_manipulation_targetAtFixation,jsons/VE125_randls_56.json,http://54.235.29.9/FacialAge/BNav_EC2/DepthDuration/v2_depth_duration_MTurk/v2_DepthDuration_HTML.html#382,382,1366,768,1366,768,8-29-2022,10-44-21,142,depth_duration_stimuli/002043_2014-06-24_20-29-38_260595134347_rgbf000039-resize_4/002043_2014-06-24_20-29-38_260595134347_rgbf000039-resize_4-target.png,125,2.8435,5,1978,122,meters,jsons/VE125_randls_56.json,666096,787685,32,Man
142,181744,DepthScenes,duration_manipulation_targetAtFixation,jsons/VE125_randls_56.json,http://54.235.29.9/FacialAge/BNav_EC2/DepthDuration/v2_depth_duration_MTurk/v2_DepthDuration_HTML.html#382,382,1366,768,1366,768,8-29-2022,10-44-21,143,depth_duration_stimuli/003048_2014-06-15_13-49-43_094959634447_rgbf000150-resize_1/003048_2014-06-15_13-49-43_094959634447_rgbf000150-resize_1-target.png,125,4.0035,6,2117,121,meters,jsons/VE125_randls_56.json,666096,787685,32,Man
143,181744,DepthScenes,duration_manipulation_targetAtFixation,jsons/VE125_randls_56.json,http://54.235.29.9/FacialAge/BNav_EC2/DepthDuration/v2_depth_duration_MTurk/v2_DepthDuration_HTML.html#382,382,1366,768,1366,768,8-29-2022,10-44-21,144,depth_duration_stimuli/003621_2014-05-23_18-06-08_094959634447_rgbf000101-resize_1/003621_2014-05-23_18-06-08_094959634447_rgbf000101-resize_1-target.png,125,3.9835,4,2568,124,meters,jsons/VE125_randls_56.json,666096,787685,32,Man
144,181744,DepthScenes,duration_manipulation_targetAtFixation,jsons/VE125_randls_56.json,http://54.235.29.9/FacialAge/BNav_EC2/DepthDuration/v2_depth_duration_MTurk/v2_DepthDuration_HTML.html#382,382,1366,768,1366,768,8-29-2022,10-44-21,145,depth_duration_stimuli/001584_2014-06-20_11-07-43_260595134347_rgbf000002-resize_1/001584_2014-06-20_11-07-43_260595134347_rgbf000002-resize_1-target.png,125,3.53,6,4394,127,meters,jsons/VE125_randls_56.json,666096,787685,32,Man
145,181744,DepthScenes,duration_manipulation_targetAtFixation,jsons/VE125_randls_56.json,http://54.235.29.9/FacialAge/BNav_EC2/DepthDuration/v2_depth_duration_MTurk/v2_DepthDuration_HTML.html#382,382,1366,768,1366,768,8-29-2022,10-44-21,146,depth_duration_stimuli/001498_2014-06-19_17-45-14_260595134347_rgbf000129-resize_4/001498_2014-06-19_17-45-14_260595134347_rgbf000129-resize-original.jpg,125,1.4075,0,3033,123,meters,jsons/VE125_randls_56.json,666096,787685,32,Man
146,181744,DepthScenes,duration_manipulation_targetAtFixation,jsons/VE125_randls_56.json,http://54.235.29.9/FacialAge/BNav_EC2/DepthDuration/v2_depth_duration_MTurk/v2_DepthDuration_HTML.html#382,382,1366,768,1366,768,8-29-2022,10-44-21,147,depth_duration_stimuli/001066_2014-06-08_22-03-20_260595134347_rgbf000066-resize_4/001066_2014-06-08_22-03-20_260595134347_rgbf000066-resize_4-target.png,125,4.2330000000000005,5,2439,125,meters,jsons/VE125_randls_56.json,666096,787685,32,Man
147,181744,DepthScenes,duration_manipulation_targetAtFixation,jsons/VE125_randls_56.json,http://54.235.29.9/FacialAge/BNav_EC2/DepthDuration/v2_depth_duration_MTurk/v2_DepthDuration_HTML.html#382,382,1366,768,1366,768,8-29-2022,10-44-21,148,depth_duration_stimuli/000742_2014-06-08_18-48-09_260595134347_rgbf000164-resize_4/000742_2014-06-08_18-48-09_260595134347_rgbf000164-resize_4-target.png,125,4.632,6,2820,124,meters,jsons/VE125_randls_56.json,666096,787685,32,Man
148,181744,DepthScenes,duration_manipulation_targetAtFixation,jsons/VE125_randls_56.json,http://54.235.29.9/FacialAge/BNav_EC2/DepthDuration/v2_depth_duration_MTurk/v2_DepthDuration_HTML.html#382,382,1366,768,1366,768,8-29-2022,10-44-21,149,depth_duration_stimuli/002725_2014-06-22_11-47-51_094959634447_rgbf000070-resize_1/002725_2014-06-22_11-47-51_094959634447_rgbf000070-resize_1-target.png,125,2.195,4,3055,113,meters,jsons/VE125_randls_56.json,666096,787685,32,Man
149,181744,DepthScenes,duration_manipulation_targetAtFixation,jsons/VE125_randls_56.json,http://54.235.29.9/FacialAge/BNav_EC2/DepthDuration/v2_depth_duration_MTurk/v2_DepthDuration_HTML.html#382,382,1366,768,1366,768,8-29-2022,10-44-21,150,depth_duration_stimuli/002344_2014-06-28_20-06-29_260595134347_rgbf000030-resize_1/002344_2014-06-28_20-06-29_260595134347_rgbf000030-resize_1-target.png,125,1.5795,6,9485,125,meters,jsons/VE125_randls_56.json,666096,787685,32,Man
150,181744,DepthScenes,duration_manipulation_targetAtFixation,jsons/VE125_randls_56.json,http://54.235.29.9/FacialAge/BNav_EC2/DepthDuration/v2_depth_duration_MTurk/v2_DepthDuration_HTML.html#382,382,1366,768,1366,768,8-29-2022,10-44-21,151,depth_duration_stimuli/002509_2014-06-24_13-19-22_094959634447_rgbf000077-resize_0/002509_2014-06-24_13-19-22_094959634447_rgbf000077-resize_0-target.png,125,1.3065,5,2858,128,meters,jsons/VE125_randls_56.json,666096,787685,32,Man
151,181744,DepthScenes,duration_manipulation_targetAtFixation,jsons/VE125_randls_56.json,http://54.235.29.9/FacialAge/BNav_EC2/DepthDuration/v2_depth_duration_MTurk/v2_DepthDuration_HTML.html#382,382,1366,768,1366,768,8-29-2022,10-44-21,152,depth_duration_stimuli/003338_2014-05-20_11-01-23_094959634447_rgbf000051-resize_6/003338_2014-05-20_11-01-23_094959634447_rgbf000051-resize_6-target.png,125,1.693,4,3693,123,meters,jsons/VE125_randls_56.json,666096,787685,32,Man
152,181744,DepthScenes,duration_manipulation_targetAtFixation,jsons/VE125_randls_56.json,http://54.235.29.9/FacialAge/BNav_EC2/DepthDuration/v2_depth_duration_MTurk/v2_DepthDuration_HTML.html#382,382,1366,768,1366,768,8-29-2022,10-44-21,153,depth_duration_stimuli/001808_2014-06-26_20-50-58_260595134347_rgbf000029-resize_1/001808_2014-06-26_20-50-58_260595134347_rgbf000029-resize_1-target.png,125,4.249,5,4532,124,meters,jsons/VE125_randls_56.json,666096,787685,32,Man
153,181744,DepthScenes,duration_manipulation_targetAtFixation,jsons/VE125_randls_56.json,http://54.235.29.9/FacialAge/BNav_EC2/DepthDuration/v2_depth_duration_MTurk/v2_DepthDuration_HTML.html#382,382,1366,768,1366,768,8-29-2022,10-44-21,154,depth_duration_stimuli/001815_2014-06-26_20-52-55_260595134347_rgbf000020-resize_0/001815_2014-06-26_20-52-55_260595134347_rgbf000020-resize_0-target.png,125,3.3865,6,2240,126,meters,jsons/VE125_randls_56.json,666096,787685,32,Man
154,181744,DepthScenes,duration_manipulation_targetAtFixation,jsons/VE125_randls_56.json,http://54.235.29.9/FacialAge/BNav_EC2/DepthDuration/v2_depth_duration_MTurk/v2_DepthDuration_HTML.html#382,382,1366,768,1366,768,8-29-2022,10-44-21,155,depth_duration_stimuli/000368_2014-06-09_15-53-01_260595134347_rgbf000155-resize_2/000368_2014-06-09_15-53-01_260595134347_rgbf000155-resize_2-target.png,125,2.4859999999999998,5,2605,116,meters,jsons/VE125_randls_56.json,666096,787685,32,Man
155,181744,DepthScenes,duration_manipulation_targetAtFixation,jsons/VE125_randls_56.json,http://54.235.29.9/FacialAge/BNav_EC2/DepthDuration/v2_depth_duration_MTurk/v2_DepthDuration_HTML.html#382,382,1366,768,1366,768,8-29-2022,10-44-21,156,depth_duration_stimuli/002678_2014-06-13_16-15-32_094959634447_rgbf000151-resize_6/002678_2014-06-13_16-15-32_094959634447_rgbf000151-resize_6-target.png,125,2.1830000000000003,6,2472,126,meters,jsons/VE125_randls_56.json,666096,787685,32,Man
156,181744,DepthScenes,duration_manipulation_targetAtFixation,jsons/VE125_randls_56.json,http://54.235.29.9/FacialAge/BNav_EC2/DepthDuration/v2_depth_duration_MTurk/v2_DepthDuration_HTML.html#382,382,1366,768,1366,768,8-29-2022,10-44-21,157,depth_duration_stimuli/001417_2014-06-19_16-25-36_260595134347_rgbf000115-resize_5/001417_2014-06-19_16-25-36_260595134347_rgbf000115-resize_5-target.png,125,4.6255,6,2549,125,meters,jsons/VE125_randls_56.json,666096,787685,32,Man
157,181744,DepthScenes,duration_manipulation_targetAtFixation,jsons/VE125_randls_56.json,http://54.235.29.9/FacialAge/BNav_EC2/DepthDuration/v2_depth_duration_MTurk/v2_DepthDuration_HTML.html#382,382,1366,768,1366,768,8-29-2022,10-44-21,158,depth_duration_stimuli/003081_2014-06-15_15-19-16_094959634447_rgbf000150-resize_1/003081_2014-06-15_15-19-16_094959634447_rgbf000150-resize_1-target.png,125,3.9125,6,3029,135,meters,jsons/VE125_randls_56.json,666096,787685,32,Man
158,181744,DepthScenes,duration_manipulation_targetAtFixation,jsons/VE125_randls_56.json,http://54.235.29.9/FacialAge/BNav_EC2/DepthDuration/v2_depth_duration_MTurk/v2_DepthDuration_HTML.html#382,382,1366,768,1366,768,8-29-2022,10-44-21,159,depth_duration_stimuli/000810_2014-06-08_17-20-01_260595134347_rgbf000105-resize_0/000810_2014-06-08_17-20-01_260595134347_rgbf000105-resize_0-target.png,125,1.4865,6,3106,123,meters,jsons/VE125_randls_56.json,666096,787685,32,Man
159,181744,DepthScenes,duration_manipulation_targetAtFixation,jsons/VE125_randls_56.json,http://54.235.29.9/FacialAge/BNav_EC2/DepthDuration/v2_depth_duration_MTurk/v2_DepthDuration_HTML.html#382,382,1366,768,1366,768,8-29-2022,10-44-21,160,depth_duration_stimuli/001214_2014-06-17_16-13-55_260595134347_rgbf000111-resize_0/001214_2014-06-17_16-13-55_260595134347_rgbf000111-resize_0-target.png,125,2.6505,5,2686,124,meters,jsons/VE125_randls_56.json,666096,787685,32,Man
160,181744,DepthScenes,duration_manipulation_targetAtFixation,jsons/VE125_randls_56.json,http://54.235.29.9/FacialAge/BNav_EC2/DepthDuration/v2_depth_duration_MTurk/v2_DepthDuration_HTML.html#382,382,1366,768,1366,768,8-29-2022,10-44-21,161,depth_duration_stimuli/003534_2014-05-22_15-06-10_094959634447_rgbf000102-resize_4/003534_2014-05-22_15-06-10_094959634447_rgbf000102-resize_4-target.png,125,1.426,5,3001,119,meters,jsons/VE125_randls_56.json,666096,787685,32,Man
161,181744,DepthScenes,duration_manipulation_targetAtFixation,jsons/VE125_randls_56.json,http://54.235.29.9/FacialAge/BNav_EC2/DepthDuration/v2_depth_duration_MTurk/v2_DepthDuration_HTML.html#382,382,1366,768,1366,768,8-29-2022,10-44-21,162,depth_duration_stimuli/002637_2014-06-24_14-51-13_094959634447_rgbf000066-resize_4/002637_2014-06-24_14-51-13_094959634447_rgbf000066-resize_4-target.png,125,1.9955,5,3614,124,meters,jsons/VE125_randls_56.json,666096,787685,32,Man
162,181744,DepthScenes,duration_manipulation_targetAtFixation,jsons/VE125_randls_56.json,http://54.235.29.9/FacialAge/BNav_EC2/DepthDuration/v2_depth_duration_MTurk/v2_DepthDuration_HTML.html#382,382,1366,768,1366,768,8-29-2022,10-44-21,163,depth_duration_stimuli/000906_2014-06-08_13-35-43_260595134347_rgbf000155-resize_1/000906_2014-06-08_13-35-43_260595134347_rgbf000155-resize_1-target.png,125,2.8489999999999998,6,3108,125,meters,jsons/VE125_randls_56.json,666096,787685,32,Man
163,181744,DepthScenes,duration_manipulation_targetAtFixation,jsons/VE125_randls_56.json,http://54.235.29.9/FacialAge/BNav_EC2/DepthDuration/v2_depth_duration_MTurk/v2_DepthDuration_HTML.html#382,382,1366,768,1366,768,8-29-2022,10-44-21,164,depth_duration_stimuli/002805_2014-06-22_19-54-03_094959634447_rgbf000079-resize_1/002805_2014-06-22_19-54-03_094959634447_rgbf000079-resize_1-target.png,125,3.1439999999999997,7,2850,130,meters,jsons/VE125_randls_56.json,666096,787685,32,Man
