,subjID,experimentName,versionName,sequenceName,url,selected_row,windowWidth,windowHeight,screenWidth,screenHeight,startDate,startTime,trial,stimulus,duration,actual_depth,depth_estimate,trial_RT,log_sceneDuration,unitSelection,seq_filepath,experimentTime,totalTime,age,gender
0,182081,DepthScenes,duration_manipulation_targetAtFixation,jsons/v1_VE250_randls_72.json,http://54.235.29.9/FacialAge/BNav_EC2/DepthDuration/v2_depth_duration_MTurk/v2_DepthDuration_HTML.html#191,191,1366,768,1366,768,9-19-2022,13-59-33,1,depth_duration_stimuli/001449_2014-06-19_17-01-27_260595134347_rgbf000116-resize_2/001449_2014-06-19_17-01-27_260595134347_rgbf000116-resize_2-target.png,250,3.452,9,3065,257,feet,jsons/v1_VE250_randls_72.json,656519,1003497,39,Man
1,182081,DepthScenes,duration_manipulation_targetAtFixation,jsons/v1_VE250_randls_72.json,http://54.235.29.9/FacialAge/BNav_EC2/DepthDuration/v2_depth_duration_MTurk/v2_DepthDuration_HTML.html#191,191,1366,768,1366,768,9-19-2022,13-59-33,2,depth_duration_stimuli/001450_2014-06-19_17-02-03_260595134347_rgbf000203-resize_4/001450_2014-06-19_17-02-03_260595134347_rgbf000203-resize_4-target.png,250,4.0106666666667,10,3171,243,feet,jsons/v1_VE250_randls_72.json,656519,1003497,39,Man
2,182081,DepthScenes,duration_manipulation_targetAtFixation,jsons/v1_VE250_randls_72.json,http://54.235.29.9/FacialAge/BNav_EC2/DepthDuration/v2_depth_duration_MTurk/v2_DepthDuration_HTML.html#191,191,1366,768,1366,768,9-19-2022,13-59-33,3,depth_duration_stimuli/001199_2014-06-17_16-03-48_260595134347_rgbf000077-resize_0/001199_2014-06-17_16-03-48_260595134347_rgbf000077-resize_0-target.png,250,3.4375,15,3928,246,feet,jsons/v1_VE250_randls_72.json,656519,1003497,39,Man
3,182081,DepthScenes,duration_manipulation_targetAtFixation,jsons/v1_VE250_randls_72.json,http://54.235.29.9/FacialAge/BNav_EC2/DepthDuration/v2_depth_duration_MTurk/v2_DepthDuration_HTML.html#191,191,1366,768,1366,768,9-19-2022,13-59-33,4,depth_duration_stimuli/000502_2014-06-08_23-02-32_260595134347_rgbf000063-resize_4/000502_2014-06-08_23-02-32_260595134347_rgbf000063-resize_4-target.png,250,2.431,5,2882,246,feet,jsons/v1_VE250_randls_72.json,656519,1003497,39,Man
4,182081,DepthScenes,duration_manipulation_targetAtFixation,jsons/v1_VE250_randls_72.json,http://54.235.29.9/FacialAge/BNav_EC2/DepthDuration/v2_depth_duration_MTurk/v2_DepthDuration_HTML.html#191,191,1366,768,1366,768,9-19-2022,13-59-33,5,depth_duration_stimuli/000929_2014-06-09_16-33-19_260595134347_rgbf000139-resize_0/000929_2014-06-09_16-33-19_260595134347_rgbf000139-resize_0-target.png,250,2.8680000000000003,6,2720,245,feet,jsons/v1_VE250_randls_72.json,656519,1003497,39,Man
5,182081,DepthScenes,duration_manipulation_targetAtFixation,jsons/v1_VE250_randls_72.json,http://54.235.29.9/FacialAge/BNav_EC2/DepthDuration/v2_depth_duration_MTurk/v2_DepthDuration_HTML.html#191,191,1366,768,1366,768,9-19-2022,13-59-33,6,depth_duration_stimuli/000457_2014-06-08_16-52-43_260595134347_rgbf000199-resize_1/000457_2014-06-08_16-52-43_260595134347_rgbf000199-resize_1-target.png,250,3.6489999999999996,8,3030,246,feet,jsons/v1_VE250_randls_72.json,656519,1003497,39,Man
6,182081,DepthScenes,duration_manipulation_targetAtFixation,jsons/v1_VE250_randls_72.json,http://54.235.29.9/FacialAge/BNav_EC2/DepthDuration/v2_depth_duration_MTurk/v2_DepthDuration_HTML.html#191,191,1366,768,1366,768,9-19-2022,13-59-33,7,depth_duration_stimuli/000470_2014-06-09_19-42-40_260595134347_rgbf000094-resize_1/000470_2014-06-09_19-42-40_260595134347_rgbf000094-resize_1-target.png,250,1.831,3,2909,254,feet,jsons/v1_VE250_randls_72.json,656519,1003497,39,Man
7,182081,DepthScenes,duration_manipulation_targetAtFixation,jsons/v1_VE250_randls_72.json,http://54.235.29.9/FacialAge/BNav_EC2/DepthDuration/v2_depth_duration_MTurk/v2_DepthDuration_HTML.html#191,191,1366,768,1366,768,9-19-2022,13-59-33,8,depth_duration_stimuli/000109_2014-05-14_23-41-52_260595134347_rgbf000035-resize_9/000109_2014-05-14_23-41-52_260595134347_rgbf000035-resize_9-target.png,250,1.3545,3,3295,234,feet,jsons/v1_VE250_randls_72.json,656519,1003497,39,Man
8,182081,DepthScenes,duration_manipulation_targetAtFixation,jsons/v1_VE250_randls_72.json,http://54.235.29.9/FacialAge/BNav_EC2/DepthDuration/v2_depth_duration_MTurk/v2_DepthDuration_HTML.html#191,191,1366,768,1366,768,9-19-2022,13-59-33,9,depth_duration_stimuli/001150_2014-06-17_15-27-34_260595134347_rgbf000108-resize_2/001150_2014-06-17_15-27-34_260595134347_rgbf000108-resize_2-target.png,250,4.0325,12,3351,252,feet,jsons/v1_VE250_randls_72.json,656519,1003497,39,Man
9,182081,DepthScenes,duration_manipulation_targetAtFixation,jsons/v1_VE250_randls_72.json,http://54.235.29.9/FacialAge/BNav_EC2/DepthDuration/v2_depth_duration_MTurk/v2_DepthDuration_HTML.html#191,191,1366,768,1366,768,9-19-2022,13-59-33,10,depth_duration_stimuli/000665_2014-06-09_20-42-35_260595134347_rgbf000110-resize_1/000665_2014-06-09_20-42-35_260595134347_rgbf000110-resize_1-target.png,250,3.057,10,3619,245,feet,jsons/v1_VE250_randls_72.json,656519,1003497,39,Man
10,182081,DepthScenes,duration_manipulation_targetAtFixation,jsons/v1_VE250_randls_72.json,http://54.235.29.9/FacialAge/BNav_EC2/DepthDuration/v2_depth_duration_MTurk/v2_DepthDuration_HTML.html#191,191,1366,768,1366,768,9-19-2022,13-59-33,11,depth_duration_stimuli/001016_2014-06-09_16-16-10_260595134347_rgbf000112-resize_5/001016_2014-06-09_16-16-10_260595134347_rgbf000112-resize_5-target.png,250,1.6565,6,2696,269,feet,jsons/v1_VE250_randls_72.json,656519,1003497,39,Man
11,182081,DepthScenes,duration_manipulation_targetAtFixation,jsons/v1_VE250_randls_72.json,http://54.235.29.9/FacialAge/BNav_EC2/DepthDuration/v2_depth_duration_MTurk/v2_DepthDuration_HTML.html#191,191,1366,768,1366,768,9-19-2022,13-59-33,12,depth_duration_stimuli/002340_2014-06-28_20-05-46_260595134347_rgbf000113-resize_0/002340_2014-06-28_20-05-46_260595134347_rgbf000113-resize_0-target.png,250,2.4735,8,2927,252,feet,jsons/v1_VE250_randls_72.json,656519,1003497,39,Man
12,182081,DepthScenes,duration_manipulation_targetAtFixation,jsons/v1_VE250_randls_72.json,http://54.235.29.9/FacialAge/BNav_EC2/DepthDuration/v2_depth_duration_MTurk/v2_DepthDuration_HTML.html#191,191,1366,768,1366,768,9-19-2022,13-59-33,13,depth_duration_stimuli/000569_2014-06-09_22-51-47_260595134347_rgbf000141-resize_3/000569_2014-06-09_22-51-47_260595134347_rgbf000141-resize-original.jpg,250,4.512,0,3092,237,feet,jsons/v1_VE250_randls_72.json,656519,1003497,39,Man
13,182081,DepthScenes,duration_manipulation_targetAtFixation,jsons/v1_VE250_randls_72.json,http://54.235.29.9/FacialAge/BNav_EC2/DepthDuration/v2_depth_duration_MTurk/v2_DepthDuration_HTML.html#191,191,1366,768,1366,768,9-19-2022,13-59-33,14,depth_duration_stimuli/003492_2014-05-21_15-50-55_094959634447_rgbf000828-resize_1/003492_2014-05-21_15-50-55_094959634447_rgbf000828-resize_1-target.png,250,4.06875,15,2805,238,feet,jsons/v1_VE250_randls_72.json,656519,1003497,39,Man
14,182081,DepthScenes,duration_manipulation_targetAtFixation,jsons/v1_VE250_randls_72.json,http://54.235.29.9/FacialAge/BNav_EC2/DepthDuration/v2_depth_duration_MTurk/v2_DepthDuration_HTML.html#191,191,1366,768,1366,768,9-19-2022,13-59-33,15,depth_duration_stimuli/002568_2014-06-24_13-59-21_094959634447_rgbf000062-resize_4/002568_2014-06-24_13-59-21_094959634447_rgbf000062-resize_4-target.png,250,3.015,8,2765,247,feet,jsons/v1_VE250_randls_72.json,656519,1003497,39,Man
15,182081,DepthScenes,duration_manipulation_targetAtFixation,jsons/v1_VE250_randls_72.json,http://54.235.29.9/FacialAge/BNav_EC2/DepthDuration/v2_depth_duration_MTurk/v2_DepthDuration_HTML.html#191,191,1366,768,1366,768,9-19-2022,13-59-33,16,depth_duration_stimuli/002784_2014-06-22_19-26-30_094959634447_rgbf000083-resize_3/002784_2014-06-22_19-26-30_094959634447_rgbf000083-resize_3-target.png,250,1.8046666666667,4,2755,249,feet,jsons/v1_VE250_randls_72.json,656519,1003497,39,Man
16,182081,DepthScenes,duration_manipulation_targetAtFixation,jsons/v1_VE250_randls_72.json,http://54.235.29.9/FacialAge/BNav_EC2/DepthDuration/v2_depth_duration_MTurk/v2_DepthDuration_HTML.html#191,191,1366,768,1366,768,9-19-2022,13-59-33,17,depth_duration_stimuli/001100_2014-06-15_17-46-26_260595134347_rgbf000225-resize_2/001100_2014-06-15_17-46-26_260595134347_rgbf000225-resize_2-target.png,250,2.24,3,3515,244,feet,jsons/v1_VE250_randls_72.json,656519,1003497,39,Man
17,182081,DepthScenes,duration_manipulation_targetAtFixation,jsons/v1_VE250_randls_72.json,http://54.235.29.9/FacialAge/BNav_EC2/DepthDuration/v2_depth_duration_MTurk/v2_DepthDuration_HTML.html#191,191,1366,768,1366,768,9-19-2022,13-59-33,18,depth_duration_stimuli/001175_2014-06-17_15-45-55_260595134347_rgbf000129-resize_4/001175_2014-06-17_15-45-55_260595134347_rgbf000129-resize_4-target.png,250,4.255,25,4314,246,feet,jsons/v1_VE250_randls_72.json,656519,1003497,39,Man
18,182081,DepthScenes,duration_manipulation_targetAtFixation,jsons/v1_VE250_randls_72.json,http://54.235.29.9/FacialAge/BNav_EC2/DepthDuration/v2_depth_duration_MTurk/v2_DepthDuration_HTML.html#191,191,1366,768,1366,768,9-19-2022,13-59-33,19,depth_duration_stimuli/003490_2014-05-21_15-50-11_094959634447_rgbf000101-resize_3/003490_2014-05-21_15-50-11_094959634447_rgbf000101-resize_3-target.png,250,3.6445,20,3524,241,feet,jsons/v1_VE250_randls_72.json,656519,1003497,39,Man
19,182081,DepthScenes,duration_manipulation_targetAtFixation,jsons/v1_VE250_randls_72.json,http://54.235.29.9/FacialAge/BNav_EC2/DepthDuration/v2_depth_duration_MTurk/v2_DepthDuration_HTML.html#191,191,1366,768,1366,768,9-19-2022,13-59-33,20,depth_duration_stimuli/001110_2014-06-15_17-25-28_260595134347_rgbf000150-resize_1/001110_2014-06-15_17-25-28_260595134347_rgbf000150-resize_1-target.png,250,1.7115,6,2857,254,feet,jsons/v1_VE250_randls_72.json,656519,1003497,39,Man
20,182081,DepthScenes,duration_manipulation_targetAtFixation,jsons/v1_VE250_randls_72.json,http://54.235.29.9/FacialAge/BNav_EC2/DepthDuration/v2_depth_duration_MTurk/v2_DepthDuration_HTML.html#191,191,1366,768,1366,768,9-19-2022,13-59-33,21,depth_duration_stimuli/000927_2014-06-09_16-32-30_260595134347_rgbf000123-resize_3/000927_2014-06-09_16-32-30_260595134347_rgbf000123-resize_3-target.png,250,2.6785,10,2763,254,feet,jsons/v1_VE250_randls_72.json,656519,1003497,39,Man
21,182081,DepthScenes,duration_manipulation_targetAtFixation,jsons/v1_VE250_randls_72.json,http://54.235.29.9/FacialAge/BNav_EC2/DepthDuration/v2_depth_duration_MTurk/v2_DepthDuration_HTML.html#191,191,1366,768,1366,768,9-19-2022,13-59-33,22,depth_duration_stimuli/002663_2014-06-13_15-50-26_094959634447_rgbf000075-resize_1/002663_2014-06-13_15-50-26_094959634447_rgbf000075-resize_1-target.png,250,4.7495,25,4364,242,feet,jsons/v1_VE250_randls_72.json,656519,1003497,39,Man
22,182081,DepthScenes,duration_manipulation_targetAtFixation,jsons/v1_VE250_randls_72.json,http://54.235.29.9/FacialAge/BNav_EC2/DepthDuration/v2_depth_duration_MTurk/v2_DepthDuration_HTML.html#191,191,1366,768,1366,768,9-19-2022,13-59-33,23,depth_duration_stimuli/000409_2014-06-04_19-23-33_260595134347_rgbf000067-resize_0/000409_2014-06-04_19-23-33_260595134347_rgbf000067-resize_0-target.png,250,3.7335,12,3082,252,feet,jsons/v1_VE250_randls_72.json,656519,1003497,39,Man
23,182081,DepthScenes,duration_manipulation_targetAtFixation,jsons/v1_VE250_randls_72.json,http://54.235.29.9/FacialAge/BNav_EC2/DepthDuration/v2_depth_duration_MTurk/v2_DepthDuration_HTML.html#191,191,1366,768,1366,768,9-19-2022,13-59-33,24,depth_duration_stimuli/000522_2014-06-08_13-35-06_260595134347_rgbf000244-resize_1/000522_2014-06-08_13-35-06_260595134347_rgbf000244-resize_1-target.png,250,2.3715,2,2850,251,feet,jsons/v1_VE250_randls_72.json,656519,1003497,39,Man
24,182081,DepthScenes,duration_manipulation_targetAtFixation,jsons/v1_VE250_randls_72.json,http://54.235.29.9/FacialAge/BNav_EC2/DepthDuration/v2_depth_duration_MTurk/v2_DepthDuration_HTML.html#191,191,1366,768,1366,768,9-19-2022,13-59-33,25,depth_duration_stimuli/002949_2014-06-26_15-57-42_094959634447_rgbf000079-resize_1/002949_2014-06-26_15-57-42_094959634447_rgbf000079-resize_1-target.png,250,1.8915,4,2666,245,feet,jsons/v1_VE250_randls_72.json,656519,1003497,39,Man
25,182081,DepthScenes,duration_manipulation_targetAtFixation,jsons/v1_VE250_randls_72.json,http://54.235.29.9/FacialAge/BNav_EC2/DepthDuration/v2_depth_duration_MTurk/v2_DepthDuration_HTML.html#191,191,1366,768,1366,768,9-19-2022,13-59-33,26,depth_duration_stimuli/001806_2014-06-26_20-50-20_260595134347_rgbf000091-resize_1/001806_2014-06-26_20-50-20_260595134347_rgbf000091-resize_1-target.png,250,2.7305,3,2078,254,feet,jsons/v1_VE250_randls_72.json,656519,1003497,39,Man
26,182081,DepthScenes,duration_manipulation_targetAtFixation,jsons/v1_VE250_randls_72.json,http://54.235.29.9/FacialAge/BNav_EC2/DepthDuration/v2_depth_duration_MTurk/v2_DepthDuration_HTML.html#191,191,1366,768,1366,768,9-19-2022,13-59-33,27,depth_duration_stimuli/001617_2014-06-20_11-35-32_260595134347_rgbf000066-resize_1/001617_2014-06-20_11-35-32_260595134347_rgbf000066-resize_1-target.png,250,3.7910000000000004,15,3047,253,feet,jsons/v1_VE250_randls_72.json,656519,1003497,39,Man
27,182081,DepthScenes,duration_manipulation_targetAtFixation,jsons/v1_VE250_randls_72.json,http://54.235.29.9/FacialAge/BNav_EC2/DepthDuration/v2_depth_duration_MTurk/v2_DepthDuration_HTML.html#191,191,1366,768,1366,768,9-19-2022,13-59-33,28,depth_duration_stimuli/000414_2014-06-04_19-49-13_260595134347_rgbf000044-resize_0/000414_2014-06-04_19-49-13_260595134347_rgbf000044-resize_0-target.png,250,4.329,25,8246,246,feet,jsons/v1_VE250_randls_72.json,656519,1003497,39,Man
28,182081,DepthScenes,duration_manipulation_targetAtFixation,jsons/v1_VE250_randls_72.json,http://54.235.29.9/FacialAge/BNav_EC2/DepthDuration/v2_depth_duration_MTurk/v2_DepthDuration_HTML.html#191,191,1366,768,1366,768,9-19-2022,13-59-33,29,depth_duration_stimuli/003129_2014-05-12_10-48-10_094959634447_rgbf000100-resize_0/003129_2014-05-12_10-48-10_094959634447_rgbf000100-resize_0-target.png,250,4.9305,15,3774,243,feet,jsons/v1_VE250_randls_72.json,656519,1003497,39,Man
29,182081,DepthScenes,duration_manipulation_targetAtFixation,jsons/v1_VE250_randls_72.json,http://54.235.29.9/FacialAge/BNav_EC2/DepthDuration/v2_depth_duration_MTurk/v2_DepthDuration_HTML.html#191,191,1366,768,1366,768,9-19-2022,13-59-33,30,depth_duration_stimuli/000375_2014-06-08_11-17-29_260595134347_rgbf000133-resize_2/000375_2014-06-08_11-17-29_260595134347_rgbf000133-resize-original.jpg,250,4.718,0,2878,247,feet,jsons/v1_VE250_randls_72.json,656519,1003497,39,Man
30,182081,DepthScenes,duration_manipulation_targetAtFixation,jsons/v1_VE250_randls_72.json,http://54.235.29.9/FacialAge/BNav_EC2/DepthDuration/v2_depth_duration_MTurk/v2_DepthDuration_HTML.html#191,191,1366,768,1366,768,9-19-2022,13-59-33,31,depth_duration_stimuli/001164_2014-06-17_15-35-46_260595134347_rgbf000085-resize_3/001164_2014-06-17_15-35-46_260595134347_rgbf000085-resize_3-target.png,250,2.354,5,2432,246,feet,jsons/v1_VE250_randls_72.json,656519,1003497,39,Man
31,182081,DepthScenes,duration_manipulation_targetAtFixation,jsons/v1_VE250_randls_72.json,http://54.235.29.9/FacialAge/BNav_EC2/DepthDuration/v2_depth_duration_MTurk/v2_DepthDuration_HTML.html#191,191,1366,768,1366,768,9-19-2022,13-59-33,32,depth_duration_stimuli/001136_2014-06-17_15-19-41_260595134347_rgbf000076-resize_3/001136_2014-06-17_15-19-41_260595134347_rgbf000076-resize_3-target.png,250,1.8655,4,3179,253,feet,jsons/v1_VE250_randls_72.json,656519,1003497,39,Man
32,182081,DepthScenes,duration_manipulation_targetAtFixation,jsons/v1_VE250_randls_72.json,http://54.235.29.9/FacialAge/BNav_EC2/DepthDuration/v2_depth_duration_MTurk/v2_DepthDuration_HTML.html#191,191,1366,768,1366,768,9-19-2022,13-59-33,33,depth_duration_stimuli/001808_2014-06-26_20-50-58_260595134347_rgbf000029-resize_1/001808_2014-06-26_20-50-58_260595134347_rgbf000029-resize_1-target.png,250,4.249,15,2679,251,feet,jsons/v1_VE250_randls_72.json,656519,1003497,39,Man
33,182081,DepthScenes,duration_manipulation_targetAtFixation,jsons/v1_VE250_randls_72.json,http://54.235.29.9/FacialAge/BNav_EC2/DepthDuration/v2_depth_duration_MTurk/v2_DepthDuration_HTML.html#191,191,1366,768,1366,768,9-19-2022,13-59-33,34,depth_duration_stimuli/001815_2014-06-26_20-52-55_260595134347_rgbf000020-resize_0/001815_2014-06-26_20-52-55_260595134347_rgbf000020-resize_0-target.png,250,3.3865,20,2967,245,feet,jsons/v1_VE250_randls_72.json,656519,1003497,39,Man
34,182081,DepthScenes,duration_manipulation_targetAtFixation,jsons/v1_VE250_randls_72.json,http://54.235.29.9/FacialAge/BNav_EC2/DepthDuration/v2_depth_duration_MTurk/v2_DepthDuration_HTML.html#191,191,1366,768,1366,768,9-19-2022,13-59-33,35,depth_duration_stimuli/000486_2014-06-09_20-47-20_260595134347_rgbf000143-resize_2/000486_2014-06-09_20-47-20_260595134347_rgbf000143-resize_2-target.png,250,4.8325,20,3431,230,feet,jsons/v1_VE250_randls_72.json,656519,1003497,39,Man
35,182081,DepthScenes,duration_manipulation_targetAtFixation,jsons/v1_VE250_randls_72.json,http://54.235.29.9/FacialAge/BNav_EC2/DepthDuration/v2_depth_duration_MTurk/v2_DepthDuration_HTML.html#191,191,1366,768,1366,768,9-19-2022,13-59-33,36,depth_duration_stimuli/003083_2014-06-15_15-21-03_094959634447_rgbf000063-resize_1/003083_2014-06-15_15-21-03_094959634447_rgbf000063-resize_1-target.png,250,4.1405,25,3667,252,feet,jsons/v1_VE250_randls_72.json,656519,1003497,39,Man
36,182081,DepthScenes,duration_manipulation_targetAtFixation,jsons/v1_VE250_randls_72.json,http://54.235.29.9/FacialAge/BNav_EC2/DepthDuration/v2_depth_duration_MTurk/v2_DepthDuration_HTML.html#191,191,1366,768,1366,768,9-19-2022,13-59-33,37,depth_duration_stimuli/001092_2014-06-15_17-34-58_260595134347_rgbf000171-resize_3/001092_2014-06-15_17-34-58_260595134347_rgbf000171-resize_3-target.png,250,2.6935,5,3321,253,feet,jsons/v1_VE250_randls_72.json,656519,1003497,39,Man
37,182081,DepthScenes,duration_manipulation_targetAtFixation,jsons/v1_VE250_randls_72.json,http://54.235.29.9/FacialAge/BNav_EC2/DepthDuration/v2_depth_duration_MTurk/v2_DepthDuration_HTML.html#191,191,1366,768,1366,768,9-19-2022,13-59-33,38,depth_duration_stimuli/002545_2014-06-24_13-38-53_094959634447_rgbf000080-resize_4/002545_2014-06-24_13-38-53_094959634447_rgbf000080-resize_4-target.png,250,1.9205,6,2517,246,feet,jsons/v1_VE250_randls_72.json,656519,1003497,39,Man
38,182081,DepthScenes,duration_manipulation_targetAtFixation,jsons/v1_VE250_randls_72.json,http://54.235.29.9/FacialAge/BNav_EC2/DepthDuration/v2_depth_duration_MTurk/v2_DepthDuration_HTML.html#191,191,1366,768,1366,768,9-19-2022,13-59-33,39,depth_duration_stimuli/000739_2014-06-08_18-45-58_260595134347_rgbf000068-resize_1/000739_2014-06-08_18-45-58_260595134347_rgbf000068-resize_1-target.png,250,3.534,10,2664,252,feet,jsons/v1_VE250_randls_72.json,656519,1003497,39,Man
39,182081,DepthScenes,duration_manipulation_targetAtFixation,jsons/v1_VE250_randls_72.json,http://54.235.29.9/FacialAge/BNav_EC2/DepthDuration/v2_depth_duration_MTurk/v2_DepthDuration_HTML.html#191,191,1366,768,1366,768,9-19-2022,13-59-33,40,depth_duration_stimuli/000734_2014-06-08_17-39-11_260595134347_rgbf000128-resize_2/000734_2014-06-08_17-39-11_260595134347_rgbf000128-resize_2-target.png,250,4.098,10,2514,247,feet,jsons/v1_VE250_randls_72.json,656519,1003497,39,Man
40,182081,DepthScenes,duration_manipulation_targetAtFixation,jsons/v1_VE250_randls_72.json,http://54.235.29.9/FacialAge/BNav_EC2/DepthDuration/v2_depth_duration_MTurk/v2_DepthDuration_HTML.html#191,191,1366,768,1366,768,9-19-2022,13-59-33,41,depth_duration_stimuli/001167_2014-06-17_15-38-07_260595134347_rgbf000108-resize_0/001167_2014-06-17_15-38-07_260595134347_rgbf000108-resize_0-target.png,250,1.8505,4,2547,247,feet,jsons/v1_VE250_randls_72.json,656519,1003497,39,Man
41,182081,DepthScenes,duration_manipulation_targetAtFixation,jsons/v1_VE250_randls_72.json,http://54.235.29.9/FacialAge/BNav_EC2/DepthDuration/v2_depth_duration_MTurk/v2_DepthDuration_HTML.html#191,191,1366,768,1366,768,9-19-2022,13-59-33,42,depth_duration_stimuli/003587_2014-05-23_16-48-02_094959634447_rgbf002384-resize_2/003587_2014-05-23_16-48-02_094959634447_rgbf002384-resize_2-target.png,250,1.357,3,3754,261,feet,jsons/v1_VE250_randls_72.json,656519,1003497,39,Man
42,182081,DepthScenes,duration_manipulation_targetAtFixation,jsons/v1_VE250_randls_72.json,http://54.235.29.9/FacialAge/BNav_EC2/DepthDuration/v2_depth_duration_MTurk/v2_DepthDuration_HTML.html#191,191,1366,768,1366,768,9-19-2022,13-59-33,43,depth_duration_stimuli/002213_2014-06-28_18-37-58_260595134347_rgbf000055-resize_1/002213_2014-06-28_18-37-58_260595134347_rgbf000055-resize_1-target.png,250,3.62,20,3954,256,feet,jsons/v1_VE250_randls_72.json,656519,1003497,39,Man
43,182081,DepthScenes,duration_manipulation_targetAtFixation,jsons/v1_VE250_randls_72.json,http://54.235.29.9/FacialAge/BNav_EC2/DepthDuration/v2_depth_duration_MTurk/v2_DepthDuration_HTML.html#191,191,1366,768,1366,768,9-19-2022,13-59-33,44,depth_duration_stimuli/000691_2014-06-08_13-08-50_260595134347_rgbf000132-resize_3/000691_2014-06-08_13-08-50_260595134347_rgbf000132-resize_3-target.png,250,4.1530000000000005,15,2979,253,feet,jsons/v1_VE250_randls_72.json,656519,1003497,39,Man
44,182081,DepthScenes,duration_manipulation_targetAtFixation,jsons/v1_VE250_randls_72.json,http://54.235.29.9/FacialAge/BNav_EC2/DepthDuration/v2_depth_duration_MTurk/v2_DepthDuration_HTML.html#191,191,1366,768,1366,768,9-19-2022,13-59-33,45,depth_duration_stimuli/000787_2014-06-08_22-33-53_260595134347_rgbf000175-resize_1/000787_2014-06-08_22-33-53_260595134347_rgbf000175-resize-original.jpg,250,4.784,0,2703,252,feet,jsons/v1_VE250_randls_72.json,656519,1003497,39,Man
45,182081,DepthScenes,duration_manipulation_targetAtFixation,jsons/v1_VE250_randls_72.json,http://54.235.29.9/FacialAge/BNav_EC2/DepthDuration/v2_depth_duration_MTurk/v2_DepthDuration_HTML.html#191,191,1366,768,1366,768,9-19-2022,13-59-33,46,depth_duration_stimuli/000788_2014-06-08_22-34-36_260595134347_rgbf000131-resize_1/000788_2014-06-08_22-34-36_260595134347_rgbf000131-resize_1-target.png,250,3.359,8,2900,254,feet,jsons/v1_VE250_randls_72.json,656519,1003497,39,Man
46,182081,DepthScenes,duration_manipulation_targetAtFixation,jsons/v1_VE250_randls_72.json,http://54.235.29.9/FacialAge/BNav_EC2/DepthDuration/v2_depth_duration_MTurk/v2_DepthDuration_HTML.html#191,191,1366,768,1366,768,9-19-2022,13-59-33,47,depth_duration_stimuli/001235_2014-06-17_16-37-36_260595134347_rgbf000084-resize_4/001235_2014-06-17_16-37-36_260595134347_rgbf000084-resize_4-target.png,250,3.6605,10,2808,256,feet,jsons/v1_VE250_randls_72.json,656519,1003497,39,Man
47,182081,DepthScenes,duration_manipulation_targetAtFixation,jsons/v1_VE250_randls_72.json,http://54.235.29.9/FacialAge/BNav_EC2/DepthDuration/v2_depth_duration_MTurk/v2_DepthDuration_HTML.html#191,191,1366,768,1366,768,9-19-2022,13-59-33,48,depth_duration_stimuli/001056_2014-06-08_18-46-44_260595134347_rgbf000068-resize_0/001056_2014-06-08_18-46-44_260595134347_rgbf000068-resize_0-target.png,250,2.6625,12,5497,248,feet,jsons/v1_VE250_randls_72.json,656519,1003497,39,Man
48,182081,DepthScenes,duration_manipulation_targetAtFixation,jsons/v1_VE250_randls_72.json,http://54.235.29.9/FacialAge/BNav_EC2/DepthDuration/v2_depth_duration_MTurk/v2_DepthDuration_HTML.html#191,191,1366,768,1366,768,9-19-2022,13-59-33,49,depth_duration_stimuli/002199_2014-06-28_18-33-56_260595134347_rgbf000074-resize_0/002199_2014-06-28_18-33-56_260595134347_rgbf000074-resize_0-target.png,250,1.996,3,4962,234,feet,jsons/v1_VE250_randls_72.json,656519,1003497,39,Man
49,182081,DepthScenes,duration_manipulation_targetAtFixation,jsons/v1_VE250_randls_72.json,http://54.235.29.9/FacialAge/BNav_EC2/DepthDuration/v2_depth_duration_MTurk/v2_DepthDuration_HTML.html#191,191,1366,768,1366,768,9-19-2022,13-59-33,50,depth_duration_stimuli/000878_2014-06-08_22-52-45_260595134347_rgbf000045-resize_2/000878_2014-06-08_22-52-45_260595134347_rgbf000045-resize_2-target.png,250,2.092,10,2916,265,feet,jsons/v1_VE250_randls_72.json,656519,1003497,39,Man
50,182081,DepthScenes,duration_manipulation_targetAtFixation,jsons/v1_VE250_randls_72.json,http://54.235.29.9/FacialAge/BNav_EC2/DepthDuration/v2_depth_duration_MTurk/v2_DepthDuration_HTML.html#191,191,1366,768,1366,768,9-19-2022,13-59-33,51,depth_duration_stimuli/002953_2014-06-08_17-32-18_094959634447_rgbf000059-resize_5/002953_2014-06-08_17-32-18_094959634447_rgbf000059-resize_5-target.png,250,1.551,3,4121,246,feet,jsons/v1_VE250_randls_72.json,656519,1003497,39,Man
51,182081,DepthScenes,duration_manipulation_targetAtFixation,jsons/v1_VE250_randls_72.json,http://54.235.29.9/FacialAge/BNav_EC2/DepthDuration/v2_depth_duration_MTurk/v2_DepthDuration_HTML.html#191,191,1366,768,1366,768,9-19-2022,13-59-33,52,depth_duration_stimuli/000493_2014-06-09_21-01-18_260595134347_rgbf000196-resize_3/000493_2014-06-09_21-01-18_260595134347_rgbf000196-resize_3-target.png,250,3.44,15,2987,249,feet,jsons/v1_VE250_randls_72.json,656519,1003497,39,Man
52,182081,DepthScenes,duration_manipulation_targetAtFixation,jsons/v1_VE250_randls_72.json,http://54.235.29.9/FacialAge/BNav_EC2/DepthDuration/v2_depth_duration_MTurk/v2_DepthDuration_HTML.html#191,191,1366,768,1366,768,9-19-2022,13-59-33,53,depth_duration_stimuli/000191_2014-05-12_17-07-38_260595134347_rgbf000199-resize_0/000191_2014-05-12_17-07-38_260595134347_rgbf000199-resize_0-target.png,250,3.7995,20,3880,253,feet,jsons/v1_VE250_randls_72.json,656519,1003497,39,Man
53,182081,DepthScenes,duration_manipulation_targetAtFixation,jsons/v1_VE250_randls_72.json,http://54.235.29.9/FacialAge/BNav_EC2/DepthDuration/v2_depth_duration_MTurk/v2_DepthDuration_HTML.html#191,191,1366,768,1366,768,9-19-2022,13-59-33,54,depth_duration_stimuli/002549_2014-06-24_13-41-39_094959634447_rgbf000022-resize_3/002549_2014-06-24_13-41-39_094959634447_rgbf000022-resize_3-target.png,250,1.476,4,3962,248,feet,jsons/v1_VE250_randls_72.json,656519,1003497,39,Man
54,182081,DepthScenes,duration_manipulation_targetAtFixation,jsons/v1_VE250_randls_72.json,http://54.235.29.9/FacialAge/BNav_EC2/DepthDuration/v2_depth_duration_MTurk/v2_DepthDuration_HTML.html#191,191,1366,768,1366,768,9-19-2022,13-59-33,55,depth_duration_stimuli/002750_2014-06-22_19-08-03_094959634447_rgbf000094-resize_4/002750_2014-06-22_19-08-03_094959634447_rgbf000094-resize_4-target.png,250,2.354,8,4369,258,feet,jsons/v1_VE250_randls_72.json,656519,1003497,39,Man
55,182081,DepthScenes,duration_manipulation_targetAtFixation,jsons/v1_VE250_randls_72.json,http://54.235.29.9/FacialAge/BNav_EC2/DepthDuration/v2_depth_duration_MTurk/v2_DepthDuration_HTML.html#191,191,1366,768,1366,768,9-19-2022,13-59-33,56,depth_duration_stimuli/002964_2014-06-08_17-46-11_094959634447_rgbf000091-resize_4/002964_2014-06-08_17-46-11_094959634447_rgbf000091-resize_4-target.png,250,1.6909999999999998,5,3208,253,feet,jsons/v1_VE250_randls_72.json,656519,1003497,39,Man
56,182081,DepthScenes,duration_manipulation_targetAtFixation,jsons/v1_VE250_randls_72.json,http://54.235.29.9/FacialAge/BNav_EC2/DepthDuration/v2_depth_duration_MTurk/v2_DepthDuration_HTML.html#191,191,1366,768,1366,768,9-19-2022,13-59-33,57,depth_duration_stimuli/002136_2014-06-25_21-18-03_260595134347_rgbf000109-resize_3/002136_2014-06-25_21-18-03_260595134347_rgbf000109-resize_3-target.png,250,1.9569999999999999,4,2668,251,feet,jsons/v1_VE250_randls_72.json,656519,1003497,39,Man
57,182081,DepthScenes,duration_manipulation_targetAtFixation,jsons/v1_VE250_randls_72.json,http://54.235.29.9/FacialAge/BNav_EC2/DepthDuration/v2_depth_duration_MTurk/v2_DepthDuration_HTML.html#191,191,1366,768,1366,768,9-19-2022,13-59-33,58,depth_duration_stimuli/000682_2014-06-08_23-14-58_260595134347_rgbf000041-resize_5/000682_2014-06-08_23-14-58_260595134347_rgbf000041-resize_5-target.png,250,2.7239999999999998,12,3507,249,feet,jsons/v1_VE250_randls_72.json,656519,1003497,39,Man
58,182081,DepthScenes,duration_manipulation_targetAtFixation,jsons/v1_VE250_randls_72.json,http://54.235.29.9/FacialAge/BNav_EC2/DepthDuration/v2_depth_duration_MTurk/v2_DepthDuration_HTML.html#191,191,1366,768,1366,768,9-19-2022,13-59-33,59,depth_duration_stimuli/001650_2014-06-20_12-09-00_260595134347_rgbf000087-resize_3/001650_2014-06-20_12-09-00_260595134347_rgbf000087-resize_3-target.png,250,1.9505,4,3132,254,feet,jsons/v1_VE250_randls_72.json,656519,1003497,39,Man
59,182081,DepthScenes,duration_manipulation_targetAtFixation,jsons/v1_VE250_randls_72.json,http://54.235.29.9/FacialAge/BNav_EC2/DepthDuration/v2_depth_duration_MTurk/v2_DepthDuration_HTML.html#191,191,1366,768,1366,768,9-19-2022,13-59-33,60,depth_duration_stimuli/001570_2014-06-20_17-21-09_260595134347_rgbf000135-resize_4/001570_2014-06-20_17-21-09_260595134347_rgbf000135-resize_4-target.png,250,4.467,20,4368,252,feet,jsons/v1_VE250_randls_72.json,656519,1003497,39,Man
60,182081,DepthScenes,duration_manipulation_targetAtFixation,jsons/v1_VE250_randls_72.json,http://54.235.29.9/FacialAge/BNav_EC2/DepthDuration/v2_depth_duration_MTurk/v2_DepthDuration_HTML.html#191,191,1366,768,1366,768,9-19-2022,13-59-33,61,depth_duration_stimuli/001392_2014-06-19_16-07-59_260595134347_rgbf000046-resize_1/001392_2014-06-19_16-07-59_260595134347_rgbf000046-resize_1-target.png,250,4.135,12,3029,250,feet,jsons/v1_VE250_randls_72.json,656519,1003497,39,Man
61,182081,DepthScenes,duration_manipulation_targetAtFixation,jsons/v1_VE250_randls_72.json,http://54.235.29.9/FacialAge/BNav_EC2/DepthDuration/v2_depth_duration_MTurk/v2_DepthDuration_HTML.html#191,191,1366,768,1366,768,9-19-2022,13-59-33,62,depth_duration_stimuli/002988_2014-06-15_12-24-20_094959634447_rgbf000150-resize_1/002988_2014-06-15_12-24-20_094959634447_rgbf000150-resize_1-target.png,250,4.7669999999999995,9,4822,246,feet,jsons/v1_VE250_randls_72.json,656519,1003497,39,Man
62,182081,DepthScenes,duration_manipulation_targetAtFixation,jsons/v1_VE250_randls_72.json,http://54.235.29.9/FacialAge/BNav_EC2/DepthDuration/v2_depth_duration_MTurk/v2_DepthDuration_HTML.html#191,191,1366,768,1366,768,9-19-2022,13-59-33,63,depth_duration_stimuli/001052_2014-06-08_18-24-54_260595134347_rgbf000130-resize_1/001052_2014-06-08_18-24-54_260595134347_rgbf000130-resize_1-target.png,250,4.1045,12,3007,246,feet,jsons/v1_VE250_randls_72.json,656519,1003497,39,Man
63,182081,DepthScenes,duration_manipulation_targetAtFixation,jsons/v1_VE250_randls_72.json,http://54.235.29.9/FacialAge/BNav_EC2/DepthDuration/v2_depth_duration_MTurk/v2_DepthDuration_HTML.html#191,191,1366,768,1366,768,9-19-2022,13-59-33,64,depth_duration_stimuli/002748_2014-06-22_19-07-22_094959634447_rgbf000078-resize_1/002748_2014-06-22_19-07-22_094959634447_rgbf000078-resize_1-target.png,250,4.6705,30,8905,268,feet,jsons/v1_VE250_randls_72.json,656519,1003497,39,Man
64,182081,DepthScenes,duration_manipulation_targetAtFixation,jsons/v1_VE250_randls_72.json,http://54.235.29.9/FacialAge/BNav_EC2/DepthDuration/v2_depth_duration_MTurk/v2_DepthDuration_HTML.html#191,191,1366,768,1366,768,9-19-2022,13-59-33,65,depth_duration_stimuli/002995_2014-06-15_12-31-26_094959634447_rgbf000150-resize_1/002995_2014-06-15_12-31-26_094959634447_rgbf000150-resize_1-target.png,250,3.8360000000000003,20,4428,247,feet,jsons/v1_VE250_randls_72.json,656519,1003497,39,Man
65,182081,DepthScenes,duration_manipulation_targetAtFixation,jsons/v1_VE250_randls_72.json,http://54.235.29.9/FacialAge/BNav_EC2/DepthDuration/v2_depth_duration_MTurk/v2_DepthDuration_HTML.html#191,191,1366,768,1366,768,9-19-2022,13-59-33,66,depth_duration_stimuli/001222_2014-06-17_16-24-06_260595134347_rgbf000073-resize_0/001222_2014-06-17_16-24-06_260595134347_rgbf000073-resize-original.jpg,250,1.4385,0,2885,254,feet,jsons/v1_VE250_randls_72.json,656519,1003497,39,Man
66,182081,DepthScenes,duration_manipulation_targetAtFixation,jsons/v1_VE250_randls_72.json,http://54.235.29.9/FacialAge/BNav_EC2/DepthDuration/v2_depth_duration_MTurk/v2_DepthDuration_HTML.html#191,191,1366,768,1366,768,9-19-2022,13-59-33,67,depth_duration_stimuli/002725_2014-06-22_11-47-51_094959634447_rgbf000070-resize_1/002725_2014-06-22_11-47-51_094959634447_rgbf000070-resize_1-target.png,250,2.195,4,2879,250,feet,jsons/v1_VE250_randls_72.json,656519,1003497,39,Man
67,182081,DepthScenes,duration_manipulation_targetAtFixation,jsons/v1_VE250_randls_72.json,http://54.235.29.9/FacialAge/BNav_EC2/DepthDuration/v2_depth_duration_MTurk/v2_DepthDuration_HTML.html#191,191,1366,768,1366,768,9-19-2022,13-59-33,68,depth_duration_stimuli/002344_2014-06-28_20-06-29_260595134347_rgbf000030-resize_1/002344_2014-06-28_20-06-29_260595134347_rgbf000030-resize_1-target.png,250,1.5795,2,4866,250,feet,jsons/v1_VE250_randls_72.json,656519,1003497,39,Man
68,182081,DepthScenes,duration_manipulation_targetAtFixation,jsons/v1_VE250_randls_72.json,http://54.235.29.9/FacialAge/BNav_EC2/DepthDuration/v2_depth_duration_MTurk/v2_DepthDuration_HTML.html#191,191,1366,768,1366,768,9-19-2022,13-59-33,69,depth_duration_stimuli/003621_2014-05-23_18-06-08_094959634447_rgbf000101-resize_1/003621_2014-05-23_18-06-08_094959634447_rgbf000101-resize_1-target.png,250,3.9835,12,2638,253,feet,jsons/v1_VE250_randls_72.json,656519,1003497,39,Man
69,182081,DepthScenes,duration_manipulation_targetAtFixation,jsons/v1_VE250_randls_72.json,http://54.235.29.9/FacialAge/BNav_EC2/DepthDuration/v2_depth_duration_MTurk/v2_DepthDuration_HTML.html#191,191,1366,768,1366,768,9-19-2022,13-59-33,70,depth_duration_stimuli/001584_2014-06-20_11-07-43_260595134347_rgbf000002-resize_1/001584_2014-06-20_11-07-43_260595134347_rgbf000002-resize_1-target.png,250,3.53,15,3354,251,feet,jsons/v1_VE250_randls_72.json,656519,1003497,39,Man
70,182081,DepthScenes,duration_manipulation_targetAtFixation,jsons/v1_VE250_randls_72.json,http://54.235.29.9/FacialAge/BNav_EC2/DepthDuration/v2_depth_duration_MTurk/v2_DepthDuration_HTML.html#191,191,1366,768,1366,768,9-19-2022,13-59-33,71,depth_duration_stimuli/001059_2014-06-08_21-53-27_260595134347_rgbf000061-resize_4/001059_2014-06-08_21-53-27_260595134347_rgbf000061-resize_4-target.png,250,2.4185,8,4195,250,feet,jsons/v1_VE250_randls_72.json,656519,1003497,39,Man
71,182081,DepthScenes,duration_manipulation_targetAtFixation,jsons/v1_VE250_randls_72.json,http://54.235.29.9/FacialAge/BNav_EC2/DepthDuration/v2_depth_duration_MTurk/v2_DepthDuration_HTML.html#191,191,1366,768,1366,768,9-19-2022,13-59-33,72,depth_duration_stimuli/001032_2014-06-08_13-23-17_260595134347_rgbf000021-resize_3/001032_2014-06-08_13-23-17_260595134347_rgbf000021-resize_3-target.png,250,3.2725,5,2398,246,feet,jsons/v1_VE250_randls_72.json,656519,1003497,39,Man
72,182081,DepthScenes,duration_manipulation_targetAtFixation,jsons/v1_VE250_randls_72.json,http://54.235.29.9/FacialAge/BNav_EC2/DepthDuration/v2_depth_duration_MTurk/v2_DepthDuration_HTML.html#191,191,1366,768,1366,768,9-19-2022,13-59-33,73,depth_duration_stimuli/000009_2014-05-26_14-32-05_260595134347_rgbf000034-resize_3/000009_2014-05-26_14-32-05_260595134347_rgbf000034-resize_3-target.png,250,3.8715,15,3805,246,feet,jsons/v1_VE250_randls_72.json,656519,1003497,39,Man
73,182081,DepthScenes,duration_manipulation_targetAtFixation,jsons/v1_VE250_randls_72.json,http://54.235.29.9/FacialAge/BNav_EC2/DepthDuration/v2_depth_duration_MTurk/v2_DepthDuration_HTML.html#191,191,1366,768,1366,768,9-19-2022,13-59-33,74,depth_duration_stimuli/001828_2014-06-26_21-40-03_260595134347_rgbf000024-resize_0/001828_2014-06-26_21-40-03_260595134347_rgbf000024-resize_0-target.png,250,4.8260000000000005,15,3016,255,feet,jsons/v1_VE250_randls_72.json,656519,1003497,39,Man
74,182081,DepthScenes,duration_manipulation_targetAtFixation,jsons/v1_VE250_randls_72.json,http://54.235.29.9/FacialAge/BNav_EC2/DepthDuration/v2_depth_duration_MTurk/v2_DepthDuration_HTML.html#191,191,1366,768,1366,768,9-19-2022,13-59-33,75,depth_duration_stimuli/000642_2014-06-08_16-59-25_260595134347_rgbf000098-resize_2/000642_2014-06-08_16-59-25_260595134347_rgbf000098-resize_2-target.png,250,2.8815,12,3291,263,feet,jsons/v1_VE250_randls_72.json,656519,1003497,39,Man
75,182081,DepthScenes,duration_manipulation_targetAtFixation,jsons/v1_VE250_randls_72.json,http://54.235.29.9/FacialAge/BNav_EC2/DepthDuration/v2_depth_duration_MTurk/v2_DepthDuration_HTML.html#191,191,1366,768,1366,768,9-19-2022,13-59-33,76,depth_duration_stimuli/002425_2014-06-28_20-27-29_260595134347_rgbf000031-resize_8/002425_2014-06-28_20-27-29_260595134347_rgbf000031-resize_8-target.png,250,3.8960000000000004,15,4618,260,feet,jsons/v1_VE250_randls_72.json,656519,1003497,39,Man
76,182081,DepthScenes,duration_manipulation_targetAtFixation,jsons/v1_VE250_randls_72.json,http://54.235.29.9/FacialAge/BNav_EC2/DepthDuration/v2_depth_duration_MTurk/v2_DepthDuration_HTML.html#191,191,1366,768,1366,768,9-19-2022,13-59-33,77,depth_duration_stimuli/002630_2014-06-24_14-47-50_094959634447_rgbf000055-resize_1/002630_2014-06-24_14-47-50_094959634447_rgbf000055-resize_1-target.png,250,3.0095,25,3676,250,feet,jsons/v1_VE250_randls_72.json,656519,1003497,39,Man
77,182081,DepthScenes,duration_manipulation_targetAtFixation,jsons/v1_VE250_randls_72.json,http://54.235.29.9/FacialAge/BNav_EC2/DepthDuration/v2_depth_duration_MTurk/v2_DepthDuration_HTML.html#191,191,1366,768,1366,768,9-19-2022,13-59-33,78,depth_duration_stimuli/002758_2014-06-22_19-11-20_094959634447_rgbf000128-resize_1/002758_2014-06-22_19-11-20_094959634447_rgbf000128-resize_1-target.png,250,2.555,6,2946,249,feet,jsons/v1_VE250_randls_72.json,656519,1003497,39,Man
78,182081,DepthScenes,duration_manipulation_targetAtFixation,jsons/v1_VE250_randls_72.json,http://54.235.29.9/FacialAge/BNav_EC2/DepthDuration/v2_depth_duration_MTurk/v2_DepthDuration_HTML.html#191,191,1366,768,1366,768,9-19-2022,13-59-33,79,depth_duration_stimuli/002118_2014-06-25_20-32-08_260595134347_rgbf000078-resize_1/002118_2014-06-25_20-32-08_260595134347_rgbf000078-resize_1-target.png,250,2.6460000000000004,5,2734,247,feet,jsons/v1_VE250_randls_72.json,656519,1003497,39,Man
79,182081,DepthScenes,duration_manipulation_targetAtFixation,jsons/v1_VE250_randls_72.json,http://54.235.29.9/FacialAge/BNav_EC2/DepthDuration/v2_depth_duration_MTurk/v2_DepthDuration_HTML.html#191,191,1366,768,1366,768,9-19-2022,13-59-33,80,depth_duration_stimuli/001516_2014-06-20_16-25-09_260595134347_rgbf000076-resize_2/001516_2014-06-20_16-25-09_260595134347_rgbf000076-resize_2-target.png,250,1.7445,4,2506,237,feet,jsons/v1_VE250_randls_72.json,656519,1003497,39,Man
80,182081,DepthScenes,duration_manipulation_targetAtFixation,jsons/v1_VE250_randls_72.json,http://54.235.29.9/FacialAge/BNav_EC2/DepthDuration/v2_depth_duration_MTurk/v2_DepthDuration_HTML.html#191,191,1366,768,1366,768,9-19-2022,13-59-33,81,depth_duration_stimuli/001555_2014-06-20_17-12-10_260595134347_rgbf000065-resize_4/001555_2014-06-20_17-12-10_260595134347_rgbf000065-resize_4-target.png,250,1.633,3,2136,257,feet,jsons/v1_VE250_randls_72.json,656519,1003497,39,Man
81,182081,DepthScenes,duration_manipulation_targetAtFixation,jsons/v1_VE250_randls_72.json,http://54.235.29.9/FacialAge/BNav_EC2/DepthDuration/v2_depth_duration_MTurk/v2_DepthDuration_HTML.html#191,191,1366,768,1366,768,9-19-2022,13-59-33,82,depth_duration_stimuli/000103_2014-05-14_22-01-17_260595134347_rgbf000152-resize_5/000103_2014-05-14_22-01-17_260595134347_rgbf000152-resize_5-target.png,250,1.993,6,2908,263,feet,jsons/v1_VE250_randls_72.json,656519,1003497,39,Man
82,182081,DepthScenes,duration_manipulation_targetAtFixation,jsons/v1_VE250_randls_72.json,http://54.235.29.9/FacialAge/BNav_EC2/DepthDuration/v2_depth_duration_MTurk/v2_DepthDuration_HTML.html#191,191,1366,768,1366,768,9-19-2022,13-59-33,83,depth_duration_stimuli/001029_2014-06-08_13-17-57_260595134347_rgbf000065-resize_1/001029_2014-06-08_13-17-57_260595134347_rgbf000065-resize_1-target.png,250,3.0835,7,2521,244,feet,jsons/v1_VE250_randls_72.json,656519,1003497,39,Man
83,182081,DepthScenes,duration_manipulation_targetAtFixation,jsons/v1_VE250_randls_72.json,http://54.235.29.9/FacialAge/BNav_EC2/DepthDuration/v2_depth_duration_MTurk/v2_DepthDuration_HTML.html#191,191,1366,768,1366,768,9-19-2022,13-59-33,84,depth_duration_stimuli/000677_2014-06-08_23-10-32_260595134347_rgbf000158-resize_6/000677_2014-06-08_23-10-32_260595134347_rgbf000158-resize_6-target.png,250,3.556,8,2610,262,feet,jsons/v1_VE250_randls_72.json,656519,1003497,39,Man
84,182081,DepthScenes,duration_manipulation_targetAtFixation,jsons/v1_VE250_randls_72.json,http://54.235.29.9/FacialAge/BNav_EC2/DepthDuration/v2_depth_duration_MTurk/v2_DepthDuration_HTML.html#191,191,1366,768,1366,768,9-19-2022,13-59-33,85,depth_duration_stimuli/003070_2014-06-15_14-58-27_094959634447_rgbf000150-resize_3/003070_2014-06-15_14-58-27_094959634447_rgbf000150-resize_3-target.png,250,2.9415,8,2804,257,feet,jsons/v1_VE250_randls_72.json,656519,1003497,39,Man
85,182081,DepthScenes,duration_manipulation_targetAtFixation,jsons/v1_VE250_randls_72.json,http://54.235.29.9/FacialAge/BNav_EC2/DepthDuration/v2_depth_duration_MTurk/v2_DepthDuration_HTML.html#191,191,1366,768,1366,768,9-19-2022,13-59-33,86,depth_duration_stimuli/000943_2014-06-09_19-31-07_260595134347_rgbf000128-resize_1/000943_2014-06-09_19-31-07_260595134347_rgbf000128-resize_1-target.png,250,1.9765,5,2393,261,feet,jsons/v1_VE250_randls_72.json,656519,1003497,39,Man
86,182081,DepthScenes,duration_manipulation_targetAtFixation,jsons/v1_VE250_randls_72.json,http://54.235.29.9/FacialAge/BNav_EC2/DepthDuration/v2_depth_duration_MTurk/v2_DepthDuration_HTML.html#191,191,1366,768,1366,768,9-19-2022,13-59-33,87,depth_duration_stimuli/000506_2014-06-08_23-21-00_260595134347_rgbf000070-resize_7/000506_2014-06-08_23-21-00_260595134347_rgbf000070-resize_7-target.png,250,4.0585,10,3056,253,feet,jsons/v1_VE250_randls_72.json,656519,1003497,39,Man
87,182081,DepthScenes,duration_manipulation_targetAtFixation,jsons/v1_VE250_randls_72.json,http://54.235.29.9/FacialAge/BNav_EC2/DepthDuration/v2_depth_duration_MTurk/v2_DepthDuration_HTML.html#191,191,1366,768,1366,768,9-19-2022,13-59-33,88,depth_duration_stimuli/003079_2014-06-15_15-18-20_094959634447_rgbf000152-resize_8/003079_2014-06-15_15-18-20_094959634447_rgbf000152-resize_8-target.png,250,2.8775,12,3522,248,feet,jsons/v1_VE250_randls_72.json,656519,1003497,39,Man
88,182081,DepthScenes,duration_manipulation_targetAtFixation,jsons/v1_VE250_randls_72.json,http://54.235.29.9/FacialAge/BNav_EC2/DepthDuration/v2_depth_duration_MTurk/v2_DepthDuration_HTML.html#191,191,1366,768,1366,768,9-19-2022,13-59-33,89,depth_duration_stimuli/001158_2014-06-17_15-32-16_260595134347_rgbf000138-resize_2/001158_2014-06-17_15-32-16_260595134347_rgbf000138-resize_2-target.png,250,4.5315,25,4258,266,feet,jsons/v1_VE250_randls_72.json,656519,1003497,39,Man
89,182081,DepthScenes,duration_manipulation_targetAtFixation,jsons/v1_VE250_randls_72.json,http://54.235.29.9/FacialAge/BNav_EC2/DepthDuration/v2_depth_duration_MTurk/v2_DepthDuration_HTML.html#191,191,1366,768,1366,768,9-19-2022,13-59-33,90,depth_duration_stimuli/000556_2014-06-09_22-42-56_260595134347_rgbf000214-resize_1/000556_2014-06-09_22-42-56_260595134347_rgbf000214-resize_1-target.png,250,4.8415,20,2761,248,feet,jsons/v1_VE250_randls_72.json,656519,1003497,39,Man
90,182081,DepthScenes,duration_manipulation_targetAtFixation,jsons/v1_VE250_randls_72.json,http://54.235.29.9/FacialAge/BNav_EC2/DepthDuration/v2_depth_duration_MTurk/v2_DepthDuration_HTML.html#191,191,1366,768,1366,768,9-19-2022,13-59-33,91,depth_duration_stimuli/002153_2014-06-25_21-27-18_260595134347_rgbf000038-resize_5/002153_2014-06-25_21-27-18_260595134347_rgbf000038-resize_5-target.png,250,2.505,10,3234,254,feet,jsons/v1_VE250_randls_72.json,656519,1003497,39,Man
91,182081,DepthScenes,duration_manipulation_targetAtFixation,jsons/v1_VE250_randls_72.json,http://54.235.29.9/FacialAge/BNav_EC2/DepthDuration/v2_depth_duration_MTurk/v2_DepthDuration_HTML.html#191,191,1366,768,1366,768,9-19-2022,13-59-33,92,depth_duration_stimuli/002660_2014-06-13_15-44-18_094959634447_rgbf001878-resize_2/002660_2014-06-13_15-44-18_094959634447_rgbf001878-resize_2-target.png,250,3.576,15,2855,231,feet,jsons/v1_VE250_randls_72.json,656519,1003497,39,Man
92,182081,DepthScenes,duration_manipulation_targetAtFixation,jsons/v1_VE250_randls_72.json,http://54.235.29.9/FacialAge/BNav_EC2/DepthDuration/v2_depth_duration_MTurk/v2_DepthDuration_HTML.html#191,191,1366,768,1366,768,9-19-2022,13-59-33,93,depth_duration_stimuli/002905_2014-06-03_18-04-43_094959634447_rgbf000151-resize_2/002905_2014-06-03_18-04-43_094959634447_rgbf000151-resize_2-target.png,250,2.0295,6,3517,237,feet,jsons/v1_VE250_randls_72.json,656519,1003497,39,Man
93,182081,DepthScenes,duration_manipulation_targetAtFixation,jsons/v1_VE250_randls_72.json,http://54.235.29.9/FacialAge/BNav_EC2/DepthDuration/v2_depth_duration_MTurk/v2_DepthDuration_HTML.html#191,191,1366,768,1366,768,9-19-2022,13-59-33,94,depth_duration_stimuli/003423_2014-05-21_10-23-26_094959634447_rgbf002665-resize_2/003423_2014-05-21_10-23-26_094959634447_rgbf002665-resize_2-target.png,250,3.2575,35,3321,253,feet,jsons/v1_VE250_randls_72.json,656519,1003497,39,Man
94,182081,DepthScenes,duration_manipulation_targetAtFixation,jsons/v1_VE250_randls_72.json,http://54.235.29.9/FacialAge/BNav_EC2/DepthDuration/v2_depth_duration_MTurk/v2_DepthDuration_HTML.html#191,191,1366,768,1366,768,9-19-2022,13-59-33,95,depth_duration_stimuli/000736_2014-06-08_18-24-15_260595134347_rgbf000206-resize_3/000736_2014-06-08_18-24-15_260595134347_rgbf000206-resize_3-target.png,250,3.515,12,4596,231,feet,jsons/v1_VE250_randls_72.json,656519,1003497,39,Man
95,182081,DepthScenes,duration_manipulation_targetAtFixation,jsons/v1_VE250_randls_72.json,http://54.235.29.9/FacialAge/BNav_EC2/DepthDuration/v2_depth_duration_MTurk/v2_DepthDuration_HTML.html#191,191,1366,768,1366,768,9-19-2022,13-59-33,96,depth_duration_stimuli/000137_2014-05-20_17-04-49_260595134347_rgbf000120-resize_1/000137_2014-05-20_17-04-49_260595134347_rgbf000120-resize_1-target.png,250,3.786,10,2773,246,feet,jsons/v1_VE250_randls_72.json,656519,1003497,39,Man
96,182081,DepthScenes,duration_manipulation_targetAtFixation,jsons/v1_VE250_randls_72.json,http://54.235.29.9/FacialAge/BNav_EC2/DepthDuration/v2_depth_duration_MTurk/v2_DepthDuration_HTML.html#191,191,1366,768,1366,768,9-19-2022,13-59-33,97,depth_duration_stimuli/002043_2014-06-24_20-29-38_260595134347_rgbf000039-resize_4/002043_2014-06-24_20-29-38_260595134347_rgbf000039-resize_4-target.png,250,2.8435,8,2808,260,feet,jsons/v1_VE250_randls_72.json,656519,1003497,39,Man
97,182081,DepthScenes,duration_manipulation_targetAtFixation,jsons/v1_VE250_randls_72.json,http://54.235.29.9/FacialAge/BNav_EC2/DepthDuration/v2_depth_duration_MTurk/v2_DepthDuration_HTML.html#191,191,1366,768,1366,768,9-19-2022,13-59-33,98,depth_duration_stimuli/003048_2014-06-15_13-49-43_094959634447_rgbf000150-resize_1/003048_2014-06-15_13-49-43_094959634447_rgbf000150-resize_1-target.png,250,4.0035,15,3810,247,feet,jsons/v1_VE250_randls_72.json,656519,1003497,39,Man
98,182081,DepthScenes,duration_manipulation_targetAtFixation,jsons/v1_VE250_randls_72.json,http://54.235.29.9/FacialAge/BNav_EC2/DepthDuration/v2_depth_duration_MTurk/v2_DepthDuration_HTML.html#191,191,1366,768,1366,768,9-19-2022,13-59-33,99,depth_duration_stimuli/001540_2014-06-20_17-01-05_260595134347_rgbf000086-resize_2/001540_2014-06-20_17-01-05_260595134347_rgbf000086-resize-original.jpg,250,1.459,0,3281,262,feet,jsons/v1_VE250_randls_72.json,656519,1003497,39,Man
99,182081,DepthScenes,duration_manipulation_targetAtFixation,jsons/v1_VE250_randls_72.json,http://54.235.29.9/FacialAge/BNav_EC2/DepthDuration/v2_depth_duration_MTurk/v2_DepthDuration_HTML.html#191,191,1366,768,1366,768,9-19-2022,13-59-33,100,depth_duration_stimuli/002600_2014-06-24_14-27-04_094959634447_rgbf000074-resize_2/002600_2014-06-24_14-27-04_094959634447_rgbf000074-resize_2-target.png,250,2.7575,10,3362,246,feet,jsons/v1_VE250_randls_72.json,656519,1003497,39,Man
100,182081,DepthScenes,duration_manipulation_targetAtFixation,jsons/v1_VE250_randls_72.json,http://54.235.29.9/FacialAge/BNav_EC2/DepthDuration/v2_depth_duration_MTurk/v2_DepthDuration_HTML.html#191,191,1366,768,1366,768,9-19-2022,13-59-33,101,depth_duration_stimuli/003228_2014-05-14_13-42-35_094959634447_rgbf000101-resize_1/003228_2014-05-14_13-42-35_094959634447_rgbf000101-resize_1-target.png,250,1.9680000000000002,3,2796,252,feet,jsons/v1_VE250_randls_72.json,656519,1003497,39,Man
101,182081,DepthScenes,duration_manipulation_targetAtFixation,jsons/v1_VE250_randls_72.json,http://54.235.29.9/FacialAge/BNav_EC2/DepthDuration/v2_depth_duration_MTurk/v2_DepthDuration_HTML.html#191,191,1366,768,1366,768,9-19-2022,13-59-33,102,depth_duration_stimuli/002445_2014-06-28_20-32-16_260595134347_rgbf000029-resize_4/002445_2014-06-28_20-32-16_260595134347_rgbf000029-resize_4-target.png,250,2.5315,5,2601,253,feet,jsons/v1_VE250_randls_72.json,656519,1003497,39,Man
102,182081,DepthScenes,duration_manipulation_targetAtFixation,jsons/v1_VE250_randls_72.json,http://54.235.29.9/FacialAge/BNav_EC2/DepthDuration/v2_depth_duration_MTurk/v2_DepthDuration_HTML.html#191,191,1366,768,1366,768,9-19-2022,13-59-33,103,depth_duration_stimuli/000780_2014-06-08_22-28-29_260595134347_rgbf000126-resize_1/000780_2014-06-08_22-28-29_260595134347_rgbf000126-resize_1-target.png,250,3.3825,15,3663,256,feet,jsons/v1_VE250_randls_72.json,656519,1003497,39,Man
103,182081,DepthScenes,duration_manipulation_targetAtFixation,jsons/v1_VE250_randls_72.json,http://54.235.29.9/FacialAge/BNav_EC2/DepthDuration/v2_depth_duration_MTurk/v2_DepthDuration_HTML.html#191,191,1366,768,1366,768,9-19-2022,13-59-33,104,depth_duration_stimuli/002039_2014-06-24_20-22-38_260595134347_rgbf000084-resize_1/002039_2014-06-24_20-22-38_260595134347_rgbf000084-resize_1-target.png,250,4.408,20,3127,253,feet,jsons/v1_VE250_randls_72.json,656519,1003497,39,Man
104,182081,DepthScenes,duration_manipulation_targetAtFixation,jsons/v1_VE250_randls_72.json,http://54.235.29.9/FacialAge/BNav_EC2/DepthDuration/v2_depth_duration_MTurk/v2_DepthDuration_HTML.html#191,191,1366,768,1366,768,9-19-2022,13-59-33,105,depth_duration_stimuli/002103_2014-06-25_20-00-40_260595134347_rgbf000049-resize_0/002103_2014-06-25_20-00-40_260595134347_rgbf000049-resize_0-target.png,250,4.105,30,3282,263,feet,jsons/v1_VE250_randls_72.json,656519,1003497,39,Man
105,182081,DepthScenes,duration_manipulation_targetAtFixation,jsons/v1_VE250_randls_72.json,http://54.235.29.9/FacialAge/BNav_EC2/DepthDuration/v2_depth_duration_MTurk/v2_DepthDuration_HTML.html#191,191,1366,768,1366,768,9-19-2022,13-59-33,106,depth_duration_stimuli/002788_2014-06-22_19-36-03_094959634447_rgbf000088-resize_2/002788_2014-06-22_19-36-03_094959634447_rgbf000088-resize_2-target.png,250,1.6465,12,2545,253,feet,jsons/v1_VE250_randls_72.json,656519,1003497,39,Man
106,182081,DepthScenes,duration_manipulation_targetAtFixation,jsons/v1_VE250_randls_72.json,http://54.235.29.9/FacialAge/BNav_EC2/DepthDuration/v2_depth_duration_MTurk/v2_DepthDuration_HTML.html#191,191,1366,768,1366,768,9-19-2022,13-59-33,107,depth_duration_stimuli/000749_2014-06-08_21-55-06_260595134347_rgbf000070-resize_2/000749_2014-06-08_21-55-06_260595134347_rgbf000070-resize_2-target.png,250,2.331,8,2684,246,feet,jsons/v1_VE250_randls_72.json,656519,1003497,39,Man
107,182081,DepthScenes,duration_manipulation_targetAtFixation,jsons/v1_VE250_randls_72.json,http://54.235.29.9/FacialAge/BNav_EC2/DepthDuration/v2_depth_duration_MTurk/v2_DepthDuration_HTML.html#191,191,1366,768,1366,768,9-19-2022,13-59-33,108,depth_duration_stimuli/000692_2014-06-08_13-09-42_260595134347_rgbf000199-resize_2/000692_2014-06-08_13-09-42_260595134347_rgbf000199-resize_2-target.png,250,3.661,30,3166,256,feet,jsons/v1_VE250_randls_72.json,656519,1003497,39,Man
108,182081,DepthScenes,duration_manipulation_targetAtFixation,jsons/v1_VE250_randls_72.json,http://54.235.29.9/FacialAge/BNav_EC2/DepthDuration/v2_depth_duration_MTurk/v2_DepthDuration_HTML.html#191,191,1366,768,1366,768,9-19-2022,13-59-33,109,depth_duration_stimuli/001094_2014-06-15_17-36-00_260595134347_rgbf000205-resize_0/001094_2014-06-15_17-36-00_260595134347_rgbf000205-resize_0-target.png,250,4.2175,20,3526,230,feet,jsons/v1_VE250_randls_72.json,656519,1003497,39,Man
109,182081,DepthScenes,duration_manipulation_targetAtFixation,jsons/v1_VE250_randls_72.json,http://54.235.29.9/FacialAge/BNav_EC2/DepthDuration/v2_depth_duration_MTurk/v2_DepthDuration_HTML.html#191,191,1366,768,1366,768,9-19-2022,13-59-33,110,depth_duration_stimuli/002509_2014-06-24_13-19-22_094959634447_rgbf000077-resize_0/002509_2014-06-24_13-19-22_094959634447_rgbf000077-resize_0-target.png,250,1.3065,5,2879,246,feet,jsons/v1_VE250_randls_72.json,656519,1003497,39,Man
110,182081,DepthScenes,duration_manipulation_targetAtFixation,jsons/v1_VE250_randls_72.json,http://54.235.29.9/FacialAge/BNav_EC2/DepthDuration/v2_depth_duration_MTurk/v2_DepthDuration_HTML.html#191,191,1366,768,1366,768,9-19-2022,13-59-33,111,depth_duration_stimuli/003338_2014-05-20_11-01-23_094959634447_rgbf000051-resize_6/003338_2014-05-20_11-01-23_094959634447_rgbf000051-resize_6-target.png,250,1.693,4,2110,252,feet,jsons/v1_VE250_randls_72.json,656519,1003497,39,Man
111,182081,DepthScenes,duration_manipulation_targetAtFixation,jsons/v1_VE250_randls_72.json,http://54.235.29.9/FacialAge/BNav_EC2/DepthDuration/v2_depth_duration_MTurk/v2_DepthDuration_HTML.html#191,191,1366,768,1366,768,9-19-2022,13-59-33,112,depth_duration_stimuli/000906_2014-06-08_13-35-43_260595134347_rgbf000155-resize_1/000906_2014-06-08_13-35-43_260595134347_rgbf000155-resize_1-target.png,250,2.8489999999999998,15,2931,249,feet,jsons/v1_VE250_randls_72.json,656519,1003497,39,Man
112,182081,DepthScenes,duration_manipulation_targetAtFixation,jsons/v1_VE250_randls_72.json,http://54.235.29.9/FacialAge/BNav_EC2/DepthDuration/v2_depth_duration_MTurk/v2_DepthDuration_HTML.html#191,191,1366,768,1366,768,9-19-2022,13-59-33,113,depth_duration_stimuli/002805_2014-06-22_19-54-03_094959634447_rgbf000079-resize_1/002805_2014-06-22_19-54-03_094959634447_rgbf000079-resize_1-target.png,250,3.1439999999999997,20,6569,247,feet,jsons/v1_VE250_randls_72.json,656519,1003497,39,Man
113,182081,DepthScenes,duration_manipulation_targetAtFixation,jsons/v1_VE250_randls_72.json,http://54.235.29.9/FacialAge/BNav_EC2/DepthDuration/v2_depth_duration_MTurk/v2_DepthDuration_HTML.html#191,191,1366,768,1366,768,9-19-2022,13-59-33,114,depth_duration_stimuli/001244_2014-06-17_16-47-45_260595134347_rgbf000030-resize_4/001244_2014-06-17_16-47-45_260595134347_rgbf000030-resize_4-target.png,250,2.0425,6,3041,255,feet,jsons/v1_VE250_randls_72.json,656519,1003497,39,Man
114,182081,DepthScenes,duration_manipulation_targetAtFixation,jsons/v1_VE250_randls_72.json,http://54.235.29.9/FacialAge/BNav_EC2/DepthDuration/v2_depth_duration_MTurk/v2_DepthDuration_HTML.html#191,191,1366,768,1366,768,9-19-2022,13-59-33,115,depth_duration_stimuli/003495_2014-05-21_16-01-51_094959634447_rgbf000100-resize_3/003495_2014-05-21_16-01-51_094959634447_rgbf000100-resize_3-target.png,250,1.6255,5,2664,258,feet,jsons/v1_VE250_randls_72.json,656519,1003497,39,Man
115,182081,DepthScenes,duration_manipulation_targetAtFixation,jsons/v1_VE250_randls_72.json,http://54.235.29.9/FacialAge/BNav_EC2/DepthDuration/v2_depth_duration_MTurk/v2_DepthDuration_HTML.html#191,191,1366,768,1366,768,9-19-2022,13-59-33,116,depth_duration_stimuli/001170_2014-06-17_15-43-44_260595134347_rgbf000096-resize_6/001170_2014-06-17_15-43-44_260595134347_rgbf000096-resize-original.jpg,250,1.1909999999999998,0,2838,247,feet,jsons/v1_VE250_randls_72.json,656519,1003497,39,Man
116,182081,DepthScenes,duration_manipulation_targetAtFixation,jsons/v1_VE250_randls_72.json,http://54.235.29.9/FacialAge/BNav_EC2/DepthDuration/v2_depth_duration_MTurk/v2_DepthDuration_HTML.html#191,191,1366,768,1366,768,9-19-2022,13-59-33,117,depth_duration_stimuli/003534_2014-05-22_15-06-10_094959634447_rgbf000102-resize_4/003534_2014-05-22_15-06-10_094959634447_rgbf000102-resize_4-target.png,250,1.426,3,4195,259,feet,jsons/v1_VE250_randls_72.json,656519,1003497,39,Man
117,182081,DepthScenes,duration_manipulation_targetAtFixation,jsons/v1_VE250_randls_72.json,http://54.235.29.9/FacialAge/BNav_EC2/DepthDuration/v2_depth_duration_MTurk/v2_DepthDuration_HTML.html#191,191,1366,768,1366,768,9-19-2022,13-59-33,118,depth_duration_stimuli/002637_2014-06-24_14-51-13_094959634447_rgbf000066-resize_4/002637_2014-06-24_14-51-13_094959634447_rgbf000066-resize_4-target.png,250,1.9955,8,2875,259,feet,jsons/v1_VE250_randls_72.json,656519,1003497,39,Man
118,182081,DepthScenes,duration_manipulation_targetAtFixation,jsons/v1_VE250_randls_72.json,http://54.235.29.9/FacialAge/BNav_EC2/DepthDuration/v2_depth_duration_MTurk/v2_DepthDuration_HTML.html#191,191,1366,768,1366,768,9-19-2022,13-59-33,119,depth_duration_stimuli/002279_2014-06-28_18-55-32_260595134347_rgbf000040-resize_5/002279_2014-06-28_18-55-32_260595134347_rgbf000040-resize_5-target.png,250,1.5043333333333,4,2688,244,feet,jsons/v1_VE250_randls_72.json,656519,1003497,39,Man
119,182081,DepthScenes,duration_manipulation_targetAtFixation,jsons/v1_VE250_randls_72.json,http://54.235.29.9/FacialAge/BNav_EC2/DepthDuration/v2_depth_duration_MTurk/v2_DepthDuration_HTML.html#191,191,1366,768,1366,768,9-19-2022,13-59-33,120,depth_duration_stimuli/000635_2014-06-08_16-38-42_260595134347_rgbf000106-resize_1/000635_2014-06-08_16-38-42_260595134347_rgbf000106-resize_1-target.png,250,2.074,12,2760,247,feet,jsons/v1_VE250_randls_72.json,656519,1003497,39,Man
120,182081,DepthScenes,duration_manipulation_targetAtFixation,jsons/v1_VE250_randls_72.json,http://54.235.29.9/FacialAge/BNav_EC2/DepthDuration/v2_depth_duration_MTurk/v2_DepthDuration_HTML.html#191,191,1366,768,1366,768,9-19-2022,13-59-33,121,depth_duration_stimuli/002272_2014-06-28_18-53-56_260595134347_rgbf000067-resize_2/002272_2014-06-28_18-53-56_260595134347_rgbf000067-resize_2-target.png,250,1.138,3,2756,246,feet,jsons/v1_VE250_randls_72.json,656519,1003497,39,Man
121,182081,DepthScenes,duration_manipulation_targetAtFixation,jsons/v1_VE250_randls_72.json,http://54.235.29.9/FacialAge/BNav_EC2/DepthDuration/v2_depth_duration_MTurk/v2_DepthDuration_HTML.html#191,191,1366,768,1366,768,9-19-2022,13-59-33,122,depth_duration_stimuli/001571_2014-06-20_17-21-32_260595134347_rgbf000089-resize_1/001571_2014-06-20_17-21-32_260595134347_rgbf000089-resize_1-target.png,250,1.86,4,3249,253,feet,jsons/v1_VE250_randls_72.json,656519,1003497,39,Man
122,182081,DepthScenes,duration_manipulation_targetAtFixation,jsons/v1_VE250_randls_72.json,http://54.235.29.9/FacialAge/BNav_EC2/DepthDuration/v2_depth_duration_MTurk/v2_DepthDuration_HTML.html#191,191,1366,768,1366,768,9-19-2022,13-59-33,123,depth_duration_stimuli/001011_2014-06-08_23-18-54_260595134347_rgbf000044-resize_4/001011_2014-06-08_23-18-54_260595134347_rgbf000044-resize_4-target.png,250,2.4730000000000003,12,3231,245,feet,jsons/v1_VE250_randls_72.json,656519,1003497,39,Man
123,182081,DepthScenes,duration_manipulation_targetAtFixation,jsons/v1_VE250_randls_72.json,http://54.235.29.9/FacialAge/BNav_EC2/DepthDuration/v2_depth_duration_MTurk/v2_DepthDuration_HTML.html#191,191,1366,768,1366,768,9-19-2022,13-59-33,124,depth_duration_stimuli/002875_2014-06-01_15-19-00_094959634447_rgbf000151-resize_1/002875_2014-06-01_15-19-00_094959634447_rgbf000151-resize_1-target.png,250,1.9675,9,4365,254,feet,jsons/v1_VE250_randls_72.json,656519,1003497,39,Man
124,182081,DepthScenes,duration_manipulation_targetAtFixation,jsons/v1_VE250_randls_72.json,http://54.235.29.9/FacialAge/BNav_EC2/DepthDuration/v2_depth_duration_MTurk/v2_DepthDuration_HTML.html#191,191,1366,768,1366,768,9-19-2022,13-59-33,125,depth_duration_stimuli/000773_2014-06-08_22-24-54_260595134347_rgbf000093-resize_1/000773_2014-06-08_22-24-54_260595134347_rgbf000093-resize_1-target.png,250,4.973,15,4518,237,feet,jsons/v1_VE250_randls_72.json,656519,1003497,39,Man
125,182081,DepthScenes,duration_manipulation_targetAtFixation,jsons/v1_VE250_randls_72.json,http://54.235.29.9/FacialAge/BNav_EC2/DepthDuration/v2_depth_duration_MTurk/v2_DepthDuration_HTML.html#191,191,1366,768,1366,768,9-19-2022,13-59-33,126,depth_duration_stimuli/002414_2014-06-28_20-24-58_260595134347_rgbf000067-resize_4/002414_2014-06-28_20-24-58_260595134347_rgbf000067-resize_4-target.png,250,4.363,13,6845,248,feet,jsons/v1_VE250_randls_72.json,656519,1003497,39,Man
126,182081,DepthScenes,duration_manipulation_targetAtFixation,jsons/v1_VE250_randls_72.json,http://54.235.29.9/FacialAge/BNav_EC2/DepthDuration/v2_depth_duration_MTurk/v2_DepthDuration_HTML.html#191,191,1366,768,1366,768,9-19-2022,13-59-33,127,depth_duration_stimuli/001055_2014-06-08_18-45-35_260595134347_rgbf000111-resize_4/001055_2014-06-08_18-45-35_260595134347_rgbf000111-resize_4-target.png,250,2.4290000000000003,15,4661,247,feet,jsons/v1_VE250_randls_72.json,656519,1003497,39,Man
127,182081,DepthScenes,duration_manipulation_targetAtFixation,jsons/v1_VE250_randls_72.json,http://54.235.29.9/FacialAge/BNav_EC2/DepthDuration/v2_depth_duration_MTurk/v2_DepthDuration_HTML.html#191,191,1366,768,1366,768,9-19-2022,13-59-33,128,depth_duration_stimuli/000549_2014-06-08_22-10-24_260595134347_rgbf000247-resize_3/000549_2014-06-08_22-10-24_260595134347_rgbf000247-resize_3-target.png,250,1.841,5,2606,253,feet,jsons/v1_VE250_randls_72.json,656519,1003497,39,Man
128,182081,DepthScenes,duration_manipulation_targetAtFixation,jsons/v1_VE250_randls_72.json,http://54.235.29.9/FacialAge/BNav_EC2/DepthDuration/v2_depth_duration_MTurk/v2_DepthDuration_HTML.html#191,191,1366,768,1366,768,9-19-2022,13-59-33,129,depth_duration_stimuli/000917_2014-06-09_22-45-29_260595134347_rgbf000149-resize_3/000917_2014-06-09_22-45-29_260595134347_rgbf000149-resize_3-target.png,250,4.1865,15,3819,248,feet,jsons/v1_VE250_randls_72.json,656519,1003497,39,Man
129,182081,DepthScenes,duration_manipulation_targetAtFixation,jsons/v1_VE250_randls_72.json,http://54.235.29.9/FacialAge/BNav_EC2/DepthDuration/v2_depth_duration_MTurk/v2_DepthDuration_HTML.html#191,191,1366,768,1366,768,9-19-2022,13-59-33,130,depth_duration_stimuli/002323_2014-06-28_20-01-54_260595134347_rgbf000051-resize_4/002323_2014-06-28_20-01-54_260595134347_rgbf000051-resize_4-target.png,250,3.7310000000000003,20,4448,244,feet,jsons/v1_VE250_randls_72.json,656519,1003497,39,Man
130,182081,DepthScenes,duration_manipulation_targetAtFixation,jsons/v1_VE250_randls_72.json,http://54.235.29.9/FacialAge/BNav_EC2/DepthDuration/v2_depth_duration_MTurk/v2_DepthDuration_HTML.html#191,191,1366,768,1366,768,9-19-2022,13-59-33,131,depth_duration_stimuli/002057_2014-06-24_21-00-13_260595134347_rgbf000120-resize_1/002057_2014-06-24_21-00-13_260595134347_rgbf000120-resize_1-target.png,250,2.967,10,5299,242,feet,jsons/v1_VE250_randls_72.json,656519,1003497,39,Man
131,182081,DepthScenes,duration_manipulation_targetAtFixation,jsons/v1_VE250_randls_72.json,http://54.235.29.9/FacialAge/BNav_EC2/DepthDuration/v2_depth_duration_MTurk/v2_DepthDuration_HTML.html#191,191,1366,768,1366,768,9-19-2022,13-59-33,132,depth_duration_stimuli/000709_2014-06-08_13-51-55_260595134347_rgbf000068-resize_3/000709_2014-06-08_13-51-55_260595134347_rgbf000068-resize_3-target.png,250,1.8030000000000002,8,3107,258,feet,jsons/v1_VE250_randls_72.json,656519,1003497,39,Man
132,182081,DepthScenes,duration_manipulation_targetAtFixation,jsons/v1_VE250_randls_72.json,http://54.235.29.9/FacialAge/BNav_EC2/DepthDuration/v2_depth_duration_MTurk/v2_DepthDuration_HTML.html#191,191,1366,768,1366,768,9-19-2022,13-59-33,133,depth_duration_stimuli/002989_2014-06-15_12-25-03_094959634447_rgbf000150-resize_3/002989_2014-06-15_12-25-03_094959634447_rgbf000150-resize_3-target.png,250,4.1975,20,3275,265,feet,jsons/v1_VE250_randls_72.json,656519,1003497,39,Man
133,182081,DepthScenes,duration_manipulation_targetAtFixation,jsons/v1_VE250_randls_72.json,http://54.235.29.9/FacialAge/BNav_EC2/DepthDuration/v2_depth_duration_MTurk/v2_DepthDuration_HTML.html#191,191,1366,768,1366,768,9-19-2022,13-59-33,134,depth_duration_stimuli/000866_2014-06-09_20-45-42_260595134347_rgbf000139-resize_1/000866_2014-06-09_20-45-42_260595134347_rgbf000139-resize_1-target.png,250,3.2155,10,5095,230,feet,jsons/v1_VE250_randls_72.json,656519,1003497,39,Man
134,182081,DepthScenes,duration_manipulation_targetAtFixation,jsons/v1_VE250_randls_72.json,http://54.235.29.9/FacialAge/BNav_EC2/DepthDuration/v2_depth_duration_MTurk/v2_DepthDuration_HTML.html#191,191,1366,768,1366,768,9-19-2022,13-59-33,135,depth_duration_stimuli/002072_2014-06-24_21-48-06_260595134347_rgbf000115-resize_0/002072_2014-06-24_21-48-06_260595134347_rgbf000115-resize-original.jpg,250,4.702,0,2872,246,feet,jsons/v1_VE250_randls_72.json,656519,1003497,39,Man
135,182081,DepthScenes,duration_manipulation_targetAtFixation,jsons/v1_VE250_randls_72.json,http://54.235.29.9/FacialAge/BNav_EC2/DepthDuration/v2_depth_duration_MTurk/v2_DepthDuration_HTML.html#191,191,1366,768,1366,768,9-19-2022,13-59-33,136,depth_duration_stimuli/001133_2014-06-17_14-49-16_260595134347_rgbf000100-resize_0/001133_2014-06-17_14-49-16_260595134347_rgbf000100-resize_0-target.png,250,4.2115,15,3422,247,feet,jsons/v1_VE250_randls_72.json,656519,1003497,39,Man
136,182081,DepthScenes,duration_manipulation_targetAtFixation,jsons/v1_VE250_randls_72.json,http://54.235.29.9/FacialAge/BNav_EC2/DepthDuration/v2_depth_duration_MTurk/v2_DepthDuration_HTML.html#191,191,1366,768,1366,768,9-19-2022,13-59-33,137,depth_duration_stimuli/001132_2014-06-17_14-48-54_260595134347_rgbf000100-resize_2/001132_2014-06-17_14-48-54_260595134347_rgbf000100-resize_2-target.png,250,3.753,12,4603,253,feet,jsons/v1_VE250_randls_72.json,656519,1003497,39,Man
137,182081,DepthScenes,duration_manipulation_targetAtFixation,jsons/v1_VE250_randls_72.json,http://54.235.29.9/FacialAge/BNav_EC2/DepthDuration/v2_depth_duration_MTurk/v2_DepthDuration_HTML.html#191,191,1366,768,1366,768,9-19-2022,13-59-33,138,depth_duration_stimuli/000469_2014-06-09_19-42-10_260595134347_rgbf000081-resize_1/000469_2014-06-09_19-42-10_260595134347_rgbf000081-resize_1-target.png,250,1.652,5,2401,247,feet,jsons/v1_VE250_randls_72.json,656519,1003497,39,Man
138,182081,DepthScenes,duration_manipulation_targetAtFixation,jsons/v1_VE250_randls_72.json,http://54.235.29.9/FacialAge/BNav_EC2/DepthDuration/v2_depth_duration_MTurk/v2_DepthDuration_HTML.html#191,191,1366,768,1366,768,9-19-2022,13-59-33,139,depth_duration_stimuli/000483_2014-06-09_20-41-45_260595134347_rgbf000116-resize_4/000483_2014-06-09_20-41-45_260595134347_rgbf000116-resize_4-target.png,250,1.337,4,2102,246,feet,jsons/v1_VE250_randls_72.json,656519,1003497,39,Man
139,182081,DepthScenes,duration_manipulation_targetAtFixation,jsons/v1_VE250_randls_72.json,http://54.235.29.9/FacialAge/BNav_EC2/DepthDuration/v2_depth_duration_MTurk/v2_DepthDuration_HTML.html#191,191,1366,768,1366,768,9-19-2022,13-59-33,140,depth_duration_stimuli/001417_2014-06-19_16-25-36_260595134347_rgbf000115-resize_5/001417_2014-06-19_16-25-36_260595134347_rgbf000115-resize_5-target.png,250,4.6255,25,10010,270,feet,jsons/v1_VE250_randls_72.json,656519,1003497,39,Man
140,182081,DepthScenes,duration_manipulation_targetAtFixation,jsons/v1_VE250_randls_72.json,http://54.235.29.9/FacialAge/BNav_EC2/DepthDuration/v2_depth_duration_MTurk/v2_DepthDuration_HTML.html#191,191,1366,768,1366,768,9-19-2022,13-59-33,141,depth_duration_stimuli/003081_2014-06-15_15-19-16_094959634447_rgbf000150-resize_1/003081_2014-06-15_15-19-16_094959634447_rgbf000150-resize_1-target.png,250,3.9125,20,4597,253,feet,jsons/v1_VE250_randls_72.json,656519,1003497,39,Man
141,182081,DepthScenes,duration_manipulation_targetAtFixation,jsons/v1_VE250_randls_72.json,http://54.235.29.9/FacialAge/BNav_EC2/DepthDuration/v2_depth_duration_MTurk/v2_DepthDuration_HTML.html#191,191,1366,768,1366,768,9-19-2022,13-59-33,142,depth_duration_stimuli/002375_2014-06-28_20-13-44_260595134347_rgbf000032-resize_1/002375_2014-06-28_20-13-44_260595134347_rgbf000032-resize_1-target.png,250,4.0175,12,4811,231,feet,jsons/v1_VE250_randls_72.json,656519,1003497,39,Man
142,182081,DepthScenes,duration_manipulation_targetAtFixation,jsons/v1_VE250_randls_72.json,http://54.235.29.9/FacialAge/BNav_EC2/DepthDuration/v2_depth_duration_MTurk/v2_DepthDuration_HTML.html#191,191,1366,768,1366,768,9-19-2022,13-59-33,143,depth_duration_stimuli/002657_2014-06-13_15-29-54_094959634447_rgbf000150-resize_1/002657_2014-06-13_15-29-54_094959634447_rgbf000150-resize_1-target.png,250,4.919,20,4034,268,feet,jsons/v1_VE250_randls_72.json,656519,1003497,39,Man
143,182081,DepthScenes,duration_manipulation_targetAtFixation,jsons/v1_VE250_randls_72.json,http://54.235.29.9/FacialAge/BNav_EC2/DepthDuration/v2_depth_duration_MTurk/v2_DepthDuration_HTML.html#191,191,1366,768,1366,768,9-19-2022,13-59-33,144,depth_duration_stimuli/000810_2014-06-08_17-20-01_260595134347_rgbf000105-resize_0/000810_2014-06-08_17-20-01_260595134347_rgbf000105-resize_0-target.png,250,1.4865,9,3687,252,feet,jsons/v1_VE250_randls_72.json,656519,1003497,39,Man
144,182081,DepthScenes,duration_manipulation_targetAtFixation,jsons/v1_VE250_randls_72.json,http://54.235.29.9/FacialAge/BNav_EC2/DepthDuration/v2_depth_duration_MTurk/v2_DepthDuration_HTML.html#191,191,1366,768,1366,768,9-19-2022,13-59-33,145,depth_duration_stimuli/001214_2014-06-17_16-13-55_260595134347_rgbf000111-resize_0/001214_2014-06-17_16-13-55_260595134347_rgbf000111-resize_0-target.png,250,2.6505,10,5518,255,feet,jsons/v1_VE250_randls_72.json,656519,1003497,39,Man
145,182081,DepthScenes,duration_manipulation_targetAtFixation,jsons/v1_VE250_randls_72.json,http://54.235.29.9/FacialAge/BNav_EC2/DepthDuration/v2_depth_duration_MTurk/v2_DepthDuration_HTML.html#191,191,1366,768,1366,768,9-19-2022,13-59-33,146,depth_duration_stimuli/001498_2014-06-19_17-45-14_260595134347_rgbf000129-resize_4/001498_2014-06-19_17-45-14_260595134347_rgbf000129-resize-original.jpg,250,1.4075,0,3210,248,feet,jsons/v1_VE250_randls_72.json,656519,1003497,39,Man
146,182081,DepthScenes,duration_manipulation_targetAtFixation,jsons/v1_VE250_randls_72.json,http://54.235.29.9/FacialAge/BNav_EC2/DepthDuration/v2_depth_duration_MTurk/v2_DepthDuration_HTML.html#191,191,1366,768,1366,768,9-19-2022,13-59-33,147,depth_duration_stimuli/002570_2014-06-24_13-59-54_094959634447_rgbf000059-resize_0/002570_2014-06-24_13-59-54_094959634447_rgbf000059-resize_0-target.png,250,4.037,8,2664,247,feet,jsons/v1_VE250_randls_72.json,656519,1003497,39,Man
147,182081,DepthScenes,duration_manipulation_targetAtFixation,jsons/v1_VE250_randls_72.json,http://54.235.29.9/FacialAge/BNav_EC2/DepthDuration/v2_depth_duration_MTurk/v2_DepthDuration_HTML.html#191,191,1366,768,1366,768,9-19-2022,13-59-33,148,depth_duration_stimuli/002467_2014-06-28_20-38-07_260595134347_rgbf000026-resize_2/002467_2014-06-28_20-38-07_260595134347_rgbf000026-resize_2-target.png,250,4.742,25,4110,251,feet,jsons/v1_VE250_randls_72.json,656519,1003497,39,Man
148,182081,DepthScenes,duration_manipulation_targetAtFixation,jsons/v1_VE250_randls_72.json,http://54.235.29.9/FacialAge/BNav_EC2/DepthDuration/v2_depth_duration_MTurk/v2_DepthDuration_HTML.html#191,191,1366,768,1366,768,9-19-2022,13-59-33,149,depth_duration_stimuli/001066_2014-06-08_22-03-20_260595134347_rgbf000066-resize_4/001066_2014-06-08_22-03-20_260595134347_rgbf000066-resize_4-target.png,250,4.2330000000000005,20,3618,241,feet,jsons/v1_VE250_randls_72.json,656519,1003497,39,Man
149,182081,DepthScenes,duration_manipulation_targetAtFixation,jsons/v1_VE250_randls_72.json,http://54.235.29.9/FacialAge/BNav_EC2/DepthDuration/v2_depth_duration_MTurk/v2_DepthDuration_HTML.html#191,191,1366,768,1366,768,9-19-2022,13-59-33,150,depth_duration_stimuli/000742_2014-06-08_18-48-09_260595134347_rgbf000164-resize_4/000742_2014-06-08_18-48-09_260595134347_rgbf000164-resize_4-target.png,250,4.632,25,3449,247,feet,jsons/v1_VE250_randls_72.json,656519,1003497,39,Man
150,182081,DepthScenes,duration_manipulation_targetAtFixation,jsons/v1_VE250_randls_72.json,http://54.235.29.9/FacialAge/BNav_EC2/DepthDuration/v2_depth_duration_MTurk/v2_DepthDuration_HTML.html#191,191,1366,768,1366,768,9-19-2022,13-59-33,151,depth_duration_stimuli/000436_2014-06-09_22-25-11_260595134347_rgbf000137-resize_1/000436_2014-06-09_22-25-11_260595134347_rgbf000137-resize_1-target.png,250,4.0705,30,3499,257,feet,jsons/v1_VE250_randls_72.json,656519,1003497,39,Man
151,182081,DepthScenes,duration_manipulation_targetAtFixation,jsons/v1_VE250_randls_72.json,http://54.235.29.9/FacialAge/BNav_EC2/DepthDuration/v2_depth_duration_MTurk/v2_DepthDuration_HTML.html#191,191,1366,768,1366,768,9-19-2022,13-59-33,152,depth_duration_stimuli/002444_2014-06-28_20-32-08_260595134347_rgbf000027-resize_0/002444_2014-06-28_20-32-08_260595134347_rgbf000027-resize_0-target.png,250,4.388999999999999,20,3757,247,feet,jsons/v1_VE250_randls_72.json,656519,1003497,39,Man
152,182081,DepthScenes,duration_manipulation_targetAtFixation,jsons/v1_VE250_randls_72.json,http://54.235.29.9/FacialAge/BNav_EC2/DepthDuration/v2_depth_duration_MTurk/v2_DepthDuration_HTML.html#191,191,1366,768,1366,768,9-19-2022,13-59-33,153,depth_duration_stimuli/000447_2014-06-08_16-15-46_260595134347_rgbf000130-resize_1/000447_2014-06-08_16-15-46_260595134347_rgbf000130-resize_1-target.png,250,4.479,20,3068,249,feet,jsons/v1_VE250_randls_72.json,656519,1003497,39,Man
153,182081,DepthScenes,duration_manipulation_targetAtFixation,jsons/v1_VE250_randls_72.json,http://54.235.29.9/FacialAge/BNav_EC2/DepthDuration/v2_depth_duration_MTurk/v2_DepthDuration_HTML.html#191,191,1366,768,1366,768,9-19-2022,13-59-33,154,depth_duration_stimuli/001447_2014-06-19_17-00-32_260595134347_rgbf000082-resize_5/001447_2014-06-19_17-00-32_260595134347_rgbf000082-resize_5-target.png,250,4.13775,18,5760,252,feet,jsons/v1_VE250_randls_72.json,656519,1003497,39,Man
154,182081,DepthScenes,duration_manipulation_targetAtFixation,jsons/v1_VE250_randls_72.json,http://54.235.29.9/FacialAge/BNav_EC2/DepthDuration/v2_depth_duration_MTurk/v2_DepthDuration_HTML.html#191,191,1366,768,1366,768,9-19-2022,13-59-33,155,depth_duration_stimuli/002763_2014-06-22_19-13-10_094959634447_rgbf000075-resize_4/002763_2014-06-22_19-13-10_094959634447_rgbf000075-resize_4-target.png,250,1.68375,6,3031,251,feet,jsons/v1_VE250_randls_72.json,656519,1003497,39,Man
155,182081,DepthScenes,duration_manipulation_targetAtFixation,jsons/v1_VE250_randls_72.json,http://54.235.29.9/FacialAge/BNav_EC2/DepthDuration/v2_depth_duration_MTurk/v2_DepthDuration_HTML.html#191,191,1366,768,1366,768,9-19-2022,13-59-33,156,depth_duration_stimuli/002209_2014-06-28_18-36-10_260595134347_rgbf000051-resize_1/002209_2014-06-28_18-36-10_260595134347_rgbf000051-resize_1-target.png,250,2.057,6,2817,259,feet,jsons/v1_VE250_randls_72.json,656519,1003497,39,Man
156,182081,DepthScenes,duration_manipulation_targetAtFixation,jsons/v1_VE250_randls_72.json,http://54.235.29.9/FacialAge/BNav_EC2/DepthDuration/v2_depth_duration_MTurk/v2_DepthDuration_HTML.html#191,191,1366,768,1366,768,9-19-2022,13-59-33,157,depth_duration_stimuli/000368_2014-06-09_15-53-01_260595134347_rgbf000155-resize_2/000368_2014-06-09_15-53-01_260595134347_rgbf000155-resize_2-target.png,250,2.4859999999999998,9,2734,251,feet,jsons/v1_VE250_randls_72.json,656519,1003497,39,Man
157,182081,DepthScenes,duration_manipulation_targetAtFixation,jsons/v1_VE250_randls_72.json,http://54.235.29.9/FacialAge/BNav_EC2/DepthDuration/v2_depth_duration_MTurk/v2_DepthDuration_HTML.html#191,191,1366,768,1366,768,9-19-2022,13-59-33,158,depth_duration_stimuli/002678_2014-06-13_16-15-32_094959634447_rgbf000151-resize_6/002678_2014-06-13_16-15-32_094959634447_rgbf000151-resize_6-target.png,250,2.1830000000000003,8,3224,261,feet,jsons/v1_VE250_randls_72.json,656519,1003497,39,Man
158,182081,DepthScenes,duration_manipulation_targetAtFixation,jsons/v1_VE250_randls_72.json,http://54.235.29.9/FacialAge/BNav_EC2/DepthDuration/v2_depth_duration_MTurk/v2_DepthDuration_HTML.html#191,191,1366,768,1366,768,9-19-2022,13-59-33,159,depth_duration_stimuli/001810_2014-06-26_20-51-35_260595134347_rgbf000040-resize_3/001810_2014-06-26_20-51-35_260595134347_rgbf000040-resize_3-target.png,250,2.2525,7,4559,253,feet,jsons/v1_VE250_randls_72.json,656519,1003497,39,Man
159,182081,DepthScenes,duration_manipulation_targetAtFixation,jsons/v1_VE250_randls_72.json,http://54.235.29.9/FacialAge/BNav_EC2/DepthDuration/v2_depth_duration_MTurk/v2_DepthDuration_HTML.html#191,191,1366,768,1366,768,9-19-2022,13-59-33,160,depth_duration_stimuli/003010_2014-06-15_12-54-35_094959634447_rgbf000112-resize_0/003010_2014-06-15_12-54-35_094959634447_rgbf000112-resize_0-target.png,250,3.1185,8,4152,262,feet,jsons/v1_VE250_randls_72.json,656519,1003497,39,Man
160,182081,DepthScenes,duration_manipulation_targetAtFixation,jsons/v1_VE250_randls_72.json,http://54.235.29.9/FacialAge/BNav_EC2/DepthDuration/v2_depth_duration_MTurk/v2_DepthDuration_HTML.html#191,191,1366,768,1366,768,9-19-2022,13-59-33,161,depth_duration_stimuli/000758_2014-06-08_22-05-08_260595134347_rgbf000085-resize_0/000758_2014-06-08_22-05-08_260595134347_rgbf000085-resize_0-target.png,250,3.3810000000000002,20,5461,246,feet,jsons/v1_VE250_randls_72.json,656519,1003497,39,Man
161,182081,DepthScenes,duration_manipulation_targetAtFixation,jsons/v1_VE250_randls_72.json,http://54.235.29.9/FacialAge/BNav_EC2/DepthDuration/v2_depth_duration_MTurk/v2_DepthDuration_HTML.html#191,191,1366,768,1366,768,9-19-2022,13-59-33,162,depth_duration_stimuli/000854_2014-06-09_19-43-13_260595134347_rgbf000066-resize_0/000854_2014-06-09_19-43-13_260595134347_rgbf000066-resize_0-target.png,250,3.068,7,2936,229,feet,jsons/v1_VE250_randls_72.json,656519,1003497,39,Man
162,182081,DepthScenes,duration_manipulation_targetAtFixation,jsons/v1_VE250_randls_72.json,http://54.235.29.9/FacialAge/BNav_EC2/DepthDuration/v2_depth_duration_MTurk/v2_DepthDuration_HTML.html#191,191,1366,768,1366,768,9-19-2022,13-59-33,163,depth_duration_stimuli/003292_2014-05-14_21-53-49_094959634447_rgbf000100-resize_2/003292_2014-05-14_21-53-49_094959634447_rgbf000100-resize_2-target.png,250,3.4815,12,3438,253,feet,jsons/v1_VE250_randls_72.json,656519,1003497,39,Man
163,182081,DepthScenes,duration_manipulation_targetAtFixation,jsons/v1_VE250_randls_72.json,http://54.235.29.9/FacialAge/BNav_EC2/DepthDuration/v2_depth_duration_MTurk/v2_DepthDuration_HTML.html#191,191,1366,768,1366,768,9-19-2022,13-59-33,164,depth_duration_stimuli/002639_2014-06-24_14-51-37_094959634447_rgbf000074-resize_4/002639_2014-06-24_14-51-37_094959634447_rgbf000074-resize_4-target.png,250,4.0375,15,3321,262,feet,jsons/v1_VE250_randls_72.json,656519,1003497,39,Man
