,subjID,experimentName,versionName,sequenceName,url,selected_row,windowWidth,windowHeight,screenWidth,screenHeight,startDate,startTime,trial,stimulus,duration,actual_depth,depth_estimate,trial_RT,log_sceneDuration,unitSelection,seq_filepath,experimentTime,totalTime,age,gender
0,184299,DepthScenes,duration_manipulation_targetAtFixation,jsons/v1_VE250_randls_17.json,http://54.235.29.9/FacialAge/BNav_EC2/DepthDuration/v2_depth_duration_MTurk/v2_DepthDuration_HTML.html#430,430,1366,625,1366,768,9-3-2022,9-30-39,1,depth_duration_stimuli/002600_2014-06-24_14-27-04_094959634447_rgbf000074-resize_2/002600_2014-06-24_14-27-04_094959634447_rgbf000074-resize_2-target.png,250,2.7575,2,3834,256,feet,jsons/v1_VE250_randls_17.json,736141,874247,54,Man
1,184299,DepthScenes,duration_manipulation_targetAtFixation,jsons/v1_VE250_randls_17.json,http://54.235.29.9/FacialAge/BNav_EC2/DepthDuration/v2_depth_duration_MTurk/v2_DepthDuration_HTML.html#430,430,1366,625,1366,768,9-3-2022,9-30-39,2,depth_duration_stimuli/003228_2014-05-14_13-42-35_094959634447_rgbf000101-resize_1/003228_2014-05-14_13-42-35_094959634447_rgbf000101-resize_1-target.png,250,1.9680000000000002,2,3397,249,feet,jsons/v1_VE250_randls_17.json,736141,874247,54,Man
2,184299,DepthScenes,duration_manipulation_targetAtFixation,jsons/v1_VE250_randls_17.json,http://54.235.29.9/FacialAge/BNav_EC2/DepthDuration/v2_depth_duration_MTurk/v2_DepthDuration_HTML.html#430,430,1366,625,1366,768,9-3-2022,9-30-39,3,depth_duration_stimuli/002039_2014-06-24_20-22-38_260595134347_rgbf000084-resize_1/002039_2014-06-24_20-22-38_260595134347_rgbf000084-resize_1-target.png,250,4.408,3,3569,244,feet,jsons/v1_VE250_randls_17.json,736141,874247,54,Man
3,184299,DepthScenes,duration_manipulation_targetAtFixation,jsons/v1_VE250_randls_17.json,http://54.235.29.9/FacialAge/BNav_EC2/DepthDuration/v2_depth_duration_MTurk/v2_DepthDuration_HTML.html#430,430,1366,625,1366,768,9-3-2022,9-30-39,4,depth_duration_stimuli/002103_2014-06-25_20-00-40_260595134347_rgbf000049-resize_0/002103_2014-06-25_20-00-40_260595134347_rgbf000049-resize_0-target.png,250,4.105,3,3588,232,feet,jsons/v1_VE250_randls_17.json,736141,874247,54,Man
4,184299,DepthScenes,duration_manipulation_targetAtFixation,jsons/v1_VE250_randls_17.json,http://54.235.29.9/FacialAge/BNav_EC2/DepthDuration/v2_depth_duration_MTurk/v2_DepthDuration_HTML.html#430,430,1366,625,1366,768,9-3-2022,9-30-39,5,depth_duration_stimuli/003621_2014-05-23_18-06-08_094959634447_rgbf000101-resize_1/003621_2014-05-23_18-06-08_094959634447_rgbf000101-resize_1-target.png,250,3.9835,3,3395,250,feet,jsons/v1_VE250_randls_17.json,736141,874247,54,Man
5,184299,DepthScenes,duration_manipulation_targetAtFixation,jsons/v1_VE250_randls_17.json,http://54.235.29.9/FacialAge/BNav_EC2/DepthDuration/v2_depth_duration_MTurk/v2_DepthDuration_HTML.html#430,430,1366,625,1366,768,9-3-2022,9-30-39,6,depth_duration_stimuli/001584_2014-06-20_11-07-43_260595134347_rgbf000002-resize_1/001584_2014-06-20_11-07-43_260595134347_rgbf000002-resize_1-target.png,250,3.53,3,3457,259,feet,jsons/v1_VE250_randls_17.json,736141,874247,54,Man
6,184299,DepthScenes,duration_manipulation_targetAtFixation,jsons/v1_VE250_randls_17.json,http://54.235.29.9/FacialAge/BNav_EC2/DepthDuration/v2_depth_duration_MTurk/v2_DepthDuration_HTML.html#430,430,1366,625,1366,768,9-3-2022,9-30-39,7,depth_duration_stimuli/002375_2014-06-28_20-13-44_260595134347_rgbf000032-resize_1/002375_2014-06-28_20-13-44_260595134347_rgbf000032-resize_1-target.png,250,4.0175,2,3986,213,feet,jsons/v1_VE250_randls_17.json,736141,874247,54,Man
7,184299,DepthScenes,duration_manipulation_targetAtFixation,jsons/v1_VE250_randls_17.json,http://54.235.29.9/FacialAge/BNav_EC2/DepthDuration/v2_depth_duration_MTurk/v2_DepthDuration_HTML.html#430,430,1366,625,1366,768,9-3-2022,9-30-39,8,depth_duration_stimuli/002657_2014-06-13_15-29-54_094959634447_rgbf000150-resize_1/002657_2014-06-13_15-29-54_094959634447_rgbf000150-resize_1-target.png,250,4.919,2,3552,246,feet,jsons/v1_VE250_randls_17.json,736141,874247,54,Man
8,184299,DepthScenes,duration_manipulation_targetAtFixation,jsons/v1_VE250_randls_17.json,http://54.235.29.9/FacialAge/BNav_EC2/DepthDuration/v2_depth_duration_MTurk/v2_DepthDuration_HTML.html#430,430,1366,625,1366,768,9-3-2022,9-30-39,9,depth_duration_stimuli/001199_2014-06-17_16-03-48_260595134347_rgbf000077-resize_0/001199_2014-06-17_16-03-48_260595134347_rgbf000077-resize_0-target.png,250,3.4375,3,3403,247,feet,jsons/v1_VE250_randls_17.json,736141,874247,54,Man
9,184299,DepthScenes,duration_manipulation_targetAtFixation,jsons/v1_VE250_randls_17.json,http://54.235.29.9/FacialAge/BNav_EC2/DepthDuration/v2_depth_duration_MTurk/v2_DepthDuration_HTML.html#430,430,1366,625,1366,768,9-3-2022,9-30-39,10,depth_duration_stimuli/000502_2014-06-08_23-02-32_260595134347_rgbf000063-resize_4/000502_2014-06-08_23-02-32_260595134347_rgbf000063-resize_4-target.png,250,2.431,2,7066,251,feet,jsons/v1_VE250_randls_17.json,736141,874247,54,Man
10,184299,DepthScenes,duration_manipulation_targetAtFixation,jsons/v1_VE250_randls_17.json,http://54.235.29.9/FacialAge/BNav_EC2/DepthDuration/v2_depth_duration_MTurk/v2_DepthDuration_HTML.html#430,430,1366,625,1366,768,9-3-2022,9-30-39,11,depth_duration_stimuli/000788_2014-06-08_22-34-36_260595134347_rgbf000131-resize_1/000788_2014-06-08_22-34-36_260595134347_rgbf000131-resize_1-target.png,250,3.359,2,4723,250,feet,jsons/v1_VE250_randls_17.json,736141,874247,54,Man
11,184299,DepthScenes,duration_manipulation_targetAtFixation,jsons/v1_VE250_randls_17.json,http://54.235.29.9/FacialAge/BNav_EC2/DepthDuration/v2_depth_duration_MTurk/v2_DepthDuration_HTML.html#430,430,1366,625,1366,768,9-3-2022,9-30-39,12,depth_duration_stimuli/001235_2014-06-17_16-37-36_260595134347_rgbf000084-resize_4/001235_2014-06-17_16-37-36_260595134347_rgbf000084-resize_4-target.png,250,3.6605,2,8740,248,feet,jsons/v1_VE250_randls_17.json,736141,874247,54,Man
12,184299,DepthScenes,duration_manipulation_targetAtFixation,jsons/v1_VE250_randls_17.json,http://54.235.29.9/FacialAge/BNav_EC2/DepthDuration/v2_depth_duration_MTurk/v2_DepthDuration_HTML.html#430,430,1366,625,1366,768,9-3-2022,9-30-39,13,depth_duration_stimuli/000569_2014-06-09_22-51-47_260595134347_rgbf000141-resize_3/000569_2014-06-09_22-51-47_260595134347_rgbf000141-resize-original.jpg,250,4.512,1,6021,238,feet,jsons/v1_VE250_randls_17.json,736141,874247,54,Man
13,184299,DepthScenes,duration_manipulation_targetAtFixation,jsons/v1_VE250_randls_17.json,http://54.235.29.9/FacialAge/BNav_EC2/DepthDuration/v2_depth_duration_MTurk/v2_DepthDuration_HTML.html#430,430,1366,625,1366,768,9-3-2022,9-30-39,14,depth_duration_stimuli/000486_2014-06-09_20-47-20_260595134347_rgbf000143-resize_2/000486_2014-06-09_20-47-20_260595134347_rgbf000143-resize_2-target.png,250,4.8325,2,3877,251,feet,jsons/v1_VE250_randls_17.json,736141,874247,54,Man
14,184299,DepthScenes,duration_manipulation_targetAtFixation,jsons/v1_VE250_randls_17.json,http://54.235.29.9/FacialAge/BNav_EC2/DepthDuration/v2_depth_duration_MTurk/v2_DepthDuration_HTML.html#430,430,1366,625,1366,768,9-3-2022,9-30-39,15,depth_duration_stimuli/003083_2014-06-15_15-21-03_094959634447_rgbf000063-resize_1/003083_2014-06-15_15-21-03_094959634447_rgbf000063-resize_1-target.png,250,4.1405,3,3512,245,feet,jsons/v1_VE250_randls_17.json,736141,874247,54,Man
15,184299,DepthScenes,duration_manipulation_targetAtFixation,jsons/v1_VE250_randls_17.json,http://54.235.29.9/FacialAge/BNav_EC2/DepthDuration/v2_depth_duration_MTurk/v2_DepthDuration_HTML.html#430,430,1366,625,1366,768,9-3-2022,9-30-39,16,depth_duration_stimuli/001164_2014-06-17_15-35-46_260595134347_rgbf000085-resize_3/001164_2014-06-17_15-35-46_260595134347_rgbf000085-resize_3-target.png,250,2.354,3,3614,248,feet,jsons/v1_VE250_randls_17.json,736141,874247,54,Man
16,184299,DepthScenes,duration_manipulation_targetAtFixation,jsons/v1_VE250_randls_17.json,http://54.235.29.9/FacialAge/BNav_EC2/DepthDuration/v2_depth_duration_MTurk/v2_DepthDuration_HTML.html#430,430,1366,625,1366,768,9-3-2022,9-30-39,17,depth_duration_stimuli/001136_2014-06-17_15-19-41_260595134347_rgbf000076-resize_3/001136_2014-06-17_15-19-41_260595134347_rgbf000076-resize_3-target.png,250,1.8655,3,3499,244,feet,jsons/v1_VE250_randls_17.json,736141,874247,54,Man
17,184299,DepthScenes,duration_manipulation_targetAtFixation,jsons/v1_VE250_randls_17.json,http://54.235.29.9/FacialAge/BNav_EC2/DepthDuration/v2_depth_duration_MTurk/v2_DepthDuration_HTML.html#430,430,1366,625,1366,768,9-3-2022,9-30-39,18,depth_duration_stimuli/000906_2014-06-08_13-35-43_260595134347_rgbf000155-resize_1/000906_2014-06-08_13-35-43_260595134347_rgbf000155-resize_1-target.png,250,2.8489999999999998,3,3419,260,feet,jsons/v1_VE250_randls_17.json,736141,874247,54,Man
18,184299,DepthScenes,duration_manipulation_targetAtFixation,jsons/v1_VE250_randls_17.json,http://54.235.29.9/FacialAge/BNav_EC2/DepthDuration/v2_depth_duration_MTurk/v2_DepthDuration_HTML.html#430,430,1366,625,1366,768,9-3-2022,9-30-39,19,depth_duration_stimuli/002805_2014-06-22_19-54-03_094959634447_rgbf000079-resize_1/002805_2014-06-22_19-54-03_094959634447_rgbf000079-resize_1-target.png,250,3.1439999999999997,3,3517,264,feet,jsons/v1_VE250_randls_17.json,736141,874247,54,Man
19,184299,DepthScenes,duration_manipulation_targetAtFixation,jsons/v1_VE250_randls_17.json,http://54.235.29.9/FacialAge/BNav_EC2/DepthDuration/v2_depth_duration_MTurk/v2_DepthDuration_HTML.html#430,430,1366,625,1366,768,9-3-2022,9-30-39,20,depth_duration_stimuli/002057_2014-06-24_21-00-13_260595134347_rgbf000120-resize_1/002057_2014-06-24_21-00-13_260595134347_rgbf000120-resize_1-target.png,250,2.967,4,3792,246,feet,jsons/v1_VE250_randls_17.json,736141,874247,54,Man
20,184299,DepthScenes,duration_manipulation_targetAtFixation,jsons/v1_VE250_randls_17.json,http://54.235.29.9/FacialAge/BNav_EC2/DepthDuration/v2_depth_duration_MTurk/v2_DepthDuration_HTML.html#430,430,1366,625,1366,768,9-3-2022,9-30-39,21,depth_duration_stimuli/000709_2014-06-08_13-51-55_260595134347_rgbf000068-resize_3/000709_2014-06-08_13-51-55_260595134347_rgbf000068-resize_3-target.png,250,1.8030000000000002,4,3495,257,feet,jsons/v1_VE250_randls_17.json,736141,874247,54,Man
21,184299,DepthScenes,duration_manipulation_targetAtFixation,jsons/v1_VE250_randls_17.json,http://54.235.29.9/FacialAge/BNav_EC2/DepthDuration/v2_depth_duration_MTurk/v2_DepthDuration_HTML.html#430,430,1366,625,1366,768,9-3-2022,9-30-39,22,depth_duration_stimuli/002905_2014-06-03_18-04-43_094959634447_rgbf000151-resize_2/002905_2014-06-03_18-04-43_094959634447_rgbf000151-resize_2-target.png,250,2.0295,2,3631,261,feet,jsons/v1_VE250_randls_17.json,736141,874247,54,Man
22,184299,DepthScenes,duration_manipulation_targetAtFixation,jsons/v1_VE250_randls_17.json,http://54.235.29.9/FacialAge/BNav_EC2/DepthDuration/v2_depth_duration_MTurk/v2_DepthDuration_HTML.html#430,430,1366,625,1366,768,9-3-2022,9-30-39,23,depth_duration_stimuli/003423_2014-05-21_10-23-26_094959634447_rgbf002665-resize_2/003423_2014-05-21_10-23-26_094959634447_rgbf002665-resize_2-target.png,250,3.2575,1,4442,208,feet,jsons/v1_VE250_randls_17.json,736141,874247,54,Man
23,184299,DepthScenes,duration_manipulation_targetAtFixation,jsons/v1_VE250_randls_17.json,http://54.235.29.9/FacialAge/BNav_EC2/DepthDuration/v2_depth_duration_MTurk/v2_DepthDuration_HTML.html#430,430,1366,625,1366,768,9-3-2022,9-30-39,24,depth_duration_stimuli/001806_2014-06-26_20-50-20_260595134347_rgbf000091-resize_1/001806_2014-06-26_20-50-20_260595134347_rgbf000091-resize_1-target.png,250,2.7305,2,3630,249,feet,jsons/v1_VE250_randls_17.json,736141,874247,54,Man
24,184299,DepthScenes,duration_manipulation_targetAtFixation,jsons/v1_VE250_randls_17.json,http://54.235.29.9/FacialAge/BNav_EC2/DepthDuration/v2_depth_duration_MTurk/v2_DepthDuration_HTML.html#430,430,1366,625,1366,768,9-3-2022,9-30-39,25,depth_duration_stimuli/001617_2014-06-20_11-35-32_260595134347_rgbf000066-resize_1/001617_2014-06-20_11-35-32_260595134347_rgbf000066-resize_1-target.png,250,3.7910000000000004,3,3684,215,feet,jsons/v1_VE250_randls_17.json,736141,874247,54,Man
25,184299,DepthScenes,duration_manipulation_targetAtFixation,jsons/v1_VE250_randls_17.json,http://54.235.29.9/FacialAge/BNav_EC2/DepthDuration/v2_depth_duration_MTurk/v2_DepthDuration_HTML.html#430,430,1366,625,1366,768,9-3-2022,9-30-39,26,depth_duration_stimuli/001158_2014-06-17_15-32-16_260595134347_rgbf000138-resize_2/001158_2014-06-17_15-32-16_260595134347_rgbf000138-resize_2-target.png,250,4.5315,3,3855,244,feet,jsons/v1_VE250_randls_17.json,736141,874247,54,Man
26,184299,DepthScenes,duration_manipulation_targetAtFixation,jsons/v1_VE250_randls_17.json,http://54.235.29.9/FacialAge/BNav_EC2/DepthDuration/v2_depth_duration_MTurk/v2_DepthDuration_HTML.html#430,430,1366,625,1366,768,9-3-2022,9-30-39,27,depth_duration_stimuli/000556_2014-06-09_22-42-56_260595134347_rgbf000214-resize_1/000556_2014-06-09_22-42-56_260595134347_rgbf000214-resize_1-target.png,250,4.8415,2,3796,258,feet,jsons/v1_VE250_randls_17.json,736141,874247,54,Man
27,184299,DepthScenes,duration_manipulation_targetAtFixation,jsons/v1_VE250_randls_17.json,http://54.235.29.9/FacialAge/BNav_EC2/DepthDuration/v2_depth_duration_MTurk/v2_DepthDuration_HTML.html#430,430,1366,625,1366,768,9-3-2022,9-30-39,28,depth_duration_stimuli/002549_2014-06-24_13-41-39_094959634447_rgbf000022-resize_3/002549_2014-06-24_13-41-39_094959634447_rgbf000022-resize_3-target.png,250,1.476,2,3520,245,feet,jsons/v1_VE250_randls_17.json,736141,874247,54,Man
28,184299,DepthScenes,duration_manipulation_targetAtFixation,jsons/v1_VE250_randls_17.json,http://54.235.29.9/FacialAge/BNav_EC2/DepthDuration/v2_depth_duration_MTurk/v2_DepthDuration_HTML.html#430,430,1366,625,1366,768,9-3-2022,9-30-39,29,depth_duration_stimuli/002750_2014-06-22_19-08-03_094959634447_rgbf000094-resize_4/002750_2014-06-22_19-08-03_094959634447_rgbf000094-resize_4-target.png,250,2.354,1,4378,255,feet,jsons/v1_VE250_randls_17.json,736141,874247,54,Man
29,184299,DepthScenes,duration_manipulation_targetAtFixation,jsons/v1_VE250_randls_17.json,http://54.235.29.9/FacialAge/BNav_EC2/DepthDuration/v2_depth_duration_MTurk/v2_DepthDuration_HTML.html#430,430,1366,625,1366,768,9-3-2022,9-30-39,30,depth_duration_stimuli/000375_2014-06-08_11-17-29_260595134347_rgbf000133-resize_2/000375_2014-06-08_11-17-29_260595134347_rgbf000133-resize-original.jpg,250,4.718,2,3921,234,feet,jsons/v1_VE250_randls_17.json,736141,874247,54,Man
30,184299,DepthScenes,duration_manipulation_targetAtFixation,jsons/v1_VE250_randls_17.json,http://54.235.29.9/FacialAge/BNav_EC2/DepthDuration/v2_depth_duration_MTurk/v2_DepthDuration_HTML.html#430,430,1366,625,1366,768,9-3-2022,9-30-39,31,depth_duration_stimuli/002118_2014-06-25_20-32-08_260595134347_rgbf000078-resize_1/002118_2014-06-25_20-32-08_260595134347_rgbf000078-resize_1-target.png,250,2.6460000000000004,2,3707,252,feet,jsons/v1_VE250_randls_17.json,736141,874247,54,Man
31,184299,DepthScenes,duration_manipulation_targetAtFixation,jsons/v1_VE250_randls_17.json,http://54.235.29.9/FacialAge/BNav_EC2/DepthDuration/v2_depth_duration_MTurk/v2_DepthDuration_HTML.html#430,430,1366,625,1366,768,9-3-2022,9-30-39,32,depth_duration_stimuli/001516_2014-06-20_16-25-09_260595134347_rgbf000076-resize_2/001516_2014-06-20_16-25-09_260595134347_rgbf000076-resize_2-target.png,250,1.7445,3,3275,237,feet,jsons/v1_VE250_randls_17.json,736141,874247,54,Man
32,184299,DepthScenes,duration_manipulation_targetAtFixation,jsons/v1_VE250_randls_17.json,http://54.235.29.9/FacialAge/BNav_EC2/DepthDuration/v2_depth_duration_MTurk/v2_DepthDuration_HTML.html#430,430,1366,625,1366,768,9-3-2022,9-30-39,33,depth_duration_stimuli/002043_2014-06-24_20-29-38_260595134347_rgbf000039-resize_4/002043_2014-06-24_20-29-38_260595134347_rgbf000039-resize_4-target.png,250,2.8435,3,3342,248,feet,jsons/v1_VE250_randls_17.json,736141,874247,54,Man
33,184299,DepthScenes,duration_manipulation_targetAtFixation,jsons/v1_VE250_randls_17.json,http://54.235.29.9/FacialAge/BNav_EC2/DepthDuration/v2_depth_duration_MTurk/v2_DepthDuration_HTML.html#430,430,1366,625,1366,768,9-3-2022,9-30-39,34,depth_duration_stimuli/003048_2014-06-15_13-49-43_094959634447_rgbf000150-resize_1/003048_2014-06-15_13-49-43_094959634447_rgbf000150-resize_1-target.png,250,4.0035,3,3287,249,feet,jsons/v1_VE250_randls_17.json,736141,874247,54,Man
34,184299,DepthScenes,duration_manipulation_targetAtFixation,jsons/v1_VE250_randls_17.json,http://54.235.29.9/FacialAge/BNav_EC2/DepthDuration/v2_depth_duration_MTurk/v2_DepthDuration_HTML.html#430,430,1366,625,1366,768,9-3-2022,9-30-39,35,depth_duration_stimuli/000506_2014-06-08_23-21-00_260595134347_rgbf000070-resize_7/000506_2014-06-08_23-21-00_260595134347_rgbf000070-resize_7-target.png,250,4.0585,3,3476,266,feet,jsons/v1_VE250_randls_17.json,736141,874247,54,Man
35,184299,DepthScenes,duration_manipulation_targetAtFixation,jsons/v1_VE250_randls_17.json,http://54.235.29.9/FacialAge/BNav_EC2/DepthDuration/v2_depth_duration_MTurk/v2_DepthDuration_HTML.html#430,430,1366,625,1366,768,9-3-2022,9-30-39,36,depth_duration_stimuli/003079_2014-06-15_15-18-20_094959634447_rgbf000152-resize_8/003079_2014-06-15_15-18-20_094959634447_rgbf000152-resize_8-target.png,250,2.8775,4,3643,250,feet,jsons/v1_VE250_randls_17.json,736141,874247,54,Man
36,184299,DepthScenes,duration_manipulation_targetAtFixation,jsons/v1_VE250_randls_17.json,http://54.235.29.9/FacialAge/BNav_EC2/DepthDuration/v2_depth_duration_MTurk/v2_DepthDuration_HTML.html#430,430,1366,625,1366,768,9-3-2022,9-30-39,37,depth_duration_stimuli/001056_2014-06-08_18-46-44_260595134347_rgbf000068-resize_0/001056_2014-06-08_18-46-44_260595134347_rgbf000068-resize_0-target.png,250,2.6625,2,3961,253,feet,jsons/v1_VE250_randls_17.json,736141,874247,54,Man
37,184299,DepthScenes,duration_manipulation_targetAtFixation,jsons/v1_VE250_randls_17.json,http://54.235.29.9/FacialAge/BNav_EC2/DepthDuration/v2_depth_duration_MTurk/v2_DepthDuration_HTML.html#430,430,1366,625,1366,768,9-3-2022,9-30-39,38,depth_duration_stimuli/002199_2014-06-28_18-33-56_260595134347_rgbf000074-resize_0/002199_2014-06-28_18-33-56_260595134347_rgbf000074-resize_0-target.png,250,1.996,2,3674,243,feet,jsons/v1_VE250_randls_17.json,736141,874247,54,Man
38,184299,DepthScenes,duration_manipulation_targetAtFixation,jsons/v1_VE250_randls_17.json,http://54.235.29.9/FacialAge/BNav_EC2/DepthDuration/v2_depth_duration_MTurk/v2_DepthDuration_HTML.html#430,430,1366,625,1366,768,9-3-2022,9-30-39,39,depth_duration_stimuli/002663_2014-06-13_15-50-26_094959634447_rgbf000075-resize_1/002663_2014-06-13_15-50-26_094959634447_rgbf000075-resize_1-target.png,250,4.7495,3,3623,266,feet,jsons/v1_VE250_randls_17.json,736141,874247,54,Man
39,184299,DepthScenes,duration_manipulation_targetAtFixation,jsons/v1_VE250_randls_17.json,http://54.235.29.9/FacialAge/BNav_EC2/DepthDuration/v2_depth_duration_MTurk/v2_DepthDuration_HTML.html#430,430,1366,625,1366,768,9-3-2022,9-30-39,40,depth_duration_stimuli/000409_2014-06-04_19-23-33_260595134347_rgbf000067-resize_0/000409_2014-06-04_19-23-33_260595134347_rgbf000067-resize_0-target.png,250,3.7335,2,3470,253,feet,jsons/v1_VE250_randls_17.json,736141,874247,54,Man
40,184299,DepthScenes,duration_manipulation_targetAtFixation,jsons/v1_VE250_randls_17.json,http://54.235.29.9/FacialAge/BNav_EC2/DepthDuration/v2_depth_duration_MTurk/v2_DepthDuration_HTML.html#430,430,1366,625,1366,768,9-3-2022,9-30-39,41,depth_duration_stimuli/001150_2014-06-17_15-27-34_260595134347_rgbf000108-resize_2/001150_2014-06-17_15-27-34_260595134347_rgbf000108-resize_2-target.png,250,4.0325,3,3281,253,feet,jsons/v1_VE250_randls_17.json,736141,874247,54,Man
41,184299,DepthScenes,duration_manipulation_targetAtFixation,jsons/v1_VE250_randls_17.json,http://54.235.29.9/FacialAge/BNav_EC2/DepthDuration/v2_depth_duration_MTurk/v2_DepthDuration_HTML.html#430,430,1366,625,1366,768,9-3-2022,9-30-39,42,depth_duration_stimuli/000665_2014-06-09_20-42-35_260595134347_rgbf000110-resize_1/000665_2014-06-09_20-42-35_260595134347_rgbf000110-resize_1-target.png,250,3.057,3,3437,246,feet,jsons/v1_VE250_randls_17.json,736141,874247,54,Man
42,184299,DepthScenes,duration_manipulation_targetAtFixation,jsons/v1_VE250_randls_17.json,http://54.235.29.9/FacialAge/BNav_EC2/DepthDuration/v2_depth_duration_MTurk/v2_DepthDuration_HTML.html#430,430,1366,625,1366,768,9-3-2022,9-30-39,43,depth_duration_stimuli/000470_2014-06-09_19-42-40_260595134347_rgbf000094-resize_1/000470_2014-06-09_19-42-40_260595134347_rgbf000094-resize_1-target.png,250,1.831,2,6517,237,feet,jsons/v1_VE250_randls_17.json,736141,874247,54,Man
43,184299,DepthScenes,duration_manipulation_targetAtFixation,jsons/v1_VE250_randls_17.json,http://54.235.29.9/FacialAge/BNav_EC2/DepthDuration/v2_depth_duration_MTurk/v2_DepthDuration_HTML.html#430,430,1366,625,1366,768,9-3-2022,9-30-39,44,depth_duration_stimuli/000109_2014-05-14_23-41-52_260595134347_rgbf000035-resize_9/000109_2014-05-14_23-41-52_260595134347_rgbf000035-resize_9-target.png,250,1.3545,2,4674,250,feet,jsons/v1_VE250_randls_17.json,736141,874247,54,Man
44,184299,DepthScenes,duration_manipulation_targetAtFixation,jsons/v1_VE250_randls_17.json,http://54.235.29.9/FacialAge/BNav_EC2/DepthDuration/v2_depth_duration_MTurk/v2_DepthDuration_HTML.html#430,430,1366,625,1366,768,9-3-2022,9-30-39,45,depth_duration_stimuli/000787_2014-06-08_22-33-53_260595134347_rgbf000175-resize_1/000787_2014-06-08_22-33-53_260595134347_rgbf000175-resize-original.jpg,250,4.784,2,5463,260,feet,jsons/v1_VE250_randls_17.json,736141,874247,54,Man
45,184299,DepthScenes,duration_manipulation_targetAtFixation,jsons/v1_VE250_randls_17.json,http://54.235.29.9/FacialAge/BNav_EC2/DepthDuration/v2_depth_duration_MTurk/v2_DepthDuration_HTML.html#430,430,1366,625,1366,768,9-3-2022,9-30-39,46,depth_duration_stimuli/001133_2014-06-17_14-49-16_260595134347_rgbf000100-resize_0/001133_2014-06-17_14-49-16_260595134347_rgbf000100-resize_0-target.png,250,4.2115,1,5036,246,feet,jsons/v1_VE250_randls_17.json,736141,874247,54,Man
46,184299,DepthScenes,duration_manipulation_targetAtFixation,jsons/v1_VE250_randls_17.json,http://54.235.29.9/FacialAge/BNav_EC2/DepthDuration/v2_depth_duration_MTurk/v2_DepthDuration_HTML.html#430,430,1366,625,1366,768,9-3-2022,9-30-39,47,depth_duration_stimuli/001132_2014-06-17_14-48-54_260595134347_rgbf000100-resize_2/001132_2014-06-17_14-48-54_260595134347_rgbf000100-resize_2-target.png,250,3.753,3,4157,259,feet,jsons/v1_VE250_randls_17.json,736141,874247,54,Man
47,184299,DepthScenes,duration_manipulation_targetAtFixation,jsons/v1_VE250_randls_17.json,http://54.235.29.9/FacialAge/BNav_EC2/DepthDuration/v2_depth_duration_MTurk/v2_DepthDuration_HTML.html#430,430,1366,625,1366,768,9-3-2022,9-30-39,48,depth_duration_stimuli/001167_2014-06-17_15-38-07_260595134347_rgbf000108-resize_0/001167_2014-06-17_15-38-07_260595134347_rgbf000108-resize_0-target.png,250,1.8505,2,3695,251,feet,jsons/v1_VE250_randls_17.json,736141,874247,54,Man
48,184299,DepthScenes,duration_manipulation_targetAtFixation,jsons/v1_VE250_randls_17.json,http://54.235.29.9/FacialAge/BNav_EC2/DepthDuration/v2_depth_duration_MTurk/v2_DepthDuration_HTML.html#430,430,1366,625,1366,768,9-3-2022,9-30-39,49,depth_duration_stimuli/003587_2014-05-23_16-48-02_094959634447_rgbf002384-resize_2/003587_2014-05-23_16-48-02_094959634447_rgbf002384-resize_2-target.png,250,1.357,2,3663,257,feet,jsons/v1_VE250_randls_17.json,736141,874247,54,Man
49,184299,DepthScenes,duration_manipulation_targetAtFixation,jsons/v1_VE250_randls_17.json,http://54.235.29.9/FacialAge/BNav_EC2/DepthDuration/v2_depth_duration_MTurk/v2_DepthDuration_HTML.html#430,430,1366,625,1366,768,9-3-2022,9-30-39,50,depth_duration_stimuli/002445_2014-06-28_20-32-16_260595134347_rgbf000029-resize_4/002445_2014-06-28_20-32-16_260595134347_rgbf000029-resize_4-target.png,250,2.5315,2,3923,259,feet,jsons/v1_VE250_randls_17.json,736141,874247,54,Man
50,184299,DepthScenes,duration_manipulation_targetAtFixation,jsons/v1_VE250_randls_17.json,http://54.235.29.9/FacialAge/BNav_EC2/DepthDuration/v2_depth_duration_MTurk/v2_DepthDuration_HTML.html#430,430,1366,625,1366,768,9-3-2022,9-30-39,51,depth_duration_stimuli/000780_2014-06-08_22-28-29_260595134347_rgbf000126-resize_1/000780_2014-06-08_22-28-29_260595134347_rgbf000126-resize_1-target.png,250,3.3825,3,4858,244,feet,jsons/v1_VE250_randls_17.json,736141,874247,54,Man
51,184299,DepthScenes,duration_manipulation_targetAtFixation,jsons/v1_VE250_randls_17.json,http://54.235.29.9/FacialAge/BNav_EC2/DepthDuration/v2_depth_duration_MTurk/v2_DepthDuration_HTML.html#430,430,1366,625,1366,768,9-3-2022,9-30-39,52,depth_duration_stimuli/001029_2014-06-08_13-17-57_260595134347_rgbf000065-resize_1/001029_2014-06-08_13-17-57_260595134347_rgbf000065-resize_1-target.png,250,3.0835,3,3601,248,feet,jsons/v1_VE250_randls_17.json,736141,874247,54,Man
52,184299,DepthScenes,duration_manipulation_targetAtFixation,jsons/v1_VE250_randls_17.json,http://54.235.29.9/FacialAge/BNav_EC2/DepthDuration/v2_depth_duration_MTurk/v2_DepthDuration_HTML.html#430,430,1366,625,1366,768,9-3-2022,9-30-39,53,depth_duration_stimuli/000677_2014-06-08_23-10-32_260595134347_rgbf000158-resize_6/000677_2014-06-08_23-10-32_260595134347_rgbf000158-resize_6-target.png,250,3.556,1,3919,249,feet,jsons/v1_VE250_randls_17.json,736141,874247,54,Man
53,184299,DepthScenes,duration_manipulation_targetAtFixation,jsons/v1_VE250_randls_17.json,http://54.235.29.9/FacialAge/BNav_EC2/DepthDuration/v2_depth_duration_MTurk/v2_DepthDuration_HTML.html#430,430,1366,625,1366,768,9-3-2022,9-30-39,54,depth_duration_stimuli/003534_2014-05-22_15-06-10_094959634447_rgbf000102-resize_4/003534_2014-05-22_15-06-10_094959634447_rgbf000102-resize_4-target.png,250,1.426,1,3561,258,feet,jsons/v1_VE250_randls_17.json,736141,874247,54,Man
54,184299,DepthScenes,duration_manipulation_targetAtFixation,jsons/v1_VE250_randls_17.json,http://54.235.29.9/FacialAge/BNav_EC2/DepthDuration/v2_depth_duration_MTurk/v2_DepthDuration_HTML.html#430,430,1366,625,1366,768,9-3-2022,9-30-39,55,depth_duration_stimuli/002637_2014-06-24_14-51-13_094959634447_rgbf000066-resize_4/002637_2014-06-24_14-51-13_094959634447_rgbf000066-resize_4-target.png,250,1.9955,3,3598,240,feet,jsons/v1_VE250_randls_17.json,736141,874247,54,Man
55,184299,DepthScenes,duration_manipulation_targetAtFixation,jsons/v1_VE250_randls_17.json,http://54.235.29.9/FacialAge/BNav_EC2/DepthDuration/v2_depth_duration_MTurk/v2_DepthDuration_HTML.html#430,430,1366,625,1366,768,9-3-2022,9-30-39,56,depth_duration_stimuli/002988_2014-06-15_12-24-20_094959634447_rgbf000150-resize_1/002988_2014-06-15_12-24-20_094959634447_rgbf000150-resize_1-target.png,250,4.7669999999999995,4,3541,264,feet,jsons/v1_VE250_randls_17.json,736141,874247,54,Man
56,184299,DepthScenes,duration_manipulation_targetAtFixation,jsons/v1_VE250_randls_17.json,http://54.235.29.9/FacialAge/BNav_EC2/DepthDuration/v2_depth_duration_MTurk/v2_DepthDuration_HTML.html#430,430,1366,625,1366,768,9-3-2022,9-30-39,57,depth_duration_stimuli/001052_2014-06-08_18-24-54_260595134347_rgbf000130-resize_1/001052_2014-06-08_18-24-54_260595134347_rgbf000130-resize_1-target.png,250,4.1045,4,3610,248,feet,jsons/v1_VE250_randls_17.json,736141,874247,54,Man
57,184299,DepthScenes,duration_manipulation_targetAtFixation,jsons/v1_VE250_randls_17.json,http://54.235.29.9/FacialAge/BNav_EC2/DepthDuration/v2_depth_duration_MTurk/v2_DepthDuration_HTML.html#430,430,1366,625,1366,768,9-3-2022,9-30-39,58,depth_duration_stimuli/001059_2014-06-08_21-53-27_260595134347_rgbf000061-resize_4/001059_2014-06-08_21-53-27_260595134347_rgbf000061-resize_4-target.png,250,2.4185,3,3300,248,feet,jsons/v1_VE250_randls_17.json,736141,874247,54,Man
58,184299,DepthScenes,duration_manipulation_targetAtFixation,jsons/v1_VE250_randls_17.json,http://54.235.29.9/FacialAge/BNav_EC2/DepthDuration/v2_depth_duration_MTurk/v2_DepthDuration_HTML.html#430,430,1366,625,1366,768,9-3-2022,9-30-39,59,depth_duration_stimuli/001032_2014-06-08_13-23-17_260595134347_rgbf000021-resize_3/001032_2014-06-08_13-23-17_260595134347_rgbf000021-resize_3-target.png,250,3.2725,2,3523,333,feet,jsons/v1_VE250_randls_17.json,736141,874247,54,Man
59,184299,DepthScenes,duration_manipulation_targetAtFixation,jsons/v1_VE250_randls_17.json,http://54.235.29.9/FacialAge/BNav_EC2/DepthDuration/v2_depth_duration_MTurk/v2_DepthDuration_HTML.html#430,430,1366,625,1366,768,9-3-2022,9-30-39,60,depth_duration_stimuli/002964_2014-06-08_17-46-11_094959634447_rgbf000091-resize_4/002964_2014-06-08_17-46-11_094959634447_rgbf000091-resize_4-target.png,250,1.6909999999999998,1,3823,244,feet,jsons/v1_VE250_randls_17.json,736141,874247,54,Man
60,184299,DepthScenes,duration_manipulation_targetAtFixation,jsons/v1_VE250_randls_17.json,http://54.235.29.9/FacialAge/BNav_EC2/DepthDuration/v2_depth_duration_MTurk/v2_DepthDuration_HTML.html#430,430,1366,625,1366,768,9-3-2022,9-30-39,61,depth_duration_stimuli/002136_2014-06-25_21-18-03_260595134347_rgbf000109-resize_3/002136_2014-06-25_21-18-03_260595134347_rgbf000109-resize_3-target.png,250,1.9569999999999999,2,3234,240,feet,jsons/v1_VE250_randls_17.json,736141,874247,54,Man
61,184299,DepthScenes,duration_manipulation_targetAtFixation,jsons/v1_VE250_randls_17.json,http://54.235.29.9/FacialAge/BNav_EC2/DepthDuration/v2_depth_duration_MTurk/v2_DepthDuration_HTML.html#430,430,1366,625,1366,768,9-3-2022,9-30-39,62,depth_duration_stimuli/002989_2014-06-15_12-25-03_094959634447_rgbf000150-resize_3/002989_2014-06-15_12-25-03_094959634447_rgbf000150-resize_3-target.png,250,4.1975,3,3897,250,feet,jsons/v1_VE250_randls_17.json,736141,874247,54,Man
62,184299,DepthScenes,duration_manipulation_targetAtFixation,jsons/v1_VE250_randls_17.json,http://54.235.29.9/FacialAge/BNav_EC2/DepthDuration/v2_depth_duration_MTurk/v2_DepthDuration_HTML.html#430,430,1366,625,1366,768,9-3-2022,9-30-39,63,depth_duration_stimuli/000866_2014-06-09_20-45-42_260595134347_rgbf000139-resize_1/000866_2014-06-09_20-45-42_260595134347_rgbf000139-resize_1-target.png,250,3.2155,3,3538,249,feet,jsons/v1_VE250_randls_17.json,736141,874247,54,Man
63,184299,DepthScenes,duration_manipulation_targetAtFixation,jsons/v1_VE250_randls_17.json,http://54.235.29.9/FacialAge/BNav_EC2/DepthDuration/v2_depth_duration_MTurk/v2_DepthDuration_HTML.html#430,430,1366,625,1366,768,9-3-2022,9-30-39,64,depth_duration_stimuli/002153_2014-06-25_21-27-18_260595134347_rgbf000038-resize_5/002153_2014-06-25_21-27-18_260595134347_rgbf000038-resize_5-target.png,250,2.505,2,3366,246,feet,jsons/v1_VE250_randls_17.json,736141,874247,54,Man
64,184299,DepthScenes,duration_manipulation_targetAtFixation,jsons/v1_VE250_randls_17.json,http://54.235.29.9/FacialAge/BNav_EC2/DepthDuration/v2_depth_duration_MTurk/v2_DepthDuration_HTML.html#430,430,1366,625,1366,768,9-3-2022,9-30-39,65,depth_duration_stimuli/002660_2014-06-13_15-44-18_094959634447_rgbf001878-resize_2/002660_2014-06-13_15-44-18_094959634447_rgbf001878-resize_2-target.png,250,3.576,2,3346,245,feet,jsons/v1_VE250_randls_17.json,736141,874247,54,Man
65,184299,DepthScenes,duration_manipulation_targetAtFixation,jsons/v1_VE250_randls_17.json,http://54.235.29.9/FacialAge/BNav_EC2/DepthDuration/v2_depth_duration_MTurk/v2_DepthDuration_HTML.html#430,430,1366,625,1366,768,9-3-2022,9-30-39,66,depth_duration_stimuli/001222_2014-06-17_16-24-06_260595134347_rgbf000073-resize_0/001222_2014-06-17_16-24-06_260595134347_rgbf000073-resize-original.jpg,250,1.4385,2,4100,249,feet,jsons/v1_VE250_randls_17.json,736141,874247,54,Man
66,184299,DepthScenes,duration_manipulation_targetAtFixation,jsons/v1_VE250_randls_17.json,http://54.235.29.9/FacialAge/BNav_EC2/DepthDuration/v2_depth_duration_MTurk/v2_DepthDuration_HTML.html#430,430,1366,625,1366,768,9-3-2022,9-30-39,67,depth_duration_stimuli/000493_2014-06-09_21-01-18_260595134347_rgbf000196-resize_3/000493_2014-06-09_21-01-18_260595134347_rgbf000196-resize_3-target.png,250,3.44,3,7795,251,feet,jsons/v1_VE250_randls_17.json,736141,874247,54,Man
67,184299,DepthScenes,duration_manipulation_targetAtFixation,jsons/v1_VE250_randls_17.json,http://54.235.29.9/FacialAge/BNav_EC2/DepthDuration/v2_depth_duration_MTurk/v2_DepthDuration_HTML.html#430,430,1366,625,1366,768,9-3-2022,9-30-39,68,depth_duration_stimuli/000191_2014-05-12_17-07-38_260595134347_rgbf000199-resize_0/000191_2014-05-12_17-07-38_260595134347_rgbf000199-resize_0-target.png,250,3.7995,3,5331,204,feet,jsons/v1_VE250_randls_17.json,736141,874247,54,Man
68,184299,DepthScenes,duration_manipulation_targetAtFixation,jsons/v1_VE250_randls_17.json,http://54.235.29.9/FacialAge/BNav_EC2/DepthDuration/v2_depth_duration_MTurk/v2_DepthDuration_HTML.html#430,430,1366,625,1366,768,9-3-2022,9-30-39,69,depth_duration_stimuli/000758_2014-06-08_22-05-08_260595134347_rgbf000085-resize_0/000758_2014-06-08_22-05-08_260595134347_rgbf000085-resize_0-target.png,250,3.3810000000000002,3,4159,178,feet,jsons/v1_VE250_randls_17.json,736141,874247,54,Man
69,184299,DepthScenes,duration_manipulation_targetAtFixation,jsons/v1_VE250_randls_17.json,http://54.235.29.9/FacialAge/BNav_EC2/DepthDuration/v2_depth_duration_MTurk/v2_DepthDuration_HTML.html#430,430,1366,625,1366,768,9-3-2022,9-30-39,70,depth_duration_stimuli/000854_2014-06-09_19-43-13_260595134347_rgbf000066-resize_0/000854_2014-06-09_19-43-13_260595134347_rgbf000066-resize_0-target.png,250,3.068,1,4334,251,feet,jsons/v1_VE250_randls_17.json,736141,874247,54,Man
70,184299,DepthScenes,duration_manipulation_targetAtFixation,jsons/v1_VE250_randls_17.json,http://54.235.29.9/FacialAge/BNav_EC2/DepthDuration/v2_depth_duration_MTurk/v2_DepthDuration_HTML.html#430,430,1366,625,1366,768,9-3-2022,9-30-39,71,depth_duration_stimuli/001092_2014-06-15_17-34-58_260595134347_rgbf000171-resize_3/001092_2014-06-15_17-34-58_260595134347_rgbf000171-resize_3-target.png,250,2.6935,2,3822,255,feet,jsons/v1_VE250_randls_17.json,736141,874247,54,Man
71,184299,DepthScenes,duration_manipulation_targetAtFixation,jsons/v1_VE250_randls_17.json,http://54.235.29.9/FacialAge/BNav_EC2/DepthDuration/v2_depth_duration_MTurk/v2_DepthDuration_HTML.html#430,430,1366,625,1366,768,9-3-2022,9-30-39,72,depth_duration_stimuli/002545_2014-06-24_13-38-53_094959634447_rgbf000080-resize_4/002545_2014-06-24_13-38-53_094959634447_rgbf000080-resize_4-target.png,250,1.9205,1,5157,249,feet,jsons/v1_VE250_randls_17.json,736141,874247,54,Man
72,184299,DepthScenes,duration_manipulation_targetAtFixation,jsons/v1_VE250_randls_17.json,http://54.235.29.9/FacialAge/BNav_EC2/DepthDuration/v2_depth_duration_MTurk/v2_DepthDuration_HTML.html#430,430,1366,625,1366,768,9-3-2022,9-30-39,73,depth_duration_stimuli/002784_2014-06-22_19-26-30_094959634447_rgbf000083-resize_3/002784_2014-06-22_19-26-30_094959634447_rgbf000083-resize_3-target.png,250,1.8046666666667,1,4603,243,feet,jsons/v1_VE250_randls_17.json,736141,874247,54,Man
73,184299,DepthScenes,duration_manipulation_targetAtFixation,jsons/v1_VE250_randls_17.json,http://54.235.29.9/FacialAge/BNav_EC2/DepthDuration/v2_depth_duration_MTurk/v2_DepthDuration_HTML.html#430,430,1366,625,1366,768,9-3-2022,9-30-39,74,depth_duration_stimuli/001100_2014-06-15_17-46-26_260595134347_rgbf000225-resize_2/001100_2014-06-15_17-46-26_260595134347_rgbf000225-resize_2-target.png,250,2.24,1,4711,244,feet,jsons/v1_VE250_randls_17.json,736141,874247,54,Man
74,184299,DepthScenes,duration_manipulation_targetAtFixation,jsons/v1_VE250_randls_17.json,http://54.235.29.9/FacialAge/BNav_EC2/DepthDuration/v2_depth_duration_MTurk/v2_DepthDuration_HTML.html#430,430,1366,625,1366,768,9-3-2022,9-30-39,75,depth_duration_stimuli/000682_2014-06-08_23-14-58_260595134347_rgbf000041-resize_5/000682_2014-06-08_23-14-58_260595134347_rgbf000041-resize_5-target.png,250,2.7239999999999998,2,3686,251,feet,jsons/v1_VE250_randls_17.json,736141,874247,54,Man
75,184299,DepthScenes,duration_manipulation_targetAtFixation,jsons/v1_VE250_randls_17.json,http://54.235.29.9/FacialAge/BNav_EC2/DepthDuration/v2_depth_duration_MTurk/v2_DepthDuration_HTML.html#430,430,1366,625,1366,768,9-3-2022,9-30-39,76,depth_duration_stimuli/001650_2014-06-20_12-09-00_260595134347_rgbf000087-resize_3/001650_2014-06-20_12-09-00_260595134347_rgbf000087-resize_3-target.png,250,1.9505,2,3497,249,feet,jsons/v1_VE250_randls_17.json,736141,874247,54,Man
76,184299,DepthScenes,duration_manipulation_targetAtFixation,jsons/v1_VE250_randls_17.json,http://54.235.29.9/FacialAge/BNav_EC2/DepthDuration/v2_depth_duration_MTurk/v2_DepthDuration_HTML.html#430,430,1366,625,1366,768,9-3-2022,9-30-39,77,depth_duration_stimuli/001055_2014-06-08_18-45-35_260595134347_rgbf000111-resize_4/001055_2014-06-08_18-45-35_260595134347_rgbf000111-resize_4-target.png,250,2.4290000000000003,3,3349,252,feet,jsons/v1_VE250_randls_17.json,736141,874247,54,Man
77,184299,DepthScenes,duration_manipulation_targetAtFixation,jsons/v1_VE250_randls_17.json,http://54.235.29.9/FacialAge/BNav_EC2/DepthDuration/v2_depth_duration_MTurk/v2_DepthDuration_HTML.html#430,430,1366,625,1366,768,9-3-2022,9-30-39,78,depth_duration_stimuli/000549_2014-06-08_22-10-24_260595134347_rgbf000247-resize_3/000549_2014-06-08_22-10-24_260595134347_rgbf000247-resize_3-target.png,250,1.841,2,6079,244,feet,jsons/v1_VE250_randls_17.json,736141,874247,54,Man
78,184299,DepthScenes,duration_manipulation_targetAtFixation,jsons/v1_VE250_randls_17.json,http://54.235.29.9/FacialAge/BNav_EC2/DepthDuration/v2_depth_duration_MTurk/v2_DepthDuration_HTML.html#430,430,1366,625,1366,768,9-3-2022,9-30-39,79,depth_duration_stimuli/000522_2014-06-08_13-35-06_260595134347_rgbf000244-resize_1/000522_2014-06-08_13-35-06_260595134347_rgbf000244-resize_1-target.png,250,2.3715,2,3670,239,feet,jsons/v1_VE250_randls_17.json,736141,874247,54,Man
79,184299,DepthScenes,duration_manipulation_targetAtFixation,jsons/v1_VE250_randls_17.json,http://54.235.29.9/FacialAge/BNav_EC2/DepthDuration/v2_depth_duration_MTurk/v2_DepthDuration_HTML.html#430,430,1366,625,1366,768,9-3-2022,9-30-39,80,depth_duration_stimuli/002949_2014-06-26_15-57-42_094959634447_rgbf000079-resize_1/002949_2014-06-26_15-57-42_094959634447_rgbf000079-resize_1-target.png,250,1.8915,1,3645,260,feet,jsons/v1_VE250_randls_17.json,736141,874247,54,Man
80,184299,DepthScenes,duration_manipulation_targetAtFixation,jsons/v1_VE250_randls_17.json,http://54.235.29.9/FacialAge/BNav_EC2/DepthDuration/v2_depth_duration_MTurk/v2_DepthDuration_HTML.html#430,430,1366,625,1366,768,9-3-2022,9-30-39,81,depth_duration_stimuli/001066_2014-06-08_22-03-20_260595134347_rgbf000066-resize_4/001066_2014-06-08_22-03-20_260595134347_rgbf000066-resize_4-target.png,250,4.2330000000000005,4,3963,367,feet,jsons/v1_VE250_randls_17.json,736141,874247,54,Man
81,184299,DepthScenes,duration_manipulation_targetAtFixation,jsons/v1_VE250_randls_17.json,http://54.235.29.9/FacialAge/BNav_EC2/DepthDuration/v2_depth_duration_MTurk/v2_DepthDuration_HTML.html#430,430,1366,625,1366,768,9-3-2022,9-30-39,82,depth_duration_stimuli/000742_2014-06-08_18-48-09_260595134347_rgbf000164-resize_4/000742_2014-06-08_18-48-09_260595134347_rgbf000164-resize_4-target.png,250,4.632,3,4443,284,feet,jsons/v1_VE250_randls_17.json,736141,874247,54,Man
82,184299,DepthScenes,duration_manipulation_targetAtFixation,jsons/v1_VE250_randls_17.json,http://54.235.29.9/FacialAge/BNav_EC2/DepthDuration/v2_depth_duration_MTurk/v2_DepthDuration_HTML.html#430,430,1366,625,1366,768,9-3-2022,9-30-39,83,depth_duration_stimuli/000368_2014-06-09_15-53-01_260595134347_rgbf000155-resize_2/000368_2014-06-09_15-53-01_260595134347_rgbf000155-resize_2-target.png,250,2.4859999999999998,2,3462,252,feet,jsons/v1_VE250_randls_17.json,736141,874247,54,Man
83,184299,DepthScenes,duration_manipulation_targetAtFixation,jsons/v1_VE250_randls_17.json,http://54.235.29.9/FacialAge/BNav_EC2/DepthDuration/v2_depth_duration_MTurk/v2_DepthDuration_HTML.html#430,430,1366,625,1366,768,9-3-2022,9-30-39,84,depth_duration_stimuli/002678_2014-06-13_16-15-32_094959634447_rgbf000151-resize_6/002678_2014-06-13_16-15-32_094959634447_rgbf000151-resize_6-target.png,250,2.1830000000000003,3,3493,257,feet,jsons/v1_VE250_randls_17.json,736141,874247,54,Man
84,184299,DepthScenes,duration_manipulation_targetAtFixation,jsons/v1_VE250_randls_17.json,http://54.235.29.9/FacialAge/BNav_EC2/DepthDuration/v2_depth_duration_MTurk/v2_DepthDuration_HTML.html#430,430,1366,625,1366,768,9-3-2022,9-30-39,85,depth_duration_stimuli/002788_2014-06-22_19-36-03_094959634447_rgbf000088-resize_2/002788_2014-06-22_19-36-03_094959634447_rgbf000088-resize_2-target.png,250,1.6465,3,3606,261,feet,jsons/v1_VE250_randls_17.json,736141,874247,54,Man
85,184299,DepthScenes,duration_manipulation_targetAtFixation,jsons/v1_VE250_randls_17.json,http://54.235.29.9/FacialAge/BNav_EC2/DepthDuration/v2_depth_duration_MTurk/v2_DepthDuration_HTML.html#430,430,1366,625,1366,768,9-3-2022,9-30-39,86,depth_duration_stimuli/000749_2014-06-08_21-55-06_260595134347_rgbf000070-resize_2/000749_2014-06-08_21-55-06_260595134347_rgbf000070-resize_2-target.png,250,2.331,3,3570,249,feet,jsons/v1_VE250_randls_17.json,736141,874247,54,Man
86,184299,DepthScenes,duration_manipulation_targetAtFixation,jsons/v1_VE250_randls_17.json,http://54.235.29.9/FacialAge/BNav_EC2/DepthDuration/v2_depth_duration_MTurk/v2_DepthDuration_HTML.html#430,430,1366,625,1366,768,9-3-2022,9-30-39,87,depth_duration_stimuli/000917_2014-06-09_22-45-29_260595134347_rgbf000149-resize_3/000917_2014-06-09_22-45-29_260595134347_rgbf000149-resize_3-target.png,250,4.1865,3,3834,244,feet,jsons/v1_VE250_randls_17.json,736141,874247,54,Man
87,184299,DepthScenes,duration_manipulation_targetAtFixation,jsons/v1_VE250_randls_17.json,http://54.235.29.9/FacialAge/BNav_EC2/DepthDuration/v2_depth_duration_MTurk/v2_DepthDuration_HTML.html#430,430,1366,625,1366,768,9-3-2022,9-30-39,88,depth_duration_stimuli/002323_2014-06-28_20-01-54_260595134347_rgbf000051-resize_4/002323_2014-06-28_20-01-54_260595134347_rgbf000051-resize_4-target.png,250,3.7310000000000003,3,3267,251,feet,jsons/v1_VE250_randls_17.json,736141,874247,54,Man
88,184299,DepthScenes,duration_manipulation_targetAtFixation,jsons/v1_VE250_randls_17.json,http://54.235.29.9/FacialAge/BNav_EC2/DepthDuration/v2_depth_duration_MTurk/v2_DepthDuration_HTML.html#430,430,1366,625,1366,768,9-3-2022,9-30-39,89,depth_duration_stimuli/001449_2014-06-19_17-01-27_260595134347_rgbf000116-resize_2/001449_2014-06-19_17-01-27_260595134347_rgbf000116-resize_2-target.png,250,3.452,2,3667,245,feet,jsons/v1_VE250_randls_17.json,736141,874247,54,Man
89,184299,DepthScenes,duration_manipulation_targetAtFixation,jsons/v1_VE250_randls_17.json,http://54.235.29.9/FacialAge/BNav_EC2/DepthDuration/v2_depth_duration_MTurk/v2_DepthDuration_HTML.html#430,430,1366,625,1366,768,9-3-2022,9-30-39,90,depth_duration_stimuli/001450_2014-06-19_17-02-03_260595134347_rgbf000203-resize_4/001450_2014-06-19_17-02-03_260595134347_rgbf000203-resize_4-target.png,250,4.0106666666667,3,6096,261,feet,jsons/v1_VE250_randls_17.json,736141,874247,54,Man
90,184299,DepthScenes,duration_manipulation_targetAtFixation,jsons/v1_VE250_randls_17.json,http://54.235.29.9/FacialAge/BNav_EC2/DepthDuration/v2_depth_duration_MTurk/v2_DepthDuration_HTML.html#430,430,1366,625,1366,768,9-3-2022,9-30-39,91,depth_duration_stimuli/001016_2014-06-09_16-16-10_260595134347_rgbf000112-resize_5/001016_2014-06-09_16-16-10_260595134347_rgbf000112-resize_5-target.png,250,1.6565,2,3679,196,feet,jsons/v1_VE250_randls_17.json,736141,874247,54,Man
91,184299,DepthScenes,duration_manipulation_targetAtFixation,jsons/v1_VE250_randls_17.json,http://54.235.29.9/FacialAge/BNav_EC2/DepthDuration/v2_depth_duration_MTurk/v2_DepthDuration_HTML.html#430,430,1366,625,1366,768,9-3-2022,9-30-39,92,depth_duration_stimuli/002340_2014-06-28_20-05-46_260595134347_rgbf000113-resize_0/002340_2014-06-28_20-05-46_260595134347_rgbf000113-resize_0-target.png,250,2.4735,4,3689,238,feet,jsons/v1_VE250_randls_17.json,736141,874247,54,Man
92,184299,DepthScenes,duration_manipulation_targetAtFixation,jsons/v1_VE250_randls_17.json,http://54.235.29.9/FacialAge/BNav_EC2/DepthDuration/v2_depth_duration_MTurk/v2_DepthDuration_HTML.html#430,430,1366,625,1366,768,9-3-2022,9-30-39,93,depth_duration_stimuli/002630_2014-06-24_14-47-50_094959634447_rgbf000055-resize_1/002630_2014-06-24_14-47-50_094959634447_rgbf000055-resize_1-target.png,250,3.0095,4,3457,243,feet,jsons/v1_VE250_randls_17.json,736141,874247,54,Man
93,184299,DepthScenes,duration_manipulation_targetAtFixation,jsons/v1_VE250_randls_17.json,http://54.235.29.9/FacialAge/BNav_EC2/DepthDuration/v2_depth_duration_MTurk/v2_DepthDuration_HTML.html#430,430,1366,625,1366,768,9-3-2022,9-30-39,94,depth_duration_stimuli/002758_2014-06-22_19-11-20_094959634447_rgbf000128-resize_1/002758_2014-06-22_19-11-20_094959634447_rgbf000128-resize_1-target.png,250,2.555,2,3471,250,feet,jsons/v1_VE250_randls_17.json,736141,874247,54,Man
94,184299,DepthScenes,duration_manipulation_targetAtFixation,jsons/v1_VE250_randls_17.json,http://54.235.29.9/FacialAge/BNav_EC2/DepthDuration/v2_depth_duration_MTurk/v2_DepthDuration_HTML.html#430,430,1366,625,1366,768,9-3-2022,9-30-39,95,depth_duration_stimuli/002725_2014-06-22_11-47-51_094959634447_rgbf000070-resize_1/002725_2014-06-22_11-47-51_094959634447_rgbf000070-resize_1-target.png,250,2.195,2,4672,240,feet,jsons/v1_VE250_randls_17.json,736141,874247,54,Man
95,184299,DepthScenes,duration_manipulation_targetAtFixation,jsons/v1_VE250_randls_17.json,http://54.235.29.9/FacialAge/BNav_EC2/DepthDuration/v2_depth_duration_MTurk/v2_DepthDuration_HTML.html#430,430,1366,625,1366,768,9-3-2022,9-30-39,96,depth_duration_stimuli/002344_2014-06-28_20-06-29_260595134347_rgbf000030-resize_1/002344_2014-06-28_20-06-29_260595134347_rgbf000030-resize_1-target.png,250,1.5795,2,3775,267,feet,jsons/v1_VE250_randls_17.json,736141,874247,54,Man
96,184299,DepthScenes,duration_manipulation_targetAtFixation,jsons/v1_VE250_randls_17.json,http://54.235.29.9/FacialAge/BNav_EC2/DepthDuration/v2_depth_duration_MTurk/v2_DepthDuration_HTML.html#430,430,1366,625,1366,768,9-3-2022,9-30-39,97,depth_duration_stimuli/001110_2014-06-15_17-25-28_260595134347_rgbf000150-resize_1/001110_2014-06-15_17-25-28_260595134347_rgbf000150-resize_1-target.png,250,1.7115,2,3656,246,feet,jsons/v1_VE250_randls_17.json,736141,874247,54,Man
97,184299,DepthScenes,duration_manipulation_targetAtFixation,jsons/v1_VE250_randls_17.json,http://54.235.29.9/FacialAge/BNav_EC2/DepthDuration/v2_depth_duration_MTurk/v2_DepthDuration_HTML.html#430,430,1366,625,1366,768,9-3-2022,9-30-39,98,depth_duration_stimuli/000927_2014-06-09_16-32-30_260595134347_rgbf000123-resize_3/000927_2014-06-09_16-32-30_260595134347_rgbf000123-resize_3-target.png,250,2.6785,1,4620,251,feet,jsons/v1_VE250_randls_17.json,736141,874247,54,Man
98,184299,DepthScenes,duration_manipulation_targetAtFixation,jsons/v1_VE250_randls_17.json,http://54.235.29.9/FacialAge/BNav_EC2/DepthDuration/v2_depth_duration_MTurk/v2_DepthDuration_HTML.html#430,430,1366,625,1366,768,9-3-2022,9-30-39,99,depth_duration_stimuli/001540_2014-06-20_17-01-05_260595134347_rgbf000086-resize_2/001540_2014-06-20_17-01-05_260595134347_rgbf000086-resize-original.jpg,250,1.459,1,3929,240,feet,jsons/v1_VE250_randls_17.json,736141,874247,54,Man
99,184299,DepthScenes,duration_manipulation_targetAtFixation,jsons/v1_VE250_randls_17.json,http://54.235.29.9/FacialAge/BNav_EC2/DepthDuration/v2_depth_duration_MTurk/v2_DepthDuration_HTML.html#430,430,1366,625,1366,768,9-3-2022,9-30-39,100,depth_duration_stimuli/000414_2014-06-04_19-49-13_260595134347_rgbf000044-resize_0/000414_2014-06-04_19-49-13_260595134347_rgbf000044-resize_0-target.png,250,4.329,2,5190,251,feet,jsons/v1_VE250_randls_17.json,736141,874247,54,Man
100,184299,DepthScenes,duration_manipulation_targetAtFixation,jsons/v1_VE250_randls_17.json,http://54.235.29.9/FacialAge/BNav_EC2/DepthDuration/v2_depth_duration_MTurk/v2_DepthDuration_HTML.html#430,430,1366,625,1366,768,9-3-2022,9-30-39,101,depth_duration_stimuli/003129_2014-05-12_10-48-10_094959634447_rgbf000100-resize_0/003129_2014-05-12_10-48-10_094959634447_rgbf000100-resize_0-target.png,250,4.9305,1,6916,238,feet,jsons/v1_VE250_randls_17.json,736141,874247,54,Man
101,184299,DepthScenes,duration_manipulation_targetAtFixation,jsons/v1_VE250_randls_17.json,http://54.235.29.9/FacialAge/BNav_EC2/DepthDuration/v2_depth_duration_MTurk/v2_DepthDuration_HTML.html#430,430,1366,625,1366,768,9-3-2022,9-30-39,102,depth_duration_stimuli/002272_2014-06-28_18-53-56_260595134347_rgbf000067-resize_2/002272_2014-06-28_18-53-56_260595134347_rgbf000067-resize_2-target.png,250,1.138,2,3392,232,feet,jsons/v1_VE250_randls_17.json,736141,874247,54,Man
102,184299,DepthScenes,duration_manipulation_targetAtFixation,jsons/v1_VE250_randls_17.json,http://54.235.29.9/FacialAge/BNav_EC2/DepthDuration/v2_depth_duration_MTurk/v2_DepthDuration_HTML.html#430,430,1366,625,1366,768,9-3-2022,9-30-39,103,depth_duration_stimuli/001571_2014-06-20_17-21-32_260595134347_rgbf000089-resize_1/001571_2014-06-20_17-21-32_260595134347_rgbf000089-resize_1-target.png,250,1.86,1,3836,249,feet,jsons/v1_VE250_randls_17.json,736141,874247,54,Man
103,184299,DepthScenes,duration_manipulation_targetAtFixation,jsons/v1_VE250_randls_17.json,http://54.235.29.9/FacialAge/BNav_EC2/DepthDuration/v2_depth_duration_MTurk/v2_DepthDuration_HTML.html#430,430,1366,625,1366,768,9-3-2022,9-30-39,104,depth_duration_stimuli/001175_2014-06-17_15-45-55_260595134347_rgbf000129-resize_4/001175_2014-06-17_15-45-55_260595134347_rgbf000129-resize_4-target.png,250,4.255,3,4176,249,feet,jsons/v1_VE250_randls_17.json,736141,874247,54,Man
104,184299,DepthScenes,duration_manipulation_targetAtFixation,jsons/v1_VE250_randls_17.json,http://54.235.29.9/FacialAge/BNav_EC2/DepthDuration/v2_depth_duration_MTurk/v2_DepthDuration_HTML.html#430,430,1366,625,1366,768,9-3-2022,9-30-39,105,depth_duration_stimuli/003490_2014-05-21_15-50-11_094959634447_rgbf000101-resize_3/003490_2014-05-21_15-50-11_094959634447_rgbf000101-resize_3-target.png,250,3.6445,2,3566,292,feet,jsons/v1_VE250_randls_17.json,736141,874247,54,Man
105,184299,DepthScenes,duration_manipulation_targetAtFixation,jsons/v1_VE250_randls_17.json,http://54.235.29.9/FacialAge/BNav_EC2/DepthDuration/v2_depth_duration_MTurk/v2_DepthDuration_HTML.html#430,430,1366,625,1366,768,9-3-2022,9-30-39,106,depth_duration_stimuli/003292_2014-05-14_21-53-49_094959634447_rgbf000100-resize_2/003292_2014-05-14_21-53-49_094959634447_rgbf000100-resize_2-target.png,250,3.4815,2,3831,244,feet,jsons/v1_VE250_randls_17.json,736141,874247,54,Man
106,184299,DepthScenes,duration_manipulation_targetAtFixation,jsons/v1_VE250_randls_17.json,http://54.235.29.9/FacialAge/BNav_EC2/DepthDuration/v2_depth_duration_MTurk/v2_DepthDuration_HTML.html#430,430,1366,625,1366,768,9-3-2022,9-30-39,107,depth_duration_stimuli/002639_2014-06-24_14-51-37_094959634447_rgbf000074-resize_4/002639_2014-06-24_14-51-37_094959634447_rgbf000074-resize_4-target.png,250,4.0375,2,3608,245,feet,jsons/v1_VE250_randls_17.json,736141,874247,54,Man
107,184299,DepthScenes,duration_manipulation_targetAtFixation,jsons/v1_VE250_randls_17.json,http://54.235.29.9/FacialAge/BNav_EC2/DepthDuration/v2_depth_duration_MTurk/v2_DepthDuration_HTML.html#430,430,1366,625,1366,768,9-3-2022,9-30-39,108,depth_duration_stimuli/000810_2014-06-08_17-20-01_260595134347_rgbf000105-resize_0/000810_2014-06-08_17-20-01_260595134347_rgbf000105-resize_0-target.png,250,1.4865,2,3848,261,feet,jsons/v1_VE250_randls_17.json,736141,874247,54,Man
108,184299,DepthScenes,duration_manipulation_targetAtFixation,jsons/v1_VE250_randls_17.json,http://54.235.29.9/FacialAge/BNav_EC2/DepthDuration/v2_depth_duration_MTurk/v2_DepthDuration_HTML.html#430,430,1366,625,1366,768,9-3-2022,9-30-39,109,depth_duration_stimuli/001214_2014-06-17_16-13-55_260595134347_rgbf000111-resize_0/001214_2014-06-17_16-13-55_260595134347_rgbf000111-resize_0-target.png,250,2.6505,2,6335,250,feet,jsons/v1_VE250_randls_17.json,736141,874247,54,Man
109,184299,DepthScenes,duration_manipulation_targetAtFixation,jsons/v1_VE250_randls_17.json,http://54.235.29.9/FacialAge/BNav_EC2/DepthDuration/v2_depth_duration_MTurk/v2_DepthDuration_HTML.html#430,430,1366,625,1366,768,9-3-2022,9-30-39,110,depth_duration_stimuli/000878_2014-06-08_22-52-45_260595134347_rgbf000045-resize_2/000878_2014-06-08_22-52-45_260595134347_rgbf000045-resize_2-target.png,250,2.092,2,4606,245,feet,jsons/v1_VE250_randls_17.json,736141,874247,54,Man
110,184299,DepthScenes,duration_manipulation_targetAtFixation,jsons/v1_VE250_randls_17.json,http://54.235.29.9/FacialAge/BNav_EC2/DepthDuration/v2_depth_duration_MTurk/v2_DepthDuration_HTML.html#430,430,1366,625,1366,768,9-3-2022,9-30-39,111,depth_duration_stimuli/002953_2014-06-08_17-32-18_094959634447_rgbf000059-resize_5/002953_2014-06-08_17-32-18_094959634447_rgbf000059-resize_5-target.png,250,1.551,2,3730,258,feet,jsons/v1_VE250_randls_17.json,736141,874247,54,Man
111,184299,DepthScenes,duration_manipulation_targetAtFixation,jsons/v1_VE250_randls_17.json,http://54.235.29.9/FacialAge/BNav_EC2/DepthDuration/v2_depth_duration_MTurk/v2_DepthDuration_HTML.html#430,430,1366,625,1366,768,9-3-2022,9-30-39,112,depth_duration_stimuli/001555_2014-06-20_17-12-10_260595134347_rgbf000065-resize_4/001555_2014-06-20_17-12-10_260595134347_rgbf000065-resize_4-target.png,250,1.633,1,3606,260,feet,jsons/v1_VE250_randls_17.json,736141,874247,54,Man
112,184299,DepthScenes,duration_manipulation_targetAtFixation,jsons/v1_VE250_randls_17.json,http://54.235.29.9/FacialAge/BNav_EC2/DepthDuration/v2_depth_duration_MTurk/v2_DepthDuration_HTML.html#430,430,1366,625,1366,768,9-3-2022,9-30-39,113,depth_duration_stimuli/000103_2014-05-14_22-01-17_260595134347_rgbf000152-resize_5/000103_2014-05-14_22-01-17_260595134347_rgbf000152-resize_5-target.png,250,1.993,3,3631,241,feet,jsons/v1_VE250_randls_17.json,736141,874247,54,Man
113,184299,DepthScenes,duration_manipulation_targetAtFixation,jsons/v1_VE250_randls_17.json,http://54.235.29.9/FacialAge/BNav_EC2/DepthDuration/v2_depth_duration_MTurk/v2_DepthDuration_HTML.html#430,430,1366,625,1366,768,9-3-2022,9-30-39,114,depth_duration_stimuli/000009_2014-05-26_14-32-05_260595134347_rgbf000034-resize_3/000009_2014-05-26_14-32-05_260595134347_rgbf000034-resize_3-target.png,250,3.8715,4,3697,256,feet,jsons/v1_VE250_randls_17.json,736141,874247,54,Man
114,184299,DepthScenes,duration_manipulation_targetAtFixation,jsons/v1_VE250_randls_17.json,http://54.235.29.9/FacialAge/BNav_EC2/DepthDuration/v2_depth_duration_MTurk/v2_DepthDuration_HTML.html#430,430,1366,625,1366,768,9-3-2022,9-30-39,115,depth_duration_stimuli/001828_2014-06-26_21-40-03_260595134347_rgbf000024-resize_0/001828_2014-06-26_21-40-03_260595134347_rgbf000024-resize_0-target.png,250,4.8260000000000005,2,3615,245,feet,jsons/v1_VE250_randls_17.json,736141,874247,54,Man
115,184299,DepthScenes,duration_manipulation_targetAtFixation,jsons/v1_VE250_randls_17.json,http://54.235.29.9/FacialAge/BNav_EC2/DepthDuration/v2_depth_duration_MTurk/v2_DepthDuration_HTML.html#430,430,1366,625,1366,768,9-3-2022,9-30-39,116,depth_duration_stimuli/001170_2014-06-17_15-43-44_260595134347_rgbf000096-resize_6/001170_2014-06-17_15-43-44_260595134347_rgbf000096-resize-original.jpg,250,1.1909999999999998,1,4249,245,feet,jsons/v1_VE250_randls_17.json,736141,874247,54,Man
116,184299,DepthScenes,duration_manipulation_targetAtFixation,jsons/v1_VE250_randls_17.json,http://54.235.29.9/FacialAge/BNav_EC2/DepthDuration/v2_depth_duration_MTurk/v2_DepthDuration_HTML.html#430,430,1366,625,1366,768,9-3-2022,9-30-39,117,depth_duration_stimuli/002509_2014-06-24_13-19-22_094959634447_rgbf000077-resize_0/002509_2014-06-24_13-19-22_094959634447_rgbf000077-resize_0-target.png,250,1.3065,2,3655,255,feet,jsons/v1_VE250_randls_17.json,736141,874247,54,Man
117,184299,DepthScenes,duration_manipulation_targetAtFixation,jsons/v1_VE250_randls_17.json,http://54.235.29.9/FacialAge/BNav_EC2/DepthDuration/v2_depth_duration_MTurk/v2_DepthDuration_HTML.html#430,430,1366,625,1366,768,9-3-2022,9-30-39,118,depth_duration_stimuli/003338_2014-05-20_11-01-23_094959634447_rgbf000051-resize_6/003338_2014-05-20_11-01-23_094959634447_rgbf000051-resize_6-target.png,250,1.693,2,3456,261,feet,jsons/v1_VE250_randls_17.json,736141,874247,54,Man
118,184299,DepthScenes,duration_manipulation_targetAtFixation,jsons/v1_VE250_randls_17.json,http://54.235.29.9/FacialAge/BNav_EC2/DepthDuration/v2_depth_duration_MTurk/v2_DepthDuration_HTML.html#430,430,1366,625,1366,768,9-3-2022,9-30-39,119,depth_duration_stimuli/000736_2014-06-08_18-24-15_260595134347_rgbf000206-resize_3/000736_2014-06-08_18-24-15_260595134347_rgbf000206-resize_3-target.png,250,3.515,2,3524,243,feet,jsons/v1_VE250_randls_17.json,736141,874247,54,Man
119,184299,DepthScenes,duration_manipulation_targetAtFixation,jsons/v1_VE250_randls_17.json,http://54.235.29.9/FacialAge/BNav_EC2/DepthDuration/v2_depth_duration_MTurk/v2_DepthDuration_HTML.html#430,430,1366,625,1366,768,9-3-2022,9-30-39,120,depth_duration_stimuli/000137_2014-05-20_17-04-49_260595134347_rgbf000120-resize_1/000137_2014-05-20_17-04-49_260595134347_rgbf000120-resize_1-target.png,250,3.786,3,3653,243,feet,jsons/v1_VE250_randls_17.json,736141,874247,54,Man
120,184299,DepthScenes,duration_manipulation_targetAtFixation,jsons/v1_VE250_randls_17.json,http://54.235.29.9/FacialAge/BNav_EC2/DepthDuration/v2_depth_duration_MTurk/v2_DepthDuration_HTML.html#430,430,1366,625,1366,768,9-3-2022,9-30-39,121,depth_duration_stimuli/000692_2014-06-08_13-09-42_260595134347_rgbf000199-resize_2/000692_2014-06-08_13-09-42_260595134347_rgbf000199-resize_2-target.png,250,3.661,2,4750,260,feet,jsons/v1_VE250_randls_17.json,736141,874247,54,Man
121,184299,DepthScenes,duration_manipulation_targetAtFixation,jsons/v1_VE250_randls_17.json,http://54.235.29.9/FacialAge/BNav_EC2/DepthDuration/v2_depth_duration_MTurk/v2_DepthDuration_HTML.html#430,430,1366,625,1366,768,9-3-2022,9-30-39,122,depth_duration_stimuli/001094_2014-06-15_17-36-00_260595134347_rgbf000205-resize_0/001094_2014-06-15_17-36-00_260595134347_rgbf000205-resize_0-target.png,250,4.2175,2,5174,243,feet,jsons/v1_VE250_randls_17.json,736141,874247,54,Man
122,184299,DepthScenes,duration_manipulation_targetAtFixation,jsons/v1_VE250_randls_17.json,http://54.235.29.9/FacialAge/BNav_EC2/DepthDuration/v2_depth_duration_MTurk/v2_DepthDuration_HTML.html#430,430,1366,625,1366,768,9-3-2022,9-30-39,123,depth_duration_stimuli/000642_2014-06-08_16-59-25_260595134347_rgbf000098-resize_2/000642_2014-06-08_16-59-25_260595134347_rgbf000098-resize_2-target.png,250,2.8815,2,3380,251,feet,jsons/v1_VE250_randls_17.json,736141,874247,54,Man
123,184299,DepthScenes,duration_manipulation_targetAtFixation,jsons/v1_VE250_randls_17.json,http://54.235.29.9/FacialAge/BNav_EC2/DepthDuration/v2_depth_duration_MTurk/v2_DepthDuration_HTML.html#430,430,1366,625,1366,768,9-3-2022,9-30-39,124,depth_duration_stimuli/002425_2014-06-28_20-27-29_260595134347_rgbf000031-resize_8/002425_2014-06-28_20-27-29_260595134347_rgbf000031-resize_8-target.png,250,3.8960000000000004,3,3651,243,feet,jsons/v1_VE250_randls_17.json,736141,874247,54,Man
124,184299,DepthScenes,duration_manipulation_targetAtFixation,jsons/v1_VE250_randls_17.json,http://54.235.29.9/FacialAge/BNav_EC2/DepthDuration/v2_depth_duration_MTurk/v2_DepthDuration_HTML.html#430,430,1366,625,1366,768,9-3-2022,9-30-39,125,depth_duration_stimuli/001244_2014-06-17_16-47-45_260595134347_rgbf000030-resize_4/001244_2014-06-17_16-47-45_260595134347_rgbf000030-resize_4-target.png,250,2.0425,2,3325,259,feet,jsons/v1_VE250_randls_17.json,736141,874247,54,Man
125,184299,DepthScenes,duration_manipulation_targetAtFixation,jsons/v1_VE250_randls_17.json,http://54.235.29.9/FacialAge/BNav_EC2/DepthDuration/v2_depth_duration_MTurk/v2_DepthDuration_HTML.html#430,430,1366,625,1366,768,9-3-2022,9-30-39,126,depth_duration_stimuli/003495_2014-05-21_16-01-51_094959634447_rgbf000100-resize_3/003495_2014-05-21_16-01-51_094959634447_rgbf000100-resize_3-target.png,250,1.6255,2,3257,261,feet,jsons/v1_VE250_randls_17.json,736141,874247,54,Man
126,184299,DepthScenes,duration_manipulation_targetAtFixation,jsons/v1_VE250_randls_17.json,http://54.235.29.9/FacialAge/BNav_EC2/DepthDuration/v2_depth_duration_MTurk/v2_DepthDuration_HTML.html#430,430,1366,625,1366,768,9-3-2022,9-30-39,127,depth_duration_stimuli/002570_2014-06-24_13-59-54_094959634447_rgbf000059-resize_0/002570_2014-06-24_13-59-54_094959634447_rgbf000059-resize_0-target.png,250,4.037,2,3017,253,feet,jsons/v1_VE250_randls_17.json,736141,874247,54,Man
127,184299,DepthScenes,duration_manipulation_targetAtFixation,jsons/v1_VE250_randls_17.json,http://54.235.29.9/FacialAge/BNav_EC2/DepthDuration/v2_depth_duration_MTurk/v2_DepthDuration_HTML.html#430,430,1366,625,1366,768,9-3-2022,9-30-39,128,depth_duration_stimuli/002467_2014-06-28_20-38-07_260595134347_rgbf000026-resize_2/002467_2014-06-28_20-38-07_260595134347_rgbf000026-resize_2-target.png,250,4.742,3,3345,245,feet,jsons/v1_VE250_randls_17.json,736141,874247,54,Man
128,184299,DepthScenes,duration_manipulation_targetAtFixation,jsons/v1_VE250_randls_17.json,http://54.235.29.9/FacialAge/BNav_EC2/DepthDuration/v2_depth_duration_MTurk/v2_DepthDuration_HTML.html#430,430,1366,625,1366,768,9-3-2022,9-30-39,129,depth_duration_stimuli/000929_2014-06-09_16-33-19_260595134347_rgbf000139-resize_0/000929_2014-06-09_16-33-19_260595134347_rgbf000139-resize_0-target.png,250,2.8680000000000003,2,3220,262,feet,jsons/v1_VE250_randls_17.json,736141,874247,54,Man
129,184299,DepthScenes,duration_manipulation_targetAtFixation,jsons/v1_VE250_randls_17.json,http://54.235.29.9/FacialAge/BNav_EC2/DepthDuration/v2_depth_duration_MTurk/v2_DepthDuration_HTML.html#430,430,1366,625,1366,768,9-3-2022,9-30-39,130,depth_duration_stimuli/000457_2014-06-08_16-52-43_260595134347_rgbf000199-resize_1/000457_2014-06-08_16-52-43_260595134347_rgbf000199-resize_1-target.png,250,3.6489999999999996,3,3701,257,feet,jsons/v1_VE250_randls_17.json,736141,874247,54,Man
130,184299,DepthScenes,duration_manipulation_targetAtFixation,jsons/v1_VE250_randls_17.json,http://54.235.29.9/FacialAge/BNav_EC2/DepthDuration/v2_depth_duration_MTurk/v2_DepthDuration_HTML.html#430,430,1366,625,1366,768,9-3-2022,9-30-39,131,depth_duration_stimuli/001570_2014-06-20_17-21-09_260595134347_rgbf000135-resize_4/001570_2014-06-20_17-21-09_260595134347_rgbf000135-resize_4-target.png,250,4.467,3,3239,249,feet,jsons/v1_VE250_randls_17.json,736141,874247,54,Man
131,184299,DepthScenes,duration_manipulation_targetAtFixation,jsons/v1_VE250_randls_17.json,http://54.235.29.9/FacialAge/BNav_EC2/DepthDuration/v2_depth_duration_MTurk/v2_DepthDuration_HTML.html#430,430,1366,625,1366,768,9-3-2022,9-30-39,132,depth_duration_stimuli/001392_2014-06-19_16-07-59_260595134347_rgbf000046-resize_1/001392_2014-06-19_16-07-59_260595134347_rgbf000046-resize_1-target.png,250,4.135,3,3438,245,feet,jsons/v1_VE250_randls_17.json,736141,874247,54,Man
132,184299,DepthScenes,duration_manipulation_targetAtFixation,jsons/v1_VE250_randls_17.json,http://54.235.29.9/FacialAge/BNav_EC2/DepthDuration/v2_depth_duration_MTurk/v2_DepthDuration_HTML.html#430,430,1366,625,1366,768,9-3-2022,9-30-39,133,depth_duration_stimuli/001808_2014-06-26_20-50-58_260595134347_rgbf000029-resize_1/001808_2014-06-26_20-50-58_260595134347_rgbf000029-resize_1-target.png,250,4.249,3,3227,242,feet,jsons/v1_VE250_randls_17.json,736141,874247,54,Man
133,184299,DepthScenes,duration_manipulation_targetAtFixation,jsons/v1_VE250_randls_17.json,http://54.235.29.9/FacialAge/BNav_EC2/DepthDuration/v2_depth_duration_MTurk/v2_DepthDuration_HTML.html#430,430,1366,625,1366,768,9-3-2022,9-30-39,134,depth_duration_stimuli/001815_2014-06-26_20-52-55_260595134347_rgbf000020-resize_0/001815_2014-06-26_20-52-55_260595134347_rgbf000020-resize_0-target.png,250,3.3865,4,3196,244,feet,jsons/v1_VE250_randls_17.json,736141,874247,54,Man
134,184299,DepthScenes,duration_manipulation_targetAtFixation,jsons/v1_VE250_randls_17.json,http://54.235.29.9/FacialAge/BNav_EC2/DepthDuration/v2_depth_duration_MTurk/v2_DepthDuration_HTML.html#430,430,1366,625,1366,768,9-3-2022,9-30-39,135,depth_duration_stimuli/002072_2014-06-24_21-48-06_260595134347_rgbf000115-resize_0/002072_2014-06-24_21-48-06_260595134347_rgbf000115-resize-original.jpg,250,4.702,2,3455,248,feet,jsons/v1_VE250_randls_17.json,736141,874247,54,Man
135,184299,DepthScenes,duration_manipulation_targetAtFixation,jsons/v1_VE250_randls_17.json,http://54.235.29.9/FacialAge/BNav_EC2/DepthDuration/v2_depth_duration_MTurk/v2_DepthDuration_HTML.html#430,430,1366,625,1366,768,9-3-2022,9-30-39,136,depth_duration_stimuli/002763_2014-06-22_19-13-10_094959634447_rgbf000075-resize_4/002763_2014-06-22_19-13-10_094959634447_rgbf000075-resize_4-target.png,250,1.68375,2,3324,251,feet,jsons/v1_VE250_randls_17.json,736141,874247,54,Man
136,184299,DepthScenes,duration_manipulation_targetAtFixation,jsons/v1_VE250_randls_17.json,http://54.235.29.9/FacialAge/BNav_EC2/DepthDuration/v2_depth_duration_MTurk/v2_DepthDuration_HTML.html#430,430,1366,625,1366,768,9-3-2022,9-30-39,137,depth_duration_stimuli/002209_2014-06-28_18-36-10_260595134347_rgbf000051-resize_1/002209_2014-06-28_18-36-10_260595134347_rgbf000051-resize_1-target.png,250,2.057,2,4595,248,feet,jsons/v1_VE250_randls_17.json,736141,874247,54,Man
137,184299,DepthScenes,duration_manipulation_targetAtFixation,jsons/v1_VE250_randls_17.json,http://54.235.29.9/FacialAge/BNav_EC2/DepthDuration/v2_depth_duration_MTurk/v2_DepthDuration_HTML.html#430,430,1366,625,1366,768,9-3-2022,9-30-39,138,depth_duration_stimuli/000447_2014-06-08_16-15-46_260595134347_rgbf000130-resize_1/000447_2014-06-08_16-15-46_260595134347_rgbf000130-resize_1-target.png,250,4.479,3,3668,242,feet,jsons/v1_VE250_randls_17.json,736141,874247,54,Man
138,184299,DepthScenes,duration_manipulation_targetAtFixation,jsons/v1_VE250_randls_17.json,http://54.235.29.9/FacialAge/BNav_EC2/DepthDuration/v2_depth_duration_MTurk/v2_DepthDuration_HTML.html#430,430,1366,625,1366,768,9-3-2022,9-30-39,139,depth_duration_stimuli/001447_2014-06-19_17-00-32_260595134347_rgbf000082-resize_5/001447_2014-06-19_17-00-32_260595134347_rgbf000082-resize_5-target.png,250,4.13775,2,3342,260,feet,jsons/v1_VE250_randls_17.json,736141,874247,54,Man
139,184299,DepthScenes,duration_manipulation_targetAtFixation,jsons/v1_VE250_randls_17.json,http://54.235.29.9/FacialAge/BNav_EC2/DepthDuration/v2_depth_duration_MTurk/v2_DepthDuration_HTML.html#430,430,1366,625,1366,768,9-3-2022,9-30-39,140,depth_duration_stimuli/002279_2014-06-28_18-55-32_260595134347_rgbf000040-resize_5/002279_2014-06-28_18-55-32_260595134347_rgbf000040-resize_5-target.png,250,1.5043333333333,2,3190,246,feet,jsons/v1_VE250_randls_17.json,736141,874247,54,Man
140,184299,DepthScenes,duration_manipulation_targetAtFixation,jsons/v1_VE250_randls_17.json,http://54.235.29.9/FacialAge/BNav_EC2/DepthDuration/v2_depth_duration_MTurk/v2_DepthDuration_HTML.html#430,430,1366,625,1366,768,9-3-2022,9-30-39,141,depth_duration_stimuli/000635_2014-06-08_16-38-42_260595134347_rgbf000106-resize_1/000635_2014-06-08_16-38-42_260595134347_rgbf000106-resize_1-target.png,250,2.074,3,3397,248,feet,jsons/v1_VE250_randls_17.json,736141,874247,54,Man
141,184299,DepthScenes,duration_manipulation_targetAtFixation,jsons/v1_VE250_randls_17.json,http://54.235.29.9/FacialAge/BNav_EC2/DepthDuration/v2_depth_duration_MTurk/v2_DepthDuration_HTML.html#430,430,1366,625,1366,768,9-3-2022,9-30-39,142,depth_duration_stimuli/000469_2014-06-09_19-42-10_260595134347_rgbf000081-resize_1/000469_2014-06-09_19-42-10_260595134347_rgbf000081-resize_1-target.png,250,1.652,2,3594,209,feet,jsons/v1_VE250_randls_17.json,736141,874247,54,Man
142,184299,DepthScenes,duration_manipulation_targetAtFixation,jsons/v1_VE250_randls_17.json,http://54.235.29.9/FacialAge/BNav_EC2/DepthDuration/v2_depth_duration_MTurk/v2_DepthDuration_HTML.html#430,430,1366,625,1366,768,9-3-2022,9-30-39,143,depth_duration_stimuli/000483_2014-06-09_20-41-45_260595134347_rgbf000116-resize_4/000483_2014-06-09_20-41-45_260595134347_rgbf000116-resize_4-target.png,250,1.337,2,3405,246,feet,jsons/v1_VE250_randls_17.json,736141,874247,54,Man
143,184299,DepthScenes,duration_manipulation_targetAtFixation,jsons/v1_VE250_randls_17.json,http://54.235.29.9/FacialAge/BNav_EC2/DepthDuration/v2_depth_duration_MTurk/v2_DepthDuration_HTML.html#430,430,1366,625,1366,768,9-3-2022,9-30-39,144,depth_duration_stimuli/000773_2014-06-08_22-24-54_260595134347_rgbf000093-resize_1/000773_2014-06-08_22-24-54_260595134347_rgbf000093-resize_1-target.png,250,4.973,3,3900,264,feet,jsons/v1_VE250_randls_17.json,736141,874247,54,Man
144,184299,DepthScenes,duration_manipulation_targetAtFixation,jsons/v1_VE250_randls_17.json,http://54.235.29.9/FacialAge/BNav_EC2/DepthDuration/v2_depth_duration_MTurk/v2_DepthDuration_HTML.html#430,430,1366,625,1366,768,9-3-2022,9-30-39,145,depth_duration_stimuli/002414_2014-06-28_20-24-58_260595134347_rgbf000067-resize_4/002414_2014-06-28_20-24-58_260595134347_rgbf000067-resize_4-target.png,250,4.363,3,3916,239,feet,jsons/v1_VE250_randls_17.json,736141,874247,54,Man
145,184299,DepthScenes,duration_manipulation_targetAtFixation,jsons/v1_VE250_randls_17.json,http://54.235.29.9/FacialAge/BNav_EC2/DepthDuration/v2_depth_duration_MTurk/v2_DepthDuration_HTML.html#430,430,1366,625,1366,768,9-3-2022,9-30-39,146,depth_duration_stimuli/001498_2014-06-19_17-45-14_260595134347_rgbf000129-resize_4/001498_2014-06-19_17-45-14_260595134347_rgbf000129-resize-original.jpg,250,1.4075,2,7414,247,feet,jsons/v1_VE250_randls_17.json,736141,874247,54,Man
146,184299,DepthScenes,duration_manipulation_targetAtFixation,jsons/v1_VE250_randls_17.json,http://54.235.29.9/FacialAge/BNav_EC2/DepthDuration/v2_depth_duration_MTurk/v2_DepthDuration_HTML.html#430,430,1366,625,1366,768,9-3-2022,9-30-39,147,depth_duration_stimuli/001810_2014-06-26_20-51-35_260595134347_rgbf000040-resize_3/001810_2014-06-26_20-51-35_260595134347_rgbf000040-resize_3-target.png,250,2.2525,2,4090,254,feet,jsons/v1_VE250_randls_17.json,736141,874247,54,Man
147,184299,DepthScenes,duration_manipulation_targetAtFixation,jsons/v1_VE250_randls_17.json,http://54.235.29.9/FacialAge/BNav_EC2/DepthDuration/v2_depth_duration_MTurk/v2_DepthDuration_HTML.html#430,430,1366,625,1366,768,9-3-2022,9-30-39,148,depth_duration_stimuli/003010_2014-06-15_12-54-35_094959634447_rgbf000112-resize_0/003010_2014-06-15_12-54-35_094959634447_rgbf000112-resize_0-target.png,250,3.1185,3,4411,246,feet,jsons/v1_VE250_randls_17.json,736141,874247,54,Man
148,184299,DepthScenes,duration_manipulation_targetAtFixation,jsons/v1_VE250_randls_17.json,http://54.235.29.9/FacialAge/BNav_EC2/DepthDuration/v2_depth_duration_MTurk/v2_DepthDuration_HTML.html#430,430,1366,625,1366,768,9-3-2022,9-30-39,149,depth_duration_stimuli/000436_2014-06-09_22-25-11_260595134347_rgbf000137-resize_1/000436_2014-06-09_22-25-11_260595134347_rgbf000137-resize_1-target.png,250,4.0705,3,3365,248,feet,jsons/v1_VE250_randls_17.json,736141,874247,54,Man
149,184299,DepthScenes,duration_manipulation_targetAtFixation,jsons/v1_VE250_randls_17.json,http://54.235.29.9/FacialAge/BNav_EC2/DepthDuration/v2_depth_duration_MTurk/v2_DepthDuration_HTML.html#430,430,1366,625,1366,768,9-3-2022,9-30-39,150,depth_duration_stimuli/002444_2014-06-28_20-32-08_260595134347_rgbf000027-resize_0/002444_2014-06-28_20-32-08_260595134347_rgbf000027-resize_0-target.png,250,4.388999999999999,3,2972,265,feet,jsons/v1_VE250_randls_17.json,736141,874247,54,Man
150,184299,DepthScenes,duration_manipulation_targetAtFixation,jsons/v1_VE250_randls_17.json,http://54.235.29.9/FacialAge/BNav_EC2/DepthDuration/v2_depth_duration_MTurk/v2_DepthDuration_HTML.html#430,430,1366,625,1366,768,9-3-2022,9-30-39,151,depth_duration_stimuli/002213_2014-06-28_18-37-58_260595134347_rgbf000055-resize_1/002213_2014-06-28_18-37-58_260595134347_rgbf000055-resize_1-target.png,250,3.62,4,5038,245,feet,jsons/v1_VE250_randls_17.json,736141,874247,54,Man
151,184299,DepthScenes,duration_manipulation_targetAtFixation,jsons/v1_VE250_randls_17.json,http://54.235.29.9/FacialAge/BNav_EC2/DepthDuration/v2_depth_duration_MTurk/v2_DepthDuration_HTML.html#430,430,1366,625,1366,768,9-3-2022,9-30-39,152,depth_duration_stimuli/000691_2014-06-08_13-08-50_260595134347_rgbf000132-resize_3/000691_2014-06-08_13-08-50_260595134347_rgbf000132-resize_3-target.png,250,4.1530000000000005,2,3658,244,feet,jsons/v1_VE250_randls_17.json,736141,874247,54,Man
152,184299,DepthScenes,duration_manipulation_targetAtFixation,jsons/v1_VE250_randls_17.json,http://54.235.29.9/FacialAge/BNav_EC2/DepthDuration/v2_depth_duration_MTurk/v2_DepthDuration_HTML.html#430,430,1366,625,1366,768,9-3-2022,9-30-39,153,depth_duration_stimuli/001417_2014-06-19_16-25-36_260595134347_rgbf000115-resize_5/001417_2014-06-19_16-25-36_260595134347_rgbf000115-resize_5-target.png,250,4.6255,2,4733,254,feet,jsons/v1_VE250_randls_17.json,736141,874247,54,Man
153,184299,DepthScenes,duration_manipulation_targetAtFixation,jsons/v1_VE250_randls_17.json,http://54.235.29.9/FacialAge/BNav_EC2/DepthDuration/v2_depth_duration_MTurk/v2_DepthDuration_HTML.html#430,430,1366,625,1366,768,9-3-2022,9-30-39,154,depth_duration_stimuli/003081_2014-06-15_15-19-16_094959634447_rgbf000150-resize_1/003081_2014-06-15_15-19-16_094959634447_rgbf000150-resize_1-target.png,250,3.9125,3,4008,243,feet,jsons/v1_VE250_randls_17.json,736141,874247,54,Man
154,184299,DepthScenes,duration_manipulation_targetAtFixation,jsons/v1_VE250_randls_17.json,http://54.235.29.9/FacialAge/BNav_EC2/DepthDuration/v2_depth_duration_MTurk/v2_DepthDuration_HTML.html#430,430,1366,625,1366,768,9-3-2022,9-30-39,155,depth_duration_stimuli/003492_2014-05-21_15-50-55_094959634447_rgbf000828-resize_1/003492_2014-05-21_15-50-55_094959634447_rgbf000828-resize_1-target.png,250,4.06875,2,3913,249,feet,jsons/v1_VE250_randls_17.json,736141,874247,54,Man
155,184299,DepthScenes,duration_manipulation_targetAtFixation,jsons/v1_VE250_randls_17.json,http://54.235.29.9/FacialAge/BNav_EC2/DepthDuration/v2_depth_duration_MTurk/v2_DepthDuration_HTML.html#430,430,1366,625,1366,768,9-3-2022,9-30-39,156,depth_duration_stimuli/002568_2014-06-24_13-59-21_094959634447_rgbf000062-resize_4/002568_2014-06-24_13-59-21_094959634447_rgbf000062-resize_4-target.png,250,3.015,3,3877,244,feet,jsons/v1_VE250_randls_17.json,736141,874247,54,Man
156,184299,DepthScenes,duration_manipulation_targetAtFixation,jsons/v1_VE250_randls_17.json,http://54.235.29.9/FacialAge/BNav_EC2/DepthDuration/v2_depth_duration_MTurk/v2_DepthDuration_HTML.html#430,430,1366,625,1366,768,9-3-2022,9-30-39,157,depth_duration_stimuli/000739_2014-06-08_18-45-58_260595134347_rgbf000068-resize_1/000739_2014-06-08_18-45-58_260595134347_rgbf000068-resize_1-target.png,250,3.534,3,3933,255,feet,jsons/v1_VE250_randls_17.json,736141,874247,54,Man
157,184299,DepthScenes,duration_manipulation_targetAtFixation,jsons/v1_VE250_randls_17.json,http://54.235.29.9/FacialAge/BNav_EC2/DepthDuration/v2_depth_duration_MTurk/v2_DepthDuration_HTML.html#430,430,1366,625,1366,768,9-3-2022,9-30-39,158,depth_duration_stimuli/000734_2014-06-08_17-39-11_260595134347_rgbf000128-resize_2/000734_2014-06-08_17-39-11_260595134347_rgbf000128-resize_2-target.png,250,4.098,3,3657,243,feet,jsons/v1_VE250_randls_17.json,736141,874247,54,Man
158,184299,DepthScenes,duration_manipulation_targetAtFixation,jsons/v1_VE250_randls_17.json,http://54.235.29.9/FacialAge/BNav_EC2/DepthDuration/v2_depth_duration_MTurk/v2_DepthDuration_HTML.html#430,430,1366,625,1366,768,9-3-2022,9-30-39,159,depth_duration_stimuli/003070_2014-06-15_14-58-27_094959634447_rgbf000150-resize_3/003070_2014-06-15_14-58-27_094959634447_rgbf000150-resize_3-target.png,250,2.9415,2,5578,238,feet,jsons/v1_VE250_randls_17.json,736141,874247,54,Man
159,184299,DepthScenes,duration_manipulation_targetAtFixation,jsons/v1_VE250_randls_17.json,http://54.235.29.9/FacialAge/BNav_EC2/DepthDuration/v2_depth_duration_MTurk/v2_DepthDuration_HTML.html#430,430,1366,625,1366,768,9-3-2022,9-30-39,160,depth_duration_stimuli/000943_2014-06-09_19-31-07_260595134347_rgbf000128-resize_1/000943_2014-06-09_19-31-07_260595134347_rgbf000128-resize_1-target.png,250,1.9765,2,3532,249,feet,jsons/v1_VE250_randls_17.json,736141,874247,54,Man
160,184299,DepthScenes,duration_manipulation_targetAtFixation,jsons/v1_VE250_randls_17.json,http://54.235.29.9/FacialAge/BNav_EC2/DepthDuration/v2_depth_duration_MTurk/v2_DepthDuration_HTML.html#430,430,1366,625,1366,768,9-3-2022,9-30-39,161,depth_duration_stimuli/002748_2014-06-22_19-07-22_094959634447_rgbf000078-resize_1/002748_2014-06-22_19-07-22_094959634447_rgbf000078-resize_1-target.png,250,4.6705,3,4032,237,feet,jsons/v1_VE250_randls_17.json,736141,874247,54,Man
161,184299,DepthScenes,duration_manipulation_targetAtFixation,jsons/v1_VE250_randls_17.json,http://54.235.29.9/FacialAge/BNav_EC2/DepthDuration/v2_depth_duration_MTurk/v2_DepthDuration_HTML.html#430,430,1366,625,1366,768,9-3-2022,9-30-39,162,depth_duration_stimuli/002995_2014-06-15_12-31-26_094959634447_rgbf000150-resize_1/002995_2014-06-15_12-31-26_094959634447_rgbf000150-resize_1-target.png,250,3.8360000000000003,3,3798,245,feet,jsons/v1_VE250_randls_17.json,736141,874247,54,Man
162,184299,DepthScenes,duration_manipulation_targetAtFixation,jsons/v1_VE250_randls_17.json,http://54.235.29.9/FacialAge/BNav_EC2/DepthDuration/v2_depth_duration_MTurk/v2_DepthDuration_HTML.html#430,430,1366,625,1366,768,9-3-2022,9-30-39,163,depth_duration_stimuli/001011_2014-06-08_23-18-54_260595134347_rgbf000044-resize_4/001011_2014-06-08_23-18-54_260595134347_rgbf000044-resize_4-target.png,250,2.4730000000000003,3,3049,269,feet,jsons/v1_VE250_randls_17.json,736141,874247,54,Man
163,184299,DepthScenes,duration_manipulation_targetAtFixation,jsons/v1_VE250_randls_17.json,http://54.235.29.9/FacialAge/BNav_EC2/DepthDuration/v2_depth_duration_MTurk/v2_DepthDuration_HTML.html#430,430,1366,625,1366,768,9-3-2022,9-30-39,164,depth_duration_stimuli/002875_2014-06-01_15-19-00_094959634447_rgbf000151-resize_1/002875_2014-06-01_15-19-00_094959634447_rgbf000151-resize_1-target.png,250,1.9675,3,3142,242,feet,jsons/v1_VE250_randls_17.json,736141,874247,54,Man
