,subjID,experimentName,versionName,sequenceName,url,selected_row,windowWidth,windowHeight,screenWidth,screenHeight,startDate,startTime,trial,stimulus,duration,actual_depth,depth_estimate,trial_RT,log_sceneDuration,unitSelection,seq_filepath,experimentTime,totalTime,age,gender
0,186345,DepthScenes,duration_manipulation_targetAtFixation,jsons/v1_VE250_randls_46_rotated.json,http://54.235.29.9/FacialAge/BNav_EC2/DepthDuration/v2_depth_duration_MTurk/v2_DepthDuration_HTML.html#109,109,1366,625,1366,768,8-29-2022,16-51-44,1,depth_duration_stimuli/002660_2014-06-13_15-44-18_094959634447_rgbf001878-resize_2/002660_2014-06-13_15-44-18_094959634447_rgbf001878-resize_2-target.png,250,3.576,10,5613,250,meters,jsons/v1_VE250_randls_46_rotated.json,1082652,1419704,34,Woman
1,186345,DepthScenes,duration_manipulation_targetAtFixation,jsons/v1_VE250_randls_46_rotated.json,http://54.235.29.9/FacialAge/BNav_EC2/DepthDuration/v2_depth_duration_MTurk/v2_DepthDuration_HTML.html#109,109,1366,625,1366,768,8-29-2022,16-51-44,2,depth_duration_stimuli/002153_2014-06-25_21-27-18_260595134347_rgbf000038-resize_5/002153_2014-06-25_21-27-18_260595134347_rgbf000038-resize_5-target.png,250,2.505,8,3793,240,meters,jsons/v1_VE250_randls_46_rotated.json,1082652,1419704,34,Woman
2,186345,DepthScenes,duration_manipulation_targetAtFixation,jsons/v1_VE250_randls_46_rotated.json,http://54.235.29.9/FacialAge/BNav_EC2/DepthDuration/v2_depth_duration_MTurk/v2_DepthDuration_HTML.html#109,109,1366,625,1366,768,8-29-2022,16-51-44,3,depth_duration_stimuli/001450_2014-06-19_17-02-03_260595134347_rgbf000203-resize_4/001450_2014-06-19_17-02-03_260595134347_rgbf000203-resize_4-target.png,250,4.0106666666667,10,3667,249,meters,jsons/v1_VE250_randls_46_rotated.json,1082652,1419704,34,Woman
3,186345,DepthScenes,duration_manipulation_targetAtFixation,jsons/v1_VE250_randls_46_rotated.json,http://54.235.29.9/FacialAge/BNav_EC2/DepthDuration/v2_depth_duration_MTurk/v2_DepthDuration_HTML.html#109,109,1366,625,1366,768,8-29-2022,16-51-44,4,depth_duration_stimuli/001449_2014-06-19_17-01-27_260595134347_rgbf000116-resize_2/001449_2014-06-19_17-01-27_260595134347_rgbf000116-resize_2-target.png,250,3.452,10,3545,251,meters,jsons/v1_VE250_randls_46_rotated.json,1082652,1419704,34,Woman
4,186345,DepthScenes,duration_manipulation_targetAtFixation,jsons/v1_VE250_randls_46_rotated.json,http://54.235.29.9/FacialAge/BNav_EC2/DepthDuration/v2_depth_duration_MTurk/v2_DepthDuration_HTML.html#109,109,1366,625,1366,768,8-29-2022,16-51-44,5,depth_duration_stimuli/001392_2014-06-19_16-07-59_260595134347_rgbf000046-resize_1/001392_2014-06-19_16-07-59_260595134347_rgbf000046-resize_1-target.png,250,4.135,9,3521,257,meters,jsons/v1_VE250_randls_46_rotated.json,1082652,1419704,34,Woman
5,186345,DepthScenes,duration_manipulation_targetAtFixation,jsons/v1_VE250_randls_46_rotated.json,http://54.235.29.9/FacialAge/BNav_EC2/DepthDuration/v2_depth_duration_MTurk/v2_DepthDuration_HTML.html#109,109,1366,625,1366,768,8-29-2022,16-51-44,6,depth_duration_stimuli/001570_2014-06-20_17-21-09_260595134347_rgbf000135-resize_4/001570_2014-06-20_17-21-09_260595134347_rgbf000135-resize_4-target.png,250,4.467,10,3888,241,meters,jsons/v1_VE250_randls_46_rotated.json,1082652,1419704,34,Woman
6,186345,DepthScenes,duration_manipulation_targetAtFixation,jsons/v1_VE250_randls_46_rotated.json,http://54.235.29.9/FacialAge/BNav_EC2/DepthDuration/v2_depth_duration_MTurk/v2_DepthDuration_HTML.html#109,109,1366,625,1366,768,8-29-2022,16-51-44,7,depth_duration_stimuli/002995_2014-06-15_12-31-26_094959634447_rgbf000150-resize_1/002995_2014-06-15_12-31-26_094959634447_rgbf000150-resize_1-target.png,250,3.8360000000000003,10,4449,239,meters,jsons/v1_VE250_randls_46_rotated.json,1082652,1419704,34,Woman
7,186345,DepthScenes,duration_manipulation_targetAtFixation,jsons/v1_VE250_randls_46_rotated.json,http://54.235.29.9/FacialAge/BNav_EC2/DepthDuration/v2_depth_duration_MTurk/v2_DepthDuration_HTML.html#109,109,1366,625,1366,768,8-29-2022,16-51-44,8,depth_duration_stimuli/002748_2014-06-22_19-07-22_094959634447_rgbf000078-resize_1/002748_2014-06-22_19-07-22_094959634447_rgbf000078-resize_1-target.png,250,4.6705,10,3593,253,meters,jsons/v1_VE250_randls_46_rotated.json,1082652,1419704,34,Woman
8,186345,DepthScenes,duration_manipulation_targetAtFixation,jsons/v1_VE250_randls_46_rotated.json,http://54.235.29.9/FacialAge/BNav_EC2/DepthDuration/v2_depth_duration_MTurk/v2_DepthDuration_HTML.html#109,109,1366,625,1366,768,8-29-2022,16-51-44,9,depth_duration_stimuli/001584_2014-06-20_11-07-43_260595134347_rgbf000002-resize_1/001584_2014-06-20_11-07-43_260595134347_rgbf000002-resize_1-target.png,250,3.53,9,3704,240,meters,jsons/v1_VE250_randls_46_rotated.json,1082652,1419704,34,Woman
9,186345,DepthScenes,duration_manipulation_targetAtFixation,jsons/v1_VE250_randls_46_rotated.json,http://54.235.29.9/FacialAge/BNav_EC2/DepthDuration/v2_depth_duration_MTurk/v2_DepthDuration_HTML.html#109,109,1366,625,1366,768,8-29-2022,16-51-44,10,depth_duration_stimuli/003621_2014-05-23_18-06-08_094959634447_rgbf000101-resize_1/003621_2014-05-23_18-06-08_094959634447_rgbf000101-resize_1-target.png,250,3.9835,8,4292,250,meters,jsons/v1_VE250_randls_46_rotated.json,1082652,1419704,34,Woman
10,186345,DepthScenes,duration_manipulation_targetAtFixation,jsons/v1_VE250_randls_46_rotated.json,http://54.235.29.9/FacialAge/BNav_EC2/DepthDuration/v2_depth_duration_MTurk/v2_DepthDuration_HTML.html#109,109,1366,625,1366,768,8-29-2022,16-51-44,11,depth_duration_stimuli/000191_2014-05-12_17-07-38_260595134347_rgbf000199-resize_0/000191_2014-05-12_17-07-38_260595134347_rgbf000199-resize_0-target.png,250,3.7995,9,3793,250,meters,jsons/v1_VE250_randls_46_rotated.json,1082652,1419704,34,Woman
11,186345,DepthScenes,duration_manipulation_targetAtFixation,jsons/v1_VE250_randls_46_rotated.json,http://54.235.29.9/FacialAge/BNav_EC2/DepthDuration/v2_depth_duration_MTurk/v2_DepthDuration_HTML.html#109,109,1366,625,1366,768,8-29-2022,16-51-44,12,depth_duration_stimuli/000493_2014-06-09_21-01-18_260595134347_rgbf000196-resize_3/000493_2014-06-09_21-01-18_260595134347_rgbf000196-resize_3-target.png,250,3.44,9,4616,247,meters,jsons/v1_VE250_randls_46_rotated.json,1082652,1419704,34,Woman
12,186345,DepthScenes,duration_manipulation_targetAtFixation,jsons/v1_VE250_randls_46_rotated.json,http://54.235.29.9/FacialAge/BNav_EC2/DepthDuration/v2_depth_duration_MTurk/v2_DepthDuration_HTML.html#109,109,1366,625,1366,768,8-29-2022,16-51-44,13,depth_duration_stimuli/003010_2014-06-15_12-54-35_094959634447_rgbf000112-resize_0/003010_2014-06-15_12-54-35_094959634447_rgbf000112-resize_0-target.png,250,3.1185,8,49911,253,meters,jsons/v1_VE250_randls_46_rotated.json,1082652,1419704,34,Woman
13,186345,DepthScenes,duration_manipulation_targetAtFixation,jsons/v1_VE250_randls_46_rotated.json,http://54.235.29.9/FacialAge/BNav_EC2/DepthDuration/v2_depth_duration_MTurk/v2_DepthDuration_HTML.html#109,109,1366,625,1366,768,8-29-2022,16-51-44,14,depth_duration_stimuli/001810_2014-06-26_20-51-35_260595134347_rgbf000040-resize_3/001810_2014-06-26_20-51-35_260595134347_rgbf000040-resize_3-target.png,250,2.2525,5,3397,249,meters,jsons/v1_VE250_randls_46_rotated.json,1082652,1419704,34,Woman
14,186345,DepthScenes,duration_manipulation_targetAtFixation,jsons/v1_VE250_randls_46_rotated.json,http://54.235.29.9/FacialAge/BNav_EC2/DepthDuration/v2_depth_duration_MTurk/v2_DepthDuration_HTML.html#109,109,1366,625,1366,768,8-29-2022,16-51-44,15,depth_duration_stimuli/001828_2014-06-26_21-40-03_260595134347_rgbf000024-resize_0/001828_2014-06-26_21-40-03_260595134347_rgbf000024-resize_0-target.png,250,4.8260000000000005,8,3590,248,meters,jsons/v1_VE250_randls_46_rotated.json,1082652,1419704,34,Woman
15,186345,DepthScenes,duration_manipulation_targetAtFixation,jsons/v1_VE250_randls_46_rotated.json,http://54.235.29.9/FacialAge/BNav_EC2/DepthDuration/v2_depth_duration_MTurk/v2_DepthDuration_HTML.html#109,109,1366,625,1366,768,8-29-2022,16-51-44,16,depth_duration_stimuli/000009_2014-05-26_14-32-05_260595134347_rgbf000034-resize_3/000009_2014-05-26_14-32-05_260595134347_rgbf000034-resize_3-target.png,250,3.8715,10,4472,241,meters,jsons/v1_VE250_randls_46_rotated.json,1082652,1419704,34,Woman
16,186345,DepthScenes,duration_manipulation_targetAtFixation,jsons/v1_VE250_randls_46_rotated.json,http://54.235.29.9/FacialAge/BNav_EC2/DepthDuration/v2_depth_duration_MTurk/v2_DepthDuration_HTML.html#109,109,1366,625,1366,768,8-29-2022,16-51-44,17,depth_duration_stimuli/000665_2014-06-09_20-42-35_260595134347_rgbf000110-resize_1/000665_2014-06-09_20-42-35_260595134347_rgbf000110-resize_1-target.png,250,3.057,9,3848,250,meters,jsons/v1_VE250_randls_46_rotated.json,1082652,1419704,34,Woman
17,186345,DepthScenes,duration_manipulation_targetAtFixation,jsons/v1_VE250_randls_46_rotated.json,http://54.235.29.9/FacialAge/BNav_EC2/DepthDuration/v2_depth_duration_MTurk/v2_DepthDuration_HTML.html#109,109,1366,625,1366,768,8-29-2022,16-51-44,18,depth_duration_stimuli/001150_2014-06-17_15-27-34_260595134347_rgbf000108-resize_2/001150_2014-06-17_15-27-34_260595134347_rgbf000108-resize_2-target.png,250,4.0325,8,12660,249,meters,jsons/v1_VE250_randls_46_rotated.json,1082652,1419704,34,Woman
18,186345,DepthScenes,duration_manipulation_targetAtFixation,jsons/v1_VE250_randls_46_rotated.json,http://54.235.29.9/FacialAge/BNav_EC2/DepthDuration/v2_depth_duration_MTurk/v2_DepthDuration_HTML.html#109,109,1366,625,1366,768,8-29-2022,16-51-44,19,depth_duration_stimuli/001498_2014-06-19_17-45-14_260595134347_rgbf000129-resize_4/001498_2014-06-19_17-45-14_260595134347_rgbf000129-resize-original.jpg,250,1.4075,0,3623,251,meters,jsons/v1_VE250_randls_46_rotated.json,1082652,1419704,34,Woman
19,186345,DepthScenes,duration_manipulation_targetAtFixation,jsons/v1_VE250_randls_46_rotated.json,http://54.235.29.9/FacialAge/BNav_EC2/DepthDuration/v2_depth_duration_MTurk/v2_DepthDuration_HTML.html#109,109,1366,625,1366,768,8-29-2022,16-51-44,20,depth_duration_stimuli/002637_2014-06-24_14-51-13_094959634447_rgbf000066-resize_4/002637_2014-06-24_14-51-13_094959634447_rgbf000066-resize_4-target.png,250,1.9955,7,3691,251,meters,jsons/v1_VE250_randls_46_rotated.json,1082652,1419704,34,Woman
20,186345,DepthScenes,duration_manipulation_targetAtFixation,jsons/v1_VE250_randls_46_rotated.json,http://54.235.29.9/FacialAge/BNav_EC2/DepthDuration/v2_depth_duration_MTurk/v2_DepthDuration_HTML.html#109,109,1366,625,1366,768,8-29-2022,16-51-44,21,depth_duration_stimuli/003534_2014-05-22_15-06-10_094959634447_rgbf000102-resize_4/003534_2014-05-22_15-06-10_094959634447_rgbf000102-resize_4-target.png,250,1.426,5,3397,260,meters,jsons/v1_VE250_randls_46_rotated.json,1082652,1419704,34,Woman
21,186345,DepthScenes,duration_manipulation_targetAtFixation,jsons/v1_VE250_randls_46_rotated.json,http://54.235.29.9/FacialAge/BNav_EC2/DepthDuration/v2_depth_duration_MTurk/v2_DepthDuration_HTML.html#109,109,1366,625,1366,768,8-29-2022,16-51-44,22,depth_duration_stimuli/003129_2014-05-12_10-48-10_094959634447_rgbf000100-resize_0/003129_2014-05-12_10-48-10_094959634447_rgbf000100-resize_0-target.png,250,4.9305,9,4261,253,meters,jsons/v1_VE250_randls_46_rotated.json,1082652,1419704,34,Woman
22,186345,DepthScenes,duration_manipulation_targetAtFixation,jsons/v1_VE250_randls_46_rotated.json,http://54.235.29.9/FacialAge/BNav_EC2/DepthDuration/v2_depth_duration_MTurk/v2_DepthDuration_HTML.html#109,109,1366,625,1366,768,8-29-2022,16-51-44,23,depth_duration_stimuli/000414_2014-06-04_19-49-13_260595134347_rgbf000044-resize_0/000414_2014-06-04_19-49-13_260595134347_rgbf000044-resize_0-target.png,250,4.329,10,4037,249,meters,jsons/v1_VE250_randls_46_rotated.json,1082652,1419704,34,Woman
23,186345,DepthScenes,duration_manipulation_targetAtFixation,jsons/v1_VE250_randls_46_rotated.json,http://54.235.29.9/FacialAge/BNav_EC2/DepthDuration/v2_depth_duration_MTurk/v2_DepthDuration_HTML.html#109,109,1366,625,1366,768,8-29-2022,16-51-44,24,depth_duration_stimuli/003490_2014-05-21_15-50-11_094959634447_rgbf000101-resize_3/003490_2014-05-21_15-50-11_094959634447_rgbf000101-resize_3-target.png,250,3.6445,10,3662,239,meters,jsons/v1_VE250_randls_46_rotated.json,1082652,1419704,34,Woman
24,186345,DepthScenes,duration_manipulation_targetAtFixation,jsons/v1_VE250_randls_46_rotated.json,http://54.235.29.9/FacialAge/BNav_EC2/DepthDuration/v2_depth_duration_MTurk/v2_DepthDuration_HTML.html#109,109,1366,625,1366,768,8-29-2022,16-51-44,25,depth_duration_stimuli/001175_2014-06-17_15-45-55_260595134347_rgbf000129-resize_4/001175_2014-06-17_15-45-55_260595134347_rgbf000129-resize_4-target.png,250,4.255,10,4892,250,meters,jsons/v1_VE250_randls_46_rotated.json,1082652,1419704,34,Woman
25,186345,DepthScenes,duration_manipulation_targetAtFixation,jsons/v1_VE250_randls_46_rotated.json,http://54.235.29.9/FacialAge/BNav_EC2/DepthDuration/v2_depth_duration_MTurk/v2_DepthDuration_HTML.html#109,109,1366,625,1366,768,8-29-2022,16-51-44,26,depth_duration_stimuli/000549_2014-06-08_22-10-24_260595134347_rgbf000247-resize_3/000549_2014-06-08_22-10-24_260595134347_rgbf000247-resize_3-target.png,250,1.841,4,4425,236,meters,jsons/v1_VE250_randls_46_rotated.json,1082652,1419704,34,Woman
26,186345,DepthScenes,duration_manipulation_targetAtFixation,jsons/v1_VE250_randls_46_rotated.json,http://54.235.29.9/FacialAge/BNav_EC2/DepthDuration/v2_depth_duration_MTurk/v2_DepthDuration_HTML.html#109,109,1366,625,1366,768,8-29-2022,16-51-44,27,depth_duration_stimuli/001055_2014-06-08_18-45-35_260595134347_rgbf000111-resize_4/001055_2014-06-08_18-45-35_260595134347_rgbf000111-resize_4-target.png,250,2.4290000000000003,10,3669,250,meters,jsons/v1_VE250_randls_46_rotated.json,1082652,1419704,34,Woman
27,186345,DepthScenes,duration_manipulation_targetAtFixation,jsons/v1_VE250_randls_46_rotated.json,http://54.235.29.9/FacialAge/BNav_EC2/DepthDuration/v2_depth_duration_MTurk/v2_DepthDuration_HTML.html#109,109,1366,625,1366,768,8-29-2022,16-51-44,28,depth_duration_stimuli/000749_2014-06-08_21-55-06_260595134347_rgbf000070-resize_2/000749_2014-06-08_21-55-06_260595134347_rgbf000070-resize_2-target.png,250,2.331,8,4561,249,meters,jsons/v1_VE250_randls_46_rotated.json,1082652,1419704,34,Woman
28,186345,DepthScenes,duration_manipulation_targetAtFixation,jsons/v1_VE250_randls_46_rotated.json,http://54.235.29.9/FacialAge/BNav_EC2/DepthDuration/v2_depth_duration_MTurk/v2_DepthDuration_HTML.html#109,109,1366,625,1366,768,8-29-2022,16-51-44,29,depth_duration_stimuli/002788_2014-06-22_19-36-03_094959634447_rgbf000088-resize_2/002788_2014-06-22_19-36-03_094959634447_rgbf000088-resize_2-target.png,250,1.6465,8,3899,249,meters,jsons/v1_VE250_randls_46_rotated.json,1082652,1419704,34,Woman
29,186345,DepthScenes,duration_manipulation_targetAtFixation,jsons/v1_VE250_randls_46_rotated.json,http://54.235.29.9/FacialAge/BNav_EC2/DepthDuration/v2_depth_duration_MTurk/v2_DepthDuration_HTML.html#109,109,1366,625,1366,768,8-29-2022,16-51-44,30,depth_duration_stimuli/002072_2014-06-24_21-48-06_260595134347_rgbf000115-resize_0/002072_2014-06-24_21-48-06_260595134347_rgbf000115-resize-original.jpg,250,4.702,0,6393,244,meters,jsons/v1_VE250_randls_46_rotated.json,1082652,1419704,34,Woman
30,186345,DepthScenes,duration_manipulation_targetAtFixation,jsons/v1_VE250_randls_46_rotated.json,http://54.235.29.9/FacialAge/BNav_EC2/DepthDuration/v2_depth_duration_MTurk/v2_DepthDuration_HTML.html#109,109,1366,625,1366,768,8-29-2022,16-51-44,31,depth_duration_stimuli/002467_2014-06-28_20-38-07_260595134347_rgbf000026-resize_2/002467_2014-06-28_20-38-07_260595134347_rgbf000026-resize_2-target.png,250,4.742,8,3886,249,meters,jsons/v1_VE250_randls_46_rotated.json,1082652,1419704,34,Woman
31,186345,DepthScenes,duration_manipulation_targetAtFixation,jsons/v1_VE250_randls_46_rotated.json,http://54.235.29.9/FacialAge/BNav_EC2/DepthDuration/v2_depth_duration_MTurk/v2_DepthDuration_HTML.html#109,109,1366,625,1366,768,8-29-2022,16-51-44,32,depth_duration_stimuli/002570_2014-06-24_13-59-54_094959634447_rgbf000059-resize_0/002570_2014-06-24_13-59-54_094959634447_rgbf000059-resize_0-target.png,250,4.037,7,3686,235,meters,jsons/v1_VE250_randls_46_rotated.json,1082652,1419704,34,Woman
32,186345,DepthScenes,duration_manipulation_targetAtFixation,jsons/v1_VE250_randls_46_rotated.json,http://54.235.29.9/FacialAge/BNav_EC2/DepthDuration/v2_depth_duration_MTurk/v2_DepthDuration_HTML.html#109,109,1366,625,1366,768,8-29-2022,16-51-44,33,depth_duration_stimuli/001136_2014-06-17_15-19-41_260595134347_rgbf000076-resize_3/001136_2014-06-17_15-19-41_260595134347_rgbf000076-resize_3-target.png,250,1.8655,8,3521,254,meters,jsons/v1_VE250_randls_46_rotated.json,1082652,1419704,34,Woman
33,186345,DepthScenes,duration_manipulation_targetAtFixation,jsons/v1_VE250_randls_46_rotated.json,http://54.235.29.9/FacialAge/BNav_EC2/DepthDuration/v2_depth_duration_MTurk/v2_DepthDuration_HTML.html#109,109,1366,625,1366,768,8-29-2022,16-51-44,34,depth_duration_stimuli/001164_2014-06-17_15-35-46_260595134347_rgbf000085-resize_3/001164_2014-06-17_15-35-46_260595134347_rgbf000085-resize_3-target.png,250,2.354,9,5926,252,meters,jsons/v1_VE250_randls_46_rotated.json,1082652,1419704,34,Woman
34,186345,DepthScenes,duration_manipulation_targetAtFixation,jsons/v1_VE250_randls_46_rotated.json,http://54.235.29.9/FacialAge/BNav_EC2/DepthDuration/v2_depth_duration_MTurk/v2_DepthDuration_HTML.html#109,109,1366,625,1366,768,8-29-2022,16-51-44,35,depth_duration_stimuli/000556_2014-06-09_22-42-56_260595134347_rgbf000214-resize_1/000556_2014-06-09_22-42-56_260595134347_rgbf000214-resize_1-target.png,250,4.8415,8,4166,252,meters,jsons/v1_VE250_randls_46_rotated.json,1082652,1419704,34,Woman
35,186345,DepthScenes,duration_manipulation_targetAtFixation,jsons/v1_VE250_randls_46_rotated.json,http://54.235.29.9/FacialAge/BNav_EC2/DepthDuration/v2_depth_duration_MTurk/v2_DepthDuration_HTML.html#109,109,1366,625,1366,768,8-29-2022,16-51-44,36,depth_duration_stimuli/001158_2014-06-17_15-32-16_260595134347_rgbf000138-resize_2/001158_2014-06-17_15-32-16_260595134347_rgbf000138-resize_2-target.png,250,4.5315,8,3633,247,meters,jsons/v1_VE250_randls_46_rotated.json,1082652,1419704,34,Woman
36,186345,DepthScenes,duration_manipulation_targetAtFixation,jsons/v1_VE250_randls_46_rotated.json,http://54.235.29.9/FacialAge/BNav_EC2/DepthDuration/v2_depth_duration_MTurk/v2_DepthDuration_HTML.html#109,109,1366,625,1366,768,8-29-2022,16-51-44,37,depth_duration_stimuli/000677_2014-06-08_23-10-32_260595134347_rgbf000158-resize_6/000677_2014-06-08_23-10-32_260595134347_rgbf000158-resize_6-target.png,250,3.556,10,4498,248,meters,jsons/v1_VE250_randls_46_rotated.json,1082652,1419704,34,Woman
37,186345,DepthScenes,duration_manipulation_targetAtFixation,jsons/v1_VE250_randls_46_rotated.json,http://54.235.29.9/FacialAge/BNav_EC2/DepthDuration/v2_depth_duration_MTurk/v2_DepthDuration_HTML.html#109,109,1366,625,1366,768,8-29-2022,16-51-44,38,depth_duration_stimuli/001029_2014-06-08_13-17-57_260595134347_rgbf000065-resize_1/001029_2014-06-08_13-17-57_260595134347_rgbf000065-resize_1-target.png,250,3.0835,10,115441,234,meters,jsons/v1_VE250_randls_46_rotated.json,1082652,1419704,34,Woman
38,186345,DepthScenes,duration_manipulation_targetAtFixation,jsons/v1_VE250_randls_46_rotated.json,http://54.235.29.9/FacialAge/BNav_EC2/DepthDuration/v2_depth_duration_MTurk/v2_DepthDuration_HTML.html#109,109,1366,625,1366,768,8-29-2022,16-51-44,39,depth_duration_stimuli/001094_2014-06-15_17-36-00_260595134347_rgbf000205-resize_0/001094_2014-06-15_17-36-00_260595134347_rgbf000205-resize_0-target.png,250,4.2175,8,3561,253,meters,jsons/v1_VE250_randls_46_rotated.json,1082652,1419704,34,Woman
39,186345,DepthScenes,duration_manipulation_targetAtFixation,jsons/v1_VE250_randls_46_rotated.json,http://54.235.29.9/FacialAge/BNav_EC2/DepthDuration/v2_depth_duration_MTurk/v2_DepthDuration_HTML.html#109,109,1366,625,1366,768,8-29-2022,16-51-44,40,depth_duration_stimuli/000692_2014-06-08_13-09-42_260595134347_rgbf000199-resize_2/000692_2014-06-08_13-09-42_260595134347_rgbf000199-resize_2-target.png,250,3.661,9,5451,248,meters,jsons/v1_VE250_randls_46_rotated.json,1082652,1419704,34,Woman
40,186345,DepthScenes,duration_manipulation_targetAtFixation,jsons/v1_VE250_randls_46_rotated.json,http://54.235.29.9/FacialAge/BNav_EC2/DepthDuration/v2_depth_duration_MTurk/v2_DepthDuration_HTML.html#109,109,1366,625,1366,768,8-29-2022,16-51-44,41,depth_duration_stimuli/002750_2014-06-22_19-08-03_094959634447_rgbf000094-resize_4/002750_2014-06-22_19-08-03_094959634447_rgbf000094-resize_4-target.png,250,2.354,7,5484,241,meters,jsons/v1_VE250_randls_46_rotated.json,1082652,1419704,34,Woman
41,186345,DepthScenes,duration_manipulation_targetAtFixation,jsons/v1_VE250_randls_46_rotated.json,http://54.235.29.9/FacialAge/BNav_EC2/DepthDuration/v2_depth_duration_MTurk/v2_DepthDuration_HTML.html#109,109,1366,625,1366,768,8-29-2022,16-51-44,42,depth_duration_stimuli/002549_2014-06-24_13-41-39_094959634447_rgbf000022-resize_3/002549_2014-06-24_13-41-39_094959634447_rgbf000022-resize_3-target.png,250,1.476,8,3509,238,meters,jsons/v1_VE250_randls_46_rotated.json,1082652,1419704,34,Woman
42,186345,DepthScenes,duration_manipulation_targetAtFixation,jsons/v1_VE250_randls_46_rotated.json,http://54.235.29.9/FacialAge/BNav_EC2/DepthDuration/v2_depth_duration_MTurk/v2_DepthDuration_HTML.html#109,109,1366,625,1366,768,8-29-2022,16-51-44,43,depth_duration_stimuli/003228_2014-05-14_13-42-35_094959634447_rgbf000101-resize_1/003228_2014-05-14_13-42-35_094959634447_rgbf000101-resize_1-target.png,250,1.9680000000000002,7,4330,252,meters,jsons/v1_VE250_randls_46_rotated.json,1082652,1419704,34,Woman
43,186345,DepthScenes,duration_manipulation_targetAtFixation,jsons/v1_VE250_randls_46_rotated.json,http://54.235.29.9/FacialAge/BNav_EC2/DepthDuration/v2_depth_duration_MTurk/v2_DepthDuration_HTML.html#109,109,1366,625,1366,768,8-29-2022,16-51-44,44,depth_duration_stimuli/002600_2014-06-24_14-27-04_094959634447_rgbf000074-resize_2/002600_2014-06-24_14-27-04_094959634447_rgbf000074-resize_2-target.png,250,2.7575,8,3652,257,meters,jsons/v1_VE250_randls_46_rotated.json,1082652,1419704,34,Woman
44,186345,DepthScenes,duration_manipulation_targetAtFixation,jsons/v1_VE250_randls_46_rotated.json,http://54.235.29.9/FacialAge/BNav_EC2/DepthDuration/v2_depth_duration_MTurk/v2_DepthDuration_HTML.html#109,109,1366,625,1366,768,8-29-2022,16-51-44,45,depth_duration_stimuli/001132_2014-06-17_14-48-54_260595134347_rgbf000100-resize_2/001132_2014-06-17_14-48-54_260595134347_rgbf000100-resize_2-target.png,250,3.753,9,3565,248,meters,jsons/v1_VE250_randls_46_rotated.json,1082652,1419704,34,Woman
45,186345,DepthScenes,duration_manipulation_targetAtFixation,jsons/v1_VE250_randls_46_rotated.json,http://54.235.29.9/FacialAge/BNav_EC2/DepthDuration/v2_depth_duration_MTurk/v2_DepthDuration_HTML.html#109,109,1366,625,1366,768,8-29-2022,16-51-44,46,depth_duration_stimuli/001133_2014-06-17_14-49-16_260595134347_rgbf000100-resize_0/001133_2014-06-17_14-49-16_260595134347_rgbf000100-resize_0-target.png,250,4.2115,7,3427,250,meters,jsons/v1_VE250_randls_46_rotated.json,1082652,1419704,34,Woman
46,186345,DepthScenes,duration_manipulation_targetAtFixation,jsons/v1_VE250_randls_46_rotated.json,http://54.235.29.9/FacialAge/BNav_EC2/DepthDuration/v2_depth_duration_MTurk/v2_DepthDuration_HTML.html#109,109,1366,625,1366,768,8-29-2022,16-51-44,47,depth_duration_stimuli/000691_2014-06-08_13-08-50_260595134347_rgbf000132-resize_3/000691_2014-06-08_13-08-50_260595134347_rgbf000132-resize_3-target.png,250,4.1530000000000005,6,3695,239,meters,jsons/v1_VE250_randls_46_rotated.json,1082652,1419704,34,Woman
47,186345,DepthScenes,duration_manipulation_targetAtFixation,jsons/v1_VE250_randls_46_rotated.json,http://54.235.29.9/FacialAge/BNav_EC2/DepthDuration/v2_depth_duration_MTurk/v2_DepthDuration_HTML.html#109,109,1366,625,1366,768,8-29-2022,16-51-44,48,depth_duration_stimuli/002213_2014-06-28_18-37-58_260595134347_rgbf000055-resize_1/002213_2014-06-28_18-37-58_260595134347_rgbf000055-resize_1-target.png,250,3.62,7,3758,253,meters,jsons/v1_VE250_randls_46_rotated.json,1082652,1419704,34,Woman
48,186345,DepthScenes,duration_manipulation_targetAtFixation,jsons/v1_VE250_randls_46_rotated.json,http://54.235.29.9/FacialAge/BNav_EC2/DepthDuration/v2_depth_duration_MTurk/v2_DepthDuration_HTML.html#109,109,1366,625,1366,768,8-29-2022,16-51-44,49,depth_duration_stimuli/001170_2014-06-17_15-43-44_260595134347_rgbf000096-resize_6/001170_2014-06-17_15-43-44_260595134347_rgbf000096-resize-original.jpg,250,1.1909999999999998,0,4157,241,meters,jsons/v1_VE250_randls_46_rotated.json,1082652,1419704,34,Woman
49,186345,DepthScenes,duration_manipulation_targetAtFixation,jsons/v1_VE250_randls_46_rotated.json,http://54.235.29.9/FacialAge/BNav_EC2/DepthDuration/v2_depth_duration_MTurk/v2_DepthDuration_HTML.html#109,109,1366,625,1366,768,8-29-2022,16-51-44,50,depth_duration_stimuli/001052_2014-06-08_18-24-54_260595134347_rgbf000130-resize_1/001052_2014-06-08_18-24-54_260595134347_rgbf000130-resize_1-target.png,250,4.1045,8,4664,237,meters,jsons/v1_VE250_randls_46_rotated.json,1082652,1419704,34,Woman
50,186345,DepthScenes,duration_manipulation_targetAtFixation,jsons/v1_VE250_randls_46_rotated.json,http://54.235.29.9/FacialAge/BNav_EC2/DepthDuration/v2_depth_duration_MTurk/v2_DepthDuration_HTML.html#109,109,1366,625,1366,768,8-29-2022,16-51-44,51,depth_duration_stimuli/002988_2014-06-15_12-24-20_094959634447_rgbf000150-resize_1/002988_2014-06-15_12-24-20_094959634447_rgbf000150-resize_1-target.png,250,4.7669999999999995,8,4215,244,meters,jsons/v1_VE250_randls_46_rotated.json,1082652,1419704,34,Woman
51,186345,DepthScenes,duration_manipulation_targetAtFixation,jsons/v1_VE250_randls_46_rotated.json,http://54.235.29.9/FacialAge/BNav_EC2/DepthDuration/v2_depth_duration_MTurk/v2_DepthDuration_HTML.html#109,109,1366,625,1366,768,8-29-2022,16-51-44,52,depth_duration_stimuli/000409_2014-06-04_19-23-33_260595134347_rgbf000067-resize_0/000409_2014-06-04_19-23-33_260595134347_rgbf000067-resize_0-target.png,250,3.7335,8,4183,247,meters,jsons/v1_VE250_randls_46_rotated.json,1082652,1419704,34,Woman
52,186345,DepthScenes,duration_manipulation_targetAtFixation,jsons/v1_VE250_randls_46_rotated.json,http://54.235.29.9/FacialAge/BNav_EC2/DepthDuration/v2_depth_duration_MTurk/v2_DepthDuration_HTML.html#109,109,1366,625,1366,768,8-29-2022,16-51-44,53,depth_duration_stimuli/002663_2014-06-13_15-50-26_094959634447_rgbf000075-resize_1/002663_2014-06-13_15-50-26_094959634447_rgbf000075-resize_1-target.png,250,4.7495,9,3594,237,meters,jsons/v1_VE250_randls_46_rotated.json,1082652,1419704,34,Woman
53,186345,DepthScenes,duration_manipulation_targetAtFixation,jsons/v1_VE250_randls_46_rotated.json,http://54.235.29.9/FacialAge/BNav_EC2/DepthDuration/v2_depth_duration_MTurk/v2_DepthDuration_HTML.html#109,109,1366,625,1366,768,8-29-2022,16-51-44,54,depth_duration_stimuli/000927_2014-06-09_16-32-30_260595134347_rgbf000123-resize_3/000927_2014-06-09_16-32-30_260595134347_rgbf000123-resize_3-target.png,250,2.6785,9,4915,240,meters,jsons/v1_VE250_randls_46_rotated.json,1082652,1419704,34,Woman
54,186345,DepthScenes,duration_manipulation_targetAtFixation,jsons/v1_VE250_randls_46_rotated.json,http://54.235.29.9/FacialAge/BNav_EC2/DepthDuration/v2_depth_duration_MTurk/v2_DepthDuration_HTML.html#109,109,1366,625,1366,768,8-29-2022,16-51-44,55,depth_duration_stimuli/001110_2014-06-15_17-25-28_260595134347_rgbf000150-resize_1/001110_2014-06-15_17-25-28_260595134347_rgbf000150-resize_1-target.png,250,1.7115,8,3736,254,meters,jsons/v1_VE250_randls_46_rotated.json,1082652,1419704,34,Woman
55,186345,DepthScenes,duration_manipulation_targetAtFixation,jsons/v1_VE250_randls_46_rotated.json,http://54.235.29.9/FacialAge/BNav_EC2/DepthDuration/v2_depth_duration_MTurk/v2_DepthDuration_HTML.html#109,109,1366,625,1366,768,8-29-2022,16-51-44,56,depth_duration_stimuli/002805_2014-06-22_19-54-03_094959634447_rgbf000079-resize_1/002805_2014-06-22_19-54-03_094959634447_rgbf000079-resize_1-target.png,250,3.1439999999999997,7,4025,247,meters,jsons/v1_VE250_randls_46_rotated.json,1082652,1419704,34,Woman
56,186345,DepthScenes,duration_manipulation_targetAtFixation,jsons/v1_VE250_randls_46_rotated.json,http://54.235.29.9/FacialAge/BNav_EC2/DepthDuration/v2_depth_duration_MTurk/v2_DepthDuration_HTML.html#109,109,1366,625,1366,768,8-29-2022,16-51-44,57,depth_duration_stimuli/000906_2014-06-08_13-35-43_260595134347_rgbf000155-resize_1/000906_2014-06-08_13-35-43_260595134347_rgbf000155-resize_1-target.png,250,2.8489999999999998,7,3728,249,meters,jsons/v1_VE250_randls_46_rotated.json,1082652,1419704,34,Woman
57,186345,DepthScenes,duration_manipulation_targetAtFixation,jsons/v1_VE250_randls_46_rotated.json,http://54.235.29.9/FacialAge/BNav_EC2/DepthDuration/v2_depth_duration_MTurk/v2_DepthDuration_HTML.html#109,109,1366,625,1366,768,8-29-2022,16-51-44,58,depth_duration_stimuli/002414_2014-06-28_20-24-58_260595134347_rgbf000067-resize_4/002414_2014-06-28_20-24-58_260595134347_rgbf000067-resize_4-target.png,250,4.363,8,3914,253,meters,jsons/v1_VE250_randls_46_rotated.json,1082652,1419704,34,Woman
58,186345,DepthScenes,duration_manipulation_targetAtFixation,jsons/v1_VE250_randls_46_rotated.json,http://54.235.29.9/FacialAge/BNav_EC2/DepthDuration/v2_depth_duration_MTurk/v2_DepthDuration_HTML.html#109,109,1366,625,1366,768,8-29-2022,16-51-44,59,depth_duration_stimuli/000773_2014-06-08_22-24-54_260595134347_rgbf000093-resize_1/000773_2014-06-08_22-24-54_260595134347_rgbf000093-resize_1-target.png,250,4.973,7,5228,253,meters,jsons/v1_VE250_randls_46_rotated.json,1082652,1419704,34,Woman
59,186345,DepthScenes,duration_manipulation_targetAtFixation,jsons/v1_VE250_randls_46_rotated.json,http://54.235.29.9/FacialAge/BNav_EC2/DepthDuration/v2_depth_duration_MTurk/v2_DepthDuration_HTML.html#109,109,1366,625,1366,768,8-29-2022,16-51-44,60,depth_duration_stimuli/003083_2014-06-15_15-21-03_094959634447_rgbf000063-resize_1/003083_2014-06-15_15-21-03_094959634447_rgbf000063-resize_1-target.png,250,4.1405,8,3468,250,meters,jsons/v1_VE250_randls_46_rotated.json,1082652,1419704,34,Woman
60,186345,DepthScenes,duration_manipulation_targetAtFixation,jsons/v1_VE250_randls_46_rotated.json,http://54.235.29.9/FacialAge/BNav_EC2/DepthDuration/v2_depth_duration_MTurk/v2_DepthDuration_HTML.html#109,109,1366,625,1366,768,8-29-2022,16-51-44,61,depth_duration_stimuli/000486_2014-06-09_20-47-20_260595134347_rgbf000143-resize_2/000486_2014-06-09_20-47-20_260595134347_rgbf000143-resize_2-target.png,250,4.8325,7,3945,251,meters,jsons/v1_VE250_randls_46_rotated.json,1082652,1419704,34,Woman
61,186345,DepthScenes,duration_manipulation_targetAtFixation,jsons/v1_VE250_randls_46_rotated.json,http://54.235.29.9/FacialAge/BNav_EC2/DepthDuration/v2_depth_duration_MTurk/v2_DepthDuration_HTML.html#109,109,1366,625,1366,768,8-29-2022,16-51-44,62,depth_duration_stimuli/002323_2014-06-28_20-01-54_260595134347_rgbf000051-resize_4/002323_2014-06-28_20-01-54_260595134347_rgbf000051-resize_4-target.png,250,3.7310000000000003,8,3879,248,meters,jsons/v1_VE250_randls_46_rotated.json,1082652,1419704,34,Woman
62,186345,DepthScenes,duration_manipulation_targetAtFixation,jsons/v1_VE250_randls_46_rotated.json,http://54.235.29.9/FacialAge/BNav_EC2/DepthDuration/v2_depth_duration_MTurk/v2_DepthDuration_HTML.html#109,109,1366,625,1366,768,8-29-2022,16-51-44,63,depth_duration_stimuli/000917_2014-06-09_22-45-29_260595134347_rgbf000149-resize_3/000917_2014-06-09_22-45-29_260595134347_rgbf000149-resize_3-target.png,250,4.1865,7,3653,248,meters,jsons/v1_VE250_randls_46_rotated.json,1082652,1419704,34,Woman
63,186345,DepthScenes,duration_manipulation_targetAtFixation,jsons/v1_VE250_randls_46_rotated.json,http://54.235.29.9/FacialAge/BNav_EC2/DepthDuration/v2_depth_duration_MTurk/v2_DepthDuration_HTML.html#109,109,1366,625,1366,768,8-29-2022,16-51-44,64,depth_duration_stimuli/003048_2014-06-15_13-49-43_094959634447_rgbf000150-resize_1/003048_2014-06-15_13-49-43_094959634447_rgbf000150-resize_1-target.png,250,4.0035,8,3951,265,meters,jsons/v1_VE250_randls_46_rotated.json,1082652,1419704,34,Woman
64,186345,DepthScenes,duration_manipulation_targetAtFixation,jsons/v1_VE250_randls_46_rotated.json,http://54.235.29.9/FacialAge/BNav_EC2/DepthDuration/v2_depth_duration_MTurk/v2_DepthDuration_HTML.html#109,109,1366,625,1366,768,8-29-2022,16-51-44,65,depth_duration_stimuli/002043_2014-06-24_20-29-38_260595134347_rgbf000039-resize_4/002043_2014-06-24_20-29-38_260595134347_rgbf000039-resize_4-target.png,250,2.8435,8,4304,239,meters,jsons/v1_VE250_randls_46_rotated.json,1082652,1419704,34,Woman
65,186345,DepthScenes,duration_manipulation_targetAtFixation,jsons/v1_VE250_randls_46_rotated.json,http://54.235.29.9/FacialAge/BNav_EC2/DepthDuration/v2_depth_duration_MTurk/v2_DepthDuration_HTML.html#109,109,1366,625,1366,768,8-29-2022,16-51-44,66,depth_duration_stimuli/001540_2014-06-20_17-01-05_260595134347_rgbf000086-resize_2/001540_2014-06-20_17-01-05_260595134347_rgbf000086-resize-original.jpg,250,1.459,0,3298,250,meters,jsons/v1_VE250_randls_46_rotated.json,1082652,1419704,34,Woman
66,186345,DepthScenes,duration_manipulation_targetAtFixation,jsons/v1_VE250_randls_46_rotated.json,http://54.235.29.9/FacialAge/BNav_EC2/DepthDuration/v2_depth_duration_MTurk/v2_DepthDuration_HTML.html#109,109,1366,625,1366,768,8-29-2022,16-51-44,67,depth_duration_stimuli/002444_2014-06-28_20-32-08_260595134347_rgbf000027-resize_0/002444_2014-06-28_20-32-08_260595134347_rgbf000027-resize_0-target.png,250,4.388999999999999,8,3598,253,meters,jsons/v1_VE250_randls_46_rotated.json,1082652,1419704,34,Woman
67,186345,DepthScenes,duration_manipulation_targetAtFixation,jsons/v1_VE250_randls_46_rotated.json,http://54.235.29.9/FacialAge/BNav_EC2/DepthDuration/v2_depth_duration_MTurk/v2_DepthDuration_HTML.html#109,109,1366,625,1366,768,8-29-2022,16-51-44,68,depth_duration_stimuli/000436_2014-06-09_22-25-11_260595134347_rgbf000137-resize_1/000436_2014-06-09_22-25-11_260595134347_rgbf000137-resize_1-target.png,250,4.0705,7,3681,250,meters,jsons/v1_VE250_randls_46_rotated.json,1082652,1419704,34,Woman
68,186345,DepthScenes,duration_manipulation_targetAtFixation,jsons/v1_VE250_randls_46_rotated.json,http://54.235.29.9/FacialAge/BNav_EC2/DepthDuration/v2_depth_duration_MTurk/v2_DepthDuration_HTML.html#109,109,1366,625,1366,768,8-29-2022,16-51-44,69,depth_duration_stimuli/001650_2014-06-20_12-09-00_260595134347_rgbf000087-resize_3/001650_2014-06-20_12-09-00_260595134347_rgbf000087-resize_3-target.png,250,1.9505,5,3427,249,meters,jsons/v1_VE250_randls_46_rotated.json,1082652,1419704,34,Woman
69,186345,DepthScenes,duration_manipulation_targetAtFixation,jsons/v1_VE250_randls_46_rotated.json,http://54.235.29.9/FacialAge/BNav_EC2/DepthDuration/v2_depth_duration_MTurk/v2_DepthDuration_HTML.html#109,109,1366,625,1366,768,8-29-2022,16-51-44,70,depth_duration_stimuli/000682_2014-06-08_23-14-58_260595134347_rgbf000041-resize_5/000682_2014-06-08_23-14-58_260595134347_rgbf000041-resize_5-target.png,250,2.7239999999999998,0,4248,254,meters,jsons/v1_VE250_randls_46_rotated.json,1082652,1419704,34,Woman
70,186345,DepthScenes,duration_manipulation_targetAtFixation,jsons/v1_VE250_randls_46_rotated.json,http://54.235.29.9/FacialAge/BNav_EC2/DepthDuration/v2_depth_duration_MTurk/v2_DepthDuration_HTML.html#109,109,1366,625,1366,768,8-29-2022,16-51-44,71,depth_duration_stimuli/000109_2014-05-14_23-41-52_260595134347_rgbf000035-resize_9/000109_2014-05-14_23-41-52_260595134347_rgbf000035-resize_9-target.png,250,1.3545,4,4180,249,meters,jsons/v1_VE250_randls_46_rotated.json,1082652,1419704,34,Woman
71,186345,DepthScenes,duration_manipulation_targetAtFixation,jsons/v1_VE250_randls_46_rotated.json,http://54.235.29.9/FacialAge/BNav_EC2/DepthDuration/v2_depth_duration_MTurk/v2_DepthDuration_HTML.html#109,109,1366,625,1366,768,8-29-2022,16-51-44,72,depth_duration_stimuli/000470_2014-06-09_19-42-40_260595134347_rgbf000094-resize_1/000470_2014-06-09_19-42-40_260595134347_rgbf000094-resize_1-target.png,250,1.831,6,4225,250,meters,jsons/v1_VE250_randls_46_rotated.json,1082652,1419704,34,Woman
72,186345,DepthScenes,duration_manipulation_targetAtFixation,jsons/v1_VE250_randls_46_rotated.json,http://54.235.29.9/FacialAge/BNav_EC2/DepthDuration/v2_depth_duration_MTurk/v2_DepthDuration_HTML.html#109,109,1366,625,1366,768,8-29-2022,16-51-44,73,depth_duration_stimuli/002639_2014-06-24_14-51-37_094959634447_rgbf000074-resize_4/002639_2014-06-24_14-51-37_094959634447_rgbf000074-resize_4-target.png,250,4.0375,7,3507,253,meters,jsons/v1_VE250_randls_46_rotated.json,1082652,1419704,34,Woman
73,186345,DepthScenes,duration_manipulation_targetAtFixation,jsons/v1_VE250_randls_46_rotated.json,http://54.235.29.9/FacialAge/BNav_EC2/DepthDuration/v2_depth_duration_MTurk/v2_DepthDuration_HTML.html#109,109,1366,625,1366,768,8-29-2022,16-51-44,74,depth_duration_stimuli/003292_2014-05-14_21-53-49_094959634447_rgbf000100-resize_2/003292_2014-05-14_21-53-49_094959634447_rgbf000100-resize_2-target.png,250,3.4815,7,4668,250,meters,jsons/v1_VE250_randls_46_rotated.json,1082652,1419704,34,Woman
74,186345,DepthScenes,duration_manipulation_targetAtFixation,jsons/v1_VE250_randls_46_rotated.json,http://54.235.29.9/FacialAge/BNav_EC2/DepthDuration/v2_depth_duration_MTurk/v2_DepthDuration_HTML.html#109,109,1366,625,1366,768,8-29-2022,16-51-44,75,depth_duration_stimuli/001235_2014-06-17_16-37-36_260595134347_rgbf000084-resize_4/001235_2014-06-17_16-37-36_260595134347_rgbf000084-resize_4-target.png,250,3.6605,8,4170,251,meters,jsons/v1_VE250_randls_46_rotated.json,1082652,1419704,34,Woman
75,186345,DepthScenes,duration_manipulation_targetAtFixation,jsons/v1_VE250_randls_46_rotated.json,http://54.235.29.9/FacialAge/BNav_EC2/DepthDuration/v2_depth_duration_MTurk/v2_DepthDuration_HTML.html#109,109,1366,625,1366,768,8-29-2022,16-51-44,76,depth_duration_stimuli/000788_2014-06-08_22-34-36_260595134347_rgbf000131-resize_1/000788_2014-06-08_22-34-36_260595134347_rgbf000131-resize_1-target.png,250,3.359,8,4577,241,meters,jsons/v1_VE250_randls_46_rotated.json,1082652,1419704,34,Woman
76,186345,DepthScenes,duration_manipulation_targetAtFixation,jsons/v1_VE250_randls_46_rotated.json,http://54.235.29.9/FacialAge/BNav_EC2/DepthDuration/v2_depth_duration_MTurk/v2_DepthDuration_HTML.html#109,109,1366,625,1366,768,8-29-2022,16-51-44,77,depth_duration_stimuli/002875_2014-06-01_15-19-00_094959634447_rgbf000151-resize_1/002875_2014-06-01_15-19-00_094959634447_rgbf000151-resize_1-target.png,250,1.9675,7,4119,251,meters,jsons/v1_VE250_randls_46_rotated.json,1082652,1419704,34,Woman
77,186345,DepthScenes,duration_manipulation_targetAtFixation,jsons/v1_VE250_randls_46_rotated.json,http://54.235.29.9/FacialAge/BNav_EC2/DepthDuration/v2_depth_duration_MTurk/v2_DepthDuration_HTML.html#109,109,1366,625,1366,768,8-29-2022,16-51-44,78,depth_duration_stimuli/001011_2014-06-08_23-18-54_260595134347_rgbf000044-resize_4/001011_2014-06-08_23-18-54_260595134347_rgbf000044-resize_4-target.png,250,2.4730000000000003,8,4866,235,meters,jsons/v1_VE250_randls_46_rotated.json,1082652,1419704,34,Woman
78,186345,DepthScenes,duration_manipulation_targetAtFixation,jsons/v1_VE250_randls_46_rotated.json,http://54.235.29.9/FacialAge/BNav_EC2/DepthDuration/v2_depth_duration_MTurk/v2_DepthDuration_HTML.html#109,109,1366,625,1366,768,8-29-2022,16-51-44,79,depth_duration_stimuli/000483_2014-06-09_20-41-45_260595134347_rgbf000116-resize_4/000483_2014-06-09_20-41-45_260595134347_rgbf000116-resize_4-target.png,250,1.337,7,66667,249,meters,jsons/v1_VE250_randls_46_rotated.json,1082652,1419704,34,Woman
79,186345,DepthScenes,duration_manipulation_targetAtFixation,jsons/v1_VE250_randls_46_rotated.json,http://54.235.29.9/FacialAge/BNav_EC2/DepthDuration/v2_depth_duration_MTurk/v2_DepthDuration_HTML.html#109,109,1366,625,1366,768,8-29-2022,16-51-44,80,depth_duration_stimuli/000469_2014-06-09_19-42-10_260595134347_rgbf000081-resize_1/000469_2014-06-09_19-42-10_260595134347_rgbf000081-resize_1-target.png,250,1.652,8,3217,252,meters,jsons/v1_VE250_randls_46_rotated.json,1082652,1419704,34,Woman
80,186345,DepthScenes,duration_manipulation_targetAtFixation,jsons/v1_VE250_randls_46_rotated.json,http://54.235.29.9/FacialAge/BNav_EC2/DepthDuration/v2_depth_duration_MTurk/v2_DepthDuration_HTML.html#109,109,1366,625,1366,768,8-29-2022,16-51-44,81,depth_duration_stimuli/002657_2014-06-13_15-29-54_094959634447_rgbf000150-resize_1/002657_2014-06-13_15-29-54_094959634447_rgbf000150-resize_1-target.png,250,4.919,8,3236,254,meters,jsons/v1_VE250_randls_46_rotated.json,1082652,1419704,34,Woman
81,186345,DepthScenes,duration_manipulation_targetAtFixation,jsons/v1_VE250_randls_46_rotated.json,http://54.235.29.9/FacialAge/BNav_EC2/DepthDuration/v2_depth_duration_MTurk/v2_DepthDuration_HTML.html#109,109,1366,625,1366,768,8-29-2022,16-51-44,82,depth_duration_stimuli/002375_2014-06-28_20-13-44_260595134347_rgbf000032-resize_1/002375_2014-06-28_20-13-44_260595134347_rgbf000032-resize_1-target.png,250,4.0175,7,2611,253,meters,jsons/v1_VE250_randls_46_rotated.json,1082652,1419704,34,Woman
82,186345,DepthScenes,duration_manipulation_targetAtFixation,jsons/v1_VE250_randls_46_rotated.json,http://54.235.29.9/FacialAge/BNav_EC2/DepthDuration/v2_depth_duration_MTurk/v2_DepthDuration_HTML.html#109,109,1366,625,1366,768,8-29-2022,16-51-44,83,depth_duration_stimuli/003423_2014-05-21_10-23-26_094959634447_rgbf002665-resize_2/003423_2014-05-21_10-23-26_094959634447_rgbf002665-resize_2-target.png,250,3.2575,8,3062,247,meters,jsons/v1_VE250_randls_46_rotated.json,1082652,1419704,34,Woman
83,186345,DepthScenes,duration_manipulation_targetAtFixation,jsons/v1_VE250_randls_46_rotated.json,http://54.235.29.9/FacialAge/BNav_EC2/DepthDuration/v2_depth_duration_MTurk/v2_DepthDuration_HTML.html#109,109,1366,625,1366,768,8-29-2022,16-51-44,84,depth_duration_stimuli/002905_2014-06-03_18-04-43_094959634447_rgbf000151-resize_2/002905_2014-06-03_18-04-43_094959634447_rgbf000151-resize_2-target.png,250,2.0295,9,4636,240,meters,jsons/v1_VE250_randls_46_rotated.json,1082652,1419704,34,Woman
84,186345,DepthScenes,duration_manipulation_targetAtFixation,jsons/v1_VE250_randls_46_rotated.json,http://54.235.29.9/FacialAge/BNav_EC2/DepthDuration/v2_depth_duration_MTurk/v2_DepthDuration_HTML.html#109,109,1366,625,1366,768,8-29-2022,16-51-44,85,depth_duration_stimuli/002678_2014-06-13_16-15-32_094959634447_rgbf000151-resize_6/002678_2014-06-13_16-15-32_094959634447_rgbf000151-resize_6-target.png,250,2.1830000000000003,7,2873,239,meters,jsons/v1_VE250_randls_46_rotated.json,1082652,1419704,34,Woman
85,186345,DepthScenes,duration_manipulation_targetAtFixation,jsons/v1_VE250_randls_46_rotated.json,http://54.235.29.9/FacialAge/BNav_EC2/DepthDuration/v2_depth_duration_MTurk/v2_DepthDuration_HTML.html#109,109,1366,625,1366,768,8-29-2022,16-51-44,86,depth_duration_stimuli/000368_2014-06-09_15-53-01_260595134347_rgbf000155-resize_2/000368_2014-06-09_15-53-01_260595134347_rgbf000155-resize_2-target.png,250,2.4859999999999998,7,3171,253,meters,jsons/v1_VE250_randls_46_rotated.json,1082652,1419704,34,Woman
86,186345,DepthScenes,duration_manipulation_targetAtFixation,jsons/v1_VE250_randls_46_rotated.json,http://54.235.29.9/FacialAge/BNav_EC2/DepthDuration/v2_depth_duration_MTurk/v2_DepthDuration_HTML.html#109,109,1366,625,1366,768,8-29-2022,16-51-44,87,depth_duration_stimuli/000943_2014-06-09_19-31-07_260595134347_rgbf000128-resize_1/000943_2014-06-09_19-31-07_260595134347_rgbf000128-resize_1-target.png,250,1.9765,8,2676,254,meters,jsons/v1_VE250_randls_46_rotated.json,1082652,1419704,34,Woman
87,186345,DepthScenes,duration_manipulation_targetAtFixation,jsons/v1_VE250_randls_46_rotated.json,http://54.235.29.9/FacialAge/BNav_EC2/DepthDuration/v2_depth_duration_MTurk/v2_DepthDuration_HTML.html#109,109,1366,625,1366,768,8-29-2022,16-51-44,88,depth_duration_stimuli/003070_2014-06-15_14-58-27_094959634447_rgbf000150-resize_3/003070_2014-06-15_14-58-27_094959634447_rgbf000150-resize_3-target.png,250,2.9415,7,3747,255,meters,jsons/v1_VE250_randls_46_rotated.json,1082652,1419704,34,Woman
88,186345,DepthScenes,duration_manipulation_targetAtFixation,jsons/v1_VE250_randls_46_rotated.json,http://54.235.29.9/FacialAge/BNav_EC2/DepthDuration/v2_depth_duration_MTurk/v2_DepthDuration_HTML.html#109,109,1366,625,1366,768,8-29-2022,16-51-44,89,depth_duration_stimuli/000709_2014-06-08_13-51-55_260595134347_rgbf000068-resize_3/000709_2014-06-08_13-51-55_260595134347_rgbf000068-resize_3-target.png,250,1.8030000000000002,9,5366,236,meters,jsons/v1_VE250_randls_46_rotated.json,1082652,1419704,34,Woman
89,186345,DepthScenes,duration_manipulation_targetAtFixation,jsons/v1_VE250_randls_46_rotated.json,http://54.235.29.9/FacialAge/BNav_EC2/DepthDuration/v2_depth_duration_MTurk/v2_DepthDuration_HTML.html#109,109,1366,625,1366,768,8-29-2022,16-51-44,90,depth_duration_stimuli/002057_2014-06-24_21-00-13_260595134347_rgbf000120-resize_1/002057_2014-06-24_21-00-13_260595134347_rgbf000120-resize_1-target.png,250,2.967,9,3027,241,meters,jsons/v1_VE250_randls_46_rotated.json,1082652,1419704,34,Woman
90,186345,DepthScenes,duration_manipulation_targetAtFixation,jsons/v1_VE250_randls_46_rotated.json,http://54.235.29.9/FacialAge/BNav_EC2/DepthDuration/v2_depth_duration_MTurk/v2_DepthDuration_HTML.html#109,109,1366,625,1366,768,8-29-2022,16-51-44,91,depth_duration_stimuli/002953_2014-06-08_17-32-18_094959634447_rgbf000059-resize_5/002953_2014-06-08_17-32-18_094959634447_rgbf000059-resize_5-target.png,250,1.551,5,4571,254,meters,jsons/v1_VE250_randls_46_rotated.json,1082652,1419704,34,Woman
91,186345,DepthScenes,duration_manipulation_targetAtFixation,jsons/v1_VE250_randls_46_rotated.json,http://54.235.29.9/FacialAge/BNav_EC2/DepthDuration/v2_depth_duration_MTurk/v2_DepthDuration_HTML.html#109,109,1366,625,1366,768,8-29-2022,16-51-44,92,depth_duration_stimuli/000878_2014-06-08_22-52-45_260595134347_rgbf000045-resize_2/000878_2014-06-08_22-52-45_260595134347_rgbf000045-resize_2-target.png,250,2.092,8,3318,250,meters,jsons/v1_VE250_randls_46_rotated.json,1082652,1419704,34,Woman
92,186345,DepthScenes,duration_manipulation_targetAtFixation,jsons/v1_VE250_randls_46_rotated.json,http://54.235.29.9/FacialAge/BNav_EC2/DepthDuration/v2_depth_duration_MTurk/v2_DepthDuration_HTML.html#109,109,1366,625,1366,768,8-29-2022,16-51-44,93,depth_duration_stimuli/001100_2014-06-15_17-46-26_260595134347_rgbf000225-resize_2/001100_2014-06-15_17-46-26_260595134347_rgbf000225-resize_2-target.png,250,2.24,8,10482,252,meters,jsons/v1_VE250_randls_46_rotated.json,1082652,1419704,34,Woman
93,186345,DepthScenes,duration_manipulation_targetAtFixation,jsons/v1_VE250_randls_46_rotated.json,http://54.235.29.9/FacialAge/BNav_EC2/DepthDuration/v2_depth_duration_MTurk/v2_DepthDuration_HTML.html#109,109,1366,625,1366,768,8-29-2022,16-51-44,94,depth_duration_stimuli/002784_2014-06-22_19-26-30_094959634447_rgbf000083-resize_3/002784_2014-06-22_19-26-30_094959634447_rgbf000083-resize_3-target.png,250,1.8046666666667,3,3383,249,meters,jsons/v1_VE250_randls_46_rotated.json,1082652,1419704,34,Woman
94,186345,DepthScenes,duration_manipulation_targetAtFixation,jsons/v1_VE250_randls_46_rotated.json,http://54.235.29.9/FacialAge/BNav_EC2/DepthDuration/v2_depth_duration_MTurk/v2_DepthDuration_HTML.html#109,109,1366,625,1366,768,8-29-2022,16-51-44,95,depth_duration_stimuli/002209_2014-06-28_18-36-10_260595134347_rgbf000051-resize_1/002209_2014-06-28_18-36-10_260595134347_rgbf000051-resize_1-target.png,250,2.057,5,3575,257,meters,jsons/v1_VE250_randls_46_rotated.json,1082652,1419704,34,Woman
95,186345,DepthScenes,duration_manipulation_targetAtFixation,jsons/v1_VE250_randls_46_rotated.json,http://54.235.29.9/FacialAge/BNav_EC2/DepthDuration/v2_depth_duration_MTurk/v2_DepthDuration_HTML.html#109,109,1366,625,1366,768,8-29-2022,16-51-44,96,depth_duration_stimuli/002763_2014-06-22_19-13-10_094959634447_rgbf000075-resize_4/002763_2014-06-22_19-13-10_094959634447_rgbf000075-resize_4-target.png,250,1.68375,6,3538,239,meters,jsons/v1_VE250_randls_46_rotated.json,1082652,1419704,34,Woman
96,186345,DepthScenes,duration_manipulation_targetAtFixation,jsons/v1_VE250_randls_46_rotated.json,http://54.235.29.9/FacialAge/BNav_EC2/DepthDuration/v2_depth_duration_MTurk/v2_DepthDuration_HTML.html#109,109,1366,625,1366,768,8-29-2022,16-51-44,97,depth_duration_stimuli/000866_2014-06-09_20-45-42_260595134347_rgbf000139-resize_1/000866_2014-06-09_20-45-42_260595134347_rgbf000139-resize_1-target.png,250,3.2155,8,3127,253,meters,jsons/v1_VE250_randls_46_rotated.json,1082652,1419704,34,Woman
97,186345,DepthScenes,duration_manipulation_targetAtFixation,jsons/v1_VE250_randls_46_rotated.json,http://54.235.29.9/FacialAge/BNav_EC2/DepthDuration/v2_depth_duration_MTurk/v2_DepthDuration_HTML.html#109,109,1366,625,1366,768,8-29-2022,16-51-44,98,depth_duration_stimuli/002989_2014-06-15_12-25-03_094959634447_rgbf000150-resize_3/002989_2014-06-15_12-25-03_094959634447_rgbf000150-resize_3-target.png,250,4.1975,9,3624,248,meters,jsons/v1_VE250_randls_46_rotated.json,1082652,1419704,34,Woman
98,186345,DepthScenes,duration_manipulation_targetAtFixation,jsons/v1_VE250_randls_46_rotated.json,http://54.235.29.9/FacialAge/BNav_EC2/DepthDuration/v2_depth_duration_MTurk/v2_DepthDuration_HTML.html#109,109,1366,625,1366,768,8-29-2022,16-51-44,99,depth_duration_stimuli/001222_2014-06-17_16-24-06_260595134347_rgbf000073-resize_0/001222_2014-06-17_16-24-06_260595134347_rgbf000073-resize-original.jpg,250,1.4385,0,4164,251,meters,jsons/v1_VE250_randls_46_rotated.json,1082652,1419704,34,Woman
99,186345,DepthScenes,duration_manipulation_targetAtFixation,jsons/v1_VE250_randls_46_rotated.json,http://54.235.29.9/FacialAge/BNav_EC2/DepthDuration/v2_depth_duration_MTurk/v2_DepthDuration_HTML.html#109,109,1366,625,1366,768,8-29-2022,16-51-44,100,depth_duration_stimuli/001214_2014-06-17_16-13-55_260595134347_rgbf000111-resize_0/001214_2014-06-17_16-13-55_260595134347_rgbf000111-resize_0-target.png,250,2.6505,8,3759,251,meters,jsons/v1_VE250_randls_46_rotated.json,1082652,1419704,34,Woman
100,186345,DepthScenes,duration_manipulation_targetAtFixation,jsons/v1_VE250_randls_46_rotated.json,http://54.235.29.9/FacialAge/BNav_EC2/DepthDuration/v2_depth_duration_MTurk/v2_DepthDuration_HTML.html#109,109,1366,625,1366,768,8-29-2022,16-51-44,101,depth_duration_stimuli/000810_2014-06-08_17-20-01_260595134347_rgbf000105-resize_0/000810_2014-06-08_17-20-01_260595134347_rgbf000105-resize_0-target.png,250,1.4865,8,10356,253,meters,jsons/v1_VE250_randls_46_rotated.json,1082652,1419704,34,Woman
101,186345,DepthScenes,duration_manipulation_targetAtFixation,jsons/v1_VE250_randls_46_rotated.json,http://54.235.29.9/FacialAge/BNav_EC2/DepthDuration/v2_depth_duration_MTurk/v2_DepthDuration_HTML.html#109,109,1366,625,1366,768,8-29-2022,16-51-44,102,depth_duration_stimuli/001447_2014-06-19_17-00-32_260595134347_rgbf000082-resize_5/001447_2014-06-19_17-00-32_260595134347_rgbf000082-resize_5-target.png,250,4.13775,7,4447,250,meters,jsons/v1_VE250_randls_46_rotated.json,1082652,1419704,34,Woman
102,186345,DepthScenes,duration_manipulation_targetAtFixation,jsons/v1_VE250_randls_46_rotated.json,http://54.235.29.9/FacialAge/BNav_EC2/DepthDuration/v2_depth_duration_MTurk/v2_DepthDuration_HTML.html#109,109,1366,625,1366,768,8-29-2022,16-51-44,103,depth_duration_stimuli/000447_2014-06-08_16-15-46_260595134347_rgbf000130-resize_1/000447_2014-06-08_16-15-46_260595134347_rgbf000130-resize_1-target.png,250,4.479,9,3349,250,meters,jsons/v1_VE250_randls_46_rotated.json,1082652,1419704,34,Woman
103,186345,DepthScenes,duration_manipulation_targetAtFixation,jsons/v1_VE250_randls_46_rotated.json,http://54.235.29.9/FacialAge/BNav_EC2/DepthDuration/v2_depth_duration_MTurk/v2_DepthDuration_HTML.html#109,109,1366,625,1366,768,8-29-2022,16-51-44,104,depth_duration_stimuli/002568_2014-06-24_13-59-21_094959634447_rgbf000062-resize_4/002568_2014-06-24_13-59-21_094959634447_rgbf000062-resize_4-target.png,250,3.015,0,3370,235,meters,jsons/v1_VE250_randls_46_rotated.json,1082652,1419704,34,Woman
104,186345,DepthScenes,duration_manipulation_targetAtFixation,jsons/v1_VE250_randls_46_rotated.json,http://54.235.29.9/FacialAge/BNav_EC2/DepthDuration/v2_depth_duration_MTurk/v2_DepthDuration_HTML.html#109,109,1366,625,1366,768,8-29-2022,16-51-44,105,depth_duration_stimuli/003492_2014-05-21_15-50-55_094959634447_rgbf000828-resize_1/003492_2014-05-21_15-50-55_094959634447_rgbf000828-resize_1-target.png,250,4.06875,8,8898,243,meters,jsons/v1_VE250_randls_46_rotated.json,1082652,1419704,34,Woman
105,186345,DepthScenes,duration_manipulation_targetAtFixation,jsons/v1_VE250_randls_46_rotated.json,http://54.235.29.9/FacialAge/BNav_EC2/DepthDuration/v2_depth_duration_MTurk/v2_DepthDuration_HTML.html#109,109,1366,625,1366,768,8-29-2022,16-51-44,106,depth_duration_stimuli/000854_2014-06-09_19-43-13_260595134347_rgbf000066-resize_0/000854_2014-06-09_19-43-13_260595134347_rgbf000066-resize_0-target.png,250,3.068,7,3336,258,meters,jsons/v1_VE250_randls_46_rotated.json,1082652,1419704,34,Woman
106,186345,DepthScenes,duration_manipulation_targetAtFixation,jsons/v1_VE250_randls_46_rotated.json,http://54.235.29.9/FacialAge/BNav_EC2/DepthDuration/v2_depth_duration_MTurk/v2_DepthDuration_HTML.html#109,109,1366,625,1366,768,8-29-2022,16-51-44,107,depth_duration_stimuli/000758_2014-06-08_22-05-08_260595134347_rgbf000085-resize_0/000758_2014-06-08_22-05-08_260595134347_rgbf000085-resize_0-target.png,250,3.3810000000000002,5,8810,252,meters,jsons/v1_VE250_randls_46_rotated.json,1082652,1419704,34,Woman
107,186345,DepthScenes,duration_manipulation_targetAtFixation,jsons/v1_VE250_randls_46_rotated.json,http://54.235.29.9/FacialAge/BNav_EC2/DepthDuration/v2_depth_duration_MTurk/v2_DepthDuration_HTML.html#109,109,1366,625,1366,768,8-29-2022,16-51-44,108,depth_duration_stimuli/000734_2014-06-08_17-39-11_260595134347_rgbf000128-resize_2/000734_2014-06-08_17-39-11_260595134347_rgbf000128-resize_2-target.png,250,4.098,8,3843,250,meters,jsons/v1_VE250_randls_46_rotated.json,1082652,1419704,34,Woman
108,186345,DepthScenes,duration_manipulation_targetAtFixation,jsons/v1_VE250_randls_46_rotated.json,http://54.235.29.9/FacialAge/BNav_EC2/DepthDuration/v2_depth_duration_MTurk/v2_DepthDuration_HTML.html#109,109,1366,625,1366,768,8-29-2022,16-51-44,109,depth_duration_stimuli/000739_2014-06-08_18-45-58_260595134347_rgbf000068-resize_1/000739_2014-06-08_18-45-58_260595134347_rgbf000068-resize_1-target.png,250,3.534,9,2960,245,meters,jsons/v1_VE250_randls_46_rotated.json,1082652,1419704,34,Woman
109,186345,DepthScenes,duration_manipulation_targetAtFixation,jsons/v1_VE250_randls_46_rotated.json,http://54.235.29.9/FacialAge/BNav_EC2/DepthDuration/v2_depth_duration_MTurk/v2_DepthDuration_HTML.html#109,109,1366,625,1366,768,8-29-2022,16-51-44,110,depth_duration_stimuli/001617_2014-06-20_11-35-32_260595134347_rgbf000066-resize_1/001617_2014-06-20_11-35-32_260595134347_rgbf000066-resize_1-target.png,250,3.7910000000000004,8,2663,236,meters,jsons/v1_VE250_randls_46_rotated.json,1082652,1419704,34,Woman
110,186345,DepthScenes,duration_manipulation_targetAtFixation,jsons/v1_VE250_randls_46_rotated.json,http://54.235.29.9/FacialAge/BNav_EC2/DepthDuration/v2_depth_duration_MTurk/v2_DepthDuration_HTML.html#109,109,1366,625,1366,768,8-29-2022,16-51-44,111,depth_duration_stimuli/001806_2014-06-26_20-50-20_260595134347_rgbf000091-resize_1/001806_2014-06-26_20-50-20_260595134347_rgbf000091-resize_1-target.png,250,2.7305,7,2747,238,meters,jsons/v1_VE250_randls_46_rotated.json,1082652,1419704,34,Woman
111,186345,DepthScenes,duration_manipulation_targetAtFixation,jsons/v1_VE250_randls_46_rotated.json,http://54.235.29.9/FacialAge/BNav_EC2/DepthDuration/v2_depth_duration_MTurk/v2_DepthDuration_HTML.html#109,109,1366,625,1366,768,8-29-2022,16-51-44,112,depth_duration_stimuli/000457_2014-06-08_16-52-43_260595134347_rgbf000199-resize_1/000457_2014-06-08_16-52-43_260595134347_rgbf000199-resize_1-target.png,250,3.6489999999999996,8,6503,250,meters,jsons/v1_VE250_randls_46_rotated.json,1082652,1419704,34,Woman
112,186345,DepthScenes,duration_manipulation_targetAtFixation,jsons/v1_VE250_randls_46_rotated.json,http://54.235.29.9/FacialAge/BNav_EC2/DepthDuration/v2_depth_duration_MTurk/v2_DepthDuration_HTML.html#109,109,1366,625,1366,768,8-29-2022,16-51-44,113,depth_duration_stimuli/000929_2014-06-09_16-33-19_260595134347_rgbf000139-resize_0/000929_2014-06-09_16-33-19_260595134347_rgbf000139-resize_0-target.png,250,2.8680000000000003,6,3442,249,meters,jsons/v1_VE250_randls_46_rotated.json,1082652,1419704,34,Woman
113,186345,DepthScenes,duration_manipulation_targetAtFixation,jsons/v1_VE250_randls_46_rotated.json,http://54.235.29.9/FacialAge/BNav_EC2/DepthDuration/v2_depth_duration_MTurk/v2_DepthDuration_HTML.html#109,109,1366,625,1366,768,8-29-2022,16-51-44,114,depth_duration_stimuli/002344_2014-06-28_20-06-29_260595134347_rgbf000030-resize_1/002344_2014-06-28_20-06-29_260595134347_rgbf000030-resize_1-target.png,250,1.5795,5,3159,251,meters,jsons/v1_VE250_randls_46_rotated.json,1082652,1419704,34,Woman
114,186345,DepthScenes,duration_manipulation_targetAtFixation,jsons/v1_VE250_randls_46_rotated.json,http://54.235.29.9/FacialAge/BNav_EC2/DepthDuration/v2_depth_duration_MTurk/v2_DepthDuration_HTML.html#109,109,1366,625,1366,768,8-29-2022,16-51-44,115,depth_duration_stimuli/002725_2014-06-22_11-47-51_094959634447_rgbf000070-resize_1/002725_2014-06-22_11-47-51_094959634447_rgbf000070-resize_1-target.png,250,2.195,8,3048,257,meters,jsons/v1_VE250_randls_46_rotated.json,1082652,1419704,34,Woman
115,186345,DepthScenes,duration_manipulation_targetAtFixation,jsons/v1_VE250_randls_46_rotated.json,http://54.235.29.9/FacialAge/BNav_EC2/DepthDuration/v2_depth_duration_MTurk/v2_DepthDuration_HTML.html#109,109,1366,625,1366,768,8-29-2022,16-51-44,116,depth_duration_stimuli/002545_2014-06-24_13-38-53_094959634447_rgbf000080-resize_4/002545_2014-06-24_13-38-53_094959634447_rgbf000080-resize_4-target.png,250,1.9205,8,9141,253,meters,jsons/v1_VE250_randls_46_rotated.json,1082652,1419704,34,Woman
116,186345,DepthScenes,duration_manipulation_targetAtFixation,jsons/v1_VE250_randls_46_rotated.json,http://54.235.29.9/FacialAge/BNav_EC2/DepthDuration/v2_depth_duration_MTurk/v2_DepthDuration_HTML.html#109,109,1366,625,1366,768,8-29-2022,16-51-44,117,depth_duration_stimuli/001092_2014-06-15_17-34-58_260595134347_rgbf000171-resize_3/001092_2014-06-15_17-34-58_260595134347_rgbf000171-resize_3-target.png,250,2.6935,7,4042,253,meters,jsons/v1_VE250_randls_46_rotated.json,1082652,1419704,34,Woman
117,186345,DepthScenes,duration_manipulation_targetAtFixation,jsons/v1_VE250_randls_46_rotated.json,http://54.235.29.9/FacialAge/BNav_EC2/DepthDuration/v2_depth_duration_MTurk/v2_DepthDuration_HTML.html#109,109,1366,625,1366,768,8-29-2022,16-51-44,118,depth_duration_stimuli/001516_2014-06-20_16-25-09_260595134347_rgbf000076-resize_2/001516_2014-06-20_16-25-09_260595134347_rgbf000076-resize_2-target.png,250,1.7445,8,3220,241,meters,jsons/v1_VE250_randls_46_rotated.json,1082652,1419704,34,Woman
118,186345,DepthScenes,duration_manipulation_targetAtFixation,jsons/v1_VE250_randls_46_rotated.json,http://54.235.29.9/FacialAge/BNav_EC2/DepthDuration/v2_depth_duration_MTurk/v2_DepthDuration_HTML.html#109,109,1366,625,1366,768,8-29-2022,16-51-44,119,depth_duration_stimuli/002118_2014-06-25_20-32-08_260595134347_rgbf000078-resize_1/002118_2014-06-25_20-32-08_260595134347_rgbf000078-resize_1-target.png,250,2.6460000000000004,8,3963,252,meters,jsons/v1_VE250_randls_46_rotated.json,1082652,1419704,34,Woman
119,186345,DepthScenes,duration_manipulation_targetAtFixation,jsons/v1_VE250_randls_46_rotated.json,http://54.235.29.9/FacialAge/BNav_EC2/DepthDuration/v2_depth_duration_MTurk/v2_DepthDuration_HTML.html#109,109,1366,625,1366,768,8-29-2022,16-51-44,120,depth_duration_stimuli/000787_2014-06-08_22-33-53_260595134347_rgbf000175-resize_1/000787_2014-06-08_22-33-53_260595134347_rgbf000175-resize-original.jpg,250,4.784,0,2946,236,meters,jsons/v1_VE250_randls_46_rotated.json,1082652,1419704,34,Woman
120,186345,DepthScenes,duration_manipulation_targetAtFixation,jsons/v1_VE250_randls_46_rotated.json,http://54.235.29.9/FacialAge/BNav_EC2/DepthDuration/v2_depth_duration_MTurk/v2_DepthDuration_HTML.html#109,109,1366,625,1366,768,8-29-2022,16-51-44,121,depth_duration_stimuli/002425_2014-06-28_20-27-29_260595134347_rgbf000031-resize_8/002425_2014-06-28_20-27-29_260595134347_rgbf000031-resize_8-target.png,250,3.8960000000000004,8,3316,243,meters,jsons/v1_VE250_randls_46_rotated.json,1082652,1419704,34,Woman
121,186345,DepthScenes,duration_manipulation_targetAtFixation,jsons/v1_VE250_randls_46_rotated.json,http://54.235.29.9/FacialAge/BNav_EC2/DepthDuration/v2_depth_duration_MTurk/v2_DepthDuration_HTML.html#109,109,1366,625,1366,768,8-29-2022,16-51-44,122,depth_duration_stimuli/000642_2014-06-08_16-59-25_260595134347_rgbf000098-resize_2/000642_2014-06-08_16-59-25_260595134347_rgbf000098-resize_2-target.png,250,2.8815,8,4912,230,meters,jsons/v1_VE250_randls_46_rotated.json,1082652,1419704,34,Woman
122,186345,DepthScenes,duration_manipulation_targetAtFixation,jsons/v1_VE250_randls_46_rotated.json,http://54.235.29.9/FacialAge/BNav_EC2/DepthDuration/v2_depth_duration_MTurk/v2_DepthDuration_HTML.html#109,109,1366,625,1366,768,8-29-2022,16-51-44,123,depth_duration_stimuli/002136_2014-06-25_21-18-03_260595134347_rgbf000109-resize_3/002136_2014-06-25_21-18-03_260595134347_rgbf000109-resize_3-target.png,250,1.9569999999999999,8,6424,250,meters,jsons/v1_VE250_randls_46_rotated.json,1082652,1419704,34,Woman
123,186345,DepthScenes,duration_manipulation_targetAtFixation,jsons/v1_VE250_randls_46_rotated.json,http://54.235.29.9/FacialAge/BNav_EC2/DepthDuration/v2_depth_duration_MTurk/v2_DepthDuration_HTML.html#109,109,1366,625,1366,768,8-29-2022,16-51-44,124,depth_duration_stimuli/002964_2014-06-08_17-46-11_094959634447_rgbf000091-resize_4/002964_2014-06-08_17-46-11_094959634447_rgbf000091-resize_4-target.png,250,1.6909999999999998,8,8625,237,meters,jsons/v1_VE250_randls_46_rotated.json,1082652,1419704,34,Woman
124,186345,DepthScenes,duration_manipulation_targetAtFixation,jsons/v1_VE250_randls_46_rotated.json,http://54.235.29.9/FacialAge/BNav_EC2/DepthDuration/v2_depth_duration_MTurk/v2_DepthDuration_HTML.html#109,109,1366,625,1366,768,8-29-2022,16-51-44,125,depth_duration_stimuli/003081_2014-06-15_15-19-16_094959634447_rgbf000150-resize_1/003081_2014-06-15_15-19-16_094959634447_rgbf000150-resize_1-target.png,250,3.9125,8,67282,249,meters,jsons/v1_VE250_randls_46_rotated.json,1082652,1419704,34,Woman
125,186345,DepthScenes,duration_manipulation_targetAtFixation,jsons/v1_VE250_randls_46_rotated.json,http://54.235.29.9/FacialAge/BNav_EC2/DepthDuration/v2_depth_duration_MTurk/v2_DepthDuration_HTML.html#109,109,1366,625,1366,768,8-29-2022,16-51-44,126,depth_duration_stimuli/001417_2014-06-19_16-25-36_260595134347_rgbf000115-resize_5/001417_2014-06-19_16-25-36_260595134347_rgbf000115-resize_5-target.png,250,4.6255,7,7548,232,meters,jsons/v1_VE250_randls_46_rotated.json,1082652,1419704,34,Woman
126,186345,DepthScenes,duration_manipulation_targetAtFixation,jsons/v1_VE250_randls_46_rotated.json,http://54.235.29.9/FacialAge/BNav_EC2/DepthDuration/v2_depth_duration_MTurk/v2_DepthDuration_HTML.html#109,109,1366,625,1366,768,8-29-2022,16-51-44,127,depth_duration_stimuli/001032_2014-06-08_13-23-17_260595134347_rgbf000021-resize_3/001032_2014-06-08_13-23-17_260595134347_rgbf000021-resize_3-target.png,250,3.2725,7,3868,255,meters,jsons/v1_VE250_randls_46_rotated.json,1082652,1419704,34,Woman
127,186345,DepthScenes,duration_manipulation_targetAtFixation,jsons/v1_VE250_randls_46_rotated.json,http://54.235.29.9/FacialAge/BNav_EC2/DepthDuration/v2_depth_duration_MTurk/v2_DepthDuration_HTML.html#109,109,1366,625,1366,768,8-29-2022,16-51-44,128,depth_duration_stimuli/001059_2014-06-08_21-53-27_260595134347_rgbf000061-resize_4/001059_2014-06-08_21-53-27_260595134347_rgbf000061-resize_4-target.png,250,2.4185,7,3832,253,meters,jsons/v1_VE250_randls_46_rotated.json,1082652,1419704,34,Woman
128,186345,DepthScenes,duration_manipulation_targetAtFixation,jsons/v1_VE250_randls_46_rotated.json,http://54.235.29.9/FacialAge/BNav_EC2/DepthDuration/v2_depth_duration_MTurk/v2_DepthDuration_HTML.html#109,109,1366,625,1366,768,8-29-2022,16-51-44,129,depth_duration_stimuli/000502_2014-06-08_23-02-32_260595134347_rgbf000063-resize_4/000502_2014-06-08_23-02-32_260595134347_rgbf000063-resize_4-target.png,250,2.431,8,4758,261,meters,jsons/v1_VE250_randls_46_rotated.json,1082652,1419704,34,Woman
129,186345,DepthScenes,duration_manipulation_targetAtFixation,jsons/v1_VE250_randls_46_rotated.json,http://54.235.29.9/FacialAge/BNav_EC2/DepthDuration/v2_depth_duration_MTurk/v2_DepthDuration_HTML.html#109,109,1366,625,1366,768,8-29-2022,16-51-44,130,depth_duration_stimuli/001199_2014-06-17_16-03-48_260595134347_rgbf000077-resize_0/001199_2014-06-17_16-03-48_260595134347_rgbf000077-resize_0-target.png,250,3.4375,8,3549,250,meters,jsons/v1_VE250_randls_46_rotated.json,1082652,1419704,34,Woman
130,186345,DepthScenes,duration_manipulation_targetAtFixation,jsons/v1_VE250_randls_46_rotated.json,http://54.235.29.9/FacialAge/BNav_EC2/DepthDuration/v2_depth_duration_MTurk/v2_DepthDuration_HTML.html#109,109,1366,625,1366,768,8-29-2022,16-51-44,131,depth_duration_stimuli/000103_2014-05-14_22-01-17_260595134347_rgbf000152-resize_5/000103_2014-05-14_22-01-17_260595134347_rgbf000152-resize_5-target.png,250,1.993,8,4865,250,meters,jsons/v1_VE250_randls_46_rotated.json,1082652,1419704,34,Woman
131,186345,DepthScenes,duration_manipulation_targetAtFixation,jsons/v1_VE250_randls_46_rotated.json,http://54.235.29.9/FacialAge/BNav_EC2/DepthDuration/v2_depth_duration_MTurk/v2_DepthDuration_HTML.html#109,109,1366,625,1366,768,8-29-2022,16-51-44,132,depth_duration_stimuli/001555_2014-06-20_17-12-10_260595134347_rgbf000065-resize_4/001555_2014-06-20_17-12-10_260595134347_rgbf000065-resize_4-target.png,250,1.633,8,3899,257,meters,jsons/v1_VE250_randls_46_rotated.json,1082652,1419704,34,Woman
132,186345,DepthScenes,duration_manipulation_targetAtFixation,jsons/v1_VE250_randls_46_rotated.json,http://54.235.29.9/FacialAge/BNav_EC2/DepthDuration/v2_depth_duration_MTurk/v2_DepthDuration_HTML.html#109,109,1366,625,1366,768,8-29-2022,16-51-44,133,depth_duration_stimuli/002949_2014-06-26_15-57-42_094959634447_rgbf000079-resize_1/002949_2014-06-26_15-57-42_094959634447_rgbf000079-resize_1-target.png,250,1.8915,7,5779,253,meters,jsons/v1_VE250_randls_46_rotated.json,1082652,1419704,34,Woman
133,186345,DepthScenes,duration_manipulation_targetAtFixation,jsons/v1_VE250_randls_46_rotated.json,http://54.235.29.9/FacialAge/BNav_EC2/DepthDuration/v2_depth_duration_MTurk/v2_DepthDuration_HTML.html#109,109,1366,625,1366,768,8-29-2022,16-51-44,134,depth_duration_stimuli/000522_2014-06-08_13-35-06_260595134347_rgbf000244-resize_1/000522_2014-06-08_13-35-06_260595134347_rgbf000244-resize_1-target.png,250,2.3715,7,3799,247,meters,jsons/v1_VE250_randls_46_rotated.json,1082652,1419704,34,Woman
134,186345,DepthScenes,duration_manipulation_targetAtFixation,jsons/v1_VE250_randls_46_rotated.json,http://54.235.29.9/FacialAge/BNav_EC2/DepthDuration/v2_depth_duration_MTurk/v2_DepthDuration_HTML.html#109,109,1366,625,1366,768,8-29-2022,16-51-44,135,depth_duration_stimuli/000375_2014-06-08_11-17-29_260595134347_rgbf000133-resize_2/000375_2014-06-08_11-17-29_260595134347_rgbf000133-resize-original.jpg,250,4.718,8,4040,236,meters,jsons/v1_VE250_randls_46_rotated.json,1082652,1419704,34,Woman
135,186345,DepthScenes,duration_manipulation_targetAtFixation,jsons/v1_VE250_randls_46_rotated.json,http://54.235.29.9/FacialAge/BNav_EC2/DepthDuration/v2_depth_duration_MTurk/v2_DepthDuration_HTML.html#109,109,1366,625,1366,768,8-29-2022,16-51-44,136,depth_duration_stimuli/000780_2014-06-08_22-28-29_260595134347_rgbf000126-resize_1/000780_2014-06-08_22-28-29_260595134347_rgbf000126-resize_1-target.png,250,3.3825,8,3905,253,meters,jsons/v1_VE250_randls_46_rotated.json,1082652,1419704,34,Woman
136,186345,DepthScenes,duration_manipulation_targetAtFixation,jsons/v1_VE250_randls_46_rotated.json,http://54.235.29.9/FacialAge/BNav_EC2/DepthDuration/v2_depth_duration_MTurk/v2_DepthDuration_HTML.html#109,109,1366,625,1366,768,8-29-2022,16-51-44,137,depth_duration_stimuli/002445_2014-06-28_20-32-16_260595134347_rgbf000029-resize_4/002445_2014-06-28_20-32-16_260595134347_rgbf000029-resize_4-target.png,250,2.5315,8,3658,248,meters,jsons/v1_VE250_randls_46_rotated.json,1082652,1419704,34,Woman
137,186345,DepthScenes,duration_manipulation_targetAtFixation,jsons/v1_VE250_randls_46_rotated.json,http://54.235.29.9/FacialAge/BNav_EC2/DepthDuration/v2_depth_duration_MTurk/v2_DepthDuration_HTML.html#109,109,1366,625,1366,768,8-29-2022,16-51-44,138,depth_duration_stimuli/001815_2014-06-26_20-52-55_260595134347_rgbf000020-resize_0/001815_2014-06-26_20-52-55_260595134347_rgbf000020-resize_0-target.png,250,3.3865,8,4372,256,meters,jsons/v1_VE250_randls_46_rotated.json,1082652,1419704,34,Woman
138,186345,DepthScenes,duration_manipulation_targetAtFixation,jsons/v1_VE250_randls_46_rotated.json,http://54.235.29.9/FacialAge/BNav_EC2/DepthDuration/v2_depth_duration_MTurk/v2_DepthDuration_HTML.html#109,109,1366,625,1366,768,8-29-2022,16-51-44,139,depth_duration_stimuli/001808_2014-06-26_20-50-58_260595134347_rgbf000029-resize_1/001808_2014-06-26_20-50-58_260595134347_rgbf000029-resize_1-target.png,250,4.249,8,3418,249,meters,jsons/v1_VE250_randls_46_rotated.json,1082652,1419704,34,Woman
139,186345,DepthScenes,duration_manipulation_targetAtFixation,jsons/v1_VE250_randls_46_rotated.json,http://54.235.29.9/FacialAge/BNav_EC2/DepthDuration/v2_depth_duration_MTurk/v2_DepthDuration_HTML.html#109,109,1366,625,1366,768,8-29-2022,16-51-44,140,depth_duration_stimuli/000742_2014-06-08_18-48-09_260595134347_rgbf000164-resize_4/000742_2014-06-08_18-48-09_260595134347_rgbf000164-resize_4-target.png,250,4.632,9,5044,251,meters,jsons/v1_VE250_randls_46_rotated.json,1082652,1419704,34,Woman
140,186345,DepthScenes,duration_manipulation_targetAtFixation,jsons/v1_VE250_randls_46_rotated.json,http://54.235.29.9/FacialAge/BNav_EC2/DepthDuration/v2_depth_duration_MTurk/v2_DepthDuration_HTML.html#109,109,1366,625,1366,768,8-29-2022,16-51-44,141,depth_duration_stimuli/001066_2014-06-08_22-03-20_260595134347_rgbf000066-resize_4/001066_2014-06-08_22-03-20_260595134347_rgbf000066-resize_4-target.png,250,4.2330000000000005,9,3016,259,meters,jsons/v1_VE250_randls_46_rotated.json,1082652,1419704,34,Woman
141,186345,DepthScenes,duration_manipulation_targetAtFixation,jsons/v1_VE250_randls_46_rotated.json,http://54.235.29.9/FacialAge/BNav_EC2/DepthDuration/v2_depth_duration_MTurk/v2_DepthDuration_HTML.html#109,109,1366,625,1366,768,8-29-2022,16-51-44,142,depth_duration_stimuli/002340_2014-06-28_20-05-46_260595134347_rgbf000113-resize_0/002340_2014-06-28_20-05-46_260595134347_rgbf000113-resize_0-target.png,250,2.4735,9,3341,255,meters,jsons/v1_VE250_randls_46_rotated.json,1082652,1419704,34,Woman
142,186345,DepthScenes,duration_manipulation_targetAtFixation,jsons/v1_VE250_randls_46_rotated.json,http://54.235.29.9/FacialAge/BNav_EC2/DepthDuration/v2_depth_duration_MTurk/v2_DepthDuration_HTML.html#109,109,1366,625,1366,768,8-29-2022,16-51-44,143,depth_duration_stimuli/001016_2014-06-09_16-16-10_260595134347_rgbf000112-resize_5/001016_2014-06-09_16-16-10_260595134347_rgbf000112-resize_5-target.png,250,1.6565,9,3682,257,meters,jsons/v1_VE250_randls_46_rotated.json,1082652,1419704,34,Woman
143,186345,DepthScenes,duration_manipulation_targetAtFixation,jsons/v1_VE250_randls_46_rotated.json,http://54.235.29.9/FacialAge/BNav_EC2/DepthDuration/v2_depth_duration_MTurk/v2_DepthDuration_HTML.html#109,109,1366,625,1366,768,8-29-2022,16-51-44,144,depth_duration_stimuli/002103_2014-06-25_20-00-40_260595134347_rgbf000049-resize_0/002103_2014-06-25_20-00-40_260595134347_rgbf000049-resize_0-target.png,250,4.105,5,4134,253,meters,jsons/v1_VE250_randls_46_rotated.json,1082652,1419704,34,Woman
144,186345,DepthScenes,duration_manipulation_targetAtFixation,jsons/v1_VE250_randls_46_rotated.json,http://54.235.29.9/FacialAge/BNav_EC2/DepthDuration/v2_depth_duration_MTurk/v2_DepthDuration_HTML.html#109,109,1366,625,1366,768,8-29-2022,16-51-44,145,depth_duration_stimuli/002039_2014-06-24_20-22-38_260595134347_rgbf000084-resize_1/002039_2014-06-24_20-22-38_260595134347_rgbf000084-resize_1-target.png,250,4.408,5,7640,243,meters,jsons/v1_VE250_randls_46_rotated.json,1082652,1419704,34,Woman
145,186345,DepthScenes,duration_manipulation_targetAtFixation,jsons/v1_VE250_randls_46_rotated.json,http://54.235.29.9/FacialAge/BNav_EC2/DepthDuration/v2_depth_duration_MTurk/v2_DepthDuration_HTML.html#109,109,1366,625,1366,768,8-29-2022,16-51-44,146,depth_duration_stimuli/002199_2014-06-28_18-33-56_260595134347_rgbf000074-resize_0/002199_2014-06-28_18-33-56_260595134347_rgbf000074-resize_0-target.png,250,1.996,5,5185,253,meters,jsons/v1_VE250_randls_46_rotated.json,1082652,1419704,34,Woman
146,186345,DepthScenes,duration_manipulation_targetAtFixation,jsons/v1_VE250_randls_46_rotated.json,http://54.235.29.9/FacialAge/BNav_EC2/DepthDuration/v2_depth_duration_MTurk/v2_DepthDuration_HTML.html#109,109,1366,625,1366,768,8-29-2022,16-51-44,147,depth_duration_stimuli/001056_2014-06-08_18-46-44_260595134347_rgbf000068-resize_0/001056_2014-06-08_18-46-44_260595134347_rgbf000068-resize_0-target.png,250,2.6625,5,3358,256,meters,jsons/v1_VE250_randls_46_rotated.json,1082652,1419704,34,Woman
147,186345,DepthScenes,duration_manipulation_targetAtFixation,jsons/v1_VE250_randls_46_rotated.json,http://54.235.29.9/FacialAge/BNav_EC2/DepthDuration/v2_depth_duration_MTurk/v2_DepthDuration_HTML.html#109,109,1366,625,1366,768,8-29-2022,16-51-44,148,depth_duration_stimuli/000635_2014-06-08_16-38-42_260595134347_rgbf000106-resize_1/000635_2014-06-08_16-38-42_260595134347_rgbf000106-resize_1-target.png,250,2.074,6,6337,247,meters,jsons/v1_VE250_randls_46_rotated.json,1082652,1419704,34,Woman
148,186345,DepthScenes,duration_manipulation_targetAtFixation,jsons/v1_VE250_randls_46_rotated.json,http://54.235.29.9/FacialAge/BNav_EC2/DepthDuration/v2_depth_duration_MTurk/v2_DepthDuration_HTML.html#109,109,1366,625,1366,768,8-29-2022,16-51-44,149,depth_duration_stimuli/002279_2014-06-28_18-55-32_260595134347_rgbf000040-resize_5/002279_2014-06-28_18-55-32_260595134347_rgbf000040-resize_5-target.png,250,1.5043333333333,6,4769,237,meters,jsons/v1_VE250_randls_46_rotated.json,1082652,1419704,34,Woman
149,186345,DepthScenes,duration_manipulation_targetAtFixation,jsons/v1_VE250_randls_46_rotated.json,http://54.235.29.9/FacialAge/BNav_EC2/DepthDuration/v2_depth_duration_MTurk/v2_DepthDuration_HTML.html#109,109,1366,625,1366,768,8-29-2022,16-51-44,150,depth_duration_stimuli/003587_2014-05-23_16-48-02_094959634447_rgbf002384-resize_2/003587_2014-05-23_16-48-02_094959634447_rgbf002384-resize_2-target.png,250,1.357,4,4864,240,meters,jsons/v1_VE250_randls_46_rotated.json,1082652,1419704,34,Woman
150,186345,DepthScenes,duration_manipulation_targetAtFixation,jsons/v1_VE250_randls_46_rotated.json,http://54.235.29.9/FacialAge/BNav_EC2/DepthDuration/v2_depth_duration_MTurk/v2_DepthDuration_HTML.html#109,109,1366,625,1366,768,8-29-2022,16-51-44,151,depth_duration_stimuli/001167_2014-06-17_15-38-07_260595134347_rgbf000108-resize_0/001167_2014-06-17_15-38-07_260595134347_rgbf000108-resize_0-target.png,250,1.8505,4,3084,234,meters,jsons/v1_VE250_randls_46_rotated.json,1082652,1419704,34,Woman
151,186345,DepthScenes,duration_manipulation_targetAtFixation,jsons/v1_VE250_randls_46_rotated.json,http://54.235.29.9/FacialAge/BNav_EC2/DepthDuration/v2_depth_duration_MTurk/v2_DepthDuration_HTML.html#109,109,1366,625,1366,768,8-29-2022,16-51-44,152,depth_duration_stimuli/000569_2014-06-09_22-51-47_260595134347_rgbf000141-resize_3/000569_2014-06-09_22-51-47_260595134347_rgbf000141-resize-original.jpg,250,4.512,5,4515,248,meters,jsons/v1_VE250_randls_46_rotated.json,1082652,1419704,34,Woman
152,186345,DepthScenes,duration_manipulation_targetAtFixation,jsons/v1_VE250_randls_46_rotated.json,http://54.235.29.9/FacialAge/BNav_EC2/DepthDuration/v2_depth_duration_MTurk/v2_DepthDuration_HTML.html#109,109,1366,625,1366,768,8-29-2022,16-51-44,153,depth_duration_stimuli/000137_2014-05-20_17-04-49_260595134347_rgbf000120-resize_1/000137_2014-05-20_17-04-49_260595134347_rgbf000120-resize_1-target.png,250,3.786,5,4249,253,meters,jsons/v1_VE250_randls_46_rotated.json,1082652,1419704,34,Woman
153,186345,DepthScenes,duration_manipulation_targetAtFixation,jsons/v1_VE250_randls_46_rotated.json,http://54.235.29.9/FacialAge/BNav_EC2/DepthDuration/v2_depth_duration_MTurk/v2_DepthDuration_HTML.html#109,109,1366,625,1366,768,8-29-2022,16-51-44,154,depth_duration_stimuli/000736_2014-06-08_18-24-15_260595134347_rgbf000206-resize_3/000736_2014-06-08_18-24-15_260595134347_rgbf000206-resize_3-target.png,250,3.515,5,14311,251,meters,jsons/v1_VE250_randls_46_rotated.json,1082652,1419704,34,Woman
154,186345,DepthScenes,duration_manipulation_targetAtFixation,jsons/v1_VE250_randls_46_rotated.json,http://54.235.29.9/FacialAge/BNav_EC2/DepthDuration/v2_depth_duration_MTurk/v2_DepthDuration_HTML.html#109,109,1366,625,1366,768,8-29-2022,16-51-44,155,depth_duration_stimuli/002758_2014-06-22_19-11-20_094959634447_rgbf000128-resize_1/002758_2014-06-22_19-11-20_094959634447_rgbf000128-resize_1-target.png,250,2.555,6,5018,252,meters,jsons/v1_VE250_randls_46_rotated.json,1082652,1419704,34,Woman
155,186345,DepthScenes,duration_manipulation_targetAtFixation,jsons/v1_VE250_randls_46_rotated.json,http://54.235.29.9/FacialAge/BNav_EC2/DepthDuration/v2_depth_duration_MTurk/v2_DepthDuration_HTML.html#109,109,1366,625,1366,768,8-29-2022,16-51-44,156,depth_duration_stimuli/002630_2014-06-24_14-47-50_094959634447_rgbf000055-resize_1/002630_2014-06-24_14-47-50_094959634447_rgbf000055-resize_1-target.png,250,3.0095,6,3527,248,meters,jsons/v1_VE250_randls_46_rotated.json,1082652,1419704,34,Woman
156,186345,DepthScenes,duration_manipulation_targetAtFixation,jsons/v1_VE250_randls_46_rotated.json,http://54.235.29.9/FacialAge/BNav_EC2/DepthDuration/v2_depth_duration_MTurk/v2_DepthDuration_HTML.html#109,109,1366,625,1366,768,8-29-2022,16-51-44,157,depth_duration_stimuli/003079_2014-06-15_15-18-20_094959634447_rgbf000152-resize_8/003079_2014-06-15_15-18-20_094959634447_rgbf000152-resize_8-target.png,250,2.8775,7,4765,252,meters,jsons/v1_VE250_randls_46_rotated.json,1082652,1419704,34,Woman
157,186345,DepthScenes,duration_manipulation_targetAtFixation,jsons/v1_VE250_randls_46_rotated.json,http://54.235.29.9/FacialAge/BNav_EC2/DepthDuration/v2_depth_duration_MTurk/v2_DepthDuration_HTML.html#109,109,1366,625,1366,768,8-29-2022,16-51-44,158,depth_duration_stimuli/000506_2014-06-08_23-21-00_260595134347_rgbf000070-resize_7/000506_2014-06-08_23-21-00_260595134347_rgbf000070-resize_7-target.png,250,4.0585,7,3185,253,meters,jsons/v1_VE250_randls_46_rotated.json,1082652,1419704,34,Woman
158,186345,DepthScenes,duration_manipulation_targetAtFixation,jsons/v1_VE250_randls_46_rotated.json,http://54.235.29.9/FacialAge/BNav_EC2/DepthDuration/v2_depth_duration_MTurk/v2_DepthDuration_HTML.html#109,109,1366,625,1366,768,8-29-2022,16-51-44,159,depth_duration_stimuli/003495_2014-05-21_16-01-51_094959634447_rgbf000100-resize_3/003495_2014-05-21_16-01-51_094959634447_rgbf000100-resize_3-target.png,250,1.6255,8,5268,253,meters,jsons/v1_VE250_randls_46_rotated.json,1082652,1419704,34,Woman
159,186345,DepthScenes,duration_manipulation_targetAtFixation,jsons/v1_VE250_randls_46_rotated.json,http://54.235.29.9/FacialAge/BNav_EC2/DepthDuration/v2_depth_duration_MTurk/v2_DepthDuration_HTML.html#109,109,1366,625,1366,768,8-29-2022,16-51-44,160,depth_duration_stimuli/001244_2014-06-17_16-47-45_260595134347_rgbf000030-resize_4/001244_2014-06-17_16-47-45_260595134347_rgbf000030-resize_4-target.png,250,2.0425,8,2813,237,meters,jsons/v1_VE250_randls_46_rotated.json,1082652,1419704,34,Woman
160,186345,DepthScenes,duration_manipulation_targetAtFixation,jsons/v1_VE250_randls_46_rotated.json,http://54.235.29.9/FacialAge/BNav_EC2/DepthDuration/v2_depth_duration_MTurk/v2_DepthDuration_HTML.html#109,109,1366,625,1366,768,8-29-2022,16-51-44,161,depth_duration_stimuli/003338_2014-05-20_11-01-23_094959634447_rgbf000051-resize_6/003338_2014-05-20_11-01-23_094959634447_rgbf000051-resize_6-target.png,250,1.693,7,5769,250,meters,jsons/v1_VE250_randls_46_rotated.json,1082652,1419704,34,Woman
161,186345,DepthScenes,duration_manipulation_targetAtFixation,jsons/v1_VE250_randls_46_rotated.json,http://54.235.29.9/FacialAge/BNav_EC2/DepthDuration/v2_depth_duration_MTurk/v2_DepthDuration_HTML.html#109,109,1366,625,1366,768,8-29-2022,16-51-44,162,depth_duration_stimuli/002509_2014-06-24_13-19-22_094959634447_rgbf000077-resize_0/002509_2014-06-24_13-19-22_094959634447_rgbf000077-resize_0-target.png,250,1.3065,7,4308,251,meters,jsons/v1_VE250_randls_46_rotated.json,1082652,1419704,34,Woman
162,186345,DepthScenes,duration_manipulation_targetAtFixation,jsons/v1_VE250_randls_46_rotated.json,http://54.235.29.9/FacialAge/BNav_EC2/DepthDuration/v2_depth_duration_MTurk/v2_DepthDuration_HTML.html#109,109,1366,625,1366,768,8-29-2022,16-51-44,163,depth_duration_stimuli/001571_2014-06-20_17-21-32_260595134347_rgbf000089-resize_1/001571_2014-06-20_17-21-32_260595134347_rgbf000089-resize_1-target.png,250,1.86,6,5839,238,meters,jsons/v1_VE250_randls_46_rotated.json,1082652,1419704,34,Woman
163,186345,DepthScenes,duration_manipulation_targetAtFixation,jsons/v1_VE250_randls_46_rotated.json,http://54.235.29.9/FacialAge/BNav_EC2/DepthDuration/v2_depth_duration_MTurk/v2_DepthDuration_HTML.html#109,109,1366,625,1366,768,8-29-2022,16-51-44,164,depth_duration_stimuli/002272_2014-06-28_18-53-56_260595134347_rgbf000067-resize_2/002272_2014-06-28_18-53-56_260595134347_rgbf000067-resize_2-target.png,250,1.138,6,3418,248,meters,jsons/v1_VE250_randls_46_rotated.json,1082652,1419704,34,Woman
