,subjID,experimentName,versionName,sequenceName,url,selected_row,windowWidth,windowHeight,screenWidth,screenHeight,startDate,startTime,trial,stimulus,duration,actual_depth,depth_estimate,trial_RT,log_sceneDuration,unitSelection,seq_filepath,experimentTime,totalTime,age,gender
0,189617,DepthScenes,duration_manipulation_targetAtFixation,jsons/VE125_randls_21.json,http://54.235.29.9/FacialAge/BNav_EC2/DepthDuration/v2_depth_duration_MTurk/v2_DepthDuration_HTML.html#407,407,1366,615,1366,768,8-29-2022,12-29-5,1,depth_duration_stimuli/000009_2014-05-26_14-32-05_260595134347_rgbf000034-resize_3/000009_2014-05-26_14-32-05_260595134347_rgbf000034-resize_3-target.png,125,3.8715,8,4074,115,meters,jsons/VE125_randls_21.json,602739,737525,35,Woman
1,189617,DepthScenes,duration_manipulation_targetAtFixation,jsons/VE125_randls_21.json,http://54.235.29.9/FacialAge/BNav_EC2/DepthDuration/v2_depth_duration_MTurk/v2_DepthDuration_HTML.html#407,407,1366,615,1366,768,8-29-2022,12-29-5,2,depth_duration_stimuli/001828_2014-06-26_21-40-03_260595134347_rgbf000024-resize_0/001828_2014-06-26_21-40-03_260595134347_rgbf000024-resize_0-target.png,125,4.8260000000000005,1,4787,115,meters,jsons/VE125_randls_21.json,602739,737525,35,Woman
2,189617,DepthScenes,duration_manipulation_targetAtFixation,jsons/VE125_randls_21.json,http://54.235.29.9/FacialAge/BNav_EC2/DepthDuration/v2_depth_duration_MTurk/v2_DepthDuration_HTML.html#407,407,1366,615,1366,768,8-29-2022,12-29-5,3,depth_duration_stimuli/001056_2014-06-08_18-46-44_260595134347_rgbf000068-resize_0/001056_2014-06-08_18-46-44_260595134347_rgbf000068-resize_0-target.png,125,2.6625,7,3460,116,meters,jsons/VE125_randls_21.json,602739,737525,35,Woman
3,189617,DepthScenes,duration_manipulation_targetAtFixation,jsons/VE125_randls_21.json,http://54.235.29.9/FacialAge/BNav_EC2/DepthDuration/v2_depth_duration_MTurk/v2_DepthDuration_HTML.html#407,407,1366,615,1366,768,8-29-2022,12-29-5,4,depth_duration_stimuli/002199_2014-06-28_18-33-56_260595134347_rgbf000074-resize_0/002199_2014-06-28_18-33-56_260595134347_rgbf000074-resize_0-target.png,125,1.996,7,4048,142,meters,jsons/VE125_randls_21.json,602739,737525,35,Woman
4,189617,DepthScenes,duration_manipulation_targetAtFixation,jsons/VE125_randls_21.json,http://54.235.29.9/FacialAge/BNav_EC2/DepthDuration/v2_depth_duration_MTurk/v2_DepthDuration_HTML.html#407,407,1366,615,1366,768,8-29-2022,12-29-5,5,depth_duration_stimuli/000469_2014-06-09_19-42-10_260595134347_rgbf000081-resize_1/000469_2014-06-09_19-42-10_260595134347_rgbf000081-resize_1-target.png,125,1.652,6,3500,117,meters,jsons/VE125_randls_21.json,602739,737525,35,Woman
5,189617,DepthScenes,duration_manipulation_targetAtFixation,jsons/VE125_randls_21.json,http://54.235.29.9/FacialAge/BNav_EC2/DepthDuration/v2_depth_duration_MTurk/v2_DepthDuration_HTML.html#407,407,1366,615,1366,768,8-29-2022,12-29-5,6,depth_duration_stimuli/000483_2014-06-09_20-41-45_260595134347_rgbf000116-resize_4/000483_2014-06-09_20-41-45_260595134347_rgbf000116-resize_4-target.png,125,1.337,7,5128,127,meters,jsons/VE125_randls_21.json,602739,737525,35,Woman
6,189617,DepthScenes,duration_manipulation_targetAtFixation,jsons/VE125_randls_21.json,http://54.235.29.9/FacialAge/BNav_EC2/DepthDuration/v2_depth_duration_MTurk/v2_DepthDuration_HTML.html#407,407,1366,615,1366,768,8-29-2022,12-29-5,7,depth_duration_stimuli/001175_2014-06-17_15-45-55_260595134347_rgbf000129-resize_4/001175_2014-06-17_15-45-55_260595134347_rgbf000129-resize_4-target.png,125,4.255,7,3752,130,meters,jsons/VE125_randls_21.json,602739,737525,35,Woman
7,189617,DepthScenes,duration_manipulation_targetAtFixation,jsons/VE125_randls_21.json,http://54.235.29.9/FacialAge/BNav_EC2/DepthDuration/v2_depth_duration_MTurk/v2_DepthDuration_HTML.html#407,407,1366,615,1366,768,8-29-2022,12-29-5,8,depth_duration_stimuli/003490_2014-05-21_15-50-11_094959634447_rgbf000101-resize_3/003490_2014-05-21_15-50-11_094959634447_rgbf000101-resize_3-target.png,125,3.6445,5,7186,123,meters,jsons/VE125_randls_21.json,602739,737525,35,Woman
8,189617,DepthScenes,duration_manipulation_targetAtFixation,jsons/VE125_randls_21.json,http://54.235.29.9/FacialAge/BNav_EC2/DepthDuration/v2_depth_duration_MTurk/v2_DepthDuration_HTML.html#407,407,1366,615,1366,768,8-29-2022,12-29-5,9,depth_duration_stimuli/002509_2014-06-24_13-19-22_094959634447_rgbf000077-resize_0/002509_2014-06-24_13-19-22_094959634447_rgbf000077-resize_0-target.png,125,1.3065,6,3534,130,meters,jsons/VE125_randls_21.json,602739,737525,35,Woman
9,189617,DepthScenes,duration_manipulation_targetAtFixation,jsons/VE125_randls_21.json,http://54.235.29.9/FacialAge/BNav_EC2/DepthDuration/v2_depth_duration_MTurk/v2_DepthDuration_HTML.html#407,407,1366,615,1366,768,8-29-2022,12-29-5,10,depth_duration_stimuli/003338_2014-05-20_11-01-23_094959634447_rgbf000051-resize_6/003338_2014-05-20_11-01-23_094959634447_rgbf000051-resize_6-target.png,125,1.693,5,6448,126,meters,jsons/VE125_randls_21.json,602739,737525,35,Woman
10,189617,DepthScenes,duration_manipulation_targetAtFixation,jsons/VE125_randls_21.json,http://54.235.29.9/FacialAge/BNav_EC2/DepthDuration/v2_depth_duration_MTurk/v2_DepthDuration_HTML.html#407,407,1366,615,1366,768,8-29-2022,12-29-5,11,depth_duration_stimuli/000493_2014-06-09_21-01-18_260595134347_rgbf000196-resize_3/000493_2014-06-09_21-01-18_260595134347_rgbf000196-resize_3-target.png,125,3.44,3,4460,118,meters,jsons/VE125_randls_21.json,602739,737525,35,Woman
11,189617,DepthScenes,duration_manipulation_targetAtFixation,jsons/VE125_randls_21.json,http://54.235.29.9/FacialAge/BNav_EC2/DepthDuration/v2_depth_duration_MTurk/v2_DepthDuration_HTML.html#407,407,1366,615,1366,768,8-29-2022,12-29-5,12,depth_duration_stimuli/000191_2014-05-12_17-07-38_260595134347_rgbf000199-resize_0/000191_2014-05-12_17-07-38_260595134347_rgbf000199-resize_0-target.png,125,3.7995,0,3919,115,meters,jsons/VE125_randls_21.json,602739,737525,35,Woman
12,189617,DepthScenes,duration_manipulation_targetAtFixation,jsons/VE125_randls_21.json,http://54.235.29.9/FacialAge/BNav_EC2/DepthDuration/v2_depth_duration_MTurk/v2_DepthDuration_HTML.html#407,407,1366,615,1366,768,8-29-2022,12-29-5,13,depth_duration_stimuli/000569_2014-06-09_22-51-47_260595134347_rgbf000141-resize_3/000569_2014-06-09_22-51-47_260595134347_rgbf000141-resize-original.jpg,125,4.512,7,3836,146,meters,jsons/VE125_randls_21.json,602739,737525,35,Woman
13,189617,DepthScenes,duration_manipulation_targetAtFixation,jsons/VE125_randls_21.json,http://54.235.29.9/FacialAge/BNav_EC2/DepthDuration/v2_depth_duration_MTurk/v2_DepthDuration_HTML.html#407,407,1366,615,1366,768,8-29-2022,12-29-5,14,depth_duration_stimuli/001555_2014-06-20_17-12-10_260595134347_rgbf000065-resize_4/001555_2014-06-20_17-12-10_260595134347_rgbf000065-resize_4-target.png,125,1.633,0,4072,96,meters,jsons/VE125_randls_21.json,602739,737525,35,Woman
14,189617,DepthScenes,duration_manipulation_targetAtFixation,jsons/VE125_randls_21.json,http://54.235.29.9/FacialAge/BNav_EC2/DepthDuration/v2_depth_duration_MTurk/v2_DepthDuration_HTML.html#407,407,1366,615,1366,768,8-29-2022,12-29-5,15,depth_duration_stimuli/000103_2014-05-14_22-01-17_260595134347_rgbf000152-resize_5/000103_2014-05-14_22-01-17_260595134347_rgbf000152-resize_5-target.png,125,1.993,7,5136,128,meters,jsons/VE125_randls_21.json,602739,737525,35,Woman
15,189617,DepthScenes,duration_manipulation_targetAtFixation,jsons/VE125_randls_21.json,http://54.235.29.9/FacialAge/BNav_EC2/DepthDuration/v2_depth_duration_MTurk/v2_DepthDuration_HTML.html#407,407,1366,615,1366,768,8-29-2022,12-29-5,16,depth_duration_stimuli/000642_2014-06-08_16-59-25_260595134347_rgbf000098-resize_2/000642_2014-06-08_16-59-25_260595134347_rgbf000098-resize_2-target.png,125,2.8815,6,4076,121,meters,jsons/VE125_randls_21.json,602739,737525,35,Woman
16,189617,DepthScenes,duration_manipulation_targetAtFixation,jsons/VE125_randls_21.json,http://54.235.29.9/FacialAge/BNav_EC2/DepthDuration/v2_depth_duration_MTurk/v2_DepthDuration_HTML.html#407,407,1366,615,1366,768,8-29-2022,12-29-5,17,depth_duration_stimuli/002425_2014-06-28_20-27-29_260595134347_rgbf000031-resize_8/002425_2014-06-28_20-27-29_260595134347_rgbf000031-resize_8-target.png,125,3.8960000000000004,8,5652,135,meters,jsons/VE125_randls_21.json,602739,737525,35,Woman
17,189617,DepthScenes,duration_manipulation_targetAtFixation,jsons/VE125_randls_21.json,http://54.235.29.9/FacialAge/BNav_EC2/DepthDuration/v2_depth_duration_MTurk/v2_DepthDuration_HTML.html#407,407,1366,615,1366,768,8-29-2022,12-29-5,18,depth_duration_stimuli/001449_2014-06-19_17-01-27_260595134347_rgbf000116-resize_2/001449_2014-06-19_17-01-27_260595134347_rgbf000116-resize_2-target.png,125,3.452,0,3814,137,meters,jsons/VE125_randls_21.json,602739,737525,35,Woman
18,189617,DepthScenes,duration_manipulation_targetAtFixation,jsons/VE125_randls_21.json,http://54.235.29.9/FacialAge/BNav_EC2/DepthDuration/v2_depth_duration_MTurk/v2_DepthDuration_HTML.html#407,407,1366,615,1366,768,8-29-2022,12-29-5,19,depth_duration_stimuli/001450_2014-06-19_17-02-03_260595134347_rgbf000203-resize_4/001450_2014-06-19_17-02-03_260595134347_rgbf000203-resize_4-target.png,125,4.0106666666667,0,4208,114,meters,jsons/VE125_randls_21.json,602739,737525,35,Woman
19,189617,DepthScenes,duration_manipulation_targetAtFixation,jsons/VE125_randls_21.json,http://54.235.29.9/FacialAge/BNav_EC2/DepthDuration/v2_depth_duration_MTurk/v2_DepthDuration_HTML.html#407,407,1366,615,1366,768,8-29-2022,12-29-5,20,depth_duration_stimuli/001055_2014-06-08_18-45-35_260595134347_rgbf000111-resize_4/001055_2014-06-08_18-45-35_260595134347_rgbf000111-resize_4-target.png,125,2.4290000000000003,6,3382,122,meters,jsons/VE125_randls_21.json,602739,737525,35,Woman
20,189617,DepthScenes,duration_manipulation_targetAtFixation,jsons/VE125_randls_21.json,http://54.235.29.9/FacialAge/BNav_EC2/DepthDuration/v2_depth_duration_MTurk/v2_DepthDuration_HTML.html#407,407,1366,615,1366,768,8-29-2022,12-29-5,21,depth_duration_stimuli/000549_2014-06-08_22-10-24_260595134347_rgbf000247-resize_3/000549_2014-06-08_22-10-24_260595134347_rgbf000247-resize_3-target.png,125,1.841,7,3602,125,meters,jsons/VE125_randls_21.json,602739,737525,35,Woman
21,189617,DepthScenes,duration_manipulation_targetAtFixation,jsons/VE125_randls_21.json,http://54.235.29.9/FacialAge/BNav_EC2/DepthDuration/v2_depth_duration_MTurk/v2_DepthDuration_HTML.html#407,407,1366,615,1366,768,8-29-2022,12-29-5,22,depth_duration_stimuli/001011_2014-06-08_23-18-54_260595134347_rgbf000044-resize_4/001011_2014-06-08_23-18-54_260595134347_rgbf000044-resize_4-target.png,125,2.4730000000000003,7,3581,130,meters,jsons/VE125_randls_21.json,602739,737525,35,Woman
22,189617,DepthScenes,duration_manipulation_targetAtFixation,jsons/VE125_randls_21.json,http://54.235.29.9/FacialAge/BNav_EC2/DepthDuration/v2_depth_duration_MTurk/v2_DepthDuration_HTML.html#407,407,1366,615,1366,768,8-29-2022,12-29-5,23,depth_duration_stimuli/002875_2014-06-01_15-19-00_094959634447_rgbf000151-resize_1/002875_2014-06-01_15-19-00_094959634447_rgbf000151-resize_1-target.png,125,1.9675,0,4698,166,meters,jsons/VE125_randls_21.json,602739,737525,35,Woman
23,189617,DepthScenes,duration_manipulation_targetAtFixation,jsons/VE125_randls_21.json,http://54.235.29.9/FacialAge/BNav_EC2/DepthDuration/v2_depth_duration_MTurk/v2_DepthDuration_HTML.html#407,407,1366,615,1366,768,8-29-2022,12-29-5,24,depth_duration_stimuli/000758_2014-06-08_22-05-08_260595134347_rgbf000085-resize_0/000758_2014-06-08_22-05-08_260595134347_rgbf000085-resize_0-target.png,125,3.3810000000000002,5,3795,131,meters,jsons/VE125_randls_21.json,602739,737525,35,Woman
24,189617,DepthScenes,duration_manipulation_targetAtFixation,jsons/VE125_randls_21.json,http://54.235.29.9/FacialAge/BNav_EC2/DepthDuration/v2_depth_duration_MTurk/v2_DepthDuration_HTML.html#407,407,1366,615,1366,768,8-29-2022,12-29-5,25,depth_duration_stimuli/000854_2014-06-09_19-43-13_260595134347_rgbf000066-resize_0/000854_2014-06-09_19-43-13_260595134347_rgbf000066-resize_0-target.png,125,3.068,5,4952,114,meters,jsons/VE125_randls_21.json,602739,737525,35,Woman
25,189617,DepthScenes,duration_manipulation_targetAtFixation,jsons/VE125_randls_21.json,http://54.235.29.9/FacialAge/BNav_EC2/DepthDuration/v2_depth_duration_MTurk/v2_DepthDuration_HTML.html#407,407,1366,615,1366,768,8-29-2022,12-29-5,26,depth_duration_stimuli/000470_2014-06-09_19-42-40_260595134347_rgbf000094-resize_1/000470_2014-06-09_19-42-40_260595134347_rgbf000094-resize_1-target.png,125,1.831,5,3710,131,meters,jsons/VE125_randls_21.json,602739,737525,35,Woman
26,189617,DepthScenes,duration_manipulation_targetAtFixation,jsons/VE125_randls_21.json,http://54.235.29.9/FacialAge/BNav_EC2/DepthDuration/v2_depth_duration_MTurk/v2_DepthDuration_HTML.html#407,407,1366,615,1366,768,8-29-2022,12-29-5,27,depth_duration_stimuli/000109_2014-05-14_23-41-52_260595134347_rgbf000035-resize_9/000109_2014-05-14_23-41-52_260595134347_rgbf000035-resize_9-target.png,125,1.3545,4,6077,115,meters,jsons/VE125_randls_21.json,602739,737525,35,Woman
27,189617,DepthScenes,duration_manipulation_targetAtFixation,jsons/VE125_randls_21.json,http://54.235.29.9/FacialAge/BNav_EC2/DepthDuration/v2_depth_duration_MTurk/v2_DepthDuration_HTML.html#407,407,1366,615,1366,768,8-29-2022,12-29-5,28,depth_duration_stimuli/001244_2014-06-17_16-47-45_260595134347_rgbf000030-resize_4/001244_2014-06-17_16-47-45_260595134347_rgbf000030-resize_4-target.png,125,2.0425,5,3084,130,meters,jsons/VE125_randls_21.json,602739,737525,35,Woman
28,189617,DepthScenes,duration_manipulation_targetAtFixation,jsons/VE125_randls_21.json,http://54.235.29.9/FacialAge/BNav_EC2/DepthDuration/v2_depth_duration_MTurk/v2_DepthDuration_HTML.html#407,407,1366,615,1366,768,8-29-2022,12-29-5,29,depth_duration_stimuli/003495_2014-05-21_16-01-51_094959634447_rgbf000100-resize_3/003495_2014-05-21_16-01-51_094959634447_rgbf000100-resize_3-target.png,125,1.6255,6,2464,115,meters,jsons/VE125_randls_21.json,602739,737525,35,Woman
29,189617,DepthScenes,duration_manipulation_targetAtFixation,jsons/VE125_randls_21.json,http://54.235.29.9/FacialAge/BNav_EC2/DepthDuration/v2_depth_duration_MTurk/v2_DepthDuration_HTML.html#407,407,1366,615,1366,768,8-29-2022,12-29-5,30,depth_duration_stimuli/000375_2014-06-08_11-17-29_260595134347_rgbf000133-resize_2/000375_2014-06-08_11-17-29_260595134347_rgbf000133-resize-original.jpg,125,4.718,5,2311,121,meters,jsons/VE125_randls_21.json,602739,737525,35,Woman
30,189617,DepthScenes,duration_manipulation_targetAtFixation,jsons/VE125_randls_21.json,http://54.235.29.9/FacialAge/BNav_EC2/DepthDuration/v2_depth_duration_MTurk/v2_DepthDuration_HTML.html#407,407,1366,615,1366,768,8-29-2022,12-29-5,31,depth_duration_stimuli/002905_2014-06-03_18-04-43_094959634447_rgbf000151-resize_2/002905_2014-06-03_18-04-43_094959634447_rgbf000151-resize_2-target.png,125,2.0295,6,2442,138,meters,jsons/VE125_randls_21.json,602739,737525,35,Woman
31,189617,DepthScenes,duration_manipulation_targetAtFixation,jsons/VE125_randls_21.json,http://54.235.29.9/FacialAge/BNav_EC2/DepthDuration/v2_depth_duration_MTurk/v2_DepthDuration_HTML.html#407,407,1366,615,1366,768,8-29-2022,12-29-5,32,depth_duration_stimuli/003423_2014-05-21_10-23-26_094959634447_rgbf002665-resize_2/003423_2014-05-21_10-23-26_094959634447_rgbf002665-resize_2-target.png,125,3.2575,0,3059,131,meters,jsons/VE125_randls_21.json,602739,737525,35,Woman
32,189617,DepthScenes,duration_manipulation_targetAtFixation,jsons/VE125_randls_21.json,http://54.235.29.9/FacialAge/BNav_EC2/DepthDuration/v2_depth_duration_MTurk/v2_DepthDuration_HTML.html#407,407,1366,615,1366,768,8-29-2022,12-29-5,33,depth_duration_stimuli/002118_2014-06-25_20-32-08_260595134347_rgbf000078-resize_1/002118_2014-06-25_20-32-08_260595134347_rgbf000078-resize_1-target.png,125,2.6460000000000004,7,2320,132,meters,jsons/VE125_randls_21.json,602739,737525,35,Woman
33,189617,DepthScenes,duration_manipulation_targetAtFixation,jsons/VE125_randls_21.json,http://54.235.29.9/FacialAge/BNav_EC2/DepthDuration/v2_depth_duration_MTurk/v2_DepthDuration_HTML.html#407,407,1366,615,1366,768,8-29-2022,12-29-5,34,depth_duration_stimuli/001516_2014-06-20_16-25-09_260595134347_rgbf000076-resize_2/001516_2014-06-20_16-25-09_260595134347_rgbf000076-resize_2-target.png,125,1.7445,8,2240,139,meters,jsons/VE125_randls_21.json,602739,737525,35,Woman
34,189617,DepthScenes,duration_manipulation_targetAtFixation,jsons/VE125_randls_21.json,http://54.235.29.9/FacialAge/BNav_EC2/DepthDuration/v2_depth_duration_MTurk/v2_DepthDuration_HTML.html#407,407,1366,615,1366,768,8-29-2022,12-29-5,35,depth_duration_stimuli/002153_2014-06-25_21-27-18_260595134347_rgbf000038-resize_5/002153_2014-06-25_21-27-18_260595134347_rgbf000038-resize_5-target.png,125,2.505,4,1863,114,meters,jsons/VE125_randls_21.json,602739,737525,35,Woman
35,189617,DepthScenes,duration_manipulation_targetAtFixation,jsons/VE125_randls_21.json,http://54.235.29.9/FacialAge/BNav_EC2/DepthDuration/v2_depth_duration_MTurk/v2_DepthDuration_HTML.html#407,407,1366,615,1366,768,8-29-2022,12-29-5,36,depth_duration_stimuli/002660_2014-06-13_15-44-18_094959634447_rgbf001878-resize_2/002660_2014-06-13_15-44-18_094959634447_rgbf001878-resize_2-target.png,125,3.576,90,5260,136,meters,jsons/VE125_randls_21.json,602739,737525,35,Woman
36,189617,DepthScenes,duration_manipulation_targetAtFixation,jsons/VE125_randls_21.json,http://54.235.29.9/FacialAge/BNav_EC2/DepthDuration/v2_depth_duration_MTurk/v2_DepthDuration_HTML.html#407,407,1366,615,1366,768,8-29-2022,12-29-5,37,depth_duration_stimuli/002600_2014-06-24_14-27-04_094959634447_rgbf000074-resize_2/002600_2014-06-24_14-27-04_094959634447_rgbf000074-resize_2-target.png,125,2.7575,7,2585,116,meters,jsons/VE125_randls_21.json,602739,737525,35,Woman
37,189617,DepthScenes,duration_manipulation_targetAtFixation,jsons/VE125_randls_21.json,http://54.235.29.9/FacialAge/BNav_EC2/DepthDuration/v2_depth_duration_MTurk/v2_DepthDuration_HTML.html#407,407,1366,615,1366,768,8-29-2022,12-29-5,38,depth_duration_stimuli/003228_2014-05-14_13-42-35_094959634447_rgbf000101-resize_1/003228_2014-05-14_13-42-35_094959634447_rgbf000101-resize_1-target.png,125,1.9680000000000002,8,2053,129,meters,jsons/VE125_randls_21.json,602739,737525,35,Woman
38,189617,DepthScenes,duration_manipulation_targetAtFixation,jsons/VE125_randls_21.json,http://54.235.29.9/FacialAge/BNav_EC2/DepthDuration/v2_depth_duration_MTurk/v2_DepthDuration_HTML.html#407,407,1366,615,1366,768,8-29-2022,12-29-5,39,depth_duration_stimuli/002964_2014-06-08_17-46-11_094959634447_rgbf000091-resize_4/002964_2014-06-08_17-46-11_094959634447_rgbf000091-resize_4-target.png,125,1.6909999999999998,0,2241,121,meters,jsons/VE125_randls_21.json,602739,737525,35,Woman
39,189617,DepthScenes,duration_manipulation_targetAtFixation,jsons/VE125_randls_21.json,http://54.235.29.9/FacialAge/BNav_EC2/DepthDuration/v2_depth_duration_MTurk/v2_DepthDuration_HTML.html#407,407,1366,615,1366,768,8-29-2022,12-29-5,40,depth_duration_stimuli/002136_2014-06-25_21-18-03_260595134347_rgbf000109-resize_3/002136_2014-06-25_21-18-03_260595134347_rgbf000109-resize_3-target.png,125,1.9569999999999999,8,5812,125,meters,jsons/VE125_randls_21.json,602739,737525,35,Woman
40,189617,DepthScenes,duration_manipulation_targetAtFixation,jsons/VE125_randls_21.json,http://54.235.29.9/FacialAge/BNav_EC2/DepthDuration/v2_depth_duration_MTurk/v2_DepthDuration_HTML.html#407,407,1366,615,1366,768,8-29-2022,12-29-5,41,depth_duration_stimuli/003070_2014-06-15_14-58-27_094959634447_rgbf000150-resize_3/003070_2014-06-15_14-58-27_094959634447_rgbf000150-resize_3-target.png,125,2.9415,3,2812,116,meters,jsons/VE125_randls_21.json,602739,737525,35,Woman
41,189617,DepthScenes,duration_manipulation_targetAtFixation,jsons/VE125_randls_21.json,http://54.235.29.9/FacialAge/BNav_EC2/DepthDuration/v2_depth_duration_MTurk/v2_DepthDuration_HTML.html#407,407,1366,615,1366,768,8-29-2022,12-29-5,42,depth_duration_stimuli/000943_2014-06-09_19-31-07_260595134347_rgbf000128-resize_1/000943_2014-06-09_19-31-07_260595134347_rgbf000128-resize_1-target.png,125,1.9765,0,2285,115,meters,jsons/VE125_randls_21.json,602739,737525,35,Woman
42,189617,DepthScenes,duration_manipulation_targetAtFixation,jsons/VE125_randls_21.json,http://54.235.29.9/FacialAge/BNav_EC2/DepthDuration/v2_depth_duration_MTurk/v2_DepthDuration_HTML.html#407,407,1366,615,1366,768,8-29-2022,12-29-5,43,depth_duration_stimuli/001150_2014-06-17_15-27-34_260595134347_rgbf000108-resize_2/001150_2014-06-17_15-27-34_260595134347_rgbf000108-resize_2-target.png,125,4.0325,7,1932,122,meters,jsons/VE125_randls_21.json,602739,737525,35,Woman
43,189617,DepthScenes,duration_manipulation_targetAtFixation,jsons/VE125_randls_21.json,http://54.235.29.9/FacialAge/BNav_EC2/DepthDuration/v2_depth_duration_MTurk/v2_DepthDuration_HTML.html#407,407,1366,615,1366,768,8-29-2022,12-29-5,44,depth_duration_stimuli/000665_2014-06-09_20-42-35_260595134347_rgbf000110-resize_1/000665_2014-06-09_20-42-35_260595134347_rgbf000110-resize_1-target.png,125,3.057,7,1948,126,meters,jsons/VE125_randls_21.json,602739,737525,35,Woman
44,189617,DepthScenes,duration_manipulation_targetAtFixation,jsons/VE125_randls_21.json,http://54.235.29.9/FacialAge/BNav_EC2/DepthDuration/v2_depth_duration_MTurk/v2_DepthDuration_HTML.html#407,407,1366,615,1366,768,8-29-2022,12-29-5,45,depth_duration_stimuli/000787_2014-06-08_22-33-53_260595134347_rgbf000175-resize_1/000787_2014-06-08_22-33-53_260595134347_rgbf000175-resize-original.jpg,125,4.784,6,2054,137,meters,jsons/VE125_randls_21.json,602739,737525,35,Woman
45,189617,DepthScenes,duration_manipulation_targetAtFixation,jsons/VE125_randls_21.json,http://54.235.29.9/FacialAge/BNav_EC2/DepthDuration/v2_depth_duration_MTurk/v2_DepthDuration_HTML.html#407,407,1366,615,1366,768,8-29-2022,12-29-5,46,depth_duration_stimuli/001092_2014-06-15_17-34-58_260595134347_rgbf000171-resize_3/001092_2014-06-15_17-34-58_260595134347_rgbf000171-resize_3-target.png,125,2.6935,6,1802,131,meters,jsons/VE125_randls_21.json,602739,737525,35,Woman
46,189617,DepthScenes,duration_manipulation_targetAtFixation,jsons/VE125_randls_21.json,http://54.235.29.9/FacialAge/BNav_EC2/DepthDuration/v2_depth_duration_MTurk/v2_DepthDuration_HTML.html#407,407,1366,615,1366,768,8-29-2022,12-29-5,47,depth_duration_stimuli/002545_2014-06-24_13-38-53_094959634447_rgbf000080-resize_4/002545_2014-06-24_13-38-53_094959634447_rgbf000080-resize_4-target.png,125,1.9205,6,2275,133,meters,jsons/VE125_randls_21.json,602739,737525,35,Woman
47,189617,DepthScenes,duration_manipulation_targetAtFixation,jsons/VE125_randls_21.json,http://54.235.29.9/FacialAge/BNav_EC2/DepthDuration/v2_depth_duration_MTurk/v2_DepthDuration_HTML.html#407,407,1366,615,1366,768,8-29-2022,12-29-5,48,depth_duration_stimuli/002445_2014-06-28_20-32-16_260595134347_rgbf000029-resize_4/002445_2014-06-28_20-32-16_260595134347_rgbf000029-resize_4-target.png,125,2.5315,5,2200,139,meters,jsons/VE125_randls_21.json,602739,737525,35,Woman
48,189617,DepthScenes,duration_manipulation_targetAtFixation,jsons/VE125_randls_21.json,http://54.235.29.9/FacialAge/BNav_EC2/DepthDuration/v2_depth_duration_MTurk/v2_DepthDuration_HTML.html#407,407,1366,615,1366,768,8-29-2022,12-29-5,49,depth_duration_stimuli/000780_2014-06-08_22-28-29_260595134347_rgbf000126-resize_1/000780_2014-06-08_22-28-29_260595134347_rgbf000126-resize_1-target.png,125,3.3825,6,1959,160,meters,jsons/VE125_randls_21.json,602739,737525,35,Woman
49,189617,DepthScenes,duration_manipulation_targetAtFixation,jsons/VE125_randls_21.json,http://54.235.29.9/FacialAge/BNav_EC2/DepthDuration/v2_depth_duration_MTurk/v2_DepthDuration_HTML.html#407,407,1366,615,1366,768,8-29-2022,12-29-5,50,depth_duration_stimuli/001059_2014-06-08_21-53-27_260595134347_rgbf000061-resize_4/001059_2014-06-08_21-53-27_260595134347_rgbf000061-resize_4-target.png,125,2.4185,8,2334,130,meters,jsons/VE125_randls_21.json,602739,737525,35,Woman
50,189617,DepthScenes,duration_manipulation_targetAtFixation,jsons/VE125_randls_21.json,http://54.235.29.9/FacialAge/BNav_EC2/DepthDuration/v2_depth_duration_MTurk/v2_DepthDuration_HTML.html#407,407,1366,615,1366,768,8-29-2022,12-29-5,51,depth_duration_stimuli/001032_2014-06-08_13-23-17_260595134347_rgbf000021-resize_3/001032_2014-06-08_13-23-17_260595134347_rgbf000021-resize_3-target.png,125,3.2725,4,2005,115,meters,jsons/VE125_randls_21.json,602739,737525,35,Woman
51,189617,DepthScenes,duration_manipulation_targetAtFixation,jsons/VE125_randls_21.json,http://54.235.29.9/FacialAge/BNav_EC2/DepthDuration/v2_depth_duration_MTurk/v2_DepthDuration_HTML.html#407,407,1366,615,1366,768,8-29-2022,12-29-5,52,depth_duration_stimuli/003492_2014-05-21_15-50-55_094959634447_rgbf000828-resize_1/003492_2014-05-21_15-50-55_094959634447_rgbf000828-resize_1-target.png,125,4.06875,6,2612,119,meters,jsons/VE125_randls_21.json,602739,737525,35,Woman
52,189617,DepthScenes,duration_manipulation_targetAtFixation,jsons/VE125_randls_21.json,http://54.235.29.9/FacialAge/BNav_EC2/DepthDuration/v2_depth_duration_MTurk/v2_DepthDuration_HTML.html#407,407,1366,615,1366,768,8-29-2022,12-29-5,53,depth_duration_stimuli/002568_2014-06-24_13-59-21_094959634447_rgbf000062-resize_4/002568_2014-06-24_13-59-21_094959634447_rgbf000062-resize_4-target.png,125,3.015,5,1997,117,meters,jsons/VE125_randls_21.json,602739,737525,35,Woman
53,189617,DepthScenes,duration_manipulation_targetAtFixation,jsons/VE125_randls_21.json,http://54.235.29.9/FacialAge/BNav_EC2/DepthDuration/v2_depth_duration_MTurk/v2_DepthDuration_HTML.html#407,407,1366,615,1366,768,8-29-2022,12-29-5,54,depth_duration_stimuli/000447_2014-06-08_16-15-46_260595134347_rgbf000130-resize_1/000447_2014-06-08_16-15-46_260595134347_rgbf000130-resize_1-target.png,125,4.479,5,2238,131,meters,jsons/VE125_randls_21.json,602739,737525,35,Woman
54,189617,DepthScenes,duration_manipulation_targetAtFixation,jsons/VE125_randls_21.json,http://54.235.29.9/FacialAge/BNav_EC2/DepthDuration/v2_depth_duration_MTurk/v2_DepthDuration_HTML.html#407,407,1366,615,1366,768,8-29-2022,12-29-5,55,depth_duration_stimuli/001447_2014-06-19_17-00-32_260595134347_rgbf000082-resize_5/001447_2014-06-19_17-00-32_260595134347_rgbf000082-resize_5-target.png,125,4.13775,3,3877,132,meters,jsons/VE125_randls_21.json,602739,737525,35,Woman
55,189617,DepthScenes,duration_manipulation_targetAtFixation,jsons/VE125_randls_21.json,http://54.235.29.9/FacialAge/BNav_EC2/DepthDuration/v2_depth_duration_MTurk/v2_DepthDuration_HTML.html#407,407,1366,615,1366,768,8-29-2022,12-29-5,56,depth_duration_stimuli/003292_2014-05-14_21-53-49_094959634447_rgbf000100-resize_2/003292_2014-05-14_21-53-49_094959634447_rgbf000100-resize_2-target.png,125,3.4815,5,2279,124,meters,jsons/VE125_randls_21.json,602739,737525,35,Woman
56,189617,DepthScenes,duration_manipulation_targetAtFixation,jsons/VE125_randls_21.json,http://54.235.29.9/FacialAge/BNav_EC2/DepthDuration/v2_depth_duration_MTurk/v2_DepthDuration_HTML.html#407,407,1366,615,1366,768,8-29-2022,12-29-5,57,depth_duration_stimuli/002639_2014-06-24_14-51-37_094959634447_rgbf000074-resize_4/002639_2014-06-24_14-51-37_094959634447_rgbf000074-resize_4-target.png,125,4.0375,4,2056,131,meters,jsons/VE125_randls_21.json,602739,737525,35,Woman
57,189617,DepthScenes,duration_manipulation_targetAtFixation,jsons/VE125_randls_21.json,http://54.235.29.9/FacialAge/BNav_EC2/DepthDuration/v2_depth_duration_MTurk/v2_DepthDuration_HTML.html#407,407,1366,615,1366,768,8-29-2022,12-29-5,58,depth_duration_stimuli/002057_2014-06-24_21-00-13_260595134347_rgbf000120-resize_1/002057_2014-06-24_21-00-13_260595134347_rgbf000120-resize_1-target.png,125,2.967,6,1846,116,meters,jsons/VE125_randls_21.json,602739,737525,35,Woman
58,189617,DepthScenes,duration_manipulation_targetAtFixation,jsons/VE125_randls_21.json,http://54.235.29.9/FacialAge/BNav_EC2/DepthDuration/v2_depth_duration_MTurk/v2_DepthDuration_HTML.html#407,407,1366,615,1366,768,8-29-2022,12-29-5,59,depth_duration_stimuli/000709_2014-06-08_13-51-55_260595134347_rgbf000068-resize_3/000709_2014-06-08_13-51-55_260595134347_rgbf000068-resize_3-target.png,125,1.8030000000000002,7,2438,115,meters,jsons/VE125_randls_21.json,602739,737525,35,Woman
59,189617,DepthScenes,duration_manipulation_targetAtFixation,jsons/VE125_randls_21.json,http://54.235.29.9/FacialAge/BNav_EC2/DepthDuration/v2_depth_duration_MTurk/v2_DepthDuration_HTML.html#407,407,1366,615,1366,768,8-29-2022,12-29-5,60,depth_duration_stimuli/000736_2014-06-08_18-24-15_260595134347_rgbf000206-resize_3/000736_2014-06-08_18-24-15_260595134347_rgbf000206-resize_3-target.png,125,3.515,8,2239,153,meters,jsons/VE125_randls_21.json,602739,737525,35,Woman
60,189617,DepthScenes,duration_manipulation_targetAtFixation,jsons/VE125_randls_21.json,http://54.235.29.9/FacialAge/BNav_EC2/DepthDuration/v2_depth_duration_MTurk/v2_DepthDuration_HTML.html#407,407,1366,615,1366,768,8-29-2022,12-29-5,61,depth_duration_stimuli/000137_2014-05-20_17-04-49_260595134347_rgbf000120-resize_1/000137_2014-05-20_17-04-49_260595134347_rgbf000120-resize_1-target.png,125,3.786,4,2100,115,meters,jsons/VE125_randls_21.json,602739,737525,35,Woman
61,189617,DepthScenes,duration_manipulation_targetAtFixation,jsons/VE125_randls_21.json,http://54.235.29.9/FacialAge/BNav_EC2/DepthDuration/v2_depth_duration_MTurk/v2_DepthDuration_HTML.html#407,407,1366,615,1366,768,8-29-2022,12-29-5,62,depth_duration_stimuli/000788_2014-06-08_22-34-36_260595134347_rgbf000131-resize_1/000788_2014-06-08_22-34-36_260595134347_rgbf000131-resize_1-target.png,125,3.359,5,2286,115,meters,jsons/VE125_randls_21.json,602739,737525,35,Woman
62,189617,DepthScenes,duration_manipulation_targetAtFixation,jsons/VE125_randls_21.json,http://54.235.29.9/FacialAge/BNav_EC2/DepthDuration/v2_depth_duration_MTurk/v2_DepthDuration_HTML.html#407,407,1366,615,1366,768,8-29-2022,12-29-5,63,depth_duration_stimuli/001235_2014-06-17_16-37-36_260595134347_rgbf000084-resize_4/001235_2014-06-17_16-37-36_260595134347_rgbf000084-resize_4-target.png,125,3.6605,3,1893,132,meters,jsons/VE125_randls_21.json,602739,737525,35,Woman
63,189617,DepthScenes,duration_manipulation_targetAtFixation,jsons/VE125_randls_21.json,http://54.235.29.9/FacialAge/BNav_EC2/DepthDuration/v2_depth_duration_MTurk/v2_DepthDuration_HTML.html#407,407,1366,615,1366,768,8-29-2022,12-29-5,64,depth_duration_stimuli/002272_2014-06-28_18-53-56_260595134347_rgbf000067-resize_2/002272_2014-06-28_18-53-56_260595134347_rgbf000067-resize_2-target.png,125,1.138,5,2021,99,meters,jsons/VE125_randls_21.json,602739,737525,35,Woman
64,189617,DepthScenes,duration_manipulation_targetAtFixation,jsons/VE125_randls_21.json,http://54.235.29.9/FacialAge/BNav_EC2/DepthDuration/v2_depth_duration_MTurk/v2_DepthDuration_HTML.html#407,407,1366,615,1366,768,8-29-2022,12-29-5,65,depth_duration_stimuli/001571_2014-06-20_17-21-32_260595134347_rgbf000089-resize_1/001571_2014-06-20_17-21-32_260595134347_rgbf000089-resize_1-target.png,125,1.86,3,2044,121,meters,jsons/VE125_randls_21.json,602739,737525,35,Woman
65,189617,DepthScenes,duration_manipulation_targetAtFixation,jsons/VE125_randls_21.json,http://54.235.29.9/FacialAge/BNav_EC2/DepthDuration/v2_depth_duration_MTurk/v2_DepthDuration_HTML.html#407,407,1366,615,1366,768,8-29-2022,12-29-5,66,depth_duration_stimuli/001222_2014-06-17_16-24-06_260595134347_rgbf000073-resize_0/001222_2014-06-17_16-24-06_260595134347_rgbf000073-resize-original.jpg,125,1.4385,5,2097,130,meters,jsons/VE125_randls_21.json,602739,737525,35,Woman
66,189617,DepthScenes,duration_manipulation_targetAtFixation,jsons/VE125_randls_21.json,http://54.235.29.9/FacialAge/BNav_EC2/DepthDuration/v2_depth_duration_MTurk/v2_DepthDuration_HTML.html#407,407,1366,615,1366,768,8-29-2022,12-29-5,67,depth_duration_stimuli/000739_2014-06-08_18-45-58_260595134347_rgbf000068-resize_1/000739_2014-06-08_18-45-58_260595134347_rgbf000068-resize_1-target.png,125,3.534,3,2070,116,meters,jsons/VE125_randls_21.json,602739,737525,35,Woman
67,189617,DepthScenes,duration_manipulation_targetAtFixation,jsons/VE125_randls_21.json,http://54.235.29.9/FacialAge/BNav_EC2/DepthDuration/v2_depth_duration_MTurk/v2_DepthDuration_HTML.html#407,407,1366,615,1366,768,8-29-2022,12-29-5,68,depth_duration_stimuli/000734_2014-06-08_17-39-11_260595134347_rgbf000128-resize_2/000734_2014-06-08_17-39-11_260595134347_rgbf000128-resize_2-target.png,125,4.098,4,2185,126,meters,jsons/VE125_randls_21.json,602739,737525,35,Woman
68,189617,DepthScenes,duration_manipulation_targetAtFixation,jsons/VE125_randls_21.json,http://54.235.29.9/FacialAge/BNav_EC2/DepthDuration/v2_depth_duration_MTurk/v2_DepthDuration_HTML.html#407,407,1366,615,1366,768,8-29-2022,12-29-5,69,depth_duration_stimuli/001016_2014-06-09_16-16-10_260595134347_rgbf000112-resize_5/001016_2014-06-09_16-16-10_260595134347_rgbf000112-resize_5-target.png,125,1.6565,6,1968,115,meters,jsons/VE125_randls_21.json,602739,737525,35,Woman
69,189617,DepthScenes,duration_manipulation_targetAtFixation,jsons/VE125_randls_21.json,http://54.235.29.9/FacialAge/BNav_EC2/DepthDuration/v2_depth_duration_MTurk/v2_DepthDuration_HTML.html#407,407,1366,615,1366,768,8-29-2022,12-29-5,70,depth_duration_stimuli/002340_2014-06-28_20-05-46_260595134347_rgbf000113-resize_0/002340_2014-06-28_20-05-46_260595134347_rgbf000113-resize_0-target.png,125,2.4735,7,2219,137,meters,jsons/VE125_randls_21.json,602739,737525,35,Woman
70,189617,DepthScenes,duration_manipulation_targetAtFixation,jsons/VE125_randls_21.json,http://54.235.29.9/FacialAge/BNav_EC2/DepthDuration/v2_depth_duration_MTurk/v2_DepthDuration_HTML.html#407,407,1366,615,1366,768,8-29-2022,12-29-5,71,depth_duration_stimuli/001110_2014-06-15_17-25-28_260595134347_rgbf000150-resize_1/001110_2014-06-15_17-25-28_260595134347_rgbf000150-resize_1-target.png,125,1.7115,9,1931,122,meters,jsons/VE125_randls_21.json,602739,737525,35,Woman
71,189617,DepthScenes,duration_manipulation_targetAtFixation,jsons/VE125_randls_21.json,http://54.235.29.9/FacialAge/BNav_EC2/DepthDuration/v2_depth_duration_MTurk/v2_DepthDuration_HTML.html#407,407,1366,615,1366,768,8-29-2022,12-29-5,72,depth_duration_stimuli/000927_2014-06-09_16-32-30_260595134347_rgbf000123-resize_3/000927_2014-06-09_16-32-30_260595134347_rgbf000123-resize_3-target.png,125,2.6785,7,3350,116,meters,jsons/VE125_randls_21.json,602739,737525,35,Woman
72,189617,DepthScenes,duration_manipulation_targetAtFixation,jsons/VE125_randls_21.json,http://54.235.29.9/FacialAge/BNav_EC2/DepthDuration/v2_depth_duration_MTurk/v2_DepthDuration_HTML.html#407,407,1366,615,1366,768,8-29-2022,12-29-5,73,depth_duration_stimuli/002375_2014-06-28_20-13-44_260595134347_rgbf000032-resize_1/002375_2014-06-28_20-13-44_260595134347_rgbf000032-resize_1-target.png,125,4.0175,8,1851,115,meters,jsons/VE125_randls_21.json,602739,737525,35,Woman
73,189617,DepthScenes,duration_manipulation_targetAtFixation,jsons/VE125_randls_21.json,http://54.235.29.9/FacialAge/BNav_EC2/DepthDuration/v2_depth_duration_MTurk/v2_DepthDuration_HTML.html#407,407,1366,615,1366,768,8-29-2022,12-29-5,74,depth_duration_stimuli/002657_2014-06-13_15-29-54_094959634447_rgbf000150-resize_1/002657_2014-06-13_15-29-54_094959634447_rgbf000150-resize_1-target.png,125,4.919,7,1881,137,meters,jsons/VE125_randls_21.json,602739,737525,35,Woman
74,189617,DepthScenes,duration_manipulation_targetAtFixation,jsons/VE125_randls_21.json,http://54.235.29.9/FacialAge/BNav_EC2/DepthDuration/v2_depth_duration_MTurk/v2_DepthDuration_HTML.html#407,407,1366,615,1366,768,8-29-2022,12-29-5,75,depth_duration_stimuli/000773_2014-06-08_22-24-54_260595134347_rgbf000093-resize_1/000773_2014-06-08_22-24-54_260595134347_rgbf000093-resize_1-target.png,125,4.973,0,2559,116,meters,jsons/VE125_randls_21.json,602739,737525,35,Woman
75,189617,DepthScenes,duration_manipulation_targetAtFixation,jsons/VE125_randls_21.json,http://54.235.29.9/FacialAge/BNav_EC2/DepthDuration/v2_depth_duration_MTurk/v2_DepthDuration_HTML.html#407,407,1366,615,1366,768,8-29-2022,12-29-5,76,depth_duration_stimuli/002414_2014-06-28_20-24-58_260595134347_rgbf000067-resize_4/002414_2014-06-28_20-24-58_260595134347_rgbf000067-resize_4-target.png,125,4.363,6,1929,116,meters,jsons/VE125_randls_21.json,602739,737525,35,Woman
76,189617,DepthScenes,duration_manipulation_targetAtFixation,jsons/VE125_randls_21.json,http://54.235.29.9/FacialAge/BNav_EC2/DepthDuration/v2_depth_duration_MTurk/v2_DepthDuration_HTML.html#407,407,1366,615,1366,768,8-29-2022,12-29-5,77,depth_duration_stimuli/000436_2014-06-09_22-25-11_260595134347_rgbf000137-resize_1/000436_2014-06-09_22-25-11_260595134347_rgbf000137-resize_1-target.png,125,4.0705,5,2125,113,meters,jsons/VE125_randls_21.json,602739,737525,35,Woman
77,189617,DepthScenes,duration_manipulation_targetAtFixation,jsons/VE125_randls_21.json,http://54.235.29.9/FacialAge/BNav_EC2/DepthDuration/v2_depth_duration_MTurk/v2_DepthDuration_HTML.html#407,407,1366,615,1366,768,8-29-2022,12-29-5,78,depth_duration_stimuli/002444_2014-06-28_20-32-08_260595134347_rgbf000027-resize_0/002444_2014-06-28_20-32-08_260595134347_rgbf000027-resize_0-target.png,125,4.388999999999999,7,2065,116,meters,jsons/VE125_randls_21.json,602739,737525,35,Woman
78,189617,DepthScenes,duration_manipulation_targetAtFixation,jsons/VE125_randls_21.json,http://54.235.29.9/FacialAge/BNav_EC2/DepthDuration/v2_depth_duration_MTurk/v2_DepthDuration_HTML.html#407,407,1366,615,1366,768,8-29-2022,12-29-5,79,depth_duration_stimuli/002570_2014-06-24_13-59-54_094959634447_rgbf000059-resize_0/002570_2014-06-24_13-59-54_094959634447_rgbf000059-resize_0-target.png,125,4.037,0,2214,120,meters,jsons/VE125_randls_21.json,602739,737525,35,Woman
79,189617,DepthScenes,duration_manipulation_targetAtFixation,jsons/VE125_randls_21.json,http://54.235.29.9/FacialAge/BNav_EC2/DepthDuration/v2_depth_duration_MTurk/v2_DepthDuration_HTML.html#407,407,1366,615,1366,768,8-29-2022,12-29-5,80,depth_duration_stimuli/002467_2014-06-28_20-38-07_260595134347_rgbf000026-resize_2/002467_2014-06-28_20-38-07_260595134347_rgbf000026-resize_2-target.png,125,4.742,0,4055,120,meters,jsons/VE125_randls_21.json,602739,737525,35,Woman
80,189617,DepthScenes,duration_manipulation_targetAtFixation,jsons/VE125_randls_21.json,http://54.235.29.9/FacialAge/BNav_EC2/DepthDuration/v2_depth_duration_MTurk/v2_DepthDuration_HTML.html#407,407,1366,615,1366,768,8-29-2022,12-29-5,81,depth_duration_stimuli/002725_2014-06-22_11-47-51_094959634447_rgbf000070-resize_1/002725_2014-06-22_11-47-51_094959634447_rgbf000070-resize_1-target.png,125,2.195,5,7341,116,meters,jsons/VE125_randls_21.json,602739,737525,35,Woman
81,189617,DepthScenes,duration_manipulation_targetAtFixation,jsons/VE125_randls_21.json,http://54.235.29.9/FacialAge/BNav_EC2/DepthDuration/v2_depth_duration_MTurk/v2_DepthDuration_HTML.html#407,407,1366,615,1366,768,8-29-2022,12-29-5,82,depth_duration_stimuli/002344_2014-06-28_20-06-29_260595134347_rgbf000030-resize_1/002344_2014-06-28_20-06-29_260595134347_rgbf000030-resize_1-target.png,125,1.5795,6,2385,116,meters,jsons/VE125_randls_21.json,602739,737525,35,Woman
82,189617,DepthScenes,duration_manipulation_targetAtFixation,jsons/VE125_randls_21.json,http://54.235.29.9/FacialAge/BNav_EC2/DepthDuration/v2_depth_duration_MTurk/v2_DepthDuration_HTML.html#407,407,1366,615,1366,768,8-29-2022,12-29-5,83,depth_duration_stimuli/003534_2014-05-22_15-06-10_094959634447_rgbf000102-resize_4/003534_2014-05-22_15-06-10_094959634447_rgbf000102-resize_4-target.png,125,1.426,6,1992,131,meters,jsons/VE125_randls_21.json,602739,737525,35,Woman
83,189617,DepthScenes,duration_manipulation_targetAtFixation,jsons/VE125_randls_21.json,http://54.235.29.9/FacialAge/BNav_EC2/DepthDuration/v2_depth_duration_MTurk/v2_DepthDuration_HTML.html#407,407,1366,615,1366,768,8-29-2022,12-29-5,84,depth_duration_stimuli/002637_2014-06-24_14-51-13_094959634447_rgbf000066-resize_4/002637_2014-06-24_14-51-13_094959634447_rgbf000066-resize_4-target.png,125,1.9955,4,2347,125,meters,jsons/VE125_randls_21.json,602739,737525,35,Woman
84,189617,DepthScenes,duration_manipulation_targetAtFixation,jsons/VE125_randls_21.json,http://54.235.29.9/FacialAge/BNav_EC2/DepthDuration/v2_depth_duration_MTurk/v2_DepthDuration_HTML.html#407,407,1366,615,1366,768,8-29-2022,12-29-5,85,depth_duration_stimuli/000878_2014-06-08_22-52-45_260595134347_rgbf000045-resize_2/000878_2014-06-08_22-52-45_260595134347_rgbf000045-resize_2-target.png,125,2.092,4,2237,123,meters,jsons/VE125_randls_21.json,602739,737525,35,Woman
85,189617,DepthScenes,duration_manipulation_targetAtFixation,jsons/VE125_randls_21.json,http://54.235.29.9/FacialAge/BNav_EC2/DepthDuration/v2_depth_duration_MTurk/v2_DepthDuration_HTML.html#407,407,1366,615,1366,768,8-29-2022,12-29-5,86,depth_duration_stimuli/002953_2014-06-08_17-32-18_094959634447_rgbf000059-resize_5/002953_2014-06-08_17-32-18_094959634447_rgbf000059-resize_5-target.png,125,1.551,5,1999,115,meters,jsons/VE125_randls_21.json,602739,737525,35,Woman
86,189617,DepthScenes,duration_manipulation_targetAtFixation,jsons/VE125_randls_21.json,http://54.235.29.9/FacialAge/BNav_EC2/DepthDuration/v2_depth_duration_MTurk/v2_DepthDuration_HTML.html#407,407,1366,615,1366,768,8-29-2022,12-29-5,87,depth_duration_stimuli/001133_2014-06-17_14-49-16_260595134347_rgbf000100-resize_0/001133_2014-06-17_14-49-16_260595134347_rgbf000100-resize_0-target.png,125,4.2115,6,4167,115,meters,jsons/VE125_randls_21.json,602739,737525,35,Woman
87,189617,DepthScenes,duration_manipulation_targetAtFixation,jsons/VE125_randls_21.json,http://54.235.29.9/FacialAge/BNav_EC2/DepthDuration/v2_depth_duration_MTurk/v2_DepthDuration_HTML.html#407,407,1366,615,1366,768,8-29-2022,12-29-5,88,depth_duration_stimuli/001132_2014-06-17_14-48-54_260595134347_rgbf000100-resize_2/001132_2014-06-17_14-48-54_260595134347_rgbf000100-resize_2-target.png,125,3.753,4,2486,115,meters,jsons/VE125_randls_21.json,602739,737525,35,Woman
88,189617,DepthScenes,duration_manipulation_targetAtFixation,jsons/VE125_randls_21.json,http://54.235.29.9/FacialAge/BNav_EC2/DepthDuration/v2_depth_duration_MTurk/v2_DepthDuration_HTML.html#407,407,1366,615,1366,768,8-29-2022,12-29-5,89,depth_duration_stimuli/002788_2014-06-22_19-36-03_094959634447_rgbf000088-resize_2/002788_2014-06-22_19-36-03_094959634447_rgbf000088-resize_2-target.png,125,1.6465,5,2480,148,meters,jsons/VE125_randls_21.json,602739,737525,35,Woman
89,189617,DepthScenes,duration_manipulation_targetAtFixation,jsons/VE125_randls_21.json,http://54.235.29.9/FacialAge/BNav_EC2/DepthDuration/v2_depth_duration_MTurk/v2_DepthDuration_HTML.html#407,407,1366,615,1366,768,8-29-2022,12-29-5,90,depth_duration_stimuli/000749_2014-06-08_21-55-06_260595134347_rgbf000070-resize_2/000749_2014-06-08_21-55-06_260595134347_rgbf000070-resize_2-target.png,125,2.331,4,2227,131,meters,jsons/VE125_randls_21.json,602739,737525,35,Woman
90,189617,DepthScenes,duration_manipulation_targetAtFixation,jsons/VE125_randls_21.json,http://54.235.29.9/FacialAge/BNav_EC2/DepthDuration/v2_depth_duration_MTurk/v2_DepthDuration_HTML.html#407,407,1366,615,1366,768,8-29-2022,12-29-5,91,depth_duration_stimuli/002988_2014-06-15_12-24-20_094959634447_rgbf000150-resize_1/002988_2014-06-15_12-24-20_094959634447_rgbf000150-resize_1-target.png,125,4.7669999999999995,3,1905,122,meters,jsons/VE125_randls_21.json,602739,737525,35,Woman
91,189617,DepthScenes,duration_manipulation_targetAtFixation,jsons/VE125_randls_21.json,http://54.235.29.9/FacialAge/BNav_EC2/DepthDuration/v2_depth_duration_MTurk/v2_DepthDuration_HTML.html#407,407,1366,615,1366,768,8-29-2022,12-29-5,92,depth_duration_stimuli/001052_2014-06-08_18-24-54_260595134347_rgbf000130-resize_1/001052_2014-06-08_18-24-54_260595134347_rgbf000130-resize_1-target.png,125,4.1045,4,2046,122,meters,jsons/VE125_randls_21.json,602739,737525,35,Woman
92,189617,DepthScenes,duration_manipulation_targetAtFixation,jsons/VE125_randls_21.json,http://54.235.29.9/FacialAge/BNav_EC2/DepthDuration/v2_depth_duration_MTurk/v2_DepthDuration_HTML.html#407,407,1366,615,1366,768,8-29-2022,12-29-5,93,depth_duration_stimuli/000368_2014-06-09_15-53-01_260595134347_rgbf000155-resize_2/000368_2014-06-09_15-53-01_260595134347_rgbf000155-resize_2-target.png,125,2.4859999999999998,3,5245,116,meters,jsons/VE125_randls_21.json,602739,737525,35,Woman
93,189617,DepthScenes,duration_manipulation_targetAtFixation,jsons/VE125_randls_21.json,http://54.235.29.9/FacialAge/BNav_EC2/DepthDuration/v2_depth_duration_MTurk/v2_DepthDuration_HTML.html#407,407,1366,615,1366,768,8-29-2022,12-29-5,94,depth_duration_stimuli/002678_2014-06-13_16-15-32_094959634447_rgbf000151-resize_6/002678_2014-06-13_16-15-32_094959634447_rgbf000151-resize_6-target.png,125,2.1830000000000003,4,2837,116,meters,jsons/VE125_randls_21.json,602739,737525,35,Woman
94,189617,DepthScenes,duration_manipulation_targetAtFixation,jsons/VE125_randls_21.json,http://54.235.29.9/FacialAge/BNav_EC2/DepthDuration/v2_depth_duration_MTurk/v2_DepthDuration_HTML.html#407,407,1366,615,1366,768,8-29-2022,12-29-5,95,depth_duration_stimuli/001066_2014-06-08_22-03-20_260595134347_rgbf000066-resize_4/001066_2014-06-08_22-03-20_260595134347_rgbf000066-resize_4-target.png,125,4.2330000000000005,4,4131,122,meters,jsons/VE125_randls_21.json,602739,737525,35,Woman
95,189617,DepthScenes,duration_manipulation_targetAtFixation,jsons/VE125_randls_21.json,http://54.235.29.9/FacialAge/BNav_EC2/DepthDuration/v2_depth_duration_MTurk/v2_DepthDuration_HTML.html#407,407,1366,615,1366,768,8-29-2022,12-29-5,96,depth_duration_stimuli/000742_2014-06-08_18-48-09_260595134347_rgbf000164-resize_4/000742_2014-06-08_18-48-09_260595134347_rgbf000164-resize_4-target.png,125,4.632,7,8978,115,meters,jsons/VE125_randls_21.json,602739,737525,35,Woman
96,189617,DepthScenes,duration_manipulation_targetAtFixation,jsons/VE125_randls_21.json,http://54.235.29.9/FacialAge/BNav_EC2/DepthDuration/v2_depth_duration_MTurk/v2_DepthDuration_HTML.html#407,407,1366,615,1366,768,8-29-2022,12-29-5,97,depth_duration_stimuli/001808_2014-06-26_20-50-58_260595134347_rgbf000029-resize_1/001808_2014-06-26_20-50-58_260595134347_rgbf000029-resize_1-target.png,125,4.249,6,2732,138,meters,jsons/VE125_randls_21.json,602739,737525,35,Woman
97,189617,DepthScenes,duration_manipulation_targetAtFixation,jsons/VE125_randls_21.json,http://54.235.29.9/FacialAge/BNav_EC2/DepthDuration/v2_depth_duration_MTurk/v2_DepthDuration_HTML.html#407,407,1366,615,1366,768,8-29-2022,12-29-5,98,depth_duration_stimuli/001815_2014-06-26_20-52-55_260595134347_rgbf000020-resize_0/001815_2014-06-26_20-52-55_260595134347_rgbf000020-resize_0-target.png,125,3.3865,5,2162,115,meters,jsons/VE125_randls_21.json,602739,737525,35,Woman
98,189617,DepthScenes,duration_manipulation_targetAtFixation,jsons/VE125_randls_21.json,http://54.235.29.9/FacialAge/BNav_EC2/DepthDuration/v2_depth_duration_MTurk/v2_DepthDuration_HTML.html#407,407,1366,615,1366,768,8-29-2022,12-29-5,99,depth_duration_stimuli/001540_2014-06-20_17-01-05_260595134347_rgbf000086-resize_2/001540_2014-06-20_17-01-05_260595134347_rgbf000086-resize-original.jpg,125,1.459,6,2411,115,meters,jsons/VE125_randls_21.json,602739,737525,35,Woman
99,189617,DepthScenes,duration_manipulation_targetAtFixation,jsons/VE125_randls_21.json,http://54.235.29.9/FacialAge/BNav_EC2/DepthDuration/v2_depth_duration_MTurk/v2_DepthDuration_HTML.html#407,407,1366,615,1366,768,8-29-2022,12-29-5,100,depth_duration_stimuli/002763_2014-06-22_19-13-10_094959634447_rgbf000075-resize_4/002763_2014-06-22_19-13-10_094959634447_rgbf000075-resize_4-target.png,125,1.68375,7,2088,122,meters,jsons/VE125_randls_21.json,602739,737525,35,Woman
100,189617,DepthScenes,duration_manipulation_targetAtFixation,jsons/VE125_randls_21.json,http://54.235.29.9/FacialAge/BNav_EC2/DepthDuration/v2_depth_duration_MTurk/v2_DepthDuration_HTML.html#407,407,1366,615,1366,768,8-29-2022,12-29-5,101,depth_duration_stimuli/002209_2014-06-28_18-36-10_260595134347_rgbf000051-resize_1/002209_2014-06-28_18-36-10_260595134347_rgbf000051-resize_1-target.png,125,2.057,4,1917,138,meters,jsons/VE125_randls_21.json,602739,737525,35,Woman
101,189617,DepthScenes,duration_manipulation_targetAtFixation,jsons/VE125_randls_21.json,http://54.235.29.9/FacialAge/BNav_EC2/DepthDuration/v2_depth_duration_MTurk/v2_DepthDuration_HTML.html#407,407,1366,615,1366,768,8-29-2022,12-29-5,102,depth_duration_stimuli/000682_2014-06-08_23-14-58_260595134347_rgbf000041-resize_5/000682_2014-06-08_23-14-58_260595134347_rgbf000041-resize_5-target.png,125,2.7239999999999998,3,2214,122,meters,jsons/VE125_randls_21.json,602739,737525,35,Woman
102,189617,DepthScenes,duration_manipulation_targetAtFixation,jsons/VE125_randls_21.json,http://54.235.29.9/FacialAge/BNav_EC2/DepthDuration/v2_depth_duration_MTurk/v2_DepthDuration_HTML.html#407,407,1366,615,1366,768,8-29-2022,12-29-5,103,depth_duration_stimuli/001650_2014-06-20_12-09-00_260595134347_rgbf000087-resize_3/001650_2014-06-20_12-09-00_260595134347_rgbf000087-resize_3-target.png,125,1.9505,4,2145,142,meters,jsons/VE125_randls_21.json,602739,737525,35,Woman
103,189617,DepthScenes,duration_manipulation_targetAtFixation,jsons/VE125_randls_21.json,http://54.235.29.9/FacialAge/BNav_EC2/DepthDuration/v2_depth_duration_MTurk/v2_DepthDuration_HTML.html#407,407,1366,615,1366,768,8-29-2022,12-29-5,104,depth_duration_stimuli/001164_2014-06-17_15-35-46_260595134347_rgbf000085-resize_3/001164_2014-06-17_15-35-46_260595134347_rgbf000085-resize_3-target.png,125,2.354,2,2355,134,meters,jsons/VE125_randls_21.json,602739,737525,35,Woman
104,189617,DepthScenes,duration_manipulation_targetAtFixation,jsons/VE125_randls_21.json,http://54.235.29.9/FacialAge/BNav_EC2/DepthDuration/v2_depth_duration_MTurk/v2_DepthDuration_HTML.html#407,407,1366,615,1366,768,8-29-2022,12-29-5,105,depth_duration_stimuli/001136_2014-06-17_15-19-41_260595134347_rgbf000076-resize_3/001136_2014-06-17_15-19-41_260595134347_rgbf000076-resize_3-target.png,125,1.8655,4,2337,137,meters,jsons/VE125_randls_21.json,602739,737525,35,Woman
105,189617,DepthScenes,duration_manipulation_targetAtFixation,jsons/VE125_randls_21.json,http://54.235.29.9/FacialAge/BNav_EC2/DepthDuration/v2_depth_duration_MTurk/v2_DepthDuration_HTML.html#407,407,1366,615,1366,768,8-29-2022,12-29-5,106,depth_duration_stimuli/002039_2014-06-24_20-22-38_260595134347_rgbf000084-resize_1/002039_2014-06-24_20-22-38_260595134347_rgbf000084-resize_1-target.png,125,4.408,4,2567,131,meters,jsons/VE125_randls_21.json,602739,737525,35,Woman
106,189617,DepthScenes,duration_manipulation_targetAtFixation,jsons/VE125_randls_21.json,http://54.235.29.9/FacialAge/BNav_EC2/DepthDuration/v2_depth_duration_MTurk/v2_DepthDuration_HTML.html#407,407,1366,615,1366,768,8-29-2022,12-29-5,107,depth_duration_stimuli/002103_2014-06-25_20-00-40_260595134347_rgbf000049-resize_0/002103_2014-06-25_20-00-40_260595134347_rgbf000049-resize_0-target.png,125,4.105,0,2416,137,meters,jsons/VE125_randls_21.json,602739,737525,35,Woman
107,189617,DepthScenes,duration_manipulation_targetAtFixation,jsons/VE125_randls_21.json,http://54.235.29.9/FacialAge/BNav_EC2/DepthDuration/v2_depth_duration_MTurk/v2_DepthDuration_HTML.html#407,407,1366,615,1366,768,8-29-2022,12-29-5,108,depth_duration_stimuli/001158_2014-06-17_15-32-16_260595134347_rgbf000138-resize_2/001158_2014-06-17_15-32-16_260595134347_rgbf000138-resize_2-target.png,125,4.5315,5,5029,123,meters,jsons/VE125_randls_21.json,602739,737525,35,Woman
108,189617,DepthScenes,duration_manipulation_targetAtFixation,jsons/VE125_randls_21.json,http://54.235.29.9/FacialAge/BNav_EC2/DepthDuration/v2_depth_duration_MTurk/v2_DepthDuration_HTML.html#407,407,1366,615,1366,768,8-29-2022,12-29-5,109,depth_duration_stimuli/000556_2014-06-09_22-42-56_260595134347_rgbf000214-resize_1/000556_2014-06-09_22-42-56_260595134347_rgbf000214-resize_1-target.png,125,4.8415,7,2648,115,meters,jsons/VE125_randls_21.json,602739,737525,35,Woman
109,189617,DepthScenes,duration_manipulation_targetAtFixation,jsons/VE125_randls_21.json,http://54.235.29.9/FacialAge/BNav_EC2/DepthDuration/v2_depth_duration_MTurk/v2_DepthDuration_HTML.html#407,407,1366,615,1366,768,8-29-2022,12-29-5,110,depth_duration_stimuli/002549_2014-06-24_13-41-39_094959634447_rgbf000022-resize_3/002549_2014-06-24_13-41-39_094959634447_rgbf000022-resize_3-target.png,125,1.476,4,2337,117,meters,jsons/VE125_randls_21.json,602739,737525,35,Woman
110,189617,DepthScenes,duration_manipulation_targetAtFixation,jsons/VE125_randls_21.json,http://54.235.29.9/FacialAge/BNav_EC2/DepthDuration/v2_depth_duration_MTurk/v2_DepthDuration_HTML.html#407,407,1366,615,1366,768,8-29-2022,12-29-5,111,depth_duration_stimuli/002750_2014-06-22_19-08-03_094959634447_rgbf000094-resize_4/002750_2014-06-22_19-08-03_094959634447_rgbf000094-resize_4-target.png,125,2.354,7,2031,127,meters,jsons/VE125_randls_21.json,602739,737525,35,Woman
111,189617,DepthScenes,duration_manipulation_targetAtFixation,jsons/VE125_randls_21.json,http://54.235.29.9/FacialAge/BNav_EC2/DepthDuration/v2_depth_duration_MTurk/v2_DepthDuration_HTML.html#407,407,1366,615,1366,768,8-29-2022,12-29-5,112,depth_duration_stimuli/001570_2014-06-20_17-21-09_260595134347_rgbf000135-resize_4/001570_2014-06-20_17-21-09_260595134347_rgbf000135-resize_4-target.png,125,4.467,8,2784,130,meters,jsons/VE125_randls_21.json,602739,737525,35,Woman
112,189617,DepthScenes,duration_manipulation_targetAtFixation,jsons/VE125_randls_21.json,http://54.235.29.9/FacialAge/BNav_EC2/DepthDuration/v2_depth_duration_MTurk/v2_DepthDuration_HTML.html#407,407,1366,615,1366,768,8-29-2022,12-29-5,113,depth_duration_stimuli/001392_2014-06-19_16-07-59_260595134347_rgbf000046-resize_1/001392_2014-06-19_16-07-59_260595134347_rgbf000046-resize_1-target.png,125,4.135,0,2383,138,meters,jsons/VE125_randls_21.json,602739,737525,35,Woman
113,189617,DepthScenes,duration_manipulation_targetAtFixation,jsons/VE125_randls_21.json,http://54.235.29.9/FacialAge/BNav_EC2/DepthDuration/v2_depth_duration_MTurk/v2_DepthDuration_HTML.html#407,407,1366,615,1366,768,8-29-2022,12-29-5,114,depth_duration_stimuli/001810_2014-06-26_20-51-35_260595134347_rgbf000040-resize_3/001810_2014-06-26_20-51-35_260595134347_rgbf000040-resize_3-target.png,125,2.2525,9,2028,132,meters,jsons/VE125_randls_21.json,602739,737525,35,Woman
114,189617,DepthScenes,duration_manipulation_targetAtFixation,jsons/VE125_randls_21.json,http://54.235.29.9/FacialAge/BNav_EC2/DepthDuration/v2_depth_duration_MTurk/v2_DepthDuration_HTML.html#407,407,1366,615,1366,768,8-29-2022,12-29-5,115,depth_duration_stimuli/003010_2014-06-15_12-54-35_094959634447_rgbf000112-resize_0/003010_2014-06-15_12-54-35_094959634447_rgbf000112-resize_0-target.png,125,3.1185,8,3271,131,meters,jsons/VE125_randls_21.json,602739,737525,35,Woman
115,189617,DepthScenes,duration_manipulation_targetAtFixation,jsons/VE125_randls_21.json,http://54.235.29.9/FacialAge/BNav_EC2/DepthDuration/v2_depth_duration_MTurk/v2_DepthDuration_HTML.html#407,407,1366,615,1366,768,8-29-2022,12-29-5,116,depth_duration_stimuli/001170_2014-06-17_15-43-44_260595134347_rgbf000096-resize_6/001170_2014-06-17_15-43-44_260595134347_rgbf000096-resize-original.jpg,125,1.1909999999999998,8,1888,116,meters,jsons/VE125_randls_21.json,602739,737525,35,Woman
116,189617,DepthScenes,duration_manipulation_targetAtFixation,jsons/VE125_randls_21.json,http://54.235.29.9/FacialAge/BNav_EC2/DepthDuration/v2_depth_duration_MTurk/v2_DepthDuration_HTML.html#407,407,1366,615,1366,768,8-29-2022,12-29-5,117,depth_duration_stimuli/003621_2014-05-23_18-06-08_094959634447_rgbf000101-resize_1/003621_2014-05-23_18-06-08_094959634447_rgbf000101-resize_1-target.png,125,3.9835,0,2514,131,meters,jsons/VE125_randls_21.json,602739,737525,35,Woman
117,189617,DepthScenes,duration_manipulation_targetAtFixation,jsons/VE125_randls_21.json,http://54.235.29.9/FacialAge/BNav_EC2/DepthDuration/v2_depth_duration_MTurk/v2_DepthDuration_HTML.html#407,407,1366,615,1366,768,8-29-2022,12-29-5,118,depth_duration_stimuli/001584_2014-06-20_11-07-43_260595134347_rgbf000002-resize_1/001584_2014-06-20_11-07-43_260595134347_rgbf000002-resize_1-target.png,125,3.53,8,3008,151,meters,jsons/VE125_randls_21.json,602739,737525,35,Woman
118,189617,DepthScenes,duration_manipulation_targetAtFixation,jsons/VE125_randls_21.json,http://54.235.29.9/FacialAge/BNav_EC2/DepthDuration/v2_depth_duration_MTurk/v2_DepthDuration_HTML.html#407,407,1366,615,1366,768,8-29-2022,12-29-5,119,depth_duration_stimuli/002663_2014-06-13_15-50-26_094959634447_rgbf000075-resize_1/002663_2014-06-13_15-50-26_094959634447_rgbf000075-resize_1-target.png,125,4.7495,7,2344,131,meters,jsons/VE125_randls_21.json,602739,737525,35,Woman
119,189617,DepthScenes,duration_manipulation_targetAtFixation,jsons/VE125_randls_21.json,http://54.235.29.9/FacialAge/BNav_EC2/DepthDuration/v2_depth_duration_MTurk/v2_DepthDuration_HTML.html#407,407,1366,615,1366,768,8-29-2022,12-29-5,120,depth_duration_stimuli/000409_2014-06-04_19-23-33_260595134347_rgbf000067-resize_0/000409_2014-06-04_19-23-33_260595134347_rgbf000067-resize_0-target.png,125,3.7335,1,2714,131,meters,jsons/VE125_randls_21.json,602739,737525,35,Woman
120,189617,DepthScenes,duration_manipulation_targetAtFixation,jsons/VE125_randls_21.json,http://54.235.29.9/FacialAge/BNav_EC2/DepthDuration/v2_depth_duration_MTurk/v2_DepthDuration_HTML.html#407,407,1366,615,1366,768,8-29-2022,12-29-5,121,depth_duration_stimuli/000917_2014-06-09_22-45-29_260595134347_rgbf000149-resize_3/000917_2014-06-09_22-45-29_260595134347_rgbf000149-resize_3-target.png,125,4.1865,4,2701,115,meters,jsons/VE125_randls_21.json,602739,737525,35,Woman
121,189617,DepthScenes,duration_manipulation_targetAtFixation,jsons/VE125_randls_21.json,http://54.235.29.9/FacialAge/BNav_EC2/DepthDuration/v2_depth_duration_MTurk/v2_DepthDuration_HTML.html#407,407,1366,615,1366,768,8-29-2022,12-29-5,122,depth_duration_stimuli/002323_2014-06-28_20-01-54_260595134347_rgbf000051-resize_4/002323_2014-06-28_20-01-54_260595134347_rgbf000051-resize_4-target.png,125,3.7310000000000003,6,2047,116,meters,jsons/VE125_randls_21.json,602739,737525,35,Woman
122,189617,DepthScenes,duration_manipulation_targetAtFixation,jsons/VE125_randls_21.json,http://54.235.29.9/FacialAge/BNav_EC2/DepthDuration/v2_depth_duration_MTurk/v2_DepthDuration_HTML.html#407,407,1366,615,1366,768,8-29-2022,12-29-5,123,depth_duration_stimuli/001167_2014-06-17_15-38-07_260595134347_rgbf000108-resize_0/001167_2014-06-17_15-38-07_260595134347_rgbf000108-resize_0-target.png,125,1.8505,6,2383,115,meters,jsons/VE125_randls_21.json,602739,737525,35,Woman
123,189617,DepthScenes,duration_manipulation_targetAtFixation,jsons/VE125_randls_21.json,http://54.235.29.9/FacialAge/BNav_EC2/DepthDuration/v2_depth_duration_MTurk/v2_DepthDuration_HTML.html#407,407,1366,615,1366,768,8-29-2022,12-29-5,124,depth_duration_stimuli/003587_2014-05-23_16-48-02_094959634447_rgbf002384-resize_2/003587_2014-05-23_16-48-02_094959634447_rgbf002384-resize_2-target.png,125,1.357,7,2257,122,meters,jsons/VE125_randls_21.json,602739,737525,35,Woman
124,189617,DepthScenes,duration_manipulation_targetAtFixation,jsons/VE125_randls_21.json,http://54.235.29.9/FacialAge/BNav_EC2/DepthDuration/v2_depth_duration_MTurk/v2_DepthDuration_HTML.html#407,407,1366,615,1366,768,8-29-2022,12-29-5,125,depth_duration_stimuli/002748_2014-06-22_19-07-22_094959634447_rgbf000078-resize_1/002748_2014-06-22_19-07-22_094959634447_rgbf000078-resize_1-target.png,125,4.6705,6,2229,115,meters,jsons/VE125_randls_21.json,602739,737525,35,Woman
125,189617,DepthScenes,duration_manipulation_targetAtFixation,jsons/VE125_randls_21.json,http://54.235.29.9/FacialAge/BNav_EC2/DepthDuration/v2_depth_duration_MTurk/v2_DepthDuration_HTML.html#407,407,1366,615,1366,768,8-29-2022,12-29-5,126,depth_duration_stimuli/002995_2014-06-15_12-31-26_094959634447_rgbf000150-resize_1/002995_2014-06-15_12-31-26_094959634447_rgbf000150-resize_1-target.png,125,3.8360000000000003,5,1977,116,meters,jsons/VE125_randls_21.json,602739,737525,35,Woman
126,189617,DepthScenes,duration_manipulation_targetAtFixation,jsons/VE125_randls_21.json,http://54.235.29.9/FacialAge/BNav_EC2/DepthDuration/v2_depth_duration_MTurk/v2_DepthDuration_HTML.html#407,407,1366,615,1366,768,8-29-2022,12-29-5,127,depth_duration_stimuli/002989_2014-06-15_12-25-03_094959634447_rgbf000150-resize_3/002989_2014-06-15_12-25-03_094959634447_rgbf000150-resize_3-target.png,125,4.1975,6,2110,131,meters,jsons/VE125_randls_21.json,602739,737525,35,Woman
127,189617,DepthScenes,duration_manipulation_targetAtFixation,jsons/VE125_randls_21.json,http://54.235.29.9/FacialAge/BNav_EC2/DepthDuration/v2_depth_duration_MTurk/v2_DepthDuration_HTML.html#407,407,1366,615,1366,768,8-29-2022,12-29-5,128,depth_duration_stimuli/000866_2014-06-09_20-45-42_260595134347_rgbf000139-resize_1/000866_2014-06-09_20-45-42_260595134347_rgbf000139-resize_1-target.png,125,3.2155,5,1921,123,meters,jsons/VE125_randls_21.json,602739,737525,35,Woman
128,189617,DepthScenes,duration_manipulation_targetAtFixation,jsons/VE125_randls_21.json,http://54.235.29.9/FacialAge/BNav_EC2/DepthDuration/v2_depth_duration_MTurk/v2_DepthDuration_HTML.html#407,407,1366,615,1366,768,8-29-2022,12-29-5,129,depth_duration_stimuli/001029_2014-06-08_13-17-57_260595134347_rgbf000065-resize_1/001029_2014-06-08_13-17-57_260595134347_rgbf000065-resize_1-target.png,125,3.0835,6,23366,131,meters,jsons/VE125_randls_21.json,602739,737525,35,Woman
129,189617,DepthScenes,duration_manipulation_targetAtFixation,jsons/VE125_randls_21.json,http://54.235.29.9/FacialAge/BNav_EC2/DepthDuration/v2_depth_duration_MTurk/v2_DepthDuration_HTML.html#407,407,1366,615,1366,768,8-29-2022,12-29-5,130,depth_duration_stimuli/000677_2014-06-08_23-10-32_260595134347_rgbf000158-resize_6/000677_2014-06-08_23-10-32_260595134347_rgbf000158-resize_6-target.png,125,3.556,7,11800,122,meters,jsons/VE125_randls_21.json,602739,737525,35,Woman
130,189617,DepthScenes,duration_manipulation_targetAtFixation,jsons/VE125_randls_21.json,http://54.235.29.9/FacialAge/BNav_EC2/DepthDuration/v2_depth_duration_MTurk/v2_DepthDuration_HTML.html#407,407,1366,615,1366,768,8-29-2022,12-29-5,131,depth_duration_stimuli/000906_2014-06-08_13-35-43_260595134347_rgbf000155-resize_1/000906_2014-06-08_13-35-43_260595134347_rgbf000155-resize_1-target.png,125,2.8489999999999998,6,1978,117,meters,jsons/VE125_randls_21.json,602739,737525,35,Woman
131,189617,DepthScenes,duration_manipulation_targetAtFixation,jsons/VE125_randls_21.json,http://54.235.29.9/FacialAge/BNav_EC2/DepthDuration/v2_depth_duration_MTurk/v2_DepthDuration_HTML.html#407,407,1366,615,1366,768,8-29-2022,12-29-5,132,depth_duration_stimuli/002805_2014-06-22_19-54-03_094959634447_rgbf000079-resize_1/002805_2014-06-22_19-54-03_094959634447_rgbf000079-resize_1-target.png,125,3.1439999999999997,7,3585,122,meters,jsons/VE125_randls_21.json,602739,737525,35,Woman
132,189617,DepthScenes,duration_manipulation_targetAtFixation,jsons/VE125_randls_21.json,http://54.235.29.9/FacialAge/BNav_EC2/DepthDuration/v2_depth_duration_MTurk/v2_DepthDuration_HTML.html#407,407,1366,615,1366,768,8-29-2022,12-29-5,133,depth_duration_stimuli/001417_2014-06-19_16-25-36_260595134347_rgbf000115-resize_5/001417_2014-06-19_16-25-36_260595134347_rgbf000115-resize_5-target.png,125,4.6255,6,2856,136,meters,jsons/VE125_randls_21.json,602739,737525,35,Woman
133,189617,DepthScenes,duration_manipulation_targetAtFixation,jsons/VE125_randls_21.json,http://54.235.29.9/FacialAge/BNav_EC2/DepthDuration/v2_depth_duration_MTurk/v2_DepthDuration_HTML.html#407,407,1366,615,1366,768,8-29-2022,12-29-5,134,depth_duration_stimuli/003081_2014-06-15_15-19-16_094959634447_rgbf000150-resize_1/003081_2014-06-15_15-19-16_094959634447_rgbf000150-resize_1-target.png,125,3.9125,7,2831,131,meters,jsons/VE125_randls_21.json,602739,737525,35,Woman
134,189617,DepthScenes,duration_manipulation_targetAtFixation,jsons/VE125_randls_21.json,http://54.235.29.9/FacialAge/BNav_EC2/DepthDuration/v2_depth_duration_MTurk/v2_DepthDuration_HTML.html#407,407,1366,615,1366,768,8-29-2022,12-29-5,135,depth_duration_stimuli/002072_2014-06-24_21-48-06_260595134347_rgbf000115-resize_0/002072_2014-06-24_21-48-06_260595134347_rgbf000115-resize-original.jpg,125,4.702,4,2489,109,meters,jsons/VE125_randls_21.json,602739,737525,35,Woman
135,189617,DepthScenes,duration_manipulation_targetAtFixation,jsons/VE125_randls_21.json,http://54.235.29.9/FacialAge/BNav_EC2/DepthDuration/v2_depth_duration_MTurk/v2_DepthDuration_HTML.html#407,407,1366,615,1366,768,8-29-2022,12-29-5,136,depth_duration_stimuli/000486_2014-06-09_20-47-20_260595134347_rgbf000143-resize_2/000486_2014-06-09_20-47-20_260595134347_rgbf000143-resize_2-target.png,125,4.8325,5,5133,122,meters,jsons/VE125_randls_21.json,602739,737525,35,Woman
136,189617,DepthScenes,duration_manipulation_targetAtFixation,jsons/VE125_randls_21.json,http://54.235.29.9/FacialAge/BNav_EC2/DepthDuration/v2_depth_duration_MTurk/v2_DepthDuration_HTML.html#407,407,1366,615,1366,768,8-29-2022,12-29-5,137,depth_duration_stimuli/003083_2014-06-15_15-21-03_094959634447_rgbf000063-resize_1/003083_2014-06-15_15-21-03_094959634447_rgbf000063-resize_1-target.png,125,4.1405,4,2349,116,meters,jsons/VE125_randls_21.json,602739,737525,35,Woman
137,189617,DepthScenes,duration_manipulation_targetAtFixation,jsons/VE125_randls_21.json,http://54.235.29.9/FacialAge/BNav_EC2/DepthDuration/v2_depth_duration_MTurk/v2_DepthDuration_HTML.html#407,407,1366,615,1366,768,8-29-2022,12-29-5,138,depth_duration_stimuli/002043_2014-06-24_20-29-38_260595134347_rgbf000039-resize_4/002043_2014-06-24_20-29-38_260595134347_rgbf000039-resize_4-target.png,125,2.8435,3,3205,123,meters,jsons/VE125_randls_21.json,602739,737525,35,Woman
138,189617,DepthScenes,duration_manipulation_targetAtFixation,jsons/VE125_randls_21.json,http://54.235.29.9/FacialAge/BNav_EC2/DepthDuration/v2_depth_duration_MTurk/v2_DepthDuration_HTML.html#407,407,1366,615,1366,768,8-29-2022,12-29-5,139,depth_duration_stimuli/003048_2014-06-15_13-49-43_094959634447_rgbf000150-resize_1/003048_2014-06-15_13-49-43_094959634447_rgbf000150-resize_1-target.png,125,4.0035,4,2549,127,meters,jsons/VE125_randls_21.json,602739,737525,35,Woman
139,189617,DepthScenes,duration_manipulation_targetAtFixation,jsons/VE125_randls_21.json,http://54.235.29.9/FacialAge/BNav_EC2/DepthDuration/v2_depth_duration_MTurk/v2_DepthDuration_HTML.html#407,407,1366,615,1366,768,8-29-2022,12-29-5,140,depth_duration_stimuli/002213_2014-06-28_18-37-58_260595134347_rgbf000055-resize_1/002213_2014-06-28_18-37-58_260595134347_rgbf000055-resize_1-target.png,125,3.62,0,2757,116,meters,jsons/VE125_randls_21.json,602739,737525,35,Woman
140,189617,DepthScenes,duration_manipulation_targetAtFixation,jsons/VE125_randls_21.json,http://54.235.29.9/FacialAge/BNav_EC2/DepthDuration/v2_depth_duration_MTurk/v2_DepthDuration_HTML.html#407,407,1366,615,1366,768,8-29-2022,12-29-5,141,depth_duration_stimuli/000691_2014-06-08_13-08-50_260595134347_rgbf000132-resize_3/000691_2014-06-08_13-08-50_260595134347_rgbf000132-resize_3-target.png,125,4.1530000000000005,8,2928,137,meters,jsons/VE125_randls_21.json,602739,737525,35,Woman
141,189617,DepthScenes,duration_manipulation_targetAtFixation,jsons/VE125_randls_21.json,http://54.235.29.9/FacialAge/BNav_EC2/DepthDuration/v2_depth_duration_MTurk/v2_DepthDuration_HTML.html#407,407,1366,615,1366,768,8-29-2022,12-29-5,142,depth_duration_stimuli/001806_2014-06-26_20-50-20_260595134347_rgbf000091-resize_1/001806_2014-06-26_20-50-20_260595134347_rgbf000091-resize_1-target.png,125,2.7305,4,2191,119,meters,jsons/VE125_randls_21.json,602739,737525,35,Woman
142,189617,DepthScenes,duration_manipulation_targetAtFixation,jsons/VE125_randls_21.json,http://54.235.29.9/FacialAge/BNav_EC2/DepthDuration/v2_depth_duration_MTurk/v2_DepthDuration_HTML.html#407,407,1366,615,1366,768,8-29-2022,12-29-5,143,depth_duration_stimuli/001617_2014-06-20_11-35-32_260595134347_rgbf000066-resize_1/001617_2014-06-20_11-35-32_260595134347_rgbf000066-resize_1-target.png,125,3.7910000000000004,6,2225,115,meters,jsons/VE125_randls_21.json,602739,737525,35,Woman
143,189617,DepthScenes,duration_manipulation_targetAtFixation,jsons/VE125_randls_21.json,http://54.235.29.9/FacialAge/BNav_EC2/DepthDuration/v2_depth_duration_MTurk/v2_DepthDuration_HTML.html#407,407,1366,615,1366,768,8-29-2022,12-29-5,144,depth_duration_stimuli/000506_2014-06-08_23-21-00_260595134347_rgbf000070-resize_7/000506_2014-06-08_23-21-00_260595134347_rgbf000070-resize_7-target.png,125,4.0585,6,2432,116,meters,jsons/VE125_randls_21.json,602739,737525,35,Woman
144,189617,DepthScenes,duration_manipulation_targetAtFixation,jsons/VE125_randls_21.json,http://54.235.29.9/FacialAge/BNav_EC2/DepthDuration/v2_depth_duration_MTurk/v2_DepthDuration_HTML.html#407,407,1366,615,1366,768,8-29-2022,12-29-5,145,depth_duration_stimuli/003079_2014-06-15_15-18-20_094959634447_rgbf000152-resize_8/003079_2014-06-15_15-18-20_094959634447_rgbf000152-resize_8-target.png,125,2.8775,5,7214,114,meters,jsons/VE125_randls_21.json,602739,737525,35,Woman
145,189617,DepthScenes,duration_manipulation_targetAtFixation,jsons/VE125_randls_21.json,http://54.235.29.9/FacialAge/BNav_EC2/DepthDuration/v2_depth_duration_MTurk/v2_DepthDuration_HTML.html#407,407,1366,615,1366,768,8-29-2022,12-29-5,146,depth_duration_stimuli/001498_2014-06-19_17-45-14_260595134347_rgbf000129-resize_4/001498_2014-06-19_17-45-14_260595134347_rgbf000129-resize-original.jpg,125,1.4075,6,2024,122,meters,jsons/VE125_randls_21.json,602739,737525,35,Woman
146,189617,DepthScenes,duration_manipulation_targetAtFixation,jsons/VE125_randls_21.json,http://54.235.29.9/FacialAge/BNav_EC2/DepthDuration/v2_depth_duration_MTurk/v2_DepthDuration_HTML.html#407,407,1366,615,1366,768,8-29-2022,12-29-5,147,depth_duration_stimuli/002784_2014-06-22_19-26-30_094959634447_rgbf000083-resize_3/002784_2014-06-22_19-26-30_094959634447_rgbf000083-resize_3-target.png,125,1.8046666666667,4,2075,131,meters,jsons/VE125_randls_21.json,602739,737525,35,Woman
147,189617,DepthScenes,duration_manipulation_targetAtFixation,jsons/VE125_randls_21.json,http://54.235.29.9/FacialAge/BNav_EC2/DepthDuration/v2_depth_duration_MTurk/v2_DepthDuration_HTML.html#407,407,1366,615,1366,768,8-29-2022,12-29-5,148,depth_duration_stimuli/001100_2014-06-15_17-46-26_260595134347_rgbf000225-resize_2/001100_2014-06-15_17-46-26_260595134347_rgbf000225-resize_2-target.png,125,2.24,7,2901,122,meters,jsons/VE125_randls_21.json,602739,737525,35,Woman
148,189617,DepthScenes,duration_manipulation_targetAtFixation,jsons/VE125_randls_21.json,http://54.235.29.9/FacialAge/BNav_EC2/DepthDuration/v2_depth_duration_MTurk/v2_DepthDuration_HTML.html#407,407,1366,615,1366,768,8-29-2022,12-29-5,149,depth_duration_stimuli/000692_2014-06-08_13-09-42_260595134347_rgbf000199-resize_2/000692_2014-06-08_13-09-42_260595134347_rgbf000199-resize_2-target.png,125,3.661,3,4469,138,meters,jsons/VE125_randls_21.json,602739,737525,35,Woman
149,189617,DepthScenes,duration_manipulation_targetAtFixation,jsons/VE125_randls_21.json,http://54.235.29.9/FacialAge/BNav_EC2/DepthDuration/v2_depth_duration_MTurk/v2_DepthDuration_HTML.html#407,407,1366,615,1366,768,8-29-2022,12-29-5,150,depth_duration_stimuli/001094_2014-06-15_17-36-00_260595134347_rgbf000205-resize_0/001094_2014-06-15_17-36-00_260595134347_rgbf000205-resize_0-target.png,125,4.2175,4,3077,125,meters,jsons/VE125_randls_21.json,602739,737525,35,Woman
150,189617,DepthScenes,duration_manipulation_targetAtFixation,jsons/VE125_randls_21.json,http://54.235.29.9/FacialAge/BNav_EC2/DepthDuration/v2_depth_duration_MTurk/v2_DepthDuration_HTML.html#407,407,1366,615,1366,768,8-29-2022,12-29-5,151,depth_duration_stimuli/001199_2014-06-17_16-03-48_260595134347_rgbf000077-resize_0/001199_2014-06-17_16-03-48_260595134347_rgbf000077-resize_0-target.png,125,3.4375,2,2298,115,meters,jsons/VE125_randls_21.json,602739,737525,35,Woman
151,189617,DepthScenes,duration_manipulation_targetAtFixation,jsons/VE125_randls_21.json,http://54.235.29.9/FacialAge/BNav_EC2/DepthDuration/v2_depth_duration_MTurk/v2_DepthDuration_HTML.html#407,407,1366,615,1366,768,8-29-2022,12-29-5,152,depth_duration_stimuli/000502_2014-06-08_23-02-32_260595134347_rgbf000063-resize_4/000502_2014-06-08_23-02-32_260595134347_rgbf000063-resize_4-target.png,125,2.431,4,2058,116,meters,jsons/VE125_randls_21.json,602739,737525,35,Woman
152,189617,DepthScenes,duration_manipulation_targetAtFixation,jsons/VE125_randls_21.json,http://54.235.29.9/FacialAge/BNav_EC2/DepthDuration/v2_depth_duration_MTurk/v2_DepthDuration_HTML.html#407,407,1366,615,1366,768,8-29-2022,12-29-5,153,depth_duration_stimuli/002630_2014-06-24_14-47-50_094959634447_rgbf000055-resize_1/002630_2014-06-24_14-47-50_094959634447_rgbf000055-resize_1-target.png,125,3.0095,5,2839,116,meters,jsons/VE125_randls_21.json,602739,737525,35,Woman
153,189617,DepthScenes,duration_manipulation_targetAtFixation,jsons/VE125_randls_21.json,http://54.235.29.9/FacialAge/BNav_EC2/DepthDuration/v2_depth_duration_MTurk/v2_DepthDuration_HTML.html#407,407,1366,615,1366,768,8-29-2022,12-29-5,154,depth_duration_stimuli/002758_2014-06-22_19-11-20_094959634447_rgbf000128-resize_1/002758_2014-06-22_19-11-20_094959634447_rgbf000128-resize_1-target.png,125,2.555,5,2414,131,meters,jsons/VE125_randls_21.json,602739,737525,35,Woman
154,189617,DepthScenes,duration_manipulation_targetAtFixation,jsons/VE125_randls_21.json,http://54.235.29.9/FacialAge/BNav_EC2/DepthDuration/v2_depth_duration_MTurk/v2_DepthDuration_HTML.html#407,407,1366,615,1366,768,8-29-2022,12-29-5,155,depth_duration_stimuli/000810_2014-06-08_17-20-01_260595134347_rgbf000105-resize_0/000810_2014-06-08_17-20-01_260595134347_rgbf000105-resize_0-target.png,125,1.4865,4,5511,130,meters,jsons/VE125_randls_21.json,602739,737525,35,Woman
155,189617,DepthScenes,duration_manipulation_targetAtFixation,jsons/VE125_randls_21.json,http://54.235.29.9/FacialAge/BNav_EC2/DepthDuration/v2_depth_duration_MTurk/v2_DepthDuration_HTML.html#407,407,1366,615,1366,768,8-29-2022,12-29-5,156,depth_duration_stimuli/001214_2014-06-17_16-13-55_260595134347_rgbf000111-resize_0/001214_2014-06-17_16-13-55_260595134347_rgbf000111-resize_0-target.png,125,2.6505,7,3921,122,meters,jsons/VE125_randls_21.json,602739,737525,35,Woman
156,189617,DepthScenes,duration_manipulation_targetAtFixation,jsons/VE125_randls_21.json,http://54.235.29.9/FacialAge/BNav_EC2/DepthDuration/v2_depth_duration_MTurk/v2_DepthDuration_HTML.html#407,407,1366,615,1366,768,8-29-2022,12-29-5,157,depth_duration_stimuli/000929_2014-06-09_16-33-19_260595134347_rgbf000139-resize_0/000929_2014-06-09_16-33-19_260595134347_rgbf000139-resize_0-target.png,125,2.8680000000000003,3,3001,124,meters,jsons/VE125_randls_21.json,602739,737525,35,Woman
157,189617,DepthScenes,duration_manipulation_targetAtFixation,jsons/VE125_randls_21.json,http://54.235.29.9/FacialAge/BNav_EC2/DepthDuration/v2_depth_duration_MTurk/v2_DepthDuration_HTML.html#407,407,1366,615,1366,768,8-29-2022,12-29-5,158,depth_duration_stimuli/000457_2014-06-08_16-52-43_260595134347_rgbf000199-resize_1/000457_2014-06-08_16-52-43_260595134347_rgbf000199-resize_1-target.png,125,3.6489999999999996,4,4739,138,meters,jsons/VE125_randls_21.json,602739,737525,35,Woman
158,189617,DepthScenes,duration_manipulation_targetAtFixation,jsons/VE125_randls_21.json,http://54.235.29.9/FacialAge/BNav_EC2/DepthDuration/v2_depth_duration_MTurk/v2_DepthDuration_HTML.html#407,407,1366,615,1366,768,8-29-2022,12-29-5,159,depth_duration_stimuli/002279_2014-06-28_18-55-32_260595134347_rgbf000040-resize_5/002279_2014-06-28_18-55-32_260595134347_rgbf000040-resize_5-target.png,125,1.5043333333333,4,2013,122,meters,jsons/VE125_randls_21.json,602739,737525,35,Woman
159,189617,DepthScenes,duration_manipulation_targetAtFixation,jsons/VE125_randls_21.json,http://54.235.29.9/FacialAge/BNav_EC2/DepthDuration/v2_depth_duration_MTurk/v2_DepthDuration_HTML.html#407,407,1366,615,1366,768,8-29-2022,12-29-5,160,depth_duration_stimuli/000635_2014-06-08_16-38-42_260595134347_rgbf000106-resize_1/000635_2014-06-08_16-38-42_260595134347_rgbf000106-resize_1-target.png,125,2.074,5,1955,122,meters,jsons/VE125_randls_21.json,602739,737525,35,Woman
160,189617,DepthScenes,duration_manipulation_targetAtFixation,jsons/VE125_randls_21.json,http://54.235.29.9/FacialAge/BNav_EC2/DepthDuration/v2_depth_duration_MTurk/v2_DepthDuration_HTML.html#407,407,1366,615,1366,768,8-29-2022,12-29-5,161,depth_duration_stimuli/000414_2014-06-04_19-49-13_260595134347_rgbf000044-resize_0/000414_2014-06-04_19-49-13_260595134347_rgbf000044-resize_0-target.png,125,4.329,2,3653,130,meters,jsons/VE125_randls_21.json,602739,737525,35,Woman
161,189617,DepthScenes,duration_manipulation_targetAtFixation,jsons/VE125_randls_21.json,http://54.235.29.9/FacialAge/BNav_EC2/DepthDuration/v2_depth_duration_MTurk/v2_DepthDuration_HTML.html#407,407,1366,615,1366,768,8-29-2022,12-29-5,162,depth_duration_stimuli/003129_2014-05-12_10-48-10_094959634447_rgbf000100-resize_0/003129_2014-05-12_10-48-10_094959634447_rgbf000100-resize_0-target.png,125,4.9305,8,3572,121,meters,jsons/VE125_randls_21.json,602739,737525,35,Woman
162,189617,DepthScenes,duration_manipulation_targetAtFixation,jsons/VE125_randls_21.json,http://54.235.29.9/FacialAge/BNav_EC2/DepthDuration/v2_depth_duration_MTurk/v2_DepthDuration_HTML.html#407,407,1366,615,1366,768,8-29-2022,12-29-5,163,depth_duration_stimuli/000522_2014-06-08_13-35-06_260595134347_rgbf000244-resize_1/000522_2014-06-08_13-35-06_260595134347_rgbf000244-resize_1-target.png,125,2.3715,4,2627,133,meters,jsons/VE125_randls_21.json,602739,737525,35,Woman
163,189617,DepthScenes,duration_manipulation_targetAtFixation,jsons/VE125_randls_21.json,http://54.235.29.9/FacialAge/BNav_EC2/DepthDuration/v2_depth_duration_MTurk/v2_DepthDuration_HTML.html#407,407,1366,615,1366,768,8-29-2022,12-29-5,164,depth_duration_stimuli/002949_2014-06-26_15-57-42_094959634447_rgbf000079-resize_1/002949_2014-06-26_15-57-42_094959634447_rgbf000079-resize_1-target.png,125,1.8915,4,2682,134,meters,jsons/VE125_randls_21.json,602739,737525,35,Woman
