,subjID,experimentName,versionName,sequenceName,url,selected_row,windowWidth,windowHeight,screenWidth,screenHeight,startDate,startTime,trial,stimulus,duration,actual_depth,depth_estimate,trial_RT,log_sceneDuration,unitSelection,seq_filepath,experimentTime,totalTime,age,gender
0,191217,DepthScenes,duration_manipulation_targetAtFixation,jsons/v1_VE1000_randls_77.json,http://54.235.29.9/FacialAge/BNav_EC2/DepthDuration/v2_depth_duration_MTurk/v2_DepthDuration_HTML.html#17,17,1920,937,1920,1080,8-22-2022,7-10-38,1,depth_duration_stimuli/000436_2014-06-09_22-25-11_260595134347_rgbf000137-resize_1/000436_2014-06-09_22-25-11_260595134347_rgbf000137-resize_1-target.png,1000,4.0705,10,6505,1001,feet,jsons/v1_VE1000_randls_77.json,798844,1017085,50,Woman
1,191217,DepthScenes,duration_manipulation_targetAtFixation,jsons/v1_VE1000_randls_77.json,http://54.235.29.9/FacialAge/BNav_EC2/DepthDuration/v2_depth_duration_MTurk/v2_DepthDuration_HTML.html#17,17,1920,937,1920,1080,8-22-2022,7-10-38,2,depth_duration_stimuli/002444_2014-06-28_20-32-08_260595134347_rgbf000027-resize_0/002444_2014-06-28_20-32-08_260595134347_rgbf000027-resize_0-target.png,1000,4.388999999999999,8,4379,999,feet,jsons/v1_VE1000_randls_77.json,798844,1017085,50,Woman
2,191217,DepthScenes,duration_manipulation_targetAtFixation,jsons/v1_VE1000_randls_77.json,http://54.235.29.9/FacialAge/BNav_EC2/DepthDuration/v2_depth_duration_MTurk/v2_DepthDuration_HTML.html#17,17,1920,937,1920,1080,8-22-2022,7-10-38,3,depth_duration_stimuli/001092_2014-06-15_17-34-58_260595134347_rgbf000171-resize_3/001092_2014-06-15_17-34-58_260595134347_rgbf000171-resize_3-target.png,1000,2.6935,6,4029,999,feet,jsons/v1_VE1000_randls_77.json,798844,1017085,50,Woman
3,191217,DepthScenes,duration_manipulation_targetAtFixation,jsons/v1_VE1000_randls_77.json,http://54.235.29.9/FacialAge/BNav_EC2/DepthDuration/v2_depth_duration_MTurk/v2_DepthDuration_HTML.html#17,17,1920,937,1920,1080,8-22-2022,7-10-38,4,depth_duration_stimuli/002545_2014-06-24_13-38-53_094959634447_rgbf000080-resize_4/002545_2014-06-24_13-38-53_094959634447_rgbf000080-resize_4-target.png,1000,1.9205,5,4569,985,feet,jsons/v1_VE1000_randls_77.json,798844,1017085,50,Woman
4,191217,DepthScenes,duration_manipulation_targetAtFixation,jsons/v1_VE1000_randls_77.json,http://54.235.29.9/FacialAge/BNav_EC2/DepthDuration/v2_depth_duration_MTurk/v2_DepthDuration_HTML.html#17,17,1920,937,1920,1080,8-22-2022,7-10-38,5,depth_duration_stimuli/001059_2014-06-08_21-53-27_260595134347_rgbf000061-resize_4/001059_2014-06-08_21-53-27_260595134347_rgbf000061-resize_4-target.png,1000,2.4185,7,5228,1008,feet,jsons/v1_VE1000_randls_77.json,798844,1017085,50,Woman
5,191217,DepthScenes,duration_manipulation_targetAtFixation,jsons/v1_VE1000_randls_77.json,http://54.235.29.9/FacialAge/BNav_EC2/DepthDuration/v2_depth_duration_MTurk/v2_DepthDuration_HTML.html#17,17,1920,937,1920,1080,8-22-2022,7-10-38,6,depth_duration_stimuli/001032_2014-06-08_13-23-17_260595134347_rgbf000021-resize_3/001032_2014-06-08_13-23-17_260595134347_rgbf000021-resize_3-target.png,1000,3.2725,8,4963,1000,feet,jsons/v1_VE1000_randls_77.json,798844,1017085,50,Woman
6,191217,DepthScenes,duration_manipulation_targetAtFixation,jsons/v1_VE1000_randls_77.json,http://54.235.29.9/FacialAge/BNav_EC2/DepthDuration/v2_depth_duration_MTurk/v2_DepthDuration_HTML.html#17,17,1920,937,1920,1080,8-22-2022,7-10-38,7,depth_duration_stimuli/002057_2014-06-24_21-00-13_260595134347_rgbf000120-resize_1/002057_2014-06-24_21-00-13_260595134347_rgbf000120-resize_1-target.png,1000,2.967,10,6048,989,feet,jsons/v1_VE1000_randls_77.json,798844,1017085,50,Woman
7,191217,DepthScenes,duration_manipulation_targetAtFixation,jsons/v1_VE1000_randls_77.json,http://54.235.29.9/FacialAge/BNav_EC2/DepthDuration/v2_depth_duration_MTurk/v2_DepthDuration_HTML.html#17,17,1920,937,1920,1080,8-22-2022,7-10-38,8,depth_duration_stimuli/000709_2014-06-08_13-51-55_260595134347_rgbf000068-resize_3/000709_2014-06-08_13-51-55_260595134347_rgbf000068-resize_3-target.png,1000,1.8030000000000002,6,5115,1005,feet,jsons/v1_VE1000_randls_77.json,798844,1017085,50,Woman
8,191217,DepthScenes,duration_manipulation_targetAtFixation,jsons/v1_VE1000_randls_77.json,http://54.235.29.9/FacialAge/BNav_EC2/DepthDuration/v2_depth_duration_MTurk/v2_DepthDuration_HTML.html#17,17,1920,937,1920,1080,8-22-2022,7-10-38,9,depth_duration_stimuli/001570_2014-06-20_17-21-09_260595134347_rgbf000135-resize_4/001570_2014-06-20_17-21-09_260595134347_rgbf000135-resize_4-target.png,1000,4.467,10,4651,1014,feet,jsons/v1_VE1000_randls_77.json,798844,1017085,50,Woman
9,191217,DepthScenes,duration_manipulation_targetAtFixation,jsons/v1_VE1000_randls_77.json,http://54.235.29.9/FacialAge/BNav_EC2/DepthDuration/v2_depth_duration_MTurk/v2_DepthDuration_HTML.html#17,17,1920,937,1920,1080,8-22-2022,7-10-38,10,depth_duration_stimuli/001392_2014-06-19_16-07-59_260595134347_rgbf000046-resize_1/001392_2014-06-19_16-07-59_260595134347_rgbf000046-resize_1-target.png,1000,4.135,12,4489,1006,feet,jsons/v1_VE1000_randls_77.json,798844,1017085,50,Woman
10,191217,DepthScenes,duration_manipulation_targetAtFixation,jsons/v1_VE1000_randls_77.json,http://54.235.29.9/FacialAge/BNav_EC2/DepthDuration/v2_depth_duration_MTurk/v2_DepthDuration_HTML.html#17,17,1920,937,1920,1080,8-22-2022,7-10-38,11,depth_duration_stimuli/002905_2014-06-03_18-04-43_094959634447_rgbf000151-resize_2/002905_2014-06-03_18-04-43_094959634447_rgbf000151-resize_2-target.png,1000,2.0295,4,5461,1009,feet,jsons/v1_VE1000_randls_77.json,798844,1017085,50,Woman
11,191217,DepthScenes,duration_manipulation_targetAtFixation,jsons/v1_VE1000_randls_77.json,http://54.235.29.9/FacialAge/BNav_EC2/DepthDuration/v2_depth_duration_MTurk/v2_DepthDuration_HTML.html#17,17,1920,937,1920,1080,8-22-2022,7-10-38,12,depth_duration_stimuli/003423_2014-05-21_10-23-26_094959634447_rgbf002665-resize_2/003423_2014-05-21_10-23-26_094959634447_rgbf002665-resize_2-target.png,1000,3.2575,7,5181,1009,feet,jsons/v1_VE1000_randls_77.json,798844,1017085,50,Woman
12,191217,DepthScenes,duration_manipulation_targetAtFixation,jsons/v1_VE1000_randls_77.json,http://54.235.29.9/FacialAge/BNav_EC2/DepthDuration/v2_depth_duration_MTurk/v2_DepthDuration_HTML.html#17,17,1920,937,1920,1080,8-22-2022,7-10-38,13,depth_duration_stimuli/000569_2014-06-09_22-51-47_260595134347_rgbf000141-resize_3/000569_2014-06-09_22-51-47_260595134347_rgbf000141-resize-original.jpg,1000,4.512,0,3839,986,feet,jsons/v1_VE1000_randls_77.json,798844,1017085,50,Woman
13,191217,DepthScenes,duration_manipulation_targetAtFixation,jsons/v1_VE1000_randls_77.json,http://54.235.29.9/FacialAge/BNav_EC2/DepthDuration/v2_depth_duration_MTurk/v2_DepthDuration_HTML.html#17,17,1920,937,1920,1080,8-22-2022,7-10-38,14,depth_duration_stimuli/000810_2014-06-08_17-20-01_260595134347_rgbf000105-resize_0/000810_2014-06-08_17-20-01_260595134347_rgbf000105-resize_0-target.png,1000,1.4865,7,6566,1001,feet,jsons/v1_VE1000_randls_77.json,798844,1017085,50,Woman
14,191217,DepthScenes,duration_manipulation_targetAtFixation,jsons/v1_VE1000_randls_77.json,http://54.235.29.9/FacialAge/BNav_EC2/DepthDuration/v2_depth_duration_MTurk/v2_DepthDuration_HTML.html#17,17,1920,937,1920,1080,8-22-2022,7-10-38,15,depth_duration_stimuli/001214_2014-06-17_16-13-55_260595134347_rgbf000111-resize_0/001214_2014-06-17_16-13-55_260595134347_rgbf000111-resize_0-target.png,1000,2.6505,5,4192,995,feet,jsons/v1_VE1000_randls_77.json,798844,1017085,50,Woman
15,191217,DepthScenes,duration_manipulation_targetAtFixation,jsons/v1_VE1000_randls_77.json,http://54.235.29.9/FacialAge/BNav_EC2/DepthDuration/v2_depth_duration_MTurk/v2_DepthDuration_HTML.html#17,17,1920,937,1920,1080,8-22-2022,7-10-38,16,depth_duration_stimuli/001167_2014-06-17_15-38-07_260595134347_rgbf000108-resize_0/001167_2014-06-17_15-38-07_260595134347_rgbf000108-resize_0-target.png,1000,1.8505,4,4997,961,feet,jsons/v1_VE1000_randls_77.json,798844,1017085,50,Woman
16,191217,DepthScenes,duration_manipulation_targetAtFixation,jsons/v1_VE1000_randls_77.json,http://54.235.29.9/FacialAge/BNav_EC2/DepthDuration/v2_depth_duration_MTurk/v2_DepthDuration_HTML.html#17,17,1920,937,1920,1080,8-22-2022,7-10-38,17,depth_duration_stimuli/003587_2014-05-23_16-48-02_094959634447_rgbf002384-resize_2/003587_2014-05-23_16-48-02_094959634447_rgbf002384-resize_2-target.png,1000,1.357,3,3582,1006,feet,jsons/v1_VE1000_randls_77.json,798844,1017085,50,Woman
17,191217,DepthScenes,duration_manipulation_targetAtFixation,jsons/v1_VE1000_randls_77.json,http://54.235.29.9/FacialAge/BNav_EC2/DepthDuration/v2_depth_duration_MTurk/v2_DepthDuration_HTML.html#17,17,1920,937,1920,1080,8-22-2022,7-10-38,18,depth_duration_stimuli/000522_2014-06-08_13-35-06_260595134347_rgbf000244-resize_1/000522_2014-06-08_13-35-06_260595134347_rgbf000244-resize_1-target.png,1000,2.3715,2,4910,1010,feet,jsons/v1_VE1000_randls_77.json,798844,1017085,50,Woman
18,191217,DepthScenes,duration_manipulation_targetAtFixation,jsons/v1_VE1000_randls_77.json,http://54.235.29.9/FacialAge/BNav_EC2/DepthDuration/v2_depth_duration_MTurk/v2_DepthDuration_HTML.html#17,17,1920,937,1920,1080,8-22-2022,7-10-38,19,depth_duration_stimuli/002949_2014-06-26_15-57-42_094959634447_rgbf000079-resize_1/002949_2014-06-26_15-57-42_094959634447_rgbf000079-resize_1-target.png,1000,1.8915,4,3878,916,feet,jsons/v1_VE1000_randls_77.json,798844,1017085,50,Woman
19,191217,DepthScenes,duration_manipulation_targetAtFixation,jsons/v1_VE1000_randls_77.json,http://54.235.29.9/FacialAge/BNav_EC2/DepthDuration/v2_depth_duration_MTurk/v2_DepthDuration_HTML.html#17,17,1920,937,1920,1080,8-22-2022,7-10-38,20,depth_duration_stimuli/000414_2014-06-04_19-49-13_260595134347_rgbf000044-resize_0/000414_2014-06-04_19-49-13_260595134347_rgbf000044-resize_0-target.png,1000,4.329,9,4782,1005,feet,jsons/v1_VE1000_randls_77.json,798844,1017085,50,Woman
20,191217,DepthScenes,duration_manipulation_targetAtFixation,jsons/v1_VE1000_randls_77.json,http://54.235.29.9/FacialAge/BNav_EC2/DepthDuration/v2_depth_duration_MTurk/v2_DepthDuration_HTML.html#17,17,1920,937,1920,1080,8-22-2022,7-10-38,21,depth_duration_stimuli/003129_2014-05-12_10-48-10_094959634447_rgbf000100-resize_0/003129_2014-05-12_10-48-10_094959634447_rgbf000100-resize_0-target.png,1000,4.9305,12,5770,997,feet,jsons/v1_VE1000_randls_77.json,798844,1017085,50,Woman
21,191217,DepthScenes,duration_manipulation_targetAtFixation,jsons/v1_VE1000_randls_77.json,http://54.235.29.9/FacialAge/BNav_EC2/DepthDuration/v2_depth_duration_MTurk/v2_DepthDuration_HTML.html#17,17,1920,937,1920,1080,8-22-2022,7-10-38,22,depth_duration_stimuli/002570_2014-06-24_13-59-54_094959634447_rgbf000059-resize_0/002570_2014-06-24_13-59-54_094959634447_rgbf000059-resize_0-target.png,1000,4.037,10,8446,1020,feet,jsons/v1_VE1000_randls_77.json,798844,1017085,50,Woman
22,191217,DepthScenes,duration_manipulation_targetAtFixation,jsons/v1_VE1000_randls_77.json,http://54.235.29.9/FacialAge/BNav_EC2/DepthDuration/v2_depth_duration_MTurk/v2_DepthDuration_HTML.html#17,17,1920,937,1920,1080,8-22-2022,7-10-38,23,depth_duration_stimuli/002467_2014-06-28_20-38-07_260595134347_rgbf000026-resize_2/002467_2014-06-28_20-38-07_260595134347_rgbf000026-resize_2-target.png,1000,4.742,8,5219,996,feet,jsons/v1_VE1000_randls_77.json,798844,1017085,50,Woman
23,191217,DepthScenes,duration_manipulation_targetAtFixation,jsons/v1_VE1000_randls_77.json,http://54.235.29.9/FacialAge/BNav_EC2/DepthDuration/v2_depth_duration_MTurk/v2_DepthDuration_HTML.html#17,17,1920,937,1920,1080,8-22-2022,7-10-38,24,depth_duration_stimuli/003292_2014-05-14_21-53-49_094959634447_rgbf000100-resize_2/003292_2014-05-14_21-53-49_094959634447_rgbf000100-resize_2-target.png,1000,3.4815,5,4028,1008,feet,jsons/v1_VE1000_randls_77.json,798844,1017085,50,Woman
24,191217,DepthScenes,duration_manipulation_targetAtFixation,jsons/v1_VE1000_randls_77.json,http://54.235.29.9/FacialAge/BNav_EC2/DepthDuration/v2_depth_duration_MTurk/v2_DepthDuration_HTML.html#17,17,1920,937,1920,1080,8-22-2022,7-10-38,25,depth_duration_stimuli/002639_2014-06-24_14-51-37_094959634447_rgbf000074-resize_4/002639_2014-06-24_14-51-37_094959634447_rgbf000074-resize_4-target.png,1000,4.0375,6,4738,1012,feet,jsons/v1_VE1000_randls_77.json,798844,1017085,50,Woman
25,191217,DepthScenes,duration_manipulation_targetAtFixation,jsons/v1_VE1000_randls_77.json,http://54.235.29.9/FacialAge/BNav_EC2/DepthDuration/v2_depth_duration_MTurk/v2_DepthDuration_HTML.html#17,17,1920,937,1920,1080,8-22-2022,7-10-38,26,depth_duration_stimuli/002748_2014-06-22_19-07-22_094959634447_rgbf000078-resize_1/002748_2014-06-22_19-07-22_094959634447_rgbf000078-resize_1-target.png,1000,4.6705,9,6968,996,feet,jsons/v1_VE1000_randls_77.json,798844,1017085,50,Woman
26,191217,DepthScenes,duration_manipulation_targetAtFixation,jsons/v1_VE1000_randls_77.json,http://54.235.29.9/FacialAge/BNav_EC2/DepthDuration/v2_depth_duration_MTurk/v2_DepthDuration_HTML.html#17,17,1920,937,1920,1080,8-22-2022,7-10-38,27,depth_duration_stimuli/002995_2014-06-15_12-31-26_094959634447_rgbf000150-resize_1/002995_2014-06-15_12-31-26_094959634447_rgbf000150-resize_1-target.png,1000,3.8360000000000003,7,4383,1003,feet,jsons/v1_VE1000_randls_77.json,798844,1017085,50,Woman
27,191217,DepthScenes,duration_manipulation_targetAtFixation,jsons/v1_VE1000_randls_77.json,http://54.235.29.9/FacialAge/BNav_EC2/DepthDuration/v2_depth_duration_MTurk/v2_DepthDuration_HTML.html#17,17,1920,937,1920,1080,8-22-2022,7-10-38,28,depth_duration_stimuli/001016_2014-06-09_16-16-10_260595134347_rgbf000112-resize_5/001016_2014-06-09_16-16-10_260595134347_rgbf000112-resize_5-target.png,1000,1.6565,5,5030,987,feet,jsons/v1_VE1000_randls_77.json,798844,1017085,50,Woman
28,191217,DepthScenes,duration_manipulation_targetAtFixation,jsons/v1_VE1000_randls_77.json,http://54.235.29.9/FacialAge/BNav_EC2/DepthDuration/v2_depth_duration_MTurk/v2_DepthDuration_HTML.html#17,17,1920,937,1920,1080,8-22-2022,7-10-38,29,depth_duration_stimuli/002340_2014-06-28_20-05-46_260595134347_rgbf000113-resize_0/002340_2014-06-28_20-05-46_260595134347_rgbf000113-resize_0-target.png,1000,2.4735,8,4136,996,feet,jsons/v1_VE1000_randls_77.json,798844,1017085,50,Woman
29,191217,DepthScenes,duration_manipulation_targetAtFixation,jsons/v1_VE1000_randls_77.json,http://54.235.29.9/FacialAge/BNav_EC2/DepthDuration/v2_depth_duration_MTurk/v2_DepthDuration_HTML.html#17,17,1920,937,1920,1080,8-22-2022,7-10-38,30,depth_duration_stimuli/000375_2014-06-08_11-17-29_260595134347_rgbf000133-resize_2/000375_2014-06-08_11-17-29_260595134347_rgbf000133-resize-original.jpg,1000,4.718,0,3921,1002,feet,jsons/v1_VE1000_randls_77.json,798844,1017085,50,Woman
30,191217,DepthScenes,duration_manipulation_targetAtFixation,jsons/v1_VE1000_randls_77.json,http://54.235.29.9/FacialAge/BNav_EC2/DepthDuration/v2_depth_duration_MTurk/v2_DepthDuration_HTML.html#17,17,1920,937,1920,1080,8-22-2022,7-10-38,31,depth_duration_stimuli/001417_2014-06-19_16-25-36_260595134347_rgbf000115-resize_5/001417_2014-06-19_16-25-36_260595134347_rgbf000115-resize_5-target.png,1000,4.6255,8,7102,999,feet,jsons/v1_VE1000_randls_77.json,798844,1017085,50,Woman
31,191217,DepthScenes,duration_manipulation_targetAtFixation,jsons/v1_VE1000_randls_77.json,http://54.235.29.9/FacialAge/BNav_EC2/DepthDuration/v2_depth_duration_MTurk/v2_DepthDuration_HTML.html#17,17,1920,937,1920,1080,8-22-2022,7-10-38,32,depth_duration_stimuli/003081_2014-06-15_15-19-16_094959634447_rgbf000150-resize_1/003081_2014-06-15_15-19-16_094959634447_rgbf000150-resize_1-target.png,1000,3.9125,10,4506,1009,feet,jsons/v1_VE1000_randls_77.json,798844,1017085,50,Woman
32,191217,DepthScenes,duration_manipulation_targetAtFixation,jsons/v1_VE1000_randls_77.json,http://54.235.29.9/FacialAge/BNav_EC2/DepthDuration/v2_depth_duration_MTurk/v2_DepthDuration_HTML.html#17,17,1920,937,1920,1080,8-22-2022,7-10-38,33,depth_duration_stimuli/000788_2014-06-08_22-34-36_260595134347_rgbf000131-resize_1/000788_2014-06-08_22-34-36_260595134347_rgbf000131-resize_1-target.png,1000,3.359,9,4655,993,feet,jsons/v1_VE1000_randls_77.json,798844,1017085,50,Woman
33,191217,DepthScenes,duration_manipulation_targetAtFixation,jsons/v1_VE1000_randls_77.json,http://54.235.29.9/FacialAge/BNav_EC2/DepthDuration/v2_depth_duration_MTurk/v2_DepthDuration_HTML.html#17,17,1920,937,1920,1080,8-22-2022,7-10-38,34,depth_duration_stimuli/001235_2014-06-17_16-37-36_260595134347_rgbf000084-resize_4/001235_2014-06-17_16-37-36_260595134347_rgbf000084-resize_4-target.png,1000,3.6605,8,4187,1005,feet,jsons/v1_VE1000_randls_77.json,798844,1017085,50,Woman
34,191217,DepthScenes,duration_manipulation_targetAtFixation,jsons/v1_VE1000_randls_77.json,http://54.235.29.9/FacialAge/BNav_EC2/DepthDuration/v2_depth_duration_MTurk/v2_DepthDuration_HTML.html#17,17,1920,937,1920,1080,8-22-2022,7-10-38,35,depth_duration_stimuli/002989_2014-06-15_12-25-03_094959634447_rgbf000150-resize_3/002989_2014-06-15_12-25-03_094959634447_rgbf000150-resize_3-target.png,1000,4.1975,11,3929,998,feet,jsons/v1_VE1000_randls_77.json,798844,1017085,50,Woman
35,191217,DepthScenes,duration_manipulation_targetAtFixation,jsons/v1_VE1000_randls_77.json,http://54.235.29.9/FacialAge/BNav_EC2/DepthDuration/v2_depth_duration_MTurk/v2_DepthDuration_HTML.html#17,17,1920,937,1920,1080,8-22-2022,7-10-38,36,depth_duration_stimuli/000866_2014-06-09_20-45-42_260595134347_rgbf000139-resize_1/000866_2014-06-09_20-45-42_260595134347_rgbf000139-resize_1-target.png,1000,3.2155,7,5171,1003,feet,jsons/v1_VE1000_randls_77.json,798844,1017085,50,Woman
36,191217,DepthScenes,duration_manipulation_targetAtFixation,jsons/v1_VE1000_randls_77.json,http://54.235.29.9/FacialAge/BNav_EC2/DepthDuration/v2_depth_duration_MTurk/v2_DepthDuration_HTML.html#17,17,1920,937,1920,1080,8-22-2022,7-10-38,37,depth_duration_stimuli/001244_2014-06-17_16-47-45_260595134347_rgbf000030-resize_4/001244_2014-06-17_16-47-45_260595134347_rgbf000030-resize_4-target.png,1000,2.0425,4,4393,993,feet,jsons/v1_VE1000_randls_77.json,798844,1017085,50,Woman
37,191217,DepthScenes,duration_manipulation_targetAtFixation,jsons/v1_VE1000_randls_77.json,http://54.235.29.9/FacialAge/BNav_EC2/DepthDuration/v2_depth_duration_MTurk/v2_DepthDuration_HTML.html#17,17,1920,937,1920,1080,8-22-2022,7-10-38,38,depth_duration_stimuli/003495_2014-05-21_16-01-51_094959634447_rgbf000100-resize_3/003495_2014-05-21_16-01-51_094959634447_rgbf000100-resize_3-target.png,1000,1.6255,3,5708,999,feet,jsons/v1_VE1000_randls_77.json,798844,1017085,50,Woman
38,191217,DepthScenes,duration_manipulation_targetAtFixation,jsons/v1_VE1000_randls_77.json,http://54.235.29.9/FacialAge/BNav_EC2/DepthDuration/v2_depth_duration_MTurk/v2_DepthDuration_HTML.html#17,17,1920,937,1920,1080,8-22-2022,7-10-38,39,depth_duration_stimuli/002213_2014-06-28_18-37-58_260595134347_rgbf000055-resize_1/002213_2014-06-28_18-37-58_260595134347_rgbf000055-resize_1-target.png,1000,3.62,10,4809,1011,feet,jsons/v1_VE1000_randls_77.json,798844,1017085,50,Woman
39,191217,DepthScenes,duration_manipulation_targetAtFixation,jsons/v1_VE1000_randls_77.json,http://54.235.29.9/FacialAge/BNav_EC2/DepthDuration/v2_depth_duration_MTurk/v2_DepthDuration_HTML.html#17,17,1920,937,1920,1080,8-22-2022,7-10-38,40,depth_duration_stimuli/000691_2014-06-08_13-08-50_260595134347_rgbf000132-resize_3/000691_2014-06-08_13-08-50_260595134347_rgbf000132-resize_3-target.png,1000,4.1530000000000005,10,4268,996,feet,jsons/v1_VE1000_randls_77.json,798844,1017085,50,Woman
40,191217,DepthScenes,duration_manipulation_targetAtFixation,jsons/v1_VE1000_randls_77.json,http://54.235.29.9/FacialAge/BNav_EC2/DepthDuration/v2_depth_duration_MTurk/v2_DepthDuration_HTML.html#17,17,1920,937,1920,1080,8-22-2022,7-10-38,41,depth_duration_stimuli/000486_2014-06-09_20-47-20_260595134347_rgbf000143-resize_2/000486_2014-06-09_20-47-20_260595134347_rgbf000143-resize_2-target.png,1000,4.8325,12,4055,996,feet,jsons/v1_VE1000_randls_77.json,798844,1017085,50,Woman
41,191217,DepthScenes,duration_manipulation_targetAtFixation,jsons/v1_VE1000_randls_77.json,http://54.235.29.9/FacialAge/BNav_EC2/DepthDuration/v2_depth_duration_MTurk/v2_DepthDuration_HTML.html#17,17,1920,937,1920,1080,8-22-2022,7-10-38,42,depth_duration_stimuli/003083_2014-06-15_15-21-03_094959634447_rgbf000063-resize_1/003083_2014-06-15_15-21-03_094959634447_rgbf000063-resize_1-target.png,1000,4.1405,9,4749,994,feet,jsons/v1_VE1000_randls_77.json,798844,1017085,50,Woman
42,191217,DepthScenes,duration_manipulation_targetAtFixation,jsons/v1_VE1000_randls_77.json,http://54.235.29.9/FacialAge/BNav_EC2/DepthDuration/v2_depth_duration_MTurk/v2_DepthDuration_HTML.html#17,17,1920,937,1920,1080,8-22-2022,7-10-38,43,depth_duration_stimuli/002279_2014-06-28_18-55-32_260595134347_rgbf000040-resize_5/002279_2014-06-28_18-55-32_260595134347_rgbf000040-resize_5-target.png,1000,1.5043333333333,4,3802,995,feet,jsons/v1_VE1000_randls_77.json,798844,1017085,50,Woman
43,191217,DepthScenes,duration_manipulation_targetAtFixation,jsons/v1_VE1000_randls_77.json,http://54.235.29.9/FacialAge/BNav_EC2/DepthDuration/v2_depth_duration_MTurk/v2_DepthDuration_HTML.html#17,17,1920,937,1920,1080,8-22-2022,7-10-38,44,depth_duration_stimuli/000635_2014-06-08_16-38-42_260595134347_rgbf000106-resize_1/000635_2014-06-08_16-38-42_260595134347_rgbf000106-resize_1-target.png,1000,2.074,7,3767,1003,feet,jsons/v1_VE1000_randls_77.json,798844,1017085,50,Woman
44,191217,DepthScenes,duration_manipulation_targetAtFixation,jsons/v1_VE1000_randls_77.json,http://54.235.29.9/FacialAge/BNav_EC2/DepthDuration/v2_depth_duration_MTurk/v2_DepthDuration_HTML.html#17,17,1920,937,1920,1080,8-22-2022,7-10-38,45,depth_duration_stimuli/000787_2014-06-08_22-33-53_260595134347_rgbf000175-resize_1/000787_2014-06-08_22-33-53_260595134347_rgbf000175-resize-original.jpg,1000,4.784,0,3872,993,feet,jsons/v1_VE1000_randls_77.json,798844,1017085,50,Woman
45,191217,DepthScenes,duration_manipulation_targetAtFixation,jsons/v1_VE1000_randls_77.json,http://54.235.29.9/FacialAge/BNav_EC2/DepthDuration/v2_depth_duration_MTurk/v2_DepthDuration_HTML.html#17,17,1920,937,1920,1080,8-22-2022,7-10-38,46,depth_duration_stimuli/001808_2014-06-26_20-50-58_260595134347_rgbf000029-resize_1/001808_2014-06-26_20-50-58_260595134347_rgbf000029-resize_1-target.png,1000,4.249,8,4108,975,feet,jsons/v1_VE1000_randls_77.json,798844,1017085,50,Woman
46,191217,DepthScenes,duration_manipulation_targetAtFixation,jsons/v1_VE1000_randls_77.json,http://54.235.29.9/FacialAge/BNav_EC2/DepthDuration/v2_depth_duration_MTurk/v2_DepthDuration_HTML.html#17,17,1920,937,1920,1080,8-22-2022,7-10-38,47,depth_duration_stimuli/001815_2014-06-26_20-52-55_260595134347_rgbf000020-resize_0/001815_2014-06-26_20-52-55_260595134347_rgbf000020-resize_0-target.png,1000,3.3865,6,4453,983,feet,jsons/v1_VE1000_randls_77.json,798844,1017085,50,Woman
47,191217,DepthScenes,duration_manipulation_targetAtFixation,jsons/v1_VE1000_randls_77.json,http://54.235.29.9/FacialAge/BNav_EC2/DepthDuration/v2_depth_duration_MTurk/v2_DepthDuration_HTML.html#17,17,1920,937,1920,1080,8-22-2022,7-10-38,48,depth_duration_stimuli/002118_2014-06-25_20-32-08_260595134347_rgbf000078-resize_1/002118_2014-06-25_20-32-08_260595134347_rgbf000078-resize_1-target.png,1000,2.6460000000000004,4,3885,983,feet,jsons/v1_VE1000_randls_77.json,798844,1017085,50,Woman
48,191217,DepthScenes,duration_manipulation_targetAtFixation,jsons/v1_VE1000_randls_77.json,http://54.235.29.9/FacialAge/BNav_EC2/DepthDuration/v2_depth_duration_MTurk/v2_DepthDuration_HTML.html#17,17,1920,937,1920,1080,8-22-2022,7-10-38,49,depth_duration_stimuli/001516_2014-06-20_16-25-09_260595134347_rgbf000076-resize_2/001516_2014-06-20_16-25-09_260595134347_rgbf000076-resize_2-target.png,1000,1.7445,7,4327,974,feet,jsons/v1_VE1000_randls_77.json,798844,1017085,50,Woman
49,191217,DepthScenes,duration_manipulation_targetAtFixation,jsons/v1_VE1000_randls_77.json,http://54.235.29.9/FacialAge/BNav_EC2/DepthDuration/v2_depth_duration_MTurk/v2_DepthDuration_HTML.html#17,17,1920,937,1920,1080,8-22-2022,7-10-38,50,depth_duration_stimuli/001133_2014-06-17_14-49-16_260595134347_rgbf000100-resize_0/001133_2014-06-17_14-49-16_260595134347_rgbf000100-resize_0-target.png,1000,4.2115,11,4038,1006,feet,jsons/v1_VE1000_randls_77.json,798844,1017085,50,Woman
50,191217,DepthScenes,duration_manipulation_targetAtFixation,jsons/v1_VE1000_randls_77.json,http://54.235.29.9/FacialAge/BNav_EC2/DepthDuration/v2_depth_duration_MTurk/v2_DepthDuration_HTML.html#17,17,1920,937,1920,1080,8-22-2022,7-10-38,51,depth_duration_stimuli/001132_2014-06-17_14-48-54_260595134347_rgbf000100-resize_2/001132_2014-06-17_14-48-54_260595134347_rgbf000100-resize_2-target.png,1000,3.753,10,4379,990,feet,jsons/v1_VE1000_randls_77.json,798844,1017085,50,Woman
51,191217,DepthScenes,duration_manipulation_targetAtFixation,jsons/v1_VE1000_randls_77.json,http://54.235.29.9/FacialAge/BNav_EC2/DepthDuration/v2_depth_duration_MTurk/v2_DepthDuration_HTML.html#17,17,1920,937,1920,1080,8-22-2022,7-10-38,52,depth_duration_stimuli/001810_2014-06-26_20-51-35_260595134347_rgbf000040-resize_3/001810_2014-06-26_20-51-35_260595134347_rgbf000040-resize_3-target.png,1000,2.2525,6,3716,999,feet,jsons/v1_VE1000_randls_77.json,798844,1017085,50,Woman
52,191217,DepthScenes,duration_manipulation_targetAtFixation,jsons/v1_VE1000_randls_77.json,http://54.235.29.9/FacialAge/BNav_EC2/DepthDuration/v2_depth_duration_MTurk/v2_DepthDuration_HTML.html#17,17,1920,937,1920,1080,8-22-2022,7-10-38,53,depth_duration_stimuli/003010_2014-06-15_12-54-35_094959634447_rgbf000112-resize_0/003010_2014-06-15_12-54-35_094959634447_rgbf000112-resize_0-target.png,1000,3.1185,10,6032,998,feet,jsons/v1_VE1000_randls_77.json,798844,1017085,50,Woman
53,191217,DepthScenes,duration_manipulation_targetAtFixation,jsons/v1_VE1000_randls_77.json,http://54.235.29.9/FacialAge/BNav_EC2/DepthDuration/v2_depth_duration_MTurk/v2_DepthDuration_HTML.html#17,17,1920,937,1920,1080,8-22-2022,7-10-38,54,depth_duration_stimuli/000739_2014-06-08_18-45-58_260595134347_rgbf000068-resize_1/000739_2014-06-08_18-45-58_260595134347_rgbf000068-resize_1-target.png,1000,3.534,8,3823,997,feet,jsons/v1_VE1000_randls_77.json,798844,1017085,50,Woman
54,191217,DepthScenes,duration_manipulation_targetAtFixation,jsons/v1_VE1000_randls_77.json,http://54.235.29.9/FacialAge/BNav_EC2/DepthDuration/v2_depth_duration_MTurk/v2_DepthDuration_HTML.html#17,17,1920,937,1920,1080,8-22-2022,7-10-38,55,depth_duration_stimuli/000734_2014-06-08_17-39-11_260595134347_rgbf000128-resize_2/000734_2014-06-08_17-39-11_260595134347_rgbf000128-resize_2-target.png,1000,4.098,7,3883,1005,feet,jsons/v1_VE1000_randls_77.json,798844,1017085,50,Woman
55,191217,DepthScenes,duration_manipulation_targetAtFixation,jsons/v1_VE1000_randls_77.json,http://54.235.29.9/FacialAge/BNav_EC2/DepthDuration/v2_depth_duration_MTurk/v2_DepthDuration_HTML.html#17,17,1920,937,1920,1080,8-22-2022,7-10-38,56,depth_duration_stimuli/003070_2014-06-15_14-58-27_094959634447_rgbf000150-resize_3/003070_2014-06-15_14-58-27_094959634447_rgbf000150-resize_3-target.png,1000,2.9415,7,3801,985,feet,jsons/v1_VE1000_randls_77.json,798844,1017085,50,Woman
56,191217,DepthScenes,duration_manipulation_targetAtFixation,jsons/v1_VE1000_randls_77.json,http://54.235.29.9/FacialAge/BNav_EC2/DepthDuration/v2_depth_duration_MTurk/v2_DepthDuration_HTML.html#17,17,1920,937,1920,1080,8-22-2022,7-10-38,57,depth_duration_stimuli/000943_2014-06-09_19-31-07_260595134347_rgbf000128-resize_1/000943_2014-06-09_19-31-07_260595134347_rgbf000128-resize_1-target.png,1000,1.9765,5,3889,996,feet,jsons/v1_VE1000_randls_77.json,798844,1017085,50,Woman
57,191217,DepthScenes,duration_manipulation_targetAtFixation,jsons/v1_VE1000_randls_77.json,http://54.235.29.9/FacialAge/BNav_EC2/DepthDuration/v2_depth_duration_MTurk/v2_DepthDuration_HTML.html#17,17,1920,937,1920,1080,8-22-2022,7-10-38,58,depth_duration_stimuli/002988_2014-06-15_12-24-20_094959634447_rgbf000150-resize_1/002988_2014-06-15_12-24-20_094959634447_rgbf000150-resize_1-target.png,1000,4.7669999999999995,10,4509,1003,feet,jsons/v1_VE1000_randls_77.json,798844,1017085,50,Woman
58,191217,DepthScenes,duration_manipulation_targetAtFixation,jsons/v1_VE1000_randls_77.json,http://54.235.29.9/FacialAge/BNav_EC2/DepthDuration/v2_depth_duration_MTurk/v2_DepthDuration_HTML.html#17,17,1920,937,1920,1080,8-22-2022,7-10-38,59,depth_duration_stimuli/001052_2014-06-08_18-24-54_260595134347_rgbf000130-resize_1/001052_2014-06-08_18-24-54_260595134347_rgbf000130-resize_1-target.png,1000,4.1045,10,4280,999,feet,jsons/v1_VE1000_randls_77.json,798844,1017085,50,Woman
59,191217,DepthScenes,duration_manipulation_targetAtFixation,jsons/v1_VE1000_randls_77.json,http://54.235.29.9/FacialAge/BNav_EC2/DepthDuration/v2_depth_duration_MTurk/v2_DepthDuration_HTML.html#17,17,1920,937,1920,1080,8-22-2022,7-10-38,60,depth_duration_stimuli/002039_2014-06-24_20-22-38_260595134347_rgbf000084-resize_1/002039_2014-06-24_20-22-38_260595134347_rgbf000084-resize_1-target.png,1000,4.408,12,3993,992,feet,jsons/v1_VE1000_randls_77.json,798844,1017085,50,Woman
60,191217,DepthScenes,duration_manipulation_targetAtFixation,jsons/v1_VE1000_randls_77.json,http://54.235.29.9/FacialAge/BNav_EC2/DepthDuration/v2_depth_duration_MTurk/v2_DepthDuration_HTML.html#17,17,1920,937,1920,1080,8-22-2022,7-10-38,61,depth_duration_stimuli/002103_2014-06-25_20-00-40_260595134347_rgbf000049-resize_0/002103_2014-06-25_20-00-40_260595134347_rgbf000049-resize_0-target.png,1000,4.105,11,3498,1003,feet,jsons/v1_VE1000_randls_77.json,798844,1017085,50,Woman
61,191217,DepthScenes,duration_manipulation_targetAtFixation,jsons/v1_VE1000_randls_77.json,http://54.235.29.9/FacialAge/BNav_EC2/DepthDuration/v2_depth_duration_MTurk/v2_DepthDuration_HTML.html#17,17,1920,937,1920,1080,8-22-2022,7-10-38,62,depth_duration_stimuli/001449_2014-06-19_17-01-27_260595134347_rgbf000116-resize_2/001449_2014-06-19_17-01-27_260595134347_rgbf000116-resize_2-target.png,1000,3.452,9,4115,1006,feet,jsons/v1_VE1000_randls_77.json,798844,1017085,50,Woman
62,191217,DepthScenes,duration_manipulation_targetAtFixation,jsons/v1_VE1000_randls_77.json,http://54.235.29.9/FacialAge/BNav_EC2/DepthDuration/v2_depth_duration_MTurk/v2_DepthDuration_HTML.html#17,17,1920,937,1920,1080,8-22-2022,7-10-38,63,depth_duration_stimuli/001450_2014-06-19_17-02-03_260595134347_rgbf000203-resize_4/001450_2014-06-19_17-02-03_260595134347_rgbf000203-resize_4-target.png,1000,4.0106666666667,11,4124,1007,feet,jsons/v1_VE1000_randls_77.json,798844,1017085,50,Woman
63,191217,DepthScenes,duration_manipulation_targetAtFixation,jsons/v1_VE1000_randls_77.json,http://54.235.29.9/FacialAge/BNav_EC2/DepthDuration/v2_depth_duration_MTurk/v2_DepthDuration_HTML.html#17,17,1920,937,1920,1080,8-22-2022,7-10-38,64,depth_duration_stimuli/002549_2014-06-24_13-41-39_094959634447_rgbf000022-resize_3/002549_2014-06-24_13-41-39_094959634447_rgbf000022-resize_3-target.png,1000,1.476,4,4351,997,feet,jsons/v1_VE1000_randls_77.json,798844,1017085,50,Woman
64,191217,DepthScenes,duration_manipulation_targetAtFixation,jsons/v1_VE1000_randls_77.json,http://54.235.29.9/FacialAge/BNav_EC2/DepthDuration/v2_depth_duration_MTurk/v2_DepthDuration_HTML.html#17,17,1920,937,1920,1080,8-22-2022,7-10-38,65,depth_duration_stimuli/002750_2014-06-22_19-08-03_094959634447_rgbf000094-resize_4/002750_2014-06-22_19-08-03_094959634447_rgbf000094-resize_4-target.png,1000,2.354,8,5195,988,feet,jsons/v1_VE1000_randls_77.json,798844,1017085,50,Woman
65,191217,DepthScenes,duration_manipulation_targetAtFixation,jsons/v1_VE1000_randls_77.json,http://54.235.29.9/FacialAge/BNav_EC2/DepthDuration/v2_depth_duration_MTurk/v2_DepthDuration_HTML.html#17,17,1920,937,1920,1080,8-22-2022,7-10-38,66,depth_duration_stimuli/001222_2014-06-17_16-24-06_260595134347_rgbf000073-resize_0/001222_2014-06-17_16-24-06_260595134347_rgbf000073-resize-original.jpg,1000,1.4385,0,3689,1009,feet,jsons/v1_VE1000_randls_77.json,798844,1017085,50,Woman
66,191217,DepthScenes,duration_manipulation_targetAtFixation,jsons/v1_VE1000_randls_77.json,http://54.235.29.9/FacialAge/BNav_EC2/DepthDuration/v2_depth_duration_MTurk/v2_DepthDuration_HTML.html#17,17,1920,937,1920,1080,8-22-2022,7-10-38,67,depth_duration_stimuli/001806_2014-06-26_20-50-20_260595134347_rgbf000091-resize_1/001806_2014-06-26_20-50-20_260595134347_rgbf000091-resize_1-target.png,1000,2.7305,4,4429,996,feet,jsons/v1_VE1000_randls_77.json,798844,1017085,50,Woman
67,191217,DepthScenes,duration_manipulation_targetAtFixation,jsons/v1_VE1000_randls_77.json,http://54.235.29.9/FacialAge/BNav_EC2/DepthDuration/v2_depth_duration_MTurk/v2_DepthDuration_HTML.html#17,17,1920,937,1920,1080,8-22-2022,7-10-38,68,depth_duration_stimuli/001617_2014-06-20_11-35-32_260595134347_rgbf000066-resize_1/001617_2014-06-20_11-35-32_260595134347_rgbf000066-resize_1-target.png,1000,3.7910000000000004,8,4033,986,feet,jsons/v1_VE1000_randls_77.json,798844,1017085,50,Woman
68,191217,DepthScenes,duration_manipulation_targetAtFixation,jsons/v1_VE1000_randls_77.json,http://54.235.29.9/FacialAge/BNav_EC2/DepthDuration/v2_depth_duration_MTurk/v2_DepthDuration_HTML.html#17,17,1920,937,1920,1080,8-22-2022,7-10-38,69,depth_duration_stimuli/000009_2014-05-26_14-32-05_260595134347_rgbf000034-resize_3/000009_2014-05-26_14-32-05_260595134347_rgbf000034-resize_3-target.png,1000,3.8715,9,5926,1009,feet,jsons/v1_VE1000_randls_77.json,798844,1017085,50,Woman
69,191217,DepthScenes,duration_manipulation_targetAtFixation,jsons/v1_VE1000_randls_77.json,http://54.235.29.9/FacialAge/BNav_EC2/DepthDuration/v2_depth_duration_MTurk/v2_DepthDuration_HTML.html#17,17,1920,937,1920,1080,8-22-2022,7-10-38,70,depth_duration_stimuli/001828_2014-06-26_21-40-03_260595134347_rgbf000024-resize_0/001828_2014-06-26_21-40-03_260595134347_rgbf000024-resize_0-target.png,1000,4.8260000000000005,11,3690,1001,feet,jsons/v1_VE1000_randls_77.json,798844,1017085,50,Woman
70,191217,DepthScenes,duration_manipulation_targetAtFixation,jsons/v1_VE1000_randls_77.json,http://54.235.29.9/FacialAge/BNav_EC2/DepthDuration/v2_depth_duration_MTurk/v2_DepthDuration_HTML.html#17,17,1920,937,1920,1080,8-22-2022,7-10-38,71,depth_duration_stimuli/000493_2014-06-09_21-01-18_260595134347_rgbf000196-resize_3/000493_2014-06-09_21-01-18_260595134347_rgbf000196-resize_3-target.png,1000,3.44,7,3965,1006,feet,jsons/v1_VE1000_randls_77.json,798844,1017085,50,Woman
71,191217,DepthScenes,duration_manipulation_targetAtFixation,jsons/v1_VE1000_randls_77.json,http://54.235.29.9/FacialAge/BNav_EC2/DepthDuration/v2_depth_duration_MTurk/v2_DepthDuration_HTML.html#17,17,1920,937,1920,1080,8-22-2022,7-10-38,72,depth_duration_stimuli/000191_2014-05-12_17-07-38_260595134347_rgbf000199-resize_0/000191_2014-05-12_17-07-38_260595134347_rgbf000199-resize_0-target.png,1000,3.7995,10,4666,994,feet,jsons/v1_VE1000_randls_77.json,798844,1017085,50,Woman
72,191217,DepthScenes,duration_manipulation_targetAtFixation,jsons/v1_VE1000_randls_77.json,http://54.235.29.9/FacialAge/BNav_EC2/DepthDuration/v2_depth_duration_MTurk/v2_DepthDuration_HTML.html#17,17,1920,937,1920,1080,8-22-2022,7-10-38,73,depth_duration_stimuli/000447_2014-06-08_16-15-46_260595134347_rgbf000130-resize_1/000447_2014-06-08_16-15-46_260595134347_rgbf000130-resize_1-target.png,1000,4.479,12,3970,1007,feet,jsons/v1_VE1000_randls_77.json,798844,1017085,50,Woman
73,191217,DepthScenes,duration_manipulation_targetAtFixation,jsons/v1_VE1000_randls_77.json,http://54.235.29.9/FacialAge/BNav_EC2/DepthDuration/v2_depth_duration_MTurk/v2_DepthDuration_HTML.html#17,17,1920,937,1920,1080,8-22-2022,7-10-38,74,depth_duration_stimuli/001447_2014-06-19_17-00-32_260595134347_rgbf000082-resize_5/001447_2014-06-19_17-00-32_260595134347_rgbf000082-resize_5-target.png,1000,4.13775,6,3645,991,feet,jsons/v1_VE1000_randls_77.json,798844,1017085,50,Woman
74,191217,DepthScenes,duration_manipulation_targetAtFixation,jsons/v1_VE1000_randls_77.json,http://54.235.29.9/FacialAge/BNav_EC2/DepthDuration/v2_depth_duration_MTurk/v2_DepthDuration_HTML.html#17,17,1920,937,1920,1080,8-22-2022,7-10-38,75,depth_duration_stimuli/001175_2014-06-17_15-45-55_260595134347_rgbf000129-resize_4/001175_2014-06-17_15-45-55_260595134347_rgbf000129-resize_4-target.png,1000,4.255,10,4387,1012,feet,jsons/v1_VE1000_randls_77.json,798844,1017085,50,Woman
75,191217,DepthScenes,duration_manipulation_targetAtFixation,jsons/v1_VE1000_randls_77.json,http://54.235.29.9/FacialAge/BNav_EC2/DepthDuration/v2_depth_duration_MTurk/v2_DepthDuration_HTML.html#17,17,1920,937,1920,1080,8-22-2022,7-10-38,76,depth_duration_stimuli/003490_2014-05-21_15-50-11_094959634447_rgbf000101-resize_3/003490_2014-05-21_15-50-11_094959634447_rgbf000101-resize_3-target.png,1000,3.6445,8,3731,998,feet,jsons/v1_VE1000_randls_77.json,798844,1017085,50,Woman
76,191217,DepthScenes,duration_manipulation_targetAtFixation,jsons/v1_VE1000_randls_77.json,http://54.235.29.9/FacialAge/BNav_EC2/DepthDuration/v2_depth_duration_MTurk/v2_DepthDuration_HTML.html#17,17,1920,937,1920,1080,8-22-2022,7-10-38,77,depth_duration_stimuli/000736_2014-06-08_18-24-15_260595134347_rgbf000206-resize_3/000736_2014-06-08_18-24-15_260595134347_rgbf000206-resize_3-target.png,1000,3.515,5,5576,1006,feet,jsons/v1_VE1000_randls_77.json,798844,1017085,50,Woman
77,191217,DepthScenes,duration_manipulation_targetAtFixation,jsons/v1_VE1000_randls_77.json,http://54.235.29.9/FacialAge/BNav_EC2/DepthDuration/v2_depth_duration_MTurk/v2_DepthDuration_HTML.html#17,17,1920,937,1920,1080,8-22-2022,7-10-38,78,depth_duration_stimuli/000137_2014-05-20_17-04-49_260595134347_rgbf000120-resize_1/000137_2014-05-20_17-04-49_260595134347_rgbf000120-resize_1-target.png,1000,3.786,9,3816,986,feet,jsons/v1_VE1000_randls_77.json,798844,1017085,50,Woman
78,191217,DepthScenes,duration_manipulation_targetAtFixation,jsons/v1_VE1000_randls_77.json,http://54.235.29.9/FacialAge/BNav_EC2/DepthDuration/v2_depth_duration_MTurk/v2_DepthDuration_HTML.html#17,17,1920,937,1920,1080,8-22-2022,7-10-38,79,depth_duration_stimuli/001199_2014-06-17_16-03-48_260595134347_rgbf000077-resize_0/001199_2014-06-17_16-03-48_260595134347_rgbf000077-resize_0-target.png,1000,3.4375,11,4121,998,feet,jsons/v1_VE1000_randls_77.json,798844,1017085,50,Woman
79,191217,DepthScenes,duration_manipulation_targetAtFixation,jsons/v1_VE1000_randls_77.json,http://54.235.29.9/FacialAge/BNav_EC2/DepthDuration/v2_depth_duration_MTurk/v2_DepthDuration_HTML.html#17,17,1920,937,1920,1080,8-22-2022,7-10-38,80,depth_duration_stimuli/000502_2014-06-08_23-02-32_260595134347_rgbf000063-resize_4/000502_2014-06-08_23-02-32_260595134347_rgbf000063-resize_4-target.png,1000,2.431,6,4335,1002,feet,jsons/v1_VE1000_randls_77.json,798844,1017085,50,Woman
80,191217,DepthScenes,duration_manipulation_targetAtFixation,jsons/v1_VE1000_randls_77.json,http://54.235.29.9/FacialAge/BNav_EC2/DepthDuration/v2_depth_duration_MTurk/v2_DepthDuration_HTML.html#17,17,1920,937,1920,1080,8-22-2022,7-10-38,81,depth_duration_stimuli/000469_2014-06-09_19-42-10_260595134347_rgbf000081-resize_1/000469_2014-06-09_19-42-10_260595134347_rgbf000081-resize_1-target.png,1000,1.652,3,3922,992,feet,jsons/v1_VE1000_randls_77.json,798844,1017085,50,Woman
81,191217,DepthScenes,duration_manipulation_targetAtFixation,jsons/v1_VE1000_randls_77.json,http://54.235.29.9/FacialAge/BNav_EC2/DepthDuration/v2_depth_duration_MTurk/v2_DepthDuration_HTML.html#17,17,1920,937,1920,1080,8-22-2022,7-10-38,82,depth_duration_stimuli/000483_2014-06-09_20-41-45_260595134347_rgbf000116-resize_4/000483_2014-06-09_20-41-45_260595134347_rgbf000116-resize_4-target.png,1000,1.337,2,3688,1003,feet,jsons/v1_VE1000_randls_77.json,798844,1017085,50,Woman
82,191217,DepthScenes,duration_manipulation_targetAtFixation,jsons/v1_VE1000_randls_77.json,http://54.235.29.9/FacialAge/BNav_EC2/DepthDuration/v2_depth_duration_MTurk/v2_DepthDuration_HTML.html#17,17,1920,937,1920,1080,8-22-2022,7-10-38,83,depth_duration_stimuli/002445_2014-06-28_20-32-16_260595134347_rgbf000029-resize_4/002445_2014-06-28_20-32-16_260595134347_rgbf000029-resize_4-target.png,1000,2.5315,3,3776,991,feet,jsons/v1_VE1000_randls_77.json,798844,1017085,50,Woman
83,191217,DepthScenes,duration_manipulation_targetAtFixation,jsons/v1_VE1000_randls_77.json,http://54.235.29.9/FacialAge/BNav_EC2/DepthDuration/v2_depth_duration_MTurk/v2_DepthDuration_HTML.html#17,17,1920,937,1920,1080,8-22-2022,7-10-38,84,depth_duration_stimuli/000780_2014-06-08_22-28-29_260595134347_rgbf000126-resize_1/000780_2014-06-08_22-28-29_260595134347_rgbf000126-resize_1-target.png,1000,3.3825,5,3580,1000,feet,jsons/v1_VE1000_randls_77.json,798844,1017085,50,Woman
84,191217,DepthScenes,duration_manipulation_targetAtFixation,jsons/v1_VE1000_randls_77.json,http://54.235.29.9/FacialAge/BNav_EC2/DepthDuration/v2_depth_duration_MTurk/v2_DepthDuration_HTML.html#17,17,1920,937,1920,1080,8-22-2022,7-10-38,85,depth_duration_stimuli/001029_2014-06-08_13-17-57_260595134347_rgbf000065-resize_1/001029_2014-06-08_13-17-57_260595134347_rgbf000065-resize_1-target.png,1000,3.0835,7,3954,1007,feet,jsons/v1_VE1000_randls_77.json,798844,1017085,50,Woman
85,191217,DepthScenes,duration_manipulation_targetAtFixation,jsons/v1_VE1000_randls_77.json,http://54.235.29.9/FacialAge/BNav_EC2/DepthDuration/v2_depth_duration_MTurk/v2_DepthDuration_HTML.html#17,17,1920,937,1920,1080,8-22-2022,7-10-38,86,depth_duration_stimuli/000677_2014-06-08_23-10-32_260595134347_rgbf000158-resize_6/000677_2014-06-08_23-10-32_260595134347_rgbf000158-resize_6-target.png,1000,3.556,8,3556,994,feet,jsons/v1_VE1000_randls_77.json,798844,1017085,50,Woman
86,191217,DepthScenes,duration_manipulation_targetAtFixation,jsons/v1_VE1000_randls_77.json,http://54.235.29.9/FacialAge/BNav_EC2/DepthDuration/v2_depth_duration_MTurk/v2_DepthDuration_HTML.html#17,17,1920,937,1920,1080,8-22-2022,7-10-38,87,depth_duration_stimuli/000692_2014-06-08_13-09-42_260595134347_rgbf000199-resize_2/000692_2014-06-08_13-09-42_260595134347_rgbf000199-resize_2-target.png,1000,3.661,9,3874,1001,feet,jsons/v1_VE1000_randls_77.json,798844,1017085,50,Woman
87,191217,DepthScenes,duration_manipulation_targetAtFixation,jsons/v1_VE1000_randls_77.json,http://54.235.29.9/FacialAge/BNav_EC2/DepthDuration/v2_depth_duration_MTurk/v2_DepthDuration_HTML.html#17,17,1920,937,1920,1080,8-22-2022,7-10-38,88,depth_duration_stimuli/001094_2014-06-15_17-36-00_260595134347_rgbf000205-resize_0/001094_2014-06-15_17-36-00_260595134347_rgbf000205-resize_0-target.png,1000,4.2175,8,5882,997,feet,jsons/v1_VE1000_randls_77.json,798844,1017085,50,Woman
88,191217,DepthScenes,duration_manipulation_targetAtFixation,jsons/v1_VE1000_randls_77.json,http://54.235.29.9/FacialAge/BNav_EC2/DepthDuration/v2_depth_duration_MTurk/v2_DepthDuration_HTML.html#17,17,1920,937,1920,1080,8-22-2022,7-10-38,89,depth_duration_stimuli/001164_2014-06-17_15-35-46_260595134347_rgbf000085-resize_3/001164_2014-06-17_15-35-46_260595134347_rgbf000085-resize_3-target.png,1000,2.354,6,3763,1006,feet,jsons/v1_VE1000_randls_77.json,798844,1017085,50,Woman
89,191217,DepthScenes,duration_manipulation_targetAtFixation,jsons/v1_VE1000_randls_77.json,http://54.235.29.9/FacialAge/BNav_EC2/DepthDuration/v2_depth_duration_MTurk/v2_DepthDuration_HTML.html#17,17,1920,937,1920,1080,8-22-2022,7-10-38,90,depth_duration_stimuli/001136_2014-06-17_15-19-41_260595134347_rgbf000076-resize_3/001136_2014-06-17_15-19-41_260595134347_rgbf000076-resize_3-target.png,1000,1.8655,5,3791,996,feet,jsons/v1_VE1000_randls_77.json,798844,1017085,50,Woman
90,191217,DepthScenes,duration_manipulation_targetAtFixation,jsons/v1_VE1000_randls_77.json,http://54.235.29.9/FacialAge/BNav_EC2/DepthDuration/v2_depth_duration_MTurk/v2_DepthDuration_HTML.html#17,17,1920,937,1920,1080,8-22-2022,7-10-38,91,depth_duration_stimuli/001066_2014-06-08_22-03-20_260595134347_rgbf000066-resize_4/001066_2014-06-08_22-03-20_260595134347_rgbf000066-resize_4-target.png,1000,4.2330000000000005,8,5202,998,feet,jsons/v1_VE1000_randls_77.json,798844,1017085,50,Woman
91,191217,DepthScenes,duration_manipulation_targetAtFixation,jsons/v1_VE1000_randls_77.json,http://54.235.29.9/FacialAge/BNav_EC2/DepthDuration/v2_depth_duration_MTurk/v2_DepthDuration_HTML.html#17,17,1920,937,1920,1080,8-22-2022,7-10-38,92,depth_duration_stimuli/000742_2014-06-08_18-48-09_260595134347_rgbf000164-resize_4/000742_2014-06-08_18-48-09_260595134347_rgbf000164-resize_4-target.png,1000,4.632,8,3928,1000,feet,jsons/v1_VE1000_randls_77.json,798844,1017085,50,Woman
92,191217,DepthScenes,duration_manipulation_targetAtFixation,jsons/v1_VE1000_randls_77.json,http://54.235.29.9/FacialAge/BNav_EC2/DepthDuration/v2_depth_duration_MTurk/v2_DepthDuration_HTML.html#17,17,1920,937,1920,1080,8-22-2022,7-10-38,93,depth_duration_stimuli/002763_2014-06-22_19-13-10_094959634447_rgbf000075-resize_4/002763_2014-06-22_19-13-10_094959634447_rgbf000075-resize_4-target.png,1000,1.68375,3,4396,992,feet,jsons/v1_VE1000_randls_77.json,798844,1017085,50,Woman
93,191217,DepthScenes,duration_manipulation_targetAtFixation,jsons/v1_VE1000_randls_77.json,http://54.235.29.9/FacialAge/BNav_EC2/DepthDuration/v2_depth_duration_MTurk/v2_DepthDuration_HTML.html#17,17,1920,937,1920,1080,8-22-2022,7-10-38,94,depth_duration_stimuli/002209_2014-06-28_18-36-10_260595134347_rgbf000051-resize_1/002209_2014-06-28_18-36-10_260595134347_rgbf000051-resize_1-target.png,1000,2.057,4,3602,998,feet,jsons/v1_VE1000_randls_77.json,798844,1017085,50,Woman
94,191217,DepthScenes,duration_manipulation_targetAtFixation,jsons/v1_VE1000_randls_77.json,http://54.235.29.9/FacialAge/BNav_EC2/DepthDuration/v2_depth_duration_MTurk/v2_DepthDuration_HTML.html#17,17,1920,937,1920,1080,8-22-2022,7-10-38,95,depth_duration_stimuli/003621_2014-05-23_18-06-08_094959634447_rgbf000101-resize_1/003621_2014-05-23_18-06-08_094959634447_rgbf000101-resize_1-target.png,1000,3.9835,8,3865,994,feet,jsons/v1_VE1000_randls_77.json,798844,1017085,50,Woman
95,191217,DepthScenes,duration_manipulation_targetAtFixation,jsons/v1_VE1000_randls_77.json,http://54.235.29.9/FacialAge/BNav_EC2/DepthDuration/v2_depth_duration_MTurk/v2_DepthDuration_HTML.html#17,17,1920,937,1920,1080,8-22-2022,7-10-38,96,depth_duration_stimuli/001584_2014-06-20_11-07-43_260595134347_rgbf000002-resize_1/001584_2014-06-20_11-07-43_260595134347_rgbf000002-resize_1-target.png,1000,3.53,7,8421,1002,feet,jsons/v1_VE1000_randls_77.json,798844,1017085,50,Woman
96,191217,DepthScenes,duration_manipulation_targetAtFixation,jsons/v1_VE1000_randls_77.json,http://54.235.29.9/FacialAge/BNav_EC2/DepthDuration/v2_depth_duration_MTurk/v2_DepthDuration_HTML.html#17,17,1920,937,1920,1080,8-22-2022,7-10-38,97,depth_duration_stimuli/002788_2014-06-22_19-36-03_094959634447_rgbf000088-resize_2/002788_2014-06-22_19-36-03_094959634447_rgbf000088-resize_2-target.png,1000,1.6465,6,3776,1014,feet,jsons/v1_VE1000_randls_77.json,798844,1017085,50,Woman
97,191217,DepthScenes,duration_manipulation_targetAtFixation,jsons/v1_VE1000_randls_77.json,http://54.235.29.9/FacialAge/BNav_EC2/DepthDuration/v2_depth_duration_MTurk/v2_DepthDuration_HTML.html#17,17,1920,937,1920,1080,8-22-2022,7-10-38,98,depth_duration_stimuli/000749_2014-06-08_21-55-06_260595134347_rgbf000070-resize_2/000749_2014-06-08_21-55-06_260595134347_rgbf000070-resize_2-target.png,1000,2.331,7,3682,998,feet,jsons/v1_VE1000_randls_77.json,798844,1017085,50,Woman
98,191217,DepthScenes,duration_manipulation_targetAtFixation,jsons/v1_VE1000_randls_77.json,http://54.235.29.9/FacialAge/BNav_EC2/DepthDuration/v2_depth_duration_MTurk/v2_DepthDuration_HTML.html#17,17,1920,937,1920,1080,8-22-2022,7-10-38,99,depth_duration_stimuli/001540_2014-06-20_17-01-05_260595134347_rgbf000086-resize_2/001540_2014-06-20_17-01-05_260595134347_rgbf000086-resize-original.jpg,1000,1.459,0,3785,990,feet,jsons/v1_VE1000_randls_77.json,798844,1017085,50,Woman
99,191217,DepthScenes,duration_manipulation_targetAtFixation,jsons/v1_VE1000_randls_77.json,http://54.235.29.9/FacialAge/BNav_EC2/DepthDuration/v2_depth_duration_MTurk/v2_DepthDuration_HTML.html#17,17,1920,937,1920,1080,8-22-2022,7-10-38,100,depth_duration_stimuli/001011_2014-06-08_23-18-54_260595134347_rgbf000044-resize_4/001011_2014-06-08_23-18-54_260595134347_rgbf000044-resize_4-target.png,1000,2.4730000000000003,8,4003,1006,feet,jsons/v1_VE1000_randls_77.json,798844,1017085,50,Woman
100,191217,DepthScenes,duration_manipulation_targetAtFixation,jsons/v1_VE1000_randls_77.json,http://54.235.29.9/FacialAge/BNav_EC2/DepthDuration/v2_depth_duration_MTurk/v2_DepthDuration_HTML.html#17,17,1920,937,1920,1080,8-22-2022,7-10-38,101,depth_duration_stimuli/002875_2014-06-01_15-19-00_094959634447_rgbf000151-resize_1/002875_2014-06-01_15-19-00_094959634447_rgbf000151-resize_1-target.png,1000,1.9675,6,4800,1003,feet,jsons/v1_VE1000_randls_77.json,798844,1017085,50,Woman
101,191217,DepthScenes,duration_manipulation_targetAtFixation,jsons/v1_VE1000_randls_77.json,http://54.235.29.9/FacialAge/BNav_EC2/DepthDuration/v2_depth_duration_MTurk/v2_DepthDuration_HTML.html#17,17,1920,937,1920,1080,8-22-2022,7-10-38,102,depth_duration_stimuli/000773_2014-06-08_22-24-54_260595134347_rgbf000093-resize_1/000773_2014-06-08_22-24-54_260595134347_rgbf000093-resize_1-target.png,1000,4.973,9,5434,1010,feet,jsons/v1_VE1000_randls_77.json,798844,1017085,50,Woman
102,191217,DepthScenes,duration_manipulation_targetAtFixation,jsons/v1_VE1000_randls_77.json,http://54.235.29.9/FacialAge/BNav_EC2/DepthDuration/v2_depth_duration_MTurk/v2_DepthDuration_HTML.html#17,17,1920,937,1920,1080,8-22-2022,7-10-38,103,depth_duration_stimuli/002414_2014-06-28_20-24-58_260595134347_rgbf000067-resize_4/002414_2014-06-28_20-24-58_260595134347_rgbf000067-resize_4-target.png,1000,4.363,7,4271,1005,feet,jsons/v1_VE1000_randls_77.json,798844,1017085,50,Woman
103,191217,DepthScenes,duration_manipulation_targetAtFixation,jsons/v1_VE1000_randls_77.json,http://54.235.29.9/FacialAge/BNav_EC2/DepthDuration/v2_depth_duration_MTurk/v2_DepthDuration_HTML.html#17,17,1920,937,1920,1080,8-22-2022,7-10-38,104,depth_duration_stimuli/000470_2014-06-09_19-42-40_260595134347_rgbf000094-resize_1/000470_2014-06-09_19-42-40_260595134347_rgbf000094-resize_1-target.png,1000,1.831,3,4067,999,feet,jsons/v1_VE1000_randls_77.json,798844,1017085,50,Woman
104,191217,DepthScenes,duration_manipulation_targetAtFixation,jsons/v1_VE1000_randls_77.json,http://54.235.29.9/FacialAge/BNav_EC2/DepthDuration/v2_depth_duration_MTurk/v2_DepthDuration_HTML.html#17,17,1920,937,1920,1080,8-22-2022,7-10-38,105,depth_duration_stimuli/000109_2014-05-14_23-41-52_260595134347_rgbf000035-resize_9/000109_2014-05-14_23-41-52_260595134347_rgbf000035-resize_9-target.png,1000,1.3545,2,3848,1022,feet,jsons/v1_VE1000_randls_77.json,798844,1017085,50,Woman
105,191217,DepthScenes,duration_manipulation_targetAtFixation,jsons/v1_VE1000_randls_77.json,http://54.235.29.9/FacialAge/BNav_EC2/DepthDuration/v2_depth_duration_MTurk/v2_DepthDuration_HTML.html#17,17,1920,937,1920,1080,8-22-2022,7-10-38,106,depth_duration_stimuli/002375_2014-06-28_20-13-44_260595134347_rgbf000032-resize_1/002375_2014-06-28_20-13-44_260595134347_rgbf000032-resize_1-target.png,1000,4.0175,4,4837,1000,feet,jsons/v1_VE1000_randls_77.json,798844,1017085,50,Woman
106,191217,DepthScenes,duration_manipulation_targetAtFixation,jsons/v1_VE1000_randls_77.json,http://54.235.29.9/FacialAge/BNav_EC2/DepthDuration/v2_depth_duration_MTurk/v2_DepthDuration_HTML.html#17,17,1920,937,1920,1080,8-22-2022,7-10-38,107,depth_duration_stimuli/002657_2014-06-13_15-29-54_094959634447_rgbf000150-resize_1/002657_2014-06-13_15-29-54_094959634447_rgbf000150-resize_1-target.png,1000,4.919,8,6359,1004,feet,jsons/v1_VE1000_randls_77.json,798844,1017085,50,Woman
107,191217,DepthScenes,duration_manipulation_targetAtFixation,jsons/v1_VE1000_randls_77.json,http://54.235.29.9/FacialAge/BNav_EC2/DepthDuration/v2_depth_duration_MTurk/v2_DepthDuration_HTML.html#17,17,1920,937,1920,1080,8-22-2022,7-10-38,108,depth_duration_stimuli/001110_2014-06-15_17-25-28_260595134347_rgbf000150-resize_1/001110_2014-06-15_17-25-28_260595134347_rgbf000150-resize_1-target.png,1000,1.7115,4,4697,1003,feet,jsons/v1_VE1000_randls_77.json,798844,1017085,50,Woman
108,191217,DepthScenes,duration_manipulation_targetAtFixation,jsons/v1_VE1000_randls_77.json,http://54.235.29.9/FacialAge/BNav_EC2/DepthDuration/v2_depth_duration_MTurk/v2_DepthDuration_HTML.html#17,17,1920,937,1920,1080,8-22-2022,7-10-38,109,depth_duration_stimuli/000927_2014-06-09_16-32-30_260595134347_rgbf000123-resize_3/000927_2014-06-09_16-32-30_260595134347_rgbf000123-resize_3-target.png,1000,2.6785,5,4055,1000,feet,jsons/v1_VE1000_randls_77.json,798844,1017085,50,Woman
109,191217,DepthScenes,duration_manipulation_targetAtFixation,jsons/v1_VE1000_randls_77.json,http://54.235.29.9/FacialAge/BNav_EC2/DepthDuration/v2_depth_duration_MTurk/v2_DepthDuration_HTML.html#17,17,1920,937,1920,1080,8-22-2022,7-10-38,110,depth_duration_stimuli/003492_2014-05-21_15-50-55_094959634447_rgbf000828-resize_1/003492_2014-05-21_15-50-55_094959634447_rgbf000828-resize_1-target.png,1000,4.06875,8,5342,997,feet,jsons/v1_VE1000_randls_77.json,798844,1017085,50,Woman
110,191217,DepthScenes,duration_manipulation_targetAtFixation,jsons/v1_VE1000_randls_77.json,http://54.235.29.9/FacialAge/BNav_EC2/DepthDuration/v2_depth_duration_MTurk/v2_DepthDuration_HTML.html#17,17,1920,937,1920,1080,8-22-2022,7-10-38,111,depth_duration_stimuli/002568_2014-06-24_13-59-21_094959634447_rgbf000062-resize_4/002568_2014-06-24_13-59-21_094959634447_rgbf000062-resize_4-target.png,1000,3.015,7,3855,998,feet,jsons/v1_VE1000_randls_77.json,798844,1017085,50,Woman
111,191217,DepthScenes,duration_manipulation_targetAtFixation,jsons/v1_VE1000_randls_77.json,http://54.235.29.9/FacialAge/BNav_EC2/DepthDuration/v2_depth_duration_MTurk/v2_DepthDuration_HTML.html#17,17,1920,937,1920,1080,8-22-2022,7-10-38,112,depth_duration_stimuli/000878_2014-06-08_22-52-45_260595134347_rgbf000045-resize_2/000878_2014-06-08_22-52-45_260595134347_rgbf000045-resize_2-target.png,1000,2.092,5,4108,1004,feet,jsons/v1_VE1000_randls_77.json,798844,1017085,50,Woman
112,191217,DepthScenes,duration_manipulation_targetAtFixation,jsons/v1_VE1000_randls_77.json,http://54.235.29.9/FacialAge/BNav_EC2/DepthDuration/v2_depth_duration_MTurk/v2_DepthDuration_HTML.html#17,17,1920,937,1920,1080,8-22-2022,7-10-38,113,depth_duration_stimuli/002953_2014-06-08_17-32-18_094959634447_rgbf000059-resize_5/002953_2014-06-08_17-32-18_094959634447_rgbf000059-resize_5-target.png,1000,1.551,3,4078,1005,feet,jsons/v1_VE1000_randls_77.json,798844,1017085,50,Woman
113,191217,DepthScenes,duration_manipulation_targetAtFixation,jsons/v1_VE1000_randls_77.json,http://54.235.29.9/FacialAge/BNav_EC2/DepthDuration/v2_depth_duration_MTurk/v2_DepthDuration_HTML.html#17,17,1920,937,1920,1080,8-22-2022,7-10-38,114,depth_duration_stimuli/002630_2014-06-24_14-47-50_094959634447_rgbf000055-resize_1/002630_2014-06-24_14-47-50_094959634447_rgbf000055-resize_1-target.png,1000,3.0095,7,4039,1000,feet,jsons/v1_VE1000_randls_77.json,798844,1017085,50,Woman
114,191217,DepthScenes,duration_manipulation_targetAtFixation,jsons/v1_VE1000_randls_77.json,http://54.235.29.9/FacialAge/BNav_EC2/DepthDuration/v2_depth_duration_MTurk/v2_DepthDuration_HTML.html#17,17,1920,937,1920,1080,8-22-2022,7-10-38,115,depth_duration_stimuli/002758_2014-06-22_19-11-20_094959634447_rgbf000128-resize_1/002758_2014-06-22_19-11-20_094959634447_rgbf000128-resize_1-target.png,1000,2.555,5,3688,1002,feet,jsons/v1_VE1000_randls_77.json,798844,1017085,50,Woman
115,191217,DepthScenes,duration_manipulation_targetAtFixation,jsons/v1_VE1000_randls_77.json,http://54.235.29.9/FacialAge/BNav_EC2/DepthDuration/v2_depth_duration_MTurk/v2_DepthDuration_HTML.html#17,17,1920,937,1920,1080,8-22-2022,7-10-38,116,depth_duration_stimuli/001170_2014-06-17_15-43-44_260595134347_rgbf000096-resize_6/001170_2014-06-17_15-43-44_260595134347_rgbf000096-resize-original.jpg,1000,1.1909999999999998,0,3942,996,feet,jsons/v1_VE1000_randls_77.json,798844,1017085,50,Woman
116,191217,DepthScenes,duration_manipulation_targetAtFixation,jsons/v1_VE1000_randls_77.json,http://54.235.29.9/FacialAge/BNav_EC2/DepthDuration/v2_depth_duration_MTurk/v2_DepthDuration_HTML.html#17,17,1920,937,1920,1080,8-22-2022,7-10-38,117,depth_duration_stimuli/000906_2014-06-08_13-35-43_260595134347_rgbf000155-resize_1/000906_2014-06-08_13-35-43_260595134347_rgbf000155-resize_1-target.png,1000,2.8489999999999998,5,5401,992,feet,jsons/v1_VE1000_randls_77.json,798844,1017085,50,Woman
117,191217,DepthScenes,duration_manipulation_targetAtFixation,jsons/v1_VE1000_randls_77.json,http://54.235.29.9/FacialAge/BNav_EC2/DepthDuration/v2_depth_duration_MTurk/v2_DepthDuration_HTML.html#17,17,1920,937,1920,1080,8-22-2022,7-10-38,118,depth_duration_stimuli/002805_2014-06-22_19-54-03_094959634447_rgbf000079-resize_1/002805_2014-06-22_19-54-03_094959634447_rgbf000079-resize_1-target.png,1000,3.1439999999999997,9,5822,1021,feet,jsons/v1_VE1000_randls_77.json,798844,1017085,50,Woman
118,191217,DepthScenes,duration_manipulation_targetAtFixation,jsons/v1_VE1000_randls_77.json,http://54.235.29.9/FacialAge/BNav_EC2/DepthDuration/v2_depth_duration_MTurk/v2_DepthDuration_HTML.html#17,17,1920,937,1920,1080,8-22-2022,7-10-38,119,depth_duration_stimuli/001555_2014-06-20_17-12-10_260595134347_rgbf000065-resize_4/001555_2014-06-20_17-12-10_260595134347_rgbf000065-resize_4-target.png,1000,1.633,4,3900,986,feet,jsons/v1_VE1000_randls_77.json,798844,1017085,50,Woman
119,191217,DepthScenes,duration_manipulation_targetAtFixation,jsons/v1_VE1000_randls_77.json,http://54.235.29.9/FacialAge/BNav_EC2/DepthDuration/v2_depth_duration_MTurk/v2_DepthDuration_HTML.html#17,17,1920,937,1920,1080,8-22-2022,7-10-38,120,depth_duration_stimuli/000103_2014-05-14_22-01-17_260595134347_rgbf000152-resize_5/000103_2014-05-14_22-01-17_260595134347_rgbf000152-resize_5-target.png,1000,1.993,5,3533,990,feet,jsons/v1_VE1000_randls_77.json,798844,1017085,50,Woman
120,191217,DepthScenes,duration_manipulation_targetAtFixation,jsons/v1_VE1000_randls_77.json,http://54.235.29.9/FacialAge/BNav_EC2/DepthDuration/v2_depth_duration_MTurk/v2_DepthDuration_HTML.html#17,17,1920,937,1920,1080,8-22-2022,7-10-38,121,depth_duration_stimuli/002043_2014-06-24_20-29-38_260595134347_rgbf000039-resize_4/002043_2014-06-24_20-29-38_260595134347_rgbf000039-resize_4-target.png,1000,2.8435,6,4219,1000,feet,jsons/v1_VE1000_randls_77.json,798844,1017085,50,Woman
121,191217,DepthScenes,duration_manipulation_targetAtFixation,jsons/v1_VE1000_randls_77.json,http://54.235.29.9/FacialAge/BNav_EC2/DepthDuration/v2_depth_duration_MTurk/v2_DepthDuration_HTML.html#17,17,1920,937,1920,1080,8-22-2022,7-10-38,122,depth_duration_stimuli/003048_2014-06-15_13-49-43_094959634447_rgbf000150-resize_1/003048_2014-06-15_13-49-43_094959634447_rgbf000150-resize_1-target.png,1000,4.0035,8,4070,995,feet,jsons/v1_VE1000_randls_77.json,798844,1017085,50,Woman
122,191217,DepthScenes,duration_manipulation_targetAtFixation,jsons/v1_VE1000_randls_77.json,http://54.235.29.9/FacialAge/BNav_EC2/DepthDuration/v2_depth_duration_MTurk/v2_DepthDuration_HTML.html#17,17,1920,937,1920,1080,8-22-2022,7-10-38,123,depth_duration_stimuli/000682_2014-06-08_23-14-58_260595134347_rgbf000041-resize_5/000682_2014-06-08_23-14-58_260595134347_rgbf000041-resize_5-target.png,1000,2.7239999999999998,7,3959,988,feet,jsons/v1_VE1000_randls_77.json,798844,1017085,50,Woman
123,191217,DepthScenes,duration_manipulation_targetAtFixation,jsons/v1_VE1000_randls_77.json,http://54.235.29.9/FacialAge/BNav_EC2/DepthDuration/v2_depth_duration_MTurk/v2_DepthDuration_HTML.html#17,17,1920,937,1920,1080,8-22-2022,7-10-38,124,depth_duration_stimuli/001650_2014-06-20_12-09-00_260595134347_rgbf000087-resize_3/001650_2014-06-20_12-09-00_260595134347_rgbf000087-resize_3-target.png,1000,1.9505,2,3746,1008,feet,jsons/v1_VE1000_randls_77.json,798844,1017085,50,Woman
124,191217,DepthScenes,duration_manipulation_targetAtFixation,jsons/v1_VE1000_randls_77.json,http://54.235.29.9/FacialAge/BNav_EC2/DepthDuration/v2_depth_duration_MTurk/v2_DepthDuration_HTML.html#17,17,1920,937,1920,1080,8-22-2022,7-10-38,125,depth_duration_stimuli/000368_2014-06-09_15-53-01_260595134347_rgbf000155-resize_2/000368_2014-06-09_15-53-01_260595134347_rgbf000155-resize_2-target.png,1000,2.4859999999999998,3,4169,1010,feet,jsons/v1_VE1000_randls_77.json,798844,1017085,50,Woman
125,191217,DepthScenes,duration_manipulation_targetAtFixation,jsons/v1_VE1000_randls_77.json,http://54.235.29.9/FacialAge/BNav_EC2/DepthDuration/v2_depth_duration_MTurk/v2_DepthDuration_HTML.html#17,17,1920,937,1920,1080,8-22-2022,7-10-38,126,depth_duration_stimuli/002678_2014-06-13_16-15-32_094959634447_rgbf000151-resize_6/002678_2014-06-13_16-15-32_094959634447_rgbf000151-resize_6-target.png,1000,2.1830000000000003,4,3811,981,feet,jsons/v1_VE1000_randls_77.json,798844,1017085,50,Woman
126,191217,DepthScenes,duration_manipulation_targetAtFixation,jsons/v1_VE1000_randls_77.json,http://54.235.29.9/FacialAge/BNav_EC2/DepthDuration/v2_depth_duration_MTurk/v2_DepthDuration_HTML.html#17,17,1920,937,1920,1080,8-22-2022,7-10-38,127,depth_duration_stimuli/002725_2014-06-22_11-47-51_094959634447_rgbf000070-resize_1/002725_2014-06-22_11-47-51_094959634447_rgbf000070-resize_1-target.png,1000,2.195,5,3741,1007,feet,jsons/v1_VE1000_randls_77.json,798844,1017085,50,Woman
127,191217,DepthScenes,duration_manipulation_targetAtFixation,jsons/v1_VE1000_randls_77.json,http://54.235.29.9/FacialAge/BNav_EC2/DepthDuration/v2_depth_duration_MTurk/v2_DepthDuration_HTML.html#17,17,1920,937,1920,1080,8-22-2022,7-10-38,128,depth_duration_stimuli/002344_2014-06-28_20-06-29_260595134347_rgbf000030-resize_1/002344_2014-06-28_20-06-29_260595134347_rgbf000030-resize_1-target.png,1000,1.5795,2,3683,997,feet,jsons/v1_VE1000_randls_77.json,798844,1017085,50,Woman
128,191217,DepthScenes,duration_manipulation_targetAtFixation,jsons/v1_VE1000_randls_77.json,http://54.235.29.9/FacialAge/BNav_EC2/DepthDuration/v2_depth_duration_MTurk/v2_DepthDuration_HTML.html#17,17,1920,937,1920,1080,8-22-2022,7-10-38,129,depth_duration_stimuli/000506_2014-06-08_23-21-00_260595134347_rgbf000070-resize_7/000506_2014-06-08_23-21-00_260595134347_rgbf000070-resize_7-target.png,1000,4.0585,6,3618,998,feet,jsons/v1_VE1000_randls_77.json,798844,1017085,50,Woman
129,191217,DepthScenes,duration_manipulation_targetAtFixation,jsons/v1_VE1000_randls_77.json,http://54.235.29.9/FacialAge/BNav_EC2/DepthDuration/v2_depth_duration_MTurk/v2_DepthDuration_HTML.html#17,17,1920,937,1920,1080,8-22-2022,7-10-38,130,depth_duration_stimuli/003079_2014-06-15_15-18-20_094959634447_rgbf000152-resize_8/003079_2014-06-15_15-18-20_094959634447_rgbf000152-resize_8-target.png,1000,2.8775,8,3749,1009,feet,jsons/v1_VE1000_randls_77.json,798844,1017085,50,Woman
130,191217,DepthScenes,duration_manipulation_targetAtFixation,jsons/v1_VE1000_randls_77.json,http://54.235.29.9/FacialAge/BNav_EC2/DepthDuration/v2_depth_duration_MTurk/v2_DepthDuration_HTML.html#17,17,1920,937,1920,1080,8-22-2022,7-10-38,131,depth_duration_stimuli/000929_2014-06-09_16-33-19_260595134347_rgbf000139-resize_0/000929_2014-06-09_16-33-19_260595134347_rgbf000139-resize_0-target.png,1000,2.8680000000000003,5,3843,1003,feet,jsons/v1_VE1000_randls_77.json,798844,1017085,50,Woman
131,191217,DepthScenes,duration_manipulation_targetAtFixation,jsons/v1_VE1000_randls_77.json,http://54.235.29.9/FacialAge/BNav_EC2/DepthDuration/v2_depth_duration_MTurk/v2_DepthDuration_HTML.html#17,17,1920,937,1920,1080,8-22-2022,7-10-38,132,depth_duration_stimuli/000457_2014-06-08_16-52-43_260595134347_rgbf000199-resize_1/000457_2014-06-08_16-52-43_260595134347_rgbf000199-resize_1-target.png,1000,3.6489999999999996,6,3819,1002,feet,jsons/v1_VE1000_randls_77.json,798844,1017085,50,Woman
132,191217,DepthScenes,duration_manipulation_targetAtFixation,jsons/v1_VE1000_randls_77.json,http://54.235.29.9/FacialAge/BNav_EC2/DepthDuration/v2_depth_duration_MTurk/v2_DepthDuration_HTML.html#17,17,1920,937,1920,1080,8-22-2022,7-10-38,133,depth_duration_stimuli/000642_2014-06-08_16-59-25_260595134347_rgbf000098-resize_2/000642_2014-06-08_16-59-25_260595134347_rgbf000098-resize_2-target.png,1000,2.8815,6,3597,991,feet,jsons/v1_VE1000_randls_77.json,798844,1017085,50,Woman
133,191217,DepthScenes,duration_manipulation_targetAtFixation,jsons/v1_VE1000_randls_77.json,http://54.235.29.9/FacialAge/BNav_EC2/DepthDuration/v2_depth_duration_MTurk/v2_DepthDuration_HTML.html#17,17,1920,937,1920,1080,8-22-2022,7-10-38,134,depth_duration_stimuli/002425_2014-06-28_20-27-29_260595134347_rgbf000031-resize_8/002425_2014-06-28_20-27-29_260595134347_rgbf000031-resize_8-target.png,1000,3.8960000000000004,7,4711,1000,feet,jsons/v1_VE1000_randls_77.json,798844,1017085,50,Woman
134,191217,DepthScenes,duration_manipulation_targetAtFixation,jsons/v1_VE1000_randls_77.json,http://54.235.29.9/FacialAge/BNav_EC2/DepthDuration/v2_depth_duration_MTurk/v2_DepthDuration_HTML.html#17,17,1920,937,1920,1080,8-22-2022,7-10-38,135,depth_duration_stimuli/002072_2014-06-24_21-48-06_260595134347_rgbf000115-resize_0/002072_2014-06-24_21-48-06_260595134347_rgbf000115-resize-original.jpg,1000,4.702,0,3671,1005,feet,jsons/v1_VE1000_randls_77.json,798844,1017085,50,Woman
135,191217,DepthScenes,duration_manipulation_targetAtFixation,jsons/v1_VE1000_randls_77.json,http://54.235.29.9/FacialAge/BNav_EC2/DepthDuration/v2_depth_duration_MTurk/v2_DepthDuration_HTML.html#17,17,1920,937,1920,1080,8-22-2022,7-10-38,136,depth_duration_stimuli/000917_2014-06-09_22-45-29_260595134347_rgbf000149-resize_3/000917_2014-06-09_22-45-29_260595134347_rgbf000149-resize_3-target.png,1000,4.1865,10,4104,1005,feet,jsons/v1_VE1000_randls_77.json,798844,1017085,50,Woman
136,191217,DepthScenes,duration_manipulation_targetAtFixation,jsons/v1_VE1000_randls_77.json,http://54.235.29.9/FacialAge/BNav_EC2/DepthDuration/v2_depth_duration_MTurk/v2_DepthDuration_HTML.html#17,17,1920,937,1920,1080,8-22-2022,7-10-38,137,depth_duration_stimuli/002323_2014-06-28_20-01-54_260595134347_rgbf000051-resize_4/002323_2014-06-28_20-01-54_260595134347_rgbf000051-resize_4-target.png,1000,3.7310000000000003,9,4509,1022,feet,jsons/v1_VE1000_randls_77.json,798844,1017085,50,Woman
137,191217,DepthScenes,duration_manipulation_targetAtFixation,jsons/v1_VE1000_randls_77.json,http://54.235.29.9/FacialAge/BNav_EC2/DepthDuration/v2_depth_duration_MTurk/v2_DepthDuration_HTML.html#17,17,1920,937,1920,1080,8-22-2022,7-10-38,138,depth_duration_stimuli/002272_2014-06-28_18-53-56_260595134347_rgbf000067-resize_2/002272_2014-06-28_18-53-56_260595134347_rgbf000067-resize_2-target.png,1000,1.138,2,3602,1008,feet,jsons/v1_VE1000_randls_77.json,798844,1017085,50,Woman
138,191217,DepthScenes,duration_manipulation_targetAtFixation,jsons/v1_VE1000_randls_77.json,http://54.235.29.9/FacialAge/BNav_EC2/DepthDuration/v2_depth_duration_MTurk/v2_DepthDuration_HTML.html#17,17,1920,937,1920,1080,8-22-2022,7-10-38,139,depth_duration_stimuli/001571_2014-06-20_17-21-32_260595134347_rgbf000089-resize_1/001571_2014-06-20_17-21-32_260595134347_rgbf000089-resize_1-target.png,1000,1.86,3,3393,987,feet,jsons/v1_VE1000_randls_77.json,798844,1017085,50,Woman
139,191217,DepthScenes,duration_manipulation_targetAtFixation,jsons/v1_VE1000_randls_77.json,http://54.235.29.9/FacialAge/BNav_EC2/DepthDuration/v2_depth_duration_MTurk/v2_DepthDuration_HTML.html#17,17,1920,937,1920,1080,8-22-2022,7-10-38,140,depth_duration_stimuli/002964_2014-06-08_17-46-11_094959634447_rgbf000091-resize_4/002964_2014-06-08_17-46-11_094959634447_rgbf000091-resize_4-target.png,1000,1.6909999999999998,3,3804,1008,feet,jsons/v1_VE1000_randls_77.json,798844,1017085,50,Woman
140,191217,DepthScenes,duration_manipulation_targetAtFixation,jsons/v1_VE1000_randls_77.json,http://54.235.29.9/FacialAge/BNav_EC2/DepthDuration/v2_depth_duration_MTurk/v2_DepthDuration_HTML.html#17,17,1920,937,1920,1080,8-22-2022,7-10-38,141,depth_duration_stimuli/002136_2014-06-25_21-18-03_260595134347_rgbf000109-resize_3/002136_2014-06-25_21-18-03_260595134347_rgbf000109-resize_3-target.png,1000,1.9569999999999999,3,3954,1007,feet,jsons/v1_VE1000_randls_77.json,798844,1017085,50,Woman
141,191217,DepthScenes,duration_manipulation_targetAtFixation,jsons/v1_VE1000_randls_77.json,http://54.235.29.9/FacialAge/BNav_EC2/DepthDuration/v2_depth_duration_MTurk/v2_DepthDuration_HTML.html#17,17,1920,937,1920,1080,8-22-2022,7-10-38,142,depth_duration_stimuli/001056_2014-06-08_18-46-44_260595134347_rgbf000068-resize_0/001056_2014-06-08_18-46-44_260595134347_rgbf000068-resize_0-target.png,1000,2.6625,6,5633,1000,feet,jsons/v1_VE1000_randls_77.json,798844,1017085,50,Woman
142,191217,DepthScenes,duration_manipulation_targetAtFixation,jsons/v1_VE1000_randls_77.json,http://54.235.29.9/FacialAge/BNav_EC2/DepthDuration/v2_depth_duration_MTurk/v2_DepthDuration_HTML.html#17,17,1920,937,1920,1080,8-22-2022,7-10-38,143,depth_duration_stimuli/002199_2014-06-28_18-33-56_260595134347_rgbf000074-resize_0/002199_2014-06-28_18-33-56_260595134347_rgbf000074-resize_0-target.png,1000,1.996,2,3739,993,feet,jsons/v1_VE1000_randls_77.json,798844,1017085,50,Woman
143,191217,DepthScenes,duration_manipulation_targetAtFixation,jsons/v1_VE1000_randls_77.json,http://54.235.29.9/FacialAge/BNav_EC2/DepthDuration/v2_depth_duration_MTurk/v2_DepthDuration_HTML.html#17,17,1920,937,1920,1080,8-22-2022,7-10-38,144,depth_duration_stimuli/002784_2014-06-22_19-26-30_094959634447_rgbf000083-resize_3/002784_2014-06-22_19-26-30_094959634447_rgbf000083-resize_3-target.png,1000,1.8046666666667,3,3868,997,feet,jsons/v1_VE1000_randls_77.json,798844,1017085,50,Woman
144,191217,DepthScenes,duration_manipulation_targetAtFixation,jsons/v1_VE1000_randls_77.json,http://54.235.29.9/FacialAge/BNav_EC2/DepthDuration/v2_depth_duration_MTurk/v2_DepthDuration_HTML.html#17,17,1920,937,1920,1080,8-22-2022,7-10-38,145,depth_duration_stimuli/001100_2014-06-15_17-46-26_260595134347_rgbf000225-resize_2/001100_2014-06-15_17-46-26_260595134347_rgbf000225-resize_2-target.png,1000,2.24,2,3377,1008,feet,jsons/v1_VE1000_randls_77.json,798844,1017085,50,Woman
145,191217,DepthScenes,duration_manipulation_targetAtFixation,jsons/v1_VE1000_randls_77.json,http://54.235.29.9/FacialAge/BNav_EC2/DepthDuration/v2_depth_duration_MTurk/v2_DepthDuration_HTML.html#17,17,1920,937,1920,1080,8-22-2022,7-10-38,146,depth_duration_stimuli/001498_2014-06-19_17-45-14_260595134347_rgbf000129-resize_4/001498_2014-06-19_17-45-14_260595134347_rgbf000129-resize-original.jpg,1000,1.4075,0,3786,999,feet,jsons/v1_VE1000_randls_77.json,798844,1017085,50,Woman
146,191217,DepthScenes,duration_manipulation_targetAtFixation,jsons/v1_VE1000_randls_77.json,http://54.235.29.9/FacialAge/BNav_EC2/DepthDuration/v2_depth_duration_MTurk/v2_DepthDuration_HTML.html#17,17,1920,937,1920,1080,8-22-2022,7-10-38,147,depth_duration_stimuli/002600_2014-06-24_14-27-04_094959634447_rgbf000074-resize_2/002600_2014-06-24_14-27-04_094959634447_rgbf000074-resize_2-target.png,1000,2.7575,5,3591,1008,feet,jsons/v1_VE1000_randls_77.json,798844,1017085,50,Woman
147,191217,DepthScenes,duration_manipulation_targetAtFixation,jsons/v1_VE1000_randls_77.json,http://54.235.29.9/FacialAge/BNav_EC2/DepthDuration/v2_depth_duration_MTurk/v2_DepthDuration_HTML.html#17,17,1920,937,1920,1080,8-22-2022,7-10-38,148,depth_duration_stimuli/003228_2014-05-14_13-42-35_094959634447_rgbf000101-resize_1/003228_2014-05-14_13-42-35_094959634447_rgbf000101-resize_1-target.png,1000,1.9680000000000002,4,3460,998,feet,jsons/v1_VE1000_randls_77.json,798844,1017085,50,Woman
148,191217,DepthScenes,duration_manipulation_targetAtFixation,jsons/v1_VE1000_randls_77.json,http://54.235.29.9/FacialAge/BNav_EC2/DepthDuration/v2_depth_duration_MTurk/v2_DepthDuration_HTML.html#17,17,1920,937,1920,1080,8-22-2022,7-10-38,149,depth_duration_stimuli/002509_2014-06-24_13-19-22_094959634447_rgbf000077-resize_0/002509_2014-06-24_13-19-22_094959634447_rgbf000077-resize_0-target.png,1000,1.3065,3,3945,1004,feet,jsons/v1_VE1000_randls_77.json,798844,1017085,50,Woman
149,191217,DepthScenes,duration_manipulation_targetAtFixation,jsons/v1_VE1000_randls_77.json,http://54.235.29.9/FacialAge/BNav_EC2/DepthDuration/v2_depth_duration_MTurk/v2_DepthDuration_HTML.html#17,17,1920,937,1920,1080,8-22-2022,7-10-38,150,depth_duration_stimuli/003338_2014-05-20_11-01-23_094959634447_rgbf000051-resize_6/003338_2014-05-20_11-01-23_094959634447_rgbf000051-resize_6-target.png,1000,1.693,4,4227,996,feet,jsons/v1_VE1000_randls_77.json,798844,1017085,50,Woman
150,191217,DepthScenes,duration_manipulation_targetAtFixation,jsons/v1_VE1000_randls_77.json,http://54.235.29.9/FacialAge/BNav_EC2/DepthDuration/v2_depth_duration_MTurk/v2_DepthDuration_HTML.html#17,17,1920,937,1920,1080,8-22-2022,7-10-38,151,depth_duration_stimuli/002663_2014-06-13_15-50-26_094959634447_rgbf000075-resize_1/002663_2014-06-13_15-50-26_094959634447_rgbf000075-resize_1-target.png,1000,4.7495,9,3712,1006,feet,jsons/v1_VE1000_randls_77.json,798844,1017085,50,Woman
151,191217,DepthScenes,duration_manipulation_targetAtFixation,jsons/v1_VE1000_randls_77.json,http://54.235.29.9/FacialAge/BNav_EC2/DepthDuration/v2_depth_duration_MTurk/v2_DepthDuration_HTML.html#17,17,1920,937,1920,1080,8-22-2022,7-10-38,152,depth_duration_stimuli/000409_2014-06-04_19-23-33_260595134347_rgbf000067-resize_0/000409_2014-06-04_19-23-33_260595134347_rgbf000067-resize_0-target.png,1000,3.7335,7,3672,1016,feet,jsons/v1_VE1000_randls_77.json,798844,1017085,50,Woman
152,191217,DepthScenes,duration_manipulation_targetAtFixation,jsons/v1_VE1000_randls_77.json,http://54.235.29.9/FacialAge/BNav_EC2/DepthDuration/v2_depth_duration_MTurk/v2_DepthDuration_HTML.html#17,17,1920,937,1920,1080,8-22-2022,7-10-38,153,depth_duration_stimuli/001150_2014-06-17_15-27-34_260595134347_rgbf000108-resize_2/001150_2014-06-17_15-27-34_260595134347_rgbf000108-resize_2-target.png,1000,4.0325,10,4302,991,feet,jsons/v1_VE1000_randls_77.json,798844,1017085,50,Woman
153,191217,DepthScenes,duration_manipulation_targetAtFixation,jsons/v1_VE1000_randls_77.json,http://54.235.29.9/FacialAge/BNav_EC2/DepthDuration/v2_depth_duration_MTurk/v2_DepthDuration_HTML.html#17,17,1920,937,1920,1080,8-22-2022,7-10-38,154,depth_duration_stimuli/000665_2014-06-09_20-42-35_260595134347_rgbf000110-resize_1/000665_2014-06-09_20-42-35_260595134347_rgbf000110-resize_1-target.png,1000,3.057,8,3711,1003,feet,jsons/v1_VE1000_randls_77.json,798844,1017085,50,Woman
154,191217,DepthScenes,duration_manipulation_targetAtFixation,jsons/v1_VE1000_randls_77.json,http://54.235.29.9/FacialAge/BNav_EC2/DepthDuration/v2_depth_duration_MTurk/v2_DepthDuration_HTML.html#17,17,1920,937,1920,1080,8-22-2022,7-10-38,155,depth_duration_stimuli/002153_2014-06-25_21-27-18_260595134347_rgbf000038-resize_5/002153_2014-06-25_21-27-18_260595134347_rgbf000038-resize_5-target.png,1000,2.505,6,4154,1002,feet,jsons/v1_VE1000_randls_77.json,798844,1017085,50,Woman
155,191217,DepthScenes,duration_manipulation_targetAtFixation,jsons/v1_VE1000_randls_77.json,http://54.235.29.9/FacialAge/BNav_EC2/DepthDuration/v2_depth_duration_MTurk/v2_DepthDuration_HTML.html#17,17,1920,937,1920,1080,8-22-2022,7-10-38,156,depth_duration_stimuli/002660_2014-06-13_15-44-18_094959634447_rgbf001878-resize_2/002660_2014-06-13_15-44-18_094959634447_rgbf001878-resize_2-target.png,1000,3.576,7,3801,988,feet,jsons/v1_VE1000_randls_77.json,798844,1017085,50,Woman
156,191217,DepthScenes,duration_manipulation_targetAtFixation,jsons/v1_VE1000_randls_77.json,http://54.235.29.9/FacialAge/BNav_EC2/DepthDuration/v2_depth_duration_MTurk/v2_DepthDuration_HTML.html#17,17,1920,937,1920,1080,8-22-2022,7-10-38,157,depth_duration_stimuli/003534_2014-05-22_15-06-10_094959634447_rgbf000102-resize_4/003534_2014-05-22_15-06-10_094959634447_rgbf000102-resize_4-target.png,1000,1.426,4,3672,997,feet,jsons/v1_VE1000_randls_77.json,798844,1017085,50,Woman
157,191217,DepthScenes,duration_manipulation_targetAtFixation,jsons/v1_VE1000_randls_77.json,http://54.235.29.9/FacialAge/BNav_EC2/DepthDuration/v2_depth_duration_MTurk/v2_DepthDuration_HTML.html#17,17,1920,937,1920,1080,8-22-2022,7-10-38,158,depth_duration_stimuli/002637_2014-06-24_14-51-13_094959634447_rgbf000066-resize_4/002637_2014-06-24_14-51-13_094959634447_rgbf000066-resize_4-target.png,1000,1.9955,4,3583,996,feet,jsons/v1_VE1000_randls_77.json,798844,1017085,50,Woman
158,191217,DepthScenes,duration_manipulation_targetAtFixation,jsons/v1_VE1000_randls_77.json,http://54.235.29.9/FacialAge/BNav_EC2/DepthDuration/v2_depth_duration_MTurk/v2_DepthDuration_HTML.html#17,17,1920,937,1920,1080,8-22-2022,7-10-38,159,depth_duration_stimuli/000758_2014-06-08_22-05-08_260595134347_rgbf000085-resize_0/000758_2014-06-08_22-05-08_260595134347_rgbf000085-resize_0-target.png,1000,3.3810000000000002,8,3790,996,feet,jsons/v1_VE1000_randls_77.json,798844,1017085,50,Woman
159,191217,DepthScenes,duration_manipulation_targetAtFixation,jsons/v1_VE1000_randls_77.json,http://54.235.29.9/FacialAge/BNav_EC2/DepthDuration/v2_depth_duration_MTurk/v2_DepthDuration_HTML.html#17,17,1920,937,1920,1080,8-22-2022,7-10-38,160,depth_duration_stimuli/000854_2014-06-09_19-43-13_260595134347_rgbf000066-resize_0/000854_2014-06-09_19-43-13_260595134347_rgbf000066-resize_0-target.png,1000,3.068,6,3543,1005,feet,jsons/v1_VE1000_randls_77.json,798844,1017085,50,Woman
160,191217,DepthScenes,duration_manipulation_targetAtFixation,jsons/v1_VE1000_randls_77.json,http://54.235.29.9/FacialAge/BNav_EC2/DepthDuration/v2_depth_duration_MTurk/v2_DepthDuration_HTML.html#17,17,1920,937,1920,1080,8-22-2022,7-10-38,161,depth_duration_stimuli/001055_2014-06-08_18-45-35_260595134347_rgbf000111-resize_4/001055_2014-06-08_18-45-35_260595134347_rgbf000111-resize_4-target.png,1000,2.4290000000000003,7,3619,984,feet,jsons/v1_VE1000_randls_77.json,798844,1017085,50,Woman
161,191217,DepthScenes,duration_manipulation_targetAtFixation,jsons/v1_VE1000_randls_77.json,http://54.235.29.9/FacialAge/BNav_EC2/DepthDuration/v2_depth_duration_MTurk/v2_DepthDuration_HTML.html#17,17,1920,937,1920,1080,8-22-2022,7-10-38,162,depth_duration_stimuli/000549_2014-06-08_22-10-24_260595134347_rgbf000247-resize_3/000549_2014-06-08_22-10-24_260595134347_rgbf000247-resize_3-target.png,1000,1.841,4,3991,965,feet,jsons/v1_VE1000_randls_77.json,798844,1017085,50,Woman
162,191217,DepthScenes,duration_manipulation_targetAtFixation,jsons/v1_VE1000_randls_77.json,http://54.235.29.9/FacialAge/BNav_EC2/DepthDuration/v2_depth_duration_MTurk/v2_DepthDuration_HTML.html#17,17,1920,937,1920,1080,8-22-2022,7-10-38,163,depth_duration_stimuli/001158_2014-06-17_15-32-16_260595134347_rgbf000138-resize_2/001158_2014-06-17_15-32-16_260595134347_rgbf000138-resize_2-target.png,1000,4.5315,9,6884,1011,feet,jsons/v1_VE1000_randls_77.json,798844,1017085,50,Woman
163,191217,DepthScenes,duration_manipulation_targetAtFixation,jsons/v1_VE1000_randls_77.json,http://54.235.29.9/FacialAge/BNav_EC2/DepthDuration/v2_depth_duration_MTurk/v2_DepthDuration_HTML.html#17,17,1920,937,1920,1080,8-22-2022,7-10-38,164,depth_duration_stimuli/000556_2014-06-09_22-42-56_260595134347_rgbf000214-resize_1/000556_2014-06-09_22-42-56_260595134347_rgbf000214-resize_1-target.png,1000,4.8415,8,3510,1029,feet,jsons/v1_VE1000_randls_77.json,798844,1017085,50,Woman
