,subjID,experimentName,versionName,sequenceName,url,selected_row,windowWidth,windowHeight,screenWidth,screenHeight,startDate,startTime,trial,stimulus,duration,actual_depth,depth_estimate,trial_RT,log_sceneDuration,unitSelection,seq_filepath,experimentTime,totalTime,age,gender
0,194174,DepthScenes,duration_manipulation_targetAtFixation,jsons/VE125_randls_19_rotated.json,http://54.235.29.9/FacialAge/BNav_EC2/DepthDuration/v2_depth_duration_MTurk/v2_DepthDuration_HTML.html#59,59,980,846,412,869,8-30-2022,8-54-1,1,depth_duration_stimuli/002995_2014-06-15_12-31-26_094959634447_rgbf000150-resize_1/002995_2014-06-15_12-31-26_094959634447_rgbf000150-resize_1-target.png,125,3.8360000000000003,1.0,5851,97,feet,jsons/VE125_randls_19_rotated.json,898853,1093306,35,Woman
1,194174,DepthScenes,duration_manipulation_targetAtFixation,jsons/VE125_randls_19_rotated.json,http://54.235.29.9/FacialAge/BNav_EC2/DepthDuration/v2_depth_duration_MTurk/v2_DepthDuration_HTML.html#59,59,980,846,412,869,8-30-2022,8-54-1,2,depth_duration_stimuli/002748_2014-06-22_19-07-22_094959634447_rgbf000078-resize_1/002748_2014-06-22_19-07-22_094959634447_rgbf000078-resize_1-target.png,125,4.6705,3.0,4532,120,feet,jsons/VE125_randls_19_rotated.json,898853,1093306,35,Woman
2,194174,DepthScenes,duration_manipulation_targetAtFixation,jsons/VE125_randls_19_rotated.json,http://54.235.29.9/FacialAge/BNav_EC2/DepthDuration/v2_depth_duration_MTurk/v2_DepthDuration_HTML.html#59,59,980,846,412,869,8-30-2022,8-54-1,3,depth_duration_stimuli/002209_2014-06-28_18-36-10_260595134347_rgbf000051-resize_1/002209_2014-06-28_18-36-10_260595134347_rgbf000051-resize_1-target.png,125,2.057,2.0,4644,121,feet,jsons/VE125_randls_19_rotated.json,898853,1093306,35,Woman
3,194174,DepthScenes,duration_manipulation_targetAtFixation,jsons/VE125_randls_19_rotated.json,http://54.235.29.9/FacialAge/BNav_EC2/DepthDuration/v2_depth_duration_MTurk/v2_DepthDuration_HTML.html#59,59,980,846,412,869,8-30-2022,8-54-1,4,depth_duration_stimuli/002763_2014-06-22_19-13-10_094959634447_rgbf000075-resize_4/002763_2014-06-22_19-13-10_094959634447_rgbf000075-resize_4-target.png,125,1.68375,5.0,5792,122,feet,jsons/VE125_randls_19_rotated.json,898853,1093306,35,Woman
4,194174,DepthScenes,duration_manipulation_targetAtFixation,jsons/VE125_randls_19_rotated.json,http://54.235.29.9/FacialAge/BNav_EC2/DepthDuration/v2_depth_duration_MTurk/v2_DepthDuration_HTML.html#59,59,980,846,412,869,8-30-2022,8-54-1,5,depth_duration_stimuli/003587_2014-05-23_16-48-02_094959634447_rgbf002384-resize_2/003587_2014-05-23_16-48-02_094959634447_rgbf002384-resize_2-target.png,125,1.357,4.0,5168,121,feet,jsons/VE125_randls_19_rotated.json,898853,1093306,35,Woman
5,194174,DepthScenes,duration_manipulation_targetAtFixation,jsons/VE125_randls_19_rotated.json,http://54.235.29.9/FacialAge/BNav_EC2/DepthDuration/v2_depth_duration_MTurk/v2_DepthDuration_HTML.html#59,59,980,846,412,869,8-30-2022,8-54-1,6,depth_duration_stimuli/001167_2014-06-17_15-38-07_260595134347_rgbf000108-resize_0/001167_2014-06-17_15-38-07_260595134347_rgbf000108-resize_0-target.png,125,1.8505,5.0,8501,120,feet,jsons/VE125_randls_19_rotated.json,898853,1093306,35,Woman
6,194174,DepthScenes,duration_manipulation_targetAtFixation,jsons/VE125_randls_19_rotated.json,http://54.235.29.9/FacialAge/BNav_EC2/DepthDuration/v2_depth_duration_MTurk/v2_DepthDuration_HTML.html#59,59,980,846,412,869,8-30-2022,8-54-1,7,depth_duration_stimuli/000137_2014-05-20_17-04-49_260595134347_rgbf000120-resize_1/000137_2014-05-20_17-04-49_260595134347_rgbf000120-resize_1-target.png,125,3.786,5.0,14027,123,feet,jsons/VE125_randls_19_rotated.json,898853,1093306,35,Woman
7,194174,DepthScenes,duration_manipulation_targetAtFixation,jsons/VE125_randls_19_rotated.json,http://54.235.29.9/FacialAge/BNav_EC2/DepthDuration/v2_depth_duration_MTurk/v2_DepthDuration_HTML.html#59,59,980,846,412,869,8-30-2022,8-54-1,8,depth_duration_stimuli/000736_2014-06-08_18-24-15_260595134347_rgbf000206-resize_3/000736_2014-06-08_18-24-15_260595134347_rgbf000206-resize_3-target.png,125,3.515,6.0,5119,121,feet,jsons/VE125_randls_19_rotated.json,898853,1093306,35,Woman
8,194174,DepthScenes,duration_manipulation_targetAtFixation,jsons/VE125_randls_19_rotated.json,http://54.235.29.9/FacialAge/BNav_EC2/DepthDuration/v2_depth_duration_MTurk/v2_DepthDuration_HTML.html#59,59,980,846,412,869,8-30-2022,8-54-1,9,depth_duration_stimuli/003338_2014-05-20_11-01-23_094959634447_rgbf000051-resize_6/003338_2014-05-20_11-01-23_094959634447_rgbf000051-resize_6-target.png,125,1.693,5.0,4478,122,feet,jsons/VE125_randls_19_rotated.json,898853,1093306,35,Woman
9,194174,DepthScenes,duration_manipulation_targetAtFixation,jsons/VE125_randls_19_rotated.json,http://54.235.29.9/FacialAge/BNav_EC2/DepthDuration/v2_depth_duration_MTurk/v2_DepthDuration_HTML.html#59,59,980,846,412,869,8-30-2022,8-54-1,10,depth_duration_stimuli/002509_2014-06-24_13-19-22_094959634447_rgbf000077-resize_0/002509_2014-06-24_13-19-22_094959634447_rgbf000077-resize_0-target.png,125,1.3065,6.0,5952,121,feet,jsons/VE125_randls_19_rotated.json,898853,1093306,35,Woman
10,194174,DepthScenes,duration_manipulation_targetAtFixation,jsons/VE125_randls_19_rotated.json,http://54.235.29.9/FacialAge/BNav_EC2/DepthDuration/v2_depth_duration_MTurk/v2_DepthDuration_HTML.html#59,59,980,846,412,869,8-30-2022,8-54-1,11,depth_duration_stimuli/002136_2014-06-25_21-18-03_260595134347_rgbf000109-resize_3/002136_2014-06-25_21-18-03_260595134347_rgbf000109-resize_3-target.png,125,1.9569999999999999,4.0,4971,123,feet,jsons/VE125_randls_19_rotated.json,898853,1093306,35,Woman
11,194174,DepthScenes,duration_manipulation_targetAtFixation,jsons/VE125_randls_19_rotated.json,http://54.235.29.9/FacialAge/BNav_EC2/DepthDuration/v2_depth_duration_MTurk/v2_DepthDuration_HTML.html#59,59,980,846,412,869,8-30-2022,8-54-1,12,depth_duration_stimuli/002964_2014-06-08_17-46-11_094959634447_rgbf000091-resize_4/002964_2014-06-08_17-46-11_094959634447_rgbf000091-resize_4-target.png,125,1.6909999999999998,4.0,5688,118,feet,jsons/VE125_randls_19_rotated.json,898853,1093306,35,Woman
12,194174,DepthScenes,duration_manipulation_targetAtFixation,jsons/VE125_randls_19_rotated.json,http://54.235.29.9/FacialAge/BNav_EC2/DepthDuration/v2_depth_duration_MTurk/v2_DepthDuration_HTML.html#59,59,980,846,412,869,8-30-2022,8-54-1,13,depth_duration_stimuli/000749_2014-06-08_21-55-06_260595134347_rgbf000070-resize_2/000749_2014-06-08_21-55-06_260595134347_rgbf000070-resize_2-target.png,125,2.331,6.0,6291,122,feet,jsons/VE125_randls_19_rotated.json,898853,1093306,35,Woman
13,194174,DepthScenes,duration_manipulation_targetAtFixation,jsons/VE125_randls_19_rotated.json,http://54.235.29.9/FacialAge/BNav_EC2/DepthDuration/v2_depth_duration_MTurk/v2_DepthDuration_HTML.html#59,59,980,846,412,869,8-30-2022,8-54-1,14,depth_duration_stimuli/002788_2014-06-22_19-36-03_094959634447_rgbf000088-resize_2/002788_2014-06-22_19-36-03_094959634447_rgbf000088-resize_2-target.png,125,1.6465,2.0,6744,119,feet,jsons/VE125_randls_19_rotated.json,898853,1093306,35,Woman
14,194174,DepthScenes,duration_manipulation_targetAtFixation,jsons/VE125_randls_19_rotated.json,http://54.235.29.9/FacialAge/BNav_EC2/DepthDuration/v2_depth_duration_MTurk/v2_DepthDuration_HTML.html#59,59,980,846,412,869,8-30-2022,8-54-1,15,depth_duration_stimuli/001650_2014-06-20_12-09-00_260595134347_rgbf000087-resize_3/001650_2014-06-20_12-09-00_260595134347_rgbf000087-resize_3-target.png,125,1.9505,3.0,5047,122,feet,jsons/VE125_randls_19_rotated.json,898853,1093306,35,Woman
15,194174,DepthScenes,duration_manipulation_targetAtFixation,jsons/VE125_randls_19_rotated.json,http://54.235.29.9/FacialAge/BNav_EC2/DepthDuration/v2_depth_duration_MTurk/v2_DepthDuration_HTML.html#59,59,980,846,412,869,8-30-2022,8-54-1,16,depth_duration_stimuli/000682_2014-06-08_23-14-58_260595134347_rgbf000041-resize_5/000682_2014-06-08_23-14-58_260595134347_rgbf000041-resize_5-target.png,125,2.7239999999999998,0.0,5108,121,feet,jsons/VE125_randls_19_rotated.json,898853,1093306,35,Woman
16,194174,DepthScenes,duration_manipulation_targetAtFixation,jsons/VE125_randls_19_rotated.json,http://54.235.29.9/FacialAge/BNav_EC2/DepthDuration/v2_depth_duration_MTurk/v2_DepthDuration_HTML.html#59,59,980,846,412,869,8-30-2022,8-54-1,17,depth_duration_stimuli/002949_2014-06-26_15-57-42_094959634447_rgbf000079-resize_1/002949_2014-06-26_15-57-42_094959634447_rgbf000079-resize_1-target.png,125,1.8915,3.0,4640,122,feet,jsons/VE125_randls_19_rotated.json,898853,1093306,35,Woman
17,194174,DepthScenes,duration_manipulation_targetAtFixation,jsons/VE125_randls_19_rotated.json,http://54.235.29.9/FacialAge/BNav_EC2/DepthDuration/v2_depth_duration_MTurk/v2_DepthDuration_HTML.html#59,59,980,846,412,869,8-30-2022,8-54-1,18,depth_duration_stimuli/000522_2014-06-08_13-35-06_260595134347_rgbf000244-resize_1/000522_2014-06-08_13-35-06_260595134347_rgbf000244-resize_1-target.png,125,2.3715,2.5,5844,122,feet,jsons/VE125_randls_19_rotated.json,898853,1093306,35,Woman
18,194174,DepthScenes,duration_manipulation_targetAtFixation,jsons/VE125_randls_19_rotated.json,http://54.235.29.9/FacialAge/BNav_EC2/DepthDuration/v2_depth_duration_MTurk/v2_DepthDuration_HTML.html#59,59,980,846,412,869,8-30-2022,8-54-1,19,depth_duration_stimuli/001498_2014-06-19_17-45-14_260595134347_rgbf000129-resize_4/001498_2014-06-19_17-45-14_260595134347_rgbf000129-resize-original.jpg,125,1.4075,0.0,4666,121,feet,jsons/VE125_randls_19_rotated.json,898853,1093306,35,Woman
19,194174,DepthScenes,duration_manipulation_targetAtFixation,jsons/VE125_randls_19_rotated.json,http://54.235.29.9/FacialAge/BNav_EC2/DepthDuration/v2_depth_duration_MTurk/v2_DepthDuration_HTML.html#59,59,980,846,412,869,8-30-2022,8-54-1,20,depth_duration_stimuli/001450_2014-06-19_17-02-03_260595134347_rgbf000203-resize_4/001450_2014-06-19_17-02-03_260595134347_rgbf000203-resize_4-target.png,125,4.0106666666667,2.0,4482,123,feet,jsons/VE125_randls_19_rotated.json,898853,1093306,35,Woman
20,194174,DepthScenes,duration_manipulation_targetAtFixation,jsons/VE125_randls_19_rotated.json,http://54.235.29.9/FacialAge/BNav_EC2/DepthDuration/v2_depth_duration_MTurk/v2_DepthDuration_HTML.html#59,59,980,846,412,869,8-30-2022,8-54-1,21,depth_duration_stimuli/001449_2014-06-19_17-01-27_260595134347_rgbf000116-resize_2/001449_2014-06-19_17-01-27_260595134347_rgbf000116-resize_2-target.png,125,3.452,4.0,4898,122,feet,jsons/VE125_randls_19_rotated.json,898853,1093306,35,Woman
21,194174,DepthScenes,duration_manipulation_targetAtFixation,jsons/VE125_randls_19_rotated.json,http://54.235.29.9/FacialAge/BNav_EC2/DepthDuration/v2_depth_duration_MTurk/v2_DepthDuration_HTML.html#59,59,980,846,412,869,8-30-2022,8-54-1,22,depth_duration_stimuli/001447_2014-06-19_17-00-32_260595134347_rgbf000082-resize_5/001447_2014-06-19_17-00-32_260595134347_rgbf000082-resize_5-target.png,125,4.13775,5.0,4591,123,feet,jsons/VE125_randls_19_rotated.json,898853,1093306,35,Woman
22,194174,DepthScenes,duration_manipulation_targetAtFixation,jsons/VE125_randls_19_rotated.json,http://54.235.29.9/FacialAge/BNav_EC2/DepthDuration/v2_depth_duration_MTurk/v2_DepthDuration_HTML.html#59,59,980,846,412,869,8-30-2022,8-54-1,23,depth_duration_stimuli/000447_2014-06-08_16-15-46_260595134347_rgbf000130-resize_1/000447_2014-06-08_16-15-46_260595134347_rgbf000130-resize_1-target.png,125,4.479,6.0,4851,123,feet,jsons/VE125_randls_19_rotated.json,898853,1093306,35,Woman
23,194174,DepthScenes,duration_manipulation_targetAtFixation,jsons/VE125_randls_19_rotated.json,http://54.235.29.9/FacialAge/BNav_EC2/DepthDuration/v2_depth_duration_MTurk/v2_DepthDuration_HTML.html#59,59,980,846,412,869,8-30-2022,8-54-1,24,depth_duration_stimuli/000502_2014-06-08_23-02-32_260595134347_rgbf000063-resize_4/000502_2014-06-08_23-02-32_260595134347_rgbf000063-resize_4-target.png,125,2.431,5.0,4567,123,feet,jsons/VE125_randls_19_rotated.json,898853,1093306,35,Woman
24,194174,DepthScenes,duration_manipulation_targetAtFixation,jsons/VE125_randls_19_rotated.json,http://54.235.29.9/FacialAge/BNav_EC2/DepthDuration/v2_depth_duration_MTurk/v2_DepthDuration_HTML.html#59,59,980,846,412,869,8-30-2022,8-54-1,25,depth_duration_stimuli/001199_2014-06-17_16-03-48_260595134347_rgbf000077-resize_0/001199_2014-06-17_16-03-48_260595134347_rgbf000077-resize_0-target.png,125,3.4375,6.0,4592,119,feet,jsons/VE125_randls_19_rotated.json,898853,1093306,35,Woman
25,194174,DepthScenes,duration_manipulation_targetAtFixation,jsons/VE125_randls_19_rotated.json,http://54.235.29.9/FacialAge/BNav_EC2/DepthDuration/v2_depth_duration_MTurk/v2_DepthDuration_HTML.html#59,59,980,846,412,869,8-30-2022,8-54-1,26,depth_duration_stimuli/003081_2014-06-15_15-19-16_094959634447_rgbf000150-resize_1/003081_2014-06-15_15-19-16_094959634447_rgbf000150-resize_1-target.png,125,3.9125,5.5,8399,124,feet,jsons/VE125_randls_19_rotated.json,898853,1093306,35,Woman
26,194174,DepthScenes,duration_manipulation_targetAtFixation,jsons/VE125_randls_19_rotated.json,http://54.235.29.9/FacialAge/BNav_EC2/DepthDuration/v2_depth_duration_MTurk/v2_DepthDuration_HTML.html#59,59,980,846,412,869,8-30-2022,8-54-1,27,depth_duration_stimuli/001417_2014-06-19_16-25-36_260595134347_rgbf000115-resize_5/001417_2014-06-19_16-25-36_260595134347_rgbf000115-resize_5-target.png,125,4.6255,5.5,5648,122,feet,jsons/VE125_randls_19_rotated.json,898853,1093306,35,Woman
27,194174,DepthScenes,duration_manipulation_targetAtFixation,jsons/VE125_randls_19_rotated.json,http://54.235.29.9/FacialAge/BNav_EC2/DepthDuration/v2_depth_duration_MTurk/v2_DepthDuration_HTML.html#59,59,980,846,412,869,8-30-2022,8-54-1,28,depth_duration_stimuli/001032_2014-06-08_13-23-17_260595134347_rgbf000021-resize_3/001032_2014-06-08_13-23-17_260595134347_rgbf000021-resize_3-target.png,125,3.2725,3.0,5099,122,feet,jsons/VE125_randls_19_rotated.json,898853,1093306,35,Woman
28,194174,DepthScenes,duration_manipulation_targetAtFixation,jsons/VE125_randls_19_rotated.json,http://54.235.29.9/FacialAge/BNav_EC2/DepthDuration/v2_depth_duration_MTurk/v2_DepthDuration_HTML.html#59,59,980,846,412,869,8-30-2022,8-54-1,29,depth_duration_stimuli/001059_2014-06-08_21-53-27_260595134347_rgbf000061-resize_4/001059_2014-06-08_21-53-27_260595134347_rgbf000061-resize_4-target.png,125,2.4185,4.5,5659,122,feet,jsons/VE125_randls_19_rotated.json,898853,1093306,35,Woman
29,194174,DepthScenes,duration_manipulation_targetAtFixation,jsons/VE125_randls_19_rotated.json,http://54.235.29.9/FacialAge/BNav_EC2/DepthDuration/v2_depth_duration_MTurk/v2_DepthDuration_HTML.html#59,59,980,846,412,869,8-30-2022,8-54-1,30,depth_duration_stimuli/002072_2014-06-24_21-48-06_260595134347_rgbf000115-resize_0/002072_2014-06-24_21-48-06_260595134347_rgbf000115-resize-original.jpg,125,4.702,0.0,4156,122,feet,jsons/VE125_randls_19_rotated.json,898853,1093306,35,Woman
30,194174,DepthScenes,duration_manipulation_targetAtFixation,jsons/VE125_randls_19_rotated.json,http://54.235.29.9/FacialAge/BNav_EC2/DepthDuration/v2_depth_duration_MTurk/v2_DepthDuration_HTML.html#59,59,980,846,412,869,8-30-2022,8-54-1,31,depth_duration_stimuli/000556_2014-06-09_22-42-56_260595134347_rgbf000214-resize_1/000556_2014-06-09_22-42-56_260595134347_rgbf000214-resize_1-target.png,125,4.8415,5.6,5362,122,feet,jsons/VE125_randls_19_rotated.json,898853,1093306,35,Woman
31,194174,DepthScenes,duration_manipulation_targetAtFixation,jsons/VE125_randls_19_rotated.json,http://54.235.29.9/FacialAge/BNav_EC2/DepthDuration/v2_depth_duration_MTurk/v2_DepthDuration_HTML.html#59,59,980,846,412,869,8-30-2022,8-54-1,32,depth_duration_stimuli/001158_2014-06-17_15-32-16_260595134347_rgbf000138-resize_2/001158_2014-06-17_15-32-16_260595134347_rgbf000138-resize_2-target.png,125,4.5315,7.0,4976,122,feet,jsons/VE125_randls_19_rotated.json,898853,1093306,35,Woman
32,194174,DepthScenes,duration_manipulation_targetAtFixation,jsons/VE125_randls_19_rotated.json,http://54.235.29.9/FacialAge/BNav_EC2/DepthDuration/v2_depth_duration_MTurk/v2_DepthDuration_HTML.html#59,59,980,846,412,869,8-30-2022,8-54-1,33,depth_duration_stimuli/000734_2014-06-08_17-39-11_260595134347_rgbf000128-resize_2/000734_2014-06-08_17-39-11_260595134347_rgbf000128-resize_2-target.png,125,4.098,4.5,5874,122,feet,jsons/VE125_randls_19_rotated.json,898853,1093306,35,Woman
33,194174,DepthScenes,duration_manipulation_targetAtFixation,jsons/VE125_randls_19_rotated.json,http://54.235.29.9/FacialAge/BNav_EC2/DepthDuration/v2_depth_duration_MTurk/v2_DepthDuration_HTML.html#59,59,980,846,412,869,8-30-2022,8-54-1,34,depth_duration_stimuli/000739_2014-06-08_18-45-58_260595134347_rgbf000068-resize_1/000739_2014-06-08_18-45-58_260595134347_rgbf000068-resize_1-target.png,125,3.534,4.5,5249,124,feet,jsons/VE125_randls_19_rotated.json,898853,1093306,35,Woman
34,194174,DepthScenes,duration_manipulation_targetAtFixation,jsons/VE125_randls_19_rotated.json,http://54.235.29.9/FacialAge/BNav_EC2/DepthDuration/v2_depth_duration_MTurk/v2_DepthDuration_HTML.html#59,59,980,846,412,869,8-30-2022,8-54-1,35,depth_duration_stimuli/001136_2014-06-17_15-19-41_260595134347_rgbf000076-resize_3/001136_2014-06-17_15-19-41_260595134347_rgbf000076-resize_3-target.png,125,1.8655,4.3,5391,123,feet,jsons/VE125_randls_19_rotated.json,898853,1093306,35,Woman
35,194174,DepthScenes,duration_manipulation_targetAtFixation,jsons/VE125_randls_19_rotated.json,http://54.235.29.9/FacialAge/BNav_EC2/DepthDuration/v2_depth_duration_MTurk/v2_DepthDuration_HTML.html#59,59,980,846,412,869,8-30-2022,8-54-1,36,depth_duration_stimuli/001164_2014-06-17_15-35-46_260595134347_rgbf000085-resize_3/001164_2014-06-17_15-35-46_260595134347_rgbf000085-resize_3-target.png,125,2.354,4.5,7145,123,feet,jsons/VE125_randls_19_rotated.json,898853,1093306,35,Woman
36,194174,DepthScenes,duration_manipulation_targetAtFixation,jsons/VE125_randls_19_rotated.json,http://54.235.29.9/FacialAge/BNav_EC2/DepthDuration/v2_depth_duration_MTurk/v2_DepthDuration_HTML.html#59,59,980,846,412,869,8-30-2022,8-54-1,37,depth_duration_stimuli/000635_2014-06-08_16-38-42_260595134347_rgbf000106-resize_1/000635_2014-06-08_16-38-42_260595134347_rgbf000106-resize_1-target.png,125,2.074,4.0,4681,118,feet,jsons/VE125_randls_19_rotated.json,898853,1093306,35,Woman
37,194174,DepthScenes,duration_manipulation_targetAtFixation,jsons/VE125_randls_19_rotated.json,http://54.235.29.9/FacialAge/BNav_EC2/DepthDuration/v2_depth_duration_MTurk/v2_DepthDuration_HTML.html#59,59,980,846,412,869,8-30-2022,8-54-1,38,depth_duration_stimuli/002279_2014-06-28_18-55-32_260595134347_rgbf000040-resize_5/002279_2014-06-28_18-55-32_260595134347_rgbf000040-resize_5-target.png,125,1.5043333333333,5.0,5135,122,feet,jsons/VE125_randls_19_rotated.json,898853,1093306,35,Woman
38,194174,DepthScenes,duration_manipulation_targetAtFixation,jsons/VE125_randls_19_rotated.json,http://54.235.29.9/FacialAge/BNav_EC2/DepthDuration/v2_depth_duration_MTurk/v2_DepthDuration_HTML.html#59,59,980,846,412,869,8-30-2022,8-54-1,39,depth_duration_stimuli/001828_2014-06-26_21-40-03_260595134347_rgbf000024-resize_0/001828_2014-06-26_21-40-03_260595134347_rgbf000024-resize_0-target.png,125,4.8260000000000005,6.0,4397,122,feet,jsons/VE125_randls_19_rotated.json,898853,1093306,35,Woman
39,194174,DepthScenes,duration_manipulation_targetAtFixation,jsons/VE125_randls_19_rotated.json,http://54.235.29.9/FacialAge/BNav_EC2/DepthDuration/v2_depth_duration_MTurk/v2_DepthDuration_HTML.html#59,59,980,846,412,869,8-30-2022,8-54-1,40,depth_duration_stimuli/000009_2014-05-26_14-32-05_260595134347_rgbf000034-resize_3/000009_2014-05-26_14-32-05_260595134347_rgbf000034-resize_3-target.png,125,3.8715,7.0,5068,122,feet,jsons/VE125_randls_19_rotated.json,898853,1093306,35,Woman
40,194174,DepthScenes,duration_manipulation_targetAtFixation,jsons/VE125_randls_19_rotated.json,http://54.235.29.9/FacialAge/BNav_EC2/DepthDuration/v2_depth_duration_MTurk/v2_DepthDuration_HTML.html#59,59,980,846,412,869,8-30-2022,8-54-1,41,depth_duration_stimuli/002340_2014-06-28_20-05-46_260595134347_rgbf000113-resize_0/002340_2014-06-28_20-05-46_260595134347_rgbf000113-resize_0-target.png,125,2.4735,6.0,4681,124,feet,jsons/VE125_randls_19_rotated.json,898853,1093306,35,Woman
41,194174,DepthScenes,duration_manipulation_targetAtFixation,jsons/VE125_randls_19_rotated.json,http://54.235.29.9/FacialAge/BNav_EC2/DepthDuration/v2_depth_duration_MTurk/v2_DepthDuration_HTML.html#59,59,980,846,412,869,8-30-2022,8-54-1,42,depth_duration_stimuli/001016_2014-06-09_16-16-10_260595134347_rgbf000112-resize_5/001016_2014-06-09_16-16-10_260595134347_rgbf000112-resize_5-target.png,125,1.6565,5.5,5044,122,feet,jsons/VE125_randls_19_rotated.json,898853,1093306,35,Woman
42,194174,DepthScenes,duration_manipulation_targetAtFixation,jsons/VE125_randls_19_rotated.json,http://54.235.29.9/FacialAge/BNav_EC2/DepthDuration/v2_depth_duration_MTurk/v2_DepthDuration_HTML.html#59,59,980,846,412,869,8-30-2022,8-54-1,43,depth_duration_stimuli/000549_2014-06-08_22-10-24_260595134347_rgbf000247-resize_3/000549_2014-06-08_22-10-24_260595134347_rgbf000247-resize_3-target.png,125,1.841,4.0,4386,122,feet,jsons/VE125_randls_19_rotated.json,898853,1093306,35,Woman
43,194174,DepthScenes,duration_manipulation_targetAtFixation,jsons/VE125_randls_19_rotated.json,http://54.235.29.9/FacialAge/BNav_EC2/DepthDuration/v2_depth_duration_MTurk/v2_DepthDuration_HTML.html#59,59,980,846,412,869,8-30-2022,8-54-1,44,depth_duration_stimuli/001055_2014-06-08_18-45-35_260595134347_rgbf000111-resize_4/001055_2014-06-08_18-45-35_260595134347_rgbf000111-resize_4-target.png,125,2.4290000000000003,4.5,8744,120,feet,jsons/VE125_randls_19_rotated.json,898853,1093306,35,Woman
44,194174,DepthScenes,duration_manipulation_targetAtFixation,jsons/VE125_randls_19_rotated.json,http://54.235.29.9/FacialAge/BNav_EC2/DepthDuration/v2_depth_duration_MTurk/v2_DepthDuration_HTML.html#59,59,980,846,412,869,8-30-2022,8-54-1,45,depth_duration_stimuli/000866_2014-06-09_20-45-42_260595134347_rgbf000139-resize_1/000866_2014-06-09_20-45-42_260595134347_rgbf000139-resize_1-target.png,125,3.2155,5.0,4576,122,feet,jsons/VE125_randls_19_rotated.json,898853,1093306,35,Woman
45,194174,DepthScenes,duration_manipulation_targetAtFixation,jsons/VE125_randls_19_rotated.json,http://54.235.29.9/FacialAge/BNav_EC2/DepthDuration/v2_depth_duration_MTurk/v2_DepthDuration_HTML.html#59,59,980,846,412,869,8-30-2022,8-54-1,46,depth_duration_stimuli/002989_2014-06-15_12-25-03_094959634447_rgbf000150-resize_3/002989_2014-06-15_12-25-03_094959634447_rgbf000150-resize_3-target.png,125,4.1975,5.0,4457,123,feet,jsons/VE125_randls_19_rotated.json,898853,1093306,35,Woman
46,194174,DepthScenes,duration_manipulation_targetAtFixation,jsons/VE125_randls_19_rotated.json,http://54.235.29.9/FacialAge/BNav_EC2/DepthDuration/v2_depth_duration_MTurk/v2_DepthDuration_HTML.html#59,59,980,846,412,869,8-30-2022,8-54-1,47,depth_duration_stimuli/002678_2014-06-13_16-15-32_094959634447_rgbf000151-resize_6/002678_2014-06-13_16-15-32_094959634447_rgbf000151-resize_6-target.png,125,2.1830000000000003,7.0,4428,122,feet,jsons/VE125_randls_19_rotated.json,898853,1093306,35,Woman
47,194174,DepthScenes,duration_manipulation_targetAtFixation,jsons/VE125_randls_19_rotated.json,http://54.235.29.9/FacialAge/BNav_EC2/DepthDuration/v2_depth_duration_MTurk/v2_DepthDuration_HTML.html#59,59,980,846,412,869,8-30-2022,8-54-1,48,depth_duration_stimuli/000368_2014-06-09_15-53-01_260595134347_rgbf000155-resize_2/000368_2014-06-09_15-53-01_260595134347_rgbf000155-resize_2-target.png,125,2.4859999999999998,6.0,10952,123,feet,jsons/VE125_randls_19_rotated.json,898853,1093306,35,Woman
48,194174,DepthScenes,duration_manipulation_targetAtFixation,jsons/VE125_randls_19_rotated.json,http://54.235.29.9/FacialAge/BNav_EC2/DepthDuration/v2_depth_duration_MTurk/v2_DepthDuration_HTML.html#59,59,980,846,412,869,8-30-2022,8-54-1,49,depth_duration_stimuli/001170_2014-06-17_15-43-44_260595134347_rgbf000096-resize_6/001170_2014-06-17_15-43-44_260595134347_rgbf000096-resize-original.jpg,125,1.1909999999999998,0.0,5103,122,feet,jsons/VE125_randls_19_rotated.json,898853,1093306,35,Woman
49,194174,DepthScenes,duration_manipulation_targetAtFixation,jsons/VE125_randls_19_rotated.json,http://54.235.29.9/FacialAge/BNav_EC2/DepthDuration/v2_depth_duration_MTurk/v2_DepthDuration_HTML.html#59,59,980,846,412,869,8-30-2022,8-54-1,50,depth_duration_stimuli/001100_2014-06-15_17-46-26_260595134347_rgbf000225-resize_2/001100_2014-06-15_17-46-26_260595134347_rgbf000225-resize_2-target.png,125,2.24,3.0,4495,122,feet,jsons/VE125_randls_19_rotated.json,898853,1093306,35,Woman
50,194174,DepthScenes,duration_manipulation_targetAtFixation,jsons/VE125_randls_19_rotated.json,http://54.235.29.9/FacialAge/BNav_EC2/DepthDuration/v2_depth_duration_MTurk/v2_DepthDuration_HTML.html#59,59,980,846,412,869,8-30-2022,8-54-1,51,depth_duration_stimuli/002784_2014-06-22_19-26-30_094959634447_rgbf000083-resize_3/002784_2014-06-22_19-26-30_094959634447_rgbf000083-resize_3-target.png,125,1.8046666666667,4.0,4912,122,feet,jsons/VE125_randls_19_rotated.json,898853,1093306,35,Woman
51,194174,DepthScenes,duration_manipulation_targetAtFixation,jsons/VE125_randls_19_rotated.json,http://54.235.29.9/FacialAge/BNav_EC2/DepthDuration/v2_depth_duration_MTurk/v2_DepthDuration_HTML.html#59,59,980,846,412,869,8-30-2022,8-54-1,52,depth_duration_stimuli/002750_2014-06-22_19-08-03_094959634447_rgbf000094-resize_4/002750_2014-06-22_19-08-03_094959634447_rgbf000094-resize_4-target.png,125,2.354,4.5,5080,121,feet,jsons/VE125_randls_19_rotated.json,898853,1093306,35,Woman
52,194174,DepthScenes,duration_manipulation_targetAtFixation,jsons/VE125_randls_19_rotated.json,http://54.235.29.9/FacialAge/BNav_EC2/DepthDuration/v2_depth_duration_MTurk/v2_DepthDuration_HTML.html#59,59,980,846,412,869,8-30-2022,8-54-1,53,depth_duration_stimuli/002549_2014-06-24_13-41-39_094959634447_rgbf000022-resize_3/002549_2014-06-24_13-41-39_094959634447_rgbf000022-resize_3-target.png,125,1.476,4.5,5373,122,feet,jsons/VE125_randls_19_rotated.json,898853,1093306,35,Woman
53,194174,DepthScenes,duration_manipulation_targetAtFixation,jsons/VE125_randls_19_rotated.json,http://54.235.29.9/FacialAge/BNav_EC2/DepthDuration/v2_depth_duration_MTurk/v2_DepthDuration_HTML.html#59,59,980,846,412,869,8-30-2022,8-54-1,54,depth_duration_stimuli/001214_2014-06-17_16-13-55_260595134347_rgbf000111-resize_0/001214_2014-06-17_16-13-55_260595134347_rgbf000111-resize_0-target.png,125,2.6505,5.0,4438,122,feet,jsons/VE125_randls_19_rotated.json,898853,1093306,35,Woman
54,194174,DepthScenes,duration_manipulation_targetAtFixation,jsons/VE125_randls_19_rotated.json,http://54.235.29.9/FacialAge/BNav_EC2/DepthDuration/v2_depth_duration_MTurk/v2_DepthDuration_HTML.html#59,59,980,846,412,869,8-30-2022,8-54-1,55,depth_duration_stimuli/000810_2014-06-08_17-20-01_260595134347_rgbf000105-resize_0/000810_2014-06-08_17-20-01_260595134347_rgbf000105-resize_0-target.png,125,1.4865,5.0,4381,120,feet,jsons/VE125_randls_19_rotated.json,898853,1093306,35,Woman
55,194174,DepthScenes,duration_manipulation_targetAtFixation,jsons/VE125_randls_19_rotated.json,http://54.235.29.9/FacialAge/BNav_EC2/DepthDuration/v2_depth_duration_MTurk/v2_DepthDuration_HTML.html#59,59,980,846,412,869,8-30-2022,8-54-1,56,depth_duration_stimuli/003079_2014-06-15_15-18-20_094959634447_rgbf000152-resize_8/003079_2014-06-15_15-18-20_094959634447_rgbf000152-resize_8-target.png,125,2.8775,5.0,4703,120,feet,jsons/VE125_randls_19_rotated.json,898853,1093306,35,Woman
56,194174,DepthScenes,duration_manipulation_targetAtFixation,jsons/VE125_randls_19_rotated.json,http://54.235.29.9/FacialAge/BNav_EC2/DepthDuration/v2_depth_duration_MTurk/v2_DepthDuration_HTML.html#59,59,980,846,412,869,8-30-2022,8-54-1,57,depth_duration_stimuli/000506_2014-06-08_23-21-00_260595134347_rgbf000070-resize_7/000506_2014-06-08_23-21-00_260595134347_rgbf000070-resize_7-target.png,125,4.0585,5.5,5507,122,feet,jsons/VE125_randls_19_rotated.json,898853,1093306,35,Woman
57,194174,DepthScenes,duration_manipulation_targetAtFixation,jsons/VE125_randls_19_rotated.json,http://54.235.29.9/FacialAge/BNav_EC2/DepthDuration/v2_depth_duration_MTurk/v2_DepthDuration_HTML.html#59,59,980,846,412,869,8-30-2022,8-54-1,58,depth_duration_stimuli/000854_2014-06-09_19-43-13_260595134347_rgbf000066-resize_0/000854_2014-06-09_19-43-13_260595134347_rgbf000066-resize_0-target.png,125,3.068,4.5,5009,121,feet,jsons/VE125_randls_19_rotated.json,898853,1093306,35,Woman
58,194174,DepthScenes,duration_manipulation_targetAtFixation,jsons/VE125_randls_19_rotated.json,http://54.235.29.9/FacialAge/BNav_EC2/DepthDuration/v2_depth_duration_MTurk/v2_DepthDuration_HTML.html#59,59,980,846,412,869,8-30-2022,8-54-1,59,depth_duration_stimuli/000758_2014-06-08_22-05-08_260595134347_rgbf000085-resize_0/000758_2014-06-08_22-05-08_260595134347_rgbf000085-resize_0-target.png,125,3.3810000000000002,6.0,4505,121,feet,jsons/VE125_randls_19_rotated.json,898853,1093306,35,Woman
59,194174,DepthScenes,duration_manipulation_targetAtFixation,jsons/VE125_randls_19_rotated.json,http://54.235.29.9/FacialAge/BNav_EC2/DepthDuration/v2_depth_duration_MTurk/v2_DepthDuration_HTML.html#59,59,980,846,412,869,8-30-2022,8-54-1,60,depth_duration_stimuli/002199_2014-06-28_18-33-56_260595134347_rgbf000074-resize_0/002199_2014-06-28_18-33-56_260595134347_rgbf000074-resize_0-target.png,125,1.996,4.5,5060,123,feet,jsons/VE125_randls_19_rotated.json,898853,1093306,35,Woman
60,194174,DepthScenes,duration_manipulation_targetAtFixation,jsons/VE125_randls_19_rotated.json,http://54.235.29.9/FacialAge/BNav_EC2/DepthDuration/v2_depth_duration_MTurk/v2_DepthDuration_HTML.html#59,59,980,846,412,869,8-30-2022,8-54-1,61,depth_duration_stimuli/001056_2014-06-08_18-46-44_260595134347_rgbf000068-resize_0/001056_2014-06-08_18-46-44_260595134347_rgbf000068-resize_0-target.png,125,2.6625,5.0,4199,120,feet,jsons/VE125_randls_19_rotated.json,898853,1093306,35,Woman
61,194174,DepthScenes,duration_manipulation_targetAtFixation,jsons/VE125_randls_19_rotated.json,http://54.235.29.9/FacialAge/BNav_EC2/DepthDuration/v2_depth_duration_MTurk/v2_DepthDuration_HTML.html#59,59,980,846,412,869,8-30-2022,8-54-1,62,depth_duration_stimuli/003129_2014-05-12_10-48-10_094959634447_rgbf000100-resize_0/003129_2014-05-12_10-48-10_094959634447_rgbf000100-resize_0-target.png,125,4.9305,6.5,6358,123,feet,jsons/VE125_randls_19_rotated.json,898853,1093306,35,Woman
62,194174,DepthScenes,duration_manipulation_targetAtFixation,jsons/VE125_randls_19_rotated.json,http://54.235.29.9/FacialAge/BNav_EC2/DepthDuration/v2_depth_duration_MTurk/v2_DepthDuration_HTML.html#59,59,980,846,412,869,8-30-2022,8-54-1,63,depth_duration_stimuli/000414_2014-06-04_19-49-13_260595134347_rgbf000044-resize_0/000414_2014-06-04_19-49-13_260595134347_rgbf000044-resize_0-target.png,125,4.329,4.5,6946,120,feet,jsons/VE125_randls_19_rotated.json,898853,1093306,35,Woman
63,194174,DepthScenes,duration_manipulation_targetAtFixation,jsons/VE125_randls_19_rotated.json,http://54.235.29.9/FacialAge/BNav_EC2/DepthDuration/v2_depth_duration_MTurk/v2_DepthDuration_HTML.html#59,59,980,846,412,869,8-30-2022,8-54-1,64,depth_duration_stimuli/000742_2014-06-08_18-48-09_260595134347_rgbf000164-resize_4/000742_2014-06-08_18-48-09_260595134347_rgbf000164-resize_4-target.png,125,4.632,6.0,4227,122,feet,jsons/VE125_randls_19_rotated.json,898853,1093306,35,Woman
64,194174,DepthScenes,duration_manipulation_targetAtFixation,jsons/VE125_randls_19_rotated.json,http://54.235.29.9/FacialAge/BNav_EC2/DepthDuration/v2_depth_duration_MTurk/v2_DepthDuration_HTML.html#59,59,980,846,412,869,8-30-2022,8-54-1,65,depth_duration_stimuli/001066_2014-06-08_22-03-20_260595134347_rgbf000066-resize_4/001066_2014-06-08_22-03-20_260595134347_rgbf000066-resize_4-target.png,125,4.2330000000000005,5.0,6485,123,feet,jsons/VE125_randls_19_rotated.json,898853,1093306,35,Woman
65,194174,DepthScenes,duration_manipulation_targetAtFixation,jsons/VE125_randls_19_rotated.json,http://54.235.29.9/FacialAge/BNav_EC2/DepthDuration/v2_depth_duration_MTurk/v2_DepthDuration_HTML.html#59,59,980,1800,412,869,8-30-2022,8-54-1,66,depth_duration_stimuli/001540_2014-06-20_17-01-05_260595134347_rgbf000086-resize_2/001540_2014-06-20_17-01-05_260595134347_rgbf000086-resize-original.jpg,125,1.459,0.0,6213,122,feet,jsons/VE125_randls_19_rotated.json,898853,1093306,35,Woman
66,194174,DepthScenes,duration_manipulation_targetAtFixation,jsons/VE125_randls_19_rotated.json,http://54.235.29.9/FacialAge/BNav_EC2/DepthDuration/v2_depth_duration_MTurk/v2_DepthDuration_HTML.html#59,59,980,846,412,869,8-30-2022,8-54-1,67,depth_duration_stimuli/001584_2014-06-20_11-07-43_260595134347_rgbf000002-resize_1/001584_2014-06-20_11-07-43_260595134347_rgbf000002-resize_1-target.png,125,3.53,4.5,9253,119,feet,jsons/VE125_randls_19_rotated.json,898853,1093306,35,Woman
67,194174,DepthScenes,duration_manipulation_targetAtFixation,jsons/VE125_randls_19_rotated.json,http://54.235.29.9/FacialAge/BNav_EC2/DepthDuration/v2_depth_duration_MTurk/v2_DepthDuration_HTML.html#59,59,980,846,412,869,8-30-2022,8-54-1,68,depth_duration_stimuli/003621_2014-05-23_18-06-08_094959634447_rgbf000101-resize_1/003621_2014-05-23_18-06-08_094959634447_rgbf000101-resize_1-target.png,125,3.9835,5.0,6716,121,feet,jsons/VE125_randls_19_rotated.json,898853,1093306,35,Woman
68,194174,DepthScenes,duration_manipulation_targetAtFixation,jsons/VE125_randls_19_rotated.json,http://54.235.29.9/FacialAge/BNav_EC2/DepthDuration/v2_depth_duration_MTurk/v2_DepthDuration_HTML.html#59,59,980,846,412,869,8-30-2022,8-54-1,69,depth_duration_stimuli/000103_2014-05-14_22-01-17_260595134347_rgbf000152-resize_5/000103_2014-05-14_22-01-17_260595134347_rgbf000152-resize_5-target.png,125,1.993,6.0,4171,121,feet,jsons/VE125_randls_19_rotated.json,898853,1093306,35,Woman
69,194174,DepthScenes,duration_manipulation_targetAtFixation,jsons/VE125_randls_19_rotated.json,http://54.235.29.9/FacialAge/BNav_EC2/DepthDuration/v2_depth_duration_MTurk/v2_DepthDuration_HTML.html#59,59,980,846,412,869,8-30-2022,8-54-1,70,depth_duration_stimuli/001555_2014-06-20_17-12-10_260595134347_rgbf000065-resize_4/001555_2014-06-20_17-12-10_260595134347_rgbf000065-resize_4-target.png,125,1.633,3.5,5061,121,feet,jsons/VE125_randls_19_rotated.json,898853,1093306,35,Woman
70,194174,DepthScenes,duration_manipulation_targetAtFixation,jsons/VE125_randls_19_rotated.json,http://54.235.29.9/FacialAge/BNav_EC2/DepthDuration/v2_depth_duration_MTurk/v2_DepthDuration_HTML.html#59,59,980,846,412,869,8-30-2022,8-54-1,71,depth_duration_stimuli/003048_2014-06-15_13-49-43_094959634447_rgbf000150-resize_1/003048_2014-06-15_13-49-43_094959634447_rgbf000150-resize_1-target.png,125,4.0035,5.5,5641,116,feet,jsons/VE125_randls_19_rotated.json,898853,1093306,35,Woman
71,194174,DepthScenes,duration_manipulation_targetAtFixation,jsons/VE125_randls_19_rotated.json,http://54.235.29.9/FacialAge/BNav_EC2/DepthDuration/v2_depth_duration_MTurk/v2_DepthDuration_HTML.html#59,59,980,846,412,869,8-30-2022,8-54-1,72,depth_duration_stimuli/002043_2014-06-24_20-29-38_260595134347_rgbf000039-resize_4/002043_2014-06-24_20-29-38_260595134347_rgbf000039-resize_4-target.png,125,2.8435,4.5,6433,122,feet,jsons/VE125_randls_19_rotated.json,898853,1093306,35,Woman
72,194174,DepthScenes,duration_manipulation_targetAtFixation,jsons/VE125_randls_19_rotated.json,http://54.235.29.9/FacialAge/BNav_EC2/DepthDuration/v2_depth_duration_MTurk/v2_DepthDuration_HTML.html#59,59,980,846,412,869,8-30-2022,8-54-1,73,depth_duration_stimuli/002875_2014-06-01_15-19-00_094959634447_rgbf000151-resize_1/002875_2014-06-01_15-19-00_094959634447_rgbf000151-resize_1-target.png,125,1.9675,5.0,4030,121,feet,jsons/VE125_randls_19_rotated.json,898853,1093306,35,Woman
73,194174,DepthScenes,duration_manipulation_targetAtFixation,jsons/VE125_randls_19_rotated.json,http://54.235.29.9/FacialAge/BNav_EC2/DepthDuration/v2_depth_duration_MTurk/v2_DepthDuration_HTML.html#59,59,980,846,412,869,8-30-2022,8-54-1,74,depth_duration_stimuli/001011_2014-06-08_23-18-54_260595134347_rgbf000044-resize_4/001011_2014-06-08_23-18-54_260595134347_rgbf000044-resize_4-target.png,125,2.4730000000000003,5.0,4165,123,feet,jsons/VE125_randls_19_rotated.json,898853,1093306,35,Woman
74,194174,DepthScenes,duration_manipulation_targetAtFixation,jsons/VE125_randls_19_rotated.json,http://54.235.29.9/FacialAge/BNav_EC2/DepthDuration/v2_depth_duration_MTurk/v2_DepthDuration_HTML.html#59,59,980,846,412,869,8-30-2022,8-54-1,75,depth_duration_stimuli/001132_2014-06-17_14-48-54_260595134347_rgbf000100-resize_2/001132_2014-06-17_14-48-54_260595134347_rgbf000100-resize_2-target.png,125,3.753,6.0,4006,122,feet,jsons/VE125_randls_19_rotated.json,898853,1093306,35,Woman
75,194174,DepthScenes,duration_manipulation_targetAtFixation,jsons/VE125_randls_19_rotated.json,http://54.235.29.9/FacialAge/BNav_EC2/DepthDuration/v2_depth_duration_MTurk/v2_DepthDuration_HTML.html#59,59,980,846,412,869,8-30-2022,8-54-1,76,depth_duration_stimuli/001133_2014-06-17_14-49-16_260595134347_rgbf000100-resize_0/001133_2014-06-17_14-49-16_260595134347_rgbf000100-resize_0-target.png,125,4.2115,6.5,4690,122,feet,jsons/VE125_randls_19_rotated.json,898853,1093306,35,Woman
76,194174,DepthScenes,duration_manipulation_targetAtFixation,jsons/VE125_randls_19_rotated.json,http://54.235.29.9/FacialAge/BNav_EC2/DepthDuration/v2_depth_duration_MTurk/v2_DepthDuration_HTML.html#59,59,980,846,412,869,8-30-2022,8-54-1,77,depth_duration_stimuli/002414_2014-06-28_20-24-58_260595134347_rgbf000067-resize_4/002414_2014-06-28_20-24-58_260595134347_rgbf000067-resize_4-target.png,125,4.363,5.0,3975,122,feet,jsons/VE125_randls_19_rotated.json,898853,1093306,35,Woman
77,194174,DepthScenes,duration_manipulation_targetAtFixation,jsons/VE125_randls_19_rotated.json,http://54.235.29.9/FacialAge/BNav_EC2/DepthDuration/v2_depth_duration_MTurk/v2_DepthDuration_HTML.html#59,59,980,846,412,869,8-30-2022,8-54-1,78,depth_duration_stimuli/000773_2014-06-08_22-24-54_260595134347_rgbf000093-resize_1/000773_2014-06-08_22-24-54_260595134347_rgbf000093-resize_1-target.png,125,4.973,5.5,6827,123,feet,jsons/VE125_randls_19_rotated.json,898853,1093306,35,Woman
78,194174,DepthScenes,duration_manipulation_targetAtFixation,jsons/VE125_randls_19_rotated.json,http://54.235.29.9/FacialAge/BNav_EC2/DepthDuration/v2_depth_duration_MTurk/v2_DepthDuration_HTML.html#59,59,980,846,412,869,8-30-2022,8-54-1,79,depth_duration_stimuli/002444_2014-06-28_20-32-08_260595134347_rgbf000027-resize_0/002444_2014-06-28_20-32-08_260595134347_rgbf000027-resize_0-target.png,125,4.388999999999999,4.5,9917,122,feet,jsons/VE125_randls_19_rotated.json,898853,1093306,35,Woman
79,194174,DepthScenes,duration_manipulation_targetAtFixation,jsons/VE125_randls_19_rotated.json,http://54.235.29.9/FacialAge/BNav_EC2/DepthDuration/v2_depth_duration_MTurk/v2_DepthDuration_HTML.html#59,59,980,846,412,869,8-30-2022,8-54-1,80,depth_duration_stimuli/000436_2014-06-09_22-25-11_260595134347_rgbf000137-resize_1/000436_2014-06-09_22-25-11_260595134347_rgbf000137-resize_1-target.png,125,4.0705,5.0,3934,123,feet,jsons/VE125_randls_19_rotated.json,898853,1093306,35,Woman
80,194174,DepthScenes,duration_manipulation_targetAtFixation,jsons/VE125_randls_19_rotated.json,http://54.235.29.9/FacialAge/BNav_EC2/DepthDuration/v2_depth_duration_MTurk/v2_DepthDuration_HTML.html#59,59,980,846,412,869,8-30-2022,8-54-1,81,depth_duration_stimuli/001235_2014-06-17_16-37-36_260595134347_rgbf000084-resize_4/001235_2014-06-17_16-37-36_260595134347_rgbf000084-resize_4-target.png,125,3.6605,4.0,6317,121,feet,jsons/VE125_randls_19_rotated.json,898853,1093306,35,Woman
81,194174,DepthScenes,duration_manipulation_targetAtFixation,jsons/VE125_randls_19_rotated.json,http://54.235.29.9/FacialAge/BNav_EC2/DepthDuration/v2_depth_duration_MTurk/v2_DepthDuration_HTML.html#59,59,980,846,412,869,8-30-2022,8-54-1,82,depth_duration_stimuli/000788_2014-06-08_22-34-36_260595134347_rgbf000131-resize_1/000788_2014-06-08_22-34-36_260595134347_rgbf000131-resize_1-target.png,125,3.359,4.0,4382,120,feet,jsons/VE125_randls_19_rotated.json,898853,1093306,35,Woman
82,194174,DepthScenes,duration_manipulation_targetAtFixation,jsons/VE125_randls_19_rotated.json,http://54.235.29.9/FacialAge/BNav_EC2/DepthDuration/v2_depth_duration_MTurk/v2_DepthDuration_HTML.html#59,59,980,846,412,869,8-30-2022,8-54-1,83,depth_duration_stimuli/003228_2014-05-14_13-42-35_094959634447_rgbf000101-resize_1/003228_2014-05-14_13-42-35_094959634447_rgbf000101-resize_1-target.png,125,1.9680000000000002,3.5,5131,122,feet,jsons/VE125_randls_19_rotated.json,898853,1093306,35,Woman
83,194174,DepthScenes,duration_manipulation_targetAtFixation,jsons/VE125_randls_19_rotated.json,http://54.235.29.9/FacialAge/BNav_EC2/DepthDuration/v2_depth_duration_MTurk/v2_DepthDuration_HTML.html#59,59,980,846,412,869,8-30-2022,8-54-1,84,depth_duration_stimuli/002600_2014-06-24_14-27-04_094959634447_rgbf000074-resize_2/002600_2014-06-24_14-27-04_094959634447_rgbf000074-resize_2-target.png,125,2.7575,4.5,6288,122,feet,jsons/VE125_randls_19_rotated.json,898853,1093306,35,Woman
84,194174,DepthScenes,duration_manipulation_targetAtFixation,jsons/VE125_randls_19_rotated.json,http://54.235.29.9/FacialAge/BNav_EC2/DepthDuration/v2_depth_duration_MTurk/v2_DepthDuration_HTML.html#59,59,980,846,412,869,8-30-2022,8-54-1,85,depth_duration_stimuli/000943_2014-06-09_19-31-07_260595134347_rgbf000128-resize_1/000943_2014-06-09_19-31-07_260595134347_rgbf000128-resize_1-target.png,125,1.9765,4.5,5219,121,feet,jsons/VE125_randls_19_rotated.json,898853,1093306,35,Woman
85,194174,DepthScenes,duration_manipulation_targetAtFixation,jsons/VE125_randls_19_rotated.json,http://54.235.29.9/FacialAge/BNav_EC2/DepthDuration/v2_depth_duration_MTurk/v2_DepthDuration_HTML.html#59,59,980,846,412,869,8-30-2022,8-54-1,86,depth_duration_stimuli/003070_2014-06-15_14-58-27_094959634447_rgbf000150-resize_3/003070_2014-06-15_14-58-27_094959634447_rgbf000150-resize_3-target.png,125,2.9415,4.5,4684,122,feet,jsons/VE125_randls_19_rotated.json,898853,1093306,35,Woman
86,194174,DepthScenes,duration_manipulation_targetAtFixation,jsons/VE125_randls_19_rotated.json,http://54.235.29.9/FacialAge/BNav_EC2/DepthDuration/v2_depth_duration_MTurk/v2_DepthDuration_HTML.html#59,59,980,846,412,869,8-30-2022,8-54-1,87,depth_duration_stimuli/000409_2014-06-04_19-23-33_260595134347_rgbf000067-resize_0/000409_2014-06-04_19-23-33_260595134347_rgbf000067-resize_0-target.png,125,3.7335,6.0,4852,123,feet,jsons/VE125_randls_19_rotated.json,898853,1093306,35,Woman
87,194174,DepthScenes,duration_manipulation_targetAtFixation,jsons/VE125_randls_19_rotated.json,http://54.235.29.9/FacialAge/BNav_EC2/DepthDuration/v2_depth_duration_MTurk/v2_DepthDuration_HTML.html#59,59,980,846,412,869,8-30-2022,8-54-1,88,depth_duration_stimuli/002663_2014-06-13_15-50-26_094959634447_rgbf000075-resize_1/002663_2014-06-13_15-50-26_094959634447_rgbf000075-resize_1-target.png,125,4.7495,5.5,4547,121,feet,jsons/VE125_randls_19_rotated.json,898853,1093306,35,Woman
88,194174,DepthScenes,duration_manipulation_targetAtFixation,jsons/VE125_randls_19_rotated.json,http://54.235.29.9/FacialAge/BNav_EC2/DepthDuration/v2_depth_duration_MTurk/v2_DepthDuration_HTML.html#59,59,980,846,412,869,8-30-2022,8-54-1,89,depth_duration_stimuli/001392_2014-06-19_16-07-59_260595134347_rgbf000046-resize_1/001392_2014-06-19_16-07-59_260595134347_rgbf000046-resize_1-target.png,125,4.135,4.5,4551,120,feet,jsons/VE125_randls_19_rotated.json,898853,1093306,35,Woman
89,194174,DepthScenes,duration_manipulation_targetAtFixation,jsons/VE125_randls_19_rotated.json,http://54.235.29.9/FacialAge/BNav_EC2/DepthDuration/v2_depth_duration_MTurk/v2_DepthDuration_HTML.html#59,59,980,846,412,869,8-30-2022,8-54-1,90,depth_duration_stimuli/001570_2014-06-20_17-21-09_260595134347_rgbf000135-resize_4/001570_2014-06-20_17-21-09_260595134347_rgbf000135-resize_4-target.png,125,4.467,5.5,5223,122,feet,jsons/VE125_randls_19_rotated.json,898853,1093306,35,Woman
90,194174,DepthScenes,duration_manipulation_targetAtFixation,jsons/VE125_randls_19_rotated.json,http://54.235.29.9/FacialAge/BNav_EC2/DepthDuration/v2_depth_duration_MTurk/v2_DepthDuration_HTML.html#59,59,980,846,412,869,8-30-2022,8-54-1,91,depth_duration_stimuli/000709_2014-06-08_13-51-55_260595134347_rgbf000068-resize_3/000709_2014-06-08_13-51-55_260595134347_rgbf000068-resize_3-target.png,125,1.8030000000000002,5.0,4631,120,feet,jsons/VE125_randls_19_rotated.json,898853,1093306,35,Woman
91,194174,DepthScenes,duration_manipulation_targetAtFixation,jsons/VE125_randls_19_rotated.json,http://54.235.29.9/FacialAge/BNav_EC2/DepthDuration/v2_depth_duration_MTurk/v2_DepthDuration_HTML.html#59,59,980,846,412,869,8-30-2022,8-54-1,92,depth_duration_stimuli/002057_2014-06-24_21-00-13_260595134347_rgbf000120-resize_1/002057_2014-06-24_21-00-13_260595134347_rgbf000120-resize_1-target.png,125,2.967,4.5,4675,123,feet,jsons/VE125_randls_19_rotated.json,898853,1093306,35,Woman
92,194174,DepthScenes,duration_manipulation_targetAtFixation,jsons/VE125_randls_19_rotated.json,http://54.235.29.9/FacialAge/BNav_EC2/DepthDuration/v2_depth_duration_MTurk/v2_DepthDuration_HTML.html#59,59,980,846,412,869,8-30-2022,8-54-1,93,depth_duration_stimuli/003083_2014-06-15_15-21-03_094959634447_rgbf000063-resize_1/003083_2014-06-15_15-21-03_094959634447_rgbf000063-resize_1-target.png,125,4.1405,5.5,5243,120,feet,jsons/VE125_randls_19_rotated.json,898853,1093306,35,Woman
93,194174,DepthScenes,duration_manipulation_targetAtFixation,jsons/VE125_randls_19_rotated.json,http://54.235.29.9/FacialAge/BNav_EC2/DepthDuration/v2_depth_duration_MTurk/v2_DepthDuration_HTML.html#59,59,980,846,412,869,8-30-2022,8-54-1,94,depth_duration_stimuli/000486_2014-06-09_20-47-20_260595134347_rgbf000143-resize_2/000486_2014-06-09_20-47-20_260595134347_rgbf000143-resize_2-target.png,125,4.8325,5.5,7458,124,feet,jsons/VE125_randls_19_rotated.json,898853,1093306,35,Woman
94,194174,DepthScenes,duration_manipulation_targetAtFixation,jsons/VE125_randls_19_rotated.json,http://54.235.29.9/FacialAge/BNav_EC2/DepthDuration/v2_depth_duration_MTurk/v2_DepthDuration_HTML.html#59,59,980,846,412,869,8-30-2022,8-54-1,95,depth_duration_stimuli/002568_2014-06-24_13-59-21_094959634447_rgbf000062-resize_4/002568_2014-06-24_13-59-21_094959634447_rgbf000062-resize_4-target.png,125,3.015,5.6,4673,121,feet,jsons/VE125_randls_19_rotated.json,898853,1093306,35,Woman
95,194174,DepthScenes,duration_manipulation_targetAtFixation,jsons/VE125_randls_19_rotated.json,http://54.235.29.9/FacialAge/BNav_EC2/DepthDuration/v2_depth_duration_MTurk/v2_DepthDuration_HTML.html#59,59,980,944,412,869,8-30-2022,8-54-1,96,depth_duration_stimuli/003492_2014-05-21_15-50-55_094959634447_rgbf000828-resize_1/003492_2014-05-21_15-50-55_094959634447_rgbf000828-resize_1-target.png,125,4.06875,5.0,5286,121,feet,jsons/VE125_randls_19_rotated.json,898853,1093306,35,Woman
96,194174,DepthScenes,duration_manipulation_targetAtFixation,jsons/VE125_randls_19_rotated.json,http://54.235.29.9/FacialAge/BNav_EC2/DepthDuration/v2_depth_duration_MTurk/v2_DepthDuration_HTML.html#59,59,980,944,412,869,8-30-2022,8-54-1,97,depth_duration_stimuli/003490_2014-05-21_15-50-11_094959634447_rgbf000101-resize_3/003490_2014-05-21_15-50-11_094959634447_rgbf000101-resize_3-target.png,125,3.6445,3.0,6738,123,feet,jsons/VE125_randls_19_rotated.json,898853,1093306,35,Woman
97,194174,DepthScenes,duration_manipulation_targetAtFixation,jsons/VE125_randls_19_rotated.json,http://54.235.29.9/FacialAge/BNav_EC2/DepthDuration/v2_depth_duration_MTurk/v2_DepthDuration_HTML.html#59,59,980,944,412,869,8-30-2022,8-54-1,98,depth_duration_stimuli/001175_2014-06-17_15-45-55_260595134347_rgbf000129-resize_4/001175_2014-06-17_15-45-55_260595134347_rgbf000129-resize_4-target.png,125,4.255,5.5,4690,121,feet,jsons/VE125_randls_19_rotated.json,898853,1093306,35,Woman
98,194174,DepthScenes,duration_manipulation_targetAtFixation,jsons/VE125_randls_19_rotated.json,http://54.235.29.9/FacialAge/BNav_EC2/DepthDuration/v2_depth_duration_MTurk/v2_DepthDuration_HTML.html#59,59,980,944,412,869,8-30-2022,8-54-1,99,depth_duration_stimuli/001222_2014-06-17_16-24-06_260595134347_rgbf000073-resize_0/001222_2014-06-17_16-24-06_260595134347_rgbf000073-resize-original.jpg,125,1.4385,0.0,4037,122,feet,jsons/VE125_randls_19_rotated.json,898853,1093306,35,Woman
99,194174,DepthScenes,duration_manipulation_targetAtFixation,jsons/VE125_randls_19_rotated.json,http://54.235.29.9/FacialAge/BNav_EC2/DepthDuration/v2_depth_duration_MTurk/v2_DepthDuration_HTML.html#59,59,980,944,412,869,8-30-2022,8-54-1,100,depth_duration_stimuli/002953_2014-06-08_17-32-18_094959634447_rgbf000059-resize_5/002953_2014-06-08_17-32-18_094959634447_rgbf000059-resize_5-target.png,125,1.551,2.5,4517,117,feet,jsons/VE125_randls_19_rotated.json,898853,1093306,35,Woman
100,194174,DepthScenes,duration_manipulation_targetAtFixation,jsons/VE125_randls_19_rotated.json,http://54.235.29.9/FacialAge/BNav_EC2/DepthDuration/v2_depth_duration_MTurk/v2_DepthDuration_HTML.html#59,59,980,944,412,869,8-30-2022,8-54-1,101,depth_duration_stimuli/000878_2014-06-08_22-52-45_260595134347_rgbf000045-resize_2/000878_2014-06-08_22-52-45_260595134347_rgbf000045-resize_2-target.png,125,2.092,2.5,4448,121,feet,jsons/VE125_randls_19_rotated.json,898853,1093306,35,Woman
101,194174,DepthScenes,duration_manipulation_targetAtFixation,jsons/VE125_randls_19_rotated.json,http://54.235.29.9/FacialAge/BNav_EC2/DepthDuration/v2_depth_duration_MTurk/v2_DepthDuration_HTML.html#59,59,980,944,412,869,8-30-2022,8-54-1,102,depth_duration_stimuli/003495_2014-05-21_16-01-51_094959634447_rgbf000100-resize_3/003495_2014-05-21_16-01-51_094959634447_rgbf000100-resize_3-target.png,125,1.6255,3.0,3623,123,feet,jsons/VE125_randls_19_rotated.json,898853,1093306,35,Woman
102,194174,DepthScenes,duration_manipulation_targetAtFixation,jsons/VE125_randls_19_rotated.json,http://54.235.29.9/FacialAge/BNav_EC2/DepthDuration/v2_depth_duration_MTurk/v2_DepthDuration_HTML.html#59,59,980,944,412,869,8-30-2022,8-54-1,103,depth_duration_stimuli/001244_2014-06-17_16-47-45_260595134347_rgbf000030-resize_4/001244_2014-06-17_16-47-45_260595134347_rgbf000030-resize_4-target.png,125,2.0425,2.5,4635,121,feet,jsons/VE125_randls_19_rotated.json,898853,1093306,35,Woman
103,194174,DepthScenes,duration_manipulation_targetAtFixation,jsons/VE125_randls_19_rotated.json,http://54.235.29.9/FacialAge/BNav_EC2/DepthDuration/v2_depth_duration_MTurk/v2_DepthDuration_HTML.html#59,59,980,944,412,869,8-30-2022,8-54-1,104,depth_duration_stimuli/002467_2014-06-28_20-38-07_260595134347_rgbf000026-resize_2/002467_2014-06-28_20-38-07_260595134347_rgbf000026-resize_2-target.png,125,4.742,5.0,4849,124,feet,jsons/VE125_randls_19_rotated.json,898853,1093306,35,Woman
104,194174,DepthScenes,duration_manipulation_targetAtFixation,jsons/VE125_randls_19_rotated.json,http://54.235.29.9/FacialAge/BNav_EC2/DepthDuration/v2_depth_duration_MTurk/v2_DepthDuration_HTML.html#59,59,980,1800,412,869,8-30-2022,8-54-1,105,depth_duration_stimuli/002570_2014-06-24_13-59-54_094959634447_rgbf000059-resize_0/002570_2014-06-24_13-59-54_094959634447_rgbf000059-resize_0-target.png,125,4.037,6.0,6007,122,feet,jsons/VE125_randls_19_rotated.json,898853,1093306,35,Woman
105,194174,DepthScenes,duration_manipulation_targetAtFixation,jsons/VE125_randls_19_rotated.json,http://54.235.29.9/FacialAge/BNav_EC2/DepthDuration/v2_depth_duration_MTurk/v2_DepthDuration_HTML.html#59,59,980,944,412,869,8-30-2022,8-54-1,106,depth_duration_stimuli/000457_2014-06-08_16-52-43_260595134347_rgbf000199-resize_1/000457_2014-06-08_16-52-43_260595134347_rgbf000199-resize_1-target.png,125,3.6489999999999996,5.0,3976,121,feet,jsons/VE125_randls_19_rotated.json,898853,1093306,35,Woman
106,194174,DepthScenes,duration_manipulation_targetAtFixation,jsons/VE125_randls_19_rotated.json,http://54.235.29.9/FacialAge/BNav_EC2/DepthDuration/v2_depth_duration_MTurk/v2_DepthDuration_HTML.html#59,59,980,944,412,869,8-30-2022,8-54-1,107,depth_duration_stimuli/000929_2014-06-09_16-33-19_260595134347_rgbf000139-resize_0/000929_2014-06-09_16-33-19_260595134347_rgbf000139-resize_0-target.png,125,2.8680000000000003,6.0,4714,121,feet,jsons/VE125_randls_19_rotated.json,898853,1093306,35,Woman
107,194174,DepthScenes,duration_manipulation_targetAtFixation,jsons/VE125_randls_19_rotated.json,http://54.235.29.9/FacialAge/BNav_EC2/DepthDuration/v2_depth_duration_MTurk/v2_DepthDuration_HTML.html#59,59,980,944,412,869,8-30-2022,8-54-1,108,depth_duration_stimuli/000691_2014-06-08_13-08-50_260595134347_rgbf000132-resize_3/000691_2014-06-08_13-08-50_260595134347_rgbf000132-resize_3-target.png,125,4.1530000000000005,7.0,3584,122,feet,jsons/VE125_randls_19_rotated.json,898853,1093306,35,Woman
108,194174,DepthScenes,duration_manipulation_targetAtFixation,jsons/VE125_randls_19_rotated.json,http://54.235.29.9/FacialAge/BNav_EC2/DepthDuration/v2_depth_duration_MTurk/v2_DepthDuration_HTML.html#59,59,980,944,412,869,8-30-2022,8-54-1,109,depth_duration_stimuli/002213_2014-06-28_18-37-58_260595134347_rgbf000055-resize_1/002213_2014-06-28_18-37-58_260595134347_rgbf000055-resize_1-target.png,125,3.62,7.0,4250,121,feet,jsons/VE125_randls_19_rotated.json,898853,1093306,35,Woman
109,194174,DepthScenes,duration_manipulation_targetAtFixation,jsons/VE125_randls_19_rotated.json,http://54.235.29.9/FacialAge/BNav_EC2/DepthDuration/v2_depth_duration_MTurk/v2_DepthDuration_HTML.html#59,59,980,944,412,869,8-30-2022,8-54-1,110,depth_duration_stimuli/001094_2014-06-15_17-36-00_260595134347_rgbf000205-resize_0/001094_2014-06-15_17-36-00_260595134347_rgbf000205-resize_0-target.png,125,4.2175,6.0,3946,121,feet,jsons/VE125_randls_19_rotated.json,898853,1093306,35,Woman
110,194174,DepthScenes,duration_manipulation_targetAtFixation,jsons/VE125_randls_19_rotated.json,http://54.235.29.9/FacialAge/BNav_EC2/DepthDuration/v2_depth_duration_MTurk/v2_DepthDuration_HTML.html#59,59,980,944,412,869,8-30-2022,8-54-1,111,depth_duration_stimuli/000692_2014-06-08_13-09-42_260595134347_rgbf000199-resize_2/000692_2014-06-08_13-09-42_260595134347_rgbf000199-resize_2-target.png,125,3.661,6.0,4813,124,feet,jsons/VE125_randls_19_rotated.json,898853,1093306,35,Woman
111,194174,DepthScenes,duration_manipulation_targetAtFixation,jsons/VE125_randls_19_rotated.json,http://54.235.29.9/FacialAge/BNav_EC2/DepthDuration/v2_depth_duration_MTurk/v2_DepthDuration_HTML.html#59,59,980,944,412,869,8-30-2022,8-54-1,112,depth_duration_stimuli/001516_2014-06-20_16-25-09_260595134347_rgbf000076-resize_2/001516_2014-06-20_16-25-09_260595134347_rgbf000076-resize_2-target.png,125,1.7445,5.0,3754,124,feet,jsons/VE125_randls_19_rotated.json,898853,1093306,35,Woman
112,194174,DepthScenes,duration_manipulation_targetAtFixation,jsons/VE125_randls_19_rotated.json,http://54.235.29.9/FacialAge/BNav_EC2/DepthDuration/v2_depth_duration_MTurk/v2_DepthDuration_HTML.html#59,59,980,944,412,869,8-30-2022,8-54-1,113,depth_duration_stimuli/002118_2014-06-25_20-32-08_260595134347_rgbf000078-resize_1/002118_2014-06-25_20-32-08_260595134347_rgbf000078-resize_1-target.png,125,2.6460000000000004,5.5,6060,121,feet,jsons/VE125_randls_19_rotated.json,898853,1093306,35,Woman
113,194174,DepthScenes,duration_manipulation_targetAtFixation,jsons/VE125_randls_19_rotated.json,http://54.235.29.9/FacialAge/BNav_EC2/DepthDuration/v2_depth_duration_MTurk/v2_DepthDuration_HTML.html#59,59,980,944,412,869,8-30-2022,8-54-1,114,depth_duration_stimuli/000927_2014-06-09_16-32-30_260595134347_rgbf000123-resize_3/000927_2014-06-09_16-32-30_260595134347_rgbf000123-resize_3-target.png,125,2.6785,6.0,3482,123,feet,jsons/VE125_randls_19_rotated.json,898853,1093306,35,Woman
114,194174,DepthScenes,duration_manipulation_targetAtFixation,jsons/VE125_randls_19_rotated.json,http://54.235.29.9/FacialAge/BNav_EC2/DepthDuration/v2_depth_duration_MTurk/v2_DepthDuration_HTML.html#59,59,980,944,412,869,8-30-2022,8-54-1,115,depth_duration_stimuli/001110_2014-06-15_17-25-28_260595134347_rgbf000150-resize_1/001110_2014-06-15_17-25-28_260595134347_rgbf000150-resize_1-target.png,125,1.7115,5.0,3622,123,feet,jsons/VE125_randls_19_rotated.json,898853,1093306,35,Woman
115,194174,DepthScenes,duration_manipulation_targetAtFixation,jsons/VE125_randls_19_rotated.json,http://54.235.29.9/FacialAge/BNav_EC2/DepthDuration/v2_depth_duration_MTurk/v2_DepthDuration_HTML.html#59,59,980,944,412,869,8-30-2022,8-54-1,116,depth_duration_stimuli/001052_2014-06-08_18-24-54_260595134347_rgbf000130-resize_1/001052_2014-06-08_18-24-54_260595134347_rgbf000130-resize_1-target.png,125,4.1045,6.0,3762,124,feet,jsons/VE125_randls_19_rotated.json,898853,1093306,35,Woman
116,194174,DepthScenes,duration_manipulation_targetAtFixation,jsons/VE125_randls_19_rotated.json,http://54.235.29.9/FacialAge/BNav_EC2/DepthDuration/v2_depth_duration_MTurk/v2_DepthDuration_HTML.html#59,59,980,944,412,869,8-30-2022,8-54-1,117,depth_duration_stimuli/002988_2014-06-15_12-24-20_094959634447_rgbf000150-resize_1/002988_2014-06-15_12-24-20_094959634447_rgbf000150-resize_1-target.png,125,4.7669999999999995,6.0,3631,123,feet,jsons/VE125_randls_19_rotated.json,898853,1093306,35,Woman
117,194174,DepthScenes,duration_manipulation_targetAtFixation,jsons/VE125_randls_19_rotated.json,http://54.235.29.9/FacialAge/BNav_EC2/DepthDuration/v2_depth_duration_MTurk/v2_DepthDuration_HTML.html#59,59,980,944,412,869,8-30-2022,8-54-1,118,depth_duration_stimuli/000780_2014-06-08_22-28-29_260595134347_rgbf000126-resize_1/000780_2014-06-08_22-28-29_260595134347_rgbf000126-resize_1-target.png,125,3.3825,5.0,3582,124,feet,jsons/VE125_randls_19_rotated.json,898853,1093306,35,Woman
118,194174,DepthScenes,duration_manipulation_targetAtFixation,jsons/VE125_randls_19_rotated.json,http://54.235.29.9/FacialAge/BNav_EC2/DepthDuration/v2_depth_duration_MTurk/v2_DepthDuration_HTML.html#59,59,980,944,412,869,8-30-2022,8-54-1,119,depth_duration_stimuli/002445_2014-06-28_20-32-16_260595134347_rgbf000029-resize_4/002445_2014-06-28_20-32-16_260595134347_rgbf000029-resize_4-target.png,125,2.5315,5.0,3711,123,feet,jsons/VE125_randls_19_rotated.json,898853,1093306,35,Woman
119,194174,DepthScenes,duration_manipulation_targetAtFixation,jsons/VE125_randls_19_rotated.json,http://54.235.29.9/FacialAge/BNav_EC2/DepthDuration/v2_depth_duration_MTurk/v2_DepthDuration_HTML.html#59,59,980,944,412,869,8-30-2022,8-54-1,120,depth_duration_stimuli/000787_2014-06-08_22-33-53_260595134347_rgbf000175-resize_1/000787_2014-06-08_22-33-53_260595134347_rgbf000175-resize-original.jpg,125,4.784,0.0,3831,125,feet,jsons/VE125_randls_19_rotated.json,898853,1093306,35,Woman
120,194174,DepthScenes,duration_manipulation_targetAtFixation,jsons/VE125_randls_19_rotated.json,http://54.235.29.9/FacialAge/BNav_EC2/DepthDuration/v2_depth_duration_MTurk/v2_DepthDuration_HTML.html#59,59,980,944,412,869,8-30-2022,8-54-1,121,depth_duration_stimuli/002323_2014-06-28_20-01-54_260595134347_rgbf000051-resize_4/002323_2014-06-28_20-01-54_260595134347_rgbf000051-resize_4-target.png,125,3.7310000000000003,4.0,3660,123,feet,jsons/VE125_randls_19_rotated.json,898853,1093306,35,Woman
121,194174,DepthScenes,duration_manipulation_targetAtFixation,jsons/VE125_randls_19_rotated.json,http://54.235.29.9/FacialAge/BNav_EC2/DepthDuration/v2_depth_duration_MTurk/v2_DepthDuration_HTML.html#59,59,980,944,412,869,8-30-2022,8-54-1,122,depth_duration_stimuli/000917_2014-06-09_22-45-29_260595134347_rgbf000149-resize_3/000917_2014-06-09_22-45-29_260595134347_rgbf000149-resize_3-target.png,125,4.1865,5.5,4065,121,feet,jsons/VE125_randls_19_rotated.json,898853,1093306,35,Woman
122,194174,DepthScenes,duration_manipulation_targetAtFixation,jsons/VE125_randls_19_rotated.json,http://54.235.29.9/FacialAge/BNav_EC2/DepthDuration/v2_depth_duration_MTurk/v2_DepthDuration_HTML.html#59,59,980,944,412,869,8-30-2022,8-54-1,123,depth_duration_stimuli/002344_2014-06-28_20-06-29_260595134347_rgbf000030-resize_1/002344_2014-06-28_20-06-29_260595134347_rgbf000030-resize_1-target.png,125,1.5795,3.5,4565,122,feet,jsons/VE125_randls_19_rotated.json,898853,1093306,35,Woman
123,194174,DepthScenes,duration_manipulation_targetAtFixation,jsons/VE125_randls_19_rotated.json,http://54.235.29.9/FacialAge/BNav_EC2/DepthDuration/v2_depth_duration_MTurk/v2_DepthDuration_HTML.html#59,59,980,944,412,869,8-30-2022,8-54-1,124,depth_duration_stimuli/002725_2014-06-22_11-47-51_094959634447_rgbf000070-resize_1/002725_2014-06-22_11-47-51_094959634447_rgbf000070-resize_1-target.png,125,2.195,5.5,4021,122,feet,jsons/VE125_randls_19_rotated.json,898853,1093306,35,Woman
124,194174,DepthScenes,duration_manipulation_targetAtFixation,jsons/VE125_randls_19_rotated.json,http://54.235.29.9/FacialAge/BNav_EC2/DepthDuration/v2_depth_duration_MTurk/v2_DepthDuration_HTML.html#59,59,980,944,412,869,8-30-2022,8-54-1,125,depth_duration_stimuli/002657_2014-06-13_15-29-54_094959634447_rgbf000150-resize_1/002657_2014-06-13_15-29-54_094959634447_rgbf000150-resize_1-target.png,125,4.919,5.0,4398,122,feet,jsons/VE125_randls_19_rotated.json,898853,1093306,35,Woman
125,194174,DepthScenes,duration_manipulation_targetAtFixation,jsons/VE125_randls_19_rotated.json,http://54.235.29.9/FacialAge/BNav_EC2/DepthDuration/v2_depth_duration_MTurk/v2_DepthDuration_HTML.html#59,59,980,944,412,869,8-30-2022,8-54-1,126,depth_duration_stimuli/002375_2014-06-28_20-13-44_260595134347_rgbf000032-resize_1/002375_2014-06-28_20-13-44_260595134347_rgbf000032-resize_1-target.png,125,4.0175,5.0,3542,122,feet,jsons/VE125_randls_19_rotated.json,898853,1093306,35,Woman
126,194174,DepthScenes,duration_manipulation_targetAtFixation,jsons/VE125_randls_19_rotated.json,http://54.235.29.9/FacialAge/BNav_EC2/DepthDuration/v2_depth_duration_MTurk/v2_DepthDuration_HTML.html#59,59,980,1800,412,869,8-30-2022,8-54-1,127,depth_duration_stimuli/002425_2014-06-28_20-27-29_260595134347_rgbf000031-resize_8/002425_2014-06-28_20-27-29_260595134347_rgbf000031-resize_8-target.png,125,3.8960000000000004,5.0,5290,122,feet,jsons/VE125_randls_19_rotated.json,898853,1093306,35,Woman
127,194174,DepthScenes,duration_manipulation_targetAtFixation,jsons/VE125_randls_19_rotated.json,http://54.235.29.9/FacialAge/BNav_EC2/DepthDuration/v2_depth_duration_MTurk/v2_DepthDuration_HTML.html#59,59,980,944,412,869,8-30-2022,8-54-1,128,depth_duration_stimuli/000642_2014-06-08_16-59-25_260595134347_rgbf000098-resize_2/000642_2014-06-08_16-59-25_260595134347_rgbf000098-resize_2-target.png,125,2.8815,5.0,3798,123,feet,jsons/VE125_randls_19_rotated.json,898853,1093306,35,Woman
128,194174,DepthScenes,duration_manipulation_targetAtFixation,jsons/VE125_randls_19_rotated.json,http://54.235.29.9/FacialAge/BNav_EC2/DepthDuration/v2_depth_duration_MTurk/v2_DepthDuration_HTML.html#59,59,980,944,412,869,8-30-2022,8-54-1,129,depth_duration_stimuli/001617_2014-06-20_11-35-32_260595134347_rgbf000066-resize_1/001617_2014-06-20_11-35-32_260595134347_rgbf000066-resize_1-target.png,125,3.7910000000000004,4.5,4142,119,feet,jsons/VE125_randls_19_rotated.json,898853,1093306,35,Woman
129,194174,DepthScenes,duration_manipulation_targetAtFixation,jsons/VE125_randls_19_rotated.json,http://54.235.29.9/FacialAge/BNav_EC2/DepthDuration/v2_depth_duration_MTurk/v2_DepthDuration_HTML.html#59,59,980,944,412,869,8-30-2022,8-54-1,130,depth_duration_stimuli/001806_2014-06-26_20-50-20_260595134347_rgbf000091-resize_1/001806_2014-06-26_20-50-20_260595134347_rgbf000091-resize_1-target.png,125,2.7305,4.5,4349,123,feet,jsons/VE125_randls_19_rotated.json,898853,1093306,35,Woman
130,194174,DepthScenes,duration_manipulation_targetAtFixation,jsons/VE125_randls_19_rotated.json,http://54.235.29.9/FacialAge/BNav_EC2/DepthDuration/v2_depth_duration_MTurk/v2_DepthDuration_HTML.html#59,59,980,944,412,869,8-30-2022,8-54-1,131,depth_duration_stimuli/000483_2014-06-09_20-41-45_260595134347_rgbf000116-resize_4/000483_2014-06-09_20-41-45_260595134347_rgbf000116-resize_4-target.png,125,1.337,3.5,4862,120,feet,jsons/VE125_randls_19_rotated.json,898853,1093306,35,Woman
131,194174,DepthScenes,duration_manipulation_targetAtFixation,jsons/VE125_randls_19_rotated.json,http://54.235.29.9/FacialAge/BNav_EC2/DepthDuration/v2_depth_duration_MTurk/v2_DepthDuration_HTML.html#59,59,980,944,412,869,8-30-2022,8-54-1,132,depth_duration_stimuli/000469_2014-06-09_19-42-10_260595134347_rgbf000081-resize_1/000469_2014-06-09_19-42-10_260595134347_rgbf000081-resize_1-target.png,125,1.652,3.0,4034,123,feet,jsons/VE125_randls_19_rotated.json,898853,1093306,35,Woman
132,194174,DepthScenes,duration_manipulation_targetAtFixation,jsons/VE125_randls_19_rotated.json,http://54.235.29.9/FacialAge/BNav_EC2/DepthDuration/v2_depth_duration_MTurk/v2_DepthDuration_HTML.html#59,59,980,944,412,869,8-30-2022,8-54-1,133,depth_duration_stimuli/002545_2014-06-24_13-38-53_094959634447_rgbf000080-resize_4/002545_2014-06-24_13-38-53_094959634447_rgbf000080-resize_4-target.png,125,1.9205,4.0,3515,123,feet,jsons/VE125_randls_19_rotated.json,898853,1093306,35,Woman
133,194174,DepthScenes,duration_manipulation_targetAtFixation,jsons/VE125_randls_19_rotated.json,http://54.235.29.9/FacialAge/BNav_EC2/DepthDuration/v2_depth_duration_MTurk/v2_DepthDuration_HTML.html#59,59,980,944,412,869,8-30-2022,8-54-1,134,depth_duration_stimuli/001092_2014-06-15_17-34-58_260595134347_rgbf000171-resize_3/001092_2014-06-15_17-34-58_260595134347_rgbf000171-resize_3-target.png,125,2.6935,3.0,3930,123,feet,jsons/VE125_randls_19_rotated.json,898853,1093306,35,Woman
134,194174,DepthScenes,duration_manipulation_targetAtFixation,jsons/VE125_randls_19_rotated.json,http://54.235.29.9/FacialAge/BNav_EC2/DepthDuration/v2_depth_duration_MTurk/v2_DepthDuration_HTML.html#59,59,980,944,412,869,8-30-2022,8-54-1,135,depth_duration_stimuli/000375_2014-06-08_11-17-29_260595134347_rgbf000133-resize_2/000375_2014-06-08_11-17-29_260595134347_rgbf000133-resize-original.jpg,125,4.718,0.0,3971,121,feet,jsons/VE125_randls_19_rotated.json,898853,1093306,35,Woman
135,194174,DepthScenes,duration_manipulation_targetAtFixation,jsons/VE125_randls_19_rotated.json,http://54.235.29.9/FacialAge/BNav_EC2/DepthDuration/v2_depth_duration_MTurk/v2_DepthDuration_HTML.html#59,59,980,944,412,869,8-30-2022,8-54-1,136,depth_duration_stimuli/003423_2014-05-21_10-23-26_094959634447_rgbf002665-resize_2/003423_2014-05-21_10-23-26_094959634447_rgbf002665-resize_2-target.png,125,3.2575,4.5,5181,122,feet,jsons/VE125_randls_19_rotated.json,898853,1093306,35,Woman
136,194174,DepthScenes,duration_manipulation_targetAtFixation,jsons/VE125_randls_19_rotated.json,http://54.235.29.9/FacialAge/BNav_EC2/DepthDuration/v2_depth_duration_MTurk/v2_DepthDuration_HTML.html#59,59,980,944,412,869,8-30-2022,8-54-1,137,depth_duration_stimuli/002905_2014-06-03_18-04-43_094959634447_rgbf000151-resize_2/002905_2014-06-03_18-04-43_094959634447_rgbf000151-resize_2-target.png,125,2.0295,3.0,5455,122,feet,jsons/VE125_randls_19_rotated.json,898853,1093306,35,Woman
137,194174,DepthScenes,duration_manipulation_targetAtFixation,jsons/VE125_randls_19_rotated.json,http://54.235.29.9/FacialAge/BNav_EC2/DepthDuration/v2_depth_duration_MTurk/v2_DepthDuration_HTML.html#59,59,980,944,412,869,8-30-2022,8-54-1,138,depth_duration_stimuli/002637_2014-06-24_14-51-13_094959634447_rgbf000066-resize_4/002637_2014-06-24_14-51-13_094959634447_rgbf000066-resize_4-target.png,125,1.9955,3.0,4442,121,feet,jsons/VE125_randls_19_rotated.json,898853,1093306,35,Woman
138,194174,DepthScenes,duration_manipulation_targetAtFixation,jsons/VE125_randls_19_rotated.json,http://54.235.29.9/FacialAge/BNav_EC2/DepthDuration/v2_depth_duration_MTurk/v2_DepthDuration_HTML.html#59,59,980,944,412,869,8-30-2022,8-54-1,139,depth_duration_stimuli/003534_2014-05-22_15-06-10_094959634447_rgbf000102-resize_4/003534_2014-05-22_15-06-10_094959634447_rgbf000102-resize_4-target.png,125,1.426,3.0,3809,122,feet,jsons/VE125_randls_19_rotated.json,898853,1093306,35,Woman
139,194174,DepthScenes,duration_manipulation_targetAtFixation,jsons/VE125_randls_19_rotated.json,http://54.235.29.9/FacialAge/BNav_EC2/DepthDuration/v2_depth_duration_MTurk/v2_DepthDuration_HTML.html#59,59,980,944,412,869,8-30-2022,8-54-1,140,depth_duration_stimuli/003010_2014-06-15_12-54-35_094959634447_rgbf000112-resize_0/003010_2014-06-15_12-54-35_094959634447_rgbf000112-resize_0-target.png,125,3.1185,5.0,4583,122,feet,jsons/VE125_randls_19_rotated.json,898853,1093306,35,Woman
140,194174,DepthScenes,duration_manipulation_targetAtFixation,jsons/VE125_randls_19_rotated.json,http://54.235.29.9/FacialAge/BNav_EC2/DepthDuration/v2_depth_duration_MTurk/v2_DepthDuration_HTML.html#59,59,980,944,412,869,8-30-2022,8-54-1,141,depth_duration_stimuli/001810_2014-06-26_20-51-35_260595134347_rgbf000040-resize_3/001810_2014-06-26_20-51-35_260595134347_rgbf000040-resize_3-target.png,125,2.2525,4.0,3489,121,feet,jsons/VE125_randls_19_rotated.json,898853,1093306,35,Woman
141,194174,DepthScenes,duration_manipulation_targetAtFixation,jsons/VE125_randls_19_rotated.json,http://54.235.29.9/FacialAge/BNav_EC2/DepthDuration/v2_depth_duration_MTurk/v2_DepthDuration_HTML.html#59,59,980,944,412,869,8-30-2022,8-54-1,142,depth_duration_stimuli/002805_2014-06-22_19-54-03_094959634447_rgbf000079-resize_1/002805_2014-06-22_19-54-03_094959634447_rgbf000079-resize_1-target.png,125,3.1439999999999997,5.0,3707,124,feet,jsons/VE125_randls_19_rotated.json,898853,1093306,35,Woman
142,194174,DepthScenes,duration_manipulation_targetAtFixation,jsons/VE125_randls_19_rotated.json,http://54.235.29.9/FacialAge/BNav_EC2/DepthDuration/v2_depth_duration_MTurk/v2_DepthDuration_HTML.html#59,59,980,944,412,869,8-30-2022,8-54-1,143,depth_duration_stimuli/000906_2014-06-08_13-35-43_260595134347_rgbf000155-resize_1/000906_2014-06-08_13-35-43_260595134347_rgbf000155-resize_1-target.png,125,2.8489999999999998,5.5,7302,121,feet,jsons/VE125_randls_19_rotated.json,898853,1093306,35,Woman
143,194174,DepthScenes,duration_manipulation_targetAtFixation,jsons/VE125_randls_19_rotated.json,http://54.235.29.9/FacialAge/BNav_EC2/DepthDuration/v2_depth_duration_MTurk/v2_DepthDuration_HTML.html#59,59,980,944,412,869,8-30-2022,8-54-1,144,depth_duration_stimuli/000665_2014-06-09_20-42-35_260595134347_rgbf000110-resize_1/000665_2014-06-09_20-42-35_260595134347_rgbf000110-resize_1-target.png,125,3.057,3.5,4650,123,feet,jsons/VE125_randls_19_rotated.json,898853,1093306,35,Woman
144,194174,DepthScenes,duration_manipulation_targetAtFixation,jsons/VE125_randls_19_rotated.json,http://54.235.29.9/FacialAge/BNav_EC2/DepthDuration/v2_depth_duration_MTurk/v2_DepthDuration_HTML.html#59,59,980,944,412,869,8-30-2022,8-54-1,145,depth_duration_stimuli/001150_2014-06-17_15-27-34_260595134347_rgbf000108-resize_2/001150_2014-06-17_15-27-34_260595134347_rgbf000108-resize_2-target.png,125,4.0325,3.0,4109,121,feet,jsons/VE125_randls_19_rotated.json,898853,1093306,35,Woman
145,194174,DepthScenes,duration_manipulation_targetAtFixation,jsons/VE125_randls_19_rotated.json,http://54.235.29.9/FacialAge/BNav_EC2/DepthDuration/v2_depth_duration_MTurk/v2_DepthDuration_HTML.html#59,59,980,944,412,869,8-30-2022,8-54-1,146,depth_duration_stimuli/001571_2014-06-20_17-21-32_260595134347_rgbf000089-resize_1/001571_2014-06-20_17-21-32_260595134347_rgbf000089-resize_1-target.png,125,1.86,3.0,5196,123,feet,jsons/VE125_randls_19_rotated.json,898853,1093306,35,Woman
146,194174,DepthScenes,duration_manipulation_targetAtFixation,jsons/VE125_randls_19_rotated.json,http://54.235.29.9/FacialAge/BNav_EC2/DepthDuration/v2_depth_duration_MTurk/v2_DepthDuration_HTML.html#59,59,980,944,412,869,8-30-2022,8-54-1,147,depth_duration_stimuli/002272_2014-06-28_18-53-56_260595134347_rgbf000067-resize_2/002272_2014-06-28_18-53-56_260595134347_rgbf000067-resize_2-target.png,125,1.138,3.0,3412,123,feet,jsons/VE125_randls_19_rotated.json,898853,1093306,35,Woman
147,194174,DepthScenes,duration_manipulation_targetAtFixation,jsons/VE125_randls_19_rotated.json,http://54.235.29.9/FacialAge/BNav_EC2/DepthDuration/v2_depth_duration_MTurk/v2_DepthDuration_HTML.html#59,59,980,944,412,869,8-30-2022,8-54-1,148,depth_duration_stimuli/001815_2014-06-26_20-52-55_260595134347_rgbf000020-resize_0/001815_2014-06-26_20-52-55_260595134347_rgbf000020-resize_0-target.png,125,3.3865,4.0,3902,123,feet,jsons/VE125_randls_19_rotated.json,898853,1093306,35,Woman
148,194174,DepthScenes,duration_manipulation_targetAtFixation,jsons/VE125_randls_19_rotated.json,http://54.235.29.9/FacialAge/BNav_EC2/DepthDuration/v2_depth_duration_MTurk/v2_DepthDuration_HTML.html#59,59,980,944,412,869,8-30-2022,8-54-1,149,depth_duration_stimuli/001808_2014-06-26_20-50-58_260595134347_rgbf000029-resize_1/001808_2014-06-26_20-50-58_260595134347_rgbf000029-resize_1-target.png,125,4.249,3.0,4294,122,feet,jsons/VE125_randls_19_rotated.json,898853,1093306,35,Woman
149,194174,DepthScenes,duration_manipulation_targetAtFixation,jsons/VE125_randls_19_rotated.json,http://54.235.29.9/FacialAge/BNav_EC2/DepthDuration/v2_depth_duration_MTurk/v2_DepthDuration_HTML.html#59,59,980,944,412,869,8-30-2022,8-54-1,150,depth_duration_stimuli/002758_2014-06-22_19-11-20_094959634447_rgbf000128-resize_1/002758_2014-06-22_19-11-20_094959634447_rgbf000128-resize_1-target.png,125,2.555,2.0,3976,123,feet,jsons/VE125_randls_19_rotated.json,898853,1093306,35,Woman
150,194174,DepthScenes,duration_manipulation_targetAtFixation,jsons/VE125_randls_19_rotated.json,http://54.235.29.9/FacialAge/BNav_EC2/DepthDuration/v2_depth_duration_MTurk/v2_DepthDuration_HTML.html#59,59,980,944,412,869,8-30-2022,8-54-1,151,depth_duration_stimuli/002630_2014-06-24_14-47-50_094959634447_rgbf000055-resize_1/002630_2014-06-24_14-47-50_094959634447_rgbf000055-resize_1-target.png,125,3.0095,4.0,3643,131,feet,jsons/VE125_randls_19_rotated.json,898853,1093306,35,Woman
151,194174,DepthScenes,duration_manipulation_targetAtFixation,jsons/VE125_randls_19_rotated.json,http://54.235.29.9/FacialAge/BNav_EC2/DepthDuration/v2_depth_duration_MTurk/v2_DepthDuration_HTML.html#59,59,980,944,412,869,8-30-2022,8-54-1,152,depth_duration_stimuli/000569_2014-06-09_22-51-47_260595134347_rgbf000141-resize_3/000569_2014-06-09_22-51-47_260595134347_rgbf000141-resize-original.jpg,125,4.512,0.0,3596,121,feet,jsons/VE125_randls_19_rotated.json,898853,1093306,35,Woman
152,194174,DepthScenes,duration_manipulation_targetAtFixation,jsons/VE125_randls_19_rotated.json,http://54.235.29.9/FacialAge/BNav_EC2/DepthDuration/v2_depth_duration_MTurk/v2_DepthDuration_HTML.html#59,59,980,944,412,869,8-30-2022,8-54-1,153,depth_duration_stimuli/000677_2014-06-08_23-10-32_260595134347_rgbf000158-resize_6/000677_2014-06-08_23-10-32_260595134347_rgbf000158-resize_6-target.png,125,3.556,4.0,3375,122,feet,jsons/VE125_randls_19_rotated.json,898853,1093306,35,Woman
153,194174,DepthScenes,duration_manipulation_targetAtFixation,jsons/VE125_randls_19_rotated.json,http://54.235.29.9/FacialAge/BNav_EC2/DepthDuration/v2_depth_duration_MTurk/v2_DepthDuration_HTML.html#59,59,980,944,412,869,8-30-2022,8-54-1,154,depth_duration_stimuli/001029_2014-06-08_13-17-57_260595134347_rgbf000065-resize_1/001029_2014-06-08_13-17-57_260595134347_rgbf000065-resize_1-target.png,125,3.0835,4.0,3411,119,feet,jsons/VE125_randls_19_rotated.json,898853,1093306,35,Woman
154,194174,DepthScenes,duration_manipulation_targetAtFixation,jsons/VE125_randls_19_rotated.json,http://54.235.29.9/FacialAge/BNav_EC2/DepthDuration/v2_depth_duration_MTurk/v2_DepthDuration_HTML.html#59,59,980,944,412,869,8-30-2022,8-54-1,155,depth_duration_stimuli/000109_2014-05-14_23-41-52_260595134347_rgbf000035-resize_9/000109_2014-05-14_23-41-52_260595134347_rgbf000035-resize_9-target.png,125,1.3545,4.0,3275,121,feet,jsons/VE125_randls_19_rotated.json,898853,1093306,35,Woman
155,194174,DepthScenes,duration_manipulation_targetAtFixation,jsons/VE125_randls_19_rotated.json,http://54.235.29.9/FacialAge/BNav_EC2/DepthDuration/v2_depth_duration_MTurk/v2_DepthDuration_HTML.html#59,59,980,944,412,869,8-30-2022,8-54-1,156,depth_duration_stimuli/000470_2014-06-09_19-42-40_260595134347_rgbf000094-resize_1/000470_2014-06-09_19-42-40_260595134347_rgbf000094-resize_1-target.png,125,1.831,3.0,3735,120,feet,jsons/VE125_randls_19_rotated.json,898853,1093306,35,Woman
156,194174,DepthScenes,duration_manipulation_targetAtFixation,jsons/VE125_randls_19_rotated.json,http://54.235.29.9/FacialAge/BNav_EC2/DepthDuration/v2_depth_duration_MTurk/v2_DepthDuration_HTML.html#59,59,980,944,412,869,8-30-2022,8-54-1,157,depth_duration_stimuli/000191_2014-05-12_17-07-38_260595134347_rgbf000199-resize_0/000191_2014-05-12_17-07-38_260595134347_rgbf000199-resize_0-target.png,125,3.7995,4.5,4773,123,feet,jsons/VE125_randls_19_rotated.json,898853,1093306,35,Woman
157,194174,DepthScenes,duration_manipulation_targetAtFixation,jsons/VE125_randls_19_rotated.json,http://54.235.29.9/FacialAge/BNav_EC2/DepthDuration/v2_depth_duration_MTurk/v2_DepthDuration_HTML.html#59,59,980,944,412,869,8-30-2022,8-54-1,158,depth_duration_stimuli/000493_2014-06-09_21-01-18_260595134347_rgbf000196-resize_3/000493_2014-06-09_21-01-18_260595134347_rgbf000196-resize_3-target.png,125,3.44,5.5,5012,120,feet,jsons/VE125_randls_19_rotated.json,898853,1093306,35,Woman
158,194174,DepthScenes,duration_manipulation_targetAtFixation,jsons/VE125_randls_19_rotated.json,http://54.235.29.9/FacialAge/BNav_EC2/DepthDuration/v2_depth_duration_MTurk/v2_DepthDuration_HTML.html#59,59,980,944,412,869,8-30-2022,8-54-1,159,depth_duration_stimuli/002660_2014-06-13_15-44-18_094959634447_rgbf001878-resize_2/002660_2014-06-13_15-44-18_094959634447_rgbf001878-resize_2-target.png,125,3.576,6.0,3316,119,feet,jsons/VE125_randls_19_rotated.json,898853,1093306,35,Woman
159,194174,DepthScenes,duration_manipulation_targetAtFixation,jsons/VE125_randls_19_rotated.json,http://54.235.29.9/FacialAge/BNav_EC2/DepthDuration/v2_depth_duration_MTurk/v2_DepthDuration_HTML.html#59,59,980,944,412,869,8-30-2022,8-54-1,160,depth_duration_stimuli/002153_2014-06-25_21-27-18_260595134347_rgbf000038-resize_5/002153_2014-06-25_21-27-18_260595134347_rgbf000038-resize_5-target.png,125,2.505,5.5,5715,123,feet,jsons/VE125_randls_19_rotated.json,898853,1093306,35,Woman
160,194174,DepthScenes,duration_manipulation_targetAtFixation,jsons/VE125_randls_19_rotated.json,http://54.235.29.9/FacialAge/BNav_EC2/DepthDuration/v2_depth_duration_MTurk/v2_DepthDuration_HTML.html#59,59,980,944,412,869,8-30-2022,8-54-1,161,depth_duration_stimuli/002639_2014-06-24_14-51-37_094959634447_rgbf000074-resize_4/002639_2014-06-24_14-51-37_094959634447_rgbf000074-resize_4-target.png,125,4.0375,6.0,3655,124,feet,jsons/VE125_randls_19_rotated.json,898853,1093306,35,Woman
161,194174,DepthScenes,duration_manipulation_targetAtFixation,jsons/VE125_randls_19_rotated.json,http://54.235.29.9/FacialAge/BNav_EC2/DepthDuration/v2_depth_duration_MTurk/v2_DepthDuration_HTML.html#59,59,980,944,412,869,8-30-2022,8-54-1,162,depth_duration_stimuli/003292_2014-05-14_21-53-49_094959634447_rgbf000100-resize_2/003292_2014-05-14_21-53-49_094959634447_rgbf000100-resize_2-target.png,125,3.4815,4.5,4617,120,feet,jsons/VE125_randls_19_rotated.json,898853,1093306,35,Woman
162,194174,DepthScenes,duration_manipulation_targetAtFixation,jsons/VE125_randls_19_rotated.json,http://54.235.29.9/FacialAge/BNav_EC2/DepthDuration/v2_depth_duration_MTurk/v2_DepthDuration_HTML.html#59,59,980,944,412,869,8-30-2022,8-54-1,163,depth_duration_stimuli/002103_2014-06-25_20-00-40_260595134347_rgbf000049-resize_0/002103_2014-06-25_20-00-40_260595134347_rgbf000049-resize_0-target.png,125,4.105,4.5,4113,120,feet,jsons/VE125_randls_19_rotated.json,898853,1093306,35,Woman
163,194174,DepthScenes,duration_manipulation_targetAtFixation,jsons/VE125_randls_19_rotated.json,http://54.235.29.9/FacialAge/BNav_EC2/DepthDuration/v2_depth_duration_MTurk/v2_DepthDuration_HTML.html#59,59,980,944,412,869,8-30-2022,8-54-1,164,depth_duration_stimuli/002039_2014-06-24_20-22-38_260595134347_rgbf000084-resize_1/002039_2014-06-24_20-22-38_260595134347_rgbf000084-resize_1-target.png,125,4.408,4.5,4487,119,feet,jsons/VE125_randls_19_rotated.json,898853,1093306,35,Woman
