,subjID,experimentName,versionName,sequenceName,url,selected_row,windowWidth,windowHeight,screenWidth,screenHeight,startDate,startTime,trial,stimulus,duration,actual_depth,depth_estimate,trial_RT,log_sceneDuration,unitSelection,seq_filepath,experimentTime,totalTime,age,gender
0,199719,DepthScenes,duration_manipulation_targetAtFixation,jsons/v1_VE1000_randls_6.json,http://54.235.29.9/FacialAge/BNav_EC2/DepthDuration/v2_depth_duration_MTurk/v2_DepthDuration_HTML.html#160,160,1440,900,1440,900,8-29-2022,10-40-50,1,depth_duration_stimuli/002663_2014-06-13_15-50-26_094959634447_rgbf000075-resize_1/002663_2014-06-13_15-50-26_094959634447_rgbf000075-resize_1-target.png,1000,4.7495,40,11103,1000,feet,jsons/v1_VE1000_randls_6.json,1585184,1985421,47,Woman
1,199719,DepthScenes,duration_manipulation_targetAtFixation,jsons/v1_VE1000_randls_6.json,http://54.235.29.9/FacialAge/BNav_EC2/DepthDuration/v2_depth_duration_MTurk/v2_DepthDuration_HTML.html#160,160,1440,900,1440,900,8-29-2022,10-40-50,2,depth_duration_stimuli/000409_2014-06-04_19-23-33_260595134347_rgbf000067-resize_0/000409_2014-06-04_19-23-33_260595134347_rgbf000067-resize_0-target.png,1000,3.7335,35,6663,1000,feet,jsons/v1_VE1000_randls_6.json,1585184,1985421,47,Woman
2,199719,DepthScenes,duration_manipulation_targetAtFixation,jsons/v1_VE1000_randls_6.json,http://54.235.29.9/FacialAge/BNav_EC2/DepthDuration/v2_depth_duration_MTurk/v2_DepthDuration_HTML.html#160,160,1440,900,1440,900,8-29-2022,10-40-50,3,depth_duration_stimuli/002905_2014-06-03_18-04-43_094959634447_rgbf000151-resize_2/002905_2014-06-03_18-04-43_094959634447_rgbf000151-resize_2-target.png,1000,2.0295,15,6993,998,feet,jsons/v1_VE1000_randls_6.json,1585184,1985421,47,Woman
3,199719,DepthScenes,duration_manipulation_targetAtFixation,jsons/v1_VE1000_randls_6.json,http://54.235.29.9/FacialAge/BNav_EC2/DepthDuration/v2_depth_duration_MTurk/v2_DepthDuration_HTML.html#160,160,1440,900,1440,900,8-29-2022,10-40-50,4,depth_duration_stimuli/003423_2014-05-21_10-23-26_094959634447_rgbf002665-resize_2/003423_2014-05-21_10-23-26_094959634447_rgbf002665-resize_2-target.png,1000,3.2575,20,7534,992,feet,jsons/v1_VE1000_randls_6.json,1585184,1985421,47,Woman
4,199719,DepthScenes,duration_manipulation_targetAtFixation,jsons/v1_VE1000_randls_6.json,http://54.235.29.9/FacialAge/BNav_EC2/DepthDuration/v2_depth_duration_MTurk/v2_DepthDuration_HTML.html#160,160,1440,900,1440,900,8-29-2022,10-40-50,5,depth_duration_stimuli/000642_2014-06-08_16-59-25_260595134347_rgbf000098-resize_2/000642_2014-06-08_16-59-25_260595134347_rgbf000098-resize_2-target.png,1000,2.8815,15,8260,998,feet,jsons/v1_VE1000_randls_6.json,1585184,1985421,47,Woman
5,199719,DepthScenes,duration_manipulation_targetAtFixation,jsons/v1_VE1000_randls_6.json,http://54.235.29.9/FacialAge/BNav_EC2/DepthDuration/v2_depth_duration_MTurk/v2_DepthDuration_HTML.html#160,160,1440,900,1440,900,8-29-2022,10-40-50,6,depth_duration_stimuli/002425_2014-06-28_20-27-29_260595134347_rgbf000031-resize_8/002425_2014-06-28_20-27-29_260595134347_rgbf000031-resize_8-target.png,1000,3.8960000000000004,15,11571,998,feet,jsons/v1_VE1000_randls_6.json,1585184,1985421,47,Woman
6,199719,DepthScenes,duration_manipulation_targetAtFixation,jsons/v1_VE1000_randls_6.json,http://54.235.29.9/FacialAge/BNav_EC2/DepthDuration/v2_depth_duration_MTurk/v2_DepthDuration_HTML.html#160,160,1440,900,1440,900,8-29-2022,10-40-50,7,depth_duration_stimuli/001449_2014-06-19_17-01-27_260595134347_rgbf000116-resize_2/001449_2014-06-19_17-01-27_260595134347_rgbf000116-resize_2-target.png,1000,3.452,20,13342,1000,feet,jsons/v1_VE1000_randls_6.json,1585184,1985421,47,Woman
7,199719,DepthScenes,duration_manipulation_targetAtFixation,jsons/v1_VE1000_randls_6.json,http://54.235.29.9/FacialAge/BNav_EC2/DepthDuration/v2_depth_duration_MTurk/v2_DepthDuration_HTML.html#160,160,1440,900,1440,900,8-29-2022,10-40-50,8,depth_duration_stimuli/001450_2014-06-19_17-02-03_260595134347_rgbf000203-resize_4/001450_2014-06-19_17-02-03_260595134347_rgbf000203-resize_4-target.png,1000,4.0106666666667,45,6550,998,feet,jsons/v1_VE1000_randls_6.json,1585184,1985421,47,Woman
8,199719,DepthScenes,duration_manipulation_targetAtFixation,jsons/v1_VE1000_randls_6.json,http://54.235.29.9/FacialAge/BNav_EC2/DepthDuration/v2_depth_duration_MTurk/v2_DepthDuration_HTML.html#160,160,1440,757,1440,900,8-29-2022,10-40-50,9,depth_duration_stimuli/002272_2014-06-28_18-53-56_260595134347_rgbf000067-resize_2/002272_2014-06-28_18-53-56_260595134347_rgbf000067-resize_2-target.png,1000,1.138,15,125393,999,feet,jsons/v1_VE1000_randls_6.json,1585184,1985421,47,Woman
9,199719,DepthScenes,duration_manipulation_targetAtFixation,jsons/v1_VE1000_randls_6.json,http://54.235.29.9/FacialAge/BNav_EC2/DepthDuration/v2_depth_duration_MTurk/v2_DepthDuration_HTML.html#160,160,1440,757,1440,900,8-29-2022,10-40-50,10,depth_duration_stimuli/001571_2014-06-20_17-21-32_260595134347_rgbf000089-resize_1/001571_2014-06-20_17-21-32_260595134347_rgbf000089-resize_1-target.png,1000,1.86,10,9877,988,feet,jsons/v1_VE1000_randls_6.json,1585184,1985421,47,Woman
10,199719,DepthScenes,duration_manipulation_targetAtFixation,jsons/v1_VE1000_randls_6.json,http://54.235.29.9/FacialAge/BNav_EC2/DepthDuration/v2_depth_duration_MTurk/v2_DepthDuration_HTML.html#160,160,1440,757,1440,900,8-29-2022,10-40-50,11,depth_duration_stimuli/002630_2014-06-24_14-47-50_094959634447_rgbf000055-resize_1/002630_2014-06-24_14-47-50_094959634447_rgbf000055-resize_1-target.png,1000,3.0095,15,12360,998,feet,jsons/v1_VE1000_randls_6.json,1585184,1985421,47,Woman
11,199719,DepthScenes,duration_manipulation_targetAtFixation,jsons/v1_VE1000_randls_6.json,http://54.235.29.9/FacialAge/BNav_EC2/DepthDuration/v2_depth_duration_MTurk/v2_DepthDuration_HTML.html#160,160,1440,757,1440,900,8-29-2022,10-40-50,12,depth_duration_stimuli/002758_2014-06-22_19-11-20_094959634447_rgbf000128-resize_1/002758_2014-06-22_19-11-20_094959634447_rgbf000128-resize_1-target.png,1000,2.555,10,5282,984,feet,jsons/v1_VE1000_randls_6.json,1585184,1985421,47,Woman
12,199719,DepthScenes,duration_manipulation_targetAtFixation,jsons/v1_VE1000_randls_6.json,http://54.235.29.9/FacialAge/BNav_EC2/DepthDuration/v2_depth_duration_MTurk/v2_DepthDuration_HTML.html#160,160,1440,757,1440,900,8-29-2022,10-40-50,13,depth_duration_stimuli/000569_2014-06-09_22-51-47_260595134347_rgbf000141-resize_3/000569_2014-06-09_22-51-47_260595134347_rgbf000141-resize-original.jpg,1000,4.512,5,7326,1000,feet,jsons/v1_VE1000_randls_6.json,1585184,1985421,47,Woman
13,199719,DepthScenes,duration_manipulation_targetAtFixation,jsons/v1_VE1000_randls_6.json,http://54.235.29.9/FacialAge/BNav_EC2/DepthDuration/v2_depth_duration_MTurk/v2_DepthDuration_HTML.html#160,160,1440,757,1440,900,8-29-2022,10-40-50,14,depth_duration_stimuli/002784_2014-06-22_19-26-30_094959634447_rgbf000083-resize_3/002784_2014-06-22_19-26-30_094959634447_rgbf000083-resize_3-target.png,1000,1.8046666666667,4,6611,999,feet,jsons/v1_VE1000_randls_6.json,1585184,1985421,47,Woman
14,199719,DepthScenes,duration_manipulation_targetAtFixation,jsons/v1_VE1000_randls_6.json,http://54.235.29.9/FacialAge/BNav_EC2/DepthDuration/v2_depth_duration_MTurk/v2_DepthDuration_HTML.html#160,160,1440,757,1440,900,8-29-2022,10-40-50,15,depth_duration_stimuli/001100_2014-06-15_17-46-26_260595134347_rgbf000225-resize_2/001100_2014-06-15_17-46-26_260595134347_rgbf000225-resize_2-target.png,1000,2.24,10,6101,998,feet,jsons/v1_VE1000_randls_6.json,1585184,1985421,47,Woman
15,199719,DepthScenes,duration_manipulation_targetAtFixation,jsons/v1_VE1000_randls_6.json,http://54.235.29.9/FacialAge/BNav_EC2/DepthDuration/v2_depth_duration_MTurk/v2_DepthDuration_HTML.html#160,160,1440,757,1440,900,8-29-2022,10-40-50,16,depth_duration_stimuli/002988_2014-06-15_12-24-20_094959634447_rgbf000150-resize_1/002988_2014-06-15_12-24-20_094959634447_rgbf000150-resize_1-target.png,1000,4.7669999999999995,45,7308,999,feet,jsons/v1_VE1000_randls_6.json,1585184,1985421,47,Woman
16,199719,DepthScenes,duration_manipulation_targetAtFixation,jsons/v1_VE1000_randls_6.json,http://54.235.29.9/FacialAge/BNav_EC2/DepthDuration/v2_depth_duration_MTurk/v2_DepthDuration_HTML.html#160,160,1440,757,1440,900,8-29-2022,10-40-50,17,depth_duration_stimuli/001052_2014-06-08_18-24-54_260595134347_rgbf000130-resize_1/001052_2014-06-08_18-24-54_260595134347_rgbf000130-resize_1-target.png,1000,4.1045,30,6126,1000,feet,jsons/v1_VE1000_randls_6.json,1585184,1985421,47,Woman
17,199719,DepthScenes,duration_manipulation_targetAtFixation,jsons/v1_VE1000_randls_6.json,http://54.235.29.9/FacialAge/BNav_EC2/DepthDuration/v2_depth_duration_MTurk/v2_DepthDuration_HTML.html#160,160,1440,757,1440,900,8-29-2022,10-40-50,18,depth_duration_stimuli/002748_2014-06-22_19-07-22_094959634447_rgbf000078-resize_1/002748_2014-06-22_19-07-22_094959634447_rgbf000078-resize_1-target.png,1000,4.6705,35,7373,998,feet,jsons/v1_VE1000_randls_6.json,1585184,1985421,47,Woman
18,199719,DepthScenes,duration_manipulation_targetAtFixation,jsons/v1_VE1000_randls_6.json,http://54.235.29.9/FacialAge/BNav_EC2/DepthDuration/v2_depth_duration_MTurk/v2_DepthDuration_HTML.html#160,160,1440,757,1440,900,8-29-2022,10-40-50,19,depth_duration_stimuli/002995_2014-06-15_12-31-26_094959634447_rgbf000150-resize_1/002995_2014-06-15_12-31-26_094959634447_rgbf000150-resize_1-target.png,1000,3.8360000000000003,30,10493,998,feet,jsons/v1_VE1000_randls_6.json,1585184,1985421,47,Woman
19,199719,DepthScenes,duration_manipulation_targetAtFixation,jsons/v1_VE1000_randls_6.json,http://54.235.29.9/FacialAge/BNav_EC2/DepthDuration/v2_depth_duration_MTurk/v2_DepthDuration_HTML.html#160,160,1440,757,1440,900,8-29-2022,10-40-50,20,depth_duration_stimuli/002213_2014-06-28_18-37-58_260595134347_rgbf000055-resize_1/002213_2014-06-28_18-37-58_260595134347_rgbf000055-resize_1-target.png,1000,3.62,45,6248,999,feet,jsons/v1_VE1000_randls_6.json,1585184,1985421,47,Woman
20,199719,DepthScenes,duration_manipulation_targetAtFixation,jsons/v1_VE1000_randls_6.json,http://54.235.29.9/FacialAge/BNav_EC2/DepthDuration/v2_depth_duration_MTurk/v2_DepthDuration_HTML.html#160,160,1440,757,1440,900,8-29-2022,10-40-50,21,depth_duration_stimuli/000691_2014-06-08_13-08-50_260595134347_rgbf000132-resize_3/000691_2014-06-08_13-08-50_260595134347_rgbf000132-resize_3-target.png,1000,4.1530000000000005,15,8354,1000,feet,jsons/v1_VE1000_randls_6.json,1585184,1985421,47,Woman
21,199719,DepthScenes,duration_manipulation_targetAtFixation,jsons/v1_VE1000_randls_6.json,http://54.235.29.9/FacialAge/BNav_EC2/DepthDuration/v2_depth_duration_MTurk/v2_DepthDuration_HTML.html#160,160,1440,757,1440,900,8-29-2022,10-40-50,22,depth_duration_stimuli/003492_2014-05-21_15-50-55_094959634447_rgbf000828-resize_1/003492_2014-05-21_15-50-55_094959634447_rgbf000828-resize_1-target.png,1000,4.06875,10,8872,998,feet,jsons/v1_VE1000_randls_6.json,1585184,1985421,47,Woman
22,199719,DepthScenes,duration_manipulation_targetAtFixation,jsons/v1_VE1000_randls_6.json,http://54.235.29.9/FacialAge/BNav_EC2/DepthDuration/v2_depth_duration_MTurk/v2_DepthDuration_HTML.html#160,160,1440,757,1440,900,8-29-2022,10-40-50,23,depth_duration_stimuli/002568_2014-06-24_13-59-21_094959634447_rgbf000062-resize_4/002568_2014-06-24_13-59-21_094959634447_rgbf000062-resize_4-target.png,1000,3.015,15,33834,1001,feet,jsons/v1_VE1000_randls_6.json,1585184,1985421,47,Woman
23,199719,DepthScenes,duration_manipulation_targetAtFixation,jsons/v1_VE1000_randls_6.json,http://54.235.29.9/FacialAge/BNav_EC2/DepthDuration/v2_depth_duration_MTurk/v2_DepthDuration_HTML.html#160,160,1440,757,1440,900,8-29-2022,10-40-50,24,depth_duration_stimuli/001011_2014-06-08_23-18-54_260595134347_rgbf000044-resize_4/001011_2014-06-08_23-18-54_260595134347_rgbf000044-resize_4-target.png,1000,2.4730000000000003,40,8998,999,feet,jsons/v1_VE1000_randls_6.json,1585184,1985421,47,Woman
24,199719,DepthScenes,duration_manipulation_targetAtFixation,jsons/v1_VE1000_randls_6.json,http://54.235.29.9/FacialAge/BNav_EC2/DepthDuration/v2_depth_duration_MTurk/v2_DepthDuration_HTML.html#160,160,1440,757,1440,900,8-29-2022,10-40-50,25,depth_duration_stimuli/002875_2014-06-01_15-19-00_094959634447_rgbf000151-resize_1/002875_2014-06-01_15-19-00_094959634447_rgbf000151-resize_1-target.png,1000,1.9675,15,6698,1001,feet,jsons/v1_VE1000_randls_6.json,1585184,1985421,47,Woman
25,199719,DepthScenes,duration_manipulation_targetAtFixation,jsons/v1_VE1000_randls_6.json,http://54.235.29.9/FacialAge/BNav_EC2/DepthDuration/v2_depth_duration_MTurk/v2_DepthDuration_HTML.html#160,160,1440,757,1440,900,8-29-2022,10-40-50,26,depth_duration_stimuli/002964_2014-06-08_17-46-11_094959634447_rgbf000091-resize_4/002964_2014-06-08_17-46-11_094959634447_rgbf000091-resize_4-target.png,1000,1.6909999999999998,15,7145,999,feet,jsons/v1_VE1000_randls_6.json,1585184,1985421,47,Woman
26,199719,DepthScenes,duration_manipulation_targetAtFixation,jsons/v1_VE1000_randls_6.json,http://54.235.29.9/FacialAge/BNav_EC2/DepthDuration/v2_depth_duration_MTurk/v2_DepthDuration_HTML.html#160,160,1440,757,1440,900,8-29-2022,10-40-50,27,depth_duration_stimuli/002136_2014-06-25_21-18-03_260595134347_rgbf000109-resize_3/002136_2014-06-25_21-18-03_260595134347_rgbf000109-resize_3-target.png,1000,1.9569999999999999,20,6260,1000,feet,jsons/v1_VE1000_randls_6.json,1585184,1985421,47,Woman
27,199719,DepthScenes,duration_manipulation_targetAtFixation,jsons/v1_VE1000_randls_6.json,http://54.235.29.9/FacialAge/BNav_EC2/DepthDuration/v2_depth_duration_MTurk/v2_DepthDuration_HTML.html#160,160,1440,757,1440,900,8-29-2022,10-40-50,28,depth_duration_stimuli/001555_2014-06-20_17-12-10_260595134347_rgbf000065-resize_4/001555_2014-06-20_17-12-10_260595134347_rgbf000065-resize_4-target.png,1000,1.633,10,6522,998,feet,jsons/v1_VE1000_randls_6.json,1585184,1985421,47,Woman
28,199719,DepthScenes,duration_manipulation_targetAtFixation,jsons/v1_VE1000_randls_6.json,http://54.235.29.9/FacialAge/BNav_EC2/DepthDuration/v2_depth_duration_MTurk/v2_DepthDuration_HTML.html#160,160,1440,757,1440,900,8-29-2022,10-40-50,29,depth_duration_stimuli/000103_2014-05-14_22-01-17_260595134347_rgbf000152-resize_5/000103_2014-05-14_22-01-17_260595134347_rgbf000152-resize_5-target.png,1000,1.993,15,5185,991,feet,jsons/v1_VE1000_randls_6.json,1585184,1985421,47,Woman
29,199719,DepthScenes,duration_manipulation_targetAtFixation,jsons/v1_VE1000_randls_6.json,http://54.235.29.9/FacialAge/BNav_EC2/DepthDuration/v2_depth_duration_MTurk/v2_DepthDuration_HTML.html#160,160,1440,757,1440,900,8-29-2022,10-40-50,30,depth_duration_stimuli/000375_2014-06-08_11-17-29_260595134347_rgbf000133-resize_2/000375_2014-06-08_11-17-29_260595134347_rgbf000133-resize-original.jpg,1000,4.718,5,6453,1000,feet,jsons/v1_VE1000_randls_6.json,1585184,1985421,47,Woman
30,199719,DepthScenes,duration_manipulation_targetAtFixation,jsons/v1_VE1000_randls_6.json,http://54.235.29.9/FacialAge/BNav_EC2/DepthDuration/v2_depth_duration_MTurk/v2_DepthDuration_HTML.html#160,160,1440,757,1440,900,8-29-2022,10-40-50,31,depth_duration_stimuli/001175_2014-06-17_15-45-55_260595134347_rgbf000129-resize_4/001175_2014-06-17_15-45-55_260595134347_rgbf000129-resize_4-target.png,1000,4.255,0,6014,1000,feet,jsons/v1_VE1000_randls_6.json,1585184,1985421,47,Woman
31,199719,DepthScenes,duration_manipulation_targetAtFixation,jsons/v1_VE1000_randls_6.json,http://54.235.29.9/FacialAge/BNav_EC2/DepthDuration/v2_depth_duration_MTurk/v2_DepthDuration_HTML.html#160,160,1440,757,1440,900,8-29-2022,10-40-50,32,depth_duration_stimuli/003490_2014-05-21_15-50-11_094959634447_rgbf000101-resize_3/003490_2014-05-21_15-50-11_094959634447_rgbf000101-resize_3-target.png,1000,3.6445,0,6266,984,feet,jsons/v1_VE1000_randls_6.json,1585184,1985421,47,Woman
32,199719,DepthScenes,duration_manipulation_targetAtFixation,jsons/v1_VE1000_randls_6.json,http://54.235.29.9/FacialAge/BNav_EC2/DepthDuration/v2_depth_duration_MTurk/v2_DepthDuration_HTML.html#160,160,1440,757,1440,900,8-29-2022,10-40-50,33,depth_duration_stimuli/003534_2014-05-22_15-06-10_094959634447_rgbf000102-resize_4/003534_2014-05-22_15-06-10_094959634447_rgbf000102-resize_4-target.png,1000,1.426,5,6035,996,feet,jsons/v1_VE1000_randls_6.json,1585184,1985421,47,Woman
33,199719,DepthScenes,duration_manipulation_targetAtFixation,jsons/v1_VE1000_randls_6.json,http://54.235.29.9/FacialAge/BNav_EC2/DepthDuration/v2_depth_duration_MTurk/v2_DepthDuration_HTML.html#160,160,1440,757,1440,900,8-29-2022,10-40-50,34,depth_duration_stimuli/002637_2014-06-24_14-51-13_094959634447_rgbf000066-resize_4/002637_2014-06-24_14-51-13_094959634447_rgbf000066-resize_4-target.png,1000,1.9955,15,7858,999,feet,jsons/v1_VE1000_randls_6.json,1585184,1985421,47,Woman
34,199719,DepthScenes,duration_manipulation_targetAtFixation,jsons/v1_VE1000_randls_6.json,http://54.235.29.9/FacialAge/BNav_EC2/DepthDuration/v2_depth_duration_MTurk/v2_DepthDuration_HTML.html#160,160,1440,757,1440,900,8-29-2022,10-40-50,35,depth_duration_stimuli/001110_2014-06-15_17-25-28_260595134347_rgbf000150-resize_1/001110_2014-06-15_17-25-28_260595134347_rgbf000150-resize_1-target.png,1000,1.7115,25,7096,1000,feet,jsons/v1_VE1000_randls_6.json,1585184,1985421,47,Woman
35,199719,DepthScenes,duration_manipulation_targetAtFixation,jsons/v1_VE1000_randls_6.json,http://54.235.29.9/FacialAge/BNav_EC2/DepthDuration/v2_depth_duration_MTurk/v2_DepthDuration_HTML.html#160,160,1440,757,1440,900,8-29-2022,10-40-50,36,depth_duration_stimuli/000927_2014-06-09_16-32-30_260595134347_rgbf000123-resize_3/000927_2014-06-09_16-32-30_260595134347_rgbf000123-resize_3-target.png,1000,2.6785,35,6058,998,feet,jsons/v1_VE1000_randls_6.json,1585184,1985421,47,Woman
36,199719,DepthScenes,duration_manipulation_targetAtFixation,jsons/v1_VE1000_randls_6.json,http://54.235.29.9/FacialAge/BNav_EC2/DepthDuration/v2_depth_duration_MTurk/v2_DepthDuration_HTML.html#160,160,1440,757,1440,900,8-29-2022,10-40-50,37,depth_duration_stimuli/001810_2014-06-26_20-51-35_260595134347_rgbf000040-resize_3/001810_2014-06-26_20-51-35_260595134347_rgbf000040-resize_3-target.png,1000,2.2525,30,9469,999,feet,jsons/v1_VE1000_randls_6.json,1585184,1985421,47,Woman
37,199719,DepthScenes,duration_manipulation_targetAtFixation,jsons/v1_VE1000_randls_6.json,http://54.235.29.9/FacialAge/BNav_EC2/DepthDuration/v2_depth_duration_MTurk/v2_DepthDuration_HTML.html#160,160,1440,757,1440,900,8-29-2022,10-40-50,38,depth_duration_stimuli/003010_2014-06-15_12-54-35_094959634447_rgbf000112-resize_0/003010_2014-06-15_12-54-35_094959634447_rgbf000112-resize_0-target.png,1000,3.1185,45,5175,984,feet,jsons/v1_VE1000_randls_6.json,1585184,1985421,47,Woman
38,199719,DepthScenes,duration_manipulation_targetAtFixation,jsons/v1_VE1000_randls_6.json,http://54.235.29.9/FacialAge/BNav_EC2/DepthDuration/v2_depth_duration_MTurk/v2_DepthDuration_HTML.html#160,160,1440,757,1440,900,8-29-2022,10-40-50,39,depth_duration_stimuli/002445_2014-06-28_20-32-16_260595134347_rgbf000029-resize_4/002445_2014-06-28_20-32-16_260595134347_rgbf000029-resize_4-target.png,1000,2.5315,40,9196,998,feet,jsons/v1_VE1000_randls_6.json,1585184,1985421,47,Woman
39,199719,DepthScenes,duration_manipulation_targetAtFixation,jsons/v1_VE1000_randls_6.json,http://54.235.29.9/FacialAge/BNav_EC2/DepthDuration/v2_depth_duration_MTurk/v2_DepthDuration_HTML.html#160,160,1440,757,1440,900,8-29-2022,10-40-50,40,depth_duration_stimuli/000780_2014-06-08_22-28-29_260595134347_rgbf000126-resize_1/000780_2014-06-08_22-28-29_260595134347_rgbf000126-resize_1-target.png,1000,3.3825,45,5143,980,feet,jsons/v1_VE1000_randls_6.json,1585184,1985421,47,Woman
40,199719,DepthScenes,duration_manipulation_targetAtFixation,jsons/v1_VE1000_randls_6.json,http://54.235.29.9/FacialAge/BNav_EC2/DepthDuration/v2_depth_duration_MTurk/v2_DepthDuration_HTML.html#160,160,1440,757,1440,900,8-29-2022,10-40-50,41,depth_duration_stimuli/002763_2014-06-22_19-13-10_094959634447_rgbf000075-resize_4/002763_2014-06-22_19-13-10_094959634447_rgbf000075-resize_4-target.png,1000,1.68375,30,5866,998,feet,jsons/v1_VE1000_randls_6.json,1585184,1985421,47,Woman
41,199719,DepthScenes,duration_manipulation_targetAtFixation,jsons/v1_VE1000_randls_6.json,http://54.235.29.9/FacialAge/BNav_EC2/DepthDuration/v2_depth_duration_MTurk/v2_DepthDuration_HTML.html#160,160,1440,757,1440,900,8-29-2022,10-40-50,42,depth_duration_stimuli/002209_2014-06-28_18-36-10_260595134347_rgbf000051-resize_1/002209_2014-06-28_18-36-10_260595134347_rgbf000051-resize_1-target.png,1000,2.057,20,5126,998,feet,jsons/v1_VE1000_randls_6.json,1585184,1985421,47,Woman
42,199719,DepthScenes,duration_manipulation_targetAtFixation,jsons/v1_VE1000_randls_6.json,http://54.235.29.9/FacialAge/BNav_EC2/DepthDuration/v2_depth_duration_MTurk/v2_DepthDuration_HTML.html#160,160,1440,757,1440,900,8-29-2022,10-40-50,43,depth_duration_stimuli/000009_2014-05-26_14-32-05_260595134347_rgbf000034-resize_3/000009_2014-05-26_14-32-05_260595134347_rgbf000034-resize_3-target.png,1000,3.8715,45,5752,1000,feet,jsons/v1_VE1000_randls_6.json,1585184,1985421,47,Woman
43,199719,DepthScenes,duration_manipulation_targetAtFixation,jsons/v1_VE1000_randls_6.json,http://54.235.29.9/FacialAge/BNav_EC2/DepthDuration/v2_depth_duration_MTurk/v2_DepthDuration_HTML.html#160,160,1440,757,1440,900,8-29-2022,10-40-50,44,depth_duration_stimuli/001828_2014-06-26_21-40-03_260595134347_rgbf000024-resize_0/001828_2014-06-26_21-40-03_260595134347_rgbf000024-resize_0-target.png,1000,4.8260000000000005,40,5551,999,feet,jsons/v1_VE1000_randls_6.json,1585184,1985421,47,Woman
44,199719,DepthScenes,duration_manipulation_targetAtFixation,jsons/v1_VE1000_randls_6.json,http://54.235.29.9/FacialAge/BNav_EC2/DepthDuration/v2_depth_duration_MTurk/v2_DepthDuration_HTML.html#160,160,1440,757,1440,900,8-29-2022,10-40-50,45,depth_duration_stimuli/000787_2014-06-08_22-33-53_260595134347_rgbf000175-resize_1/000787_2014-06-08_22-33-53_260595134347_rgbf000175-resize-original.jpg,1000,4.784,20,6542,1000,feet,jsons/v1_VE1000_randls_6.json,1585184,1985421,47,Woman
45,199719,DepthScenes,duration_manipulation_targetAtFixation,jsons/v1_VE1000_randls_6.json,http://54.235.29.9/FacialAge/BNav_EC2/DepthDuration/v2_depth_duration_MTurk/v2_DepthDuration_HTML.html#160,160,1440,757,1440,900,8-29-2022,10-40-50,46,depth_duration_stimuli/000917_2014-06-09_22-45-29_260595134347_rgbf000149-resize_3/000917_2014-06-09_22-45-29_260595134347_rgbf000149-resize_3-target.png,1000,4.1865,15,6856,998,feet,jsons/v1_VE1000_randls_6.json,1585184,1985421,47,Woman
46,199719,DepthScenes,duration_manipulation_targetAtFixation,jsons/v1_VE1000_randls_6.json,http://54.235.29.9/FacialAge/BNav_EC2/DepthDuration/v2_depth_duration_MTurk/v2_DepthDuration_HTML.html#160,160,1440,757,1440,900,8-29-2022,10-40-50,47,depth_duration_stimuli/002323_2014-06-28_20-01-54_260595134347_rgbf000051-resize_4/002323_2014-06-28_20-01-54_260595134347_rgbf000051-resize_4-target.png,1000,3.7310000000000003,15,113076,1000,feet,jsons/v1_VE1000_randls_6.json,1585184,1985421,47,Woman
47,199719,DepthScenes,duration_manipulation_targetAtFixation,jsons/v1_VE1000_randls_6.json,http://54.235.29.9/FacialAge/BNav_EC2/DepthDuration/v2_depth_duration_MTurk/v2_DepthDuration_HTML.html#160,160,1440,757,1440,900,8-29-2022,10-40-50,48,depth_duration_stimuli/001570_2014-06-20_17-21-09_260595134347_rgbf000135-resize_4/001570_2014-06-20_17-21-09_260595134347_rgbf000135-resize_4-target.png,1000,4.467,45,10123,1000,feet,jsons/v1_VE1000_randls_6.json,1585184,1985421,47,Woman
48,199719,DepthScenes,duration_manipulation_targetAtFixation,jsons/v1_VE1000_randls_6.json,http://54.235.29.9/FacialAge/BNav_EC2/DepthDuration/v2_depth_duration_MTurk/v2_DepthDuration_HTML.html#160,160,1440,757,1440,900,8-29-2022,10-40-50,49,depth_duration_stimuli/001392_2014-06-19_16-07-59_260595134347_rgbf000046-resize_1/001392_2014-06-19_16-07-59_260595134347_rgbf000046-resize_1-target.png,1000,4.135,40,5730,1000,feet,jsons/v1_VE1000_randls_6.json,1585184,1985421,47,Woman
49,199719,DepthScenes,duration_manipulation_targetAtFixation,jsons/v1_VE1000_randls_6.json,http://54.235.29.9/FacialAge/BNav_EC2/DepthDuration/v2_depth_duration_MTurk/v2_DepthDuration_HTML.html#160,160,1440,757,1440,900,8-29-2022,10-40-50,50,depth_duration_stimuli/000788_2014-06-08_22-34-36_260595134347_rgbf000131-resize_1/000788_2014-06-08_22-34-36_260595134347_rgbf000131-resize_1-target.png,1000,3.359,41,9083,999,feet,jsons/v1_VE1000_randls_6.json,1585184,1985421,47,Woman
50,199719,DepthScenes,duration_manipulation_targetAtFixation,jsons/v1_VE1000_randls_6.json,http://54.235.29.9/FacialAge/BNav_EC2/DepthDuration/v2_depth_duration_MTurk/v2_DepthDuration_HTML.html#160,160,1440,757,1440,900,8-29-2022,10-40-50,51,depth_duration_stimuli/001235_2014-06-17_16-37-36_260595134347_rgbf000084-resize_4/001235_2014-06-17_16-37-36_260595134347_rgbf000084-resize_4-target.png,1000,3.6605,38,6106,1000,feet,jsons/v1_VE1000_randls_6.json,1585184,1985421,47,Woman
51,199719,DepthScenes,duration_manipulation_targetAtFixation,jsons/v1_VE1000_randls_6.json,http://54.235.29.9/FacialAge/BNav_EC2/DepthDuration/v2_depth_duration_MTurk/v2_DepthDuration_HTML.html#160,160,1440,757,1440,900,8-29-2022,10-40-50,52,depth_duration_stimuli/000739_2014-06-08_18-45-58_260595134347_rgbf000068-resize_1/000739_2014-06-08_18-45-58_260595134347_rgbf000068-resize_1-target.png,1000,3.534,45,7602,1000,feet,jsons/v1_VE1000_randls_6.json,1585184,1985421,47,Woman
52,199719,DepthScenes,duration_manipulation_targetAtFixation,jsons/v1_VE1000_randls_6.json,http://54.235.29.9/FacialAge/BNav_EC2/DepthDuration/v2_depth_duration_MTurk/v2_DepthDuration_HTML.html#160,160,1440,757,1440,900,8-29-2022,10-40-50,53,depth_duration_stimuli/000734_2014-06-08_17-39-11_260595134347_rgbf000128-resize_2/000734_2014-06-08_17-39-11_260595134347_rgbf000128-resize_2-target.png,1000,4.098,30,7836,999,feet,jsons/v1_VE1000_randls_6.json,1585184,1985421,47,Woman
53,199719,DepthScenes,duration_manipulation_targetAtFixation,jsons/v1_VE1000_randls_6.json,http://54.235.29.9/FacialAge/BNav_EC2/DepthDuration/v2_depth_duration_MTurk/v2_DepthDuration_HTML.html#160,160,1440,757,1440,900,8-29-2022,10-40-50,54,depth_duration_stimuli/000736_2014-06-08_18-24-15_260595134347_rgbf000206-resize_3/000736_2014-06-08_18-24-15_260595134347_rgbf000206-resize_3-target.png,1000,3.515,35,6520,999,feet,jsons/v1_VE1000_randls_6.json,1585184,1985421,47,Woman
54,199719,DepthScenes,duration_manipulation_targetAtFixation,jsons/v1_VE1000_randls_6.json,http://54.235.29.9/FacialAge/BNav_EC2/DepthDuration/v2_depth_duration_MTurk/v2_DepthDuration_HTML.html#160,160,1440,757,1440,900,8-29-2022,10-40-50,55,depth_duration_stimuli/000137_2014-05-20_17-04-49_260595134347_rgbf000120-resize_1/000137_2014-05-20_17-04-49_260595134347_rgbf000120-resize_1-target.png,1000,3.786,25,7247,1000,feet,jsons/v1_VE1000_randls_6.json,1585184,1985421,47,Woman
55,199719,DepthScenes,duration_manipulation_targetAtFixation,jsons/v1_VE1000_randls_6.json,http://54.235.29.9/FacialAge/BNav_EC2/DepthDuration/v2_depth_duration_MTurk/v2_DepthDuration_HTML.html#160,160,1440,757,1440,900,8-29-2022,10-40-50,56,depth_duration_stimuli/001244_2014-06-17_16-47-45_260595134347_rgbf000030-resize_4/001244_2014-06-17_16-47-45_260595134347_rgbf000030-resize_4-target.png,1000,2.0425,30,6041,999,feet,jsons/v1_VE1000_randls_6.json,1585184,1985421,47,Woman
56,199719,DepthScenes,duration_manipulation_targetAtFixation,jsons/v1_VE1000_randls_6.json,http://54.235.29.9/FacialAge/BNav_EC2/DepthDuration/v2_depth_duration_MTurk/v2_DepthDuration_HTML.html#160,160,1440,757,1440,900,8-29-2022,10-40-50,57,depth_duration_stimuli/003495_2014-05-21_16-01-51_094959634447_rgbf000100-resize_3/003495_2014-05-21_16-01-51_094959634447_rgbf000100-resize_3-target.png,1000,1.6255,35,6754,999,feet,jsons/v1_VE1000_randls_6.json,1585184,1985421,47,Woman
57,199719,DepthScenes,duration_manipulation_targetAtFixation,jsons/v1_VE1000_randls_6.json,http://54.235.29.9/FacialAge/BNav_EC2/DepthDuration/v2_depth_duration_MTurk/v2_DepthDuration_HTML.html#160,160,1440,757,1440,900,8-29-2022,10-40-50,58,depth_duration_stimuli/002039_2014-06-24_20-22-38_260595134347_rgbf000084-resize_1/002039_2014-06-24_20-22-38_260595134347_rgbf000084-resize_1-target.png,1000,4.408,25,12832,996,feet,jsons/v1_VE1000_randls_6.json,1585184,1985421,47,Woman
58,199719,DepthScenes,duration_manipulation_targetAtFixation,jsons/v1_VE1000_randls_6.json,http://54.235.29.9/FacialAge/BNav_EC2/DepthDuration/v2_depth_duration_MTurk/v2_DepthDuration_HTML.html#160,160,1440,757,1440,900,8-29-2022,10-40-50,59,depth_duration_stimuli/002103_2014-06-25_20-00-40_260595134347_rgbf000049-resize_0/002103_2014-06-25_20-00-40_260595134347_rgbf000049-resize_0-target.png,1000,4.105,40,5428,999,feet,jsons/v1_VE1000_randls_6.json,1585184,1985421,47,Woman
59,199719,DepthScenes,duration_manipulation_targetAtFixation,jsons/v1_VE1000_randls_6.json,http://54.235.29.9/FacialAge/BNav_EC2/DepthDuration/v2_depth_duration_MTurk/v2_DepthDuration_HTML.html#160,160,1440,757,1440,900,8-29-2022,10-40-50,60,depth_duration_stimuli/003070_2014-06-15_14-58-27_094959634447_rgbf000150-resize_3/003070_2014-06-15_14-58-27_094959634447_rgbf000150-resize_3-target.png,1000,2.9415,35,5954,1000,feet,jsons/v1_VE1000_randls_6.json,1585184,1985421,47,Woman
60,199719,DepthScenes,duration_manipulation_targetAtFixation,jsons/v1_VE1000_randls_6.json,http://54.235.29.9/FacialAge/BNav_EC2/DepthDuration/v2_depth_duration_MTurk/v2_DepthDuration_HTML.html#160,160,1440,757,1440,900,8-29-2022,10-40-50,61,depth_duration_stimuli/000943_2014-06-09_19-31-07_260595134347_rgbf000128-resize_1/000943_2014-06-09_19-31-07_260595134347_rgbf000128-resize_1-target.png,1000,1.9765,15,5949,999,feet,jsons/v1_VE1000_randls_6.json,1585184,1985421,47,Woman
61,199719,DepthScenes,duration_manipulation_targetAtFixation,jsons/v1_VE1000_randls_6.json,http://54.235.29.9/FacialAge/BNav_EC2/DepthDuration/v2_depth_duration_MTurk/v2_DepthDuration_HTML.html#160,160,1440,757,1440,900,8-29-2022,10-40-50,62,depth_duration_stimuli/001150_2014-06-17_15-27-34_260595134347_rgbf000108-resize_2/001150_2014-06-17_15-27-34_260595134347_rgbf000108-resize_2-target.png,1000,4.0325,45,8530,999,feet,jsons/v1_VE1000_randls_6.json,1585184,1985421,47,Woman
62,199719,DepthScenes,duration_manipulation_targetAtFixation,jsons/v1_VE1000_randls_6.json,http://54.235.29.9/FacialAge/BNav_EC2/DepthDuration/v2_depth_duration_MTurk/v2_DepthDuration_HTML.html#160,160,1440,757,1440,900,8-29-2022,10-40-50,63,depth_duration_stimuli/000665_2014-06-09_20-42-35_260595134347_rgbf000110-resize_1/000665_2014-06-09_20-42-35_260595134347_rgbf000110-resize_1-target.png,1000,3.057,40,8183,999,feet,jsons/v1_VE1000_randls_6.json,1585184,1985421,47,Woman
63,199719,DepthScenes,duration_manipulation_targetAtFixation,jsons/v1_VE1000_randls_6.json,http://54.235.29.9/FacialAge/BNav_EC2/DepthDuration/v2_depth_duration_MTurk/v2_DepthDuration_HTML.html#160,160,1440,757,1440,900,8-29-2022,10-40-50,64,depth_duration_stimuli/000414_2014-06-04_19-49-13_260595134347_rgbf000044-resize_0/000414_2014-06-04_19-49-13_260595134347_rgbf000044-resize_0-target.png,1000,4.329,35,6948,983,feet,jsons/v1_VE1000_randls_6.json,1585184,1985421,47,Woman
64,199719,DepthScenes,duration_manipulation_targetAtFixation,jsons/v1_VE1000_randls_6.json,http://54.235.29.9/FacialAge/BNav_EC2/DepthDuration/v2_depth_duration_MTurk/v2_DepthDuration_HTML.html#160,160,1440,757,1440,900,8-29-2022,10-40-50,65,depth_duration_stimuli/003129_2014-05-12_10-48-10_094959634447_rgbf000100-resize_0/003129_2014-05-12_10-48-10_094959634447_rgbf000100-resize_0-target.png,1000,4.9305,25,6331,1001,feet,jsons/v1_VE1000_randls_6.json,1585184,1985421,47,Woman
65,199719,DepthScenes,duration_manipulation_targetAtFixation,jsons/v1_VE1000_randls_6.json,http://54.235.29.9/FacialAge/BNav_EC2/DepthDuration/v2_depth_duration_MTurk/v2_DepthDuration_HTML.html#160,160,1440,757,1440,900,8-29-2022,10-40-50,66,depth_duration_stimuli/001222_2014-06-17_16-24-06_260595134347_rgbf000073-resize_0/001222_2014-06-17_16-24-06_260595134347_rgbf000073-resize-original.jpg,1000,1.4385,0,5880,999,feet,jsons/v1_VE1000_randls_6.json,1585184,1985421,47,Woman
66,199719,DepthScenes,duration_manipulation_targetAtFixation,jsons/v1_VE1000_randls_6.json,http://54.235.29.9/FacialAge/BNav_EC2/DepthDuration/v2_depth_duration_MTurk/v2_DepthDuration_HTML.html#160,160,1440,757,1440,900,8-29-2022,10-40-50,67,depth_duration_stimuli/000368_2014-06-09_15-53-01_260595134347_rgbf000155-resize_2/000368_2014-06-09_15-53-01_260595134347_rgbf000155-resize_2-target.png,1000,2.4859999999999998,15,5455,998,feet,jsons/v1_VE1000_randls_6.json,1585184,1985421,47,Woman
67,199719,DepthScenes,duration_manipulation_targetAtFixation,jsons/v1_VE1000_randls_6.json,http://54.235.29.9/FacialAge/BNav_EC2/DepthDuration/v2_depth_duration_MTurk/v2_DepthDuration_HTML.html#160,160,1440,757,1440,900,8-29-2022,10-40-50,68,depth_duration_stimuli/002678_2014-06-13_16-15-32_094959634447_rgbf000151-resize_6/002678_2014-06-13_16-15-32_094959634447_rgbf000151-resize_6-target.png,1000,2.1830000000000003,0,5724,1000,feet,jsons/v1_VE1000_randls_6.json,1585184,1985421,47,Woman
68,199719,DepthScenes,duration_manipulation_targetAtFixation,jsons/v1_VE1000_randls_6.json,http://54.235.29.9/FacialAge/BNav_EC2/DepthDuration/v2_depth_duration_MTurk/v2_DepthDuration_HTML.html#160,160,1440,757,1440,900,8-29-2022,10-40-50,69,depth_duration_stimuli/002043_2014-06-24_20-29-38_260595134347_rgbf000039-resize_4/002043_2014-06-24_20-29-38_260595134347_rgbf000039-resize_4-target.png,1000,2.8435,15,6974,999,feet,jsons/v1_VE1000_randls_6.json,1585184,1985421,47,Woman
69,199719,DepthScenes,duration_manipulation_targetAtFixation,jsons/v1_VE1000_randls_6.json,http://54.235.29.9/FacialAge/BNav_EC2/DepthDuration/v2_depth_duration_MTurk/v2_DepthDuration_HTML.html#160,160,1440,757,1440,900,8-29-2022,10-40-50,70,depth_duration_stimuli/003048_2014-06-15_13-49-43_094959634447_rgbf000150-resize_1/003048_2014-06-15_13-49-43_094959634447_rgbf000150-resize_1-target.png,1000,4.0035,25,5673,998,feet,jsons/v1_VE1000_randls_6.json,1585184,1985421,47,Woman
70,199719,DepthScenes,duration_manipulation_targetAtFixation,jsons/v1_VE1000_randls_6.json,http://54.235.29.9/FacialAge/BNav_EC2/DepthDuration/v2_depth_duration_MTurk/v2_DepthDuration_HTML.html#160,160,1440,757,1440,900,8-29-2022,10-40-50,71,depth_duration_stimuli/000810_2014-06-08_17-20-01_260595134347_rgbf000105-resize_0/000810_2014-06-08_17-20-01_260595134347_rgbf000105-resize_0-target.png,1000,1.4865,20,6047,999,feet,jsons/v1_VE1000_randls_6.json,1585184,1985421,47,Woman
71,199719,DepthScenes,duration_manipulation_targetAtFixation,jsons/v1_VE1000_randls_6.json,http://54.235.29.9/FacialAge/BNav_EC2/DepthDuration/v2_depth_duration_MTurk/v2_DepthDuration_HTML.html#160,160,1440,757,1440,900,8-29-2022,10-40-50,72,depth_duration_stimuli/001214_2014-06-17_16-13-55_260595134347_rgbf000111-resize_0/001214_2014-06-17_16-13-55_260595134347_rgbf000111-resize_0-target.png,1000,2.6505,15,5289,997,feet,jsons/v1_VE1000_randls_6.json,1585184,1985421,47,Woman
72,199719,DepthScenes,duration_manipulation_targetAtFixation,jsons/v1_VE1000_randls_6.json,http://54.235.29.9/FacialAge/BNav_EC2/DepthDuration/v2_depth_duration_MTurk/v2_DepthDuration_HTML.html#160,160,1440,757,1440,900,8-29-2022,10-40-50,73,depth_duration_stimuli/001029_2014-06-08_13-17-57_260595134347_rgbf000065-resize_1/001029_2014-06-08_13-17-57_260595134347_rgbf000065-resize_1-target.png,1000,3.0835,30,6583,1000,feet,jsons/v1_VE1000_randls_6.json,1585184,1985421,47,Woman
73,199719,DepthScenes,duration_manipulation_targetAtFixation,jsons/v1_VE1000_randls_6.json,http://54.235.29.9/FacialAge/BNav_EC2/DepthDuration/v2_depth_duration_MTurk/v2_DepthDuration_HTML.html#160,160,1440,757,1440,900,8-29-2022,10-40-50,74,depth_duration_stimuli/000677_2014-06-08_23-10-32_260595134347_rgbf000158-resize_6/000677_2014-06-08_23-10-32_260595134347_rgbf000158-resize_6-target.png,1000,3.556,35,5432,1000,feet,jsons/v1_VE1000_randls_6.json,1585184,1985421,47,Woman
74,199719,DepthScenes,duration_manipulation_targetAtFixation,jsons/v1_VE1000_randls_6.json,http://54.235.29.9/FacialAge/BNav_EC2/DepthDuration/v2_depth_duration_MTurk/v2_DepthDuration_HTML.html#160,160,1440,757,1440,900,8-29-2022,10-40-50,75,depth_duration_stimuli/000506_2014-06-08_23-21-00_260595134347_rgbf000070-resize_7/000506_2014-06-08_23-21-00_260595134347_rgbf000070-resize_7-target.png,1000,4.0585,40,6209,999,feet,jsons/v1_VE1000_randls_6.json,1585184,1985421,47,Woman
75,199719,DepthScenes,duration_manipulation_targetAtFixation,jsons/v1_VE1000_randls_6.json,http://54.235.29.9/FacialAge/BNav_EC2/DepthDuration/v2_depth_duration_MTurk/v2_DepthDuration_HTML.html#160,160,1440,757,1440,900,8-29-2022,10-40-50,76,depth_duration_stimuli/003079_2014-06-15_15-18-20_094959634447_rgbf000152-resize_8/003079_2014-06-15_15-18-20_094959634447_rgbf000152-resize_8-target.png,1000,2.8775,45,5611,995,feet,jsons/v1_VE1000_randls_6.json,1585184,1985421,47,Woman
76,199719,DepthScenes,duration_manipulation_targetAtFixation,jsons/v1_VE1000_randls_6.json,http://54.235.29.9/FacialAge/BNav_EC2/DepthDuration/v2_depth_duration_MTurk/v2_DepthDuration_HTML.html#160,160,1440,757,1440,900,8-29-2022,10-40-50,77,depth_duration_stimuli/001417_2014-06-19_16-25-36_260595134347_rgbf000115-resize_5/001417_2014-06-19_16-25-36_260595134347_rgbf000115-resize_5-target.png,1000,4.6255,35,5838,999,feet,jsons/v1_VE1000_randls_6.json,1585184,1985421,47,Woman
77,199719,DepthScenes,duration_manipulation_targetAtFixation,jsons/v1_VE1000_randls_6.json,http://54.235.29.9/FacialAge/BNav_EC2/DepthDuration/v2_depth_duration_MTurk/v2_DepthDuration_HTML.html#160,160,1440,757,1440,900,8-29-2022,10-40-50,78,depth_duration_stimuli/003081_2014-06-15_15-19-16_094959634447_rgbf000150-resize_1/003081_2014-06-15_15-19-16_094959634447_rgbf000150-resize_1-target.png,1000,3.9125,30,5920,999,feet,jsons/v1_VE1000_randls_6.json,1585184,1985421,47,Woman
78,199719,DepthScenes,duration_manipulation_targetAtFixation,jsons/v1_VE1000_randls_6.json,http://54.235.29.9/FacialAge/BNav_EC2/DepthDuration/v2_depth_duration_MTurk/v2_DepthDuration_HTML.html#160,160,1440,757,1440,900,8-29-2022,10-40-50,79,depth_duration_stimuli/003621_2014-05-23_18-06-08_094959634447_rgbf000101-resize_1/003621_2014-05-23_18-06-08_094959634447_rgbf000101-resize_1-target.png,1000,3.9835,40,6001,999,feet,jsons/v1_VE1000_randls_6.json,1585184,1985421,47,Woman
79,199719,DepthScenes,duration_manipulation_targetAtFixation,jsons/v1_VE1000_randls_6.json,http://54.235.29.9/FacialAge/BNav_EC2/DepthDuration/v2_depth_duration_MTurk/v2_DepthDuration_HTML.html#160,160,1440,757,1440,900,8-29-2022,10-40-50,80,depth_duration_stimuli/001584_2014-06-20_11-07-43_260595134347_rgbf000002-resize_1/001584_2014-06-20_11-07-43_260595134347_rgbf000002-resize_1-target.png,1000,3.53,45,9058,1000,feet,jsons/v1_VE1000_randls_6.json,1585184,1985421,47,Woman
80,199719,DepthScenes,duration_manipulation_targetAtFixation,jsons/v1_VE1000_randls_6.json,http://54.235.29.9/FacialAge/BNav_EC2/DepthDuration/v2_depth_duration_MTurk/v2_DepthDuration_HTML.html#160,160,1440,757,1440,900,8-29-2022,10-40-50,81,depth_duration_stimuli/002375_2014-06-28_20-13-44_260595134347_rgbf000032-resize_1/002375_2014-06-28_20-13-44_260595134347_rgbf000032-resize_1-target.png,1000,4.0175,20,5547,1000,feet,jsons/v1_VE1000_randls_6.json,1585184,1985421,47,Woman
81,199719,DepthScenes,duration_manipulation_targetAtFixation,jsons/v1_VE1000_randls_6.json,http://54.235.29.9/FacialAge/BNav_EC2/DepthDuration/v2_depth_duration_MTurk/v2_DepthDuration_HTML.html#160,160,1440,757,1440,900,8-29-2022,10-40-50,82,depth_duration_stimuli/002657_2014-06-13_15-29-54_094959634447_rgbf000150-resize_1/002657_2014-06-13_15-29-54_094959634447_rgbf000150-resize_1-target.png,1000,4.919,15,7988,999,feet,jsons/v1_VE1000_randls_6.json,1585184,1985421,47,Woman
82,199719,DepthScenes,duration_manipulation_targetAtFixation,jsons/v1_VE1000_randls_6.json,http://54.235.29.9/FacialAge/BNav_EC2/DepthDuration/v2_depth_duration_MTurk/v2_DepthDuration_HTML.html#160,160,1440,757,1440,900,8-29-2022,10-40-50,83,depth_duration_stimuli/002509_2014-06-24_13-19-22_094959634447_rgbf000077-resize_0/002509_2014-06-24_13-19-22_094959634447_rgbf000077-resize_0-target.png,1000,1.3065,10,6235,1000,feet,jsons/v1_VE1000_randls_6.json,1585184,1985421,47,Woman
83,199719,DepthScenes,duration_manipulation_targetAtFixation,jsons/v1_VE1000_randls_6.json,http://54.235.29.9/FacialAge/BNav_EC2/DepthDuration/v2_depth_duration_MTurk/v2_DepthDuration_HTML.html#160,160,1440,757,1440,900,8-29-2022,10-40-50,84,depth_duration_stimuli/003338_2014-05-20_11-01-23_094959634447_rgbf000051-resize_6/003338_2014-05-20_11-01-23_094959634447_rgbf000051-resize_6-target.png,1000,1.693,15,7782,999,feet,jsons/v1_VE1000_randls_6.json,1585184,1985421,47,Woman
84,199719,DepthScenes,duration_manipulation_targetAtFixation,jsons/v1_VE1000_randls_6.json,http://54.235.29.9/FacialAge/BNav_EC2/DepthDuration/v2_depth_duration_MTurk/v2_DepthDuration_HTML.html#160,160,1440,757,1440,900,8-29-2022,10-40-50,85,depth_duration_stimuli/002549_2014-06-24_13-41-39_094959634447_rgbf000022-resize_3/002549_2014-06-24_13-41-39_094959634447_rgbf000022-resize_3-target.png,1000,1.476,28,17164,998,feet,jsons/v1_VE1000_randls_6.json,1585184,1985421,47,Woman
85,199719,DepthScenes,duration_manipulation_targetAtFixation,jsons/v1_VE1000_randls_6.json,http://54.235.29.9/FacialAge/BNav_EC2/DepthDuration/v2_depth_duration_MTurk/v2_DepthDuration_HTML.html#160,160,1440,757,1440,900,8-29-2022,10-40-50,86,depth_duration_stimuli/002750_2014-06-22_19-08-03_094959634447_rgbf000094-resize_4/002750_2014-06-22_19-08-03_094959634447_rgbf000094-resize_4-target.png,1000,2.354,30,30106,999,feet,jsons/v1_VE1000_randls_6.json,1585184,1985421,47,Woman
86,199719,DepthScenes,duration_manipulation_targetAtFixation,jsons/v1_VE1000_randls_6.json,http://54.235.29.9/FacialAge/BNav_EC2/DepthDuration/v2_depth_duration_MTurk/v2_DepthDuration_HTML.html#160,160,1440,757,1440,900,8-29-2022,10-40-50,87,depth_duration_stimuli/002057_2014-06-24_21-00-13_260595134347_rgbf000120-resize_1/002057_2014-06-24_21-00-13_260595134347_rgbf000120-resize_1-target.png,1000,2.967,45,6313,1000,feet,jsons/v1_VE1000_randls_6.json,1585184,1985421,47,Woman
87,199719,DepthScenes,duration_manipulation_targetAtFixation,jsons/v1_VE1000_randls_6.json,http://54.235.29.9/FacialAge/BNav_EC2/DepthDuration/v2_depth_duration_MTurk/v2_DepthDuration_HTML.html#160,160,1440,757,1440,900,8-29-2022,10-40-50,88,depth_duration_stimuli/000709_2014-06-08_13-51-55_260595134347_rgbf000068-resize_3/000709_2014-06-08_13-51-55_260595134347_rgbf000068-resize_3-target.png,1000,1.8030000000000002,40,5951,998,feet,jsons/v1_VE1000_randls_6.json,1585184,1985421,47,Woman
88,199719,DepthScenes,duration_manipulation_targetAtFixation,jsons/v1_VE1000_randls_6.json,http://54.235.29.9/FacialAge/BNav_EC2/DepthDuration/v2_depth_duration_MTurk/v2_DepthDuration_HTML.html#160,160,1440,757,1440,900,8-29-2022,10-40-50,89,depth_duration_stimuli/000773_2014-06-08_22-24-54_260595134347_rgbf000093-resize_1/000773_2014-06-08_22-24-54_260595134347_rgbf000093-resize_1-target.png,1000,4.973,40,9046,999,feet,jsons/v1_VE1000_randls_6.json,1585184,1985421,47,Woman
89,199719,DepthScenes,duration_manipulation_targetAtFixation,jsons/v1_VE1000_randls_6.json,http://54.235.29.9/FacialAge/BNav_EC2/DepthDuration/v2_depth_duration_MTurk/v2_DepthDuration_HTML.html#160,160,1440,757,1440,900,8-29-2022,10-40-50,90,depth_duration_stimuli/002414_2014-06-28_20-24-58_260595134347_rgbf000067-resize_4/002414_2014-06-28_20-24-58_260595134347_rgbf000067-resize_4-target.png,1000,4.363,15,9776,996,feet,jsons/v1_VE1000_randls_6.json,1585184,1985421,47,Woman
90,199719,DepthScenes,duration_manipulation_targetAtFixation,jsons/v1_VE1000_randls_6.json,http://54.235.29.9/FacialAge/BNav_EC2/DepthDuration/v2_depth_duration_MTurk/v2_DepthDuration_HTML.html#160,160,1440,757,1440,900,8-29-2022,10-40-50,91,depth_duration_stimuli/000906_2014-06-08_13-35-43_260595134347_rgbf000155-resize_1/000906_2014-06-08_13-35-43_260595134347_rgbf000155-resize_1-target.png,1000,2.8489999999999998,40,6380,999,feet,jsons/v1_VE1000_randls_6.json,1585184,1985421,47,Woman
91,199719,DepthScenes,duration_manipulation_targetAtFixation,jsons/v1_VE1000_randls_6.json,http://54.235.29.9/FacialAge/BNav_EC2/DepthDuration/v2_depth_duration_MTurk/v2_DepthDuration_HTML.html#160,160,1440,757,1440,900,8-29-2022,10-40-50,92,depth_duration_stimuli/002805_2014-06-22_19-54-03_094959634447_rgbf000079-resize_1/002805_2014-06-22_19-54-03_094959634447_rgbf000079-resize_1-target.png,1000,3.1439999999999997,15,6181,999,feet,jsons/v1_VE1000_randls_6.json,1585184,1985421,47,Woman
92,199719,DepthScenes,duration_manipulation_targetAtFixation,jsons/v1_VE1000_randls_6.json,http://54.235.29.9/FacialAge/BNav_EC2/DepthDuration/v2_depth_duration_MTurk/v2_DepthDuration_HTML.html#160,160,1440,757,1440,900,8-29-2022,10-40-50,93,depth_duration_stimuli/002570_2014-06-24_13-59-54_094959634447_rgbf000059-resize_0/002570_2014-06-24_13-59-54_094959634447_rgbf000059-resize_0-target.png,1000,4.037,40,5186,998,feet,jsons/v1_VE1000_randls_6.json,1585184,1985421,47,Woman
93,199719,DepthScenes,duration_manipulation_targetAtFixation,jsons/v1_VE1000_randls_6.json,http://54.235.29.9/FacialAge/BNav_EC2/DepthDuration/v2_depth_duration_MTurk/v2_DepthDuration_HTML.html#160,160,1440,757,1440,900,8-29-2022,10-40-50,94,depth_duration_stimuli/002467_2014-06-28_20-38-07_260595134347_rgbf000026-resize_2/002467_2014-06-28_20-38-07_260595134347_rgbf000026-resize_2-target.png,1000,4.742,15,5643,999,feet,jsons/v1_VE1000_randls_6.json,1585184,1985421,47,Woman
94,199719,DepthScenes,duration_manipulation_targetAtFixation,jsons/v1_VE1000_randls_6.json,http://54.235.29.9/FacialAge/BNav_EC2/DepthDuration/v2_depth_duration_MTurk/v2_DepthDuration_HTML.html#160,160,1440,757,1440,900,8-29-2022,10-40-50,95,depth_duration_stimuli/001806_2014-06-26_20-50-20_260595134347_rgbf000091-resize_1/001806_2014-06-26_20-50-20_260595134347_rgbf000091-resize_1-target.png,1000,2.7305,20,5866,999,feet,jsons/v1_VE1000_randls_6.json,1585184,1985421,47,Woman
95,199719,DepthScenes,duration_manipulation_targetAtFixation,jsons/v1_VE1000_randls_6.json,http://54.235.29.9/FacialAge/BNav_EC2/DepthDuration/v2_depth_duration_MTurk/v2_DepthDuration_HTML.html#160,160,1440,757,1440,900,8-29-2022,10-40-50,96,depth_duration_stimuli/001617_2014-06-20_11-35-32_260595134347_rgbf000066-resize_1/001617_2014-06-20_11-35-32_260595134347_rgbf000066-resize_1-target.png,1000,3.7910000000000004,15,75832,999,feet,jsons/v1_VE1000_randls_6.json,1585184,1985421,47,Woman
96,199719,DepthScenes,duration_manipulation_targetAtFixation,jsons/v1_VE1000_randls_6.json,http://54.235.29.9/FacialAge/BNav_EC2/DepthDuration/v2_depth_duration_MTurk/v2_DepthDuration_HTML.html#160,160,1440,757,1440,900,8-29-2022,10-40-50,97,depth_duration_stimuli/002153_2014-06-25_21-27-18_260595134347_rgbf000038-resize_5/002153_2014-06-25_21-27-18_260595134347_rgbf000038-resize_5-target.png,1000,2.505,0,8541,1000,feet,jsons/v1_VE1000_randls_6.json,1585184,1985421,47,Woman
97,199719,DepthScenes,duration_manipulation_targetAtFixation,jsons/v1_VE1000_randls_6.json,http://54.235.29.9/FacialAge/BNav_EC2/DepthDuration/v2_depth_duration_MTurk/v2_DepthDuration_HTML.html#160,160,1440,757,1440,900,8-29-2022,10-40-50,98,depth_duration_stimuli/002660_2014-06-13_15-44-18_094959634447_rgbf001878-resize_2/002660_2014-06-13_15-44-18_094959634447_rgbf001878-resize_2-target.png,1000,3.576,15,5223,999,feet,jsons/v1_VE1000_randls_6.json,1585184,1985421,47,Woman
98,199719,DepthScenes,duration_manipulation_targetAtFixation,jsons/v1_VE1000_randls_6.json,http://54.235.29.9/FacialAge/BNav_EC2/DepthDuration/v2_depth_duration_MTurk/v2_DepthDuration_HTML.html#160,160,1440,757,1440,900,8-29-2022,10-40-50,99,depth_duration_stimuli/001540_2014-06-20_17-01-05_260595134347_rgbf000086-resize_2/001540_2014-06-20_17-01-05_260595134347_rgbf000086-resize-original.jpg,1000,1.459,0,5665,1000,feet,jsons/v1_VE1000_randls_6.json,1585184,1985421,47,Woman
99,199719,DepthScenes,duration_manipulation_targetAtFixation,jsons/v1_VE1000_randls_6.json,http://54.235.29.9/FacialAge/BNav_EC2/DepthDuration/v2_depth_duration_MTurk/v2_DepthDuration_HTML.html#160,160,1440,757,1440,900,8-29-2022,10-40-50,100,depth_duration_stimuli/001055_2014-06-08_18-45-35_260595134347_rgbf000111-resize_4/001055_2014-06-08_18-45-35_260595134347_rgbf000111-resize_4-target.png,1000,2.4290000000000003,45,8035,998,feet,jsons/v1_VE1000_randls_6.json,1585184,1985421,47,Woman
100,199719,DepthScenes,duration_manipulation_targetAtFixation,jsons/v1_VE1000_randls_6.json,http://54.235.29.9/FacialAge/BNav_EC2/DepthDuration/v2_depth_duration_MTurk/v2_DepthDuration_HTML.html#160,160,1440,757,1440,900,8-29-2022,10-40-50,101,depth_duration_stimuli/000549_2014-06-08_22-10-24_260595134347_rgbf000247-resize_3/000549_2014-06-08_22-10-24_260595134347_rgbf000247-resize_3-target.png,1000,1.841,0,5063,999,feet,jsons/v1_VE1000_randls_6.json,1585184,1985421,47,Woman
101,199719,DepthScenes,duration_manipulation_targetAtFixation,jsons/v1_VE1000_randls_6.json,http://54.235.29.9/FacialAge/BNav_EC2/DepthDuration/v2_depth_duration_MTurk/v2_DepthDuration_HTML.html#160,160,1440,757,1440,900,8-29-2022,10-40-50,102,depth_duration_stimuli/000470_2014-06-09_19-42-40_260595134347_rgbf000094-resize_1/000470_2014-06-09_19-42-40_260595134347_rgbf000094-resize_1-target.png,1000,1.831,20,6333,999,feet,jsons/v1_VE1000_randls_6.json,1585184,1985421,47,Woman
102,199719,DepthScenes,duration_manipulation_targetAtFixation,jsons/v1_VE1000_randls_6.json,http://54.235.29.9/FacialAge/BNav_EC2/DepthDuration/v2_depth_duration_MTurk/v2_DepthDuration_HTML.html#160,160,1440,757,1440,900,8-29-2022,10-40-50,103,depth_duration_stimuli/000109_2014-05-14_23-41-52_260595134347_rgbf000035-resize_9/000109_2014-05-14_23-41-52_260595134347_rgbf000035-resize_9-target.png,1000,1.3545,15,6513,999,feet,jsons/v1_VE1000_randls_6.json,1585184,1985421,47,Woman
103,199719,DepthScenes,duration_manipulation_targetAtFixation,jsons/v1_VE1000_randls_6.json,http://54.235.29.9/FacialAge/BNav_EC2/DepthDuration/v2_depth_duration_MTurk/v2_DepthDuration_HTML.html#160,160,1440,757,1440,900,8-29-2022,10-40-50,104,depth_duration_stimuli/000469_2014-06-09_19-42-10_260595134347_rgbf000081-resize_1/000469_2014-06-09_19-42-10_260595134347_rgbf000081-resize_1-target.png,1000,1.652,10,6371,1000,feet,jsons/v1_VE1000_randls_6.json,1585184,1985421,47,Woman
104,199719,DepthScenes,duration_manipulation_targetAtFixation,jsons/v1_VE1000_randls_6.json,http://54.235.29.9/FacialAge/BNav_EC2/DepthDuration/v2_depth_duration_MTurk/v2_DepthDuration_HTML.html#160,160,1440,757,1440,900,8-29-2022,10-40-50,105,depth_duration_stimuli/000483_2014-06-09_20-41-45_260595134347_rgbf000116-resize_4/000483_2014-06-09_20-41-45_260595134347_rgbf000116-resize_4-target.png,1000,1.337,20,5823,998,feet,jsons/v1_VE1000_randls_6.json,1585184,1985421,47,Woman
105,199719,DepthScenes,duration_manipulation_targetAtFixation,jsons/v1_VE1000_randls_6.json,http://54.235.29.9/FacialAge/BNav_EC2/DepthDuration/v2_depth_duration_MTurk/v2_DepthDuration_HTML.html#160,160,1440,757,1440,900,8-29-2022,10-40-50,106,depth_duration_stimuli/001164_2014-06-17_15-35-46_260595134347_rgbf000085-resize_3/001164_2014-06-17_15-35-46_260595134347_rgbf000085-resize_3-target.png,1000,2.354,30,6111,1000,feet,jsons/v1_VE1000_randls_6.json,1585184,1985421,47,Woman
106,199719,DepthScenes,duration_manipulation_targetAtFixation,jsons/v1_VE1000_randls_6.json,http://54.235.29.9/FacialAge/BNav_EC2/DepthDuration/v2_depth_duration_MTurk/v2_DepthDuration_HTML.html#160,160,1440,757,1440,900,8-29-2022,10-40-50,107,depth_duration_stimuli/001136_2014-06-17_15-19-41_260595134347_rgbf000076-resize_3/001136_2014-06-17_15-19-41_260595134347_rgbf000076-resize_3-target.png,1000,1.8655,45,6037,998,feet,jsons/v1_VE1000_randls_6.json,1585184,1985421,47,Woman
107,199719,DepthScenes,duration_manipulation_targetAtFixation,jsons/v1_VE1000_randls_6.json,http://54.235.29.9/FacialAge/BNav_EC2/DepthDuration/v2_depth_duration_MTurk/v2_DepthDuration_HTML.html#160,160,1440,757,1440,900,8-29-2022,10-40-50,108,depth_duration_stimuli/003292_2014-05-14_21-53-49_094959634447_rgbf000100-resize_2/003292_2014-05-14_21-53-49_094959634447_rgbf000100-resize_2-target.png,1000,3.4815,45,7082,998,feet,jsons/v1_VE1000_randls_6.json,1585184,1985421,47,Woman
108,199719,DepthScenes,duration_manipulation_targetAtFixation,jsons/v1_VE1000_randls_6.json,http://54.235.29.9/FacialAge/BNav_EC2/DepthDuration/v2_depth_duration_MTurk/v2_DepthDuration_HTML.html#160,160,1440,757,1440,900,8-29-2022,10-40-50,109,depth_duration_stimuli/002639_2014-06-24_14-51-37_094959634447_rgbf000074-resize_4/002639_2014-06-24_14-51-37_094959634447_rgbf000074-resize_4-target.png,1000,4.0375,45,5567,1000,feet,jsons/v1_VE1000_randls_6.json,1585184,1985421,47,Woman
109,199719,DepthScenes,duration_manipulation_targetAtFixation,jsons/v1_VE1000_randls_6.json,http://54.235.29.9/FacialAge/BNav_EC2/DepthDuration/v2_depth_duration_MTurk/v2_DepthDuration_HTML.html#160,160,1440,757,1440,900,8-29-2022,10-40-50,110,depth_duration_stimuli/002725_2014-06-22_11-47-51_094959634447_rgbf000070-resize_1/002725_2014-06-22_11-47-51_094959634447_rgbf000070-resize_1-target.png,1000,2.195,40,6152,998,feet,jsons/v1_VE1000_randls_6.json,1585184,1985421,47,Woman
110,199719,DepthScenes,duration_manipulation_targetAtFixation,jsons/v1_VE1000_randls_6.json,http://54.235.29.9/FacialAge/BNav_EC2/DepthDuration/v2_depth_duration_MTurk/v2_DepthDuration_HTML.html#160,160,1440,757,1440,900,8-29-2022,10-40-50,111,depth_duration_stimuli/002344_2014-06-28_20-06-29_260595134347_rgbf000030-resize_1/002344_2014-06-28_20-06-29_260595134347_rgbf000030-resize_1-target.png,1000,1.5795,15,6163,995,feet,jsons/v1_VE1000_randls_6.json,1585184,1985421,47,Woman
111,199719,DepthScenes,duration_manipulation_targetAtFixation,jsons/v1_VE1000_randls_6.json,http://54.235.29.9/FacialAge/BNav_EC2/DepthDuration/v2_depth_duration_MTurk/v2_DepthDuration_HTML.html#160,160,1440,757,1440,900,8-29-2022,10-40-50,112,depth_duration_stimuli/000929_2014-06-09_16-33-19_260595134347_rgbf000139-resize_0/000929_2014-06-09_16-33-19_260595134347_rgbf000139-resize_0-target.png,1000,2.8680000000000003,35,8003,990,feet,jsons/v1_VE1000_randls_6.json,1585184,1985421,47,Woman
112,199719,DepthScenes,duration_manipulation_targetAtFixation,jsons/v1_VE1000_randls_6.json,http://54.235.29.9/FacialAge/BNav_EC2/DepthDuration/v2_depth_duration_MTurk/v2_DepthDuration_HTML.html#160,160,1440,757,1440,900,8-29-2022,10-40-50,113,depth_duration_stimuli/000457_2014-06-08_16-52-43_260595134347_rgbf000199-resize_1/000457_2014-06-08_16-52-43_260595134347_rgbf000199-resize_1-target.png,1000,3.6489999999999996,35,5481,997,feet,jsons/v1_VE1000_randls_6.json,1585184,1985421,47,Woman
113,199719,DepthScenes,duration_manipulation_targetAtFixation,jsons/v1_VE1000_randls_6.json,http://54.235.29.9/FacialAge/BNav_EC2/DepthDuration/v2_depth_duration_MTurk/v2_DepthDuration_HTML.html#160,160,1440,757,1440,900,8-29-2022,10-40-50,114,depth_duration_stimuli/002279_2014-06-28_18-55-32_260595134347_rgbf000040-resize_5/002279_2014-06-28_18-55-32_260595134347_rgbf000040-resize_5-target.png,1000,1.5043333333333,20,5706,998,feet,jsons/v1_VE1000_randls_6.json,1585184,1985421,47,Woman
114,199719,DepthScenes,duration_manipulation_targetAtFixation,jsons/v1_VE1000_randls_6.json,http://54.235.29.9/FacialAge/BNav_EC2/DepthDuration/v2_depth_duration_MTurk/v2_DepthDuration_HTML.html#160,160,1440,757,1440,900,8-29-2022,10-40-50,115,depth_duration_stimuli/000635_2014-06-08_16-38-42_260595134347_rgbf000106-resize_1/000635_2014-06-08_16-38-42_260595134347_rgbf000106-resize_1-target.png,1000,2.074,30,6537,987,feet,jsons/v1_VE1000_randls_6.json,1585184,1985421,47,Woman
115,199719,DepthScenes,duration_manipulation_targetAtFixation,jsons/v1_VE1000_randls_6.json,http://54.235.29.9/FacialAge/BNav_EC2/DepthDuration/v2_depth_duration_MTurk/v2_DepthDuration_HTML.html#160,160,1440,757,1440,900,8-29-2022,10-40-50,116,depth_duration_stimuli/001170_2014-06-17_15-43-44_260595134347_rgbf000096-resize_6/001170_2014-06-17_15-43-44_260595134347_rgbf000096-resize-original.jpg,1000,1.1909999999999998,0,14574,997,feet,jsons/v1_VE1000_randls_6.json,1585184,1985421,47,Woman
116,199719,DepthScenes,duration_manipulation_targetAtFixation,jsons/v1_VE1000_randls_6.json,http://54.235.29.9/FacialAge/BNav_EC2/DepthDuration/v2_depth_duration_MTurk/v2_DepthDuration_HTML.html#160,160,1440,757,1440,900,8-29-2022,10-40-50,117,depth_duration_stimuli/000692_2014-06-08_13-09-42_260595134347_rgbf000199-resize_2/000692_2014-06-08_13-09-42_260595134347_rgbf000199-resize_2-target.png,1000,3.661,0,5881,983,feet,jsons/v1_VE1000_randls_6.json,1585184,1985421,47,Woman
117,199719,DepthScenes,duration_manipulation_targetAtFixation,jsons/v1_VE1000_randls_6.json,http://54.235.29.9/FacialAge/BNav_EC2/DepthDuration/v2_depth_duration_MTurk/v2_DepthDuration_HTML.html#160,160,1440,757,1440,900,8-29-2022,10-40-50,118,depth_duration_stimuli/001094_2014-06-15_17-36-00_260595134347_rgbf000205-resize_0/001094_2014-06-15_17-36-00_260595134347_rgbf000205-resize_0-target.png,1000,4.2175,45,5368,1015,feet,jsons/v1_VE1000_randls_6.json,1585184,1985421,47,Woman
118,199719,DepthScenes,duration_manipulation_targetAtFixation,jsons/v1_VE1000_randls_6.json,http://54.235.29.9/FacialAge/BNav_EC2/DepthDuration/v2_depth_duration_MTurk/v2_DepthDuration_HTML.html#160,160,1440,757,1440,900,8-29-2022,10-40-50,119,depth_duration_stimuli/001199_2014-06-17_16-03-48_260595134347_rgbf000077-resize_0/001199_2014-06-17_16-03-48_260595134347_rgbf000077-resize_0-target.png,1000,3.4375,48,7101,1014,feet,jsons/v1_VE1000_randls_6.json,1585184,1985421,47,Woman
119,199719,DepthScenes,duration_manipulation_targetAtFixation,jsons/v1_VE1000_randls_6.json,http://54.235.29.9/FacialAge/BNav_EC2/DepthDuration/v2_depth_duration_MTurk/v2_DepthDuration_HTML.html#160,160,1440,757,1440,900,8-29-2022,10-40-50,120,depth_duration_stimuli/000502_2014-06-08_23-02-32_260595134347_rgbf000063-resize_4/000502_2014-06-08_23-02-32_260595134347_rgbf000063-resize_4-target.png,1000,2.431,25,5129,999,feet,jsons/v1_VE1000_randls_6.json,1585184,1985421,47,Woman
120,199719,DepthScenes,duration_manipulation_targetAtFixation,jsons/v1_VE1000_randls_6.json,http://54.235.29.9/FacialAge/BNav_EC2/DepthDuration/v2_depth_duration_MTurk/v2_DepthDuration_HTML.html#160,160,1440,757,1440,900,8-29-2022,10-40-50,121,depth_duration_stimuli/002788_2014-06-22_19-36-03_094959634447_rgbf000088-resize_2/002788_2014-06-22_19-36-03_094959634447_rgbf000088-resize_2-target.png,1000,1.6465,30,11396,989,feet,jsons/v1_VE1000_randls_6.json,1585184,1985421,47,Woman
121,199719,DepthScenes,duration_manipulation_targetAtFixation,jsons/v1_VE1000_randls_6.json,http://54.235.29.9/FacialAge/BNav_EC2/DepthDuration/v2_depth_duration_MTurk/v2_DepthDuration_HTML.html#160,160,1440,757,1440,900,8-29-2022,10-40-50,122,depth_duration_stimuli/000749_2014-06-08_21-55-06_260595134347_rgbf000070-resize_2/000749_2014-06-08_21-55-06_260595134347_rgbf000070-resize_2-target.png,1000,2.331,35,5168,1000,feet,jsons/v1_VE1000_randls_6.json,1585184,1985421,47,Woman
122,199719,DepthScenes,duration_manipulation_targetAtFixation,jsons/v1_VE1000_randls_6.json,http://54.235.29.9/FacialAge/BNav_EC2/DepthDuration/v2_depth_duration_MTurk/v2_DepthDuration_HTML.html#160,160,1440,757,1440,900,8-29-2022,10-40-50,123,depth_duration_stimuli/001092_2014-06-15_17-34-58_260595134347_rgbf000171-resize_3/001092_2014-06-15_17-34-58_260595134347_rgbf000171-resize_3-target.png,1000,2.6935,38,5831,999,feet,jsons/v1_VE1000_randls_6.json,1585184,1985421,47,Woman
123,199719,DepthScenes,duration_manipulation_targetAtFixation,jsons/v1_VE1000_randls_6.json,http://54.235.29.9/FacialAge/BNav_EC2/DepthDuration/v2_depth_duration_MTurk/v2_DepthDuration_HTML.html#160,160,1440,757,1440,900,8-29-2022,10-40-50,124,depth_duration_stimuli/002545_2014-06-24_13-38-53_094959634447_rgbf000080-resize_4/002545_2014-06-24_13-38-53_094959634447_rgbf000080-resize_4-target.png,1000,1.9205,42,6520,989,feet,jsons/v1_VE1000_randls_6.json,1585184,1985421,47,Woman
124,199719,DepthScenes,duration_manipulation_targetAtFixation,jsons/v1_VE1000_randls_6.json,http://54.235.29.9/FacialAge/BNav_EC2/DepthDuration/v2_depth_duration_MTurk/v2_DepthDuration_HTML.html#160,160,1440,757,1440,900,8-29-2022,10-40-50,125,depth_duration_stimuli/002989_2014-06-15_12-25-03_094959634447_rgbf000150-resize_3/002989_2014-06-15_12-25-03_094959634447_rgbf000150-resize_3-target.png,1000,4.1975,45,6312,1009,feet,jsons/v1_VE1000_randls_6.json,1585184,1985421,47,Woman
125,199719,DepthScenes,duration_manipulation_targetAtFixation,jsons/v1_VE1000_randls_6.json,http://54.235.29.9/FacialAge/BNav_EC2/DepthDuration/v2_depth_duration_MTurk/v2_DepthDuration_HTML.html#160,160,1440,757,1440,900,8-29-2022,10-40-50,126,depth_duration_stimuli/000866_2014-06-09_20-45-42_260595134347_rgbf000139-resize_1/000866_2014-06-09_20-45-42_260595134347_rgbf000139-resize_1-target.png,1000,3.2155,40,10782,999,feet,jsons/v1_VE1000_randls_6.json,1585184,1985421,47,Woman
126,199719,DepthScenes,duration_manipulation_targetAtFixation,jsons/v1_VE1000_randls_6.json,http://54.235.29.9/FacialAge/BNav_EC2/DepthDuration/v2_depth_duration_MTurk/v2_DepthDuration_HTML.html#160,160,1440,757,1440,900,8-29-2022,10-40-50,127,depth_duration_stimuli/000878_2014-06-08_22-52-45_260595134347_rgbf000045-resize_2/000878_2014-06-08_22-52-45_260595134347_rgbf000045-resize_2-target.png,1000,2.092,0,6687,1012,feet,jsons/v1_VE1000_randls_6.json,1585184,1985421,47,Woman
127,199719,DepthScenes,duration_manipulation_targetAtFixation,jsons/v1_VE1000_randls_6.json,http://54.235.29.9/FacialAge/BNav_EC2/DepthDuration/v2_depth_duration_MTurk/v2_DepthDuration_HTML.html#160,160,1440,757,1440,900,8-29-2022,10-40-50,128,depth_duration_stimuli/002953_2014-06-08_17-32-18_094959634447_rgbf000059-resize_5/002953_2014-06-08_17-32-18_094959634447_rgbf000059-resize_5-target.png,1000,1.551,15,5537,998,feet,jsons/v1_VE1000_randls_6.json,1585184,1985421,47,Woman
128,199719,DepthScenes,duration_manipulation_targetAtFixation,jsons/v1_VE1000_randls_6.json,http://54.235.29.9/FacialAge/BNav_EC2/DepthDuration/v2_depth_duration_MTurk/v2_DepthDuration_HTML.html#160,160,1440,757,1440,900,8-29-2022,10-40-50,129,depth_duration_stimuli/000447_2014-06-08_16-15-46_260595134347_rgbf000130-resize_1/000447_2014-06-08_16-15-46_260595134347_rgbf000130-resize_1-target.png,1000,4.479,30,5584,1000,feet,jsons/v1_VE1000_randls_6.json,1585184,1985421,47,Woman
129,199719,DepthScenes,duration_manipulation_targetAtFixation,jsons/v1_VE1000_randls_6.json,http://54.235.29.9/FacialAge/BNav_EC2/DepthDuration/v2_depth_duration_MTurk/v2_DepthDuration_HTML.html#160,160,1440,757,1440,900,8-29-2022,10-40-50,130,depth_duration_stimuli/001447_2014-06-19_17-00-32_260595134347_rgbf000082-resize_5/001447_2014-06-19_17-00-32_260595134347_rgbf000082-resize_5-target.png,1000,4.13775,35,5169,998,feet,jsons/v1_VE1000_randls_6.json,1585184,1985421,47,Woman
130,199719,DepthScenes,duration_manipulation_targetAtFixation,jsons/v1_VE1000_randls_6.json,http://54.235.29.9/FacialAge/BNav_EC2/DepthDuration/v2_depth_duration_MTurk/v2_DepthDuration_HTML.html#160,160,1440,757,1440,900,8-29-2022,10-40-50,131,depth_duration_stimuli/000493_2014-06-09_21-01-18_260595134347_rgbf000196-resize_3/000493_2014-06-09_21-01-18_260595134347_rgbf000196-resize_3-target.png,1000,3.44,38,5972,998,feet,jsons/v1_VE1000_randls_6.json,1585184,1985421,47,Woman
131,199719,DepthScenes,duration_manipulation_targetAtFixation,jsons/v1_VE1000_randls_6.json,http://54.235.29.9/FacialAge/BNav_EC2/DepthDuration/v2_depth_duration_MTurk/v2_DepthDuration_HTML.html#160,160,1440,757,1440,900,8-29-2022,10-40-50,132,depth_duration_stimuli/000191_2014-05-12_17-07-38_260595134347_rgbf000199-resize_0/000191_2014-05-12_17-07-38_260595134347_rgbf000199-resize_0-target.png,1000,3.7995,41,6445,1000,feet,jsons/v1_VE1000_randls_6.json,1585184,1985421,47,Woman
132,199719,DepthScenes,duration_manipulation_targetAtFixation,jsons/v1_VE1000_randls_6.json,http://54.235.29.9/FacialAge/BNav_EC2/DepthDuration/v2_depth_duration_MTurk/v2_DepthDuration_HTML.html#160,160,1440,757,1440,900,8-29-2022,10-40-50,133,depth_duration_stimuli/001059_2014-06-08_21-53-27_260595134347_rgbf000061-resize_4/001059_2014-06-08_21-53-27_260595134347_rgbf000061-resize_4-target.png,1000,2.4185,38,6847,999,feet,jsons/v1_VE1000_randls_6.json,1585184,1985421,47,Woman
133,199719,DepthScenes,duration_manipulation_targetAtFixation,jsons/v1_VE1000_randls_6.json,http://54.235.29.9/FacialAge/BNav_EC2/DepthDuration/v2_depth_duration_MTurk/v2_DepthDuration_HTML.html#160,160,1440,757,1440,900,8-29-2022,10-40-50,134,depth_duration_stimuli/001032_2014-06-08_13-23-17_260595134347_rgbf000021-resize_3/001032_2014-06-08_13-23-17_260595134347_rgbf000021-resize_3-target.png,1000,3.2725,30,5492,1000,feet,jsons/v1_VE1000_randls_6.json,1585184,1985421,47,Woman
134,199719,DepthScenes,duration_manipulation_targetAtFixation,jsons/v1_VE1000_randls_6.json,http://54.235.29.9/FacialAge/BNav_EC2/DepthDuration/v2_depth_duration_MTurk/v2_DepthDuration_HTML.html#160,160,1440,757,1440,900,8-29-2022,10-40-50,135,depth_duration_stimuli/002072_2014-06-24_21-48-06_260595134347_rgbf000115-resize_0/002072_2014-06-24_21-48-06_260595134347_rgbf000115-resize-original.jpg,1000,4.702,0,9142,998,feet,jsons/v1_VE1000_randls_6.json,1585184,1985421,47,Woman
135,199719,DepthScenes,duration_manipulation_targetAtFixation,jsons/v1_VE1000_randls_6.json,http://54.235.29.9/FacialAge/BNav_EC2/DepthDuration/v2_depth_duration_MTurk/v2_DepthDuration_HTML.html#160,160,1440,757,1440,900,8-29-2022,10-40-50,136,depth_duration_stimuli/001066_2014-06-08_22-03-20_260595134347_rgbf000066-resize_4/001066_2014-06-08_22-03-20_260595134347_rgbf000066-resize_4-target.png,1000,4.2330000000000005,45,9475,1000,feet,jsons/v1_VE1000_randls_6.json,1585184,1985421,47,Woman
136,199719,DepthScenes,duration_manipulation_targetAtFixation,jsons/v1_VE1000_randls_6.json,http://54.235.29.9/FacialAge/BNav_EC2/DepthDuration/v2_depth_duration_MTurk/v2_DepthDuration_HTML.html#160,160,1440,757,1440,900,8-29-2022,10-40-50,137,depth_duration_stimuli/000742_2014-06-08_18-48-09_260595134347_rgbf000164-resize_4/000742_2014-06-08_18-48-09_260595134347_rgbf000164-resize_4-target.png,1000,4.632,43,7975,998,feet,jsons/v1_VE1000_randls_6.json,1585184,1985421,47,Woman
137,199719,DepthScenes,duration_manipulation_targetAtFixation,jsons/v1_VE1000_randls_6.json,http://54.235.29.9/FacialAge/BNav_EC2/DepthDuration/v2_depth_duration_MTurk/v2_DepthDuration_HTML.html#160,160,1440,757,1440,900,8-29-2022,10-40-50,138,depth_duration_stimuli/001056_2014-06-08_18-46-44_260595134347_rgbf000068-resize_0/001056_2014-06-08_18-46-44_260595134347_rgbf000068-resize_0-target.png,1000,2.6625,45,10470,990,feet,jsons/v1_VE1000_randls_6.json,1585184,1985421,47,Woman
138,199719,DepthScenes,duration_manipulation_targetAtFixation,jsons/v1_VE1000_randls_6.json,http://54.235.29.9/FacialAge/BNav_EC2/DepthDuration/v2_depth_duration_MTurk/v2_DepthDuration_HTML.html#160,160,1440,757,1440,900,8-29-2022,10-40-50,139,depth_duration_stimuli/002199_2014-06-28_18-33-56_260595134347_rgbf000074-resize_0/002199_2014-06-28_18-33-56_260595134347_rgbf000074-resize_0-target.png,1000,1.996,15,5686,999,feet,jsons/v1_VE1000_randls_6.json,1585184,1985421,47,Woman
139,199719,DepthScenes,duration_manipulation_targetAtFixation,jsons/v1_VE1000_randls_6.json,http://54.235.29.9/FacialAge/BNav_EC2/DepthDuration/v2_depth_duration_MTurk/v2_DepthDuration_HTML.html#160,160,1440,757,1440,900,8-29-2022,10-40-50,140,depth_duration_stimuli/000436_2014-06-09_22-25-11_260595134347_rgbf000137-resize_1/000436_2014-06-09_22-25-11_260595134347_rgbf000137-resize_1-target.png,1000,4.0705,35,7219,998,feet,jsons/v1_VE1000_randls_6.json,1585184,1985421,47,Woman
140,199719,DepthScenes,duration_manipulation_targetAtFixation,jsons/v1_VE1000_randls_6.json,http://54.235.29.9/FacialAge/BNav_EC2/DepthDuration/v2_depth_duration_MTurk/v2_DepthDuration_HTML.html#160,160,1440,757,1440,900,8-29-2022,10-40-50,141,depth_duration_stimuli/002444_2014-06-28_20-32-08_260595134347_rgbf000027-resize_0/002444_2014-06-28_20-32-08_260595134347_rgbf000027-resize_0-target.png,1000,4.388999999999999,32,5759,1014,feet,jsons/v1_VE1000_randls_6.json,1585184,1985421,47,Woman
141,199719,DepthScenes,duration_manipulation_targetAtFixation,jsons/v1_VE1000_randls_6.json,http://54.235.29.9/FacialAge/BNav_EC2/DepthDuration/v2_depth_duration_MTurk/v2_DepthDuration_HTML.html#160,160,1440,757,1440,900,8-29-2022,10-40-50,142,depth_duration_stimuli/001158_2014-06-17_15-32-16_260595134347_rgbf000138-resize_2/001158_2014-06-17_15-32-16_260595134347_rgbf000138-resize_2-target.png,1000,4.5315,35,7111,998,feet,jsons/v1_VE1000_randls_6.json,1585184,1985421,47,Woman
142,199719,DepthScenes,duration_manipulation_targetAtFixation,jsons/v1_VE1000_randls_6.json,http://54.235.29.9/FacialAge/BNav_EC2/DepthDuration/v2_depth_duration_MTurk/v2_DepthDuration_HTML.html#160,160,1440,757,1440,900,8-29-2022,10-40-50,143,depth_duration_stimuli/000556_2014-06-09_22-42-56_260595134347_rgbf000214-resize_1/000556_2014-06-09_22-42-56_260595134347_rgbf000214-resize_1-target.png,1000,4.8415,30,5916,1000,feet,jsons/v1_VE1000_randls_6.json,1585184,1985421,47,Woman
143,199719,DepthScenes,duration_manipulation_targetAtFixation,jsons/v1_VE1000_randls_6.json,http://54.235.29.9/FacialAge/BNav_EC2/DepthDuration/v2_depth_duration_MTurk/v2_DepthDuration_HTML.html#160,160,1440,757,1440,900,8-29-2022,10-40-50,144,depth_duration_stimuli/001808_2014-06-26_20-50-58_260595134347_rgbf000029-resize_1/001808_2014-06-26_20-50-58_260595134347_rgbf000029-resize_1-target.png,1000,4.249,35,6298,998,feet,jsons/v1_VE1000_randls_6.json,1585184,1985421,47,Woman
144,199719,DepthScenes,duration_manipulation_targetAtFixation,jsons/v1_VE1000_randls_6.json,http://54.235.29.9/FacialAge/BNav_EC2/DepthDuration/v2_depth_duration_MTurk/v2_DepthDuration_HTML.html#160,160,1440,757,1440,900,8-29-2022,10-40-50,145,depth_duration_stimuli/001815_2014-06-26_20-52-55_260595134347_rgbf000020-resize_0/001815_2014-06-26_20-52-55_260595134347_rgbf000020-resize_0-target.png,1000,3.3865,40,6792,982,feet,jsons/v1_VE1000_randls_6.json,1585184,1985421,47,Woman
145,199719,DepthScenes,duration_manipulation_targetAtFixation,jsons/v1_VE1000_randls_6.json,http://54.235.29.9/FacialAge/BNav_EC2/DepthDuration/v2_depth_duration_MTurk/v2_DepthDuration_HTML.html#160,160,1440,757,1440,900,8-29-2022,10-40-50,146,depth_duration_stimuli/001498_2014-06-19_17-45-14_260595134347_rgbf000129-resize_4/001498_2014-06-19_17-45-14_260595134347_rgbf000129-resize-original.jpg,1000,1.4075,0,5821,998,feet,jsons/v1_VE1000_randls_6.json,1585184,1985421,47,Woman
146,199719,DepthScenes,duration_manipulation_targetAtFixation,jsons/v1_VE1000_randls_6.json,http://54.235.29.9/FacialAge/BNav_EC2/DepthDuration/v2_depth_duration_MTurk/v2_DepthDuration_HTML.html#160,160,1440,757,1440,900,8-29-2022,10-40-50,147,depth_duration_stimuli/000682_2014-06-08_23-14-58_260595134347_rgbf000041-resize_5/000682_2014-06-08_23-14-58_260595134347_rgbf000041-resize_5-target.png,1000,2.7239999999999998,15,6807,1000,feet,jsons/v1_VE1000_randls_6.json,1585184,1985421,47,Woman
147,199719,DepthScenes,duration_manipulation_targetAtFixation,jsons/v1_VE1000_randls_6.json,http://54.235.29.9/FacialAge/BNav_EC2/DepthDuration/v2_depth_duration_MTurk/v2_DepthDuration_HTML.html#160,160,1440,757,1440,900,8-29-2022,10-40-50,148,depth_duration_stimuli/001650_2014-06-20_12-09-00_260595134347_rgbf000087-resize_3/001650_2014-06-20_12-09-00_260595134347_rgbf000087-resize_3-target.png,1000,1.9505,10,5794,1000,feet,jsons/v1_VE1000_randls_6.json,1585184,1985421,47,Woman
148,199719,DepthScenes,duration_manipulation_targetAtFixation,jsons/v1_VE1000_randls_6.json,http://54.235.29.9/FacialAge/BNav_EC2/DepthDuration/v2_depth_duration_MTurk/v2_DepthDuration_HTML.html#160,160,1440,757,1440,900,8-29-2022,10-40-50,149,depth_duration_stimuli/000758_2014-06-08_22-05-08_260595134347_rgbf000085-resize_0/000758_2014-06-08_22-05-08_260595134347_rgbf000085-resize_0-target.png,1000,3.3810000000000002,10,6814,993,feet,jsons/v1_VE1000_randls_6.json,1585184,1985421,47,Woman
149,199719,DepthScenes,duration_manipulation_targetAtFixation,jsons/v1_VE1000_randls_6.json,http://54.235.29.9/FacialAge/BNav_EC2/DepthDuration/v2_depth_duration_MTurk/v2_DepthDuration_HTML.html#160,160,1440,757,1440,900,8-29-2022,10-40-50,150,depth_duration_stimuli/000854_2014-06-09_19-43-13_260595134347_rgbf000066-resize_0/000854_2014-06-09_19-43-13_260595134347_rgbf000066-resize_0-target.png,1000,3.068,25,6443,999,feet,jsons/v1_VE1000_randls_6.json,1585184,1985421,47,Woman
150,199719,DepthScenes,duration_manipulation_targetAtFixation,jsons/v1_VE1000_randls_6.json,http://54.235.29.9/FacialAge/BNav_EC2/DepthDuration/v2_depth_duration_MTurk/v2_DepthDuration_HTML.html#160,160,1440,757,1440,900,8-29-2022,10-40-50,151,depth_duration_stimuli/002600_2014-06-24_14-27-04_094959634447_rgbf000074-resize_2/002600_2014-06-24_14-27-04_094959634447_rgbf000074-resize_2-target.png,1000,2.7575,20,10794,999,feet,jsons/v1_VE1000_randls_6.json,1585184,1985421,47,Woman
151,199719,DepthScenes,duration_manipulation_targetAtFixation,jsons/v1_VE1000_randls_6.json,http://54.235.29.9/FacialAge/BNav_EC2/DepthDuration/v2_depth_duration_MTurk/v2_DepthDuration_HTML.html#160,160,1440,757,1440,900,8-29-2022,10-40-50,152,depth_duration_stimuli/003228_2014-05-14_13-42-35_094959634447_rgbf000101-resize_1/003228_2014-05-14_13-42-35_094959634447_rgbf000101-resize_1-target.png,1000,1.9680000000000002,15,6584,1000,feet,jsons/v1_VE1000_randls_6.json,1585184,1985421,47,Woman
152,199719,DepthScenes,duration_manipulation_targetAtFixation,jsons/v1_VE1000_randls_6.json,http://54.235.29.9/FacialAge/BNav_EC2/DepthDuration/v2_depth_duration_MTurk/v2_DepthDuration_HTML.html#160,160,1440,757,1440,900,8-29-2022,10-40-50,153,depth_duration_stimuli/001016_2014-06-09_16-16-10_260595134347_rgbf000112-resize_5/001016_2014-06-09_16-16-10_260595134347_rgbf000112-resize_5-target.png,1000,1.6565,10,18718,1000,feet,jsons/v1_VE1000_randls_6.json,1585184,1985421,47,Woman
153,199719,DepthScenes,duration_manipulation_targetAtFixation,jsons/v1_VE1000_randls_6.json,http://54.235.29.9/FacialAge/BNav_EC2/DepthDuration/v2_depth_duration_MTurk/v2_DepthDuration_HTML.html#160,160,1440,757,1440,900,8-29-2022,10-40-50,154,depth_duration_stimuli/002340_2014-06-28_20-05-46_260595134347_rgbf000113-resize_0/002340_2014-06-28_20-05-46_260595134347_rgbf000113-resize_0-target.png,1000,2.4735,15,5612,999,feet,jsons/v1_VE1000_randls_6.json,1585184,1985421,47,Woman
154,199719,DepthScenes,duration_manipulation_targetAtFixation,jsons/v1_VE1000_randls_6.json,http://54.235.29.9/FacialAge/BNav_EC2/DepthDuration/v2_depth_duration_MTurk/v2_DepthDuration_HTML.html#160,160,1440,757,1440,900,8-29-2022,10-40-50,155,depth_duration_stimuli/002118_2014-06-25_20-32-08_260595134347_rgbf000078-resize_1/002118_2014-06-25_20-32-08_260595134347_rgbf000078-resize_1-target.png,1000,2.6460000000000004,20,5838,1000,feet,jsons/v1_VE1000_randls_6.json,1585184,1985421,47,Woman
155,199719,DepthScenes,duration_manipulation_targetAtFixation,jsons/v1_VE1000_randls_6.json,http://54.235.29.9/FacialAge/BNav_EC2/DepthDuration/v2_depth_duration_MTurk/v2_DepthDuration_HTML.html#160,160,1440,757,1440,900,8-29-2022,10-40-50,156,depth_duration_stimuli/001516_2014-06-20_16-25-09_260595134347_rgbf000076-resize_2/001516_2014-06-20_16-25-09_260595134347_rgbf000076-resize_2-target.png,1000,1.7445,30,5130,998,feet,jsons/v1_VE1000_randls_6.json,1585184,1985421,47,Woman
156,199719,DepthScenes,duration_manipulation_targetAtFixation,jsons/v1_VE1000_randls_6.json,http://54.235.29.9/FacialAge/BNav_EC2/DepthDuration/v2_depth_duration_MTurk/v2_DepthDuration_HTML.html#160,160,1440,757,1440,900,8-29-2022,10-40-50,157,depth_duration_stimuli/001167_2014-06-17_15-38-07_260595134347_rgbf000108-resize_0/001167_2014-06-17_15-38-07_260595134347_rgbf000108-resize_0-target.png,1000,1.8505,35,9592,999,feet,jsons/v1_VE1000_randls_6.json,1585184,1985421,47,Woman
157,199719,DepthScenes,duration_manipulation_targetAtFixation,jsons/v1_VE1000_randls_6.json,http://54.235.29.9/FacialAge/BNav_EC2/DepthDuration/v2_depth_duration_MTurk/v2_DepthDuration_HTML.html#160,160,1440,757,1440,900,8-29-2022,10-40-50,158,depth_duration_stimuli/003587_2014-05-23_16-48-02_094959634447_rgbf002384-resize_2/003587_2014-05-23_16-48-02_094959634447_rgbf002384-resize_2-target.png,1000,1.357,15,5903,1010,feet,jsons/v1_VE1000_randls_6.json,1585184,1985421,47,Woman
158,199719,DepthScenes,duration_manipulation_targetAtFixation,jsons/v1_VE1000_randls_6.json,http://54.235.29.9/FacialAge/BNav_EC2/DepthDuration/v2_depth_duration_MTurk/v2_DepthDuration_HTML.html#160,160,1440,757,1440,900,8-29-2022,10-40-50,159,depth_duration_stimuli/000486_2014-06-09_20-47-20_260595134347_rgbf000143-resize_2/000486_2014-06-09_20-47-20_260595134347_rgbf000143-resize_2-target.png,1000,4.8325,25,5064,987,feet,jsons/v1_VE1000_randls_6.json,1585184,1985421,47,Woman
159,199719,DepthScenes,duration_manipulation_targetAtFixation,jsons/v1_VE1000_randls_6.json,http://54.235.29.9/FacialAge/BNav_EC2/DepthDuration/v2_depth_duration_MTurk/v2_DepthDuration_HTML.html#160,160,1440,757,1440,900,8-29-2022,10-40-50,160,depth_duration_stimuli/003083_2014-06-15_15-21-03_094959634447_rgbf000063-resize_1/003083_2014-06-15_15-21-03_094959634447_rgbf000063-resize_1-target.png,1000,4.1405,30,5594,999,feet,jsons/v1_VE1000_randls_6.json,1585184,1985421,47,Woman
160,199719,DepthScenes,duration_manipulation_targetAtFixation,jsons/v1_VE1000_randls_6.json,http://54.235.29.9/FacialAge/BNav_EC2/DepthDuration/v2_depth_duration_MTurk/v2_DepthDuration_HTML.html#160,160,1440,757,1440,900,8-29-2022,10-40-50,161,depth_duration_stimuli/000522_2014-06-08_13-35-06_260595134347_rgbf000244-resize_1/000522_2014-06-08_13-35-06_260595134347_rgbf000244-resize_1-target.png,1000,2.3715,20,5985,1026,feet,jsons/v1_VE1000_randls_6.json,1585184,1985421,47,Woman
161,199719,DepthScenes,duration_manipulation_targetAtFixation,jsons/v1_VE1000_randls_6.json,http://54.235.29.9/FacialAge/BNav_EC2/DepthDuration/v2_depth_duration_MTurk/v2_DepthDuration_HTML.html#160,160,1440,757,1440,900,8-29-2022,10-40-50,162,depth_duration_stimuli/002949_2014-06-26_15-57-42_094959634447_rgbf000079-resize_1/002949_2014-06-26_15-57-42_094959634447_rgbf000079-resize_1-target.png,1000,1.8915,15,5557,988,feet,jsons/v1_VE1000_randls_6.json,1585184,1985421,47,Woman
162,199719,DepthScenes,duration_manipulation_targetAtFixation,jsons/v1_VE1000_randls_6.json,http://54.235.29.9/FacialAge/BNav_EC2/DepthDuration/v2_depth_duration_MTurk/v2_DepthDuration_HTML.html#160,160,1440,757,1440,900,8-29-2022,10-40-50,163,depth_duration_stimuli/001133_2014-06-17_14-49-16_260595134347_rgbf000100-resize_0/001133_2014-06-17_14-49-16_260595134347_rgbf000100-resize_0-target.png,1000,4.2115,35,4792,1004,feet,jsons/v1_VE1000_randls_6.json,1585184,1985421,47,Woman
163,199719,DepthScenes,duration_manipulation_targetAtFixation,jsons/v1_VE1000_randls_6.json,http://54.235.29.9/FacialAge/BNav_EC2/DepthDuration/v2_depth_duration_MTurk/v2_DepthDuration_HTML.html#160,160,1440,757,1440,900,8-29-2022,10-40-50,164,depth_duration_stimuli/001132_2014-06-17_14-48-54_260595134347_rgbf000100-resize_2/001132_2014-06-17_14-48-54_260595134347_rgbf000100-resize_2-target.png,1000,3.753,39,7595,1007,feet,jsons/v1_VE1000_randls_6.json,1585184,1985421,47,Woman
