,subjID,experimentName,versionName,sequenceName,url,selected_row,windowWidth,windowHeight,screenWidth,screenHeight,startDate,startTime,trial,stimulus,duration,actual_depth,depth_estimate,trial_RT,log_sceneDuration,unitSelection,seq_filepath,experimentTime,totalTime,age,gender
0,200140,DepthScenes,duration_manipulation_targetAtFixation,jsons/v1_VE250_randls_56_rotated.json,http://54.235.29.9/FacialAge/BNav_EC2/DepthDuration/v2_depth_duration_MTurk/v2_DepthDuration_HTML.html#125,125,1197,1148,1920,1080,8-20-2022,10-10-45,1,depth_duration_stimuli/002805_2014-06-22_19-54-03_094959634447_rgbf000079-resize_1/002805_2014-06-22_19-54-03_094959634447_rgbf000079-resize_1-target.png,250,3.1439999999999997,5,6932,250,feet,jsons/v1_VE250_randls_56_rotated.json,642779,983791,30,Man
1,200140,DepthScenes,duration_manipulation_targetAtFixation,jsons/v1_VE250_randls_56_rotated.json,http://54.235.29.9/FacialAge/BNav_EC2/DepthDuration/v2_depth_duration_MTurk/v2_DepthDuration_HTML.html#125,125,1197,1148,1920,1080,8-20-2022,10-10-45,2,depth_duration_stimuli/000906_2014-06-08_13-35-43_260595134347_rgbf000155-resize_1/000906_2014-06-08_13-35-43_260595134347_rgbf000155-resize_1-target.png,250,2.8489999999999998,6,1941,262,feet,jsons/v1_VE250_randls_56_rotated.json,642779,983791,30,Man
2,200140,DepthScenes,duration_manipulation_targetAtFixation,jsons/v1_VE250_randls_56_rotated.json,http://54.235.29.9/FacialAge/BNav_EC2/DepthDuration/v2_depth_duration_MTurk/v2_DepthDuration_HTML.html#125,125,1197,1148,1920,1080,8-20-2022,10-10-45,3,depth_duration_stimuli/002637_2014-06-24_14-51-13_094959634447_rgbf000066-resize_4/002637_2014-06-24_14-51-13_094959634447_rgbf000066-resize_4-target.png,250,1.9955,3,1804,260,feet,jsons/v1_VE250_randls_56_rotated.json,642779,983791,30,Man
3,200140,DepthScenes,duration_manipulation_targetAtFixation,jsons/v1_VE250_randls_56_rotated.json,http://54.235.29.9/FacialAge/BNav_EC2/DepthDuration/v2_depth_duration_MTurk/v2_DepthDuration_HTML.html#125,125,1197,1148,1920,1080,8-20-2022,10-10-45,4,depth_duration_stimuli/003534_2014-05-22_15-06-10_094959634447_rgbf000102-resize_4/003534_2014-05-22_15-06-10_094959634447_rgbf000102-resize_4-target.png,250,1.426,3,1733,252,feet,jsons/v1_VE250_randls_56_rotated.json,642779,983791,30,Man
4,200140,DepthScenes,duration_manipulation_targetAtFixation,jsons/v1_VE250_randls_56_rotated.json,http://54.235.29.9/FacialAge/BNav_EC2/DepthDuration/v2_depth_duration_MTurk/v2_DepthDuration_HTML.html#125,125,1197,1148,1920,1080,8-20-2022,10-10-45,5,depth_duration_stimuli/001214_2014-06-17_16-13-55_260595134347_rgbf000111-resize_0/001214_2014-06-17_16-13-55_260595134347_rgbf000111-resize_0-target.png,250,2.6505,3,1539,249,feet,jsons/v1_VE250_randls_56_rotated.json,642779,983791,30,Man
5,200140,DepthScenes,duration_manipulation_targetAtFixation,jsons/v1_VE250_randls_56_rotated.json,http://54.235.29.9/FacialAge/BNav_EC2/DepthDuration/v2_depth_duration_MTurk/v2_DepthDuration_HTML.html#125,125,1197,1148,1920,1080,8-20-2022,10-10-45,6,depth_duration_stimuli/000810_2014-06-08_17-20-01_260595134347_rgbf000105-resize_0/000810_2014-06-08_17-20-01_260595134347_rgbf000105-resize_0-target.png,250,1.4865,4,1652,247,feet,jsons/v1_VE250_randls_56_rotated.json,642779,983791,30,Man
6,200140,DepthScenes,duration_manipulation_targetAtFixation,jsons/v1_VE250_randls_56_rotated.json,http://54.235.29.9/FacialAge/BNav_EC2/DepthDuration/v2_depth_duration_MTurk/v2_DepthDuration_HTML.html#125,125,1197,1148,1920,1080,8-20-2022,10-10-45,7,depth_duration_stimuli/003081_2014-06-15_15-19-16_094959634447_rgbf000150-resize_1/003081_2014-06-15_15-19-16_094959634447_rgbf000150-resize_1-target.png,250,3.9125,6,1901,257,feet,jsons/v1_VE250_randls_56_rotated.json,642779,983791,30,Man
7,200140,DepthScenes,duration_manipulation_targetAtFixation,jsons/v1_VE250_randls_56_rotated.json,http://54.235.29.9/FacialAge/BNav_EC2/DepthDuration/v2_depth_duration_MTurk/v2_DepthDuration_HTML.html#125,125,1197,1148,1920,1080,8-20-2022,10-10-45,8,depth_duration_stimuli/001417_2014-06-19_16-25-36_260595134347_rgbf000115-resize_5/001417_2014-06-19_16-25-36_260595134347_rgbf000115-resize_5-target.png,250,4.6255,5,1701,246,feet,jsons/v1_VE250_randls_56_rotated.json,642779,983791,30,Man
8,200140,DepthScenes,duration_manipulation_targetAtFixation,jsons/v1_VE250_randls_56_rotated.json,http://54.235.29.9/FacialAge/BNav_EC2/DepthDuration/v2_depth_duration_MTurk/v2_DepthDuration_HTML.html#125,125,1197,1148,1920,1080,8-20-2022,10-10-45,9,depth_duration_stimuli/002678_2014-06-13_16-15-32_094959634447_rgbf000151-resize_6/002678_2014-06-13_16-15-32_094959634447_rgbf000151-resize_6-target.png,250,2.1830000000000003,4,1668,250,feet,jsons/v1_VE250_randls_56_rotated.json,642779,983791,30,Man
9,200140,DepthScenes,duration_manipulation_targetAtFixation,jsons/v1_VE250_randls_56_rotated.json,http://54.235.29.9/FacialAge/BNav_EC2/DepthDuration/v2_depth_duration_MTurk/v2_DepthDuration_HTML.html#125,125,1197,1148,1920,1080,8-20-2022,10-10-45,10,depth_duration_stimuli/000368_2014-06-09_15-53-01_260595134347_rgbf000155-resize_2/000368_2014-06-09_15-53-01_260595134347_rgbf000155-resize_2-target.png,250,2.4859999999999998,4,23759,245,feet,jsons/v1_VE250_randls_56_rotated.json,642779,983791,30,Man
10,200140,DepthScenes,duration_manipulation_targetAtFixation,jsons/v1_VE250_randls_56_rotated.json,http://54.235.29.9/FacialAge/BNav_EC2/DepthDuration/v2_depth_duration_MTurk/v2_DepthDuration_HTML.html#125,125,1197,1148,1920,1080,8-20-2022,10-10-45,11,depth_duration_stimuli/001815_2014-06-26_20-52-55_260595134347_rgbf000020-resize_0/001815_2014-06-26_20-52-55_260595134347_rgbf000020-resize_0-target.png,250,3.3865,4,1735,248,feet,jsons/v1_VE250_randls_56_rotated.json,642779,983791,30,Man
11,200140,DepthScenes,duration_manipulation_targetAtFixation,jsons/v1_VE250_randls_56_rotated.json,http://54.235.29.9/FacialAge/BNav_EC2/DepthDuration/v2_depth_duration_MTurk/v2_DepthDuration_HTML.html#125,125,1197,1148,1920,1080,8-20-2022,10-10-45,12,depth_duration_stimuli/001808_2014-06-26_20-50-58_260595134347_rgbf000029-resize_1/001808_2014-06-26_20-50-58_260595134347_rgbf000029-resize_1-target.png,250,4.249,5,1428,263,feet,jsons/v1_VE250_randls_56_rotated.json,642779,983791,30,Man
12,200140,DepthScenes,duration_manipulation_targetAtFixation,jsons/v1_VE250_randls_56_rotated.json,http://54.235.29.9/FacialAge/BNav_EC2/DepthDuration/v2_depth_duration_MTurk/v2_DepthDuration_HTML.html#125,125,1197,1148,1920,1080,8-20-2022,10-10-45,13,depth_duration_stimuli/003338_2014-05-20_11-01-23_094959634447_rgbf000051-resize_6/003338_2014-05-20_11-01-23_094959634447_rgbf000051-resize_6-target.png,250,1.693,4,4852,249,feet,jsons/v1_VE250_randls_56_rotated.json,642779,983791,30,Man
13,200140,DepthScenes,duration_manipulation_targetAtFixation,jsons/v1_VE250_randls_56_rotated.json,http://54.235.29.9/FacialAge/BNav_EC2/DepthDuration/v2_depth_duration_MTurk/v2_DepthDuration_HTML.html#125,125,1197,1148,1920,1080,8-20-2022,10-10-45,14,depth_duration_stimuli/002509_2014-06-24_13-19-22_094959634447_rgbf000077-resize_0/002509_2014-06-24_13-19-22_094959634447_rgbf000077-resize_0-target.png,250,1.3065,2,1863,251,feet,jsons/v1_VE250_randls_56_rotated.json,642779,983791,30,Man
14,200140,DepthScenes,duration_manipulation_targetAtFixation,jsons/v1_VE250_randls_56_rotated.json,http://54.235.29.9/FacialAge/BNav_EC2/DepthDuration/v2_depth_duration_MTurk/v2_DepthDuration_HTML.html#125,125,1197,1148,1920,1080,8-20-2022,10-10-45,15,depth_duration_stimuli/002344_2014-06-28_20-06-29_260595134347_rgbf000030-resize_1/002344_2014-06-28_20-06-29_260595134347_rgbf000030-resize_1-target.png,250,1.5795,2,1472,237,feet,jsons/v1_VE250_randls_56_rotated.json,642779,983791,30,Man
15,200140,DepthScenes,duration_manipulation_targetAtFixation,jsons/v1_VE250_randls_56_rotated.json,http://54.235.29.9/FacialAge/BNav_EC2/DepthDuration/v2_depth_duration_MTurk/v2_DepthDuration_HTML.html#125,125,1197,1148,1920,1080,8-20-2022,10-10-45,16,depth_duration_stimuli/002725_2014-06-22_11-47-51_094959634447_rgbf000070-resize_1/002725_2014-06-22_11-47-51_094959634447_rgbf000070-resize_1-target.png,250,2.195,3,12923,247,feet,jsons/v1_VE250_randls_56_rotated.json,642779,983791,30,Man
16,200140,DepthScenes,duration_manipulation_targetAtFixation,jsons/v1_VE250_randls_56_rotated.json,http://54.235.29.9/FacialAge/BNav_EC2/DepthDuration/v2_depth_duration_MTurk/v2_DepthDuration_HTML.html#125,125,1197,1148,1920,1080,8-20-2022,10-10-45,17,depth_duration_stimuli/000742_2014-06-08_18-48-09_260595134347_rgbf000164-resize_4/000742_2014-06-08_18-48-09_260595134347_rgbf000164-resize_4-target.png,250,4.632,6,2250,263,feet,jsons/v1_VE250_randls_56_rotated.json,642779,983791,30,Man
17,200140,DepthScenes,duration_manipulation_targetAtFixation,jsons/v1_VE250_randls_56_rotated.json,http://54.235.29.9/FacialAge/BNav_EC2/DepthDuration/v2_depth_duration_MTurk/v2_DepthDuration_HTML.html#125,125,1197,1148,1920,1080,8-20-2022,10-10-45,18,depth_duration_stimuli/001066_2014-06-08_22-03-20_260595134347_rgbf000066-resize_4/001066_2014-06-08_22-03-20_260595134347_rgbf000066-resize_4-target.png,250,4.2330000000000005,5,2526,262,feet,jsons/v1_VE250_randls_56_rotated.json,642779,983791,30,Man
18,200140,DepthScenes,duration_manipulation_targetAtFixation,jsons/v1_VE250_randls_56_rotated.json,http://54.235.29.9/FacialAge/BNav_EC2/DepthDuration/v2_depth_duration_MTurk/v2_DepthDuration_HTML.html#125,125,1197,1148,1920,1080,8-20-2022,10-10-45,19,depth_duration_stimuli/001498_2014-06-19_17-45-14_260595134347_rgbf000129-resize_4/001498_2014-06-19_17-45-14_260595134347_rgbf000129-resize-original.jpg,250,1.4075,0,1521,246,feet,jsons/v1_VE250_randls_56_rotated.json,642779,983791,30,Man
19,200140,DepthScenes,duration_manipulation_targetAtFixation,jsons/v1_VE250_randls_56_rotated.json,http://54.235.29.9/FacialAge/BNav_EC2/DepthDuration/v2_depth_duration_MTurk/v2_DepthDuration_HTML.html#125,125,1197,1148,1920,1080,8-20-2022,10-10-45,20,depth_duration_stimuli/001584_2014-06-20_11-07-43_260595134347_rgbf000002-resize_1/001584_2014-06-20_11-07-43_260595134347_rgbf000002-resize_1-target.png,250,3.53,5,1591,241,feet,jsons/v1_VE250_randls_56_rotated.json,642779,983791,30,Man
20,200140,DepthScenes,duration_manipulation_targetAtFixation,jsons/v1_VE250_randls_56_rotated.json,http://54.235.29.9/FacialAge/BNav_EC2/DepthDuration/v2_depth_duration_MTurk/v2_DepthDuration_HTML.html#125,125,1197,1148,1920,1080,8-20-2022,10-10-45,21,depth_duration_stimuli/003621_2014-05-23_18-06-08_094959634447_rgbf000101-resize_1/003621_2014-05-23_18-06-08_094959634447_rgbf000101-resize_1-target.png,250,3.9835,6,1819,247,feet,jsons/v1_VE250_randls_56_rotated.json,642779,983791,30,Man
21,200140,DepthScenes,duration_manipulation_targetAtFixation,jsons/v1_VE250_randls_56_rotated.json,http://54.235.29.9/FacialAge/BNav_EC2/DepthDuration/v2_depth_duration_MTurk/v2_DepthDuration_HTML.html#125,125,1197,1148,1920,1080,8-20-2022,10-10-45,22,depth_duration_stimuli/003048_2014-06-15_13-49-43_094959634447_rgbf000150-resize_1/003048_2014-06-15_13-49-43_094959634447_rgbf000150-resize_1-target.png,250,4.0035,5,1616,264,feet,jsons/v1_VE250_randls_56_rotated.json,642779,983791,30,Man
22,200140,DepthScenes,duration_manipulation_targetAtFixation,jsons/v1_VE250_randls_56_rotated.json,http://54.235.29.9/FacialAge/BNav_EC2/DepthDuration/v2_depth_duration_MTurk/v2_DepthDuration_HTML.html#125,125,1197,1148,1920,1080,8-20-2022,10-10-45,23,depth_duration_stimuli/002043_2014-06-24_20-29-38_260595134347_rgbf000039-resize_4/002043_2014-06-24_20-29-38_260595134347_rgbf000039-resize_4-target.png,250,2.8435,4,1425,248,feet,jsons/v1_VE250_randls_56_rotated.json,642779,983791,30,Man
23,200140,DepthScenes,duration_manipulation_targetAtFixation,jsons/v1_VE250_randls_56_rotated.json,http://54.235.29.9/FacialAge/BNav_EC2/DepthDuration/v2_depth_duration_MTurk/v2_DepthDuration_HTML.html#125,125,1197,1148,1920,1080,8-20-2022,10-10-45,24,depth_duration_stimuli/001392_2014-06-19_16-07-59_260595134347_rgbf000046-resize_1/001392_2014-06-19_16-07-59_260595134347_rgbf000046-resize_1-target.png,250,4.135,5,1380,246,feet,jsons/v1_VE250_randls_56_rotated.json,642779,983791,30,Man
24,200140,DepthScenes,duration_manipulation_targetAtFixation,jsons/v1_VE250_randls_56_rotated.json,http://54.235.29.9/FacialAge/BNav_EC2/DepthDuration/v2_depth_duration_MTurk/v2_DepthDuration_HTML.html#125,125,1197,1148,1920,1080,8-20-2022,10-10-45,25,depth_duration_stimuli/001570_2014-06-20_17-21-09_260595134347_rgbf000135-resize_4/001570_2014-06-20_17-21-09_260595134347_rgbf000135-resize_4-target.png,250,4.467,6,1402,243,feet,jsons/v1_VE250_randls_56_rotated.json,642779,983791,30,Man
25,200140,DepthScenes,duration_manipulation_targetAtFixation,jsons/v1_VE250_randls_56_rotated.json,http://54.235.29.9/FacialAge/BNav_EC2/DepthDuration/v2_depth_duration_MTurk/v2_DepthDuration_HTML.html#125,125,1197,1148,1920,1080,8-20-2022,10-10-45,26,depth_duration_stimuli/002444_2014-06-28_20-32-08_260595134347_rgbf000027-resize_0/002444_2014-06-28_20-32-08_260595134347_rgbf000027-resize_0-target.png,250,4.388999999999999,6,1392,249,feet,jsons/v1_VE250_randls_56_rotated.json,642779,983791,30,Man
26,200140,DepthScenes,duration_manipulation_targetAtFixation,jsons/v1_VE250_randls_56_rotated.json,http://54.235.29.9/FacialAge/BNav_EC2/DepthDuration/v2_depth_duration_MTurk/v2_DepthDuration_HTML.html#125,125,1197,1148,1920,1080,8-20-2022,10-10-45,27,depth_duration_stimuli/000436_2014-06-09_22-25-11_260595134347_rgbf000137-resize_1/000436_2014-06-09_22-25-11_260595134347_rgbf000137-resize_1-target.png,250,4.0705,6,1391,251,feet,jsons/v1_VE250_randls_56_rotated.json,642779,983791,30,Man
27,200140,DepthScenes,duration_manipulation_targetAtFixation,jsons/v1_VE250_randls_56_rotated.json,http://54.235.29.9/FacialAge/BNav_EC2/DepthDuration/v2_depth_duration_MTurk/v2_DepthDuration_HTML.html#125,125,1197,1148,1920,1080,8-20-2022,10-10-45,28,depth_duration_stimuli/002949_2014-06-26_15-57-42_094959634447_rgbf000079-resize_1/002949_2014-06-26_15-57-42_094959634447_rgbf000079-resize_1-target.png,250,1.8915,3,1736,248,feet,jsons/v1_VE250_randls_56_rotated.json,642779,983791,30,Man
28,200140,DepthScenes,duration_manipulation_targetAtFixation,jsons/v1_VE250_randls_56_rotated.json,http://54.235.29.9/FacialAge/BNav_EC2/DepthDuration/v2_depth_duration_MTurk/v2_DepthDuration_HTML.html#125,125,1197,1148,1920,1080,8-20-2022,10-10-45,29,depth_duration_stimuli/000522_2014-06-08_13-35-06_260595134347_rgbf000244-resize_1/000522_2014-06-08_13-35-06_260595134347_rgbf000244-resize_1-target.png,250,2.3715,2,9198,249,feet,jsons/v1_VE250_randls_56_rotated.json,642779,983791,30,Man
29,200140,DepthScenes,duration_manipulation_targetAtFixation,jsons/v1_VE250_randls_56_rotated.json,http://54.235.29.9/FacialAge/BNav_EC2/DepthDuration/v2_depth_duration_MTurk/v2_DepthDuration_HTML.html#125,125,1197,1148,1920,1080,8-20-2022,10-10-45,30,depth_duration_stimuli/002072_2014-06-24_21-48-06_260595134347_rgbf000115-resize_0/002072_2014-06-24_21-48-06_260595134347_rgbf000115-resize-original.jpg,250,4.702,0,1613,259,feet,jsons/v1_VE250_randls_56_rotated.json,642779,983791,30,Man
30,200140,DepthScenes,duration_manipulation_targetAtFixation,jsons/v1_VE250_randls_56_rotated.json,http://54.235.29.9/FacialAge/BNav_EC2/DepthDuration/v2_depth_duration_MTurk/v2_DepthDuration_HTML.html#125,125,1197,1148,1920,1080,8-20-2022,10-10-45,31,depth_duration_stimuli/003079_2014-06-15_15-18-20_094959634447_rgbf000152-resize_8/003079_2014-06-15_15-18-20_094959634447_rgbf000152-resize_8-target.png,250,2.8775,5,39195,251,feet,jsons/v1_VE250_randls_56_rotated.json,642779,983791,30,Man
31,200140,DepthScenes,duration_manipulation_targetAtFixation,jsons/v1_VE250_randls_56_rotated.json,http://54.235.29.9/FacialAge/BNav_EC2/DepthDuration/v2_depth_duration_MTurk/v2_DepthDuration_HTML.html#125,125,1197,1148,1920,1080,8-20-2022,10-10-45,32,depth_duration_stimuli/000506_2014-06-08_23-21-00_260595134347_rgbf000070-resize_7/000506_2014-06-08_23-21-00_260595134347_rgbf000070-resize_7-target.png,250,4.0585,5,1502,249,feet,jsons/v1_VE250_randls_56_rotated.json,642779,983791,30,Man
32,200140,DepthScenes,duration_manipulation_targetAtFixation,jsons/v1_VE250_randls_56_rotated.json,http://54.235.29.9/FacialAge/BNav_EC2/DepthDuration/v2_depth_duration_MTurk/v2_DepthDuration_HTML.html#125,125,1197,1148,1920,1080,8-20-2022,10-10-45,33,depth_duration_stimuli/002467_2014-06-28_20-38-07_260595134347_rgbf000026-resize_2/002467_2014-06-28_20-38-07_260595134347_rgbf000026-resize_2-target.png,250,4.742,7,1491,250,feet,jsons/v1_VE250_randls_56_rotated.json,642779,983791,30,Man
33,200140,DepthScenes,duration_manipulation_targetAtFixation,jsons/v1_VE250_randls_56_rotated.json,http://54.235.29.9/FacialAge/BNav_EC2/DepthDuration/v2_depth_duration_MTurk/v2_DepthDuration_HTML.html#125,125,1197,1148,1920,1080,8-20-2022,10-10-45,34,depth_duration_stimuli/002570_2014-06-24_13-59-54_094959634447_rgbf000059-resize_0/002570_2014-06-24_13-59-54_094959634447_rgbf000059-resize_0-target.png,250,4.037,4,1546,263,feet,jsons/v1_VE250_randls_56_rotated.json,642779,983791,30,Man
34,200140,DepthScenes,duration_manipulation_targetAtFixation,jsons/v1_VE250_randls_56_rotated.json,http://54.235.29.9/FacialAge/BNav_EC2/DepthDuration/v2_depth_duration_MTurk/v2_DepthDuration_HTML.html#125,125,1197,1148,1920,1080,8-20-2022,10-10-45,35,depth_duration_stimuli/001450_2014-06-19_17-02-03_260595134347_rgbf000203-resize_4/001450_2014-06-19_17-02-03_260595134347_rgbf000203-resize_4-target.png,250,4.0106666666667,7,1416,251,feet,jsons/v1_VE250_randls_56_rotated.json,642779,983791,30,Man
35,200140,DepthScenes,duration_manipulation_targetAtFixation,jsons/v1_VE250_randls_56_rotated.json,http://54.235.29.9/FacialAge/BNav_EC2/DepthDuration/v2_depth_duration_MTurk/v2_DepthDuration_HTML.html#125,125,1197,1148,1920,1080,8-20-2022,10-10-45,36,depth_duration_stimuli/001449_2014-06-19_17-01-27_260595134347_rgbf000116-resize_2/001449_2014-06-19_17-01-27_260595134347_rgbf000116-resize_2-target.png,250,3.452,4,1479,252,feet,jsons/v1_VE250_randls_56_rotated.json,642779,983791,30,Man
36,200140,DepthScenes,duration_manipulation_targetAtFixation,jsons/v1_VE250_randls_56_rotated.json,http://54.235.29.9/FacialAge/BNav_EC2/DepthDuration/v2_depth_duration_MTurk/v2_DepthDuration_HTML.html#125,125,1197,1148,1920,1080,8-20-2022,10-10-45,37,depth_duration_stimuli/000409_2014-06-04_19-23-33_260595134347_rgbf000067-resize_0/000409_2014-06-04_19-23-33_260595134347_rgbf000067-resize_0-target.png,250,3.7335,5,1484,261,feet,jsons/v1_VE250_randls_56_rotated.json,642779,983791,30,Man
37,200140,DepthScenes,duration_manipulation_targetAtFixation,jsons/v1_VE250_randls_56_rotated.json,http://54.235.29.9/FacialAge/BNav_EC2/DepthDuration/v2_depth_duration_MTurk/v2_DepthDuration_HTML.html#125,125,1197,1148,1920,1080,8-20-2022,10-10-45,38,depth_duration_stimuli/002663_2014-06-13_15-50-26_094959634447_rgbf000075-resize_1/002663_2014-06-13_15-50-26_094959634447_rgbf000075-resize_1-target.png,250,4.7495,7,1568,256,feet,jsons/v1_VE250_randls_56_rotated.json,642779,983791,30,Man
38,200140,DepthScenes,duration_manipulation_targetAtFixation,jsons/v1_VE250_randls_56_rotated.json,http://54.235.29.9/FacialAge/BNav_EC2/DepthDuration/v2_depth_duration_MTurk/v2_DepthDuration_HTML.html#125,125,1197,1148,1920,1080,8-20-2022,10-10-45,39,depth_duration_stimuli/003228_2014-05-14_13-42-35_094959634447_rgbf000101-resize_1/003228_2014-05-14_13-42-35_094959634447_rgbf000101-resize_1-target.png,250,1.9680000000000002,3,1428,249,feet,jsons/v1_VE250_randls_56_rotated.json,642779,983791,30,Man
39,200140,DepthScenes,duration_manipulation_targetAtFixation,jsons/v1_VE250_randls_56_rotated.json,http://54.235.29.9/FacialAge/BNav_EC2/DepthDuration/v2_depth_duration_MTurk/v2_DepthDuration_HTML.html#125,125,1197,1148,1920,1080,8-20-2022,10-10-45,40,depth_duration_stimuli/002600_2014-06-24_14-27-04_094959634447_rgbf000074-resize_2/002600_2014-06-24_14-27-04_094959634447_rgbf000074-resize_2-target.png,250,2.7575,4,1346,254,feet,jsons/v1_VE250_randls_56_rotated.json,642779,983791,30,Man
40,200140,DepthScenes,duration_manipulation_targetAtFixation,jsons/v1_VE250_randls_56_rotated.json,http://54.235.29.9/FacialAge/BNav_EC2/DepthDuration/v2_depth_duration_MTurk/v2_DepthDuration_HTML.html#125,125,1197,1148,1920,1080,8-20-2022,10-10-45,41,depth_duration_stimuli/000734_2014-06-08_17-39-11_260595134347_rgbf000128-resize_2/000734_2014-06-08_17-39-11_260595134347_rgbf000128-resize_2-target.png,250,4.098,7,1532,245,feet,jsons/v1_VE250_randls_56_rotated.json,642779,983791,30,Man
41,200140,DepthScenes,duration_manipulation_targetAtFixation,jsons/v1_VE250_randls_56_rotated.json,http://54.235.29.9/FacialAge/BNav_EC2/DepthDuration/v2_depth_duration_MTurk/v2_DepthDuration_HTML.html#125,125,1197,1148,1920,1080,8-20-2022,10-10-45,42,depth_duration_stimuli/000739_2014-06-08_18-45-58_260595134347_rgbf000068-resize_1/000739_2014-06-08_18-45-58_260595134347_rgbf000068-resize_1-target.png,250,3.534,5,2486,250,feet,jsons/v1_VE250_randls_56_rotated.json,642779,983791,30,Man
42,200140,DepthScenes,duration_manipulation_targetAtFixation,jsons/v1_VE250_randls_56_rotated.json,http://54.235.29.9/FacialAge/BNav_EC2/DepthDuration/v2_depth_duration_MTurk/v2_DepthDuration_HTML.html#125,125,1197,1148,1920,1080,8-20-2022,10-10-45,43,depth_duration_stimuli/001052_2014-06-08_18-24-54_260595134347_rgbf000130-resize_1/001052_2014-06-08_18-24-54_260595134347_rgbf000130-resize_1-target.png,250,4.1045,7,47226,254,feet,jsons/v1_VE250_randls_56_rotated.json,642779,983791,30,Man
43,200140,DepthScenes,duration_manipulation_targetAtFixation,jsons/v1_VE250_randls_56_rotated.json,http://54.235.29.9/FacialAge/BNav_EC2/DepthDuration/v2_depth_duration_MTurk/v2_DepthDuration_HTML.html#125,125,1197,1148,1920,1080,8-20-2022,10-10-45,44,depth_duration_stimuli/002988_2014-06-15_12-24-20_094959634447_rgbf000150-resize_1/002988_2014-06-15_12-24-20_094959634447_rgbf000150-resize_1-target.png,250,4.7669999999999995,7,1830,246,feet,jsons/v1_VE250_randls_56_rotated.json,642779,983791,30,Man
44,200140,DepthScenes,duration_manipulation_targetAtFixation,jsons/v1_VE250_randls_56_rotated.json,http://54.235.29.9/FacialAge/BNav_EC2/DepthDuration/v2_depth_duration_MTurk/v2_DepthDuration_HTML.html#125,125,1197,1148,1920,1080,8-20-2022,10-10-45,45,depth_duration_stimuli/000749_2014-06-08_21-55-06_260595134347_rgbf000070-resize_2/000749_2014-06-08_21-55-06_260595134347_rgbf000070-resize_2-target.png,250,2.331,5,1388,262,feet,jsons/v1_VE250_randls_56_rotated.json,642779,983791,30,Man
45,200140,DepthScenes,duration_manipulation_targetAtFixation,jsons/v1_VE250_randls_56_rotated.json,http://54.235.29.9/FacialAge/BNav_EC2/DepthDuration/v2_depth_duration_MTurk/v2_DepthDuration_HTML.html#125,125,1197,1148,1920,1080,8-20-2022,10-10-45,46,depth_duration_stimuli/002788_2014-06-22_19-36-03_094959634447_rgbf000088-resize_2/002788_2014-06-22_19-36-03_094959634447_rgbf000088-resize_2-target.png,250,1.6465,5,1351,250,feet,jsons/v1_VE250_randls_56_rotated.json,642779,983791,30,Man
46,200140,DepthScenes,duration_manipulation_targetAtFixation,jsons/v1_VE250_randls_56_rotated.json,http://54.235.29.9/FacialAge/BNav_EC2/DepthDuration/v2_depth_duration_MTurk/v2_DepthDuration_HTML.html#125,125,1197,1148,1920,1080,8-20-2022,10-10-45,47,depth_duration_stimuli/002545_2014-06-24_13-38-53_094959634447_rgbf000080-resize_4/002545_2014-06-24_13-38-53_094959634447_rgbf000080-resize_4-target.png,250,1.9205,4,1312,251,feet,jsons/v1_VE250_randls_56_rotated.json,642779,983791,30,Man
47,200140,DepthScenes,duration_manipulation_targetAtFixation,jsons/v1_VE250_randls_56_rotated.json,http://54.235.29.9/FacialAge/BNav_EC2/DepthDuration/v2_depth_duration_MTurk/v2_DepthDuration_HTML.html#125,125,1197,1148,1920,1080,8-20-2022,10-10-45,48,depth_duration_stimuli/001092_2014-06-15_17-34-58_260595134347_rgbf000171-resize_3/001092_2014-06-15_17-34-58_260595134347_rgbf000171-resize_3-target.png,250,2.6935,3,1451,255,feet,jsons/v1_VE250_randls_56_rotated.json,642779,983791,30,Man
48,200140,DepthScenes,duration_manipulation_targetAtFixation,jsons/v1_VE250_randls_56_rotated.json,http://54.235.29.9/FacialAge/BNav_EC2/DepthDuration/v2_depth_duration_MTurk/v2_DepthDuration_HTML.html#125,125,1197,1148,1920,1080,8-20-2022,10-10-45,49,depth_duration_stimuli/001170_2014-06-17_15-43-44_260595134347_rgbf000096-resize_6/001170_2014-06-17_15-43-44_260595134347_rgbf000096-resize-original.jpg,250,1.1909999999999998,0,1327,259,feet,jsons/v1_VE250_randls_56_rotated.json,642779,983791,30,Man
49,200140,DepthScenes,duration_manipulation_targetAtFixation,jsons/v1_VE250_randls_56_rotated.json,http://54.235.29.9/FacialAge/BNav_EC2/DepthDuration/v2_depth_duration_MTurk/v2_DepthDuration_HTML.html#125,125,1197,1148,1920,1080,8-20-2022,10-10-45,50,depth_duration_stimuli/000137_2014-05-20_17-04-49_260595134347_rgbf000120-resize_1/000137_2014-05-20_17-04-49_260595134347_rgbf000120-resize_1-target.png,250,3.786,7,1348,251,feet,jsons/v1_VE250_randls_56_rotated.json,642779,983791,30,Man
50,200140,DepthScenes,duration_manipulation_targetAtFixation,jsons/v1_VE250_randls_56_rotated.json,http://54.235.29.9/FacialAge/BNav_EC2/DepthDuration/v2_depth_duration_MTurk/v2_DepthDuration_HTML.html#125,125,1197,1148,1920,1080,8-20-2022,10-10-45,51,depth_duration_stimuli/000736_2014-06-08_18-24-15_260595134347_rgbf000206-resize_3/000736_2014-06-08_18-24-15_260595134347_rgbf000206-resize_3-target.png,250,3.515,5,1371,261,feet,jsons/v1_VE250_randls_56_rotated.json,642779,983791,30,Man
51,200140,DepthScenes,duration_manipulation_targetAtFixation,jsons/v1_VE250_randls_56_rotated.json,http://54.235.29.9/FacialAge/BNav_EC2/DepthDuration/v2_depth_duration_MTurk/v2_DepthDuration_HTML.html#125,125,1197,1148,1920,1080,8-20-2022,10-10-45,52,depth_duration_stimuli/002414_2014-06-28_20-24-58_260595134347_rgbf000067-resize_4/002414_2014-06-28_20-24-58_260595134347_rgbf000067-resize_4-target.png,250,4.363,6,1656,258,feet,jsons/v1_VE250_randls_56_rotated.json,642779,983791,30,Man
52,200140,DepthScenes,duration_manipulation_targetAtFixation,jsons/v1_VE250_randls_56_rotated.json,http://54.235.29.9/FacialAge/BNav_EC2/DepthDuration/v2_depth_duration_MTurk/v2_DepthDuration_HTML.html#125,125,1197,1148,1920,1080,8-20-2022,10-10-45,53,depth_duration_stimuli/000773_2014-06-08_22-24-54_260595134347_rgbf000093-resize_1/000773_2014-06-08_22-24-54_260595134347_rgbf000093-resize_1-target.png,250,4.973,7,1346,240,feet,jsons/v1_VE250_randls_56_rotated.json,642779,983791,30,Man
53,200140,DepthScenes,duration_manipulation_targetAtFixation,jsons/v1_VE250_randls_56_rotated.json,http://54.235.29.9/FacialAge/BNav_EC2/DepthDuration/v2_depth_duration_MTurk/v2_DepthDuration_HTML.html#125,125,1197,1148,1920,1080,8-20-2022,10-10-45,54,depth_duration_stimuli/003495_2014-05-21_16-01-51_094959634447_rgbf000100-resize_3/003495_2014-05-21_16-01-51_094959634447_rgbf000100-resize_3-target.png,250,1.6255,2,1376,258,feet,jsons/v1_VE250_randls_56_rotated.json,642779,983791,30,Man
54,200140,DepthScenes,duration_manipulation_targetAtFixation,jsons/v1_VE250_randls_56_rotated.json,http://54.235.29.9/FacialAge/BNav_EC2/DepthDuration/v2_depth_duration_MTurk/v2_DepthDuration_HTML.html#125,125,1197,1148,1920,1080,8-20-2022,10-10-45,55,depth_duration_stimuli/001244_2014-06-17_16-47-45_260595134347_rgbf000030-resize_4/001244_2014-06-17_16-47-45_260595134347_rgbf000030-resize_4-target.png,250,2.0425,3,1546,250,feet,jsons/v1_VE250_randls_56_rotated.json,642779,983791,30,Man
55,200140,DepthScenes,duration_manipulation_targetAtFixation,jsons/v1_VE250_randls_56_rotated.json,http://54.235.29.9/FacialAge/BNav_EC2/DepthDuration/v2_depth_duration_MTurk/v2_DepthDuration_HTML.html#125,125,1197,1148,1920,1080,8-20-2022,10-10-45,56,depth_duration_stimuli/003490_2014-05-21_15-50-11_094959634447_rgbf000101-resize_3/003490_2014-05-21_15-50-11_094959634447_rgbf000101-resize_3-target.png,250,3.6445,4,1398,247,feet,jsons/v1_VE250_randls_56_rotated.json,642779,983791,30,Man
56,200140,DepthScenes,duration_manipulation_targetAtFixation,jsons/v1_VE250_randls_56_rotated.json,http://54.235.29.9/FacialAge/BNav_EC2/DepthDuration/v2_depth_duration_MTurk/v2_DepthDuration_HTML.html#125,125,1197,1148,1920,1080,8-20-2022,10-10-45,57,depth_duration_stimuli/001175_2014-06-17_15-45-55_260595134347_rgbf000129-resize_4/001175_2014-06-17_15-45-55_260595134347_rgbf000129-resize_4-target.png,250,4.255,8,1497,235,feet,jsons/v1_VE250_randls_56_rotated.json,642779,983791,30,Man
57,200140,DepthScenes,duration_manipulation_targetAtFixation,jsons/v1_VE250_randls_56_rotated.json,http://54.235.29.9/FacialAge/BNav_EC2/DepthDuration/v2_depth_duration_MTurk/v2_DepthDuration_HTML.html#125,125,1197,1148,1920,1080,8-20-2022,10-10-45,58,depth_duration_stimuli/000665_2014-06-09_20-42-35_260595134347_rgbf000110-resize_1/000665_2014-06-09_20-42-35_260595134347_rgbf000110-resize_1-target.png,250,3.057,4,1384,265,feet,jsons/v1_VE250_randls_56_rotated.json,642779,983791,30,Man
58,200140,DepthScenes,duration_manipulation_targetAtFixation,jsons/v1_VE250_randls_56_rotated.json,http://54.235.29.9/FacialAge/BNav_EC2/DepthDuration/v2_depth_duration_MTurk/v2_DepthDuration_HTML.html#125,125,1197,1148,1920,1080,8-20-2022,10-10-45,59,depth_duration_stimuli/001150_2014-06-17_15-27-34_260595134347_rgbf000108-resize_2/001150_2014-06-17_15-27-34_260595134347_rgbf000108-resize_2-target.png,250,4.0325,7,1360,250,feet,jsons/v1_VE250_randls_56_rotated.json,642779,983791,30,Man
59,200140,DepthScenes,duration_manipulation_targetAtFixation,jsons/v1_VE250_randls_56_rotated.json,http://54.235.29.9/FacialAge/BNav_EC2/DepthDuration/v2_depth_duration_MTurk/v2_DepthDuration_HTML.html#125,125,1197,1148,1920,1080,8-20-2022,10-10-45,60,depth_duration_stimuli/001650_2014-06-20_12-09-00_260595134347_rgbf000087-resize_3/001650_2014-06-20_12-09-00_260595134347_rgbf000087-resize_3-target.png,250,1.9505,2,1400,252,feet,jsons/v1_VE250_randls_56_rotated.json,642779,983791,30,Man
60,200140,DepthScenes,duration_manipulation_targetAtFixation,jsons/v1_VE250_randls_56_rotated.json,http://54.235.29.9/FacialAge/BNav_EC2/DepthDuration/v2_depth_duration_MTurk/v2_DepthDuration_HTML.html#125,125,1197,1148,1920,1080,8-20-2022,10-10-45,61,depth_duration_stimuli/000682_2014-06-08_23-14-58_260595134347_rgbf000041-resize_5/000682_2014-06-08_23-14-58_260595134347_rgbf000041-resize_5-target.png,250,2.7239999999999998,8,1745,250,feet,jsons/v1_VE250_randls_56_rotated.json,642779,983791,30,Man
61,200140,DepthScenes,duration_manipulation_targetAtFixation,jsons/v1_VE250_randls_56_rotated.json,http://54.235.29.9/FacialAge/BNav_EC2/DepthDuration/v2_depth_duration_MTurk/v2_DepthDuration_HTML.html#125,125,1197,1148,1920,1080,8-20-2022,10-10-45,62,depth_duration_stimuli/001136_2014-06-17_15-19-41_260595134347_rgbf000076-resize_3/001136_2014-06-17_15-19-41_260595134347_rgbf000076-resize_3-target.png,250,1.8655,6,1599,250,feet,jsons/v1_VE250_randls_56_rotated.json,642779,983791,30,Man
62,200140,DepthScenes,duration_manipulation_targetAtFixation,jsons/v1_VE250_randls_56_rotated.json,http://54.235.29.9/FacialAge/BNav_EC2/DepthDuration/v2_depth_duration_MTurk/v2_DepthDuration_HTML.html#125,125,1197,1148,1920,1080,8-20-2022,10-10-45,63,depth_duration_stimuli/001164_2014-06-17_15-35-46_260595134347_rgbf000085-resize_3/001164_2014-06-17_15-35-46_260595134347_rgbf000085-resize_3-target.png,250,2.354,4,1382,247,feet,jsons/v1_VE250_randls_56_rotated.json,642779,983791,30,Man
63,200140,DepthScenes,duration_manipulation_targetAtFixation,jsons/v1_VE250_randls_56_rotated.json,http://54.235.29.9/FacialAge/BNav_EC2/DepthDuration/v2_depth_duration_MTurk/v2_DepthDuration_HTML.html#125,125,1197,1148,1920,1080,8-20-2022,10-10-45,64,depth_duration_stimuli/000635_2014-06-08_16-38-42_260595134347_rgbf000106-resize_1/000635_2014-06-08_16-38-42_260595134347_rgbf000106-resize_1-target.png,250,2.074,5,1402,250,feet,jsons/v1_VE250_randls_56_rotated.json,642779,983791,30,Man
64,200140,DepthScenes,duration_manipulation_targetAtFixation,jsons/v1_VE250_randls_56_rotated.json,http://54.235.29.9/FacialAge/BNav_EC2/DepthDuration/v2_depth_duration_MTurk/v2_DepthDuration_HTML.html#125,125,1197,1148,1920,1080,8-20-2022,10-10-45,65,depth_duration_stimuli/002279_2014-06-28_18-55-32_260595134347_rgbf000040-resize_5/002279_2014-06-28_18-55-32_260595134347_rgbf000040-resize_5-target.png,250,1.5043333333333,3,1358,250,feet,jsons/v1_VE250_randls_56_rotated.json,642779,983791,30,Man
65,200140,DepthScenes,duration_manipulation_targetAtFixation,jsons/v1_VE250_randls_56_rotated.json,http://54.235.29.9/FacialAge/BNav_EC2/DepthDuration/v2_depth_duration_MTurk/v2_DepthDuration_HTML.html#125,125,1197,1148,1920,1080,8-20-2022,10-10-45,66,depth_duration_stimuli/001540_2014-06-20_17-01-05_260595134347_rgbf000086-resize_2/001540_2014-06-20_17-01-05_260595134347_rgbf000086-resize-original.jpg,250,1.459,0,1595,250,feet,jsons/v1_VE250_randls_56_rotated.json,642779,983791,30,Man
66,200140,DepthScenes,duration_manipulation_targetAtFixation,jsons/v1_VE250_randls_56_rotated.json,http://54.235.29.9/FacialAge/BNav_EC2/DepthDuration/v2_depth_duration_MTurk/v2_DepthDuration_HTML.html#125,125,1197,1148,1920,1080,8-20-2022,10-10-45,67,depth_duration_stimuli/000866_2014-06-09_20-45-42_260595134347_rgbf000139-resize_1/000866_2014-06-09_20-45-42_260595134347_rgbf000139-resize_1-target.png,250,3.2155,5,29976,264,feet,jsons/v1_VE250_randls_56_rotated.json,642779,983791,30,Man
67,200140,DepthScenes,duration_manipulation_targetAtFixation,jsons/v1_VE250_randls_56_rotated.json,http://54.235.29.9/FacialAge/BNav_EC2/DepthDuration/v2_depth_duration_MTurk/v2_DepthDuration_HTML.html#125,125,1197,1148,1920,1080,8-20-2022,10-10-45,68,depth_duration_stimuli/002989_2014-06-15_12-25-03_094959634447_rgbf000150-resize_3/002989_2014-06-15_12-25-03_094959634447_rgbf000150-resize_3-target.png,250,4.1975,7,2156,242,feet,jsons/v1_VE250_randls_56_rotated.json,642779,983791,30,Man
68,200140,DepthScenes,duration_manipulation_targetAtFixation,jsons/v1_VE250_randls_56_rotated.json,http://54.235.29.9/FacialAge/BNav_EC2/DepthDuration/v2_depth_duration_MTurk/v2_DepthDuration_HTML.html#125,125,1197,1148,1920,1080,8-20-2022,10-10-45,69,depth_duration_stimuli/000943_2014-06-09_19-31-07_260595134347_rgbf000128-resize_1/000943_2014-06-09_19-31-07_260595134347_rgbf000128-resize_1-target.png,250,1.9765,3,1437,251,feet,jsons/v1_VE250_randls_56_rotated.json,642779,983791,30,Man
69,200140,DepthScenes,duration_manipulation_targetAtFixation,jsons/v1_VE250_randls_56_rotated.json,http://54.235.29.9/FacialAge/BNav_EC2/DepthDuration/v2_depth_duration_MTurk/v2_DepthDuration_HTML.html#125,125,1197,1148,1920,1080,8-20-2022,10-10-45,70,depth_duration_stimuli/003070_2014-06-15_14-58-27_094959634447_rgbf000150-resize_3/003070_2014-06-15_14-58-27_094959634447_rgbf000150-resize_3-target.png,250,2.9415,4,1367,251,feet,jsons/v1_VE250_randls_56_rotated.json,642779,983791,30,Man
70,200140,DepthScenes,duration_manipulation_targetAtFixation,jsons/v1_VE250_randls_56_rotated.json,http://54.235.29.9/FacialAge/BNav_EC2/DepthDuration/v2_depth_duration_MTurk/v2_DepthDuration_HTML.html#125,125,1197,1148,1920,1080,8-20-2022,10-10-45,71,depth_duration_stimuli/002875_2014-06-01_15-19-00_094959634447_rgbf000151-resize_1/002875_2014-06-01_15-19-00_094959634447_rgbf000151-resize_1-target.png,250,1.9675,5,1710,250,feet,jsons/v1_VE250_randls_56_rotated.json,642779,983791,30,Man
71,200140,DepthScenes,duration_manipulation_targetAtFixation,jsons/v1_VE250_randls_56_rotated.json,http://54.235.29.9/FacialAge/BNav_EC2/DepthDuration/v2_depth_duration_MTurk/v2_DepthDuration_HTML.html#125,125,1197,1148,1920,1080,8-20-2022,10-10-45,72,depth_duration_stimuli/001011_2014-06-08_23-18-54_260595134347_rgbf000044-resize_4/001011_2014-06-08_23-18-54_260595134347_rgbf000044-resize_4-target.png,250,2.4730000000000003,6,1702,259,feet,jsons/v1_VE250_randls_56_rotated.json,642779,983791,30,Man
72,200140,DepthScenes,duration_manipulation_targetAtFixation,jsons/v1_VE250_randls_56_rotated.json,http://54.235.29.9/FacialAge/BNav_EC2/DepthDuration/v2_depth_duration_MTurk/v2_DepthDuration_HTML.html#125,125,1197,1148,1920,1080,8-20-2022,10-10-45,73,depth_duration_stimuli/002995_2014-06-15_12-31-26_094959634447_rgbf000150-resize_1/002995_2014-06-15_12-31-26_094959634447_rgbf000150-resize_1-target.png,250,3.8360000000000003,8,1503,250,feet,jsons/v1_VE250_randls_56_rotated.json,642779,983791,30,Man
73,200140,DepthScenes,duration_manipulation_targetAtFixation,jsons/v1_VE250_randls_56_rotated.json,http://54.235.29.9/FacialAge/BNav_EC2/DepthDuration/v2_depth_duration_MTurk/v2_DepthDuration_HTML.html#125,125,1197,1148,1920,1080,8-20-2022,10-10-45,74,depth_duration_stimuli/002748_2014-06-22_19-07-22_094959634447_rgbf000078-resize_1/002748_2014-06-22_19-07-22_094959634447_rgbf000078-resize_1-target.png,250,4.6705,10,1709,254,feet,jsons/v1_VE250_randls_56_rotated.json,642779,983791,30,Man
74,200140,DepthScenes,duration_manipulation_targetAtFixation,jsons/v1_VE250_randls_56_rotated.json,http://54.235.29.9/FacialAge/BNav_EC2/DepthDuration/v2_depth_duration_MTurk/v2_DepthDuration_HTML.html#125,125,1197,1148,1920,1080,8-20-2022,10-10-45,75,depth_duration_stimuli/002750_2014-06-22_19-08-03_094959634447_rgbf000094-resize_4/002750_2014-06-22_19-08-03_094959634447_rgbf000094-resize_4-target.png,250,2.354,6,1730,249,feet,jsons/v1_VE250_randls_56_rotated.json,642779,983791,30,Man
75,200140,DepthScenes,duration_manipulation_targetAtFixation,jsons/v1_VE250_randls_56_rotated.json,http://54.235.29.9/FacialAge/BNav_EC2/DepthDuration/v2_depth_duration_MTurk/v2_DepthDuration_HTML.html#125,125,1197,1148,1920,1080,8-20-2022,10-10-45,76,depth_duration_stimuli/002549_2014-06-24_13-41-39_094959634447_rgbf000022-resize_3/002549_2014-06-24_13-41-39_094959634447_rgbf000022-resize_3-target.png,250,1.476,4,1399,264,feet,jsons/v1_VE250_randls_56_rotated.json,642779,983791,30,Man
76,200140,DepthScenes,duration_manipulation_targetAtFixation,jsons/v1_VE250_randls_56_rotated.json,http://54.235.29.9/FacialAge/BNav_EC2/DepthDuration/v2_depth_duration_MTurk/v2_DepthDuration_HTML.html#125,125,1197,1148,1920,1080,8-20-2022,10-10-45,77,depth_duration_stimuli/002199_2014-06-28_18-33-56_260595134347_rgbf000074-resize_0/002199_2014-06-28_18-33-56_260595134347_rgbf000074-resize_0-target.png,250,1.996,3,1367,259,feet,jsons/v1_VE250_randls_56_rotated.json,642779,983791,30,Man
77,200140,DepthScenes,duration_manipulation_targetAtFixation,jsons/v1_VE250_randls_56_rotated.json,http://54.235.29.9/FacialAge/BNav_EC2/DepthDuration/v2_depth_duration_MTurk/v2_DepthDuration_HTML.html#125,125,1197,1148,1920,1080,8-20-2022,10-10-45,78,depth_duration_stimuli/001056_2014-06-08_18-46-44_260595134347_rgbf000068-resize_0/001056_2014-06-08_18-46-44_260595134347_rgbf000068-resize_0-target.png,250,2.6625,6,1537,250,feet,jsons/v1_VE250_randls_56_rotated.json,642779,983791,30,Man
78,200140,DepthScenes,duration_manipulation_targetAtFixation,jsons/v1_VE250_randls_56_rotated.json,http://54.235.29.9/FacialAge/BNav_EC2/DepthDuration/v2_depth_duration_MTurk/v2_DepthDuration_HTML.html#125,125,1197,1148,1920,1080,8-20-2022,10-10-45,79,depth_duration_stimuli/001617_2014-06-20_11-35-32_260595134347_rgbf000066-resize_1/001617_2014-06-20_11-35-32_260595134347_rgbf000066-resize_1-target.png,250,3.7910000000000004,8,1607,249,feet,jsons/v1_VE250_randls_56_rotated.json,642779,983791,30,Man
79,200140,DepthScenes,duration_manipulation_targetAtFixation,jsons/v1_VE250_randls_56_rotated.json,http://54.235.29.9/FacialAge/BNav_EC2/DepthDuration/v2_depth_duration_MTurk/v2_DepthDuration_HTML.html#125,125,1197,1148,1920,1080,8-20-2022,10-10-45,80,depth_duration_stimuli/001806_2014-06-26_20-50-20_260595134347_rgbf000091-resize_1/001806_2014-06-26_20-50-20_260595134347_rgbf000091-resize_1-target.png,250,2.7305,4,1378,248,feet,jsons/v1_VE250_randls_56_rotated.json,642779,983791,30,Man
80,200140,DepthScenes,duration_manipulation_targetAtFixation,jsons/v1_VE250_randls_56_rotated.json,http://54.235.29.9/FacialAge/BNav_EC2/DepthDuration/v2_depth_duration_MTurk/v2_DepthDuration_HTML.html#125,125,1197,1148,1920,1080,8-20-2022,10-10-45,81,depth_duration_stimuli/002758_2014-06-22_19-11-20_094959634447_rgbf000128-resize_1/002758_2014-06-22_19-11-20_094959634447_rgbf000128-resize_1-target.png,250,2.555,4,1624,256,feet,jsons/v1_VE250_randls_56_rotated.json,642779,983791,30,Man
81,200140,DepthScenes,duration_manipulation_targetAtFixation,jsons/v1_VE250_randls_56_rotated.json,http://54.235.29.9/FacialAge/BNav_EC2/DepthDuration/v2_depth_duration_MTurk/v2_DepthDuration_HTML.html#125,125,1197,1148,1920,1080,8-20-2022,10-10-45,82,depth_duration_stimuli/002630_2014-06-24_14-47-50_094959634447_rgbf000055-resize_1/002630_2014-06-24_14-47-50_094959634447_rgbf000055-resize_1-target.png,250,3.0095,6,1745,257,feet,jsons/v1_VE250_randls_56_rotated.json,642779,983791,30,Man
82,200140,DepthScenes,duration_manipulation_targetAtFixation,jsons/v1_VE250_randls_56_rotated.json,http://54.235.29.9/FacialAge/BNav_EC2/DepthDuration/v2_depth_duration_MTurk/v2_DepthDuration_HTML.html#125,125,1197,1148,1920,1080,8-20-2022,10-10-45,83,depth_duration_stimuli/000502_2014-06-08_23-02-32_260595134347_rgbf000063-resize_4/000502_2014-06-08_23-02-32_260595134347_rgbf000063-resize_4-target.png,250,2.431,3,1628,260,feet,jsons/v1_VE250_randls_56_rotated.json,642779,983791,30,Man
83,200140,DepthScenes,duration_manipulation_targetAtFixation,jsons/v1_VE250_randls_56_rotated.json,http://54.235.29.9/FacialAge/BNav_EC2/DepthDuration/v2_depth_duration_MTurk/v2_DepthDuration_HTML.html#125,125,1197,1148,1920,1080,8-20-2022,10-10-45,84,depth_duration_stimuli/001199_2014-06-17_16-03-48_260595134347_rgbf000077-resize_0/001199_2014-06-17_16-03-48_260595134347_rgbf000077-resize_0-target.png,250,3.4375,8,1400,241,feet,jsons/v1_VE250_randls_56_rotated.json,642779,983791,30,Man
84,200140,DepthScenes,duration_manipulation_targetAtFixation,jsons/v1_VE250_randls_56_rotated.json,http://54.235.29.9/FacialAge/BNav_EC2/DepthDuration/v2_depth_duration_MTurk/v2_DepthDuration_HTML.html#125,125,1197,1148,1920,1080,8-20-2022,10-10-45,85,depth_duration_stimuli/000709_2014-06-08_13-51-55_260595134347_rgbf000068-resize_3/000709_2014-06-08_13-51-55_260595134347_rgbf000068-resize_3-target.png,250,1.8030000000000002,4,1959,263,feet,jsons/v1_VE250_randls_56_rotated.json,642779,983791,30,Man
85,200140,DepthScenes,duration_manipulation_targetAtFixation,jsons/v1_VE250_randls_56_rotated.json,http://54.235.29.9/FacialAge/BNav_EC2/DepthDuration/v2_depth_duration_MTurk/v2_DepthDuration_HTML.html#125,125,1197,1148,1920,1080,8-20-2022,10-10-45,86,depth_duration_stimuli/002057_2014-06-24_21-00-13_260595134347_rgbf000120-resize_1/002057_2014-06-24_21-00-13_260595134347_rgbf000120-resize_1-target.png,250,2.967,9,1567,251,feet,jsons/v1_VE250_randls_56_rotated.json,642779,983791,30,Man
86,200140,DepthScenes,duration_manipulation_targetAtFixation,jsons/v1_VE250_randls_56_rotated.json,http://54.235.29.9/FacialAge/BNav_EC2/DepthDuration/v2_depth_duration_MTurk/v2_DepthDuration_HTML.html#125,125,1197,1148,1920,1080,8-20-2022,10-10-45,87,depth_duration_stimuli/001132_2014-06-17_14-48-54_260595134347_rgbf000100-resize_2/001132_2014-06-17_14-48-54_260595134347_rgbf000100-resize_2-target.png,250,3.753,4,1587,250,feet,jsons/v1_VE250_randls_56_rotated.json,642779,983791,30,Man
87,200140,DepthScenes,duration_manipulation_targetAtFixation,jsons/v1_VE250_randls_56_rotated.json,http://54.235.29.9/FacialAge/BNav_EC2/DepthDuration/v2_depth_duration_MTurk/v2_DepthDuration_HTML.html#125,125,1197,1148,1920,1080,8-20-2022,10-10-45,88,depth_duration_stimuli/001133_2014-06-17_14-49-16_260595134347_rgbf000100-resize_0/001133_2014-06-17_14-49-16_260595134347_rgbf000100-resize_0-target.png,250,4.2115,7,1837,246,feet,jsons/v1_VE250_randls_56_rotated.json,642779,983791,30,Man
88,200140,DepthScenes,duration_manipulation_targetAtFixation,jsons/v1_VE250_randls_56_rotated.json,http://54.235.29.9/FacialAge/BNav_EC2/DepthDuration/v2_depth_duration_MTurk/v2_DepthDuration_HTML.html#125,125,1197,1148,1920,1080,8-20-2022,10-10-45,89,depth_duration_stimuli/001235_2014-06-17_16-37-36_260595134347_rgbf000084-resize_4/001235_2014-06-17_16-37-36_260595134347_rgbf000084-resize_4-target.png,250,3.6605,8,1819,251,feet,jsons/v1_VE250_randls_56_rotated.json,642779,983791,30,Man
89,200140,DepthScenes,duration_manipulation_targetAtFixation,jsons/v1_VE250_randls_56_rotated.json,http://54.235.29.9/FacialAge/BNav_EC2/DepthDuration/v2_depth_duration_MTurk/v2_DepthDuration_HTML.html#125,125,1197,1148,1920,1080,8-20-2022,10-10-45,90,depth_duration_stimuli/000788_2014-06-08_22-34-36_260595134347_rgbf000131-resize_1/000788_2014-06-08_22-34-36_260595134347_rgbf000131-resize_1-target.png,250,3.359,4,2019,250,feet,jsons/v1_VE250_randls_56_rotated.json,642779,983791,30,Man
90,200140,DepthScenes,duration_manipulation_targetAtFixation,jsons/v1_VE250_randls_56_rotated.json,http://54.235.29.9/FacialAge/BNav_EC2/DepthDuration/v2_depth_duration_MTurk/v2_DepthDuration_HTML.html#125,125,1197,1148,1920,1080,8-20-2022,10-10-45,91,depth_duration_stimuli/003083_2014-06-15_15-21-03_094959634447_rgbf000063-resize_1/003083_2014-06-15_15-21-03_094959634447_rgbf000063-resize_1-target.png,250,4.1405,9,1831,249,feet,jsons/v1_VE250_randls_56_rotated.json,642779,983791,30,Man
91,200140,DepthScenes,duration_manipulation_targetAtFixation,jsons/v1_VE250_randls_56_rotated.json,http://54.235.29.9/FacialAge/BNav_EC2/DepthDuration/v2_depth_duration_MTurk/v2_DepthDuration_HTML.html#125,125,1197,1148,1920,1080,8-20-2022,10-10-45,92,depth_duration_stimuli/000486_2014-06-09_20-47-20_260595134347_rgbf000143-resize_2/000486_2014-06-09_20-47-20_260595134347_rgbf000143-resize_2-target.png,250,4.8325,6,1644,251,feet,jsons/v1_VE250_randls_56_rotated.json,642779,983791,30,Man
92,200140,DepthScenes,duration_manipulation_targetAtFixation,jsons/v1_VE250_randls_56_rotated.json,http://54.235.29.9/FacialAge/BNav_EC2/DepthDuration/v2_depth_duration_MTurk/v2_DepthDuration_HTML.html#125,125,1197,1148,1920,1080,8-20-2022,10-10-45,93,depth_duration_stimuli/001516_2014-06-20_16-25-09_260595134347_rgbf000076-resize_2/001516_2014-06-20_16-25-09_260595134347_rgbf000076-resize_2-target.png,250,1.7445,5,1584,250,feet,jsons/v1_VE250_randls_56_rotated.json,642779,983791,30,Man
93,200140,DepthScenes,duration_manipulation_targetAtFixation,jsons/v1_VE250_randls_56_rotated.json,http://54.235.29.9/FacialAge/BNav_EC2/DepthDuration/v2_depth_duration_MTurk/v2_DepthDuration_HTML.html#125,125,1197,1148,1920,1080,8-20-2022,10-10-45,94,depth_duration_stimuli/002118_2014-06-25_20-32-08_260595134347_rgbf000078-resize_1/002118_2014-06-25_20-32-08_260595134347_rgbf000078-resize_1-target.png,250,2.6460000000000004,5,1459,246,feet,jsons/v1_VE250_randls_56_rotated.json,642779,983791,30,Man
94,200140,DepthScenes,duration_manipulation_targetAtFixation,jsons/v1_VE250_randls_56_rotated.json,http://54.235.29.9/FacialAge/BNav_EC2/DepthDuration/v2_depth_duration_MTurk/v2_DepthDuration_HTML.html#125,125,1197,1148,1920,1080,8-20-2022,10-10-45,95,depth_duration_stimuli/002425_2014-06-28_20-27-29_260595134347_rgbf000031-resize_8/002425_2014-06-28_20-27-29_260595134347_rgbf000031-resize_8-target.png,250,3.8960000000000004,6,2098,244,feet,jsons/v1_VE250_randls_56_rotated.json,642779,983791,30,Man
95,200140,DepthScenes,duration_manipulation_targetAtFixation,jsons/v1_VE250_randls_56_rotated.json,http://54.235.29.9/FacialAge/BNav_EC2/DepthDuration/v2_depth_duration_MTurk/v2_DepthDuration_HTML.html#125,125,1197,1148,1920,1080,8-20-2022,10-10-45,96,depth_duration_stimuli/000642_2014-06-08_16-59-25_260595134347_rgbf000098-resize_2/000642_2014-06-08_16-59-25_260595134347_rgbf000098-resize_2-target.png,250,2.8815,5,1554,247,feet,jsons/v1_VE250_randls_56_rotated.json,642779,983791,30,Man
96,200140,DepthScenes,duration_manipulation_targetAtFixation,jsons/v1_VE250_randls_56_rotated.json,http://54.235.29.9/FacialAge/BNav_EC2/DepthDuration/v2_depth_duration_MTurk/v2_DepthDuration_HTML.html#125,125,1197,1148,1920,1080,8-20-2022,10-10-45,97,depth_duration_stimuli/000483_2014-06-09_20-41-45_260595134347_rgbf000116-resize_4/000483_2014-06-09_20-41-45_260595134347_rgbf000116-resize_4-target.png,250,1.337,4,1387,247,feet,jsons/v1_VE250_randls_56_rotated.json,642779,983791,30,Man
97,200140,DepthScenes,duration_manipulation_targetAtFixation,jsons/v1_VE250_randls_56_rotated.json,http://54.235.29.9/FacialAge/BNav_EC2/DepthDuration/v2_depth_duration_MTurk/v2_DepthDuration_HTML.html#125,125,1197,1148,1920,1080,8-20-2022,10-10-45,98,depth_duration_stimuli/000469_2014-06-09_19-42-10_260595134347_rgbf000081-resize_1/000469_2014-06-09_19-42-10_260595134347_rgbf000081-resize_1-target.png,250,1.652,3,1348,249,feet,jsons/v1_VE250_randls_56_rotated.json,642779,983791,30,Man
98,200140,DepthScenes,duration_manipulation_targetAtFixation,jsons/v1_VE250_randls_56_rotated.json,http://54.235.29.9/FacialAge/BNav_EC2/DepthDuration/v2_depth_duration_MTurk/v2_DepthDuration_HTML.html#125,125,1197,1148,1920,1080,8-20-2022,10-10-45,99,depth_duration_stimuli/001222_2014-06-17_16-24-06_260595134347_rgbf000073-resize_0/001222_2014-06-17_16-24-06_260595134347_rgbf000073-resize-original.jpg,250,1.4385,0,1556,249,feet,jsons/v1_VE250_randls_56_rotated.json,642779,983791,30,Man
99,200140,DepthScenes,duration_manipulation_targetAtFixation,jsons/v1_VE250_randls_56_rotated.json,http://54.235.29.9/FacialAge/BNav_EC2/DepthDuration/v2_depth_duration_MTurk/v2_DepthDuration_HTML.html#125,125,1197,1148,1920,1080,8-20-2022,10-10-45,100,depth_duration_stimuli/000691_2014-06-08_13-08-50_260595134347_rgbf000132-resize_3/000691_2014-06-08_13-08-50_260595134347_rgbf000132-resize_3-target.png,250,4.1530000000000005,5,15516,249,feet,jsons/v1_VE250_randls_56_rotated.json,642779,983791,30,Man
100,200140,DepthScenes,duration_manipulation_targetAtFixation,jsons/v1_VE250_randls_56_rotated.json,http://54.235.29.9/FacialAge/BNav_EC2/DepthDuration/v2_depth_duration_MTurk/v2_DepthDuration_HTML.html#125,125,1197,1148,1920,1080,8-20-2022,10-10-45,101,depth_duration_stimuli/002213_2014-06-28_18-37-58_260595134347_rgbf000055-resize_1/002213_2014-06-28_18-37-58_260595134347_rgbf000055-resize_1-target.png,250,3.62,8,1422,252,feet,jsons/v1_VE250_randls_56_rotated.json,642779,983791,30,Man
101,200140,DepthScenes,duration_manipulation_targetAtFixation,jsons/v1_VE250_randls_56_rotated.json,http://54.235.29.9/FacialAge/BNav_EC2/DepthDuration/v2_depth_duration_MTurk/v2_DepthDuration_HTML.html#125,125,1197,1148,1920,1080,8-20-2022,10-10-45,102,depth_duration_stimuli/002657_2014-06-13_15-29-54_094959634447_rgbf000150-resize_1/002657_2014-06-13_15-29-54_094959634447_rgbf000150-resize_1-target.png,250,4.919,7,2250,250,feet,jsons/v1_VE250_randls_56_rotated.json,642779,983791,30,Man
102,200140,DepthScenes,duration_manipulation_targetAtFixation,jsons/v1_VE250_randls_56_rotated.json,http://54.235.29.9/FacialAge/BNav_EC2/DepthDuration/v2_depth_duration_MTurk/v2_DepthDuration_HTML.html#125,125,1197,1148,1920,1080,8-20-2022,10-10-45,103,depth_duration_stimuli/002375_2014-06-28_20-13-44_260595134347_rgbf000032-resize_1/002375_2014-06-28_20-13-44_260595134347_rgbf000032-resize_1-target.png,250,4.0175,6,1456,245,feet,jsons/v1_VE250_randls_56_rotated.json,642779,983791,30,Man
103,200140,DepthScenes,duration_manipulation_targetAtFixation,jsons/v1_VE250_randls_56_rotated.json,http://54.235.29.9/FacialAge/BNav_EC2/DepthDuration/v2_depth_duration_MTurk/v2_DepthDuration_HTML.html#125,125,1197,1148,1920,1080,8-20-2022,10-10-45,104,depth_duration_stimuli/000927_2014-06-09_16-32-30_260595134347_rgbf000123-resize_3/000927_2014-06-09_16-32-30_260595134347_rgbf000123-resize_3-target.png,250,2.6785,7,1786,258,feet,jsons/v1_VE250_randls_56_rotated.json,642779,983791,30,Man
104,200140,DepthScenes,duration_manipulation_targetAtFixation,jsons/v1_VE250_randls_56_rotated.json,http://54.235.29.9/FacialAge/BNav_EC2/DepthDuration/v2_depth_duration_MTurk/v2_DepthDuration_HTML.html#125,125,1197,1148,1920,1080,8-20-2022,10-10-45,105,depth_duration_stimuli/001110_2014-06-15_17-25-28_260595134347_rgbf000150-resize_1/001110_2014-06-15_17-25-28_260595134347_rgbf000150-resize_1-target.png,250,1.7115,5,2005,245,feet,jsons/v1_VE250_randls_56_rotated.json,642779,983791,30,Man
105,200140,DepthScenes,duration_manipulation_targetAtFixation,jsons/v1_VE250_randls_56_rotated.json,http://54.235.29.9/FacialAge/BNav_EC2/DepthDuration/v2_depth_duration_MTurk/v2_DepthDuration_HTML.html#125,125,1197,1148,1920,1080,8-20-2022,10-10-45,106,depth_duration_stimuli/001447_2014-06-19_17-00-32_260595134347_rgbf000082-resize_5/001447_2014-06-19_17-00-32_260595134347_rgbf000082-resize_5-target.png,250,4.13775,6,1499,250,feet,jsons/v1_VE250_randls_56_rotated.json,642779,983791,30,Man
106,200140,DepthScenes,duration_manipulation_targetAtFixation,jsons/v1_VE250_randls_56_rotated.json,http://54.235.29.9/FacialAge/BNav_EC2/DepthDuration/v2_depth_duration_MTurk/v2_DepthDuration_HTML.html#125,125,1197,1148,1920,1080,8-20-2022,10-10-45,107,depth_duration_stimuli/000447_2014-06-08_16-15-46_260595134347_rgbf000130-resize_1/000447_2014-06-08_16-15-46_260595134347_rgbf000130-resize_1-target.png,250,4.479,4,28348,245,feet,jsons/v1_VE250_randls_56_rotated.json,642779,983791,30,Man
107,200140,DepthScenes,duration_manipulation_targetAtFixation,jsons/v1_VE250_randls_56_rotated.json,http://54.235.29.9/FacialAge/BNav_EC2/DepthDuration/v2_depth_duration_MTurk/v2_DepthDuration_HTML.html#125,125,1197,1148,1920,1080,8-20-2022,10-10-45,108,depth_duration_stimuli/000854_2014-06-09_19-43-13_260595134347_rgbf000066-resize_0/000854_2014-06-09_19-43-13_260595134347_rgbf000066-resize_0-target.png,250,3.068,5,1839,250,feet,jsons/v1_VE250_randls_56_rotated.json,642779,983791,30,Man
108,200140,DepthScenes,duration_manipulation_targetAtFixation,jsons/v1_VE250_randls_56_rotated.json,http://54.235.29.9/FacialAge/BNav_EC2/DepthDuration/v2_depth_duration_MTurk/v2_DepthDuration_HTML.html#125,125,1197,1148,1920,1080,8-20-2022,10-10-45,109,depth_duration_stimuli/000758_2014-06-08_22-05-08_260595134347_rgbf000085-resize_0/000758_2014-06-08_22-05-08_260595134347_rgbf000085-resize_0-target.png,250,3.3810000000000002,6,1529,240,feet,jsons/v1_VE250_randls_56_rotated.json,642779,983791,30,Man
109,200140,DepthScenes,duration_manipulation_targetAtFixation,jsons/v1_VE250_randls_56_rotated.json,http://54.235.29.9/FacialAge/BNav_EC2/DepthDuration/v2_depth_duration_MTurk/v2_DepthDuration_HTML.html#125,125,1197,1148,1920,1080,8-20-2022,10-10-45,110,depth_duration_stimuli/000780_2014-06-08_22-28-29_260595134347_rgbf000126-resize_1/000780_2014-06-08_22-28-29_260595134347_rgbf000126-resize_1-target.png,250,3.3825,4,2066,251,feet,jsons/v1_VE250_randls_56_rotated.json,642779,983791,30,Man
110,200140,DepthScenes,duration_manipulation_targetAtFixation,jsons/v1_VE250_randls_56_rotated.json,http://54.235.29.9/FacialAge/BNav_EC2/DepthDuration/v2_depth_duration_MTurk/v2_DepthDuration_HTML.html#125,125,1197,1148,1920,1080,8-20-2022,10-10-45,111,depth_duration_stimuli/002445_2014-06-28_20-32-16_260595134347_rgbf000029-resize_4/002445_2014-06-28_20-32-16_260595134347_rgbf000029-resize_4-target.png,250,2.5315,4,1368,250,feet,jsons/v1_VE250_randls_56_rotated.json,642779,983791,30,Man
111,200140,DepthScenes,duration_manipulation_targetAtFixation,jsons/v1_VE250_randls_56_rotated.json,http://54.235.29.9/FacialAge/BNav_EC2/DepthDuration/v2_depth_duration_MTurk/v2_DepthDuration_HTML.html#125,125,1197,1148,1920,1080,8-20-2022,10-10-45,112,depth_duration_stimuli/001032_2014-06-08_13-23-17_260595134347_rgbf000021-resize_3/001032_2014-06-08_13-23-17_260595134347_rgbf000021-resize_3-target.png,250,3.2725,7,1456,257,feet,jsons/v1_VE250_randls_56_rotated.json,642779,983791,30,Man
112,200140,DepthScenes,duration_manipulation_targetAtFixation,jsons/v1_VE250_randls_56_rotated.json,http://54.235.29.9/FacialAge/BNav_EC2/DepthDuration/v2_depth_duration_MTurk/v2_DepthDuration_HTML.html#125,125,1197,1148,1920,1080,8-20-2022,10-10-45,113,depth_duration_stimuli/001059_2014-06-08_21-53-27_260595134347_rgbf000061-resize_4/001059_2014-06-08_21-53-27_260595134347_rgbf000061-resize_4-target.png,250,2.4185,6,1507,245,feet,jsons/v1_VE250_randls_56_rotated.json,642779,983791,30,Man
113,200140,DepthScenes,duration_manipulation_targetAtFixation,jsons/v1_VE250_randls_56_rotated.json,http://54.235.29.9/FacialAge/BNav_EC2/DepthDuration/v2_depth_duration_MTurk/v2_DepthDuration_HTML.html#125,125,1197,1148,1920,1080,8-20-2022,10-10-45,114,depth_duration_stimuli/003587_2014-05-23_16-48-02_094959634447_rgbf002384-resize_2/003587_2014-05-23_16-48-02_094959634447_rgbf002384-resize_2-target.png,250,1.357,2,1372,249,feet,jsons/v1_VE250_randls_56_rotated.json,642779,983791,30,Man
114,200140,DepthScenes,duration_manipulation_targetAtFixation,jsons/v1_VE250_randls_56_rotated.json,http://54.235.29.9/FacialAge/BNav_EC2/DepthDuration/v2_depth_duration_MTurk/v2_DepthDuration_HTML.html#125,125,1197,1148,1920,1080,8-20-2022,10-10-45,115,depth_duration_stimuli/001167_2014-06-17_15-38-07_260595134347_rgbf000108-resize_0/001167_2014-06-17_15-38-07_260595134347_rgbf000108-resize_0-target.png,250,1.8505,3,1365,263,feet,jsons/v1_VE250_randls_56_rotated.json,642779,983791,30,Man
115,200140,DepthScenes,duration_manipulation_targetAtFixation,jsons/v1_VE250_randls_56_rotated.json,http://54.235.29.9/FacialAge/BNav_EC2/DepthDuration/v2_depth_duration_MTurk/v2_DepthDuration_HTML.html#125,125,1197,1148,1920,1080,8-20-2022,10-10-45,116,depth_duration_stimuli/000457_2014-06-08_16-52-43_260595134347_rgbf000199-resize_1/000457_2014-06-08_16-52-43_260595134347_rgbf000199-resize_1-target.png,250,3.6489999999999996,6,6459,252,feet,jsons/v1_VE250_randls_56_rotated.json,642779,983791,30,Man
116,200140,DepthScenes,duration_manipulation_targetAtFixation,jsons/v1_VE250_randls_56_rotated.json,http://54.235.29.9/FacialAge/BNav_EC2/DepthDuration/v2_depth_duration_MTurk/v2_DepthDuration_HTML.html#125,125,1197,1148,1920,1080,8-20-2022,10-10-45,117,depth_duration_stimuli/000929_2014-06-09_16-33-19_260595134347_rgbf000139-resize_0/000929_2014-06-09_16-33-19_260595134347_rgbf000139-resize_0-target.png,250,2.8680000000000003,5,1448,247,feet,jsons/v1_VE250_randls_56_rotated.json,642779,983791,30,Man
117,200140,DepthScenes,duration_manipulation_targetAtFixation,jsons/v1_VE250_randls_56_rotated.json,http://54.235.29.9/FacialAge/BNav_EC2/DepthDuration/v2_depth_duration_MTurk/v2_DepthDuration_HTML.html#125,125,1197,1148,1920,1080,8-20-2022,10-10-45,118,depth_duration_stimuli/002660_2014-06-13_15-44-18_094959634447_rgbf001878-resize_2/002660_2014-06-13_15-44-18_094959634447_rgbf001878-resize_2-target.png,250,3.576,7,1451,238,feet,jsons/v1_VE250_randls_56_rotated.json,642779,983791,30,Man
118,200140,DepthScenes,duration_manipulation_targetAtFixation,jsons/v1_VE250_randls_56_rotated.json,http://54.235.29.9/FacialAge/BNav_EC2/DepthDuration/v2_depth_duration_MTurk/v2_DepthDuration_HTML.html#125,125,1197,1148,1920,1080,8-20-2022,10-10-45,119,depth_duration_stimuli/002153_2014-06-25_21-27-18_260595134347_rgbf000038-resize_5/002153_2014-06-25_21-27-18_260595134347_rgbf000038-resize_5-target.png,250,2.505,4,1769,249,feet,jsons/v1_VE250_randls_56_rotated.json,642779,983791,30,Man
119,200140,DepthScenes,duration_manipulation_targetAtFixation,jsons/v1_VE250_randls_56_rotated.json,http://54.235.29.9/FacialAge/BNav_EC2/DepthDuration/v2_depth_duration_MTurk/v2_DepthDuration_HTML.html#125,125,1197,1148,1920,1080,8-20-2022,10-10-45,120,depth_duration_stimuli/000787_2014-06-08_22-33-53_260595134347_rgbf000175-resize_1/000787_2014-06-08_22-33-53_260595134347_rgbf000175-resize-original.jpg,250,4.784,0,1681,246,feet,jsons/v1_VE250_randls_56_rotated.json,642779,983791,30,Man
120,200140,DepthScenes,duration_manipulation_targetAtFixation,jsons/v1_VE250_randls_56_rotated.json,http://54.235.29.9/FacialAge/BNav_EC2/DepthDuration/v2_depth_duration_MTurk/v2_DepthDuration_HTML.html#125,125,1197,1148,1920,1080,8-20-2022,10-10-45,121,depth_duration_stimuli/002953_2014-06-08_17-32-18_094959634447_rgbf000059-resize_5/002953_2014-06-08_17-32-18_094959634447_rgbf000059-resize_5-target.png,250,1.551,3,1449,249,feet,jsons/v1_VE250_randls_56_rotated.json,642779,983791,30,Man
121,200140,DepthScenes,duration_manipulation_targetAtFixation,jsons/v1_VE250_randls_56_rotated.json,http://54.235.29.9/FacialAge/BNav_EC2/DepthDuration/v2_depth_duration_MTurk/v2_DepthDuration_HTML.html#125,125,1197,1148,1920,1080,8-20-2022,10-10-45,122,depth_duration_stimuli/000878_2014-06-08_22-52-45_260595134347_rgbf000045-resize_2/000878_2014-06-08_22-52-45_260595134347_rgbf000045-resize_2-target.png,250,2.092,5,1447,253,feet,jsons/v1_VE250_randls_56_rotated.json,642779,983791,30,Man
122,200140,DepthScenes,duration_manipulation_targetAtFixation,jsons/v1_VE250_randls_56_rotated.json,http://54.235.29.9/FacialAge/BNav_EC2/DepthDuration/v2_depth_duration_MTurk/v2_DepthDuration_HTML.html#125,125,1197,1148,1920,1080,8-20-2022,10-10-45,123,depth_duration_stimuli/003423_2014-05-21_10-23-26_094959634447_rgbf002665-resize_2/003423_2014-05-21_10-23-26_094959634447_rgbf002665-resize_2-target.png,250,3.2575,8,1423,249,feet,jsons/v1_VE250_randls_56_rotated.json,642779,983791,30,Man
123,200140,DepthScenes,duration_manipulation_targetAtFixation,jsons/v1_VE250_randls_56_rotated.json,http://54.235.29.9/FacialAge/BNav_EC2/DepthDuration/v2_depth_duration_MTurk/v2_DepthDuration_HTML.html#125,125,1197,1148,1920,1080,8-20-2022,10-10-45,124,depth_duration_stimuli/002905_2014-06-03_18-04-43_094959634447_rgbf000151-resize_2/002905_2014-06-03_18-04-43_094959634447_rgbf000151-resize_2-target.png,250,2.0295,4,1430,250,feet,jsons/v1_VE250_randls_56_rotated.json,642779,983791,30,Man
124,200140,DepthScenes,duration_manipulation_targetAtFixation,jsons/v1_VE250_randls_56_rotated.json,http://54.235.29.9/FacialAge/BNav_EC2/DepthDuration/v2_depth_duration_MTurk/v2_DepthDuration_HTML.html#125,125,1197,1148,1920,1080,8-20-2022,10-10-45,125,depth_duration_stimuli/000191_2014-05-12_17-07-38_260595134347_rgbf000199-resize_0/000191_2014-05-12_17-07-38_260595134347_rgbf000199-resize_0-target.png,250,3.7995,8,1445,249,feet,jsons/v1_VE250_randls_56_rotated.json,642779,983791,30,Man
125,200140,DepthScenes,duration_manipulation_targetAtFixation,jsons/v1_VE250_randls_56_rotated.json,http://54.235.29.9/FacialAge/BNav_EC2/DepthDuration/v2_depth_duration_MTurk/v2_DepthDuration_HTML.html#125,125,1197,1148,1920,1080,8-20-2022,10-10-45,126,depth_duration_stimuli/000493_2014-06-09_21-01-18_260595134347_rgbf000196-resize_3/000493_2014-06-09_21-01-18_260595134347_rgbf000196-resize_3-target.png,250,3.44,6,1437,249,feet,jsons/v1_VE250_randls_56_rotated.json,642779,983791,30,Man
126,200140,DepthScenes,duration_manipulation_targetAtFixation,jsons/v1_VE250_randls_56_rotated.json,http://54.235.29.9/FacialAge/BNav_EC2/DepthDuration/v2_depth_duration_MTurk/v2_DepthDuration_HTML.html#125,125,1197,1148,1920,1080,8-20-2022,10-10-45,127,depth_duration_stimuli/001571_2014-06-20_17-21-32_260595134347_rgbf000089-resize_1/001571_2014-06-20_17-21-32_260595134347_rgbf000089-resize_1-target.png,250,1.86,4,62522,255,feet,jsons/v1_VE250_randls_56_rotated.json,642779,983791,30,Man
127,200140,DepthScenes,duration_manipulation_targetAtFixation,jsons/v1_VE250_randls_56_rotated.json,http://54.235.29.9/FacialAge/BNav_EC2/DepthDuration/v2_depth_duration_MTurk/v2_DepthDuration_HTML.html#125,125,1197,1148,1920,1080,8-20-2022,10-10-45,128,depth_duration_stimuli/002272_2014-06-28_18-53-56_260595134347_rgbf000067-resize_2/002272_2014-06-28_18-53-56_260595134347_rgbf000067-resize_2-target.png,250,1.138,0,1644,249,feet,jsons/v1_VE250_randls_56_rotated.json,642779,983791,30,Man
128,200140,DepthScenes,duration_manipulation_targetAtFixation,jsons/v1_VE250_randls_56_rotated.json,http://54.235.29.9/FacialAge/BNav_EC2/DepthDuration/v2_depth_duration_MTurk/v2_DepthDuration_HTML.html#125,125,1197,1148,1920,1080,8-20-2022,10-10-45,129,depth_duration_stimuli/002568_2014-06-24_13-59-21_094959634447_rgbf000062-resize_4/002568_2014-06-24_13-59-21_094959634447_rgbf000062-resize_4-target.png,250,3.015,6,2041,250,feet,jsons/v1_VE250_randls_56_rotated.json,642779,983791,30,Man
129,200140,DepthScenes,duration_manipulation_targetAtFixation,jsons/v1_VE250_randls_56_rotated.json,http://54.235.29.9/FacialAge/BNav_EC2/DepthDuration/v2_depth_duration_MTurk/v2_DepthDuration_HTML.html#125,125,1197,1148,1920,1080,8-20-2022,10-10-45,130,depth_duration_stimuli/003492_2014-05-21_15-50-55_094959634447_rgbf000828-resize_1/003492_2014-05-21_15-50-55_094959634447_rgbf000828-resize_1-target.png,250,4.06875,5,2012,236,feet,jsons/v1_VE250_randls_56_rotated.json,642779,983791,30,Man
130,200140,DepthScenes,duration_manipulation_targetAtFixation,jsons/v1_VE250_randls_56_rotated.json,http://54.235.29.9/FacialAge/BNav_EC2/DepthDuration/v2_depth_duration_MTurk/v2_DepthDuration_HTML.html#125,125,1197,1148,1920,1080,8-20-2022,10-10-45,131,depth_duration_stimuli/000549_2014-06-08_22-10-24_260595134347_rgbf000247-resize_3/000549_2014-06-08_22-10-24_260595134347_rgbf000247-resize_3-target.png,250,1.841,2,1737,247,feet,jsons/v1_VE250_randls_56_rotated.json,642779,983791,30,Man
131,200140,DepthScenes,duration_manipulation_targetAtFixation,jsons/v1_VE250_randls_56_rotated.json,http://54.235.29.9/FacialAge/BNav_EC2/DepthDuration/v2_depth_duration_MTurk/v2_DepthDuration_HTML.html#125,125,1197,1148,1920,1080,8-20-2022,10-10-45,132,depth_duration_stimuli/001055_2014-06-08_18-45-35_260595134347_rgbf000111-resize_4/001055_2014-06-08_18-45-35_260595134347_rgbf000111-resize_4-target.png,250,2.4290000000000003,6,1582,254,feet,jsons/v1_VE250_randls_56_rotated.json,642779,983791,30,Man
132,200140,DepthScenes,duration_manipulation_targetAtFixation,jsons/v1_VE250_randls_56_rotated.json,http://54.235.29.9/FacialAge/BNav_EC2/DepthDuration/v2_depth_duration_MTurk/v2_DepthDuration_HTML.html#125,125,1197,1148,1920,1080,8-20-2022,10-10-45,133,depth_duration_stimuli/002323_2014-06-28_20-01-54_260595134347_rgbf000051-resize_4/002323_2014-06-28_20-01-54_260595134347_rgbf000051-resize_4-target.png,250,3.7310000000000003,8,1338,252,feet,jsons/v1_VE250_randls_56_rotated.json,642779,983791,30,Man
133,200140,DepthScenes,duration_manipulation_targetAtFixation,jsons/v1_VE250_randls_56_rotated.json,http://54.235.29.9/FacialAge/BNav_EC2/DepthDuration/v2_depth_duration_MTurk/v2_DepthDuration_HTML.html#125,125,1197,1148,1920,1080,8-20-2022,10-10-45,134,depth_duration_stimuli/000917_2014-06-09_22-45-29_260595134347_rgbf000149-resize_3/000917_2014-06-09_22-45-29_260595134347_rgbf000149-resize_3-target.png,250,4.1865,9,1620,249,feet,jsons/v1_VE250_randls_56_rotated.json,642779,983791,30,Man
134,200140,DepthScenes,duration_manipulation_targetAtFixation,jsons/v1_VE250_randls_56_rotated.json,http://54.235.29.9/FacialAge/BNav_EC2/DepthDuration/v2_depth_duration_MTurk/v2_DepthDuration_HTML.html#125,125,1197,1148,1920,1080,8-20-2022,10-10-45,135,depth_duration_stimuli/000375_2014-06-08_11-17-29_260595134347_rgbf000133-resize_2/000375_2014-06-08_11-17-29_260595134347_rgbf000133-resize-original.jpg,250,4.718,0,1378,246,feet,jsons/v1_VE250_randls_56_rotated.json,642779,983791,30,Man
135,200140,DepthScenes,duration_manipulation_targetAtFixation,jsons/v1_VE250_randls_56_rotated.json,http://54.235.29.9/FacialAge/BNav_EC2/DepthDuration/v2_depth_duration_MTurk/v2_DepthDuration_HTML.html#125,125,1197,1148,1920,1080,8-20-2022,10-10-45,136,depth_duration_stimuli/001828_2014-06-26_21-40-03_260595134347_rgbf000024-resize_0/001828_2014-06-26_21-40-03_260595134347_rgbf000024-resize_0-target.png,250,4.8260000000000005,8,23519,262,feet,jsons/v1_VE250_randls_56_rotated.json,642779,983791,30,Man
136,200140,DepthScenes,duration_manipulation_targetAtFixation,jsons/v1_VE250_randls_56_rotated.json,http://54.235.29.9/FacialAge/BNav_EC2/DepthDuration/v2_depth_duration_MTurk/v2_DepthDuration_HTML.html#125,125,1197,1148,1920,1080,8-20-2022,10-10-45,137,depth_duration_stimuli/000009_2014-05-26_14-32-05_260595134347_rgbf000034-resize_3/000009_2014-05-26_14-32-05_260595134347_rgbf000034-resize_3-target.png,250,3.8715,8,1467,250,feet,jsons/v1_VE250_randls_56_rotated.json,642779,983791,30,Man
137,200140,DepthScenes,duration_manipulation_targetAtFixation,jsons/v1_VE250_randls_56_rotated.json,http://54.235.29.9/FacialAge/BNav_EC2/DepthDuration/v2_depth_duration_MTurk/v2_DepthDuration_HTML.html#125,125,1197,1148,1920,1080,8-20-2022,10-10-45,138,depth_duration_stimuli/001100_2014-06-15_17-46-26_260595134347_rgbf000225-resize_2/001100_2014-06-15_17-46-26_260595134347_rgbf000225-resize_2-target.png,250,2.24,3,1740,250,feet,jsons/v1_VE250_randls_56_rotated.json,642779,983791,30,Man
138,200140,DepthScenes,duration_manipulation_targetAtFixation,jsons/v1_VE250_randls_56_rotated.json,http://54.235.29.9/FacialAge/BNav_EC2/DepthDuration/v2_depth_duration_MTurk/v2_DepthDuration_HTML.html#125,125,1197,1148,1920,1080,8-20-2022,10-10-45,139,depth_duration_stimuli/002784_2014-06-22_19-26-30_094959634447_rgbf000083-resize_3/002784_2014-06-22_19-26-30_094959634447_rgbf000083-resize_3-target.png,250,1.8046666666667,4,1525,261,feet,jsons/v1_VE250_randls_56_rotated.json,642779,983791,30,Man
139,200140,DepthScenes,duration_manipulation_targetAtFixation,jsons/v1_VE250_randls_56_rotated.json,http://54.235.29.9/FacialAge/BNav_EC2/DepthDuration/v2_depth_duration_MTurk/v2_DepthDuration_HTML.html#125,125,1197,1148,1920,1080,8-20-2022,10-10-45,140,depth_duration_stimuli/002103_2014-06-25_20-00-40_260595134347_rgbf000049-resize_0/002103_2014-06-25_20-00-40_260595134347_rgbf000049-resize_0-target.png,250,4.105,5,1787,243,feet,jsons/v1_VE250_randls_56_rotated.json,642779,983791,30,Man
140,200140,DepthScenes,duration_manipulation_targetAtFixation,jsons/v1_VE250_randls_56_rotated.json,http://54.235.29.9/FacialAge/BNav_EC2/DepthDuration/v2_depth_duration_MTurk/v2_DepthDuration_HTML.html#125,125,1197,1148,1920,1080,8-20-2022,10-10-45,141,depth_duration_stimuli/002039_2014-06-24_20-22-38_260595134347_rgbf000084-resize_1/002039_2014-06-24_20-22-38_260595134347_rgbf000084-resize_1-target.png,250,4.408,9,1721,241,feet,jsons/v1_VE250_randls_56_rotated.json,642779,983791,30,Man
141,200140,DepthScenes,duration_manipulation_targetAtFixation,jsons/v1_VE250_randls_56_rotated.json,http://54.235.29.9/FacialAge/BNav_EC2/DepthDuration/v2_depth_duration_MTurk/v2_DepthDuration_HTML.html#125,125,1197,1148,1920,1080,8-20-2022,10-10-45,142,depth_duration_stimuli/002639_2014-06-24_14-51-37_094959634447_rgbf000074-resize_4/002639_2014-06-24_14-51-37_094959634447_rgbf000074-resize_4-target.png,250,4.0375,7,1421,251,feet,jsons/v1_VE250_randls_56_rotated.json,642779,983791,30,Man
142,200140,DepthScenes,duration_manipulation_targetAtFixation,jsons/v1_VE250_randls_56_rotated.json,http://54.235.29.9/FacialAge/BNav_EC2/DepthDuration/v2_depth_duration_MTurk/v2_DepthDuration_HTML.html#125,125,1197,1148,1920,1080,8-20-2022,10-10-45,143,depth_duration_stimuli/003292_2014-05-14_21-53-49_094959634447_rgbf000100-resize_2/003292_2014-05-14_21-53-49_094959634447_rgbf000100-resize_2-target.png,250,3.4815,5,1474,258,feet,jsons/v1_VE250_randls_56_rotated.json,642779,983791,30,Man
143,200140,DepthScenes,duration_manipulation_targetAtFixation,jsons/v1_VE250_randls_56_rotated.json,http://54.235.29.9/FacialAge/BNav_EC2/DepthDuration/v2_depth_duration_MTurk/v2_DepthDuration_HTML.html#125,125,1197,1148,1920,1080,8-20-2022,10-10-45,144,depth_duration_stimuli/000109_2014-05-14_23-41-52_260595134347_rgbf000035-resize_9/000109_2014-05-14_23-41-52_260595134347_rgbf000035-resize_9-target.png,250,1.3545,2,1877,247,feet,jsons/v1_VE250_randls_56_rotated.json,642779,983791,30,Man
144,200140,DepthScenes,duration_manipulation_targetAtFixation,jsons/v1_VE250_randls_56_rotated.json,http://54.235.29.9/FacialAge/BNav_EC2/DepthDuration/v2_depth_duration_MTurk/v2_DepthDuration_HTML.html#125,125,1197,1148,1920,1080,8-20-2022,10-10-45,145,depth_duration_stimuli/000470_2014-06-09_19-42-40_260595134347_rgbf000094-resize_1/000470_2014-06-09_19-42-40_260595134347_rgbf000094-resize_1-target.png,250,1.831,4,1721,247,feet,jsons/v1_VE250_randls_56_rotated.json,642779,983791,30,Man
145,200140,DepthScenes,duration_manipulation_targetAtFixation,jsons/v1_VE250_randls_56_rotated.json,http://54.235.29.9/FacialAge/BNav_EC2/DepthDuration/v2_depth_duration_MTurk/v2_DepthDuration_HTML.html#125,125,1197,1148,1920,1080,8-20-2022,10-10-45,146,depth_duration_stimuli/001094_2014-06-15_17-36-00_260595134347_rgbf000205-resize_0/001094_2014-06-15_17-36-00_260595134347_rgbf000205-resize_0-target.png,250,4.2175,8,3918,260,feet,jsons/v1_VE250_randls_56_rotated.json,642779,983791,30,Man
146,200140,DepthScenes,duration_manipulation_targetAtFixation,jsons/v1_VE250_randls_56_rotated.json,http://54.235.29.9/FacialAge/BNav_EC2/DepthDuration/v2_depth_duration_MTurk/v2_DepthDuration_HTML.html#125,125,1197,1148,1920,1080,8-20-2022,10-10-45,147,depth_duration_stimuli/000692_2014-06-08_13-09-42_260595134347_rgbf000199-resize_2/000692_2014-06-08_13-09-42_260595134347_rgbf000199-resize_2-target.png,250,3.661,9,1520,236,feet,jsons/v1_VE250_randls_56_rotated.json,642779,983791,30,Man
147,200140,DepthScenes,duration_manipulation_targetAtFixation,jsons/v1_VE250_randls_56_rotated.json,http://54.235.29.9/FacialAge/BNav_EC2/DepthDuration/v2_depth_duration_MTurk/v2_DepthDuration_HTML.html#125,125,1197,1148,1920,1080,8-20-2022,10-10-45,148,depth_duration_stimuli/000556_2014-06-09_22-42-56_260595134347_rgbf000214-resize_1/000556_2014-06-09_22-42-56_260595134347_rgbf000214-resize_1-target.png,250,4.8415,6,5805,247,feet,jsons/v1_VE250_randls_56_rotated.json,642779,983791,30,Man
148,200140,DepthScenes,duration_manipulation_targetAtFixation,jsons/v1_VE250_randls_56_rotated.json,http://54.235.29.9/FacialAge/BNav_EC2/DepthDuration/v2_depth_duration_MTurk/v2_DepthDuration_HTML.html#125,125,1197,1148,1920,1080,8-20-2022,10-10-45,149,depth_duration_stimuli/001158_2014-06-17_15-32-16_260595134347_rgbf000138-resize_2/001158_2014-06-17_15-32-16_260595134347_rgbf000138-resize_2-target.png,250,4.5315,10,1849,247,feet,jsons/v1_VE250_randls_56_rotated.json,642779,983791,30,Man
149,200140,DepthScenes,duration_manipulation_targetAtFixation,jsons/v1_VE250_randls_56_rotated.json,http://54.235.29.9/FacialAge/BNav_EC2/DepthDuration/v2_depth_duration_MTurk/v2_DepthDuration_HTML.html#125,125,1197,1148,1920,1080,8-20-2022,10-10-45,150,depth_duration_stimuli/003010_2014-06-15_12-54-35_094959634447_rgbf000112-resize_0/003010_2014-06-15_12-54-35_094959634447_rgbf000112-resize_0-target.png,250,3.1185,5,1793,262,feet,jsons/v1_VE250_randls_56_rotated.json,642779,983791,30,Man
150,200140,DepthScenes,duration_manipulation_targetAtFixation,jsons/v1_VE250_randls_56_rotated.json,http://54.235.29.9/FacialAge/BNav_EC2/DepthDuration/v2_depth_duration_MTurk/v2_DepthDuration_HTML.html#125,125,1197,1148,1920,1080,8-20-2022,10-10-45,151,depth_duration_stimuli/001810_2014-06-26_20-51-35_260595134347_rgbf000040-resize_3/001810_2014-06-26_20-51-35_260595134347_rgbf000040-resize_3-target.png,250,2.2525,4,1374,247,feet,jsons/v1_VE250_randls_56_rotated.json,642779,983791,30,Man
151,200140,DepthScenes,duration_manipulation_targetAtFixation,jsons/v1_VE250_randls_56_rotated.json,http://54.235.29.9/FacialAge/BNav_EC2/DepthDuration/v2_depth_duration_MTurk/v2_DepthDuration_HTML.html#125,125,1197,1148,1920,1080,8-20-2022,10-10-45,152,depth_duration_stimuli/000569_2014-06-09_22-51-47_260595134347_rgbf000141-resize_3/000569_2014-06-09_22-51-47_260595134347_rgbf000141-resize-original.jpg,250,4.512,0,1410,238,feet,jsons/v1_VE250_randls_56_rotated.json,642779,983791,30,Man
152,200140,DepthScenes,duration_manipulation_targetAtFixation,jsons/v1_VE250_randls_56_rotated.json,http://54.235.29.9/FacialAge/BNav_EC2/DepthDuration/v2_depth_duration_MTurk/v2_DepthDuration_HTML.html#125,125,1197,1148,1920,1080,8-20-2022,10-10-45,153,depth_duration_stimuli/002136_2014-06-25_21-18-03_260595134347_rgbf000109-resize_3/002136_2014-06-25_21-18-03_260595134347_rgbf000109-resize_3-target.png,250,1.9569999999999999,6,1412,250,feet,jsons/v1_VE250_randls_56_rotated.json,642779,983791,30,Man
153,200140,DepthScenes,duration_manipulation_targetAtFixation,jsons/v1_VE250_randls_56_rotated.json,http://54.235.29.9/FacialAge/BNav_EC2/DepthDuration/v2_depth_duration_MTurk/v2_DepthDuration_HTML.html#125,125,1197,1148,1920,1080,8-20-2022,10-10-45,154,depth_duration_stimuli/002964_2014-06-08_17-46-11_094959634447_rgbf000091-resize_4/002964_2014-06-08_17-46-11_094959634447_rgbf000091-resize_4-target.png,250,1.6909999999999998,2,2279,254,feet,jsons/v1_VE250_randls_56_rotated.json,642779,983791,30,Man
154,200140,DepthScenes,duration_manipulation_targetAtFixation,jsons/v1_VE250_randls_56_rotated.json,http://54.235.29.9/FacialAge/BNav_EC2/DepthDuration/v2_depth_duration_MTurk/v2_DepthDuration_HTML.html#125,125,1197,1148,1920,1080,8-20-2022,10-10-45,155,depth_duration_stimuli/002209_2014-06-28_18-36-10_260595134347_rgbf000051-resize_1/002209_2014-06-28_18-36-10_260595134347_rgbf000051-resize_1-target.png,250,2.057,4,1425,247,feet,jsons/v1_VE250_randls_56_rotated.json,642779,983791,30,Man
155,200140,DepthScenes,duration_manipulation_targetAtFixation,jsons/v1_VE250_randls_56_rotated.json,http://54.235.29.9/FacialAge/BNav_EC2/DepthDuration/v2_depth_duration_MTurk/v2_DepthDuration_HTML.html#125,125,1197,1148,1920,1080,8-20-2022,10-10-45,156,depth_duration_stimuli/002763_2014-06-22_19-13-10_094959634447_rgbf000075-resize_4/002763_2014-06-22_19-13-10_094959634447_rgbf000075-resize_4-target.png,250,1.68375,6,1845,249,feet,jsons/v1_VE250_randls_56_rotated.json,642779,983791,30,Man
156,200140,DepthScenes,duration_manipulation_targetAtFixation,jsons/v1_VE250_randls_56_rotated.json,http://54.235.29.9/FacialAge/BNav_EC2/DepthDuration/v2_depth_duration_MTurk/v2_DepthDuration_HTML.html#125,125,1197,1148,1920,1080,8-20-2022,10-10-45,157,depth_duration_stimuli/000103_2014-05-14_22-01-17_260595134347_rgbf000152-resize_5/000103_2014-05-14_22-01-17_260595134347_rgbf000152-resize_5-target.png,250,1.993,8,1604,248,feet,jsons/v1_VE250_randls_56_rotated.json,642779,983791,30,Man
157,200140,DepthScenes,duration_manipulation_targetAtFixation,jsons/v1_VE250_randls_56_rotated.json,http://54.235.29.9/FacialAge/BNav_EC2/DepthDuration/v2_depth_duration_MTurk/v2_DepthDuration_HTML.html#125,125,1197,1148,1920,1080,8-20-2022,10-10-45,158,depth_duration_stimuli/001555_2014-06-20_17-12-10_260595134347_rgbf000065-resize_4/001555_2014-06-20_17-12-10_260595134347_rgbf000065-resize_4-target.png,250,1.633,5,1784,238,feet,jsons/v1_VE250_randls_56_rotated.json,642779,983791,30,Man
158,200140,DepthScenes,duration_manipulation_targetAtFixation,jsons/v1_VE250_randls_56_rotated.json,http://54.235.29.9/FacialAge/BNav_EC2/DepthDuration/v2_depth_duration_MTurk/v2_DepthDuration_HTML.html#125,125,1197,1148,1920,1080,8-20-2022,10-10-45,159,depth_duration_stimuli/000677_2014-06-08_23-10-32_260595134347_rgbf000158-resize_6/000677_2014-06-08_23-10-32_260595134347_rgbf000158-resize_6-target.png,250,3.556,8,1443,240,feet,jsons/v1_VE250_randls_56_rotated.json,642779,983791,30,Man
159,200140,DepthScenes,duration_manipulation_targetAtFixation,jsons/v1_VE250_randls_56_rotated.json,http://54.235.29.9/FacialAge/BNav_EC2/DepthDuration/v2_depth_duration_MTurk/v2_DepthDuration_HTML.html#125,125,1197,1148,1920,1080,8-20-2022,10-10-45,160,depth_duration_stimuli/001029_2014-06-08_13-17-57_260595134347_rgbf000065-resize_1/001029_2014-06-08_13-17-57_260595134347_rgbf000065-resize_1-target.png,250,3.0835,7,1316,250,feet,jsons/v1_VE250_randls_56_rotated.json,642779,983791,30,Man
160,200140,DepthScenes,duration_manipulation_targetAtFixation,jsons/v1_VE250_randls_56_rotated.json,http://54.235.29.9/FacialAge/BNav_EC2/DepthDuration/v2_depth_duration_MTurk/v2_DepthDuration_HTML.html#125,125,1197,1148,1920,1080,8-20-2022,10-10-45,161,depth_duration_stimuli/003129_2014-05-12_10-48-10_094959634447_rgbf000100-resize_0/003129_2014-05-12_10-48-10_094959634447_rgbf000100-resize_0-target.png,250,4.9305,10,1521,251,feet,jsons/v1_VE250_randls_56_rotated.json,642779,983791,30,Man
161,200140,DepthScenes,duration_manipulation_targetAtFixation,jsons/v1_VE250_randls_56_rotated.json,http://54.235.29.9/FacialAge/BNav_EC2/DepthDuration/v2_depth_duration_MTurk/v2_DepthDuration_HTML.html#125,125,1197,1148,1920,1080,8-20-2022,10-10-45,162,depth_duration_stimuli/000414_2014-06-04_19-49-13_260595134347_rgbf000044-resize_0/000414_2014-06-04_19-49-13_260595134347_rgbf000044-resize_0-target.png,250,4.329,9,1703,258,feet,jsons/v1_VE250_randls_56_rotated.json,642779,983791,30,Man
162,200140,DepthScenes,duration_manipulation_targetAtFixation,jsons/v1_VE250_randls_56_rotated.json,http://54.235.29.9/FacialAge/BNav_EC2/DepthDuration/v2_depth_duration_MTurk/v2_DepthDuration_HTML.html#125,125,1197,1148,1920,1080,8-20-2022,10-10-45,163,depth_duration_stimuli/002340_2014-06-28_20-05-46_260595134347_rgbf000113-resize_0/002340_2014-06-28_20-05-46_260595134347_rgbf000113-resize_0-target.png,250,2.4735,9,2044,246,feet,jsons/v1_VE250_randls_56_rotated.json,642779,983791,30,Man
163,200140,DepthScenes,duration_manipulation_targetAtFixation,jsons/v1_VE250_randls_56_rotated.json,http://54.235.29.9/FacialAge/BNav_EC2/DepthDuration/v2_depth_duration_MTurk/v2_DepthDuration_HTML.html#125,125,1197,1148,1920,1080,8-20-2022,10-10-45,164,depth_duration_stimuli/001016_2014-06-09_16-16-10_260595134347_rgbf000112-resize_5/001016_2014-06-09_16-16-10_260595134347_rgbf000112-resize_5-target.png,250,1.6565,6,2622,258,feet,jsons/v1_VE250_randls_56_rotated.json,642779,983791,30,Man
