,subjID,experimentName,versionName,sequenceName,url,selected_row,windowWidth,windowHeight,screenWidth,screenHeight,startDate,startTime,trial,stimulus,duration,actual_depth,depth_estimate,trial_RT,log_sceneDuration,unitSelection,seq_filepath,experimentTime,totalTime,age,gender
0,202019,DepthScenes,duration_manipulation_targetAtFixation,jsons/v1_VE1000_randls_17_rotated.json,http://54.235.29.9/FacialAge/BNav_EC2/DepthDuration/v2_depth_duration_MTurk/v2_DepthDuration_HTML.html#93,93,1348,608,1364,768,8-22-2022,5-1-34,1,depth_duration_stimuli/002875_2014-06-01_15-19-00_094959634447_rgbf000151-resize_1/002875_2014-06-01_15-19-00_094959634447_rgbf000151-resize_1-target.png,1000,1.9675,2,6989,999,meters,jsons/v1_VE1000_randls_17_rotated.json,1738211,1905958,30,Woman
1,202019,DepthScenes,duration_manipulation_targetAtFixation,jsons/v1_VE1000_randls_17_rotated.json,http://54.235.29.9/FacialAge/BNav_EC2/DepthDuration/v2_depth_duration_MTurk/v2_DepthDuration_HTML.html#93,93,1348,608,1364,768,8-22-2022,5-1-34,2,depth_duration_stimuli/001011_2014-06-08_23-18-54_260595134347_rgbf000044-resize_4/001011_2014-06-08_23-18-54_260595134347_rgbf000044-resize_4-target.png,1000,2.4730000000000003,2,15729,1001,meters,jsons/v1_VE1000_randls_17_rotated.json,1738211,1905958,30,Woman
2,202019,DepthScenes,duration_manipulation_targetAtFixation,jsons/v1_VE1000_randls_17_rotated.json,http://54.235.29.9/FacialAge/BNav_EC2/DepthDuration/v2_depth_duration_MTurk/v2_DepthDuration_HTML.html#93,93,1348,608,1364,768,8-22-2022,5-1-34,3,depth_duration_stimuli/002995_2014-06-15_12-31-26_094959634447_rgbf000150-resize_1/002995_2014-06-15_12-31-26_094959634447_rgbf000150-resize_1-target.png,1000,3.8360000000000003,2,19692,999,meters,jsons/v1_VE1000_randls_17_rotated.json,1738211,1905958,30,Woman
3,202019,DepthScenes,duration_manipulation_targetAtFixation,jsons/v1_VE1000_randls_17_rotated.json,http://54.235.29.9/FacialAge/BNav_EC2/DepthDuration/v2_depth_duration_MTurk/v2_DepthDuration_HTML.html#93,93,1348,608,1364,768,8-22-2022,5-1-34,4,depth_duration_stimuli/002748_2014-06-22_19-07-22_094959634447_rgbf000078-resize_1/002748_2014-06-22_19-07-22_094959634447_rgbf000078-resize_1-target.png,1000,4.6705,20,12089,1000,meters,jsons/v1_VE1000_randls_17_rotated.json,1738211,1905958,30,Woman
4,202019,DepthScenes,duration_manipulation_targetAtFixation,jsons/v1_VE1000_randls_17_rotated.json,http://54.235.29.9/FacialAge/BNav_EC2/DepthDuration/v2_depth_duration_MTurk/v2_DepthDuration_HTML.html#93,93,1348,608,1364,768,8-22-2022,5-1-34,5,depth_duration_stimuli/000943_2014-06-09_19-31-07_260595134347_rgbf000128-resize_1/000943_2014-06-09_19-31-07_260595134347_rgbf000128-resize_1-target.png,1000,1.9765,30,6754,995,meters,jsons/v1_VE1000_randls_17_rotated.json,1738211,1905958,30,Woman
5,202019,DepthScenes,duration_manipulation_targetAtFixation,jsons/v1_VE1000_randls_17_rotated.json,http://54.235.29.9/FacialAge/BNav_EC2/DepthDuration/v2_depth_duration_MTurk/v2_DepthDuration_HTML.html#93,93,1348,608,1364,768,8-22-2022,5-1-34,6,depth_duration_stimuli/003070_2014-06-15_14-58-27_094959634447_rgbf000150-resize_3/003070_2014-06-15_14-58-27_094959634447_rgbf000150-resize_3-target.png,1000,2.9415,10,17594,1009,meters,jsons/v1_VE1000_randls_17_rotated.json,1738211,1905958,30,Woman
6,202019,DepthScenes,duration_manipulation_targetAtFixation,jsons/v1_VE1000_randls_17_rotated.json,http://54.235.29.9/FacialAge/BNav_EC2/DepthDuration/v2_depth_duration_MTurk/v2_DepthDuration_HTML.html#93,93,1348,608,1364,768,8-22-2022,5-1-34,7,depth_duration_stimuli/000734_2014-06-08_17-39-11_260595134347_rgbf000128-resize_2/000734_2014-06-08_17-39-11_260595134347_rgbf000128-resize_2-target.png,1000,4.098,30,9042,998,meters,jsons/v1_VE1000_randls_17_rotated.json,1738211,1905958,30,Woman
7,202019,DepthScenes,duration_manipulation_targetAtFixation,jsons/v1_VE1000_randls_17_rotated.json,http://54.235.29.9/FacialAge/BNav_EC2/DepthDuration/v2_depth_duration_MTurk/v2_DepthDuration_HTML.html#93,93,1348,608,1364,768,8-22-2022,5-1-34,8,depth_duration_stimuli/000739_2014-06-08_18-45-58_260595134347_rgbf000068-resize_1/000739_2014-06-08_18-45-58_260595134347_rgbf000068-resize_1-target.png,1000,3.534,20,9210,1001,meters,jsons/v1_VE1000_randls_17_rotated.json,1738211,1905958,30,Woman
8,202019,DepthScenes,duration_manipulation_targetAtFixation,jsons/v1_VE1000_randls_17_rotated.json,http://54.235.29.9/FacialAge/BNav_EC2/DepthDuration/v2_depth_duration_MTurk/v2_DepthDuration_HTML.html#93,93,1348,608,1364,768,8-22-2022,5-1-34,9,depth_duration_stimuli/002568_2014-06-24_13-59-21_094959634447_rgbf000062-resize_4/002568_2014-06-24_13-59-21_094959634447_rgbf000062-resize_4-target.png,1000,3.015,2,7268,1000,meters,jsons/v1_VE1000_randls_17_rotated.json,1738211,1905958,30,Woman
9,202019,DepthScenes,duration_manipulation_targetAtFixation,jsons/v1_VE1000_randls_17_rotated.json,http://54.235.29.9/FacialAge/BNav_EC2/DepthDuration/v2_depth_duration_MTurk/v2_DepthDuration_HTML.html#93,93,1348,608,1364,768,8-22-2022,5-1-34,10,depth_duration_stimuli/003492_2014-05-21_15-50-55_094959634447_rgbf000828-resize_1/003492_2014-05-21_15-50-55_094959634447_rgbf000828-resize_1-target.png,1000,4.06875,4,5431,995,meters,jsons/v1_VE1000_randls_17_rotated.json,1738211,1905958,30,Woman
10,202019,DepthScenes,duration_manipulation_targetAtFixation,jsons/v1_VE1000_randls_17_rotated.json,http://54.235.29.9/FacialAge/BNav_EC2/DepthDuration/v2_depth_duration_MTurk/v2_DepthDuration_HTML.html#93,93,1348,608,1364,768,8-22-2022,5-1-34,11,depth_duration_stimuli/003081_2014-06-15_15-19-16_094959634447_rgbf000150-resize_1/003081_2014-06-15_15-19-16_094959634447_rgbf000150-resize_1-target.png,1000,3.9125,20,6809,998,meters,jsons/v1_VE1000_randls_17_rotated.json,1738211,1905958,30,Woman
11,202019,DepthScenes,duration_manipulation_targetAtFixation,jsons/v1_VE1000_randls_17_rotated.json,http://54.235.29.9/FacialAge/BNav_EC2/DepthDuration/v2_depth_duration_MTurk/v2_DepthDuration_HTML.html#93,93,1348,608,1364,768,8-22-2022,5-1-34,12,depth_duration_stimuli/001417_2014-06-19_16-25-36_260595134347_rgbf000115-resize_5/001417_2014-06-19_16-25-36_260595134347_rgbf000115-resize_5-target.png,1000,4.6255,20,6442,1000,meters,jsons/v1_VE1000_randls_17_rotated.json,1738211,1905958,30,Woman
12,202019,DepthScenes,duration_manipulation_targetAtFixation,jsons/v1_VE1000_randls_17_rotated.json,http://54.235.29.9/FacialAge/BNav_EC2/DepthDuration/v2_depth_duration_MTurk/v2_DepthDuration_HTML.html#93,93,1348,608,1364,768,8-22-2022,5-1-34,13,depth_duration_stimuli/000691_2014-06-08_13-08-50_260595134347_rgbf000132-resize_3/000691_2014-06-08_13-08-50_260595134347_rgbf000132-resize_3-target.png,1000,4.1530000000000005,30,5283,999,meters,jsons/v1_VE1000_randls_17_rotated.json,1738211,1905958,30,Woman
13,202019,DepthScenes,duration_manipulation_targetAtFixation,jsons/v1_VE1000_randls_17_rotated.json,http://54.235.29.9/FacialAge/BNav_EC2/DepthDuration/v2_depth_duration_MTurk/v2_DepthDuration_HTML.html#93,93,1348,608,1364,768,8-22-2022,5-1-34,14,depth_duration_stimuli/002213_2014-06-28_18-37-58_260595134347_rgbf000055-resize_1/002213_2014-06-28_18-37-58_260595134347_rgbf000055-resize_1-target.png,1000,3.62,3,8069,999,meters,jsons/v1_VE1000_randls_17_rotated.json,1738211,1905958,30,Woman
14,202019,DepthScenes,duration_manipulation_targetAtFixation,jsons/v1_VE1000_randls_17_rotated.json,http://54.235.29.9/FacialAge/BNav_EC2/DepthDuration/v2_depth_duration_MTurk/v2_DepthDuration_HTML.html#93,93,1348,608,1364,768,8-22-2022,5-1-34,15,depth_duration_stimuli/002444_2014-06-28_20-32-08_260595134347_rgbf000027-resize_0/002444_2014-06-28_20-32-08_260595134347_rgbf000027-resize_0-target.png,1000,4.388999999999999,5,7349,999,meters,jsons/v1_VE1000_randls_17_rotated.json,1738211,1905958,30,Woman
15,202019,DepthScenes,duration_manipulation_targetAtFixation,jsons/v1_VE1000_randls_17_rotated.json,http://54.235.29.9/FacialAge/BNav_EC2/DepthDuration/v2_depth_duration_MTurk/v2_DepthDuration_HTML.html#93,93,1348,608,1364,768,8-22-2022,5-1-34,16,depth_duration_stimuli/000436_2014-06-09_22-25-11_260595134347_rgbf000137-resize_1/000436_2014-06-09_22-25-11_260595134347_rgbf000137-resize_1-target.png,1000,4.0705,5,5267,999,meters,jsons/v1_VE1000_randls_17_rotated.json,1738211,1905958,30,Woman
16,202019,DepthScenes,duration_manipulation_targetAtFixation,jsons/v1_VE1000_randls_17_rotated.json,http://54.235.29.9/FacialAge/BNav_EC2/DepthDuration/v2_depth_duration_MTurk/v2_DepthDuration_HTML.html#93,93,1348,608,1364,768,8-22-2022,5-1-34,17,depth_duration_stimuli/003010_2014-06-15_12-54-35_094959634447_rgbf000112-resize_0/003010_2014-06-15_12-54-35_094959634447_rgbf000112-resize_0-target.png,1000,3.1185,4,5537,1000,meters,jsons/v1_VE1000_randls_17_rotated.json,1738211,1905958,30,Woman
17,202019,DepthScenes,duration_manipulation_targetAtFixation,jsons/v1_VE1000_randls_17_rotated.json,http://54.235.29.9/FacialAge/BNav_EC2/DepthDuration/v2_depth_duration_MTurk/v2_DepthDuration_HTML.html#93,93,1348,608,1364,768,8-22-2022,5-1-34,18,depth_duration_stimuli/001810_2014-06-26_20-51-35_260595134347_rgbf000040-resize_3/001810_2014-06-26_20-51-35_260595134347_rgbf000040-resize_3-target.png,1000,2.2525,5,6246,1001,meters,jsons/v1_VE1000_randls_17_rotated.json,1738211,1905958,30,Woman
18,202019,DepthScenes,duration_manipulation_targetAtFixation,jsons/v1_VE1000_randls_17_rotated.json,http://54.235.29.9/FacialAge/BNav_EC2/DepthDuration/v2_depth_duration_MTurk/v2_DepthDuration_HTML.html#93,93,1348,608,1364,768,8-22-2022,5-1-34,19,depth_duration_stimuli/001498_2014-06-19_17-45-14_260595134347_rgbf000129-resize_4/001498_2014-06-19_17-45-14_260595134347_rgbf000129-resize-original.jpg,1000,1.4075,10,6712,1000,meters,jsons/v1_VE1000_randls_17_rotated.json,1738211,1905958,30,Woman
19,202019,DepthScenes,duration_manipulation_targetAtFixation,jsons/v1_VE1000_randls_17_rotated.json,http://54.235.29.9/FacialAge/BNav_EC2/DepthDuration/v2_depth_duration_MTurk/v2_DepthDuration_HTML.html#93,93,1348,608,1364,768,8-22-2022,5-1-34,20,depth_duration_stimuli/002414_2014-06-28_20-24-58_260595134347_rgbf000067-resize_4/002414_2014-06-28_20-24-58_260595134347_rgbf000067-resize_4-target.png,1000,4.363,6,12956,999,meters,jsons/v1_VE1000_randls_17_rotated.json,1738211,1905958,30,Woman
20,202019,DepthScenes,duration_manipulation_targetAtFixation,jsons/v1_VE1000_randls_17_rotated.json,http://54.235.29.9/FacialAge/BNav_EC2/DepthDuration/v2_depth_duration_MTurk/v2_DepthDuration_HTML.html#93,93,1348,608,1364,768,8-22-2022,5-1-34,21,depth_duration_stimuli/000773_2014-06-08_22-24-54_260595134347_rgbf000093-resize_1/000773_2014-06-08_22-24-54_260595134347_rgbf000093-resize_1-target.png,1000,4.973,8,6396,999,meters,jsons/v1_VE1000_randls_17_rotated.json,1738211,1905958,30,Woman
21,202019,DepthScenes,duration_manipulation_targetAtFixation,jsons/v1_VE1000_randls_17_rotated.json,http://54.235.29.9/FacialAge/BNav_EC2/DepthDuration/v2_depth_duration_MTurk/v2_DepthDuration_HTML.html#93,93,1348,608,1364,768,8-22-2022,5-1-34,22,depth_duration_stimuli/000483_2014-06-09_20-41-45_260595134347_rgbf000116-resize_4/000483_2014-06-09_20-41-45_260595134347_rgbf000116-resize_4-target.png,1000,1.337,5,7444,1000,meters,jsons/v1_VE1000_randls_17_rotated.json,1738211,1905958,30,Woman
22,202019,DepthScenes,duration_manipulation_targetAtFixation,jsons/v1_VE1000_randls_17_rotated.json,http://54.235.29.9/FacialAge/BNav_EC2/DepthDuration/v2_depth_duration_MTurk/v2_DepthDuration_HTML.html#93,93,1348,608,1364,768,8-22-2022,5-1-34,23,depth_duration_stimuli/000469_2014-06-09_19-42-10_260595134347_rgbf000081-resize_1/000469_2014-06-09_19-42-10_260595134347_rgbf000081-resize_1-target.png,1000,1.652,5,8034,1000,meters,jsons/v1_VE1000_randls_17_rotated.json,1738211,1905958,30,Woman
23,202019,DepthScenes,duration_manipulation_targetAtFixation,jsons/v1_VE1000_randls_17_rotated.json,http://54.235.29.9/FacialAge/BNav_EC2/DepthDuration/v2_depth_duration_MTurk/v2_DepthDuration_HTML.html#93,93,1348,608,1364,768,8-22-2022,5-1-34,24,depth_duration_stimuli/000635_2014-06-08_16-38-42_260595134347_rgbf000106-resize_1/000635_2014-06-08_16-38-42_260595134347_rgbf000106-resize_1-target.png,1000,2.074,20,12289,999,meters,jsons/v1_VE1000_randls_17_rotated.json,1738211,1905958,30,Woman
24,202019,DepthScenes,duration_manipulation_targetAtFixation,jsons/v1_VE1000_randls_17_rotated.json,http://54.235.29.9/FacialAge/BNav_EC2/DepthDuration/v2_depth_duration_MTurk/v2_DepthDuration_HTML.html#93,93,1348,608,1364,768,8-22-2022,5-1-34,25,depth_duration_stimuli/002279_2014-06-28_18-55-32_260595134347_rgbf000040-resize_5/002279_2014-06-28_18-55-32_260595134347_rgbf000040-resize_5-target.png,1000,1.5043333333333,20,7713,999,meters,jsons/v1_VE1000_randls_17_rotated.json,1738211,1905958,30,Woman
25,202019,DepthScenes,duration_manipulation_targetAtFixation,jsons/v1_VE1000_randls_17_rotated.json,http://54.235.29.9/FacialAge/BNav_EC2/DepthDuration/v2_depth_duration_MTurk/v2_DepthDuration_HTML.html#93,93,1348,608,1364,768,8-22-2022,5-1-34,26,depth_duration_stimuli/001447_2014-06-19_17-00-32_260595134347_rgbf000082-resize_5/001447_2014-06-19_17-00-32_260595134347_rgbf000082-resize_5-target.png,1000,4.13775,3,10890,998,meters,jsons/v1_VE1000_randls_17_rotated.json,1738211,1905958,30,Woman
26,202019,DepthScenes,duration_manipulation_targetAtFixation,jsons/v1_VE1000_randls_17_rotated.json,http://54.235.29.9/FacialAge/BNav_EC2/DepthDuration/v2_depth_duration_MTurk/v2_DepthDuration_HTML.html#93,93,1348,608,1364,768,8-22-2022,5-1-34,27,depth_duration_stimuli/000447_2014-06-08_16-15-46_260595134347_rgbf000130-resize_1/000447_2014-06-08_16-15-46_260595134347_rgbf000130-resize_1-target.png,1000,4.479,10,5306,999,meters,jsons/v1_VE1000_randls_17_rotated.json,1738211,1905958,30,Woman
27,202019,DepthScenes,duration_manipulation_targetAtFixation,jsons/v1_VE1000_randls_17_rotated.json,http://54.235.29.9/FacialAge/BNav_EC2/DepthDuration/v2_depth_duration_MTurk/v2_DepthDuration_HTML.html#93,93,1348,608,1364,768,8-22-2022,5-1-34,28,depth_duration_stimuli/002209_2014-06-28_18-36-10_260595134347_rgbf000051-resize_1/002209_2014-06-28_18-36-10_260595134347_rgbf000051-resize_1-target.png,1000,2.057,20,9990,994,meters,jsons/v1_VE1000_randls_17_rotated.json,1738211,1905958,30,Woman
28,202019,DepthScenes,duration_manipulation_targetAtFixation,jsons/v1_VE1000_randls_17_rotated.json,http://54.235.29.9/FacialAge/BNav_EC2/DepthDuration/v2_depth_duration_MTurk/v2_DepthDuration_HTML.html#93,93,1348,608,1364,768,8-22-2022,5-1-34,29,depth_duration_stimuli/002763_2014-06-22_19-13-10_094959634447_rgbf000075-resize_4/002763_2014-06-22_19-13-10_094959634447_rgbf000075-resize_4-target.png,1000,1.68375,2,16875,999,meters,jsons/v1_VE1000_randls_17_rotated.json,1738211,1905958,30,Woman
29,202019,DepthScenes,duration_manipulation_targetAtFixation,jsons/v1_VE1000_randls_17_rotated.json,http://54.235.29.9/FacialAge/BNav_EC2/DepthDuration/v2_depth_duration_MTurk/v2_DepthDuration_HTML.html#93,93,1348,608,1364,768,8-22-2022,5-1-34,30,depth_duration_stimuli/002072_2014-06-24_21-48-06_260595134347_rgbf000115-resize_0/002072_2014-06-24_21-48-06_260595134347_rgbf000115-resize-original.jpg,1000,4.702,10,12519,1000,meters,jsons/v1_VE1000_randls_17_rotated.json,1738211,1905958,30,Woman
30,202019,DepthScenes,duration_manipulation_targetAtFixation,jsons/v1_VE1000_randls_17_rotated.json,http://54.235.29.9/FacialAge/BNav_EC2/DepthDuration/v2_depth_duration_MTurk/v2_DepthDuration_HTML.html#93,93,1348,608,1364,768,8-22-2022,5-1-34,31,depth_duration_stimuli/001815_2014-06-26_20-52-55_260595134347_rgbf000020-resize_0/001815_2014-06-26_20-52-55_260595134347_rgbf000020-resize_0-target.png,1000,3.3865,1,17437,1000,meters,jsons/v1_VE1000_randls_17_rotated.json,1738211,1905958,30,Woman
31,202019,DepthScenes,duration_manipulation_targetAtFixation,jsons/v1_VE1000_randls_17_rotated.json,http://54.235.29.9/FacialAge/BNav_EC2/DepthDuration/v2_depth_duration_MTurk/v2_DepthDuration_HTML.html#93,93,1348,608,1364,768,8-22-2022,5-1-34,32,depth_duration_stimuli/001808_2014-06-26_20-50-58_260595134347_rgbf000029-resize_1/001808_2014-06-26_20-50-58_260595134347_rgbf000029-resize_1-target.png,1000,4.249,5,5125,1000,meters,jsons/v1_VE1000_randls_17_rotated.json,1738211,1905958,30,Woman
32,202019,DepthScenes,duration_manipulation_targetAtFixation,jsons/v1_VE1000_randls_17_rotated.json,http://54.235.29.9/FacialAge/BNav_EC2/DepthDuration/v2_depth_duration_MTurk/v2_DepthDuration_HTML.html#93,93,1348,608,1364,768,8-22-2022,5-1-34,33,depth_duration_stimuli/001392_2014-06-19_16-07-59_260595134347_rgbf000046-resize_1/001392_2014-06-19_16-07-59_260595134347_rgbf000046-resize_1-target.png,1000,4.135,5,12099,1019,meters,jsons/v1_VE1000_randls_17_rotated.json,1738211,1905958,30,Woman
33,202019,DepthScenes,duration_manipulation_targetAtFixation,jsons/v1_VE1000_randls_17_rotated.json,http://54.235.29.9/FacialAge/BNav_EC2/DepthDuration/v2_depth_duration_MTurk/v2_DepthDuration_HTML.html#93,93,1348,608,1364,768,8-22-2022,5-1-34,34,depth_duration_stimuli/001570_2014-06-20_17-21-09_260595134347_rgbf000135-resize_4/001570_2014-06-20_17-21-09_260595134347_rgbf000135-resize_4-target.png,1000,4.467,7,6824,999,meters,jsons/v1_VE1000_randls_17_rotated.json,1738211,1905958,30,Woman
34,202019,DepthScenes,duration_manipulation_targetAtFixation,jsons/v1_VE1000_randls_17_rotated.json,http://54.235.29.9/FacialAge/BNav_EC2/DepthDuration/v2_depth_duration_MTurk/v2_DepthDuration_HTML.html#93,93,1348,608,1364,768,8-22-2022,5-1-34,35,depth_duration_stimuli/000457_2014-06-08_16-52-43_260595134347_rgbf000199-resize_1/000457_2014-06-08_16-52-43_260595134347_rgbf000199-resize_1-target.png,1000,3.6489999999999996,7,6755,1000,meters,jsons/v1_VE1000_randls_17_rotated.json,1738211,1905958,30,Woman
35,202019,DepthScenes,duration_manipulation_targetAtFixation,jsons/v1_VE1000_randls_17_rotated.json,http://54.235.29.9/FacialAge/BNav_EC2/DepthDuration/v2_depth_duration_MTurk/v2_DepthDuration_HTML.html#93,93,1348,608,1364,768,8-22-2022,5-1-34,36,depth_duration_stimuli/000929_2014-06-09_16-33-19_260595134347_rgbf000139-resize_0/000929_2014-06-09_16-33-19_260595134347_rgbf000139-resize_0-target.png,1000,2.8680000000000003,10,8562,1009,meters,jsons/v1_VE1000_randls_17_rotated.json,1738211,1905958,30,Woman
36,202019,DepthScenes,duration_manipulation_targetAtFixation,jsons/v1_VE1000_randls_17_rotated.json,http://54.235.29.9/FacialAge/BNav_EC2/DepthDuration/v2_depth_duration_MTurk/v2_DepthDuration_HTML.html#93,93,1348,608,1364,768,8-22-2022,5-1-34,37,depth_duration_stimuli/002467_2014-06-28_20-38-07_260595134347_rgbf000026-resize_2/002467_2014-06-28_20-38-07_260595134347_rgbf000026-resize_2-target.png,1000,4.742,6,11276,1001,meters,jsons/v1_VE1000_randls_17_rotated.json,1738211,1905958,30,Woman
37,202019,DepthScenes,duration_manipulation_targetAtFixation,jsons/v1_VE1000_randls_17_rotated.json,http://54.235.29.9/FacialAge/BNav_EC2/DepthDuration/v2_depth_duration_MTurk/v2_DepthDuration_HTML.html#93,93,1348,608,1364,768,8-22-2022,5-1-34,38,depth_duration_stimuli/002570_2014-06-24_13-59-54_094959634447_rgbf000059-resize_0/002570_2014-06-24_13-59-54_094959634447_rgbf000059-resize_0-target.png,1000,4.037,3,6713,999,meters,jsons/v1_VE1000_randls_17_rotated.json,1738211,1905958,30,Woman
38,202019,DepthScenes,duration_manipulation_targetAtFixation,jsons/v1_VE1000_randls_17_rotated.json,http://54.235.29.9/FacialAge/BNav_EC2/DepthDuration/v2_depth_duration_MTurk/v2_DepthDuration_HTML.html#93,93,1348,608,1364,768,8-22-2022,5-1-34,39,depth_duration_stimuli/003495_2014-05-21_16-01-51_094959634447_rgbf000100-resize_3/003495_2014-05-21_16-01-51_094959634447_rgbf000100-resize_3-target.png,1000,1.6255,7,15451,1001,meters,jsons/v1_VE1000_randls_17_rotated.json,1738211,1905958,30,Woman
39,202019,DepthScenes,duration_manipulation_targetAtFixation,jsons/v1_VE1000_randls_17_rotated.json,http://54.235.29.9/FacialAge/BNav_EC2/DepthDuration/v2_depth_duration_MTurk/v2_DepthDuration_HTML.html#93,93,1348,608,1364,768,8-22-2022,5-1-34,40,depth_duration_stimuli/001244_2014-06-17_16-47-45_260595134347_rgbf000030-resize_4/001244_2014-06-17_16-47-45_260595134347_rgbf000030-resize_4-target.png,1000,2.0425,5,5884,1000,meters,jsons/v1_VE1000_randls_17_rotated.json,1738211,1905958,30,Woman
40,202019,DepthScenes,duration_manipulation_targetAtFixation,jsons/v1_VE1000_randls_17_rotated.json,http://54.235.29.9/FacialAge/BNav_EC2/DepthDuration/v2_depth_duration_MTurk/v2_DepthDuration_HTML.html#93,93,1348,608,1364,768,8-22-2022,5-1-34,41,depth_duration_stimuli/002425_2014-06-28_20-27-29_260595134347_rgbf000031-resize_8/002425_2014-06-28_20-27-29_260595134347_rgbf000031-resize_8-target.png,1000,3.8960000000000004,8,10750,1019,meters,jsons/v1_VE1000_randls_17_rotated.json,1738211,1905958,30,Woman
41,202019,DepthScenes,duration_manipulation_targetAtFixation,jsons/v1_VE1000_randls_17_rotated.json,http://54.235.29.9/FacialAge/BNav_EC2/DepthDuration/v2_depth_duration_MTurk/v2_DepthDuration_HTML.html#93,93,1348,608,1364,768,8-22-2022,5-1-34,42,depth_duration_stimuli/000642_2014-06-08_16-59-25_260595134347_rgbf000098-resize_2/000642_2014-06-08_16-59-25_260595134347_rgbf000098-resize_2-target.png,1000,2.8815,5,6082,992,meters,jsons/v1_VE1000_randls_17_rotated.json,1738211,1905958,30,Woman
42,202019,DepthScenes,duration_manipulation_targetAtFixation,jsons/v1_VE1000_randls_17_rotated.json,http://54.235.29.9/FacialAge/BNav_EC2/DepthDuration/v2_depth_duration_MTurk/v2_DepthDuration_HTML.html#93,93,1348,608,1364,768,8-22-2022,5-1-34,43,depth_duration_stimuli/001094_2014-06-15_17-36-00_260595134347_rgbf000205-resize_0/001094_2014-06-15_17-36-00_260595134347_rgbf000205-resize_0-target.png,1000,4.2175,5,13999,999,meters,jsons/v1_VE1000_randls_17_rotated.json,1738211,1905958,30,Woman
43,202019,DepthScenes,duration_manipulation_targetAtFixation,jsons/v1_VE1000_randls_17_rotated.json,http://54.235.29.9/FacialAge/BNav_EC2/DepthDuration/v2_depth_duration_MTurk/v2_DepthDuration_HTML.html#93,93,1348,608,1364,768,8-22-2022,5-1-34,44,depth_duration_stimuli/000692_2014-06-08_13-09-42_260595134347_rgbf000199-resize_2/000692_2014-06-08_13-09-42_260595134347_rgbf000199-resize_2-target.png,1000,3.661,20,11169,1000,meters,jsons/v1_VE1000_randls_17_rotated.json,1738211,1905958,30,Woman
44,202019,DepthScenes,duration_manipulation_targetAtFixation,jsons/v1_VE1000_randls_17_rotated.json,http://54.235.29.9/FacialAge/BNav_EC2/DepthDuration/v2_depth_duration_MTurk/v2_DepthDuration_HTML.html#93,93,1348,608,1364,768,8-22-2022,5-1-34,45,depth_duration_stimuli/000137_2014-05-20_17-04-49_260595134347_rgbf000120-resize_1/000137_2014-05-20_17-04-49_260595134347_rgbf000120-resize_1-target.png,1000,3.786,2,10378,1000,meters,jsons/v1_VE1000_randls_17_rotated.json,1738211,1905958,30,Woman
45,202019,DepthScenes,duration_manipulation_targetAtFixation,jsons/v1_VE1000_randls_17_rotated.json,http://54.235.29.9/FacialAge/BNav_EC2/DepthDuration/v2_depth_duration_MTurk/v2_DepthDuration_HTML.html#93,93,1348,608,1364,768,8-22-2022,5-1-34,46,depth_duration_stimuli/000736_2014-06-08_18-24-15_260595134347_rgbf000206-resize_3/000736_2014-06-08_18-24-15_260595134347_rgbf000206-resize_3-target.png,1000,3.515,3,6947,1000,meters,jsons/v1_VE1000_randls_17_rotated.json,1738211,1905958,30,Woman
46,202019,DepthScenes,duration_manipulation_targetAtFixation,jsons/v1_VE1000_randls_17_rotated.json,http://54.235.29.9/FacialAge/BNav_EC2/DepthDuration/v2_depth_duration_MTurk/v2_DepthDuration_HTML.html#93,93,1348,608,1364,768,8-22-2022,5-1-34,47,depth_duration_stimuli/003338_2014-05-20_11-01-23_094959634447_rgbf000051-resize_6/003338_2014-05-20_11-01-23_094959634447_rgbf000051-resize_6-target.png,1000,1.693,2,14358,1000,meters,jsons/v1_VE1000_randls_17_rotated.json,1738211,1905958,30,Woman
47,202019,DepthScenes,duration_manipulation_targetAtFixation,jsons/v1_VE1000_randls_17_rotated.json,http://54.235.29.9/FacialAge/BNav_EC2/DepthDuration/v2_depth_duration_MTurk/v2_DepthDuration_HTML.html#93,93,1348,608,1364,768,8-22-2022,5-1-34,48,depth_duration_stimuli/002509_2014-06-24_13-19-22_094959634447_rgbf000077-resize_0/002509_2014-06-24_13-19-22_094959634447_rgbf000077-resize_0-target.png,1000,1.3065,6,10054,1022,meters,jsons/v1_VE1000_randls_17_rotated.json,1738211,1905958,30,Woman
48,202019,DepthScenes,duration_manipulation_targetAtFixation,jsons/v1_VE1000_randls_17_rotated.json,http://54.235.29.9/FacialAge/BNav_EC2/DepthDuration/v2_depth_duration_MTurk/v2_DepthDuration_HTML.html#93,93,1348,608,1364,768,8-22-2022,5-1-34,49,depth_duration_stimuli/001170_2014-06-17_15-43-44_260595134347_rgbf000096-resize_6/001170_2014-06-17_15-43-44_260595134347_rgbf000096-resize-original.jpg,1000,1.1909999999999998,10,13562,999,meters,jsons/v1_VE1000_randls_17_rotated.json,1738211,1905958,30,Woman
49,202019,DepthScenes,duration_manipulation_targetAtFixation,jsons/v1_VE1000_randls_17_rotated.json,http://54.235.29.9/FacialAge/BNav_EC2/DepthDuration/v2_depth_duration_MTurk/v2_DepthDuration_HTML.html#93,93,1348,608,1364,768,8-22-2022,5-1-34,50,depth_duration_stimuli/001828_2014-06-26_21-40-03_260595134347_rgbf000024-resize_0/001828_2014-06-26_21-40-03_260595134347_rgbf000024-resize_0-target.png,1000,4.8260000000000005,5,9897,1000,meters,jsons/v1_VE1000_randls_17_rotated.json,1738211,1905958,30,Woman
50,202019,DepthScenes,duration_manipulation_targetAtFixation,jsons/v1_VE1000_randls_17_rotated.json,http://54.235.29.9/FacialAge/BNav_EC2/DepthDuration/v2_depth_duration_MTurk/v2_DepthDuration_HTML.html#93,93,1348,608,1364,768,8-22-2022,5-1-34,51,depth_duration_stimuli/000009_2014-05-26_14-32-05_260595134347_rgbf000034-resize_3/000009_2014-05-26_14-32-05_260595134347_rgbf000034-resize_3-target.png,1000,3.8715,7,7075,998,meters,jsons/v1_VE1000_randls_17_rotated.json,1738211,1905958,30,Woman
51,202019,DepthScenes,duration_manipulation_targetAtFixation,jsons/v1_VE1000_randls_17_rotated.json,http://54.235.29.9/FacialAge/BNav_EC2/DepthDuration/v2_depth_duration_MTurk/v2_DepthDuration_HTML.html#93,93,1348,608,1364,768,8-22-2022,5-1-34,52,depth_duration_stimuli/000103_2014-05-14_22-01-17_260595134347_rgbf000152-resize_5/000103_2014-05-14_22-01-17_260595134347_rgbf000152-resize_5-target.png,1000,1.993,6,12843,999,meters,jsons/v1_VE1000_randls_17_rotated.json,1738211,1905958,30,Woman
52,202019,DepthScenes,duration_manipulation_targetAtFixation,jsons/v1_VE1000_randls_17_rotated.json,http://54.235.29.9/FacialAge/BNav_EC2/DepthDuration/v2_depth_duration_MTurk/v2_DepthDuration_HTML.html#93,93,1348,608,1364,768,8-22-2022,5-1-34,53,depth_duration_stimuli/001555_2014-06-20_17-12-10_260595134347_rgbf000065-resize_4/001555_2014-06-20_17-12-10_260595134347_rgbf000065-resize_4-target.png,1000,1.633,32,7161,999,meters,jsons/v1_VE1000_randls_17_rotated.json,1738211,1905958,30,Woman
53,202019,DepthScenes,duration_manipulation_targetAtFixation,jsons/v1_VE1000_randls_17_rotated.json,http://54.235.29.9/FacialAge/BNav_EC2/DepthDuration/v2_depth_duration_MTurk/v2_DepthDuration_HTML.html#93,93,1348,608,1364,768,8-22-2022,5-1-34,54,depth_duration_stimuli/002953_2014-06-08_17-32-18_094959634447_rgbf000059-resize_5/002953_2014-06-08_17-32-18_094959634447_rgbf000059-resize_5-target.png,1000,1.551,3,10918,999,meters,jsons/v1_VE1000_randls_17_rotated.json,1738211,1905958,30,Woman
54,202019,DepthScenes,duration_manipulation_targetAtFixation,jsons/v1_VE1000_randls_17_rotated.json,http://54.235.29.9/FacialAge/BNav_EC2/DepthDuration/v2_depth_duration_MTurk/v2_DepthDuration_HTML.html#93,93,1348,608,1364,768,8-22-2022,5-1-34,55,depth_duration_stimuli/000878_2014-06-08_22-52-45_260595134347_rgbf000045-resize_2/000878_2014-06-08_22-52-45_260595134347_rgbf000045-resize_2-target.png,1000,2.092,10,9867,997,meters,jsons/v1_VE1000_randls_17_rotated.json,1738211,1905958,30,Woman
55,202019,DepthScenes,duration_manipulation_targetAtFixation,jsons/v1_VE1000_randls_17_rotated.json,http://54.235.29.9/FacialAge/BNav_EC2/DepthDuration/v2_depth_duration_MTurk/v2_DepthDuration_HTML.html#93,93,1348,608,1364,768,8-22-2022,5-1-34,56,depth_duration_stimuli/001214_2014-06-17_16-13-55_260595134347_rgbf000111-resize_0/001214_2014-06-17_16-13-55_260595134347_rgbf000111-resize_0-target.png,1000,2.6505,20,12616,1000,meters,jsons/v1_VE1000_randls_17_rotated.json,1738211,1905958,30,Woman
56,202019,DepthScenes,duration_manipulation_targetAtFixation,jsons/v1_VE1000_randls_17_rotated.json,http://54.235.29.9/FacialAge/BNav_EC2/DepthDuration/v2_depth_duration_MTurk/v2_DepthDuration_HTML.html#93,93,1348,608,1364,768,8-22-2022,5-1-34,57,depth_duration_stimuli/000810_2014-06-08_17-20-01_260595134347_rgbf000105-resize_0/000810_2014-06-08_17-20-01_260595134347_rgbf000105-resize_0-target.png,1000,1.4865,20,11020,999,meters,jsons/v1_VE1000_randls_17_rotated.json,1738211,1905958,30,Woman
57,202019,DepthScenes,duration_manipulation_targetAtFixation,jsons/v1_VE1000_randls_17_rotated.json,http://54.235.29.9/FacialAge/BNav_EC2/DepthDuration/v2_depth_duration_MTurk/v2_DepthDuration_HTML.html#93,93,1348,608,1364,768,8-22-2022,5-1-34,58,depth_duration_stimuli/002639_2014-06-24_14-51-37_094959634447_rgbf000074-resize_4/002639_2014-06-24_14-51-37_094959634447_rgbf000074-resize_4-target.png,1000,4.0375,10,15692,1001,meters,jsons/v1_VE1000_randls_17_rotated.json,1738211,1905958,30,Woman
58,202019,DepthScenes,duration_manipulation_targetAtFixation,jsons/v1_VE1000_randls_17_rotated.json,http://54.235.29.9/FacialAge/BNav_EC2/DepthDuration/v2_depth_duration_MTurk/v2_DepthDuration_HTML.html#93,93,1348,608,1364,768,8-22-2022,5-1-34,59,depth_duration_stimuli/003292_2014-05-14_21-53-49_094959634447_rgbf000100-resize_2/003292_2014-05-14_21-53-49_094959634447_rgbf000100-resize_2-target.png,1000,3.4815,2,6682,1000,meters,jsons/v1_VE1000_randls_17_rotated.json,1738211,1905958,30,Woman
59,202019,DepthScenes,duration_manipulation_targetAtFixation,jsons/v1_VE1000_randls_17_rotated.json,http://54.235.29.9/FacialAge/BNav_EC2/DepthDuration/v2_depth_duration_MTurk/v2_DepthDuration_HTML.html#93,93,1348,608,1364,768,8-22-2022,5-1-34,60,depth_duration_stimuli/003490_2014-05-21_15-50-11_094959634447_rgbf000101-resize_3/003490_2014-05-21_15-50-11_094959634447_rgbf000101-resize_3-target.png,1000,3.6445,5,14900,998,meters,jsons/v1_VE1000_randls_17_rotated.json,1738211,1905958,30,Woman
60,202019,DepthScenes,duration_manipulation_targetAtFixation,jsons/v1_VE1000_randls_17_rotated.json,http://54.235.29.9/FacialAge/BNav_EC2/DepthDuration/v2_depth_duration_MTurk/v2_DepthDuration_HTML.html#93,93,1348,608,1364,768,8-22-2022,5-1-34,61,depth_duration_stimuli/001175_2014-06-17_15-45-55_260595134347_rgbf000129-resize_4/001175_2014-06-17_15-45-55_260595134347_rgbf000129-resize_4-target.png,1000,4.255,2,7247,1000,meters,jsons/v1_VE1000_randls_17_rotated.json,1738211,1905958,30,Woman
61,202019,DepthScenes,duration_manipulation_targetAtFixation,jsons/v1_VE1000_randls_17_rotated.json,http://54.235.29.9/FacialAge/BNav_EC2/DepthDuration/v2_depth_duration_MTurk/v2_DepthDuration_HTML.html#93,93,1348,608,1364,768,8-22-2022,5-1-34,62,depth_duration_stimuli/001571_2014-06-20_17-21-32_260595134347_rgbf000089-resize_1/001571_2014-06-20_17-21-32_260595134347_rgbf000089-resize_1-target.png,1000,1.86,20,6627,1000,meters,jsons/v1_VE1000_randls_17_rotated.json,1738211,1905958,30,Woman
62,202019,DepthScenes,duration_manipulation_targetAtFixation,jsons/v1_VE1000_randls_17_rotated.json,http://54.235.29.9/FacialAge/BNav_EC2/DepthDuration/v2_depth_duration_MTurk/v2_DepthDuration_HTML.html#93,93,1348,608,1364,768,8-22-2022,5-1-34,63,depth_duration_stimuli/002272_2014-06-28_18-53-56_260595134347_rgbf000067-resize_2/002272_2014-06-28_18-53-56_260595134347_rgbf000067-resize_2-target.png,1000,1.138,0,9533,998,meters,jsons/v1_VE1000_randls_17_rotated.json,1738211,1905958,30,Woman
63,202019,DepthScenes,duration_manipulation_targetAtFixation,jsons/v1_VE1000_randls_17_rotated.json,http://54.235.29.9/FacialAge/BNav_EC2/DepthDuration/v2_depth_duration_MTurk/v2_DepthDuration_HTML.html#93,93,1348,608,1364,768,8-22-2022,5-1-34,64,depth_duration_stimuli/003129_2014-05-12_10-48-10_094959634447_rgbf000100-resize_0/003129_2014-05-12_10-48-10_094959634447_rgbf000100-resize_0-target.png,1000,4.9305,10,6893,999,meters,jsons/v1_VE1000_randls_17_rotated.json,1738211,1905958,30,Woman
64,202019,DepthScenes,duration_manipulation_targetAtFixation,jsons/v1_VE1000_randls_17_rotated.json,http://54.235.29.9/FacialAge/BNav_EC2/DepthDuration/v2_depth_duration_MTurk/v2_DepthDuration_HTML.html#93,93,1348,608,1364,768,8-22-2022,5-1-34,65,depth_duration_stimuli/000414_2014-06-04_19-49-13_260595134347_rgbf000044-resize_0/000414_2014-06-04_19-49-13_260595134347_rgbf000044-resize_0-target.png,1000,4.329,1,53544,1001,meters,jsons/v1_VE1000_randls_17_rotated.json,1738211,1905958,30,Woman
65,202019,DepthScenes,duration_manipulation_targetAtFixation,jsons/v1_VE1000_randls_17_rotated.json,http://54.235.29.9/FacialAge/BNav_EC2/DepthDuration/v2_depth_duration_MTurk/v2_DepthDuration_HTML.html#93,93,1348,608,1364,768,8-22-2022,5-1-34,66,depth_duration_stimuli/001540_2014-06-20_17-01-05_260595134347_rgbf000086-resize_2/001540_2014-06-20_17-01-05_260595134347_rgbf000086-resize-original.jpg,1000,1.459,3,20738,994,meters,jsons/v1_VE1000_randls_17_rotated.json,1738211,1905958,30,Woman
66,202019,DepthScenes,duration_manipulation_targetAtFixation,jsons/v1_VE1000_randls_17_rotated.json,http://54.235.29.9/FacialAge/BNav_EC2/DepthDuration/v2_depth_duration_MTurk/v2_DepthDuration_HTML.html#93,93,1348,608,1364,768,8-22-2022,5-1-34,67,depth_duration_stimuli/000927_2014-06-09_16-32-30_260595134347_rgbf000123-resize_3/000927_2014-06-09_16-32-30_260595134347_rgbf000123-resize_3-target.png,1000,2.6785,5,10865,1001,meters,jsons/v1_VE1000_randls_17_rotated.json,1738211,1905958,30,Woman
67,202019,DepthScenes,duration_manipulation_targetAtFixation,jsons/v1_VE1000_randls_17_rotated.json,http://54.235.29.9/FacialAge/BNav_EC2/DepthDuration/v2_depth_duration_MTurk/v2_DepthDuration_HTML.html#93,93,1348,608,1364,768,8-22-2022,5-1-34,68,depth_duration_stimuli/001110_2014-06-15_17-25-28_260595134347_rgbf000150-resize_1/001110_2014-06-15_17-25-28_260595134347_rgbf000150-resize_1-target.png,1000,1.7115,5,4875,1004,meters,jsons/v1_VE1000_randls_17_rotated.json,1738211,1905958,30,Woman
68,202019,DepthScenes,duration_manipulation_targetAtFixation,jsons/v1_VE1000_randls_17_rotated.json,http://54.235.29.9/FacialAge/BNav_EC2/DepthDuration/v2_depth_duration_MTurk/v2_DepthDuration_HTML.html#93,93,1348,608,1364,768,8-22-2022,5-1-34,69,depth_duration_stimuli/002344_2014-06-28_20-06-29_260595134347_rgbf000030-resize_1/002344_2014-06-28_20-06-29_260595134347_rgbf000030-resize_1-target.png,1000,1.5795,10,13924,1001,meters,jsons/v1_VE1000_randls_17_rotated.json,1738211,1905958,30,Woman
69,202019,DepthScenes,duration_manipulation_targetAtFixation,jsons/v1_VE1000_randls_17_rotated.json,http://54.235.29.9/FacialAge/BNav_EC2/DepthDuration/v2_depth_duration_MTurk/v2_DepthDuration_HTML.html#93,93,1348,608,1364,768,8-22-2022,5-1-34,70,depth_duration_stimuli/002725_2014-06-22_11-47-51_094959634447_rgbf000070-resize_1/002725_2014-06-22_11-47-51_094959634447_rgbf000070-resize_1-target.png,1000,2.195,5,9343,1000,meters,jsons/v1_VE1000_randls_17_rotated.json,1738211,1905958,30,Woman
70,202019,DepthScenes,duration_manipulation_targetAtFixation,jsons/v1_VE1000_randls_17_rotated.json,http://54.235.29.9/FacialAge/BNav_EC2/DepthDuration/v2_depth_duration_MTurk/v2_DepthDuration_HTML.html#93,93,1348,608,1364,768,8-22-2022,5-1-34,71,depth_duration_stimuli/002758_2014-06-22_19-11-20_094959634447_rgbf000128-resize_1/002758_2014-06-22_19-11-20_094959634447_rgbf000128-resize_1-target.png,1000,2.555,1,7151,997,meters,jsons/v1_VE1000_randls_17_rotated.json,1738211,1905958,30,Woman
71,202019,DepthScenes,duration_manipulation_targetAtFixation,jsons/v1_VE1000_randls_17_rotated.json,http://54.235.29.9/FacialAge/BNav_EC2/DepthDuration/v2_depth_duration_MTurk/v2_DepthDuration_HTML.html#93,93,1348,608,1364,768,8-22-2022,5-1-34,72,depth_duration_stimuli/002630_2014-06-24_14-47-50_094959634447_rgbf000055-resize_1/002630_2014-06-24_14-47-50_094959634447_rgbf000055-resize_1-target.png,1000,3.0095,6,9242,1007,meters,jsons/v1_VE1000_randls_17_rotated.json,1738211,1905958,30,Woman
72,202019,DepthScenes,duration_manipulation_targetAtFixation,jsons/v1_VE1000_randls_17_rotated.json,http://54.235.29.9/FacialAge/BNav_EC2/DepthDuration/v2_depth_duration_MTurk/v2_DepthDuration_HTML.html#93,93,1348,608,1364,768,8-22-2022,5-1-34,73,depth_duration_stimuli/002340_2014-06-28_20-05-46_260595134347_rgbf000113-resize_0/002340_2014-06-28_20-05-46_260595134347_rgbf000113-resize_0-target.png,1000,2.4735,8,11852,1004,meters,jsons/v1_VE1000_randls_17_rotated.json,1738211,1905958,30,Woman
73,202019,DepthScenes,duration_manipulation_targetAtFixation,jsons/v1_VE1000_randls_17_rotated.json,http://54.235.29.9/FacialAge/BNav_EC2/DepthDuration/v2_depth_duration_MTurk/v2_DepthDuration_HTML.html#93,93,1348,608,1364,768,8-22-2022,5-1-34,74,depth_duration_stimuli/001016_2014-06-09_16-16-10_260595134347_rgbf000112-resize_5/001016_2014-06-09_16-16-10_260595134347_rgbf000112-resize_5-target.png,1000,1.6565,4,6105,1000,meters,jsons/v1_VE1000_randls_17_rotated.json,1738211,1905958,30,Woman
74,202019,DepthScenes,duration_manipulation_targetAtFixation,jsons/v1_VE1000_randls_17_rotated.json,http://54.235.29.9/FacialAge/BNav_EC2/DepthDuration/v2_depth_duration_MTurk/v2_DepthDuration_HTML.html#93,93,1348,608,1364,768,8-22-2022,5-1-34,75,depth_duration_stimuli/001450_2014-06-19_17-02-03_260595134347_rgbf000203-resize_4/001450_2014-06-19_17-02-03_260595134347_rgbf000203-resize_4-target.png,1000,4.0106666666667,6,10035,1001,meters,jsons/v1_VE1000_randls_17_rotated.json,1738211,1905958,30,Woman
75,202019,DepthScenes,duration_manipulation_targetAtFixation,jsons/v1_VE1000_randls_17_rotated.json,http://54.235.29.9/FacialAge/BNav_EC2/DepthDuration/v2_depth_duration_MTurk/v2_DepthDuration_HTML.html#93,93,1348,608,1364,768,8-22-2022,5-1-34,76,depth_duration_stimuli/001449_2014-06-19_17-01-27_260595134347_rgbf000116-resize_2/001449_2014-06-19_17-01-27_260595134347_rgbf000116-resize_2-target.png,1000,3.452,9,5598,1001,meters,jsons/v1_VE1000_randls_17_rotated.json,1738211,1905958,30,Woman
76,202019,DepthScenes,duration_manipulation_targetAtFixation,jsons/v1_VE1000_randls_17_rotated.json,http://54.235.29.9/FacialAge/BNav_EC2/DepthDuration/v2_depth_duration_MTurk/v2_DepthDuration_HTML.html#93,93,1348,608,1364,768,8-22-2022,5-1-34,77,depth_duration_stimuli/002323_2014-06-28_20-01-54_260595134347_rgbf000051-resize_4/002323_2014-06-28_20-01-54_260595134347_rgbf000051-resize_4-target.png,1000,3.7310000000000003,5,10520,1000,meters,jsons/v1_VE1000_randls_17_rotated.json,1738211,1905958,30,Woman
77,202019,DepthScenes,duration_manipulation_targetAtFixation,jsons/v1_VE1000_randls_17_rotated.json,http://54.235.29.9/FacialAge/BNav_EC2/DepthDuration/v2_depth_duration_MTurk/v2_DepthDuration_HTML.html#93,93,1348,608,1364,768,8-22-2022,5-1-34,78,depth_duration_stimuli/000917_2014-06-09_22-45-29_260595134347_rgbf000149-resize_3/000917_2014-06-09_22-45-29_260595134347_rgbf000149-resize_3-target.png,1000,4.1865,5,9574,997,meters,jsons/v1_VE1000_randls_17_rotated.json,1738211,1905958,30,Woman
78,202019,DepthScenes,duration_manipulation_targetAtFixation,jsons/v1_VE1000_randls_17_rotated.json,http://54.235.29.9/FacialAge/BNav_EC2/DepthDuration/v2_depth_duration_MTurk/v2_DepthDuration_HTML.html#93,93,1348,608,1364,768,8-22-2022,5-1-34,79,depth_duration_stimuli/000749_2014-06-08_21-55-06_260595134347_rgbf000070-resize_2/000749_2014-06-08_21-55-06_260595134347_rgbf000070-resize_2-target.png,1000,2.331,4,15123,990,meters,jsons/v1_VE1000_randls_17_rotated.json,1738211,1905958,30,Woman
79,202019,DepthScenes,duration_manipulation_targetAtFixation,jsons/v1_VE1000_randls_17_rotated.json,http://54.235.29.9/FacialAge/BNav_EC2/DepthDuration/v2_depth_duration_MTurk/v2_DepthDuration_HTML.html#93,93,1348,608,1364,768,8-22-2022,5-1-34,80,depth_duration_stimuli/002788_2014-06-22_19-36-03_094959634447_rgbf000088-resize_2/002788_2014-06-22_19-36-03_094959634447_rgbf000088-resize_2-target.png,1000,1.6465,5,7202,999,meters,jsons/v1_VE1000_randls_17_rotated.json,1738211,1905958,30,Woman
80,202019,DepthScenes,duration_manipulation_targetAtFixation,jsons/v1_VE1000_randls_17_rotated.json,http://54.235.29.9/FacialAge/BNav_EC2/DepthDuration/v2_depth_duration_MTurk/v2_DepthDuration_HTML.html#93,93,1348,608,1364,768,8-22-2022,5-1-34,81,depth_duration_stimuli/002678_2014-06-13_16-15-32_094959634447_rgbf000151-resize_6/002678_2014-06-13_16-15-32_094959634447_rgbf000151-resize_6-target.png,1000,2.1830000000000003,4,13496,999,meters,jsons/v1_VE1000_randls_17_rotated.json,1738211,1905958,30,Woman
81,202019,DepthScenes,duration_manipulation_targetAtFixation,jsons/v1_VE1000_randls_17_rotated.json,http://54.235.29.9/FacialAge/BNav_EC2/DepthDuration/v2_depth_duration_MTurk/v2_DepthDuration_HTML.html#93,93,1348,608,1364,768,8-22-2022,5-1-34,82,depth_duration_stimuli/000368_2014-06-09_15-53-01_260595134347_rgbf000155-resize_2/000368_2014-06-09_15-53-01_260595134347_rgbf000155-resize_2-target.png,1000,2.4859999999999998,2,6701,1002,meters,jsons/v1_VE1000_randls_17_rotated.json,1738211,1905958,30,Woman
82,202019,DepthScenes,duration_manipulation_targetAtFixation,jsons/v1_VE1000_randls_17_rotated.json,http://54.235.29.9/FacialAge/BNav_EC2/DepthDuration/v2_depth_duration_MTurk/v2_DepthDuration_HTML.html#93,93,1348,608,1364,768,8-22-2022,5-1-34,83,depth_duration_stimuli/000742_2014-06-08_18-48-09_260595134347_rgbf000164-resize_4/000742_2014-06-08_18-48-09_260595134347_rgbf000164-resize_4-target.png,1000,4.632,8,10764,1111,meters,jsons/v1_VE1000_randls_17_rotated.json,1738211,1905958,30,Woman
83,202019,DepthScenes,duration_manipulation_targetAtFixation,jsons/v1_VE1000_randls_17_rotated.json,http://54.235.29.9/FacialAge/BNav_EC2/DepthDuration/v2_depth_duration_MTurk/v2_DepthDuration_HTML.html#93,93,1348,608,1364,768,8-22-2022,5-1-34,84,depth_duration_stimuli/001066_2014-06-08_22-03-20_260595134347_rgbf000066-resize_4/001066_2014-06-08_22-03-20_260595134347_rgbf000066-resize_4-target.png,1000,4.2330000000000005,12,10546,1000,meters,jsons/v1_VE1000_randls_17_rotated.json,1738211,1905958,30,Woman
84,202019,DepthScenes,duration_manipulation_targetAtFixation,jsons/v1_VE1000_randls_17_rotated.json,http://54.235.29.9/FacialAge/BNav_EC2/DepthDuration/v2_depth_duration_MTurk/v2_DepthDuration_HTML.html#93,93,1348,608,1364,768,8-22-2022,5-1-34,85,depth_duration_stimuli/002949_2014-06-26_15-57-42_094959634447_rgbf000079-resize_1/002949_2014-06-26_15-57-42_094959634447_rgbf000079-resize_1-target.png,1000,1.8915,7,6410,1000,meters,jsons/v1_VE1000_randls_17_rotated.json,1738211,1905958,30,Woman
85,202019,DepthScenes,duration_manipulation_targetAtFixation,jsons/v1_VE1000_randls_17_rotated.json,http://54.235.29.9/FacialAge/BNav_EC2/DepthDuration/v2_depth_duration_MTurk/v2_DepthDuration_HTML.html#93,93,1348,608,1364,768,8-22-2022,5-1-34,86,depth_duration_stimuli/000522_2014-06-08_13-35-06_260595134347_rgbf000244-resize_1/000522_2014-06-08_13-35-06_260595134347_rgbf000244-resize_1-target.png,1000,2.3715,6,10149,998,meters,jsons/v1_VE1000_randls_17_rotated.json,1738211,1905958,30,Woman
86,202019,DepthScenes,duration_manipulation_targetAtFixation,jsons/v1_VE1000_randls_17_rotated.json,http://54.235.29.9/FacialAge/BNav_EC2/DepthDuration/v2_depth_duration_MTurk/v2_DepthDuration_HTML.html#93,93,1348,608,1364,768,8-22-2022,5-1-34,87,depth_duration_stimuli/000549_2014-06-08_22-10-24_260595134347_rgbf000247-resize_3/000549_2014-06-08_22-10-24_260595134347_rgbf000247-resize_3-target.png,1000,1.841,9,11540,1000,meters,jsons/v1_VE1000_randls_17_rotated.json,1738211,1905958,30,Woman
87,202019,DepthScenes,duration_manipulation_targetAtFixation,jsons/v1_VE1000_randls_17_rotated.json,http://54.235.29.9/FacialAge/BNav_EC2/DepthDuration/v2_depth_duration_MTurk/v2_DepthDuration_HTML.html#93,93,1348,608,1364,768,8-22-2022,5-1-34,88,depth_duration_stimuli/001055_2014-06-08_18-45-35_260595134347_rgbf000111-resize_4/001055_2014-06-08_18-45-35_260595134347_rgbf000111-resize_4-target.png,1000,2.4290000000000003,6,13009,1000,meters,jsons/v1_VE1000_randls_17_rotated.json,1738211,1905958,30,Woman
88,202019,DepthScenes,duration_manipulation_targetAtFixation,jsons/v1_VE1000_randls_17_rotated.json,http://54.235.29.9/FacialAge/BNav_EC2/DepthDuration/v2_depth_duration_MTurk/v2_DepthDuration_HTML.html#93,93,1348,608,1364,768,8-22-2022,5-1-34,89,depth_duration_stimuli/001650_2014-06-20_12-09-00_260595134347_rgbf000087-resize_3/001650_2014-06-20_12-09-00_260595134347_rgbf000087-resize_3-target.png,1000,1.9505,7,10300,999,meters,jsons/v1_VE1000_randls_17_rotated.json,1738211,1905958,30,Woman
89,202019,DepthScenes,duration_manipulation_targetAtFixation,jsons/v1_VE1000_randls_17_rotated.json,http://54.235.29.9/FacialAge/BNav_EC2/DepthDuration/v2_depth_duration_MTurk/v2_DepthDuration_HTML.html#93,93,1348,608,1364,768,8-22-2022,5-1-34,90,depth_duration_stimuli/000682_2014-06-08_23-14-58_260595134347_rgbf000041-resize_5/000682_2014-06-08_23-14-58_260595134347_rgbf000041-resize_5-target.png,1000,2.7239999999999998,9,9060,1000,meters,jsons/v1_VE1000_randls_17_rotated.json,1738211,1905958,30,Woman
90,202019,DepthScenes,duration_manipulation_targetAtFixation,jsons/v1_VE1000_randls_17_rotated.json,http://54.235.29.9/FacialAge/BNav_EC2/DepthDuration/v2_depth_duration_MTurk/v2_DepthDuration_HTML.html#93,93,1348,608,1364,768,8-22-2022,5-1-34,91,depth_duration_stimuli/001100_2014-06-15_17-46-26_260595134347_rgbf000225-resize_2/001100_2014-06-15_17-46-26_260595134347_rgbf000225-resize_2-target.png,1000,2.24,6,9455,1000,meters,jsons/v1_VE1000_randls_17_rotated.json,1738211,1905958,30,Woman
91,202019,DepthScenes,duration_manipulation_targetAtFixation,jsons/v1_VE1000_randls_17_rotated.json,http://54.235.29.9/FacialAge/BNav_EC2/DepthDuration/v2_depth_duration_MTurk/v2_DepthDuration_HTML.html#93,93,1348,608,1364,768,8-22-2022,5-1-34,92,depth_duration_stimuli/002784_2014-06-22_19-26-30_094959634447_rgbf000083-resize_3/002784_2014-06-22_19-26-30_094959634447_rgbf000083-resize_3-target.png,1000,1.8046666666667,2,24282,1000,meters,jsons/v1_VE1000_randls_17_rotated.json,1738211,1905958,30,Woman
92,202019,DepthScenes,duration_manipulation_targetAtFixation,jsons/v1_VE1000_randls_17_rotated.json,http://54.235.29.9/FacialAge/BNav_EC2/DepthDuration/v2_depth_duration_MTurk/v2_DepthDuration_HTML.html#93,93,1348,608,1364,768,8-22-2022,5-1-34,93,depth_duration_stimuli/002545_2014-06-24_13-38-53_094959634447_rgbf000080-resize_4/002545_2014-06-24_13-38-53_094959634447_rgbf000080-resize_4-target.png,1000,1.9205,3,12907,999,meters,jsons/v1_VE1000_randls_17_rotated.json,1738211,1905958,30,Woman
93,202019,DepthScenes,duration_manipulation_targetAtFixation,jsons/v1_VE1000_randls_17_rotated.json,http://54.235.29.9/FacialAge/BNav_EC2/DepthDuration/v2_depth_duration_MTurk/v2_DepthDuration_HTML.html#93,93,1348,608,1364,768,8-22-2022,5-1-34,94,depth_duration_stimuli/001092_2014-06-15_17-34-58_260595134347_rgbf000171-resize_3/001092_2014-06-15_17-34-58_260595134347_rgbf000171-resize_3-target.png,1000,2.6935,6,15931,999,meters,jsons/v1_VE1000_randls_17_rotated.json,1738211,1905958,30,Woman
94,202019,DepthScenes,duration_manipulation_targetAtFixation,jsons/v1_VE1000_randls_17_rotated.json,http://54.235.29.9/FacialAge/BNav_EC2/DepthDuration/v2_depth_duration_MTurk/v2_DepthDuration_HTML.html#93,93,1348,608,1364,768,8-22-2022,5-1-34,95,depth_duration_stimuli/000854_2014-06-09_19-43-13_260595134347_rgbf000066-resize_0/000854_2014-06-09_19-43-13_260595134347_rgbf000066-resize_0-target.png,1000,3.068,3,12645,1000,meters,jsons/v1_VE1000_randls_17_rotated.json,1738211,1905958,30,Woman
95,202019,DepthScenes,duration_manipulation_targetAtFixation,jsons/v1_VE1000_randls_17_rotated.json,http://54.235.29.9/FacialAge/BNav_EC2/DepthDuration/v2_depth_duration_MTurk/v2_DepthDuration_HTML.html#93,93,1348,608,1364,768,8-22-2022,5-1-34,96,depth_duration_stimuli/000758_2014-06-08_22-05-08_260595134347_rgbf000085-resize_0/000758_2014-06-08_22-05-08_260595134347_rgbf000085-resize_0-target.png,1000,3.3810000000000002,2,11090,999,meters,jsons/v1_VE1000_randls_17_rotated.json,1738211,1905958,30,Woman
96,202019,DepthScenes,duration_manipulation_targetAtFixation,jsons/v1_VE1000_randls_17_rotated.json,http://54.235.29.9/FacialAge/BNav_EC2/DepthDuration/v2_depth_duration_MTurk/v2_DepthDuration_HTML.html#93,93,1348,608,1364,768,8-22-2022,5-1-34,97,depth_duration_stimuli/000191_2014-05-12_17-07-38_260595134347_rgbf000199-resize_0/000191_2014-05-12_17-07-38_260595134347_rgbf000199-resize_0-target.png,1000,3.7995,6,15097,1041,meters,jsons/v1_VE1000_randls_17_rotated.json,1738211,1905958,30,Woman
97,202019,DepthScenes,duration_manipulation_targetAtFixation,jsons/v1_VE1000_randls_17_rotated.json,http://54.235.29.9/FacialAge/BNav_EC2/DepthDuration/v2_depth_duration_MTurk/v2_DepthDuration_HTML.html#93,93,1348,608,1364,768,8-22-2022,5-1-34,98,depth_duration_stimuli/000493_2014-06-09_21-01-18_260595134347_rgbf000196-resize_3/000493_2014-06-09_21-01-18_260595134347_rgbf000196-resize_3-target.png,1000,3.44,6,14738,1001,meters,jsons/v1_VE1000_randls_17_rotated.json,1738211,1905958,30,Woman
98,202019,DepthScenes,duration_manipulation_targetAtFixation,jsons/v1_VE1000_randls_17_rotated.json,http://54.235.29.9/FacialAge/BNav_EC2/DepthDuration/v2_depth_duration_MTurk/v2_DepthDuration_HTML.html#93,93,1348,608,1364,768,8-22-2022,5-1-34,99,depth_duration_stimuli/001222_2014-06-17_16-24-06_260595134347_rgbf000073-resize_0/001222_2014-06-17_16-24-06_260595134347_rgbf000073-resize-original.jpg,1000,1.4385,10,18539,999,meters,jsons/v1_VE1000_randls_17_rotated.json,1738211,1905958,30,Woman
99,202019,DepthScenes,duration_manipulation_targetAtFixation,jsons/v1_VE1000_randls_17_rotated.json,http://54.235.29.9/FacialAge/BNav_EC2/DepthDuration/v2_depth_duration_MTurk/v2_DepthDuration_HTML.html#93,93,1348,608,1364,768,8-22-2022,5-1-34,100,depth_duration_stimuli/002660_2014-06-13_15-44-18_094959634447_rgbf001878-resize_2/002660_2014-06-13_15-44-18_094959634447_rgbf001878-resize_2-target.png,1000,3.576,20,16762,998,meters,jsons/v1_VE1000_randls_17_rotated.json,1738211,1905958,30,Woman
100,202019,DepthScenes,duration_manipulation_targetAtFixation,jsons/v1_VE1000_randls_17_rotated.json,http://54.235.29.9/FacialAge/BNav_EC2/DepthDuration/v2_depth_duration_MTurk/v2_DepthDuration_HTML.html#93,93,1348,608,1364,768,8-22-2022,5-1-34,101,depth_duration_stimuli/002153_2014-06-25_21-27-18_260595134347_rgbf000038-resize_5/002153_2014-06-25_21-27-18_260595134347_rgbf000038-resize_5-target.png,1000,2.505,10,6339,1001,meters,jsons/v1_VE1000_randls_17_rotated.json,1738211,1905958,30,Woman
101,202019,DepthScenes,duration_manipulation_targetAtFixation,jsons/v1_VE1000_randls_17_rotated.json,http://54.235.29.9/FacialAge/BNav_EC2/DepthDuration/v2_depth_duration_MTurk/v2_DepthDuration_HTML.html#93,93,1348,608,1364,768,8-22-2022,5-1-34,102,depth_duration_stimuli/000866_2014-06-09_20-45-42_260595134347_rgbf000139-resize_1/000866_2014-06-09_20-45-42_260595134347_rgbf000139-resize_1-target.png,1000,3.2155,2,15043,1002,meters,jsons/v1_VE1000_randls_17_rotated.json,1738211,1905958,30,Woman
102,202019,DepthScenes,duration_manipulation_targetAtFixation,jsons/v1_VE1000_randls_17_rotated.json,http://54.235.29.9/FacialAge/BNav_EC2/DepthDuration/v2_depth_duration_MTurk/v2_DepthDuration_HTML.html#93,93,1348,608,1364,768,8-22-2022,5-1-34,103,depth_duration_stimuli/002989_2014-06-15_12-25-03_094959634447_rgbf000150-resize_3/002989_2014-06-15_12-25-03_094959634447_rgbf000150-resize_3-target.png,1000,4.1975,3,6971,999,meters,jsons/v1_VE1000_randls_17_rotated.json,1738211,1905958,30,Woman
103,202019,DepthScenes,duration_manipulation_targetAtFixation,jsons/v1_VE1000_randls_17_rotated.json,http://54.235.29.9/FacialAge/BNav_EC2/DepthDuration/v2_depth_duration_MTurk/v2_DepthDuration_HTML.html#93,93,1348,608,1364,768,8-22-2022,5-1-34,104,depth_duration_stimuli/002136_2014-06-25_21-18-03_260595134347_rgbf000109-resize_3/002136_2014-06-25_21-18-03_260595134347_rgbf000109-resize_3-target.png,1000,1.9569999999999999,8,8835,997,meters,jsons/v1_VE1000_randls_17_rotated.json,1738211,1905958,30,Woman
104,202019,DepthScenes,duration_manipulation_targetAtFixation,jsons/v1_VE1000_randls_17_rotated.json,http://54.235.29.9/FacialAge/BNav_EC2/DepthDuration/v2_depth_duration_MTurk/v2_DepthDuration_HTML.html#93,93,1348,608,1364,768,8-22-2022,5-1-34,105,depth_duration_stimuli/002964_2014-06-08_17-46-11_094959634447_rgbf000091-resize_4/002964_2014-06-08_17-46-11_094959634447_rgbf000091-resize_4-target.png,1000,1.6909999999999998,9,13817,1001,meters,jsons/v1_VE1000_randls_17_rotated.json,1738211,1905958,30,Woman
105,202019,DepthScenes,duration_manipulation_targetAtFixation,jsons/v1_VE1000_randls_17_rotated.json,http://54.235.29.9/FacialAge/BNav_EC2/DepthDuration/v2_depth_duration_MTurk/v2_DepthDuration_HTML.html#93,93,1348,608,1364,768,8-22-2022,5-1-34,106,depth_duration_stimuli/001032_2014-06-08_13-23-17_260595134347_rgbf000021-resize_3/001032_2014-06-08_13-23-17_260595134347_rgbf000021-resize_3-target.png,1000,3.2725,6,17459,990,meters,jsons/v1_VE1000_randls_17_rotated.json,1738211,1905958,30,Woman
106,202019,DepthScenes,duration_manipulation_targetAtFixation,jsons/v1_VE1000_randls_17_rotated.json,http://54.235.29.9/FacialAge/BNav_EC2/DepthDuration/v2_depth_duration_MTurk/v2_DepthDuration_HTML.html#93,93,1348,608,1364,768,8-22-2022,5-1-34,107,depth_duration_stimuli/001059_2014-06-08_21-53-27_260595134347_rgbf000061-resize_4/001059_2014-06-08_21-53-27_260595134347_rgbf000061-resize_4-target.png,1000,2.4185,20,12051,1000,meters,jsons/v1_VE1000_randls_17_rotated.json,1738211,1905958,30,Woman
107,202019,DepthScenes,duration_manipulation_targetAtFixation,jsons/v1_VE1000_randls_17_rotated.json,http://54.235.29.9/FacialAge/BNav_EC2/DepthDuration/v2_depth_duration_MTurk/v2_DepthDuration_HTML.html#93,93,1348,608,1364,768,8-22-2022,5-1-34,108,depth_duration_stimuli/001052_2014-06-08_18-24-54_260595134347_rgbf000130-resize_1/001052_2014-06-08_18-24-54_260595134347_rgbf000130-resize_1-target.png,1000,4.1045,20,11645,997,meters,jsons/v1_VE1000_randls_17_rotated.json,1738211,1905958,30,Woman
108,202019,DepthScenes,duration_manipulation_targetAtFixation,jsons/v1_VE1000_randls_17_rotated.json,http://54.235.29.9/FacialAge/BNav_EC2/DepthDuration/v2_depth_duration_MTurk/v2_DepthDuration_HTML.html#93,93,1348,608,1364,768,8-22-2022,5-1-34,109,depth_duration_stimuli/002988_2014-06-15_12-24-20_094959634447_rgbf000150-resize_1/002988_2014-06-15_12-24-20_094959634447_rgbf000150-resize_1-target.png,1000,4.7669999999999995,1,13433,999,meters,jsons/v1_VE1000_randls_17_rotated.json,1738211,1905958,30,Woman
109,202019,DepthScenes,duration_manipulation_targetAtFixation,jsons/v1_VE1000_randls_17_rotated.json,http://54.235.29.9/FacialAge/BNav_EC2/DepthDuration/v2_depth_duration_MTurk/v2_DepthDuration_HTML.html#93,93,1348,608,1364,768,8-22-2022,5-1-34,110,depth_duration_stimuli/002637_2014-06-24_14-51-13_094959634447_rgbf000066-resize_4/002637_2014-06-24_14-51-13_094959634447_rgbf000066-resize_4-target.png,1000,1.9955,10,15054,999,meters,jsons/v1_VE1000_randls_17_rotated.json,1738211,1905958,30,Woman
110,202019,DepthScenes,duration_manipulation_targetAtFixation,jsons/v1_VE1000_randls_17_rotated.json,http://54.235.29.9/FacialAge/BNav_EC2/DepthDuration/v2_depth_duration_MTurk/v2_DepthDuration_HTML.html#93,93,1348,608,1364,768,8-22-2022,5-1-34,111,depth_duration_stimuli/003534_2014-05-22_15-06-10_094959634447_rgbf000102-resize_4/003534_2014-05-22_15-06-10_094959634447_rgbf000102-resize_4-target.png,1000,1.426,5,5475,999,meters,jsons/v1_VE1000_randls_17_rotated.json,1738211,1905958,30,Woman
111,202019,DepthScenes,duration_manipulation_targetAtFixation,jsons/v1_VE1000_randls_17_rotated.json,http://54.235.29.9/FacialAge/BNav_EC2/DepthDuration/v2_depth_duration_MTurk/v2_DepthDuration_HTML.html#93,93,1348,608,1364,768,8-22-2022,5-1-34,112,depth_duration_stimuli/000677_2014-06-08_23-10-32_260595134347_rgbf000158-resize_6/000677_2014-06-08_23-10-32_260595134347_rgbf000158-resize_6-target.png,1000,3.556,3,40186,1000,meters,jsons/v1_VE1000_randls_17_rotated.json,1738211,1905958,30,Woman
112,202019,DepthScenes,duration_manipulation_targetAtFixation,jsons/v1_VE1000_randls_17_rotated.json,http://54.235.29.9/FacialAge/BNav_EC2/DepthDuration/v2_depth_duration_MTurk/v2_DepthDuration_HTML.html#93,93,1348,608,1364,768,8-22-2022,5-1-34,113,depth_duration_stimuli/001029_2014-06-08_13-17-57_260595134347_rgbf000065-resize_1/001029_2014-06-08_13-17-57_260595134347_rgbf000065-resize_1-target.png,1000,3.0835,5,8906,997,meters,jsons/v1_VE1000_randls_17_rotated.json,1738211,1905958,30,Woman
113,202019,DepthScenes,duration_manipulation_targetAtFixation,jsons/v1_VE1000_randls_17_rotated.json,http://54.235.29.9/FacialAge/BNav_EC2/DepthDuration/v2_depth_duration_MTurk/v2_DepthDuration_HTML.html#93,93,1348,608,1364,768,8-22-2022,5-1-34,114,depth_duration_stimuli/000780_2014-06-08_22-28-29_260595134347_rgbf000126-resize_1/000780_2014-06-08_22-28-29_260595134347_rgbf000126-resize_1-target.png,1000,3.3825,20,11177,997,meters,jsons/v1_VE1000_randls_17_rotated.json,1738211,1905958,30,Woman
114,202019,DepthScenes,duration_manipulation_targetAtFixation,jsons/v1_VE1000_randls_17_rotated.json,http://54.235.29.9/FacialAge/BNav_EC2/DepthDuration/v2_depth_duration_MTurk/v2_DepthDuration_HTML.html#93,93,1348,608,1364,768,8-22-2022,5-1-34,115,depth_duration_stimuli/002445_2014-06-28_20-32-16_260595134347_rgbf000029-resize_4/002445_2014-06-28_20-32-16_260595134347_rgbf000029-resize_4-target.png,1000,2.5315,1,6845,1000,meters,jsons/v1_VE1000_randls_17_rotated.json,1738211,1905958,30,Woman
115,202019,DepthScenes,duration_manipulation_targetAtFixation,jsons/v1_VE1000_randls_17_rotated.json,http://54.235.29.9/FacialAge/BNav_EC2/DepthDuration/v2_depth_duration_MTurk/v2_DepthDuration_HTML.html#93,93,1348,608,1364,768,8-22-2022,5-1-34,116,depth_duration_stimuli/003587_2014-05-23_16-48-02_094959634447_rgbf002384-resize_2/003587_2014-05-23_16-48-02_094959634447_rgbf002384-resize_2-target.png,1000,1.357,6,14178,998,meters,jsons/v1_VE1000_randls_17_rotated.json,1738211,1905958,30,Woman
116,202019,DepthScenes,duration_manipulation_targetAtFixation,jsons/v1_VE1000_randls_17_rotated.json,http://54.235.29.9/FacialAge/BNav_EC2/DepthDuration/v2_depth_duration_MTurk/v2_DepthDuration_HTML.html#93,93,1348,608,1364,768,8-22-2022,5-1-34,117,depth_duration_stimuli/001167_2014-06-17_15-38-07_260595134347_rgbf000108-resize_0/001167_2014-06-17_15-38-07_260595134347_rgbf000108-resize_0-target.png,1000,1.8505,5,9746,1000,meters,jsons/v1_VE1000_randls_17_rotated.json,1738211,1905958,30,Woman
117,202019,DepthScenes,duration_manipulation_targetAtFixation,jsons/v1_VE1000_randls_17_rotated.json,http://54.235.29.9/FacialAge/BNav_EC2/DepthDuration/v2_depth_duration_MTurk/v2_DepthDuration_HTML.html#93,93,1348,608,1364,768,8-22-2022,5-1-34,118,depth_duration_stimuli/001132_2014-06-17_14-48-54_260595134347_rgbf000100-resize_2/001132_2014-06-17_14-48-54_260595134347_rgbf000100-resize_2-target.png,1000,3.753,6,11394,998,meters,jsons/v1_VE1000_randls_17_rotated.json,1738211,1905958,30,Woman
118,202019,DepthScenes,duration_manipulation_targetAtFixation,jsons/v1_VE1000_randls_17_rotated.json,http://54.235.29.9/FacialAge/BNav_EC2/DepthDuration/v2_depth_duration_MTurk/v2_DepthDuration_HTML.html#93,93,1348,608,1364,768,8-22-2022,5-1-34,119,depth_duration_stimuli/001133_2014-06-17_14-49-16_260595134347_rgbf000100-resize_0/001133_2014-06-17_14-49-16_260595134347_rgbf000100-resize_0-target.png,1000,4.2115,6,6258,998,meters,jsons/v1_VE1000_randls_17_rotated.json,1738211,1905958,30,Woman
119,202019,DepthScenes,duration_manipulation_targetAtFixation,jsons/v1_VE1000_randls_17_rotated.json,http://54.235.29.9/FacialAge/BNav_EC2/DepthDuration/v2_depth_duration_MTurk/v2_DepthDuration_HTML.html#93,93,1348,608,1364,768,8-22-2022,5-1-34,120,depth_duration_stimuli/000787_2014-06-08_22-33-53_260595134347_rgbf000175-resize_1/000787_2014-06-08_22-33-53_260595134347_rgbf000175-resize-original.jpg,1000,4.784,60,8258,1000,meters,jsons/v1_VE1000_randls_17_rotated.json,1738211,1905958,30,Woman
120,202019,DepthScenes,duration_manipulation_targetAtFixation,jsons/v1_VE1000_randls_17_rotated.json,http://54.235.29.9/FacialAge/BNav_EC2/DepthDuration/v2_depth_duration_MTurk/v2_DepthDuration_HTML.html#93,93,1348,608,1364,768,8-22-2022,5-1-34,121,depth_duration_stimuli/000109_2014-05-14_23-41-52_260595134347_rgbf000035-resize_9/000109_2014-05-14_23-41-52_260595134347_rgbf000035-resize_9-target.png,1000,1.3545,10,7922,1000,meters,jsons/v1_VE1000_randls_17_rotated.json,1738211,1905958,30,Woman
121,202019,DepthScenes,duration_manipulation_targetAtFixation,jsons/v1_VE1000_randls_17_rotated.json,http://54.235.29.9/FacialAge/BNav_EC2/DepthDuration/v2_depth_duration_MTurk/v2_DepthDuration_HTML.html#93,93,1348,608,1364,768,8-22-2022,5-1-34,122,depth_duration_stimuli/000470_2014-06-09_19-42-40_260595134347_rgbf000094-resize_1/000470_2014-06-09_19-42-40_260595134347_rgbf000094-resize_1-target.png,1000,1.831,2,5387,998,meters,jsons/v1_VE1000_randls_17_rotated.json,1738211,1905958,30,Woman
122,202019,DepthScenes,duration_manipulation_targetAtFixation,jsons/v1_VE1000_randls_17_rotated.json,http://54.235.29.9/FacialAge/BNav_EC2/DepthDuration/v2_depth_duration_MTurk/v2_DepthDuration_HTML.html#93,93,1348,608,1364,768,8-22-2022,5-1-34,123,depth_duration_stimuli/000665_2014-06-09_20-42-35_260595134347_rgbf000110-resize_1/000665_2014-06-09_20-42-35_260595134347_rgbf000110-resize_1-target.png,1000,3.057,12,7450,1001,meters,jsons/v1_VE1000_randls_17_rotated.json,1738211,1905958,30,Woman
123,202019,DepthScenes,duration_manipulation_targetAtFixation,jsons/v1_VE1000_randls_17_rotated.json,http://54.235.29.9/FacialAge/BNav_EC2/DepthDuration/v2_depth_duration_MTurk/v2_DepthDuration_HTML.html#93,93,1348,608,1364,768,8-22-2022,5-1-34,124,depth_duration_stimuli/001150_2014-06-17_15-27-34_260595134347_rgbf000108-resize_2/001150_2014-06-17_15-27-34_260595134347_rgbf000108-resize_2-target.png,1000,4.0325,20,3579,1000,meters,jsons/v1_VE1000_randls_17_rotated.json,1738211,1905958,30,Woman
124,202019,DepthScenes,duration_manipulation_targetAtFixation,jsons/v1_VE1000_randls_17_rotated.json,http://54.235.29.9/FacialAge/BNav_EC2/DepthDuration/v2_depth_duration_MTurk/v2_DepthDuration_HTML.html#93,93,1348,608,1364,768,8-22-2022,5-1-34,125,depth_duration_stimuli/000409_2014-06-04_19-23-33_260595134347_rgbf000067-resize_0/000409_2014-06-04_19-23-33_260595134347_rgbf000067-resize_0-target.png,1000,3.7335,12,5162,999,meters,jsons/v1_VE1000_randls_17_rotated.json,1738211,1905958,30,Woman
125,202019,DepthScenes,duration_manipulation_targetAtFixation,jsons/v1_VE1000_randls_17_rotated.json,http://54.235.29.9/FacialAge/BNav_EC2/DepthDuration/v2_depth_duration_MTurk/v2_DepthDuration_HTML.html#93,93,1348,608,1364,768,8-22-2022,5-1-34,126,depth_duration_stimuli/002663_2014-06-13_15-50-26_094959634447_rgbf000075-resize_1/002663_2014-06-13_15-50-26_094959634447_rgbf000075-resize_1-target.png,1000,4.7495,2,7322,975,meters,jsons/v1_VE1000_randls_17_rotated.json,1738211,1905958,30,Woman
126,202019,DepthScenes,duration_manipulation_targetAtFixation,jsons/v1_VE1000_randls_17_rotated.json,http://54.235.29.9/FacialAge/BNav_EC2/DepthDuration/v2_depth_duration_MTurk/v2_DepthDuration_HTML.html#93,93,1348,608,1364,768,8-22-2022,5-1-34,127,depth_duration_stimuli/002199_2014-06-28_18-33-56_260595134347_rgbf000074-resize_0/002199_2014-06-28_18-33-56_260595134347_rgbf000074-resize_0-target.png,1000,1.996,6,12292,999,meters,jsons/v1_VE1000_randls_17_rotated.json,1738211,1905958,30,Woman
127,202019,DepthScenes,duration_manipulation_targetAtFixation,jsons/v1_VE1000_randls_17_rotated.json,http://54.235.29.9/FacialAge/BNav_EC2/DepthDuration/v2_depth_duration_MTurk/v2_DepthDuration_HTML.html#93,93,1348,608,1364,768,8-22-2022,5-1-34,128,depth_duration_stimuli/001056_2014-06-08_18-46-44_260595134347_rgbf000068-resize_0/001056_2014-06-08_18-46-44_260595134347_rgbf000068-resize_0-target.png,1000,2.6625,6,8868,1006,meters,jsons/v1_VE1000_randls_17_rotated.json,1738211,1905958,30,Woman
128,202019,DepthScenes,duration_manipulation_targetAtFixation,jsons/v1_VE1000_randls_17_rotated.json,http://54.235.29.9/FacialAge/BNav_EC2/DepthDuration/v2_depth_duration_MTurk/v2_DepthDuration_HTML.html#93,93,1348,608,1364,768,8-22-2022,5-1-34,129,depth_duration_stimuli/003079_2014-06-15_15-18-20_094959634447_rgbf000152-resize_8/003079_2014-06-15_15-18-20_094959634447_rgbf000152-resize_8-target.png,1000,2.8775,6,9384,1000,meters,jsons/v1_VE1000_randls_17_rotated.json,1738211,1905958,30,Woman
129,202019,DepthScenes,duration_manipulation_targetAtFixation,jsons/v1_VE1000_randls_17_rotated.json,http://54.235.29.9/FacialAge/BNav_EC2/DepthDuration/v2_depth_duration_MTurk/v2_DepthDuration_HTML.html#93,93,1348,608,1364,768,8-22-2022,5-1-34,130,depth_duration_stimuli/000506_2014-06-08_23-21-00_260595134347_rgbf000070-resize_7/000506_2014-06-08_23-21-00_260595134347_rgbf000070-resize_7-target.png,1000,4.0585,8,3290,999,meters,jsons/v1_VE1000_randls_17_rotated.json,1738211,1905958,30,Woman
130,202019,DepthScenes,duration_manipulation_targetAtFixation,jsons/v1_VE1000_randls_17_rotated.json,http://54.235.29.9/FacialAge/BNav_EC2/DepthDuration/v2_depth_duration_MTurk/v2_DepthDuration_HTML.html#93,93,1348,608,1364,768,8-22-2022,5-1-34,131,depth_duration_stimuli/003048_2014-06-15_13-49-43_094959634447_rgbf000150-resize_1/003048_2014-06-15_13-49-43_094959634447_rgbf000150-resize_1-target.png,1000,4.0035,8,5709,1000,meters,jsons/v1_VE1000_randls_17_rotated.json,1738211,1905958,30,Woman
131,202019,DepthScenes,duration_manipulation_targetAtFixation,jsons/v1_VE1000_randls_17_rotated.json,http://54.235.29.9/FacialAge/BNav_EC2/DepthDuration/v2_depth_duration_MTurk/v2_DepthDuration_HTML.html#93,93,1348,608,1364,768,8-22-2022,5-1-34,132,depth_duration_stimuli/002043_2014-06-24_20-29-38_260595134347_rgbf000039-resize_4/002043_2014-06-24_20-29-38_260595134347_rgbf000039-resize_4-target.png,1000,2.8435,9,3631,975,meters,jsons/v1_VE1000_randls_17_rotated.json,1738211,1905958,30,Woman
132,202019,DepthScenes,duration_manipulation_targetAtFixation,jsons/v1_VE1000_randls_17_rotated.json,http://54.235.29.9/FacialAge/BNav_EC2/DepthDuration/v2_depth_duration_MTurk/v2_DepthDuration_HTML.html#93,93,1348,608,1364,768,8-22-2022,5-1-34,133,depth_duration_stimuli/001516_2014-06-20_16-25-09_260595134347_rgbf000076-resize_2/001516_2014-06-20_16-25-09_260595134347_rgbf000076-resize_2-target.png,1000,1.7445,4,6857,1148,meters,jsons/v1_VE1000_randls_17_rotated.json,1738211,1905958,30,Woman
133,202019,DepthScenes,duration_manipulation_targetAtFixation,jsons/v1_VE1000_randls_17_rotated.json,http://54.235.29.9/FacialAge/BNav_EC2/DepthDuration/v2_depth_duration_MTurk/v2_DepthDuration_HTML.html#93,93,1348,608,1364,768,8-22-2022,5-1-34,134,depth_duration_stimuli/002118_2014-06-25_20-32-08_260595134347_rgbf000078-resize_1/002118_2014-06-25_20-32-08_260595134347_rgbf000078-resize_1-target.png,1000,2.6460000000000004,6,3450,999,meters,jsons/v1_VE1000_randls_17_rotated.json,1738211,1905958,30,Woman
134,202019,DepthScenes,duration_manipulation_targetAtFixation,jsons/v1_VE1000_randls_17_rotated.json,http://54.235.29.9/FacialAge/BNav_EC2/DepthDuration/v2_depth_duration_MTurk/v2_DepthDuration_HTML.html#93,93,1348,608,1364,768,8-22-2022,5-1-34,135,depth_duration_stimuli/000375_2014-06-08_11-17-29_260595134347_rgbf000133-resize_2/000375_2014-06-08_11-17-29_260595134347_rgbf000133-resize-original.jpg,1000,4.718,6,14353,992,meters,jsons/v1_VE1000_randls_17_rotated.json,1738211,1905958,30,Woman
135,202019,DepthScenes,duration_manipulation_targetAtFixation,jsons/v1_VE1000_randls_17_rotated.json,http://54.235.29.9/FacialAge/BNav_EC2/DepthDuration/v2_depth_duration_MTurk/v2_DepthDuration_HTML.html#93,93,1348,608,1364,768,8-22-2022,5-1-34,136,depth_duration_stimuli/002750_2014-06-22_19-08-03_094959634447_rgbf000094-resize_4/002750_2014-06-22_19-08-03_094959634447_rgbf000094-resize_4-target.png,1000,2.354,6,7509,999,meters,jsons/v1_VE1000_randls_17_rotated.json,1738211,1905958,30,Woman
136,202019,DepthScenes,duration_manipulation_targetAtFixation,jsons/v1_VE1000_randls_17_rotated.json,http://54.235.29.9/FacialAge/BNav_EC2/DepthDuration/v2_depth_duration_MTurk/v2_DepthDuration_HTML.html#93,93,1348,608,1364,768,8-22-2022,5-1-34,137,depth_duration_stimuli/002549_2014-06-24_13-41-39_094959634447_rgbf000022-resize_3/002549_2014-06-24_13-41-39_094959634447_rgbf000022-resize_3-target.png,1000,1.476,7,3669,1104,meters,jsons/v1_VE1000_randls_17_rotated.json,1738211,1905958,30,Woman
137,202019,DepthScenes,duration_manipulation_targetAtFixation,jsons/v1_VE1000_randls_17_rotated.json,http://54.235.29.9/FacialAge/BNav_EC2/DepthDuration/v2_depth_duration_MTurk/v2_DepthDuration_HTML.html#93,93,1348,608,1364,768,8-22-2022,5-1-34,138,depth_duration_stimuli/000556_2014-06-09_22-42-56_260595134347_rgbf000214-resize_1/000556_2014-06-09_22-42-56_260595134347_rgbf000214-resize_1-target.png,1000,4.8415,8,9805,1000,meters,jsons/v1_VE1000_randls_17_rotated.json,1738211,1905958,30,Woman
138,202019,DepthScenes,duration_manipulation_targetAtFixation,jsons/v1_VE1000_randls_17_rotated.json,http://54.235.29.9/FacialAge/BNav_EC2/DepthDuration/v2_depth_duration_MTurk/v2_DepthDuration_HTML.html#93,93,1348,608,1364,768,8-22-2022,5-1-34,139,depth_duration_stimuli/001158_2014-06-17_15-32-16_260595134347_rgbf000138-resize_2/001158_2014-06-17_15-32-16_260595134347_rgbf000138-resize_2-target.png,1000,4.5315,9,5591,1000,meters,jsons/v1_VE1000_randls_17_rotated.json,1738211,1905958,30,Woman
139,202019,DepthScenes,duration_manipulation_targetAtFixation,jsons/v1_VE1000_randls_17_rotated.json,http://54.235.29.9/FacialAge/BNav_EC2/DepthDuration/v2_depth_duration_MTurk/v2_DepthDuration_HTML.html#93,93,1348,608,1364,768,8-22-2022,5-1-34,140,depth_duration_stimuli/001617_2014-06-20_11-35-32_260595134347_rgbf000066-resize_1/001617_2014-06-20_11-35-32_260595134347_rgbf000066-resize_1-target.png,1000,3.7910000000000004,8,11609,1000,meters,jsons/v1_VE1000_randls_17_rotated.json,1738211,1905958,30,Woman
140,202019,DepthScenes,duration_manipulation_targetAtFixation,jsons/v1_VE1000_randls_17_rotated.json,http://54.235.29.9/FacialAge/BNav_EC2/DepthDuration/v2_depth_duration_MTurk/v2_DepthDuration_HTML.html#93,93,1348,608,1364,768,8-22-2022,5-1-34,141,depth_duration_stimuli/001806_2014-06-26_20-50-20_260595134347_rgbf000091-resize_1/001806_2014-06-26_20-50-20_260595134347_rgbf000091-resize_1-target.png,1000,2.7305,6,10282,999,meters,jsons/v1_VE1000_randls_17_rotated.json,1738211,1905958,30,Woman
141,202019,DepthScenes,duration_manipulation_targetAtFixation,jsons/v1_VE1000_randls_17_rotated.json,http://54.235.29.9/FacialAge/BNav_EC2/DepthDuration/v2_depth_duration_MTurk/v2_DepthDuration_HTML.html#93,93,1348,608,1364,768,8-22-2022,5-1-34,142,depth_duration_stimuli/003423_2014-05-21_10-23-26_094959634447_rgbf002665-resize_2/003423_2014-05-21_10-23-26_094959634447_rgbf002665-resize_2-target.png,1000,3.2575,5,9268,1000,meters,jsons/v1_VE1000_randls_17_rotated.json,1738211,1905958,30,Woman
142,202019,DepthScenes,duration_manipulation_targetAtFixation,jsons/v1_VE1000_randls_17_rotated.json,http://54.235.29.9/FacialAge/BNav_EC2/DepthDuration/v2_depth_duration_MTurk/v2_DepthDuration_HTML.html#93,93,1348,608,1364,768,8-22-2022,5-1-34,143,depth_duration_stimuli/002905_2014-06-03_18-04-43_094959634447_rgbf000151-resize_2/002905_2014-06-03_18-04-43_094959634447_rgbf000151-resize_2-target.png,1000,2.0295,6,13628,1033,meters,jsons/v1_VE1000_randls_17_rotated.json,1738211,1905958,30,Woman
143,202019,DepthScenes,duration_manipulation_targetAtFixation,jsons/v1_VE1000_randls_17_rotated.json,http://54.235.29.9/FacialAge/BNav_EC2/DepthDuration/v2_depth_duration_MTurk/v2_DepthDuration_HTML.html#93,93,1348,608,1364,768,8-22-2022,5-1-34,144,depth_duration_stimuli/000709_2014-06-08_13-51-55_260595134347_rgbf000068-resize_3/000709_2014-06-08_13-51-55_260595134347_rgbf000068-resize_3-target.png,1000,1.8030000000000002,1,9019,998,meters,jsons/v1_VE1000_randls_17_rotated.json,1738211,1905958,30,Woman
144,202019,DepthScenes,duration_manipulation_targetAtFixation,jsons/v1_VE1000_randls_17_rotated.json,http://54.235.29.9/FacialAge/BNav_EC2/DepthDuration/v2_depth_duration_MTurk/v2_DepthDuration_HTML.html#93,93,1348,608,1364,768,8-22-2022,5-1-34,145,depth_duration_stimuli/002057_2014-06-24_21-00-13_260595134347_rgbf000120-resize_1/002057_2014-06-24_21-00-13_260595134347_rgbf000120-resize_1-target.png,1000,2.967,3,3264,1006,meters,jsons/v1_VE1000_randls_17_rotated.json,1738211,1905958,30,Woman
145,202019,DepthScenes,duration_manipulation_targetAtFixation,jsons/v1_VE1000_randls_17_rotated.json,http://54.235.29.9/FacialAge/BNav_EC2/DepthDuration/v2_depth_duration_MTurk/v2_DepthDuration_HTML.html#93,93,1348,608,1364,768,8-22-2022,5-1-34,146,depth_duration_stimuli/002805_2014-06-22_19-54-03_094959634447_rgbf000079-resize_1/002805_2014-06-22_19-54-03_094959634447_rgbf000079-resize_1-target.png,1000,3.1439999999999997,5,6143,998,meters,jsons/v1_VE1000_randls_17_rotated.json,1738211,1905958,30,Woman
146,202019,DepthScenes,duration_manipulation_targetAtFixation,jsons/v1_VE1000_randls_17_rotated.json,http://54.235.29.9/FacialAge/BNav_EC2/DepthDuration/v2_depth_duration_MTurk/v2_DepthDuration_HTML.html#93,93,1348,608,1364,768,8-22-2022,5-1-34,147,depth_duration_stimuli/000906_2014-06-08_13-35-43_260595134347_rgbf000155-resize_1/000906_2014-06-08_13-35-43_260595134347_rgbf000155-resize_1-target.png,1000,2.8489999999999998,9,7014,1047,meters,jsons/v1_VE1000_randls_17_rotated.json,1738211,1905958,30,Woman
147,202019,DepthScenes,duration_manipulation_targetAtFixation,jsons/v1_VE1000_randls_17_rotated.json,http://54.235.29.9/FacialAge/BNav_EC2/DepthDuration/v2_depth_duration_MTurk/v2_DepthDuration_HTML.html#93,93,1348,608,1364,768,8-22-2022,5-1-34,148,depth_duration_stimuli/001136_2014-06-17_15-19-41_260595134347_rgbf000076-resize_3/001136_2014-06-17_15-19-41_260595134347_rgbf000076-resize_3-target.png,1000,1.8655,7,9954,999,meters,jsons/v1_VE1000_randls_17_rotated.json,1738211,1905958,30,Woman
148,202019,DepthScenes,duration_manipulation_targetAtFixation,jsons/v1_VE1000_randls_17_rotated.json,http://54.235.29.9/FacialAge/BNav_EC2/DepthDuration/v2_depth_duration_MTurk/v2_DepthDuration_HTML.html#93,93,1348,608,1364,768,8-22-2022,5-1-34,149,depth_duration_stimuli/001164_2014-06-17_15-35-46_260595134347_rgbf000085-resize_3/001164_2014-06-17_15-35-46_260595134347_rgbf000085-resize_3-target.png,1000,2.354,8,3756,999,meters,jsons/v1_VE1000_randls_17_rotated.json,1738211,1905958,30,Woman
149,202019,DepthScenes,duration_manipulation_targetAtFixation,jsons/v1_VE1000_randls_17_rotated.json,http://54.235.29.9/FacialAge/BNav_EC2/DepthDuration/v2_depth_duration_MTurk/v2_DepthDuration_HTML.html#93,93,1348,608,1364,768,8-22-2022,5-1-34,150,depth_duration_stimuli/003083_2014-06-15_15-21-03_094959634447_rgbf000063-resize_1/003083_2014-06-15_15-21-03_094959634447_rgbf000063-resize_1-target.png,1000,4.1405,6,5459,999,meters,jsons/v1_VE1000_randls_17_rotated.json,1738211,1905958,30,Woman
150,202019,DepthScenes,duration_manipulation_targetAtFixation,jsons/v1_VE1000_randls_17_rotated.json,http://54.235.29.9/FacialAge/BNav_EC2/DepthDuration/v2_depth_duration_MTurk/v2_DepthDuration_HTML.html#93,93,1348,608,1364,768,8-22-2022,5-1-34,151,depth_duration_stimuli/000486_2014-06-09_20-47-20_260595134347_rgbf000143-resize_2/000486_2014-06-09_20-47-20_260595134347_rgbf000143-resize_2-target.png,1000,4.8325,7,6265,999,meters,jsons/v1_VE1000_randls_17_rotated.json,1738211,1905958,30,Woman
151,202019,DepthScenes,duration_manipulation_targetAtFixation,jsons/v1_VE1000_randls_17_rotated.json,http://54.235.29.9/FacialAge/BNav_EC2/DepthDuration/v2_depth_duration_MTurk/v2_DepthDuration_HTML.html#93,93,1348,608,1364,768,8-22-2022,5-1-34,152,depth_duration_stimuli/000569_2014-06-09_22-51-47_260595134347_rgbf000141-resize_3/000569_2014-06-09_22-51-47_260595134347_rgbf000141-resize-original.jpg,1000,4.512,8,5183,1001,meters,jsons/v1_VE1000_randls_17_rotated.json,1738211,1905958,30,Woman
152,202019,DepthScenes,duration_manipulation_targetAtFixation,jsons/v1_VE1000_randls_17_rotated.json,http://54.235.29.9/FacialAge/BNav_EC2/DepthDuration/v2_depth_duration_MTurk/v2_DepthDuration_HTML.html#93,93,1348,608,1364,768,8-22-2022,5-1-34,153,depth_duration_stimuli/001235_2014-06-17_16-37-36_260595134347_rgbf000084-resize_4/001235_2014-06-17_16-37-36_260595134347_rgbf000084-resize_4-target.png,1000,3.6605,10,8558,998,meters,jsons/v1_VE1000_randls_17_rotated.json,1738211,1905958,30,Woman
153,202019,DepthScenes,duration_manipulation_targetAtFixation,jsons/v1_VE1000_randls_17_rotated.json,http://54.235.29.9/FacialAge/BNav_EC2/DepthDuration/v2_depth_duration_MTurk/v2_DepthDuration_HTML.html#93,93,1348,608,1364,768,8-22-2022,5-1-34,154,depth_duration_stimuli/000788_2014-06-08_22-34-36_260595134347_rgbf000131-resize_1/000788_2014-06-08_22-34-36_260595134347_rgbf000131-resize_1-target.png,1000,3.359,50,5677,999,meters,jsons/v1_VE1000_randls_17_rotated.json,1738211,1905958,30,Woman
154,202019,DepthScenes,duration_manipulation_targetAtFixation,jsons/v1_VE1000_randls_17_rotated.json,http://54.235.29.9/FacialAge/BNav_EC2/DepthDuration/v2_depth_duration_MTurk/v2_DepthDuration_HTML.html#93,93,1348,608,1364,768,8-22-2022,5-1-34,155,depth_duration_stimuli/000502_2014-06-08_23-02-32_260595134347_rgbf000063-resize_4/000502_2014-06-08_23-02-32_260595134347_rgbf000063-resize_4-target.png,1000,2.431,10,6903,999,meters,jsons/v1_VE1000_randls_17_rotated.json,1738211,1905958,30,Woman
155,202019,DepthScenes,duration_manipulation_targetAtFixation,jsons/v1_VE1000_randls_17_rotated.json,http://54.235.29.9/FacialAge/BNav_EC2/DepthDuration/v2_depth_duration_MTurk/v2_DepthDuration_HTML.html#93,93,1348,608,1364,768,8-22-2022,5-1-34,156,depth_duration_stimuli/001199_2014-06-17_16-03-48_260595134347_rgbf000077-resize_0/001199_2014-06-17_16-03-48_260595134347_rgbf000077-resize_0-target.png,1000,3.4375,50,3908,999,meters,jsons/v1_VE1000_randls_17_rotated.json,1738211,1905958,30,Woman
156,202019,DepthScenes,duration_manipulation_targetAtFixation,jsons/v1_VE1000_randls_17_rotated.json,http://54.235.29.9/FacialAge/BNav_EC2/DepthDuration/v2_depth_duration_MTurk/v2_DepthDuration_HTML.html#93,93,1348,608,1364,768,8-22-2022,5-1-34,157,depth_duration_stimuli/002657_2014-06-13_15-29-54_094959634447_rgbf000150-resize_1/002657_2014-06-13_15-29-54_094959634447_rgbf000150-resize_1-target.png,1000,4.919,50,6570,1000,meters,jsons/v1_VE1000_randls_17_rotated.json,1738211,1905958,30,Woman
157,202019,DepthScenes,duration_manipulation_targetAtFixation,jsons/v1_VE1000_randls_17_rotated.json,http://54.235.29.9/FacialAge/BNav_EC2/DepthDuration/v2_depth_duration_MTurk/v2_DepthDuration_HTML.html#93,93,1348,608,1364,768,8-22-2022,5-1-34,158,depth_duration_stimuli/002375_2014-06-28_20-13-44_260595134347_rgbf000032-resize_1/002375_2014-06-28_20-13-44_260595134347_rgbf000032-resize_1-target.png,1000,4.0175,10,5515,939,meters,jsons/v1_VE1000_randls_17_rotated.json,1738211,1905958,30,Woman
158,202019,DepthScenes,duration_manipulation_targetAtFixation,jsons/v1_VE1000_randls_17_rotated.json,http://54.235.29.9/FacialAge/BNav_EC2/DepthDuration/v2_depth_duration_MTurk/v2_DepthDuration_HTML.html#93,93,1348,608,1364,768,8-22-2022,5-1-34,159,depth_duration_stimuli/001584_2014-06-20_11-07-43_260595134347_rgbf000002-resize_1/001584_2014-06-20_11-07-43_260595134347_rgbf000002-resize_1-target.png,1000,3.53,2,12892,999,meters,jsons/v1_VE1000_randls_17_rotated.json,1738211,1905958,30,Woman
159,202019,DepthScenes,duration_manipulation_targetAtFixation,jsons/v1_VE1000_randls_17_rotated.json,http://54.235.29.9/FacialAge/BNav_EC2/DepthDuration/v2_depth_duration_MTurk/v2_DepthDuration_HTML.html#93,93,1348,608,1364,768,8-22-2022,5-1-34,160,depth_duration_stimuli/003621_2014-05-23_18-06-08_094959634447_rgbf000101-resize_1/003621_2014-05-23_18-06-08_094959634447_rgbf000101-resize_1-target.png,1000,3.9835,5,3850,1001,meters,jsons/v1_VE1000_randls_17_rotated.json,1738211,1905958,30,Woman
160,202019,DepthScenes,duration_manipulation_targetAtFixation,jsons/v1_VE1000_randls_17_rotated.json,http://54.235.29.9/FacialAge/BNav_EC2/DepthDuration/v2_depth_duration_MTurk/v2_DepthDuration_HTML.html#93,93,1348,608,1364,768,8-22-2022,5-1-34,161,depth_duration_stimuli/002103_2014-06-25_20-00-40_260595134347_rgbf000049-resize_0/002103_2014-06-25_20-00-40_260595134347_rgbf000049-resize_0-target.png,1000,4.105,1,12147,999,meters,jsons/v1_VE1000_randls_17_rotated.json,1738211,1905958,30,Woman
161,202019,DepthScenes,duration_manipulation_targetAtFixation,jsons/v1_VE1000_randls_17_rotated.json,http://54.235.29.9/FacialAge/BNav_EC2/DepthDuration/v2_depth_duration_MTurk/v2_DepthDuration_HTML.html#93,93,1348,608,1364,768,8-22-2022,5-1-34,162,depth_duration_stimuli/002039_2014-06-24_20-22-38_260595134347_rgbf000084-resize_1/002039_2014-06-24_20-22-38_260595134347_rgbf000084-resize_1-target.png,1000,4.408,1,21716,997,meters,jsons/v1_VE1000_randls_17_rotated.json,1738211,1905958,30,Woman
162,202019,DepthScenes,duration_manipulation_targetAtFixation,jsons/v1_VE1000_randls_17_rotated.json,http://54.235.29.9/FacialAge/BNav_EC2/DepthDuration/v2_depth_duration_MTurk/v2_DepthDuration_HTML.html#93,93,1348,608,1364,768,8-22-2022,5-1-34,163,depth_duration_stimuli/003228_2014-05-14_13-42-35_094959634447_rgbf000101-resize_1/003228_2014-05-14_13-42-35_094959634447_rgbf000101-resize_1-target.png,1000,1.9680000000000002,2,9517,993,meters,jsons/v1_VE1000_randls_17_rotated.json,1738211,1905958,30,Woman
163,202019,DepthScenes,duration_manipulation_targetAtFixation,jsons/v1_VE1000_randls_17_rotated.json,http://54.235.29.9/FacialAge/BNav_EC2/DepthDuration/v2_depth_duration_MTurk/v2_DepthDuration_HTML.html#93,93,1348,608,1364,768,8-22-2022,5-1-34,164,depth_duration_stimuli/002600_2014-06-24_14-27-04_094959634447_rgbf000074-resize_2/002600_2014-06-24_14-27-04_094959634447_rgbf000074-resize_2-target.png,1000,2.7575,4,3819,999,meters,jsons/v1_VE1000_randls_17_rotated.json,1738211,1905958,30,Woman
