,subjID,experimentName,versionName,sequenceName,url,selected_row,windowWidth,windowHeight,screenWidth,screenHeight,startDate,startTime,trial,stimulus,duration,actual_depth,depth_estimate,trial_RT,log_sceneDuration,unitSelection,seq_filepath,experimentTime,totalTime,age,gender
0,204178,DepthScenes,duration_manipulation_targetAtFixation,jsons/VE125_randls_46.json,http://54.235.29.9/FacialAge/BNav_EC2/DepthDuration/v2_depth_duration_MTurk/v2_DepthDuration_HTML.html#99,99,1440,789,1440,900,8-21-2022,9-36-52,1,depth_duration_stimuli/002272_2014-06-28_18-53-56_260595134347_rgbf000067-resize_2/002272_2014-06-28_18-53-56_260595134347_rgbf000067-resize_2-target.png,125,1.138,4,3835,110,meters,jsons/VE125_randls_46.json,874030,1493338,49,Man
1,204178,DepthScenes,duration_manipulation_targetAtFixation,jsons/VE125_randls_46.json,http://54.235.29.9/FacialAge/BNav_EC2/DepthDuration/v2_depth_duration_MTurk/v2_DepthDuration_HTML.html#99,99,1440,789,1440,900,8-21-2022,9-36-52,2,depth_duration_stimuli/001571_2014-06-20_17-21-32_260595134347_rgbf000089-resize_1/001571_2014-06-20_17-21-32_260595134347_rgbf000089-resize_1-target.png,125,1.86,5,3442,126,meters,jsons/VE125_randls_46.json,874030,1493338,49,Man
2,204178,DepthScenes,duration_manipulation_targetAtFixation,jsons/VE125_randls_46.json,http://54.235.29.9/FacialAge/BNav_EC2/DepthDuration/v2_depth_duration_MTurk/v2_DepthDuration_HTML.html#99,99,1440,789,1440,900,8-21-2022,9-36-52,3,depth_duration_stimuli/002509_2014-06-24_13-19-22_094959634447_rgbf000077-resize_0/002509_2014-06-24_13-19-22_094959634447_rgbf000077-resize_0-target.png,125,1.3065,5,3891,125,meters,jsons/VE125_randls_46.json,874030,1493338,49,Man
3,204178,DepthScenes,duration_manipulation_targetAtFixation,jsons/VE125_randls_46.json,http://54.235.29.9/FacialAge/BNav_EC2/DepthDuration/v2_depth_duration_MTurk/v2_DepthDuration_HTML.html#99,99,1440,789,1440,900,8-21-2022,9-36-52,4,depth_duration_stimuli/003338_2014-05-20_11-01-23_094959634447_rgbf000051-resize_6/003338_2014-05-20_11-01-23_094959634447_rgbf000051-resize_6-target.png,125,1.693,6,3540,125,meters,jsons/VE125_randls_46.json,874030,1493338,49,Man
4,204178,DepthScenes,duration_manipulation_targetAtFixation,jsons/VE125_randls_46.json,http://54.235.29.9/FacialAge/BNav_EC2/DepthDuration/v2_depth_duration_MTurk/v2_DepthDuration_HTML.html#99,99,1440,789,1440,900,8-21-2022,9-36-52,5,depth_duration_stimuli/001244_2014-06-17_16-47-45_260595134347_rgbf000030-resize_4/001244_2014-06-17_16-47-45_260595134347_rgbf000030-resize_4-target.png,125,2.0425,5,3291,126,meters,jsons/VE125_randls_46.json,874030,1493338,49,Man
5,204178,DepthScenes,duration_manipulation_targetAtFixation,jsons/VE125_randls_46.json,http://54.235.29.9/FacialAge/BNav_EC2/DepthDuration/v2_depth_duration_MTurk/v2_DepthDuration_HTML.html#99,99,1440,789,1440,900,8-21-2022,9-36-52,6,depth_duration_stimuli/003495_2014-05-21_16-01-51_094959634447_rgbf000100-resize_3/003495_2014-05-21_16-01-51_094959634447_rgbf000100-resize_3-target.png,125,1.6255,5,31828,125,meters,jsons/VE125_randls_46.json,874030,1493338,49,Man
6,204178,DepthScenes,duration_manipulation_targetAtFixation,jsons/VE125_randls_46.json,http://54.235.29.9/FacialAge/BNav_EC2/DepthDuration/v2_depth_duration_MTurk/v2_DepthDuration_HTML.html#99,99,1440,789,1440,900,8-21-2022,9-36-52,7,depth_duration_stimuli/000506_2014-06-08_23-21-00_260595134347_rgbf000070-resize_7/000506_2014-06-08_23-21-00_260595134347_rgbf000070-resize_7-target.png,125,4.0585,4,6767,124,meters,jsons/VE125_randls_46.json,874030,1493338,49,Man
7,204178,DepthScenes,duration_manipulation_targetAtFixation,jsons/VE125_randls_46.json,http://54.235.29.9/FacialAge/BNav_EC2/DepthDuration/v2_depth_duration_MTurk/v2_DepthDuration_HTML.html#99,99,1440,789,1440,900,8-21-2022,9-36-52,8,depth_duration_stimuli/003079_2014-06-15_15-18-20_094959634447_rgbf000152-resize_8/003079_2014-06-15_15-18-20_094959634447_rgbf000152-resize_8-target.png,125,2.8775,5,3627,126,meters,jsons/VE125_randls_46.json,874030,1493338,49,Man
8,204178,DepthScenes,duration_manipulation_targetAtFixation,jsons/VE125_randls_46.json,http://54.235.29.9/FacialAge/BNav_EC2/DepthDuration/v2_depth_duration_MTurk/v2_DepthDuration_HTML.html#99,99,1440,789,1440,900,8-21-2022,9-36-52,9,depth_duration_stimuli/002630_2014-06-24_14-47-50_094959634447_rgbf000055-resize_1/002630_2014-06-24_14-47-50_094959634447_rgbf000055-resize_1-target.png,125,3.0095,4,3987,124,meters,jsons/VE125_randls_46.json,874030,1493338,49,Man
9,204178,DepthScenes,duration_manipulation_targetAtFixation,jsons/VE125_randls_46.json,http://54.235.29.9/FacialAge/BNav_EC2/DepthDuration/v2_depth_duration_MTurk/v2_DepthDuration_HTML.html#99,99,1440,789,1440,900,8-21-2022,9-36-52,10,depth_duration_stimuli/002758_2014-06-22_19-11-20_094959634447_rgbf000128-resize_1/002758_2014-06-22_19-11-20_094959634447_rgbf000128-resize_1-target.png,125,2.555,4,5435,125,meters,jsons/VE125_randls_46.json,874030,1493338,49,Man
10,204178,DepthScenes,duration_manipulation_targetAtFixation,jsons/VE125_randls_46.json,http://54.235.29.9/FacialAge/BNav_EC2/DepthDuration/v2_depth_duration_MTurk/v2_DepthDuration_HTML.html#99,99,1440,789,1440,900,8-21-2022,9-36-52,11,depth_duration_stimuli/000736_2014-06-08_18-24-15_260595134347_rgbf000206-resize_3/000736_2014-06-08_18-24-15_260595134347_rgbf000206-resize_3-target.png,125,3.515,5,3963,125,meters,jsons/VE125_randls_46.json,874030,1493338,49,Man
11,204178,DepthScenes,duration_manipulation_targetAtFixation,jsons/VE125_randls_46.json,http://54.235.29.9/FacialAge/BNav_EC2/DepthDuration/v2_depth_duration_MTurk/v2_DepthDuration_HTML.html#99,99,1440,789,1440,900,8-21-2022,9-36-52,12,depth_duration_stimuli/000137_2014-05-20_17-04-49_260595134347_rgbf000120-resize_1/000137_2014-05-20_17-04-49_260595134347_rgbf000120-resize_1-target.png,125,3.786,5,4171,124,meters,jsons/VE125_randls_46.json,874030,1493338,49,Man
12,204178,DepthScenes,duration_manipulation_targetAtFixation,jsons/VE125_randls_46.json,http://54.235.29.9/FacialAge/BNav_EC2/DepthDuration/v2_depth_duration_MTurk/v2_DepthDuration_HTML.html#99,99,1440,789,1440,900,8-21-2022,9-36-52,13,depth_duration_stimuli/000569_2014-06-09_22-51-47_260595134347_rgbf000141-resize_3/000569_2014-06-09_22-51-47_260595134347_rgbf000141-resize-original.jpg,125,4.512,4,3234,125,meters,jsons/VE125_randls_46.json,874030,1493338,49,Man
13,204178,DepthScenes,duration_manipulation_targetAtFixation,jsons/VE125_randls_46.json,http://54.235.29.9/FacialAge/BNav_EC2/DepthDuration/v2_depth_duration_MTurk/v2_DepthDuration_HTML.html#99,99,1440,789,1440,900,8-21-2022,9-36-52,14,depth_duration_stimuli/001167_2014-06-17_15-38-07_260595134347_rgbf000108-resize_0/001167_2014-06-17_15-38-07_260595134347_rgbf000108-resize_0-target.png,125,1.8505,5,3404,124,meters,jsons/VE125_randls_46.json,874030,1493338,49,Man
14,204178,DepthScenes,duration_manipulation_targetAtFixation,jsons/VE125_randls_46.json,http://54.235.29.9/FacialAge/BNav_EC2/DepthDuration/v2_depth_duration_MTurk/v2_DepthDuration_HTML.html#99,99,1440,789,1440,900,8-21-2022,9-36-52,15,depth_duration_stimuli/003587_2014-05-23_16-48-02_094959634447_rgbf002384-resize_2/003587_2014-05-23_16-48-02_094959634447_rgbf002384-resize_2-target.png,125,1.357,4,2776,124,meters,jsons/VE125_randls_46.json,874030,1493338,49,Man
15,204178,DepthScenes,duration_manipulation_targetAtFixation,jsons/VE125_randls_46.json,http://54.235.29.9/FacialAge/BNav_EC2/DepthDuration/v2_depth_duration_MTurk/v2_DepthDuration_HTML.html#99,99,1440,789,1440,900,8-21-2022,9-36-52,16,depth_duration_stimuli/002279_2014-06-28_18-55-32_260595134347_rgbf000040-resize_5/002279_2014-06-28_18-55-32_260595134347_rgbf000040-resize_5-target.png,125,1.5043333333333,5,3315,125,meters,jsons/VE125_randls_46.json,874030,1493338,49,Man
16,204178,DepthScenes,duration_manipulation_targetAtFixation,jsons/VE125_randls_46.json,http://54.235.29.9/FacialAge/BNav_EC2/DepthDuration/v2_depth_duration_MTurk/v2_DepthDuration_HTML.html#99,99,1440,789,1440,900,8-21-2022,9-36-52,17,depth_duration_stimuli/000635_2014-06-08_16-38-42_260595134347_rgbf000106-resize_1/000635_2014-06-08_16-38-42_260595134347_rgbf000106-resize_1-target.png,125,2.074,5,17853,126,meters,jsons/VE125_randls_46.json,874030,1493338,49,Man
17,204178,DepthScenes,duration_manipulation_targetAtFixation,jsons/VE125_randls_46.json,http://54.235.29.9/FacialAge/BNav_EC2/DepthDuration/v2_depth_duration_MTurk/v2_DepthDuration_HTML.html#99,99,1440,789,1440,900,8-21-2022,9-36-52,18,depth_duration_stimuli/001056_2014-06-08_18-46-44_260595134347_rgbf000068-resize_0/001056_2014-06-08_18-46-44_260595134347_rgbf000068-resize_0-target.png,125,2.6625,4,3104,123,meters,jsons/VE125_randls_46.json,874030,1493338,49,Man
18,204178,DepthScenes,duration_manipulation_targetAtFixation,jsons/VE125_randls_46.json,http://54.235.29.9/FacialAge/BNav_EC2/DepthDuration/v2_depth_duration_MTurk/v2_DepthDuration_HTML.html#99,99,1440,789,1440,900,8-21-2022,9-36-52,19,depth_duration_stimuli/002199_2014-06-28_18-33-56_260595134347_rgbf000074-resize_0/002199_2014-06-28_18-33-56_260595134347_rgbf000074-resize_0-target.png,125,1.996,5,3291,125,meters,jsons/VE125_randls_46.json,874030,1493338,49,Man
19,204178,DepthScenes,duration_manipulation_targetAtFixation,jsons/VE125_randls_46.json,http://54.235.29.9/FacialAge/BNav_EC2/DepthDuration/v2_depth_duration_MTurk/v2_DepthDuration_HTML.html#99,99,1440,789,1440,900,8-21-2022,9-36-52,20,depth_duration_stimuli/002039_2014-06-24_20-22-38_260595134347_rgbf000084-resize_1/002039_2014-06-24_20-22-38_260595134347_rgbf000084-resize_1-target.png,125,4.408,4,3059,128,meters,jsons/VE125_randls_46.json,874030,1493338,49,Man
20,204178,DepthScenes,duration_manipulation_targetAtFixation,jsons/VE125_randls_46.json,http://54.235.29.9/FacialAge/BNav_EC2/DepthDuration/v2_depth_duration_MTurk/v2_DepthDuration_HTML.html#99,99,1440,789,1440,900,8-21-2022,9-36-52,21,depth_duration_stimuli/002103_2014-06-25_20-00-40_260595134347_rgbf000049-resize_0/002103_2014-06-25_20-00-40_260595134347_rgbf000049-resize_0-target.png,125,4.105,3,3609,125,meters,jsons/VE125_randls_46.json,874030,1493338,49,Man
21,204178,DepthScenes,duration_manipulation_targetAtFixation,jsons/VE125_randls_46.json,http://54.235.29.9/FacialAge/BNav_EC2/DepthDuration/v2_depth_duration_MTurk/v2_DepthDuration_HTML.html#99,99,1440,789,1440,900,8-21-2022,9-36-52,22,depth_duration_stimuli/001016_2014-06-09_16-16-10_260595134347_rgbf000112-resize_5/001016_2014-06-09_16-16-10_260595134347_rgbf000112-resize_5-target.png,125,1.6565,4,3131,125,meters,jsons/VE125_randls_46.json,874030,1493338,49,Man
22,204178,DepthScenes,duration_manipulation_targetAtFixation,jsons/VE125_randls_46.json,http://54.235.29.9/FacialAge/BNav_EC2/DepthDuration/v2_depth_duration_MTurk/v2_DepthDuration_HTML.html#99,99,1440,789,1440,900,8-21-2022,9-36-52,23,depth_duration_stimuli/002340_2014-06-28_20-05-46_260595134347_rgbf000113-resize_0/002340_2014-06-28_20-05-46_260595134347_rgbf000113-resize_0-target.png,125,2.4735,5,2633,125,meters,jsons/VE125_randls_46.json,874030,1493338,49,Man
23,204178,DepthScenes,duration_manipulation_targetAtFixation,jsons/VE125_randls_46.json,http://54.235.29.9/FacialAge/BNav_EC2/DepthDuration/v2_depth_duration_MTurk/v2_DepthDuration_HTML.html#99,99,1440,789,1440,900,8-21-2022,9-36-52,24,depth_duration_stimuli/001066_2014-06-08_22-03-20_260595134347_rgbf000066-resize_4/001066_2014-06-08_22-03-20_260595134347_rgbf000066-resize_4-target.png,125,4.2330000000000005,4,2762,125,meters,jsons/VE125_randls_46.json,874030,1493338,49,Man
24,204178,DepthScenes,duration_manipulation_targetAtFixation,jsons/VE125_randls_46.json,http://54.235.29.9/FacialAge/BNav_EC2/DepthDuration/v2_depth_duration_MTurk/v2_DepthDuration_HTML.html#99,99,1440,789,1440,900,8-21-2022,9-36-52,25,depth_duration_stimuli/000742_2014-06-08_18-48-09_260595134347_rgbf000164-resize_4/000742_2014-06-08_18-48-09_260595134347_rgbf000164-resize_4-target.png,125,4.632,5,2611,126,meters,jsons/VE125_randls_46.json,874030,1493338,49,Man
25,204178,DepthScenes,duration_manipulation_targetAtFixation,jsons/VE125_randls_46.json,http://54.235.29.9/FacialAge/BNav_EC2/DepthDuration/v2_depth_duration_MTurk/v2_DepthDuration_HTML.html#99,99,1440,789,1440,900,8-21-2022,9-36-52,26,depth_duration_stimuli/001808_2014-06-26_20-50-58_260595134347_rgbf000029-resize_1/001808_2014-06-26_20-50-58_260595134347_rgbf000029-resize_1-target.png,125,4.249,4,3435,125,meters,jsons/VE125_randls_46.json,874030,1493338,49,Man
26,204178,DepthScenes,duration_manipulation_targetAtFixation,jsons/VE125_randls_46.json,http://54.235.29.9/FacialAge/BNav_EC2/DepthDuration/v2_depth_duration_MTurk/v2_DepthDuration_HTML.html#99,99,1440,789,1440,900,8-21-2022,9-36-52,27,depth_duration_stimuli/001815_2014-06-26_20-52-55_260595134347_rgbf000020-resize_0/001815_2014-06-26_20-52-55_260595134347_rgbf000020-resize_0-target.png,125,3.3865,5,3697,125,meters,jsons/VE125_randls_46.json,874030,1493338,49,Man
27,204178,DepthScenes,duration_manipulation_targetAtFixation,jsons/VE125_randls_46.json,http://54.235.29.9/FacialAge/BNav_EC2/DepthDuration/v2_depth_duration_MTurk/v2_DepthDuration_HTML.html#99,99,1440,789,1440,900,8-21-2022,9-36-52,28,depth_duration_stimuli/002445_2014-06-28_20-32-16_260595134347_rgbf000029-resize_4/002445_2014-06-28_20-32-16_260595134347_rgbf000029-resize_4-target.png,125,2.5315,5,4603,124,meters,jsons/VE125_randls_46.json,874030,1493338,49,Man
28,204178,DepthScenes,duration_manipulation_targetAtFixation,jsons/VE125_randls_46.json,http://54.235.29.9/FacialAge/BNav_EC2/DepthDuration/v2_depth_duration_MTurk/v2_DepthDuration_HTML.html#99,99,1440,789,1440,900,8-21-2022,9-36-52,29,depth_duration_stimuli/000780_2014-06-08_22-28-29_260595134347_rgbf000126-resize_1/000780_2014-06-08_22-28-29_260595134347_rgbf000126-resize_1-target.png,125,3.3825,4,2929,125,meters,jsons/VE125_randls_46.json,874030,1493338,49,Man
29,204178,DepthScenes,duration_manipulation_targetAtFixation,jsons/VE125_randls_46.json,http://54.235.29.9/FacialAge/BNav_EC2/DepthDuration/v2_depth_duration_MTurk/v2_DepthDuration_HTML.html#99,99,1440,789,1440,900,8-21-2022,9-36-52,30,depth_duration_stimuli/000375_2014-06-08_11-17-29_260595134347_rgbf000133-resize_2/000375_2014-06-08_11-17-29_260595134347_rgbf000133-resize-original.jpg,125,4.718,5,2755,127,meters,jsons/VE125_randls_46.json,874030,1493338,49,Man
30,204178,DepthScenes,duration_manipulation_targetAtFixation,jsons/VE125_randls_46.json,http://54.235.29.9/FacialAge/BNav_EC2/DepthDuration/v2_depth_duration_MTurk/v2_DepthDuration_HTML.html#99,99,1440,789,1440,900,8-21-2022,9-36-52,31,depth_duration_stimuli/000522_2014-06-08_13-35-06_260595134347_rgbf000244-resize_1/000522_2014-06-08_13-35-06_260595134347_rgbf000244-resize_1-target.png,125,2.3715,4,4594,123,meters,jsons/VE125_randls_46.json,874030,1493338,49,Man
31,204178,DepthScenes,duration_manipulation_targetAtFixation,jsons/VE125_randls_46.json,http://54.235.29.9/FacialAge/BNav_EC2/DepthDuration/v2_depth_duration_MTurk/v2_DepthDuration_HTML.html#99,99,1440,789,1440,900,8-21-2022,9-36-52,32,depth_duration_stimuli/002949_2014-06-26_15-57-42_094959634447_rgbf000079-resize_1/002949_2014-06-26_15-57-42_094959634447_rgbf000079-resize_1-target.png,125,1.8915,5,3320,125,meters,jsons/VE125_randls_46.json,874030,1493338,49,Man
32,204178,DepthScenes,duration_manipulation_targetAtFixation,jsons/VE125_randls_46.json,http://54.235.29.9/FacialAge/BNav_EC2/DepthDuration/v2_depth_duration_MTurk/v2_DepthDuration_HTML.html#99,99,1440,789,1440,900,8-21-2022,9-36-52,33,depth_duration_stimuli/001555_2014-06-20_17-12-10_260595134347_rgbf000065-resize_4/001555_2014-06-20_17-12-10_260595134347_rgbf000065-resize_4-target.png,125,1.633,3,3499,126,meters,jsons/VE125_randls_46.json,874030,1493338,49,Man
33,204178,DepthScenes,duration_manipulation_targetAtFixation,jsons/VE125_randls_46.json,http://54.235.29.9/FacialAge/BNav_EC2/DepthDuration/v2_depth_duration_MTurk/v2_DepthDuration_HTML.html#99,99,1440,789,1440,900,8-21-2022,9-36-52,34,depth_duration_stimuli/000103_2014-05-14_22-01-17_260595134347_rgbf000152-resize_5/000103_2014-05-14_22-01-17_260595134347_rgbf000152-resize_5-target.png,125,1.993,5,2666,124,meters,jsons/VE125_randls_46.json,874030,1493338,49,Man
34,204178,DepthScenes,duration_manipulation_targetAtFixation,jsons/VE125_randls_46.json,http://54.235.29.9/FacialAge/BNav_EC2/DepthDuration/v2_depth_duration_MTurk/v2_DepthDuration_HTML.html#99,99,1440,789,1440,900,8-21-2022,9-36-52,35,depth_duration_stimuli/001199_2014-06-17_16-03-48_260595134347_rgbf000077-resize_0/001199_2014-06-17_16-03-48_260595134347_rgbf000077-resize_0-target.png,125,3.4375,4,2867,125,meters,jsons/VE125_randls_46.json,874030,1493338,49,Man
35,204178,DepthScenes,duration_manipulation_targetAtFixation,jsons/VE125_randls_46.json,http://54.235.29.9/FacialAge/BNav_EC2/DepthDuration/v2_depth_duration_MTurk/v2_DepthDuration_HTML.html#99,99,1440,789,1440,900,8-21-2022,9-36-52,36,depth_duration_stimuli/000502_2014-06-08_23-02-32_260595134347_rgbf000063-resize_4/000502_2014-06-08_23-02-32_260595134347_rgbf000063-resize_4-target.png,125,2.431,4,2822,125,meters,jsons/VE125_randls_46.json,874030,1493338,49,Man
36,204178,DepthScenes,duration_manipulation_targetAtFixation,jsons/VE125_randls_46.json,http://54.235.29.9/FacialAge/BNav_EC2/DepthDuration/v2_depth_duration_MTurk/v2_DepthDuration_HTML.html#99,99,1440,789,1440,900,8-21-2022,9-36-52,37,depth_duration_stimuli/001059_2014-06-08_21-53-27_260595134347_rgbf000061-resize_4/001059_2014-06-08_21-53-27_260595134347_rgbf000061-resize_4-target.png,125,2.4185,5,2506,126,meters,jsons/VE125_randls_46.json,874030,1493338,49,Man
37,204178,DepthScenes,duration_manipulation_targetAtFixation,jsons/VE125_randls_46.json,http://54.235.29.9/FacialAge/BNav_EC2/DepthDuration/v2_depth_duration_MTurk/v2_DepthDuration_HTML.html#99,99,1440,789,1440,900,8-21-2022,9-36-52,38,depth_duration_stimuli/001032_2014-06-08_13-23-17_260595134347_rgbf000021-resize_3/001032_2014-06-08_13-23-17_260595134347_rgbf000021-resize_3-target.png,125,3.2725,4,2455,126,meters,jsons/VE125_randls_46.json,874030,1493338,49,Man
38,204178,DepthScenes,duration_manipulation_targetAtFixation,jsons/VE125_randls_46.json,http://54.235.29.9/FacialAge/BNav_EC2/DepthDuration/v2_depth_duration_MTurk/v2_DepthDuration_HTML.html#99,99,1440,789,1440,900,8-21-2022,9-36-52,39,depth_duration_stimuli/001417_2014-06-19_16-25-36_260595134347_rgbf000115-resize_5/001417_2014-06-19_16-25-36_260595134347_rgbf000115-resize_5-target.png,125,4.6255,3,3165,125,meters,jsons/VE125_randls_46.json,874030,1493338,49,Man
39,204178,DepthScenes,duration_manipulation_targetAtFixation,jsons/VE125_randls_46.json,http://54.235.29.9/FacialAge/BNav_EC2/DepthDuration/v2_depth_duration_MTurk/v2_DepthDuration_HTML.html#99,99,1440,789,1440,900,8-21-2022,9-36-52,40,depth_duration_stimuli/003081_2014-06-15_15-19-16_094959634447_rgbf000150-resize_1/003081_2014-06-15_15-19-16_094959634447_rgbf000150-resize_1-target.png,125,3.9125,5,3012,125,meters,jsons/VE125_randls_46.json,874030,1493338,49,Man
40,204178,DepthScenes,duration_manipulation_targetAtFixation,jsons/VE125_randls_46.json,http://54.235.29.9/FacialAge/BNav_EC2/DepthDuration/v2_depth_duration_MTurk/v2_DepthDuration_HTML.html#99,99,1440,789,1440,900,8-21-2022,9-36-52,41,depth_duration_stimuli/002964_2014-06-08_17-46-11_094959634447_rgbf000091-resize_4/002964_2014-06-08_17-46-11_094959634447_rgbf000091-resize_4-target.png,125,1.6909999999999998,4,3122,124,meters,jsons/VE125_randls_46.json,874030,1493338,49,Man
41,204178,DepthScenes,duration_manipulation_targetAtFixation,jsons/VE125_randls_46.json,http://54.235.29.9/FacialAge/BNav_EC2/DepthDuration/v2_depth_duration_MTurk/v2_DepthDuration_HTML.html#99,99,1440,789,1440,900,8-21-2022,9-36-52,42,depth_duration_stimuli/002136_2014-06-25_21-18-03_260595134347_rgbf000109-resize_3/002136_2014-06-25_21-18-03_260595134347_rgbf000109-resize_3-target.png,125,1.9569999999999999,4,3218,125,meters,jsons/VE125_randls_46.json,874030,1493338,49,Man
42,204178,DepthScenes,duration_manipulation_targetAtFixation,jsons/VE125_randls_46.json,http://54.235.29.9/FacialAge/BNav_EC2/DepthDuration/v2_depth_duration_MTurk/v2_DepthDuration_HTML.html#99,99,1440,789,1440,900,8-21-2022,9-36-52,43,depth_duration_stimuli/000642_2014-06-08_16-59-25_260595134347_rgbf000098-resize_2/000642_2014-06-08_16-59-25_260595134347_rgbf000098-resize_2-target.png,125,2.8815,5,2694,112,meters,jsons/VE125_randls_46.json,874030,1493338,49,Man
43,204178,DepthScenes,duration_manipulation_targetAtFixation,jsons/VE125_randls_46.json,http://54.235.29.9/FacialAge/BNav_EC2/DepthDuration/v2_depth_duration_MTurk/v2_DepthDuration_HTML.html#99,99,1440,789,1440,900,8-21-2022,9-36-52,44,depth_duration_stimuli/002425_2014-06-28_20-27-29_260595134347_rgbf000031-resize_8/002425_2014-06-28_20-27-29_260595134347_rgbf000031-resize_8-target.png,125,3.8960000000000004,4,2770,125,meters,jsons/VE125_randls_46.json,874030,1493338,49,Man
44,204178,DepthScenes,duration_manipulation_targetAtFixation,jsons/VE125_randls_46.json,http://54.235.29.9/FacialAge/BNav_EC2/DepthDuration/v2_depth_duration_MTurk/v2_DepthDuration_HTML.html#99,99,1440,789,1440,900,8-21-2022,9-36-52,45,depth_duration_stimuli/000787_2014-06-08_22-33-53_260595134347_rgbf000175-resize_1/000787_2014-06-08_22-33-53_260595134347_rgbf000175-resize-original.jpg,125,4.784,3,3519,126,meters,jsons/VE125_randls_46.json,874030,1493338,49,Man
45,204178,DepthScenes,duration_manipulation_targetAtFixation,jsons/VE125_randls_46.json,http://54.235.29.9/FacialAge/BNav_EC2/DepthDuration/v2_depth_duration_MTurk/v2_DepthDuration_HTML.html#99,99,1440,789,1440,900,8-21-2022,9-36-52,46,depth_duration_stimuli/002118_2014-06-25_20-32-08_260595134347_rgbf000078-resize_1/002118_2014-06-25_20-32-08_260595134347_rgbf000078-resize_1-target.png,125,2.6460000000000004,4,2510,124,meters,jsons/VE125_randls_46.json,874030,1493338,49,Man
46,204178,DepthScenes,duration_manipulation_targetAtFixation,jsons/VE125_randls_46.json,http://54.235.29.9/FacialAge/BNav_EC2/DepthDuration/v2_depth_duration_MTurk/v2_DepthDuration_HTML.html#99,99,1440,789,1440,900,8-21-2022,9-36-52,47,depth_duration_stimuli/001516_2014-06-20_16-25-09_260595134347_rgbf000076-resize_2/001516_2014-06-20_16-25-09_260595134347_rgbf000076-resize_2-target.png,125,1.7445,4,3652,126,meters,jsons/VE125_randls_46.json,874030,1493338,49,Man
47,204178,DepthScenes,duration_manipulation_targetAtFixation,jsons/VE125_randls_46.json,http://54.235.29.9/FacialAge/BNav_EC2/DepthDuration/v2_depth_duration_MTurk/v2_DepthDuration_HTML.html#99,99,1440,789,1440,900,8-21-2022,9-36-52,48,depth_duration_stimuli/001092_2014-06-15_17-34-58_260595134347_rgbf000171-resize_3/001092_2014-06-15_17-34-58_260595134347_rgbf000171-resize_3-target.png,125,2.6935,5,3130,126,meters,jsons/VE125_randls_46.json,874030,1493338,49,Man
48,204178,DepthScenes,duration_manipulation_targetAtFixation,jsons/VE125_randls_46.json,http://54.235.29.9/FacialAge/BNav_EC2/DepthDuration/v2_depth_duration_MTurk/v2_DepthDuration_HTML.html#99,99,1440,789,1440,900,8-21-2022,9-36-52,49,depth_duration_stimuli/002545_2014-06-24_13-38-53_094959634447_rgbf000080-resize_4/002545_2014-06-24_13-38-53_094959634447_rgbf000080-resize_4-target.png,125,1.9205,3,2787,126,meters,jsons/VE125_randls_46.json,874030,1493338,49,Man
49,204178,DepthScenes,duration_manipulation_targetAtFixation,jsons/VE125_randls_46.json,http://54.235.29.9/FacialAge/BNav_EC2/DepthDuration/v2_depth_duration_MTurk/v2_DepthDuration_HTML.html#99,99,1440,789,1440,900,8-21-2022,9-36-52,50,depth_duration_stimuli/002725_2014-06-22_11-47-51_094959634447_rgbf000070-resize_1/002725_2014-06-22_11-47-51_094959634447_rgbf000070-resize_1-target.png,125,2.195,4,2827,120,meters,jsons/VE125_randls_46.json,874030,1493338,49,Man
50,204178,DepthScenes,duration_manipulation_targetAtFixation,jsons/VE125_randls_46.json,http://54.235.29.9/FacialAge/BNav_EC2/DepthDuration/v2_depth_duration_MTurk/v2_DepthDuration_HTML.html#99,99,1440,789,1440,900,8-21-2022,9-36-52,51,depth_duration_stimuli/002344_2014-06-28_20-06-29_260595134347_rgbf000030-resize_1/002344_2014-06-28_20-06-29_260595134347_rgbf000030-resize_1-target.png,125,1.5795,5,3682,127,meters,jsons/VE125_randls_46.json,874030,1493338,49,Man
51,204178,DepthScenes,duration_manipulation_targetAtFixation,jsons/VE125_randls_46.json,http://54.235.29.9/FacialAge/BNav_EC2/DepthDuration/v2_depth_duration_MTurk/v2_DepthDuration_HTML.html#99,99,1440,789,1440,900,8-21-2022,9-36-52,52,depth_duration_stimuli/000929_2014-06-09_16-33-19_260595134347_rgbf000139-resize_0/000929_2014-06-09_16-33-19_260595134347_rgbf000139-resize_0-target.png,125,2.8680000000000003,3,2856,118,meters,jsons/VE125_randls_46.json,874030,1493338,49,Man
52,204178,DepthScenes,duration_manipulation_targetAtFixation,jsons/VE125_randls_46.json,http://54.235.29.9/FacialAge/BNav_EC2/DepthDuration/v2_depth_duration_MTurk/v2_DepthDuration_HTML.html#99,99,1440,789,1440,900,8-21-2022,9-36-52,53,depth_duration_stimuli/000457_2014-06-08_16-52-43_260595134347_rgbf000199-resize_1/000457_2014-06-08_16-52-43_260595134347_rgbf000199-resize_1-target.png,125,3.6489999999999996,5,3267,129,meters,jsons/VE125_randls_46.json,874030,1493338,49,Man
53,204178,DepthScenes,duration_manipulation_targetAtFixation,jsons/VE125_randls_46.json,http://54.235.29.9/FacialAge/BNav_EC2/DepthDuration/v2_depth_duration_MTurk/v2_DepthDuration_HTML.html#99,99,1440,789,1440,900,8-21-2022,9-36-52,54,depth_duration_stimuli/001806_2014-06-26_20-50-20_260595134347_rgbf000091-resize_1/001806_2014-06-26_20-50-20_260595134347_rgbf000091-resize_1-target.png,125,2.7305,4,2569,122,meters,jsons/VE125_randls_46.json,874030,1493338,49,Man
54,204178,DepthScenes,duration_manipulation_targetAtFixation,jsons/VE125_randls_46.json,http://54.235.29.9/FacialAge/BNav_EC2/DepthDuration/v2_depth_duration_MTurk/v2_DepthDuration_HTML.html#99,99,1440,789,1440,900,8-21-2022,9-36-52,55,depth_duration_stimuli/001617_2014-06-20_11-35-32_260595134347_rgbf000066-resize_1/001617_2014-06-20_11-35-32_260595134347_rgbf000066-resize_1-target.png,125,3.7910000000000004,4,3338,127,meters,jsons/VE125_randls_46.json,874030,1493338,49,Man
55,204178,DepthScenes,duration_manipulation_targetAtFixation,jsons/VE125_randls_46.json,http://54.235.29.9/FacialAge/BNav_EC2/DepthDuration/v2_depth_duration_MTurk/v2_DepthDuration_HTML.html#99,99,1440,789,1440,900,8-21-2022,9-36-52,56,depth_duration_stimuli/000739_2014-06-08_18-45-58_260595134347_rgbf000068-resize_1/000739_2014-06-08_18-45-58_260595134347_rgbf000068-resize_1-target.png,125,3.534,5,2835,124,meters,jsons/VE125_randls_46.json,874030,1493338,49,Man
56,204178,DepthScenes,duration_manipulation_targetAtFixation,jsons/VE125_randls_46.json,http://54.235.29.9/FacialAge/BNav_EC2/DepthDuration/v2_depth_duration_MTurk/v2_DepthDuration_HTML.html#99,99,1440,789,1440,900,8-21-2022,9-36-52,57,depth_duration_stimuli/000734_2014-06-08_17-39-11_260595134347_rgbf000128-resize_2/000734_2014-06-08_17-39-11_260595134347_rgbf000128-resize_2-target.png,125,4.098,4,2665,125,meters,jsons/VE125_randls_46.json,874030,1493338,49,Man
57,204178,DepthScenes,duration_manipulation_targetAtFixation,jsons/VE125_randls_46.json,http://54.235.29.9/FacialAge/BNav_EC2/DepthDuration/v2_depth_duration_MTurk/v2_DepthDuration_HTML.html#99,99,1440,789,1440,900,8-21-2022,9-36-52,58,depth_duration_stimuli/000758_2014-06-08_22-05-08_260595134347_rgbf000085-resize_0/000758_2014-06-08_22-05-08_260595134347_rgbf000085-resize_0-target.png,125,3.3810000000000002,5,3373,124,meters,jsons/VE125_randls_46.json,874030,1493338,49,Man
58,204178,DepthScenes,duration_manipulation_targetAtFixation,jsons/VE125_randls_46.json,http://54.235.29.9/FacialAge/BNav_EC2/DepthDuration/v2_depth_duration_MTurk/v2_DepthDuration_HTML.html#99,99,1440,789,1440,900,8-21-2022,9-36-52,59,depth_duration_stimuli/000854_2014-06-09_19-43-13_260595134347_rgbf000066-resize_0/000854_2014-06-09_19-43-13_260595134347_rgbf000066-resize_0-target.png,125,3.068,4,2448,122,meters,jsons/VE125_randls_46.json,874030,1493338,49,Man
59,204178,DepthScenes,duration_manipulation_targetAtFixation,jsons/VE125_randls_46.json,http://54.235.29.9/FacialAge/BNav_EC2/DepthDuration/v2_depth_duration_MTurk/v2_DepthDuration_HTML.html#99,99,1440,789,1440,900,8-21-2022,9-36-52,60,depth_duration_stimuli/003492_2014-05-21_15-50-55_094959634447_rgbf000828-resize_1/003492_2014-05-21_15-50-55_094959634447_rgbf000828-resize_1-target.png,125,4.06875,4,2305,124,meters,jsons/VE125_randls_46.json,874030,1493338,49,Man
60,204178,DepthScenes,duration_manipulation_targetAtFixation,jsons/VE125_randls_46.json,http://54.235.29.9/FacialAge/BNav_EC2/DepthDuration/v2_depth_duration_MTurk/v2_DepthDuration_HTML.html#99,99,1440,789,1440,900,8-21-2022,9-36-52,61,depth_duration_stimuli/002568_2014-06-24_13-59-21_094959634447_rgbf000062-resize_4/002568_2014-06-24_13-59-21_094959634447_rgbf000062-resize_4-target.png,125,3.015,4,3043,125,meters,jsons/VE125_randls_46.json,874030,1493338,49,Man
61,204178,DepthScenes,duration_manipulation_targetAtFixation,jsons/VE125_randls_46.json,http://54.235.29.9/FacialAge/BNav_EC2/DepthDuration/v2_depth_duration_MTurk/v2_DepthDuration_HTML.html#99,99,1440,789,1440,900,8-21-2022,9-36-52,62,depth_duration_stimuli/000447_2014-06-08_16-15-46_260595134347_rgbf000130-resize_1/000447_2014-06-08_16-15-46_260595134347_rgbf000130-resize_1-target.png,125,4.479,3,3236,123,meters,jsons/VE125_randls_46.json,874030,1493338,49,Man
62,204178,DepthScenes,duration_manipulation_targetAtFixation,jsons/VE125_randls_46.json,http://54.235.29.9/FacialAge/BNav_EC2/DepthDuration/v2_depth_duration_MTurk/v2_DepthDuration_HTML.html#99,99,1440,789,1440,900,8-21-2022,9-36-52,63,depth_duration_stimuli/001447_2014-06-19_17-00-32_260595134347_rgbf000082-resize_5/001447_2014-06-19_17-00-32_260595134347_rgbf000082-resize_5-target.png,125,4.13775,4,2785,124,meters,jsons/VE125_randls_46.json,874030,1493338,49,Man
63,204178,DepthScenes,duration_manipulation_targetAtFixation,jsons/VE125_randls_46.json,http://54.235.29.9/FacialAge/BNav_EC2/DepthDuration/v2_depth_duration_MTurk/v2_DepthDuration_HTML.html#99,99,1440,789,1440,900,8-21-2022,9-36-52,64,depth_duration_stimuli/000810_2014-06-08_17-20-01_260595134347_rgbf000105-resize_0/000810_2014-06-08_17-20-01_260595134347_rgbf000105-resize_0-target.png,125,1.4865,4,2812,126,meters,jsons/VE125_randls_46.json,874030,1493338,49,Man
64,204178,DepthScenes,duration_manipulation_targetAtFixation,jsons/VE125_randls_46.json,http://54.235.29.9/FacialAge/BNav_EC2/DepthDuration/v2_depth_duration_MTurk/v2_DepthDuration_HTML.html#99,99,1440,789,1440,900,8-21-2022,9-36-52,65,depth_duration_stimuli/001214_2014-06-17_16-13-55_260595134347_rgbf000111-resize_0/001214_2014-06-17_16-13-55_260595134347_rgbf000111-resize_0-target.png,125,2.6505,4,2928,126,meters,jsons/VE125_randls_46.json,874030,1493338,49,Man
65,204178,DepthScenes,duration_manipulation_targetAtFixation,jsons/VE125_randls_46.json,http://54.235.29.9/FacialAge/BNav_EC2/DepthDuration/v2_depth_duration_MTurk/v2_DepthDuration_HTML.html#99,99,1440,789,1440,900,8-21-2022,9-36-52,66,depth_duration_stimuli/001222_2014-06-17_16-24-06_260595134347_rgbf000073-resize_0/001222_2014-06-17_16-24-06_260595134347_rgbf000073-resize-original.jpg,125,1.4385,4,7054,128,meters,jsons/VE125_randls_46.json,874030,1493338,49,Man
66,204178,DepthScenes,duration_manipulation_targetAtFixation,jsons/VE125_randls_46.json,http://54.235.29.9/FacialAge/BNav_EC2/DepthDuration/v2_depth_duration_MTurk/v2_DepthDuration_HTML.html#99,99,1440,789,1440,900,8-21-2022,9-36-52,67,depth_duration_stimuli/002989_2014-06-15_12-25-03_094959634447_rgbf000150-resize_3/002989_2014-06-15_12-25-03_094959634447_rgbf000150-resize_3-target.png,125,4.1975,5,3147,123,meters,jsons/VE125_randls_46.json,874030,1493338,49,Man
67,204178,DepthScenes,duration_manipulation_targetAtFixation,jsons/VE125_randls_46.json,http://54.235.29.9/FacialAge/BNav_EC2/DepthDuration/v2_depth_duration_MTurk/v2_DepthDuration_HTML.html#99,99,1440,789,1440,900,8-21-2022,9-36-52,68,depth_duration_stimuli/000866_2014-06-09_20-45-42_260595134347_rgbf000139-resize_1/000866_2014-06-09_20-45-42_260595134347_rgbf000139-resize_1-target.png,125,3.2155,4,11592,124,meters,jsons/VE125_randls_46.json,874030,1493338,49,Man
68,204178,DepthScenes,duration_manipulation_targetAtFixation,jsons/VE125_randls_46.json,http://54.235.29.9/FacialAge/BNav_EC2/DepthDuration/v2_depth_duration_MTurk/v2_DepthDuration_HTML.html#99,99,1440,789,1440,900,8-21-2022,9-36-52,69,depth_duration_stimuli/002763_2014-06-22_19-13-10_094959634447_rgbf000075-resize_4/002763_2014-06-22_19-13-10_094959634447_rgbf000075-resize_4-target.png,125,1.68375,4,2778,124,meters,jsons/VE125_randls_46.json,874030,1493338,49,Man
69,204178,DepthScenes,duration_manipulation_targetAtFixation,jsons/VE125_randls_46.json,http://54.235.29.9/FacialAge/BNav_EC2/DepthDuration/v2_depth_duration_MTurk/v2_DepthDuration_HTML.html#99,99,1440,789,1440,900,8-21-2022,9-36-52,70,depth_duration_stimuli/002209_2014-06-28_18-36-10_260595134347_rgbf000051-resize_1/002209_2014-06-28_18-36-10_260595134347_rgbf000051-resize_1-target.png,125,2.057,5,8115,126,meters,jsons/VE125_randls_46.json,874030,1493338,49,Man
70,204178,DepthScenes,duration_manipulation_targetAtFixation,jsons/VE125_randls_46.json,http://54.235.29.9/FacialAge/BNav_EC2/DepthDuration/v2_depth_duration_MTurk/v2_DepthDuration_HTML.html#99,99,1440,789,1440,900,8-21-2022,9-36-52,71,depth_duration_stimuli/002784_2014-06-22_19-26-30_094959634447_rgbf000083-resize_3/002784_2014-06-22_19-26-30_094959634447_rgbf000083-resize_3-target.png,125,1.8046666666667,2,3819,125,meters,jsons/VE125_randls_46.json,874030,1493338,49,Man
71,204178,DepthScenes,duration_manipulation_targetAtFixation,jsons/VE125_randls_46.json,http://54.235.29.9/FacialAge/BNav_EC2/DepthDuration/v2_depth_duration_MTurk/v2_DepthDuration_HTML.html#99,99,1440,789,1440,900,8-21-2022,9-36-52,72,depth_duration_stimuli/001100_2014-06-15_17-46-26_260595134347_rgbf000225-resize_2/001100_2014-06-15_17-46-26_260595134347_rgbf000225-resize_2-target.png,125,2.24,4,9795,125,meters,jsons/VE125_randls_46.json,874030,1493338,49,Man
72,204178,DepthScenes,duration_manipulation_targetAtFixation,jsons/VE125_randls_46.json,http://54.235.29.9/FacialAge/BNav_EC2/DepthDuration/v2_depth_duration_MTurk/v2_DepthDuration_HTML.html#99,99,1440,789,1440,900,8-21-2022,9-36-52,73,depth_duration_stimuli/000878_2014-06-08_22-52-45_260595134347_rgbf000045-resize_2/000878_2014-06-08_22-52-45_260595134347_rgbf000045-resize_2-target.png,125,2.092,5,3259,125,meters,jsons/VE125_randls_46.json,874030,1493338,49,Man
73,204178,DepthScenes,duration_manipulation_targetAtFixation,jsons/VE125_randls_46.json,http://54.235.29.9/FacialAge/BNav_EC2/DepthDuration/v2_depth_duration_MTurk/v2_DepthDuration_HTML.html#99,99,1440,789,1440,900,8-21-2022,9-36-52,74,depth_duration_stimuli/002953_2014-06-08_17-32-18_094959634447_rgbf000059-resize_5/002953_2014-06-08_17-32-18_094959634447_rgbf000059-resize_5-target.png,125,1.551,5,8699,126,meters,jsons/VE125_randls_46.json,874030,1493338,49,Man
74,204178,DepthScenes,duration_manipulation_targetAtFixation,jsons/VE125_randls_46.json,http://54.235.29.9/FacialAge/BNav_EC2/DepthDuration/v2_depth_duration_MTurk/v2_DepthDuration_HTML.html#99,99,1440,789,1440,900,8-21-2022,9-36-52,75,depth_duration_stimuli/002057_2014-06-24_21-00-13_260595134347_rgbf000120-resize_1/002057_2014-06-24_21-00-13_260595134347_rgbf000120-resize_1-target.png,125,2.967,3,3469,125,meters,jsons/VE125_randls_46.json,874030,1493338,49,Man
75,204178,DepthScenes,duration_manipulation_targetAtFixation,jsons/VE125_randls_46.json,http://54.235.29.9/FacialAge/BNav_EC2/DepthDuration/v2_depth_duration_MTurk/v2_DepthDuration_HTML.html#99,99,1440,789,1440,900,8-21-2022,9-36-52,76,depth_duration_stimuli/000709_2014-06-08_13-51-55_260595134347_rgbf000068-resize_3/000709_2014-06-08_13-51-55_260595134347_rgbf000068-resize_3-target.png,125,1.8030000000000002,5,2762,124,meters,jsons/VE125_randls_46.json,874030,1493338,49,Man
76,204178,DepthScenes,duration_manipulation_targetAtFixation,jsons/VE125_randls_46.json,http://54.235.29.9/FacialAge/BNav_EC2/DepthDuration/v2_depth_duration_MTurk/v2_DepthDuration_HTML.html#99,99,1440,789,1440,900,8-21-2022,9-36-52,77,depth_duration_stimuli/003070_2014-06-15_14-58-27_094959634447_rgbf000150-resize_3/003070_2014-06-15_14-58-27_094959634447_rgbf000150-resize_3-target.png,125,2.9415,4,30710,124,meters,jsons/VE125_randls_46.json,874030,1493338,49,Man
77,204178,DepthScenes,duration_manipulation_targetAtFixation,jsons/VE125_randls_46.json,http://54.235.29.9/FacialAge/BNav_EC2/DepthDuration/v2_depth_duration_MTurk/v2_DepthDuration_HTML.html#99,99,1440,789,1440,900,8-21-2022,9-36-52,78,depth_duration_stimuli/000943_2014-06-09_19-31-07_260595134347_rgbf000128-resize_1/000943_2014-06-09_19-31-07_260595134347_rgbf000128-resize_1-target.png,125,1.9765,4,2865,125,meters,jsons/VE125_randls_46.json,874030,1493338,49,Man
78,204178,DepthScenes,duration_manipulation_targetAtFixation,jsons/VE125_randls_46.json,http://54.235.29.9/FacialAge/BNav_EC2/DepthDuration/v2_depth_duration_MTurk/v2_DepthDuration_HTML.html#99,99,1440,789,1440,900,8-21-2022,9-36-52,79,depth_duration_stimuli/000368_2014-06-09_15-53-01_260595134347_rgbf000155-resize_2/000368_2014-06-09_15-53-01_260595134347_rgbf000155-resize_2-target.png,125,2.4859999999999998,4,2940,122,meters,jsons/VE125_randls_46.json,874030,1493338,49,Man
79,204178,DepthScenes,duration_manipulation_targetAtFixation,jsons/VE125_randls_46.json,http://54.235.29.9/FacialAge/BNav_EC2/DepthDuration/v2_depth_duration_MTurk/v2_DepthDuration_HTML.html#99,99,1440,789,1440,900,8-21-2022,9-36-52,80,depth_duration_stimuli/002678_2014-06-13_16-15-32_094959634447_rgbf000151-resize_6/002678_2014-06-13_16-15-32_094959634447_rgbf000151-resize_6-target.png,125,2.1830000000000003,5,2632,132,meters,jsons/VE125_randls_46.json,874030,1493338,49,Man
80,204178,DepthScenes,duration_manipulation_targetAtFixation,jsons/VE125_randls_46.json,http://54.235.29.9/FacialAge/BNav_EC2/DepthDuration/v2_depth_duration_MTurk/v2_DepthDuration_HTML.html#99,99,1440,789,1440,900,8-21-2022,9-36-52,81,depth_duration_stimuli/002905_2014-06-03_18-04-43_094959634447_rgbf000151-resize_2/002905_2014-06-03_18-04-43_094959634447_rgbf000151-resize_2-target.png,125,2.0295,4,50570,124,meters,jsons/VE125_randls_46.json,874030,1493338,49,Man
81,204178,DepthScenes,duration_manipulation_targetAtFixation,jsons/VE125_randls_46.json,http://54.235.29.9/FacialAge/BNav_EC2/DepthDuration/v2_depth_duration_MTurk/v2_DepthDuration_HTML.html#99,99,1440,789,1440,900,8-21-2022,9-36-52,82,depth_duration_stimuli/003423_2014-05-21_10-23-26_094959634447_rgbf002665-resize_2/003423_2014-05-21_10-23-26_094959634447_rgbf002665-resize_2-target.png,125,3.2575,4,13018,124,meters,jsons/VE125_randls_46.json,874030,1493338,49,Man
82,204178,DepthScenes,duration_manipulation_targetAtFixation,jsons/VE125_randls_46.json,http://54.235.29.9/FacialAge/BNav_EC2/DepthDuration/v2_depth_duration_MTurk/v2_DepthDuration_HTML.html#99,99,1440,789,1440,900,8-21-2022,9-36-52,83,depth_duration_stimuli/002375_2014-06-28_20-13-44_260595134347_rgbf000032-resize_1/002375_2014-06-28_20-13-44_260595134347_rgbf000032-resize_1-target.png,125,4.0175,4,2787,126,meters,jsons/VE125_randls_46.json,874030,1493338,49,Man
83,204178,DepthScenes,duration_manipulation_targetAtFixation,jsons/VE125_randls_46.json,http://54.235.29.9/FacialAge/BNav_EC2/DepthDuration/v2_depth_duration_MTurk/v2_DepthDuration_HTML.html#99,99,1440,789,1440,900,8-21-2022,9-36-52,84,depth_duration_stimuli/002657_2014-06-13_15-29-54_094959634447_rgbf000150-resize_1/002657_2014-06-13_15-29-54_094959634447_rgbf000150-resize_1-target.png,125,4.919,4,2963,123,meters,jsons/VE125_randls_46.json,874030,1493338,49,Man
84,204178,DepthScenes,duration_manipulation_targetAtFixation,jsons/VE125_randls_46.json,http://54.235.29.9/FacialAge/BNav_EC2/DepthDuration/v2_depth_duration_MTurk/v2_DepthDuration_HTML.html#99,99,1440,789,1440,900,8-21-2022,9-36-52,85,depth_duration_stimuli/000469_2014-06-09_19-42-10_260595134347_rgbf000081-resize_1/000469_2014-06-09_19-42-10_260595134347_rgbf000081-resize_1-target.png,125,1.652,3,2626,126,meters,jsons/VE125_randls_46.json,874030,1493338,49,Man
85,204178,DepthScenes,duration_manipulation_targetAtFixation,jsons/VE125_randls_46.json,http://54.235.29.9/FacialAge/BNav_EC2/DepthDuration/v2_depth_duration_MTurk/v2_DepthDuration_HTML.html#99,99,1440,789,1440,900,8-21-2022,9-36-52,86,depth_duration_stimuli/000483_2014-06-09_20-41-45_260595134347_rgbf000116-resize_4/000483_2014-06-09_20-41-45_260595134347_rgbf000116-resize_4-target.png,125,1.337,4,32183,120,meters,jsons/VE125_randls_46.json,874030,1493338,49,Man
86,204178,DepthScenes,duration_manipulation_targetAtFixation,jsons/VE125_randls_46.json,http://54.235.29.9/FacialAge/BNav_EC2/DepthDuration/v2_depth_duration_MTurk/v2_DepthDuration_HTML.html#99,99,1440,789,1440,900,8-21-2022,9-36-52,87,depth_duration_stimuli/001011_2014-06-08_23-18-54_260595134347_rgbf000044-resize_4/001011_2014-06-08_23-18-54_260595134347_rgbf000044-resize_4-target.png,125,2.4730000000000003,4,7941,126,meters,jsons/VE125_randls_46.json,874030,1493338,49,Man
87,204178,DepthScenes,duration_manipulation_targetAtFixation,jsons/VE125_randls_46.json,http://54.235.29.9/FacialAge/BNav_EC2/DepthDuration/v2_depth_duration_MTurk/v2_DepthDuration_HTML.html#99,99,1440,789,1440,900,8-21-2022,9-36-52,88,depth_duration_stimuli/002875_2014-06-01_15-19-00_094959634447_rgbf000151-resize_1/002875_2014-06-01_15-19-00_094959634447_rgbf000151-resize_1-target.png,125,1.9675,3,2870,121,meters,jsons/VE125_randls_46.json,874030,1493338,49,Man
88,204178,DepthScenes,duration_manipulation_targetAtFixation,jsons/VE125_randls_46.json,http://54.235.29.9/FacialAge/BNav_EC2/DepthDuration/v2_depth_duration_MTurk/v2_DepthDuration_HTML.html#99,99,1440,789,1440,900,8-21-2022,9-36-52,89,depth_duration_stimuli/000788_2014-06-08_22-34-36_260595134347_rgbf000131-resize_1/000788_2014-06-08_22-34-36_260595134347_rgbf000131-resize_1-target.png,125,3.359,4,2324,125,meters,jsons/VE125_randls_46.json,874030,1493338,49,Man
89,204178,DepthScenes,duration_manipulation_targetAtFixation,jsons/VE125_randls_46.json,http://54.235.29.9/FacialAge/BNav_EC2/DepthDuration/v2_depth_duration_MTurk/v2_DepthDuration_HTML.html#99,99,1440,789,1440,900,8-21-2022,9-36-52,90,depth_duration_stimuli/001235_2014-06-17_16-37-36_260595134347_rgbf000084-resize_4/001235_2014-06-17_16-37-36_260595134347_rgbf000084-resize_4-target.png,125,3.6605,4,2451,125,meters,jsons/VE125_randls_46.json,874030,1493338,49,Man
90,204178,DepthScenes,duration_manipulation_targetAtFixation,jsons/VE125_randls_46.json,http://54.235.29.9/FacialAge/BNav_EC2/DepthDuration/v2_depth_duration_MTurk/v2_DepthDuration_HTML.html#99,99,1440,789,1440,900,8-21-2022,9-36-52,91,depth_duration_stimuli/003292_2014-05-14_21-53-49_094959634447_rgbf000100-resize_2/003292_2014-05-14_21-53-49_094959634447_rgbf000100-resize_2-target.png,125,3.4815,5,2883,125,meters,jsons/VE125_randls_46.json,874030,1493338,49,Man
91,204178,DepthScenes,duration_manipulation_targetAtFixation,jsons/VE125_randls_46.json,http://54.235.29.9/FacialAge/BNav_EC2/DepthDuration/v2_depth_duration_MTurk/v2_DepthDuration_HTML.html#99,99,1440,789,1440,900,8-21-2022,9-36-52,92,depth_duration_stimuli/002639_2014-06-24_14-51-37_094959634447_rgbf000074-resize_4/002639_2014-06-24_14-51-37_094959634447_rgbf000074-resize_4-target.png,125,4.0375,4,2418,126,meters,jsons/VE125_randls_46.json,874030,1493338,49,Man
92,204178,DepthScenes,duration_manipulation_targetAtFixation,jsons/VE125_randls_46.json,http://54.235.29.9/FacialAge/BNav_EC2/DepthDuration/v2_depth_duration_MTurk/v2_DepthDuration_HTML.html#99,99,1440,789,1440,900,8-21-2022,9-36-52,93,depth_duration_stimuli/000470_2014-06-09_19-42-40_260595134347_rgbf000094-resize_1/000470_2014-06-09_19-42-40_260595134347_rgbf000094-resize_1-target.png,125,1.831,4,2849,125,meters,jsons/VE125_randls_46.json,874030,1493338,49,Man
93,204178,DepthScenes,duration_manipulation_targetAtFixation,jsons/VE125_randls_46.json,http://54.235.29.9/FacialAge/BNav_EC2/DepthDuration/v2_depth_duration_MTurk/v2_DepthDuration_HTML.html#99,99,1440,789,1440,900,8-21-2022,9-36-52,94,depth_duration_stimuli/000109_2014-05-14_23-41-52_260595134347_rgbf000035-resize_9/000109_2014-05-14_23-41-52_260595134347_rgbf000035-resize_9-target.png,125,1.3545,5,113656,121,meters,jsons/VE125_randls_46.json,874030,1493338,49,Man
94,204178,DepthScenes,duration_manipulation_targetAtFixation,jsons/VE125_randls_46.json,http://54.235.29.9/FacialAge/BNav_EC2/DepthDuration/v2_depth_duration_MTurk/v2_DepthDuration_HTML.html#99,99,1440,789,1440,900,8-21-2022,9-36-52,95,depth_duration_stimuli/000682_2014-06-08_23-14-58_260595134347_rgbf000041-resize_5/000682_2014-06-08_23-14-58_260595134347_rgbf000041-resize_5-target.png,125,2.7239999999999998,5,3803,125,meters,jsons/VE125_randls_46.json,874030,1493338,49,Man
95,204178,DepthScenes,duration_manipulation_targetAtFixation,jsons/VE125_randls_46.json,http://54.235.29.9/FacialAge/BNav_EC2/DepthDuration/v2_depth_duration_MTurk/v2_DepthDuration_HTML.html#99,99,1440,789,1440,900,8-21-2022,9-36-52,96,depth_duration_stimuli/001650_2014-06-20_12-09-00_260595134347_rgbf000087-resize_3/001650_2014-06-20_12-09-00_260595134347_rgbf000087-resize_3-target.png,125,1.9505,4,3864,125,meters,jsons/VE125_randls_46.json,874030,1493338,49,Man
96,204178,DepthScenes,duration_manipulation_targetAtFixation,jsons/VE125_randls_46.json,http://54.235.29.9/FacialAge/BNav_EC2/DepthDuration/v2_depth_duration_MTurk/v2_DepthDuration_HTML.html#99,99,1440,789,1440,900,8-21-2022,9-36-52,97,depth_duration_stimuli/000436_2014-06-09_22-25-11_260595134347_rgbf000137-resize_1/000436_2014-06-09_22-25-11_260595134347_rgbf000137-resize_1-target.png,125,4.0705,5,3708,125,meters,jsons/VE125_randls_46.json,874030,1493338,49,Man
97,204178,DepthScenes,duration_manipulation_targetAtFixation,jsons/VE125_randls_46.json,http://54.235.29.9/FacialAge/BNav_EC2/DepthDuration/v2_depth_duration_MTurk/v2_DepthDuration_HTML.html#99,99,1440,789,1440,900,8-21-2022,9-36-52,98,depth_duration_stimuli/002444_2014-06-28_20-32-08_260595134347_rgbf000027-resize_0/002444_2014-06-28_20-32-08_260595134347_rgbf000027-resize_0-target.png,125,4.388999999999999,4,3362,125,meters,jsons/VE125_randls_46.json,874030,1493338,49,Man
98,204178,DepthScenes,duration_manipulation_targetAtFixation,jsons/VE125_randls_46.json,http://54.235.29.9/FacialAge/BNav_EC2/DepthDuration/v2_depth_duration_MTurk/v2_DepthDuration_HTML.html#99,99,1440,789,1440,900,8-21-2022,9-36-52,99,depth_duration_stimuli/001540_2014-06-20_17-01-05_260595134347_rgbf000086-resize_2/001540_2014-06-20_17-01-05_260595134347_rgbf000086-resize-original.jpg,125,1.459,4,3217,125,meters,jsons/VE125_randls_46.json,874030,1493338,49,Man
99,204178,DepthScenes,duration_manipulation_targetAtFixation,jsons/VE125_randls_46.json,http://54.235.29.9/FacialAge/BNav_EC2/DepthDuration/v2_depth_duration_MTurk/v2_DepthDuration_HTML.html#99,99,1440,789,1440,900,8-21-2022,9-36-52,100,depth_duration_stimuli/002043_2014-06-24_20-29-38_260595134347_rgbf000039-resize_4/002043_2014-06-24_20-29-38_260595134347_rgbf000039-resize_4-target.png,125,2.8435,5,3537,125,meters,jsons/VE125_randls_46.json,874030,1493338,49,Man
100,204178,DepthScenes,duration_manipulation_targetAtFixation,jsons/VE125_randls_46.json,http://54.235.29.9/FacialAge/BNav_EC2/DepthDuration/v2_depth_duration_MTurk/v2_DepthDuration_HTML.html#99,99,1440,789,1440,900,8-21-2022,9-36-52,101,depth_duration_stimuli/003048_2014-06-15_13-49-43_094959634447_rgbf000150-resize_1/003048_2014-06-15_13-49-43_094959634447_rgbf000150-resize_1-target.png,125,4.0035,5,4035,124,meters,jsons/VE125_randls_46.json,874030,1493338,49,Man
101,204178,DepthScenes,duration_manipulation_targetAtFixation,jsons/VE125_randls_46.json,http://54.235.29.9/FacialAge/BNav_EC2/DepthDuration/v2_depth_duration_MTurk/v2_DepthDuration_HTML.html#99,99,1440,789,1440,900,8-21-2022,9-36-52,102,depth_duration_stimuli/000917_2014-06-09_22-45-29_260595134347_rgbf000149-resize_3/000917_2014-06-09_22-45-29_260595134347_rgbf000149-resize_3-target.png,125,4.1865,4,3788,101,meters,jsons/VE125_randls_46.json,874030,1493338,49,Man
102,204178,DepthScenes,duration_manipulation_targetAtFixation,jsons/VE125_randls_46.json,http://54.235.29.9/FacialAge/BNav_EC2/DepthDuration/v2_depth_duration_MTurk/v2_DepthDuration_HTML.html#99,99,1440,789,1440,900,8-21-2022,9-36-52,103,depth_duration_stimuli/002323_2014-06-28_20-01-54_260595134347_rgbf000051-resize_4/002323_2014-06-28_20-01-54_260595134347_rgbf000051-resize_4-target.png,125,3.7310000000000003,5,5172,126,meters,jsons/VE125_randls_46.json,874030,1493338,49,Man
103,204178,DepthScenes,duration_manipulation_targetAtFixation,jsons/VE125_randls_46.json,http://54.235.29.9/FacialAge/BNav_EC2/DepthDuration/v2_depth_duration_MTurk/v2_DepthDuration_HTML.html#99,99,1440,789,1440,900,8-21-2022,9-36-52,104,depth_duration_stimuli/000486_2014-06-09_20-47-20_260595134347_rgbf000143-resize_2/000486_2014-06-09_20-47-20_260595134347_rgbf000143-resize_2-target.png,125,4.8325,4,3457,125,meters,jsons/VE125_randls_46.json,874030,1493338,49,Man
104,204178,DepthScenes,duration_manipulation_targetAtFixation,jsons/VE125_randls_46.json,http://54.235.29.9/FacialAge/BNav_EC2/DepthDuration/v2_depth_duration_MTurk/v2_DepthDuration_HTML.html#99,99,1440,789,1440,900,8-21-2022,9-36-52,105,depth_duration_stimuli/003083_2014-06-15_15-21-03_094959634447_rgbf000063-resize_1/003083_2014-06-15_15-21-03_094959634447_rgbf000063-resize_1-target.png,125,4.1405,4,3331,126,meters,jsons/VE125_randls_46.json,874030,1493338,49,Man
105,204178,DepthScenes,duration_manipulation_targetAtFixation,jsons/VE125_randls_46.json,http://54.235.29.9/FacialAge/BNav_EC2/DepthDuration/v2_depth_duration_MTurk/v2_DepthDuration_HTML.html#99,99,1440,789,1440,900,8-21-2022,9-36-52,106,depth_duration_stimuli/000773_2014-06-08_22-24-54_260595134347_rgbf000093-resize_1/000773_2014-06-08_22-24-54_260595134347_rgbf000093-resize_1-target.png,125,4.973,4,2723,126,meters,jsons/VE125_randls_46.json,874030,1493338,49,Man
106,204178,DepthScenes,duration_manipulation_targetAtFixation,jsons/VE125_randls_46.json,http://54.235.29.9/FacialAge/BNav_EC2/DepthDuration/v2_depth_duration_MTurk/v2_DepthDuration_HTML.html#99,99,1440,789,1440,900,8-21-2022,9-36-52,107,depth_duration_stimuli/002414_2014-06-28_20-24-58_260595134347_rgbf000067-resize_4/002414_2014-06-28_20-24-58_260595134347_rgbf000067-resize_4-target.png,125,4.363,5,2409,125,meters,jsons/VE125_randls_46.json,874030,1493338,49,Man
107,204178,DepthScenes,duration_manipulation_targetAtFixation,jsons/VE125_randls_46.json,http://54.235.29.9/FacialAge/BNav_EC2/DepthDuration/v2_depth_duration_MTurk/v2_DepthDuration_HTML.html#99,99,1440,789,1440,900,8-21-2022,9-36-52,108,depth_duration_stimuli/000906_2014-06-08_13-35-43_260595134347_rgbf000155-resize_1/000906_2014-06-08_13-35-43_260595134347_rgbf000155-resize_1-target.png,125,2.8489999999999998,4,2411,125,meters,jsons/VE125_randls_46.json,874030,1493338,49,Man
108,204178,DepthScenes,duration_manipulation_targetAtFixation,jsons/VE125_randls_46.json,http://54.235.29.9/FacialAge/BNav_EC2/DepthDuration/v2_depth_duration_MTurk/v2_DepthDuration_HTML.html#99,99,1440,789,1440,900,8-21-2022,9-36-52,109,depth_duration_stimuli/002805_2014-06-22_19-54-03_094959634447_rgbf000079-resize_1/002805_2014-06-22_19-54-03_094959634447_rgbf000079-resize_1-target.png,125,3.1439999999999997,5,2252,126,meters,jsons/VE125_randls_46.json,874030,1493338,49,Man
109,204178,DepthScenes,duration_manipulation_targetAtFixation,jsons/VE125_randls_46.json,http://54.235.29.9/FacialAge/BNav_EC2/DepthDuration/v2_depth_duration_MTurk/v2_DepthDuration_HTML.html#99,99,1440,789,1440,900,8-21-2022,9-36-52,110,depth_duration_stimuli/001110_2014-06-15_17-25-28_260595134347_rgbf000150-resize_1/001110_2014-06-15_17-25-28_260595134347_rgbf000150-resize_1-target.png,125,1.7115,4,2237,126,meters,jsons/VE125_randls_46.json,874030,1493338,49,Man
110,204178,DepthScenes,duration_manipulation_targetAtFixation,jsons/VE125_randls_46.json,http://54.235.29.9/FacialAge/BNav_EC2/DepthDuration/v2_depth_duration_MTurk/v2_DepthDuration_HTML.html#99,99,1440,789,1440,900,8-21-2022,9-36-52,111,depth_duration_stimuli/000927_2014-06-09_16-32-30_260595134347_rgbf000123-resize_3/000927_2014-06-09_16-32-30_260595134347_rgbf000123-resize_3-target.png,125,2.6785,5,2247,125,meters,jsons/VE125_randls_46.json,874030,1493338,49,Man
111,204178,DepthScenes,duration_manipulation_targetAtFixation,jsons/VE125_randls_46.json,http://54.235.29.9/FacialAge/BNav_EC2/DepthDuration/v2_depth_duration_MTurk/v2_DepthDuration_HTML.html#99,99,1440,789,1440,900,8-21-2022,9-36-52,112,depth_duration_stimuli/002663_2014-06-13_15-50-26_094959634447_rgbf000075-resize_1/002663_2014-06-13_15-50-26_094959634447_rgbf000075-resize_1-target.png,125,4.7495,4,2285,126,meters,jsons/VE125_randls_46.json,874030,1493338,49,Man
112,204178,DepthScenes,duration_manipulation_targetAtFixation,jsons/VE125_randls_46.json,http://54.235.29.9/FacialAge/BNav_EC2/DepthDuration/v2_depth_duration_MTurk/v2_DepthDuration_HTML.html#99,99,1440,789,1440,900,8-21-2022,9-36-52,113,depth_duration_stimuli/000409_2014-06-04_19-23-33_260595134347_rgbf000067-resize_0/000409_2014-06-04_19-23-33_260595134347_rgbf000067-resize_0-target.png,125,3.7335,5,2540,115,meters,jsons/VE125_randls_46.json,874030,1493338,49,Man
113,204178,DepthScenes,duration_manipulation_targetAtFixation,jsons/VE125_randls_46.json,http://54.235.29.9/FacialAge/BNav_EC2/DepthDuration/v2_depth_duration_MTurk/v2_DepthDuration_HTML.html#99,99,1440,789,1440,900,8-21-2022,9-36-52,114,depth_duration_stimuli/002988_2014-06-15_12-24-20_094959634447_rgbf000150-resize_1/002988_2014-06-15_12-24-20_094959634447_rgbf000150-resize_1-target.png,125,4.7669999999999995,5,2403,126,meters,jsons/VE125_randls_46.json,874030,1493338,49,Man
114,204178,DepthScenes,duration_manipulation_targetAtFixation,jsons/VE125_randls_46.json,http://54.235.29.9/FacialAge/BNav_EC2/DepthDuration/v2_depth_duration_MTurk/v2_DepthDuration_HTML.html#99,99,1440,789,1440,900,8-21-2022,9-36-52,115,depth_duration_stimuli/001052_2014-06-08_18-24-54_260595134347_rgbf000130-resize_1/001052_2014-06-08_18-24-54_260595134347_rgbf000130-resize_1-target.png,125,4.1045,5,2324,125,meters,jsons/VE125_randls_46.json,874030,1493338,49,Man
115,204178,DepthScenes,duration_manipulation_targetAtFixation,jsons/VE125_randls_46.json,http://54.235.29.9/FacialAge/BNav_EC2/DepthDuration/v2_depth_duration_MTurk/v2_DepthDuration_HTML.html#99,99,1440,789,1440,900,8-21-2022,9-36-52,116,depth_duration_stimuli/001170_2014-06-17_15-43-44_260595134347_rgbf000096-resize_6/001170_2014-06-17_15-43-44_260595134347_rgbf000096-resize-original.jpg,125,1.1909999999999998,4,2250,126,meters,jsons/VE125_randls_46.json,874030,1493338,49,Man
116,204178,DepthScenes,duration_manipulation_targetAtFixation,jsons/VE125_randls_46.json,http://54.235.29.9/FacialAge/BNav_EC2/DepthDuration/v2_depth_duration_MTurk/v2_DepthDuration_HTML.html#99,99,1440,789,1440,900,8-21-2022,9-36-52,117,depth_duration_stimuli/002213_2014-06-28_18-37-58_260595134347_rgbf000055-resize_1/002213_2014-06-28_18-37-58_260595134347_rgbf000055-resize_1-target.png,125,3.62,5,2176,125,meters,jsons/VE125_randls_46.json,874030,1493338,49,Man
117,204178,DepthScenes,duration_manipulation_targetAtFixation,jsons/VE125_randls_46.json,http://54.235.29.9/FacialAge/BNav_EC2/DepthDuration/v2_depth_duration_MTurk/v2_DepthDuration_HTML.html#99,99,1440,789,1440,900,8-21-2022,9-36-52,118,depth_duration_stimuli/000691_2014-06-08_13-08-50_260595134347_rgbf000132-resize_3/000691_2014-06-08_13-08-50_260595134347_rgbf000132-resize_3-target.png,125,4.1530000000000005,5,2121,124,meters,jsons/VE125_randls_46.json,874030,1493338,49,Man
118,204178,DepthScenes,duration_manipulation_targetAtFixation,jsons/VE125_randls_46.json,http://54.235.29.9/FacialAge/BNav_EC2/DepthDuration/v2_depth_duration_MTurk/v2_DepthDuration_HTML.html#99,99,1440,789,1440,900,8-21-2022,9-36-52,119,depth_duration_stimuli/001133_2014-06-17_14-49-16_260595134347_rgbf000100-resize_0/001133_2014-06-17_14-49-16_260595134347_rgbf000100-resize_0-target.png,125,4.2115,4,2321,122,meters,jsons/VE125_randls_46.json,874030,1493338,49,Man
119,204178,DepthScenes,duration_manipulation_targetAtFixation,jsons/VE125_randls_46.json,http://54.235.29.9/FacialAge/BNav_EC2/DepthDuration/v2_depth_duration_MTurk/v2_DepthDuration_HTML.html#99,99,1440,789,1440,900,8-21-2022,9-36-52,120,depth_duration_stimuli/001132_2014-06-17_14-48-54_260595134347_rgbf000100-resize_2/001132_2014-06-17_14-48-54_260595134347_rgbf000100-resize_2-target.png,125,3.753,5,2316,126,meters,jsons/VE125_randls_46.json,874030,1493338,49,Man
120,204178,DepthScenes,duration_manipulation_targetAtFixation,jsons/VE125_randls_46.json,http://54.235.29.9/FacialAge/BNav_EC2/DepthDuration/v2_depth_duration_MTurk/v2_DepthDuration_HTML.html#99,99,1440,789,1440,900,8-21-2022,9-36-52,121,depth_duration_stimuli/002600_2014-06-24_14-27-04_094959634447_rgbf000074-resize_2/002600_2014-06-24_14-27-04_094959634447_rgbf000074-resize_2-target.png,125,2.7575,5,2361,124,meters,jsons/VE125_randls_46.json,874030,1493338,49,Man
121,204178,DepthScenes,duration_manipulation_targetAtFixation,jsons/VE125_randls_46.json,http://54.235.29.9/FacialAge/BNav_EC2/DepthDuration/v2_depth_duration_MTurk/v2_DepthDuration_HTML.html#99,99,1440,789,1440,900,8-21-2022,9-36-52,122,depth_duration_stimuli/003228_2014-05-14_13-42-35_094959634447_rgbf000101-resize_1/003228_2014-05-14_13-42-35_094959634447_rgbf000101-resize_1-target.png,125,1.9680000000000002,4,2174,126,meters,jsons/VE125_randls_46.json,874030,1493338,49,Man
122,204178,DepthScenes,duration_manipulation_targetAtFixation,jsons/VE125_randls_46.json,http://54.235.29.9/FacialAge/BNav_EC2/DepthDuration/v2_depth_duration_MTurk/v2_DepthDuration_HTML.html#99,99,1440,789,1440,900,8-21-2022,9-36-52,123,depth_duration_stimuli/002549_2014-06-24_13-41-39_094959634447_rgbf000022-resize_3/002549_2014-06-24_13-41-39_094959634447_rgbf000022-resize_3-target.png,125,1.476,4,2271,125,meters,jsons/VE125_randls_46.json,874030,1493338,49,Man
123,204178,DepthScenes,duration_manipulation_targetAtFixation,jsons/VE125_randls_46.json,http://54.235.29.9/FacialAge/BNav_EC2/DepthDuration/v2_depth_duration_MTurk/v2_DepthDuration_HTML.html#99,99,1440,789,1440,900,8-21-2022,9-36-52,124,depth_duration_stimuli/002750_2014-06-22_19-08-03_094959634447_rgbf000094-resize_4/002750_2014-06-22_19-08-03_094959634447_rgbf000094-resize_4-target.png,125,2.354,5,2099,123,meters,jsons/VE125_randls_46.json,874030,1493338,49,Man
124,204178,DepthScenes,duration_manipulation_targetAtFixation,jsons/VE125_randls_46.json,http://54.235.29.9/FacialAge/BNav_EC2/DepthDuration/v2_depth_duration_MTurk/v2_DepthDuration_HTML.html#99,99,1440,789,1440,900,8-21-2022,9-36-52,125,depth_duration_stimuli/000692_2014-06-08_13-09-42_260595134347_rgbf000199-resize_2/000692_2014-06-08_13-09-42_260595134347_rgbf000199-resize_2-target.png,125,3.661,5,2132,126,meters,jsons/VE125_randls_46.json,874030,1493338,49,Man
125,204178,DepthScenes,duration_manipulation_targetAtFixation,jsons/VE125_randls_46.json,http://54.235.29.9/FacialAge/BNav_EC2/DepthDuration/v2_depth_duration_MTurk/v2_DepthDuration_HTML.html#99,99,1440,789,1440,900,8-21-2022,9-36-52,126,depth_duration_stimuli/001094_2014-06-15_17-36-00_260595134347_rgbf000205-resize_0/001094_2014-06-15_17-36-00_260595134347_rgbf000205-resize_0-target.png,125,4.2175,4,2155,125,meters,jsons/VE125_randls_46.json,874030,1493338,49,Man
126,204178,DepthScenes,duration_manipulation_targetAtFixation,jsons/VE125_randls_46.json,http://54.235.29.9/FacialAge/BNav_EC2/DepthDuration/v2_depth_duration_MTurk/v2_DepthDuration_HTML.html#99,99,1440,789,1440,900,8-21-2022,9-36-52,127,depth_duration_stimuli/001029_2014-06-08_13-17-57_260595134347_rgbf000065-resize_1/001029_2014-06-08_13-17-57_260595134347_rgbf000065-resize_1-target.png,125,3.0835,4,3432,125,meters,jsons/VE125_randls_46.json,874030,1493338,49,Man
127,204178,DepthScenes,duration_manipulation_targetAtFixation,jsons/VE125_randls_46.json,http://54.235.29.9/FacialAge/BNav_EC2/DepthDuration/v2_depth_duration_MTurk/v2_DepthDuration_HTML.html#99,99,1440,789,1440,900,8-21-2022,9-36-52,128,depth_duration_stimuli/000677_2014-06-08_23-10-32_260595134347_rgbf000158-resize_6/000677_2014-06-08_23-10-32_260595134347_rgbf000158-resize_6-target.png,125,3.556,4,2519,126,meters,jsons/VE125_randls_46.json,874030,1493338,49,Man
128,204178,DepthScenes,duration_manipulation_targetAtFixation,jsons/VE125_randls_46.json,http://54.235.29.9/FacialAge/BNav_EC2/DepthDuration/v2_depth_duration_MTurk/v2_DepthDuration_HTML.html#99,99,1440,789,1440,900,8-21-2022,9-36-52,129,depth_duration_stimuli/001158_2014-06-17_15-32-16_260595134347_rgbf000138-resize_2/001158_2014-06-17_15-32-16_260595134347_rgbf000138-resize_2-target.png,125,4.5315,4,2569,123,meters,jsons/VE125_randls_46.json,874030,1493338,49,Man
129,204178,DepthScenes,duration_manipulation_targetAtFixation,jsons/VE125_randls_46.json,http://54.235.29.9/FacialAge/BNav_EC2/DepthDuration/v2_depth_duration_MTurk/v2_DepthDuration_HTML.html#99,99,1440,789,1440,900,8-21-2022,9-36-52,130,depth_duration_stimuli/000556_2014-06-09_22-42-56_260595134347_rgbf000214-resize_1/000556_2014-06-09_22-42-56_260595134347_rgbf000214-resize_1-target.png,125,4.8415,4,2517,125,meters,jsons/VE125_randls_46.json,874030,1493338,49,Man
130,204178,DepthScenes,duration_manipulation_targetAtFixation,jsons/VE125_randls_46.json,http://54.235.29.9/FacialAge/BNav_EC2/DepthDuration/v2_depth_duration_MTurk/v2_DepthDuration_HTML.html#99,99,1440,789,1440,900,8-21-2022,9-36-52,131,depth_duration_stimuli/001164_2014-06-17_15-35-46_260595134347_rgbf000085-resize_3/001164_2014-06-17_15-35-46_260595134347_rgbf000085-resize_3-target.png,125,2.354,4,3041,125,meters,jsons/VE125_randls_46.json,874030,1493338,49,Man
131,204178,DepthScenes,duration_manipulation_targetAtFixation,jsons/VE125_randls_46.json,http://54.235.29.9/FacialAge/BNav_EC2/DepthDuration/v2_depth_duration_MTurk/v2_DepthDuration_HTML.html#99,99,1440,789,1440,900,8-21-2022,9-36-52,132,depth_duration_stimuli/001136_2014-06-17_15-19-41_260595134347_rgbf000076-resize_3/001136_2014-06-17_15-19-41_260595134347_rgbf000076-resize_3-target.png,125,1.8655,4,7171,125,meters,jsons/VE125_randls_46.json,874030,1493338,49,Man
132,204178,DepthScenes,duration_manipulation_targetAtFixation,jsons/VE125_randls_46.json,http://54.235.29.9/FacialAge/BNav_EC2/DepthDuration/v2_depth_duration_MTurk/v2_DepthDuration_HTML.html#99,99,1440,789,1440,900,8-21-2022,9-36-52,133,depth_duration_stimuli/002570_2014-06-24_13-59-54_094959634447_rgbf000059-resize_0/002570_2014-06-24_13-59-54_094959634447_rgbf000059-resize_0-target.png,125,4.037,4,2650,126,meters,jsons/VE125_randls_46.json,874030,1493338,49,Man
133,204178,DepthScenes,duration_manipulation_targetAtFixation,jsons/VE125_randls_46.json,http://54.235.29.9/FacialAge/BNav_EC2/DepthDuration/v2_depth_duration_MTurk/v2_DepthDuration_HTML.html#99,99,1440,789,1440,900,8-21-2022,9-36-52,134,depth_duration_stimuli/002467_2014-06-28_20-38-07_260595134347_rgbf000026-resize_2/002467_2014-06-28_20-38-07_260595134347_rgbf000026-resize_2-target.png,125,4.742,4,2463,124,meters,jsons/VE125_randls_46.json,874030,1493338,49,Man
134,204178,DepthScenes,duration_manipulation_targetAtFixation,jsons/VE125_randls_46.json,http://54.235.29.9/FacialAge/BNav_EC2/DepthDuration/v2_depth_duration_MTurk/v2_DepthDuration_HTML.html#99,99,1440,789,1440,900,8-21-2022,9-36-52,135,depth_duration_stimuli/002072_2014-06-24_21-48-06_260595134347_rgbf000115-resize_0/002072_2014-06-24_21-48-06_260595134347_rgbf000115-resize-original.jpg,125,4.702,4,2269,124,meters,jsons/VE125_randls_46.json,874030,1493338,49,Man
135,204178,DepthScenes,duration_manipulation_targetAtFixation,jsons/VE125_randls_46.json,http://54.235.29.9/FacialAge/BNav_EC2/DepthDuration/v2_depth_duration_MTurk/v2_DepthDuration_HTML.html#99,99,1440,789,1440,900,8-21-2022,9-36-52,136,depth_duration_stimuli/002788_2014-06-22_19-36-03_094959634447_rgbf000088-resize_2/002788_2014-06-22_19-36-03_094959634447_rgbf000088-resize_2-target.png,125,1.6465,5,2601,125,meters,jsons/VE125_randls_46.json,874030,1493338,49,Man
136,204178,DepthScenes,duration_manipulation_targetAtFixation,jsons/VE125_randls_46.json,http://54.235.29.9/FacialAge/BNav_EC2/DepthDuration/v2_depth_duration_MTurk/v2_DepthDuration_HTML.html#99,99,1440,789,1440,900,8-21-2022,9-36-52,137,depth_duration_stimuli/000749_2014-06-08_21-55-06_260595134347_rgbf000070-resize_2/000749_2014-06-08_21-55-06_260595134347_rgbf000070-resize_2-target.png,125,2.331,4,2762,124,meters,jsons/VE125_randls_46.json,874030,1493338,49,Man
137,204178,DepthScenes,duration_manipulation_targetAtFixation,jsons/VE125_randls_46.json,http://54.235.29.9/FacialAge/BNav_EC2/DepthDuration/v2_depth_duration_MTurk/v2_DepthDuration_HTML.html#99,99,1440,789,1440,900,8-21-2022,9-36-52,138,depth_duration_stimuli/001055_2014-06-08_18-45-35_260595134347_rgbf000111-resize_4/001055_2014-06-08_18-45-35_260595134347_rgbf000111-resize_4-target.png,125,2.4290000000000003,5,2084,126,meters,jsons/VE125_randls_46.json,874030,1493338,49,Man
138,204178,DepthScenes,duration_manipulation_targetAtFixation,jsons/VE125_randls_46.json,http://54.235.29.9/FacialAge/BNav_EC2/DepthDuration/v2_depth_duration_MTurk/v2_DepthDuration_HTML.html#99,99,1440,789,1440,900,8-21-2022,9-36-52,139,depth_duration_stimuli/000549_2014-06-08_22-10-24_260595134347_rgbf000247-resize_3/000549_2014-06-08_22-10-24_260595134347_rgbf000247-resize_3-target.png,125,1.841,4,2260,127,meters,jsons/VE125_randls_46.json,874030,1493338,49,Man
139,204178,DepthScenes,duration_manipulation_targetAtFixation,jsons/VE125_randls_46.json,http://54.235.29.9/FacialAge/BNav_EC2/DepthDuration/v2_depth_duration_MTurk/v2_DepthDuration_HTML.html#99,99,1440,789,1440,900,8-21-2022,9-36-52,140,depth_duration_stimuli/001175_2014-06-17_15-45-55_260595134347_rgbf000129-resize_4/001175_2014-06-17_15-45-55_260595134347_rgbf000129-resize_4-target.png,125,4.255,5,2369,125,meters,jsons/VE125_randls_46.json,874030,1493338,49,Man
140,204178,DepthScenes,duration_manipulation_targetAtFixation,jsons/VE125_randls_46.json,http://54.235.29.9/FacialAge/BNav_EC2/DepthDuration/v2_depth_duration_MTurk/v2_DepthDuration_HTML.html#99,99,1440,789,1440,900,8-21-2022,9-36-52,141,depth_duration_stimuli/003490_2014-05-21_15-50-11_094959634447_rgbf000101-resize_3/003490_2014-05-21_15-50-11_094959634447_rgbf000101-resize_3-target.png,125,3.6445,4,2067,125,meters,jsons/VE125_randls_46.json,874030,1493338,49,Man
141,204178,DepthScenes,duration_manipulation_targetAtFixation,jsons/VE125_randls_46.json,http://54.235.29.9/FacialAge/BNav_EC2/DepthDuration/v2_depth_duration_MTurk/v2_DepthDuration_HTML.html#99,99,1440,789,1440,900,8-21-2022,9-36-52,142,depth_duration_stimuli/000414_2014-06-04_19-49-13_260595134347_rgbf000044-resize_0/000414_2014-06-04_19-49-13_260595134347_rgbf000044-resize_0-target.png,125,4.329,5,2210,126,meters,jsons/VE125_randls_46.json,874030,1493338,49,Man
142,204178,DepthScenes,duration_manipulation_targetAtFixation,jsons/VE125_randls_46.json,http://54.235.29.9/FacialAge/BNav_EC2/DepthDuration/v2_depth_duration_MTurk/v2_DepthDuration_HTML.html#99,99,1440,789,1440,900,8-21-2022,9-36-52,143,depth_duration_stimuli/003129_2014-05-12_10-48-10_094959634447_rgbf000100-resize_0/003129_2014-05-12_10-48-10_094959634447_rgbf000100-resize_0-target.png,125,4.9305,4,2295,114,meters,jsons/VE125_randls_46.json,874030,1493338,49,Man
143,204178,DepthScenes,duration_manipulation_targetAtFixation,jsons/VE125_randls_46.json,http://54.235.29.9/FacialAge/BNav_EC2/DepthDuration/v2_depth_duration_MTurk/v2_DepthDuration_HTML.html#99,99,1440,789,1440,900,8-21-2022,9-36-52,144,depth_duration_stimuli/003534_2014-05-22_15-06-10_094959634447_rgbf000102-resize_4/003534_2014-05-22_15-06-10_094959634447_rgbf000102-resize_4-target.png,125,1.426,4,3059,125,meters,jsons/VE125_randls_46.json,874030,1493338,49,Man
144,204178,DepthScenes,duration_manipulation_targetAtFixation,jsons/VE125_randls_46.json,http://54.235.29.9/FacialAge/BNav_EC2/DepthDuration/v2_depth_duration_MTurk/v2_DepthDuration_HTML.html#99,99,1440,789,1440,900,8-21-2022,9-36-52,145,depth_duration_stimuli/002637_2014-06-24_14-51-13_094959634447_rgbf000066-resize_4/002637_2014-06-24_14-51-13_094959634447_rgbf000066-resize_4-target.png,125,1.9955,4,2859,125,meters,jsons/VE125_randls_46.json,874030,1493338,49,Man
145,204178,DepthScenes,duration_manipulation_targetAtFixation,jsons/VE125_randls_46.json,http://54.235.29.9/FacialAge/BNav_EC2/DepthDuration/v2_depth_duration_MTurk/v2_DepthDuration_HTML.html#99,99,1440,789,1440,900,8-21-2022,9-36-52,146,depth_duration_stimuli/001498_2014-06-19_17-45-14_260595134347_rgbf000129-resize_4/001498_2014-06-19_17-45-14_260595134347_rgbf000129-resize-original.jpg,125,1.4075,4,7667,126,meters,jsons/VE125_randls_46.json,874030,1493338,49,Man
146,204178,DepthScenes,duration_manipulation_targetAtFixation,jsons/VE125_randls_46.json,http://54.235.29.9/FacialAge/BNav_EC2/DepthDuration/v2_depth_duration_MTurk/v2_DepthDuration_HTML.html#99,99,1440,789,1440,900,8-21-2022,9-36-52,147,depth_duration_stimuli/001150_2014-06-17_15-27-34_260595134347_rgbf000108-resize_2/001150_2014-06-17_15-27-34_260595134347_rgbf000108-resize_2-target.png,125,4.0325,4,2077,125,meters,jsons/VE125_randls_46.json,874030,1493338,49,Man
147,204178,DepthScenes,duration_manipulation_targetAtFixation,jsons/VE125_randls_46.json,http://54.235.29.9/FacialAge/BNav_EC2/DepthDuration/v2_depth_duration_MTurk/v2_DepthDuration_HTML.html#99,99,1440,789,1440,900,8-21-2022,9-36-52,148,depth_duration_stimuli/000665_2014-06-09_20-42-35_260595134347_rgbf000110-resize_1/000665_2014-06-09_20-42-35_260595134347_rgbf000110-resize_1-target.png,125,3.057,4,2233,124,meters,jsons/VE125_randls_46.json,874030,1493338,49,Man
148,204178,DepthScenes,duration_manipulation_targetAtFixation,jsons/VE125_randls_46.json,http://54.235.29.9/FacialAge/BNav_EC2/DepthDuration/v2_depth_duration_MTurk/v2_DepthDuration_HTML.html#99,99,1440,789,1440,900,8-21-2022,9-36-52,149,depth_duration_stimuli/000009_2014-05-26_14-32-05_260595134347_rgbf000034-resize_3/000009_2014-05-26_14-32-05_260595134347_rgbf000034-resize_3-target.png,125,3.8715,4,2260,126,meters,jsons/VE125_randls_46.json,874030,1493338,49,Man
149,204178,DepthScenes,duration_manipulation_targetAtFixation,jsons/VE125_randls_46.json,http://54.235.29.9/FacialAge/BNav_EC2/DepthDuration/v2_depth_duration_MTurk/v2_DepthDuration_HTML.html#99,99,1440,789,1440,900,8-21-2022,9-36-52,150,depth_duration_stimuli/001828_2014-06-26_21-40-03_260595134347_rgbf000024-resize_0/001828_2014-06-26_21-40-03_260595134347_rgbf000024-resize_0-target.png,125,4.8260000000000005,4,2283,125,meters,jsons/VE125_randls_46.json,874030,1493338,49,Man
150,204178,DepthScenes,duration_manipulation_targetAtFixation,jsons/VE125_randls_46.json,http://54.235.29.9/FacialAge/BNav_EC2/DepthDuration/v2_depth_duration_MTurk/v2_DepthDuration_HTML.html#99,99,1440,789,1440,900,8-21-2022,9-36-52,151,depth_duration_stimuli/001810_2014-06-26_20-51-35_260595134347_rgbf000040-resize_3/001810_2014-06-26_20-51-35_260595134347_rgbf000040-resize_3-target.png,125,2.2525,4,2184,122,meters,jsons/VE125_randls_46.json,874030,1493338,49,Man
151,204178,DepthScenes,duration_manipulation_targetAtFixation,jsons/VE125_randls_46.json,http://54.235.29.9/FacialAge/BNav_EC2/DepthDuration/v2_depth_duration_MTurk/v2_DepthDuration_HTML.html#99,99,1440,789,1440,900,8-21-2022,9-36-52,152,depth_duration_stimuli/003010_2014-06-15_12-54-35_094959634447_rgbf000112-resize_0/003010_2014-06-15_12-54-35_094959634447_rgbf000112-resize_0-target.png,125,3.1185,5,2316,126,meters,jsons/VE125_randls_46.json,874030,1493338,49,Man
152,204178,DepthScenes,duration_manipulation_targetAtFixation,jsons/VE125_randls_46.json,http://54.235.29.9/FacialAge/BNav_EC2/DepthDuration/v2_depth_duration_MTurk/v2_DepthDuration_HTML.html#99,99,1440,789,1440,900,8-21-2022,9-36-52,153,depth_duration_stimuli/000493_2014-06-09_21-01-18_260595134347_rgbf000196-resize_3/000493_2014-06-09_21-01-18_260595134347_rgbf000196-resize_3-target.png,125,3.44,4,2120,125,meters,jsons/VE125_randls_46.json,874030,1493338,49,Man
153,204178,DepthScenes,duration_manipulation_targetAtFixation,jsons/VE125_randls_46.json,http://54.235.29.9/FacialAge/BNav_EC2/DepthDuration/v2_depth_duration_MTurk/v2_DepthDuration_HTML.html#99,99,1440,789,1440,900,8-21-2022,9-36-52,154,depth_duration_stimuli/000191_2014-05-12_17-07-38_260595134347_rgbf000199-resize_0/000191_2014-05-12_17-07-38_260595134347_rgbf000199-resize_0-target.png,125,3.7995,4,2226,125,meters,jsons/VE125_randls_46.json,874030,1493338,49,Man
154,204178,DepthScenes,duration_manipulation_targetAtFixation,jsons/VE125_randls_46.json,http://54.235.29.9/FacialAge/BNav_EC2/DepthDuration/v2_depth_duration_MTurk/v2_DepthDuration_HTML.html#99,99,1440,789,1440,900,8-21-2022,9-36-52,155,depth_duration_stimuli/003621_2014-05-23_18-06-08_094959634447_rgbf000101-resize_1/003621_2014-05-23_18-06-08_094959634447_rgbf000101-resize_1-target.png,125,3.9835,5,2321,123,meters,jsons/VE125_randls_46.json,874030,1493338,49,Man
155,204178,DepthScenes,duration_manipulation_targetAtFixation,jsons/VE125_randls_46.json,http://54.235.29.9/FacialAge/BNav_EC2/DepthDuration/v2_depth_duration_MTurk/v2_DepthDuration_HTML.html#99,99,1440,789,1440,900,8-21-2022,9-36-52,156,depth_duration_stimuli/001584_2014-06-20_11-07-43_260595134347_rgbf000002-resize_1/001584_2014-06-20_11-07-43_260595134347_rgbf000002-resize_1-target.png,125,3.53,4,2258,125,meters,jsons/VE125_randls_46.json,874030,1493338,49,Man
156,204178,DepthScenes,duration_manipulation_targetAtFixation,jsons/VE125_randls_46.json,http://54.235.29.9/FacialAge/BNav_EC2/DepthDuration/v2_depth_duration_MTurk/v2_DepthDuration_HTML.html#99,99,1440,789,1440,900,8-21-2022,9-36-52,157,depth_duration_stimuli/002748_2014-06-22_19-07-22_094959634447_rgbf000078-resize_1/002748_2014-06-22_19-07-22_094959634447_rgbf000078-resize_1-target.png,125,4.6705,4,2259,125,meters,jsons/VE125_randls_46.json,874030,1493338,49,Man
157,204178,DepthScenes,duration_manipulation_targetAtFixation,jsons/VE125_randls_46.json,http://54.235.29.9/FacialAge/BNav_EC2/DepthDuration/v2_depth_duration_MTurk/v2_DepthDuration_HTML.html#99,99,1440,789,1440,900,8-21-2022,9-36-52,158,depth_duration_stimuli/002995_2014-06-15_12-31-26_094959634447_rgbf000150-resize_1/002995_2014-06-15_12-31-26_094959634447_rgbf000150-resize_1-target.png,125,3.8360000000000003,5,2154,124,meters,jsons/VE125_randls_46.json,874030,1493338,49,Man
158,204178,DepthScenes,duration_manipulation_targetAtFixation,jsons/VE125_randls_46.json,http://54.235.29.9/FacialAge/BNav_EC2/DepthDuration/v2_depth_duration_MTurk/v2_DepthDuration_HTML.html#99,99,1440,789,1440,900,8-21-2022,9-36-52,159,depth_duration_stimuli/001570_2014-06-20_17-21-09_260595134347_rgbf000135-resize_4/001570_2014-06-20_17-21-09_260595134347_rgbf000135-resize_4-target.png,125,4.467,4,2562,126,meters,jsons/VE125_randls_46.json,874030,1493338,49,Man
159,204178,DepthScenes,duration_manipulation_targetAtFixation,jsons/VE125_randls_46.json,http://54.235.29.9/FacialAge/BNav_EC2/DepthDuration/v2_depth_duration_MTurk/v2_DepthDuration_HTML.html#99,99,1440,789,1440,900,8-21-2022,9-36-52,160,depth_duration_stimuli/001392_2014-06-19_16-07-59_260595134347_rgbf000046-resize_1/001392_2014-06-19_16-07-59_260595134347_rgbf000046-resize_1-target.png,125,4.135,5,2595,147,meters,jsons/VE125_randls_46.json,874030,1493338,49,Man
160,204178,DepthScenes,duration_manipulation_targetAtFixation,jsons/VE125_randls_46.json,http://54.235.29.9/FacialAge/BNav_EC2/DepthDuration/v2_depth_duration_MTurk/v2_DepthDuration_HTML.html#99,99,1440,789,1440,900,8-21-2022,9-36-52,161,depth_duration_stimuli/001449_2014-06-19_17-01-27_260595134347_rgbf000116-resize_2/001449_2014-06-19_17-01-27_260595134347_rgbf000116-resize_2-target.png,125,3.452,4,2387,118,meters,jsons/VE125_randls_46.json,874030,1493338,49,Man
161,204178,DepthScenes,duration_manipulation_targetAtFixation,jsons/VE125_randls_46.json,http://54.235.29.9/FacialAge/BNav_EC2/DepthDuration/v2_depth_duration_MTurk/v2_DepthDuration_HTML.html#99,99,1440,789,1440,900,8-21-2022,9-36-52,162,depth_duration_stimuli/001450_2014-06-19_17-02-03_260595134347_rgbf000203-resize_4/001450_2014-06-19_17-02-03_260595134347_rgbf000203-resize_4-target.png,125,4.0106666666667,4,2250,124,meters,jsons/VE125_randls_46.json,874030,1493338,49,Man
162,204178,DepthScenes,duration_manipulation_targetAtFixation,jsons/VE125_randls_46.json,http://54.235.29.9/FacialAge/BNav_EC2/DepthDuration/v2_depth_duration_MTurk/v2_DepthDuration_HTML.html#99,99,1440,789,1440,900,8-21-2022,9-36-52,163,depth_duration_stimuli/002153_2014-06-25_21-27-18_260595134347_rgbf000038-resize_5/002153_2014-06-25_21-27-18_260595134347_rgbf000038-resize_5-target.png,125,2.505,4,2242,125,meters,jsons/VE125_randls_46.json,874030,1493338,49,Man
163,204178,DepthScenes,duration_manipulation_targetAtFixation,jsons/VE125_randls_46.json,http://54.235.29.9/FacialAge/BNav_EC2/DepthDuration/v2_depth_duration_MTurk/v2_DepthDuration_HTML.html#99,99,1440,789,1440,900,8-21-2022,9-36-52,164,depth_duration_stimuli/002660_2014-06-13_15-44-18_094959634447_rgbf001878-resize_2/002660_2014-06-13_15-44-18_094959634447_rgbf001878-resize_2-target.png,125,3.576,4,2161,126,meters,jsons/VE125_randls_46.json,874030,1493338,49,Man
