,subjID,experimentName,versionName,sequenceName,url,selected_row,windowWidth,windowHeight,screenWidth,screenHeight,startDate,startTime,trial,stimulus,duration,actual_depth,depth_estimate,trial_RT,log_sceneDuration,unitSelection,seq_filepath,experimentTime,totalTime,age,gender
0,205661,DepthScenes,duration_manipulation_targetAtFixation,jsons/v1_VE1000_randls_66_rotated.json,http://54.235.29.9/FacialAge/BNav_EC2/DepthDuration/v2_depth_duration_MTurk/v2_DepthDuration_HTML.html#77,77,1364,768,1364,768,8-22-2022,8-31-39,1,depth_duration_stimuli/003083_2014-06-15_15-21-03_094959634447_rgbf000063-resize_1/003083_2014-06-15_15-21-03_094959634447_rgbf000063-resize_1-target.png,1000,4.1405,5,13986,987,feet,jsons/v1_VE1000_randls_66_rotated.json,1511241,1754314,30,Woman
1,205661,DepthScenes,duration_manipulation_targetAtFixation,jsons/v1_VE1000_randls_66_rotated.json,http://54.235.29.9/FacialAge/BNav_EC2/DepthDuration/v2_depth_duration_MTurk/v2_DepthDuration_HTML.html#77,77,1364,768,1364,768,8-22-2022,8-31-39,2,depth_duration_stimuli/000486_2014-06-09_20-47-20_260595134347_rgbf000143-resize_2/000486_2014-06-09_20-47-20_260595134347_rgbf000143-resize_2-target.png,1000,4.8325,4,5170,1007,feet,jsons/v1_VE1000_randls_66_rotated.json,1511241,1754314,30,Woman
2,205661,DepthScenes,duration_manipulation_targetAtFixation,jsons/v1_VE1000_randls_66_rotated.json,http://54.235.29.9/FacialAge/BNav_EC2/DepthDuration/v2_depth_duration_MTurk/v2_DepthDuration_HTML.html#77,77,1364,768,1364,768,8-22-2022,8-31-39,3,depth_duration_stimuli/003228_2014-05-14_13-42-35_094959634447_rgbf000101-resize_1/003228_2014-05-14_13-42-35_094959634447_rgbf000101-resize_1-target.png,1000,1.9680000000000002,3,7540,1021,feet,jsons/v1_VE1000_randls_66_rotated.json,1511241,1754314,30,Woman
3,205661,DepthScenes,duration_manipulation_targetAtFixation,jsons/v1_VE1000_randls_66_rotated.json,http://54.235.29.9/FacialAge/BNav_EC2/DepthDuration/v2_depth_duration_MTurk/v2_DepthDuration_HTML.html#77,77,1364,768,1364,768,8-22-2022,8-31-39,4,depth_duration_stimuli/002600_2014-06-24_14-27-04_094959634447_rgbf000074-resize_2/002600_2014-06-24_14-27-04_094959634447_rgbf000074-resize_2-target.png,1000,2.7575,5,6675,1001,feet,jsons/v1_VE1000_randls_66_rotated.json,1511241,1754314,30,Woman
4,205661,DepthScenes,duration_manipulation_targetAtFixation,jsons/v1_VE1000_randls_66_rotated.json,http://54.235.29.9/FacialAge/BNav_EC2/DepthDuration/v2_depth_duration_MTurk/v2_DepthDuration_HTML.html#77,77,1364,768,1364,768,8-22-2022,8-31-39,5,depth_duration_stimuli/000556_2014-06-09_22-42-56_260595134347_rgbf000214-resize_1/000556_2014-06-09_22-42-56_260595134347_rgbf000214-resize_1-target.png,1000,4.8415,6,9178,1001,feet,jsons/v1_VE1000_randls_66_rotated.json,1511241,1754314,30,Woman
5,205661,DepthScenes,duration_manipulation_targetAtFixation,jsons/v1_VE1000_randls_66_rotated.json,http://54.235.29.9/FacialAge/BNav_EC2/DepthDuration/v2_depth_duration_MTurk/v2_DepthDuration_HTML.html#77,77,1364,768,1364,768,8-22-2022,8-31-39,6,depth_duration_stimuli/001158_2014-06-17_15-32-16_260595134347_rgbf000138-resize_2/001158_2014-06-17_15-32-16_260595134347_rgbf000138-resize_2-target.png,1000,4.5315,7,10000,996,feet,jsons/v1_VE1000_randls_66_rotated.json,1511241,1754314,30,Woman
6,205661,DepthScenes,duration_manipulation_targetAtFixation,jsons/v1_VE1000_randls_66_rotated.json,http://54.235.29.9/FacialAge/BNav_EC2/DepthDuration/v2_depth_duration_MTurk/v2_DepthDuration_HTML.html#77,77,1364,768,1364,768,8-22-2022,8-31-39,7,depth_duration_stimuli/001450_2014-06-19_17-02-03_260595134347_rgbf000203-resize_4/001450_2014-06-19_17-02-03_260595134347_rgbf000203-resize_4-target.png,1000,4.0106666666667,6,6920,976,feet,jsons/v1_VE1000_randls_66_rotated.json,1511241,1754314,30,Woman
7,205661,DepthScenes,duration_manipulation_targetAtFixation,jsons/v1_VE1000_randls_66_rotated.json,http://54.235.29.9/FacialAge/BNav_EC2/DepthDuration/v2_depth_duration_MTurk/v2_DepthDuration_HTML.html#77,77,1364,768,1364,768,8-22-2022,8-31-39,8,depth_duration_stimuli/001449_2014-06-19_17-01-27_260595134347_rgbf000116-resize_2/001449_2014-06-19_17-01-27_260595134347_rgbf000116-resize_2-target.png,1000,3.452,4,4340,998,feet,jsons/v1_VE1000_randls_66_rotated.json,1511241,1754314,30,Woman
8,205661,DepthScenes,duration_manipulation_targetAtFixation,jsons/v1_VE1000_randls_66_rotated.json,http://54.235.29.9/FacialAge/BNav_EC2/DepthDuration/v2_depth_duration_MTurk/v2_DepthDuration_HTML.html#77,77,1364,768,1364,768,8-22-2022,8-31-39,9,depth_duration_stimuli/000943_2014-06-09_19-31-07_260595134347_rgbf000128-resize_1/000943_2014-06-09_19-31-07_260595134347_rgbf000128-resize_1-target.png,1000,1.9765,3,9527,999,feet,jsons/v1_VE1000_randls_66_rotated.json,1511241,1754314,30,Woman
9,205661,DepthScenes,duration_manipulation_targetAtFixation,jsons/v1_VE1000_randls_66_rotated.json,http://54.235.29.9/FacialAge/BNav_EC2/DepthDuration/v2_depth_duration_MTurk/v2_DepthDuration_HTML.html#77,77,1364,768,1364,768,8-22-2022,8-31-39,10,depth_duration_stimuli/003070_2014-06-15_14-58-27_094959634447_rgbf000150-resize_3/003070_2014-06-15_14-58-27_094959634447_rgbf000150-resize_3-target.png,1000,2.9415,3,8274,1005,feet,jsons/v1_VE1000_randls_66_rotated.json,1511241,1754314,30,Woman
10,205661,DepthScenes,duration_manipulation_targetAtFixation,jsons/v1_VE1000_randls_66_rotated.json,http://54.235.29.9/FacialAge/BNav_EC2/DepthDuration/v2_depth_duration_MTurk/v2_DepthDuration_HTML.html#77,77,1364,768,1364,768,8-22-2022,8-31-39,11,depth_duration_stimuli/002637_2014-06-24_14-51-13_094959634447_rgbf000066-resize_4/002637_2014-06-24_14-51-13_094959634447_rgbf000066-resize_4-target.png,1000,1.9955,3,5143,1001,feet,jsons/v1_VE1000_randls_66_rotated.json,1511241,1754314,30,Woman
11,205661,DepthScenes,duration_manipulation_targetAtFixation,jsons/v1_VE1000_randls_66_rotated.json,http://54.235.29.9/FacialAge/BNav_EC2/DepthDuration/v2_depth_duration_MTurk/v2_DepthDuration_HTML.html#77,77,1364,768,1364,768,8-22-2022,8-31-39,12,depth_duration_stimuli/003534_2014-05-22_15-06-10_094959634447_rgbf000102-resize_4/003534_2014-05-22_15-06-10_094959634447_rgbf000102-resize_4-target.png,1000,1.426,2,4398,991,feet,jsons/v1_VE1000_randls_66_rotated.json,1511241,1754314,30,Woman
12,205661,DepthScenes,duration_manipulation_targetAtFixation,jsons/v1_VE1000_randls_66_rotated.json,http://54.235.29.9/FacialAge/BNav_EC2/DepthDuration/v2_depth_duration_MTurk/v2_DepthDuration_HTML.html#77,77,1364,768,1364,768,8-22-2022,8-31-39,13,depth_duration_stimuli/002750_2014-06-22_19-08-03_094959634447_rgbf000094-resize_4/002750_2014-06-22_19-08-03_094959634447_rgbf000094-resize_4-target.png,1000,2.354,4,9388,1010,feet,jsons/v1_VE1000_randls_66_rotated.json,1511241,1754314,30,Woman
13,205661,DepthScenes,duration_manipulation_targetAtFixation,jsons/v1_VE1000_randls_66_rotated.json,http://54.235.29.9/FacialAge/BNav_EC2/DepthDuration/v2_depth_duration_MTurk/v2_DepthDuration_HTML.html#77,77,1364,768,1364,768,8-22-2022,8-31-39,14,depth_duration_stimuli/002549_2014-06-24_13-41-39_094959634447_rgbf000022-resize_3/002549_2014-06-24_13-41-39_094959634447_rgbf000022-resize_3-target.png,1000,1.476,2,7803,997,feet,jsons/v1_VE1000_randls_66_rotated.json,1511241,1754314,30,Woman
14,205661,DepthScenes,duration_manipulation_targetAtFixation,jsons/v1_VE1000_randls_66_rotated.json,http://54.235.29.9/FacialAge/BNav_EC2/DepthDuration/v2_depth_duration_MTurk/v2_DepthDuration_HTML.html#77,77,1364,768,1364,768,8-22-2022,8-31-39,15,depth_duration_stimuli/001032_2014-06-08_13-23-17_260595134347_rgbf000021-resize_3/001032_2014-06-08_13-23-17_260595134347_rgbf000021-resize_3-target.png,1000,3.2725,4,6656,1002,feet,jsons/v1_VE1000_randls_66_rotated.json,1511241,1754314,30,Woman
15,205661,DepthScenes,duration_manipulation_targetAtFixation,jsons/v1_VE1000_randls_66_rotated.json,http://54.235.29.9/FacialAge/BNav_EC2/DepthDuration/v2_depth_duration_MTurk/v2_DepthDuration_HTML.html#77,77,1364,768,1364,768,8-22-2022,8-31-39,16,depth_duration_stimuli/001059_2014-06-08_21-53-27_260595134347_rgbf000061-resize_4/001059_2014-06-08_21-53-27_260595134347_rgbf000061-resize_4-target.png,1000,2.4185,3,4238,976,feet,jsons/v1_VE1000_randls_66_rotated.json,1511241,1754314,30,Woman
16,205661,DepthScenes,duration_manipulation_targetAtFixation,jsons/v1_VE1000_randls_66_rotated.json,http://54.235.29.9/FacialAge/BNav_EC2/DepthDuration/v2_depth_duration_MTurk/v2_DepthDuration_HTML.html#77,77,1364,768,1364,768,8-22-2022,8-31-39,17,depth_duration_stimuli/003048_2014-06-15_13-49-43_094959634447_rgbf000150-resize_1/003048_2014-06-15_13-49-43_094959634447_rgbf000150-resize_1-target.png,1000,4.0035,4,7471,1000,feet,jsons/v1_VE1000_randls_66_rotated.json,1511241,1754314,30,Woman
17,205661,DepthScenes,duration_manipulation_targetAtFixation,jsons/v1_VE1000_randls_66_rotated.json,http://54.235.29.9/FacialAge/BNav_EC2/DepthDuration/v2_depth_duration_MTurk/v2_DepthDuration_HTML.html#77,77,1364,768,1364,768,8-22-2022,8-31-39,18,depth_duration_stimuli/002043_2014-06-24_20-29-38_260595134347_rgbf000039-resize_4/002043_2014-06-24_20-29-38_260595134347_rgbf000039-resize_4-target.png,1000,2.8435,3,4332,995,feet,jsons/v1_VE1000_randls_66_rotated.json,1511241,1754314,30,Woman
18,205661,DepthScenes,duration_manipulation_targetAtFixation,jsons/v1_VE1000_randls_66_rotated.json,http://54.235.29.9/FacialAge/BNav_EC2/DepthDuration/v2_depth_duration_MTurk/v2_DepthDuration_HTML.html#77,77,1364,768,1364,768,8-22-2022,8-31-39,19,depth_duration_stimuli/001498_2014-06-19_17-45-14_260595134347_rgbf000129-resize_4/001498_2014-06-19_17-45-14_260595134347_rgbf000129-resize-original.jpg,1000,1.4075,0,6819,1004,feet,jsons/v1_VE1000_randls_66_rotated.json,1511241,1754314,30,Woman
19,205661,DepthScenes,duration_manipulation_targetAtFixation,jsons/v1_VE1000_randls_66_rotated.json,http://54.235.29.9/FacialAge/BNav_EC2/DepthDuration/v2_depth_duration_MTurk/v2_DepthDuration_HTML.html#77,77,1364,768,1364,768,8-22-2022,8-31-39,20,depth_duration_stimuli/000549_2014-06-08_22-10-24_260595134347_rgbf000247-resize_3/000549_2014-06-08_22-10-24_260595134347_rgbf000247-resize_3-target.png,1000,1.841,2,9021,996,feet,jsons/v1_VE1000_randls_66_rotated.json,1511241,1754314,30,Woman
20,205661,DepthScenes,duration_manipulation_targetAtFixation,jsons/v1_VE1000_randls_66_rotated.json,http://54.235.29.9/FacialAge/BNav_EC2/DepthDuration/v2_depth_duration_MTurk/v2_DepthDuration_HTML.html#77,77,1364,768,1364,768,8-22-2022,8-31-39,21,depth_duration_stimuli/001055_2014-06-08_18-45-35_260595134347_rgbf000111-resize_4/001055_2014-06-08_18-45-35_260595134347_rgbf000111-resize_4-target.png,1000,2.4290000000000003,3,4801,992,feet,jsons/v1_VE1000_randls_66_rotated.json,1511241,1754314,30,Woman
21,205661,DepthScenes,duration_manipulation_targetAtFixation,jsons/v1_VE1000_randls_66_rotated.json,http://54.235.29.9/FacialAge/BNav_EC2/DepthDuration/v2_depth_duration_MTurk/v2_DepthDuration_HTML.html#77,77,1364,768,1364,768,8-22-2022,8-31-39,22,depth_duration_stimuli/002344_2014-06-28_20-06-29_260595134347_rgbf000030-resize_1/002344_2014-06-28_20-06-29_260595134347_rgbf000030-resize_1-target.png,1000,1.5795,2,8932,992,feet,jsons/v1_VE1000_randls_66_rotated.json,1511241,1754314,30,Woman
22,205661,DepthScenes,duration_manipulation_targetAtFixation,jsons/v1_VE1000_randls_66_rotated.json,http://54.235.29.9/FacialAge/BNav_EC2/DepthDuration/v2_depth_duration_MTurk/v2_DepthDuration_HTML.html#77,77,1364,768,1364,768,8-22-2022,8-31-39,23,depth_duration_stimuli/002725_2014-06-22_11-47-51_094959634447_rgbf000070-resize_1/002725_2014-06-22_11-47-51_094959634447_rgbf000070-resize_1-target.png,1000,2.195,3,9226,1000,feet,jsons/v1_VE1000_randls_66_rotated.json,1511241,1754314,30,Woman
23,205661,DepthScenes,duration_manipulation_targetAtFixation,jsons/v1_VE1000_randls_66_rotated.json,http://54.235.29.9/FacialAge/BNav_EC2/DepthDuration/v2_depth_duration_MTurk/v2_DepthDuration_HTML.html#77,77,1364,768,1364,768,8-22-2022,8-31-39,24,depth_duration_stimuli/002953_2014-06-08_17-32-18_094959634447_rgbf000059-resize_5/002953_2014-06-08_17-32-18_094959634447_rgbf000059-resize_5-target.png,1000,1.551,1,8349,1005,feet,jsons/v1_VE1000_randls_66_rotated.json,1511241,1754314,30,Woman
24,205661,DepthScenes,duration_manipulation_targetAtFixation,jsons/v1_VE1000_randls_66_rotated.json,http://54.235.29.9/FacialAge/BNav_EC2/DepthDuration/v2_depth_duration_MTurk/v2_DepthDuration_HTML.html#77,77,1364,768,1364,768,8-22-2022,8-31-39,25,depth_duration_stimuli/000878_2014-06-08_22-52-45_260595134347_rgbf000045-resize_2/000878_2014-06-08_22-52-45_260595134347_rgbf000045-resize_2-target.png,1000,2.092,3,10456,1001,feet,jsons/v1_VE1000_randls_66_rotated.json,1511241,1754314,30,Woman
25,205661,DepthScenes,duration_manipulation_targetAtFixation,jsons/v1_VE1000_randls_66_rotated.json,http://54.235.29.9/FacialAge/BNav_EC2/DepthDuration/v2_depth_duration_MTurk/v2_DepthDuration_HTML.html#77,77,1364,768,1364,768,8-22-2022,8-31-39,26,depth_duration_stimuli/001392_2014-06-19_16-07-59_260595134347_rgbf000046-resize_1/001392_2014-06-19_16-07-59_260595134347_rgbf000046-resize_1-target.png,1000,4.135,5,6381,990,feet,jsons/v1_VE1000_randls_66_rotated.json,1511241,1754314,30,Woman
26,205661,DepthScenes,duration_manipulation_targetAtFixation,jsons/v1_VE1000_randls_66_rotated.json,http://54.235.29.9/FacialAge/BNav_EC2/DepthDuration/v2_depth_duration_MTurk/v2_DepthDuration_HTML.html#77,77,1364,768,1364,768,8-22-2022,8-31-39,27,depth_duration_stimuli/001570_2014-06-20_17-21-09_260595134347_rgbf000135-resize_4/001570_2014-06-20_17-21-09_260595134347_rgbf000135-resize_4-target.png,1000,4.467,6,4666,1009,feet,jsons/v1_VE1000_randls_66_rotated.json,1511241,1754314,30,Woman
27,205661,DepthScenes,duration_manipulation_targetAtFixation,jsons/v1_VE1000_randls_66_rotated.json,http://54.235.29.9/FacialAge/BNav_EC2/DepthDuration/v2_depth_duration_MTurk/v2_DepthDuration_HTML.html#77,77,1364,768,1364,768,8-22-2022,8-31-39,28,depth_duration_stimuli/000927_2014-06-09_16-32-30_260595134347_rgbf000123-resize_3/000927_2014-06-09_16-32-30_260595134347_rgbf000123-resize_3-target.png,1000,2.6785,7,6744,986,feet,jsons/v1_VE1000_randls_66_rotated.json,1511241,1754314,30,Woman
28,205661,DepthScenes,duration_manipulation_targetAtFixation,jsons/v1_VE1000_randls_66_rotated.json,http://54.235.29.9/FacialAge/BNav_EC2/DepthDuration/v2_depth_duration_MTurk/v2_DepthDuration_HTML.html#77,77,1364,768,1364,768,8-22-2022,8-31-39,29,depth_duration_stimuli/001110_2014-06-15_17-25-28_260595134347_rgbf000150-resize_1/001110_2014-06-15_17-25-28_260595134347_rgbf000150-resize_1-target.png,1000,1.7115,5,4153,997,feet,jsons/v1_VE1000_randls_66_rotated.json,1511241,1754314,30,Woman
29,205661,DepthScenes,duration_manipulation_targetAtFixation,jsons/v1_VE1000_randls_66_rotated.json,http://54.235.29.9/FacialAge/BNav_EC2/DepthDuration/v2_depth_duration_MTurk/v2_DepthDuration_HTML.html#77,77,1364,768,1364,768,8-22-2022,8-31-39,30,depth_duration_stimuli/002072_2014-06-24_21-48-06_260595134347_rgbf000115-resize_0/002072_2014-06-24_21-48-06_260595134347_rgbf000115-resize-original.jpg,1000,4.702,0,5847,983,feet,jsons/v1_VE1000_randls_66_rotated.json,1511241,1754314,30,Woman
30,205661,DepthScenes,duration_manipulation_targetAtFixation,jsons/v1_VE1000_randls_66_rotated.json,http://54.235.29.9/FacialAge/BNav_EC2/DepthDuration/v2_depth_duration_MTurk/v2_DepthDuration_HTML.html#77,77,1364,768,1364,768,8-22-2022,8-31-39,31,depth_duration_stimuli/003495_2014-05-21_16-01-51_094959634447_rgbf000100-resize_3/003495_2014-05-21_16-01-51_094959634447_rgbf000100-resize_3-target.png,1000,1.6255,2,8466,1001,feet,jsons/v1_VE1000_randls_66_rotated.json,1511241,1754314,30,Woman
31,205661,DepthScenes,duration_manipulation_targetAtFixation,jsons/v1_VE1000_randls_66_rotated.json,http://54.235.29.9/FacialAge/BNav_EC2/DepthDuration/v2_depth_duration_MTurk/v2_DepthDuration_HTML.html#77,77,1364,768,1364,768,8-22-2022,8-31-39,32,depth_duration_stimuli/001244_2014-06-17_16-47-45_260595134347_rgbf000030-resize_4/001244_2014-06-17_16-47-45_260595134347_rgbf000030-resize_4-target.png,1000,2.0425,2,6379,987,feet,jsons/v1_VE1000_randls_66_rotated.json,1511241,1754314,30,Woman
32,205661,DepthScenes,duration_manipulation_targetAtFixation,jsons/v1_VE1000_randls_66_rotated.json,http://54.235.29.9/FacialAge/BNav_EC2/DepthDuration/v2_depth_duration_MTurk/v2_DepthDuration_HTML.html#77,77,1364,768,1364,768,8-22-2022,8-31-39,33,depth_duration_stimuli/002660_2014-06-13_15-44-18_094959634447_rgbf001878-resize_2/002660_2014-06-13_15-44-18_094959634447_rgbf001878-resize_2-target.png,1000,3.576,2,6935,996,feet,jsons/v1_VE1000_randls_66_rotated.json,1511241,1754314,30,Woman
33,205661,DepthScenes,duration_manipulation_targetAtFixation,jsons/v1_VE1000_randls_66_rotated.json,http://54.235.29.9/FacialAge/BNav_EC2/DepthDuration/v2_depth_duration_MTurk/v2_DepthDuration_HTML.html#77,77,1364,768,1364,768,8-22-2022,8-31-39,34,depth_duration_stimuli/002153_2014-06-25_21-27-18_260595134347_rgbf000038-resize_5/002153_2014-06-25_21-27-18_260595134347_rgbf000038-resize_5-target.png,1000,2.505,3,4026,1009,feet,jsons/v1_VE1000_randls_66_rotated.json,1511241,1754314,30,Woman
34,205661,DepthScenes,duration_manipulation_targetAtFixation,jsons/v1_VE1000_randls_66_rotated.json,http://54.235.29.9/FacialAge/BNav_EC2/DepthDuration/v2_depth_duration_MTurk/v2_DepthDuration_HTML.html#77,77,1364,768,1364,768,8-22-2022,8-31-39,35,depth_duration_stimuli/000866_2014-06-09_20-45-42_260595134347_rgbf000139-resize_1/000866_2014-06-09_20-45-42_260595134347_rgbf000139-resize_1-target.png,1000,3.2155,4,7454,989,feet,jsons/v1_VE1000_randls_66_rotated.json,1511241,1754314,30,Woman
35,205661,DepthScenes,duration_manipulation_targetAtFixation,jsons/v1_VE1000_randls_66_rotated.json,http://54.235.29.9/FacialAge/BNav_EC2/DepthDuration/v2_depth_duration_MTurk/v2_DepthDuration_HTML.html#77,77,1364,768,1364,768,8-22-2022,8-31-39,36,depth_duration_stimuli/002989_2014-06-15_12-25-03_094959634447_rgbf000150-resize_3/002989_2014-06-15_12-25-03_094959634447_rgbf000150-resize_3-target.png,1000,4.1975,6,4556,1000,feet,jsons/v1_VE1000_randls_66_rotated.json,1511241,1754314,30,Woman
36,205661,DepthScenes,duration_manipulation_targetAtFixation,jsons/v1_VE1000_randls_66_rotated.json,http://54.235.29.9/FacialAge/BNav_EC2/DepthDuration/v2_depth_duration_MTurk/v2_DepthDuration_HTML.html#77,77,1364,768,1364,768,8-22-2022,8-31-39,37,depth_duration_stimuli/002639_2014-06-24_14-51-37_094959634447_rgbf000074-resize_4/002639_2014-06-24_14-51-37_094959634447_rgbf000074-resize_4-target.png,1000,4.0375,4,5968,999,feet,jsons/v1_VE1000_randls_66_rotated.json,1511241,1754314,30,Woman
37,205661,DepthScenes,duration_manipulation_targetAtFixation,jsons/v1_VE1000_randls_66_rotated.json,http://54.235.29.9/FacialAge/BNav_EC2/DepthDuration/v2_depth_duration_MTurk/v2_DepthDuration_HTML.html#77,77,1364,768,1364,768,8-22-2022,8-31-39,38,depth_duration_stimuli/003292_2014-05-14_21-53-49_094959634447_rgbf000100-resize_2/003292_2014-05-14_21-53-49_094959634447_rgbf000100-resize_2-target.png,1000,3.4815,4,4410,987,feet,jsons/v1_VE1000_randls_66_rotated.json,1511241,1754314,30,Woman
38,205661,DepthScenes,duration_manipulation_targetAtFixation,jsons/v1_VE1000_randls_66_rotated.json,http://54.235.29.9/FacialAge/BNav_EC2/DepthDuration/v2_depth_duration_MTurk/v2_DepthDuration_HTML.html#77,77,1364,768,1364,768,8-22-2022,8-31-39,39,depth_duration_stimuli/001650_2014-06-20_12-09-00_260595134347_rgbf000087-resize_3/001650_2014-06-20_12-09-00_260595134347_rgbf000087-resize_3-target.png,1000,1.9505,1,10254,1146,feet,jsons/v1_VE1000_randls_66_rotated.json,1511241,1754314,30,Woman
39,205661,DepthScenes,duration_manipulation_targetAtFixation,jsons/v1_VE1000_randls_66_rotated.json,http://54.235.29.9/FacialAge/BNav_EC2/DepthDuration/v2_depth_duration_MTurk/v2_DepthDuration_HTML.html#77,77,1364,768,1364,768,8-22-2022,8-31-39,40,depth_duration_stimuli/000682_2014-06-08_23-14-58_260595134347_rgbf000041-resize_5/000682_2014-06-08_23-14-58_260595134347_rgbf000041-resize_5-target.png,1000,2.7239999999999998,3,5606,1016,feet,jsons/v1_VE1000_randls_66_rotated.json,1511241,1754314,30,Woman
40,205661,DepthScenes,duration_manipulation_targetAtFixation,jsons/v1_VE1000_randls_66_rotated.json,http://54.235.29.9/FacialAge/BNav_EC2/DepthDuration/v2_depth_duration_MTurk/v2_DepthDuration_HTML.html#77,77,1364,768,1364,768,8-22-2022,8-31-39,41,depth_duration_stimuli/000409_2014-06-04_19-23-33_260595134347_rgbf000067-resize_0/000409_2014-06-04_19-23-33_260595134347_rgbf000067-resize_0-target.png,1000,3.7335,3,10416,1015,feet,jsons/v1_VE1000_randls_66_rotated.json,1511241,1754314,30,Woman
41,205661,DepthScenes,duration_manipulation_targetAtFixation,jsons/v1_VE1000_randls_66_rotated.json,http://54.235.29.9/FacialAge/BNav_EC2/DepthDuration/v2_depth_duration_MTurk/v2_DepthDuration_HTML.html#77,77,1364,768,1364,768,8-22-2022,8-31-39,42,depth_duration_stimuli/002663_2014-06-13_15-50-26_094959634447_rgbf000075-resize_1/002663_2014-06-13_15-50-26_094959634447_rgbf000075-resize_1-target.png,1000,4.7495,4,5643,999,feet,jsons/v1_VE1000_randls_66_rotated.json,1511241,1754314,30,Woman
42,205661,DepthScenes,duration_manipulation_targetAtFixation,jsons/v1_VE1000_randls_66_rotated.json,http://54.235.29.9/FacialAge/BNav_EC2/DepthDuration/v2_depth_duration_MTurk/v2_DepthDuration_HTML.html#77,77,1364,768,1364,768,8-22-2022,8-31-39,43,depth_duration_stimuli/003129_2014-05-12_10-48-10_094959634447_rgbf000100-resize_0/003129_2014-05-12_10-48-10_094959634447_rgbf000100-resize_0-target.png,1000,4.9305,5,6354,1069,feet,jsons/v1_VE1000_randls_66_rotated.json,1511241,1754314,30,Woman
43,205661,DepthScenes,duration_manipulation_targetAtFixation,jsons/v1_VE1000_randls_66_rotated.json,http://54.235.29.9/FacialAge/BNav_EC2/DepthDuration/v2_depth_duration_MTurk/v2_DepthDuration_HTML.html#77,77,1364,768,1364,768,8-22-2022,8-31-39,44,depth_duration_stimuli/000414_2014-06-04_19-49-13_260595134347_rgbf000044-resize_0/000414_2014-06-04_19-49-13_260595134347_rgbf000044-resize_0-target.png,1000,4.329,5,4608,1000,feet,jsons/v1_VE1000_randls_66_rotated.json,1511241,1754314,30,Woman
44,205661,DepthScenes,duration_manipulation_targetAtFixation,jsons/v1_VE1000_randls_66_rotated.json,http://54.235.29.9/FacialAge/BNav_EC2/DepthDuration/v2_depth_duration_MTurk/v2_DepthDuration_HTML.html#77,77,1364,768,1364,768,8-22-2022,8-31-39,45,depth_duration_stimuli/001617_2014-06-20_11-35-32_260595134347_rgbf000066-resize_1/001617_2014-06-20_11-35-32_260595134347_rgbf000066-resize_1-target.png,1000,3.7910000000000004,5,8652,1020,feet,jsons/v1_VE1000_randls_66_rotated.json,1511241,1754314,30,Woman
45,205661,DepthScenes,duration_manipulation_targetAtFixation,jsons/v1_VE1000_randls_66_rotated.json,http://54.235.29.9/FacialAge/BNav_EC2/DepthDuration/v2_depth_duration_MTurk/v2_DepthDuration_HTML.html#77,77,1364,768,1364,768,8-22-2022,8-31-39,46,depth_duration_stimuli/001806_2014-06-26_20-50-20_260595134347_rgbf000091-resize_1/001806_2014-06-26_20-50-20_260595134347_rgbf000091-resize_1-target.png,1000,2.7305,4,5041,1016,feet,jsons/v1_VE1000_randls_66_rotated.json,1511241,1754314,30,Woman
46,205661,DepthScenes,duration_manipulation_targetAtFixation,jsons/v1_VE1000_randls_66_rotated.json,http://54.235.29.9/FacialAge/BNav_EC2/DepthDuration/v2_depth_duration_MTurk/v2_DepthDuration_HTML.html#77,77,1364,768,1364,768,8-22-2022,8-31-39,47,depth_duration_stimuli/000677_2014-06-08_23-10-32_260595134347_rgbf000158-resize_6/000677_2014-06-08_23-10-32_260595134347_rgbf000158-resize_6-target.png,1000,3.556,4,16401,1022,feet,jsons/v1_VE1000_randls_66_rotated.json,1511241,1754314,30,Woman
47,205661,DepthScenes,duration_manipulation_targetAtFixation,jsons/v1_VE1000_randls_66_rotated.json,http://54.235.29.9/FacialAge/BNav_EC2/DepthDuration/v2_depth_duration_MTurk/v2_DepthDuration_HTML.html#77,77,1364,768,1364,768,8-22-2022,8-31-39,48,depth_duration_stimuli/001029_2014-06-08_13-17-57_260595134347_rgbf000065-resize_1/001029_2014-06-08_13-17-57_260595134347_rgbf000065-resize_1-target.png,1000,3.0835,4,6839,997,feet,jsons/v1_VE1000_randls_66_rotated.json,1511241,1754314,30,Woman
48,205661,DepthScenes,duration_manipulation_targetAtFixation,jsons/v1_VE1000_randls_66_rotated.json,http://54.235.29.9/FacialAge/BNav_EC2/DepthDuration/v2_depth_duration_MTurk/v2_DepthDuration_HTML.html#77,77,1364,768,1364,768,8-22-2022,8-31-39,49,depth_duration_stimuli/001170_2014-06-17_15-43-44_260595134347_rgbf000096-resize_6/001170_2014-06-17_15-43-44_260595134347_rgbf000096-resize-original.jpg,1000,1.1909999999999998,0,10546,990,feet,jsons/v1_VE1000_randls_66_rotated.json,1511241,1754314,30,Woman
49,205661,DepthScenes,duration_manipulation_targetAtFixation,jsons/v1_VE1000_randls_66_rotated.json,http://54.235.29.9/FacialAge/BNav_EC2/DepthDuration/v2_depth_duration_MTurk/v2_DepthDuration_HTML.html#77,77,1364,768,1364,768,8-22-2022,8-31-39,50,depth_duration_stimuli/002657_2014-06-13_15-29-54_094959634447_rgbf000150-resize_1/002657_2014-06-13_15-29-54_094959634447_rgbf000150-resize_1-target.png,1000,4.919,4,11232,1003,feet,jsons/v1_VE1000_randls_66_rotated.json,1511241,1754314,30,Woman
50,205661,DepthScenes,duration_manipulation_targetAtFixation,jsons/v1_VE1000_randls_66_rotated.json,http://54.235.29.9/FacialAge/BNav_EC2/DepthDuration/v2_depth_duration_MTurk/v2_DepthDuration_HTML.html#77,77,1364,768,1364,768,8-22-2022,8-31-39,51,depth_duration_stimuli/002375_2014-06-28_20-13-44_260595134347_rgbf000032-resize_1/002375_2014-06-28_20-13-44_260595134347_rgbf000032-resize_1-target.png,1000,4.0175,5,8881,1016,feet,jsons/v1_VE1000_randls_66_rotated.json,1511241,1754314,30,Woman
51,205661,DepthScenes,duration_manipulation_targetAtFixation,jsons/v1_VE1000_randls_66_rotated.json,http://54.235.29.9/FacialAge/BNav_EC2/DepthDuration/v2_depth_duration_MTurk/v2_DepthDuration_HTML.html#77,77,1364,768,1364,768,8-22-2022,8-31-39,52,depth_duration_stimuli/000709_2014-06-08_13-51-55_260595134347_rgbf000068-resize_3/000709_2014-06-08_13-51-55_260595134347_rgbf000068-resize_3-target.png,1000,1.8030000000000002,3,8935,1001,feet,jsons/v1_VE1000_randls_66_rotated.json,1511241,1754314,30,Woman
52,205661,DepthScenes,duration_manipulation_targetAtFixation,jsons/v1_VE1000_randls_66_rotated.json,http://54.235.29.9/FacialAge/BNav_EC2/DepthDuration/v2_depth_duration_MTurk/v2_DepthDuration_HTML.html#77,77,1364,768,1364,768,8-22-2022,8-31-39,53,depth_duration_stimuli/002057_2014-06-24_21-00-13_260595134347_rgbf000120-resize_1/002057_2014-06-24_21-00-13_260595134347_rgbf000120-resize_1-target.png,1000,2.967,5,4489,999,feet,jsons/v1_VE1000_randls_66_rotated.json,1511241,1754314,30,Woman
53,205661,DepthScenes,duration_manipulation_targetAtFixation,jsons/v1_VE1000_randls_66_rotated.json,http://54.235.29.9/FacialAge/BNav_EC2/DepthDuration/v2_depth_duration_MTurk/v2_DepthDuration_HTML.html#77,77,1364,768,1364,768,8-22-2022,8-31-39,54,depth_duration_stimuli/001235_2014-06-17_16-37-36_260595134347_rgbf000084-resize_4/001235_2014-06-17_16-37-36_260595134347_rgbf000084-resize_4-target.png,1000,3.6605,3,10300,1010,feet,jsons/v1_VE1000_randls_66_rotated.json,1511241,1754314,30,Woman
54,205661,DepthScenes,duration_manipulation_targetAtFixation,jsons/v1_VE1000_randls_66_rotated.json,http://54.235.29.9/FacialAge/BNav_EC2/DepthDuration/v2_depth_duration_MTurk/v2_DepthDuration_HTML.html#77,77,1364,768,1364,768,8-22-2022,8-31-39,55,depth_duration_stimuli/000788_2014-06-08_22-34-36_260595134347_rgbf000131-resize_1/000788_2014-06-08_22-34-36_260595134347_rgbf000131-resize_1-target.png,1000,3.359,4,7566,1000,feet,jsons/v1_VE1000_randls_66_rotated.json,1511241,1754314,30,Woman
55,205661,DepthScenes,duration_manipulation_targetAtFixation,jsons/v1_VE1000_randls_66_rotated.json,http://54.235.29.9/FacialAge/BNav_EC2/DepthDuration/v2_depth_duration_MTurk/v2_DepthDuration_HTML.html#77,77,1364,768,1364,768,8-22-2022,8-31-39,56,depth_duration_stimuli/001516_2014-06-20_16-25-09_260595134347_rgbf000076-resize_2/001516_2014-06-20_16-25-09_260595134347_rgbf000076-resize_2-target.png,1000,1.7445,2,8002,1001,feet,jsons/v1_VE1000_randls_66_rotated.json,1511241,1754314,30,Woman
56,205661,DepthScenes,duration_manipulation_targetAtFixation,jsons/v1_VE1000_randls_66_rotated.json,http://54.235.29.9/FacialAge/BNav_EC2/DepthDuration/v2_depth_duration_MTurk/v2_DepthDuration_HTML.html#77,77,1364,768,1364,768,8-22-2022,8-31-39,57,depth_duration_stimuli/002118_2014-06-25_20-32-08_260595134347_rgbf000078-resize_1/002118_2014-06-25_20-32-08_260595134347_rgbf000078-resize_1-target.png,1000,2.6460000000000004,3,6375,998,feet,jsons/v1_VE1000_randls_66_rotated.json,1511241,1754314,30,Woman
57,205661,DepthScenes,duration_manipulation_targetAtFixation,jsons/v1_VE1000_randls_66_rotated.json,http://54.235.29.9/FacialAge/BNav_EC2/DepthDuration/v2_depth_duration_MTurk/v2_DepthDuration_HTML.html#77,77,1364,768,1364,768,8-22-2022,8-31-39,58,depth_duration_stimuli/000109_2014-05-14_23-41-52_260595134347_rgbf000035-resize_9/000109_2014-05-14_23-41-52_260595134347_rgbf000035-resize_9-target.png,1000,1.3545,1,10011,1025,feet,jsons/v1_VE1000_randls_66_rotated.json,1511241,1754314,30,Woman
58,205661,DepthScenes,duration_manipulation_targetAtFixation,jsons/v1_VE1000_randls_66_rotated.json,http://54.235.29.9/FacialAge/BNav_EC2/DepthDuration/v2_depth_duration_MTurk/v2_DepthDuration_HTML.html#77,77,1364,768,1364,768,8-22-2022,8-31-39,59,depth_duration_stimuli/000470_2014-06-09_19-42-40_260595134347_rgbf000094-resize_1/000470_2014-06-09_19-42-40_260595134347_rgbf000094-resize_1-target.png,1000,1.831,1,9244,1003,feet,jsons/v1_VE1000_randls_66_rotated.json,1511241,1754314,30,Woman
59,205661,DepthScenes,duration_manipulation_targetAtFixation,jsons/v1_VE1000_randls_66_rotated.json,http://54.235.29.9/FacialAge/BNav_EC2/DepthDuration/v2_depth_duration_MTurk/v2_DepthDuration_HTML.html#77,77,1364,768,1364,768,8-22-2022,8-31-39,60,depth_duration_stimuli/003081_2014-06-15_15-19-16_094959634447_rgbf000150-resize_1/003081_2014-06-15_15-19-16_094959634447_rgbf000150-resize_1-target.png,1000,3.9125,4,7213,1159,feet,jsons/v1_VE1000_randls_66_rotated.json,1511241,1754314,30,Woman
60,205661,DepthScenes,duration_manipulation_targetAtFixation,jsons/v1_VE1000_randls_66_rotated.json,http://54.235.29.9/FacialAge/BNav_EC2/DepthDuration/v2_depth_duration_MTurk/v2_DepthDuration_HTML.html#77,77,1364,768,1364,768,8-22-2022,8-31-39,61,depth_duration_stimuli/001417_2014-06-19_16-25-36_260595134347_rgbf000115-resize_5/001417_2014-06-19_16-25-36_260595134347_rgbf000115-resize_5-target.png,1000,4.6255,5,4905,1024,feet,jsons/v1_VE1000_randls_66_rotated.json,1511241,1754314,30,Woman
61,205661,DepthScenes,duration_manipulation_targetAtFixation,jsons/v1_VE1000_randls_66_rotated.json,http://54.235.29.9/FacialAge/BNav_EC2/DepthDuration/v2_depth_duration_MTurk/v2_DepthDuration_HTML.html#77,77,1364,768,1364,768,8-22-2022,8-31-39,62,depth_duration_stimuli/003079_2014-06-15_15-18-20_094959634447_rgbf000152-resize_8/003079_2014-06-15_15-18-20_094959634447_rgbf000152-resize_8-target.png,1000,2.8775,4,15899,988,feet,jsons/v1_VE1000_randls_66_rotated.json,1511241,1754314,30,Woman
62,205661,DepthScenes,duration_manipulation_targetAtFixation,jsons/v1_VE1000_randls_66_rotated.json,http://54.235.29.9/FacialAge/BNav_EC2/DepthDuration/v2_depth_duration_MTurk/v2_DepthDuration_HTML.html#77,77,1364,768,1364,768,8-22-2022,8-31-39,63,depth_duration_stimuli/000506_2014-06-08_23-21-00_260595134347_rgbf000070-resize_7/000506_2014-06-08_23-21-00_260595134347_rgbf000070-resize_7-target.png,1000,4.0585,5,5108,1006,feet,jsons/v1_VE1000_randls_66_rotated.json,1511241,1754314,30,Woman
63,205661,DepthScenes,duration_manipulation_targetAtFixation,jsons/v1_VE1000_randls_66_rotated.json,http://54.235.29.9/FacialAge/BNav_EC2/DepthDuration/v2_depth_duration_MTurk/v2_DepthDuration_HTML.html#77,77,1364,768,1364,768,8-22-2022,8-31-39,64,depth_duration_stimuli/000854_2014-06-09_19-43-13_260595134347_rgbf000066-resize_0/000854_2014-06-09_19-43-13_260595134347_rgbf000066-resize_0-target.png,1000,3.068,3,14308,982,feet,jsons/v1_VE1000_randls_66_rotated.json,1511241,1754314,30,Woman
64,205661,DepthScenes,duration_manipulation_targetAtFixation,jsons/v1_VE1000_randls_66_rotated.json,http://54.235.29.9/FacialAge/BNav_EC2/DepthDuration/v2_depth_duration_MTurk/v2_DepthDuration_HTML.html#77,77,1364,768,1364,768,8-22-2022,8-31-39,65,depth_duration_stimuli/000758_2014-06-08_22-05-08_260595134347_rgbf000085-resize_0/000758_2014-06-08_22-05-08_260595134347_rgbf000085-resize_0-target.png,1000,3.3810000000000002,4,10206,988,feet,jsons/v1_VE1000_randls_66_rotated.json,1511241,1754314,30,Woman
65,205661,DepthScenes,duration_manipulation_targetAtFixation,jsons/v1_VE1000_randls_66_rotated.json,http://54.235.29.9/FacialAge/BNav_EC2/DepthDuration/v2_depth_duration_MTurk/v2_DepthDuration_HTML.html#77,77,1364,768,1364,768,8-22-2022,8-31-39,66,depth_duration_stimuli/001540_2014-06-20_17-01-05_260595134347_rgbf000086-resize_2/001540_2014-06-20_17-01-05_260595134347_rgbf000086-resize-original.jpg,1000,1.459,0,9828,1009,feet,jsons/v1_VE1000_randls_66_rotated.json,1511241,1754314,30,Woman
66,205661,DepthScenes,duration_manipulation_targetAtFixation,jsons/v1_VE1000_randls_66_rotated.json,http://54.235.29.9/FacialAge/BNav_EC2/DepthDuration/v2_depth_duration_MTurk/v2_DepthDuration_HTML.html#77,77,1364,768,1364,768,8-22-2022,8-31-39,67,depth_duration_stimuli/003338_2014-05-20_11-01-23_094959634447_rgbf000051-resize_6/003338_2014-05-20_11-01-23_094959634447_rgbf000051-resize_6-target.png,1000,1.693,2,8486,1015,feet,jsons/v1_VE1000_randls_66_rotated.json,1511241,1754314,30,Woman
67,205661,DepthScenes,duration_manipulation_targetAtFixation,jsons/v1_VE1000_randls_66_rotated.json,http://54.235.29.9/FacialAge/BNav_EC2/DepthDuration/v2_depth_duration_MTurk/v2_DepthDuration_HTML.html#77,77,1364,768,1364,768,8-22-2022,8-31-39,68,depth_duration_stimuli/002509_2014-06-24_13-19-22_094959634447_rgbf000077-resize_0/002509_2014-06-24_13-19-22_094959634447_rgbf000077-resize_0-target.png,1000,1.3065,2,4880,991,feet,jsons/v1_VE1000_randls_66_rotated.json,1511241,1754314,30,Woman
68,205661,DepthScenes,duration_manipulation_targetAtFixation,jsons/v1_VE1000_randls_66_rotated.json,http://54.235.29.9/FacialAge/BNav_EC2/DepthDuration/v2_depth_duration_MTurk/v2_DepthDuration_HTML.html#77,77,1364,768,1364,768,8-22-2022,8-31-39,69,depth_duration_stimuli/001815_2014-06-26_20-52-55_260595134347_rgbf000020-resize_0/001815_2014-06-26_20-52-55_260595134347_rgbf000020-resize_0-target.png,1000,3.3865,3,6528,1001,feet,jsons/v1_VE1000_randls_66_rotated.json,1511241,1754314,30,Woman
69,205661,DepthScenes,duration_manipulation_targetAtFixation,jsons/v1_VE1000_randls_66_rotated.json,http://54.235.29.9/FacialAge/BNav_EC2/DepthDuration/v2_depth_duration_MTurk/v2_DepthDuration_HTML.html#77,77,1364,768,1364,768,8-22-2022,8-31-39,70,depth_duration_stimuli/001808_2014-06-26_20-50-58_260595134347_rgbf000029-resize_1/001808_2014-06-26_20-50-58_260595134347_rgbf000029-resize_1-target.png,1000,4.249,7,5367,1011,feet,jsons/v1_VE1000_randls_66_rotated.json,1511241,1754314,30,Woman
70,205661,DepthScenes,duration_manipulation_targetAtFixation,jsons/v1_VE1000_randls_66_rotated.json,http://54.235.29.9/FacialAge/BNav_EC2/DepthDuration/v2_depth_duration_MTurk/v2_DepthDuration_HTML.html#77,77,1364,768,1364,768,8-22-2022,8-31-39,71,depth_duration_stimuli/000665_2014-06-09_20-42-35_260595134347_rgbf000110-resize_1/000665_2014-06-09_20-42-35_260595134347_rgbf000110-resize_1-target.png,1000,3.057,4,5708,1013,feet,jsons/v1_VE1000_randls_66_rotated.json,1511241,1754314,30,Woman
71,205661,DepthScenes,duration_manipulation_targetAtFixation,jsons/v1_VE1000_randls_66_rotated.json,http://54.235.29.9/FacialAge/BNav_EC2/DepthDuration/v2_depth_duration_MTurk/v2_DepthDuration_HTML.html#77,77,1364,768,1364,768,8-22-2022,8-31-39,72,depth_duration_stimuli/001150_2014-06-17_15-27-34_260595134347_rgbf000108-resize_2/001150_2014-06-17_15-27-34_260595134347_rgbf000108-resize_2-target.png,1000,4.0325,5,8547,1000,feet,jsons/v1_VE1000_randls_66_rotated.json,1511241,1754314,30,Woman
72,205661,DepthScenes,duration_manipulation_targetAtFixation,jsons/v1_VE1000_randls_66_rotated.json,http://54.235.29.9/FacialAge/BNav_EC2/DepthDuration/v2_depth_duration_MTurk/v2_DepthDuration_HTML.html#77,77,1364,768,1364,768,8-22-2022,8-31-39,73,depth_duration_stimuli/002323_2014-06-28_20-01-54_260595134347_rgbf000051-resize_4/002323_2014-06-28_20-01-54_260595134347_rgbf000051-resize_4-target.png,1000,3.7310000000000003,5,6480,1000,feet,jsons/v1_VE1000_randls_66_rotated.json,1511241,1754314,30,Woman
73,205661,DepthScenes,duration_manipulation_targetAtFixation,jsons/v1_VE1000_randls_66_rotated.json,http://54.235.29.9/FacialAge/BNav_EC2/DepthDuration/v2_depth_duration_MTurk/v2_DepthDuration_HTML.html#77,77,1364,768,1364,768,8-22-2022,8-31-39,74,depth_duration_stimuli/000917_2014-06-09_22-45-29_260595134347_rgbf000149-resize_3/000917_2014-06-09_22-45-29_260595134347_rgbf000149-resize_3-target.png,1000,4.1865,6,4521,999,feet,jsons/v1_VE1000_randls_66_rotated.json,1511241,1754314,30,Woman
74,205661,DepthScenes,duration_manipulation_targetAtFixation,jsons/v1_VE1000_randls_66_rotated.json,http://54.235.29.9/FacialAge/BNav_EC2/DepthDuration/v2_depth_duration_MTurk/v2_DepthDuration_HTML.html#77,77,1364,768,1364,768,8-22-2022,8-31-39,75,depth_duration_stimuli/003423_2014-05-21_10-23-26_094959634447_rgbf002665-resize_2/003423_2014-05-21_10-23-26_094959634447_rgbf002665-resize_2-target.png,1000,3.2575,8,8127,999,feet,jsons/v1_VE1000_randls_66_rotated.json,1511241,1754314,30,Woman
75,205661,DepthScenes,duration_manipulation_targetAtFixation,jsons/v1_VE1000_randls_66_rotated.json,http://54.235.29.9/FacialAge/BNav_EC2/DepthDuration/v2_depth_duration_MTurk/v2_DepthDuration_HTML.html#77,77,1364,768,1364,768,8-22-2022,8-31-39,76,depth_duration_stimuli/002905_2014-06-03_18-04-43_094959634447_rgbf000151-resize_2/002905_2014-06-03_18-04-43_094959634447_rgbf000151-resize_2-target.png,1000,2.0295,2,5055,1002,feet,jsons/v1_VE1000_randls_66_rotated.json,1511241,1754314,30,Woman
76,205661,DepthScenes,duration_manipulation_targetAtFixation,jsons/v1_VE1000_randls_66_rotated.json,http://54.235.29.9/FacialAge/BNav_EC2/DepthDuration/v2_depth_duration_MTurk/v2_DepthDuration_HTML.html#77,77,1364,768,1364,768,8-22-2022,8-31-39,77,depth_duration_stimuli/002949_2014-06-26_15-57-42_094959634447_rgbf000079-resize_1/002949_2014-06-26_15-57-42_094959634447_rgbf000079-resize_1-target.png,1000,1.8915,2,8799,1007,feet,jsons/v1_VE1000_randls_66_rotated.json,1511241,1754314,30,Woman
77,205661,DepthScenes,duration_manipulation_targetAtFixation,jsons/v1_VE1000_randls_66_rotated.json,http://54.235.29.9/FacialAge/BNav_EC2/DepthDuration/v2_depth_duration_MTurk/v2_DepthDuration_HTML.html#77,77,1364,768,1364,768,8-22-2022,8-31-39,78,depth_duration_stimuli/000522_2014-06-08_13-35-06_260595134347_rgbf000244-resize_1/000522_2014-06-08_13-35-06_260595134347_rgbf000244-resize_1-target.png,1000,2.3715,1,5244,990,feet,jsons/v1_VE1000_randls_66_rotated.json,1511241,1754314,30,Woman
78,205661,DepthScenes,duration_manipulation_targetAtFixation,jsons/v1_VE1000_randls_66_rotated.json,http://54.235.29.9/FacialAge/BNav_EC2/DepthDuration/v2_depth_duration_MTurk/v2_DepthDuration_HTML.html#77,77,1364,768,1364,768,8-22-2022,8-31-39,79,depth_duration_stimuli/001052_2014-06-08_18-24-54_260595134347_rgbf000130-resize_1/001052_2014-06-08_18-24-54_260595134347_rgbf000130-resize_1-target.png,1000,4.1045,5,7643,1000,feet,jsons/v1_VE1000_randls_66_rotated.json,1511241,1754314,30,Woman
79,205661,DepthScenes,duration_manipulation_targetAtFixation,jsons/v1_VE1000_randls_66_rotated.json,http://54.235.29.9/FacialAge/BNav_EC2/DepthDuration/v2_depth_duration_MTurk/v2_DepthDuration_HTML.html#77,77,1364,768,1364,768,8-22-2022,8-31-39,80,depth_duration_stimuli/002988_2014-06-15_12-24-20_094959634447_rgbf000150-resize_1/002988_2014-06-15_12-24-20_094959634447_rgbf000150-resize_1-target.png,1000,4.7669999999999995,6,10415,1013,feet,jsons/v1_VE1000_randls_66_rotated.json,1511241,1754314,30,Woman
80,205661,DepthScenes,duration_manipulation_targetAtFixation,jsons/v1_VE1000_randls_66_rotated.json,http://54.235.29.9/FacialAge/BNav_EC2/DepthDuration/v2_depth_duration_MTurk/v2_DepthDuration_HTML.html#77,77,1364,768,1364,768,8-22-2022,8-31-39,81,depth_duration_stimuli/000191_2014-05-12_17-07-38_260595134347_rgbf000199-resize_0/000191_2014-05-12_17-07-38_260595134347_rgbf000199-resize_0-target.png,1000,3.7995,5,6413,988,feet,jsons/v1_VE1000_randls_66_rotated.json,1511241,1754314,30,Woman
81,205661,DepthScenes,duration_manipulation_targetAtFixation,jsons/v1_VE1000_randls_66_rotated.json,http://54.235.29.9/FacialAge/BNav_EC2/DepthDuration/v2_depth_duration_MTurk/v2_DepthDuration_HTML.html#77,77,1364,768,1364,768,8-22-2022,8-31-39,82,depth_duration_stimuli/000493_2014-06-09_21-01-18_260595134347_rgbf000196-resize_3/000493_2014-06-09_21-01-18_260595134347_rgbf000196-resize_3-target.png,1000,3.44,4,5968,1011,feet,jsons/v1_VE1000_randls_66_rotated.json,1511241,1754314,30,Woman
82,205661,DepthScenes,duration_manipulation_targetAtFixation,jsons/v1_VE1000_randls_66_rotated.json,http://54.235.29.9/FacialAge/BNav_EC2/DepthDuration/v2_depth_duration_MTurk/v2_DepthDuration_HTML.html#77,77,1364,768,1364,768,8-22-2022,8-31-39,83,depth_duration_stimuli/003587_2014-05-23_16-48-02_094959634447_rgbf002384-resize_2/003587_2014-05-23_16-48-02_094959634447_rgbf002384-resize_2-target.png,1000,1.357,1,5711,1000,feet,jsons/v1_VE1000_randls_66_rotated.json,1511241,1754314,30,Woman
83,205661,DepthScenes,duration_manipulation_targetAtFixation,jsons/v1_VE1000_randls_66_rotated.json,http://54.235.29.9/FacialAge/BNav_EC2/DepthDuration/v2_depth_duration_MTurk/v2_DepthDuration_HTML.html#77,77,1364,768,1364,768,8-22-2022,8-31-39,84,depth_duration_stimuli/001167_2014-06-17_15-38-07_260595134347_rgbf000108-resize_0/001167_2014-06-17_15-38-07_260595134347_rgbf000108-resize_0-target.png,1000,1.8505,1,6562,994,feet,jsons/v1_VE1000_randls_66_rotated.json,1511241,1754314,30,Woman
84,205661,DepthScenes,duration_manipulation_targetAtFixation,jsons/v1_VE1000_randls_66_rotated.json,http://54.235.29.9/FacialAge/BNav_EC2/DepthDuration/v2_depth_duration_MTurk/v2_DepthDuration_HTML.html#77,77,1364,768,1364,768,8-22-2022,8-31-39,85,depth_duration_stimuli/000103_2014-05-14_22-01-17_260595134347_rgbf000152-resize_5/000103_2014-05-14_22-01-17_260595134347_rgbf000152-resize_5-target.png,1000,1.993,2,6582,1012,feet,jsons/v1_VE1000_randls_66_rotated.json,1511241,1754314,30,Woman
85,205661,DepthScenes,duration_manipulation_targetAtFixation,jsons/v1_VE1000_randls_66_rotated.json,http://54.235.29.9/FacialAge/BNav_EC2/DepthDuration/v2_depth_duration_MTurk/v2_DepthDuration_HTML.html#77,77,1364,768,1364,768,8-22-2022,8-31-39,86,depth_duration_stimuli/001555_2014-06-20_17-12-10_260595134347_rgbf000065-resize_4/001555_2014-06-20_17-12-10_260595134347_rgbf000065-resize_4-target.png,1000,1.633,1,4712,1013,feet,jsons/v1_VE1000_randls_66_rotated.json,1511241,1754314,30,Woman
86,205661,DepthScenes,duration_manipulation_targetAtFixation,jsons/v1_VE1000_randls_66_rotated.json,http://54.235.29.9/FacialAge/BNav_EC2/DepthDuration/v2_depth_duration_MTurk/v2_DepthDuration_HTML.html#77,77,1364,768,1364,768,8-22-2022,8-31-39,87,depth_duration_stimuli/002414_2014-06-28_20-24-58_260595134347_rgbf000067-resize_4/002414_2014-06-28_20-24-58_260595134347_rgbf000067-resize_4-target.png,1000,4.363,3,10191,1018,feet,jsons/v1_VE1000_randls_66_rotated.json,1511241,1754314,30,Woman
87,205661,DepthScenes,duration_manipulation_targetAtFixation,jsons/v1_VE1000_randls_66_rotated.json,http://54.235.29.9/FacialAge/BNav_EC2/DepthDuration/v2_depth_duration_MTurk/v2_DepthDuration_HTML.html#77,77,1364,768,1364,768,8-22-2022,8-31-39,88,depth_duration_stimuli/000773_2014-06-08_22-24-54_260595134347_rgbf000093-resize_1/000773_2014-06-08_22-24-54_260595134347_rgbf000093-resize_1-target.png,1000,4.973,7,5707,1003,feet,jsons/v1_VE1000_randls_66_rotated.json,1511241,1754314,30,Woman
88,205661,DepthScenes,duration_manipulation_targetAtFixation,jsons/v1_VE1000_randls_66_rotated.json,http://54.235.29.9/FacialAge/BNav_EC2/DepthDuration/v2_depth_duration_MTurk/v2_DepthDuration_HTML.html#77,77,1364,768,1364,768,8-22-2022,8-31-39,89,depth_duration_stimuli/001132_2014-06-17_14-48-54_260595134347_rgbf000100-resize_2/001132_2014-06-17_14-48-54_260595134347_rgbf000100-resize_2-target.png,1000,3.753,8,6659,994,feet,jsons/v1_VE1000_randls_66_rotated.json,1511241,1754314,30,Woman
89,205661,DepthScenes,duration_manipulation_targetAtFixation,jsons/v1_VE1000_randls_66_rotated.json,http://54.235.29.9/FacialAge/BNav_EC2/DepthDuration/v2_depth_duration_MTurk/v2_DepthDuration_HTML.html#77,77,1364,768,1364,768,8-22-2022,8-31-39,90,depth_duration_stimuli/001133_2014-06-17_14-49-16_260595134347_rgbf000100-resize_0/001133_2014-06-17_14-49-16_260595134347_rgbf000100-resize_0-target.png,1000,4.2115,6,6904,997,feet,jsons/v1_VE1000_randls_66_rotated.json,1511241,1754314,30,Woman
90,205661,DepthScenes,duration_manipulation_targetAtFixation,jsons/v1_VE1000_randls_66_rotated.json,http://54.235.29.9/FacialAge/BNav_EC2/DepthDuration/v2_depth_duration_MTurk/v2_DepthDuration_HTML.html#77,77,1364,768,1364,768,8-22-2022,8-31-39,91,depth_duration_stimuli/002103_2014-06-25_20-00-40_260595134347_rgbf000049-resize_0/002103_2014-06-25_20-00-40_260595134347_rgbf000049-resize_0-target.png,1000,4.105,4,7079,996,feet,jsons/v1_VE1000_randls_66_rotated.json,1511241,1754314,30,Woman
91,205661,DepthScenes,duration_manipulation_targetAtFixation,jsons/v1_VE1000_randls_66_rotated.json,http://54.235.29.9/FacialAge/BNav_EC2/DepthDuration/v2_depth_duration_MTurk/v2_DepthDuration_HTML.html#77,77,1364,768,1364,768,8-22-2022,8-31-39,92,depth_duration_stimuli/002039_2014-06-24_20-22-38_260595134347_rgbf000084-resize_1/002039_2014-06-24_20-22-38_260595134347_rgbf000084-resize_1-target.png,1000,4.408,5,4542,1000,feet,jsons/v1_VE1000_randls_66_rotated.json,1511241,1754314,30,Woman
92,205661,DepthScenes,duration_manipulation_targetAtFixation,jsons/v1_VE1000_randls_66_rotated.json,http://54.235.29.9/FacialAge/BNav_EC2/DepthDuration/v2_depth_duration_MTurk/v2_DepthDuration_HTML.html#77,77,1364,768,1364,768,8-22-2022,8-31-39,93,depth_duration_stimuli/000780_2014-06-08_22-28-29_260595134347_rgbf000126-resize_1/000780_2014-06-08_22-28-29_260595134347_rgbf000126-resize_1-target.png,1000,3.3825,4,10526,999,feet,jsons/v1_VE1000_randls_66_rotated.json,1511241,1754314,30,Woman
93,205661,DepthScenes,duration_manipulation_targetAtFixation,jsons/v1_VE1000_randls_66_rotated.json,http://54.235.29.9/FacialAge/BNav_EC2/DepthDuration/v2_depth_duration_MTurk/v2_DepthDuration_HTML.html#77,77,1364,768,1364,768,8-22-2022,8-31-39,94,depth_duration_stimuli/002445_2014-06-28_20-32-16_260595134347_rgbf000029-resize_4/002445_2014-06-28_20-32-16_260595134347_rgbf000029-resize_4-target.png,1000,2.5315,3,5210,968,feet,jsons/v1_VE1000_randls_66_rotated.json,1511241,1754314,30,Woman
94,205661,DepthScenes,duration_manipulation_targetAtFixation,jsons/v1_VE1000_randls_66_rotated.json,http://54.235.29.9/FacialAge/BNav_EC2/DepthDuration/v2_depth_duration_MTurk/v2_DepthDuration_HTML.html#77,77,1364,768,1364,768,8-22-2022,8-31-39,95,depth_duration_stimuli/000742_2014-06-08_18-48-09_260595134347_rgbf000164-resize_4/000742_2014-06-08_18-48-09_260595134347_rgbf000164-resize_4-target.png,1000,4.632,5,9770,1000,feet,jsons/v1_VE1000_randls_66_rotated.json,1511241,1754314,30,Woman
95,205661,DepthScenes,duration_manipulation_targetAtFixation,jsons/v1_VE1000_randls_66_rotated.json,http://54.235.29.9/FacialAge/BNav_EC2/DepthDuration/v2_depth_duration_MTurk/v2_DepthDuration_HTML.html#77,77,1364,768,1364,768,8-22-2022,8-31-39,96,depth_duration_stimuli/001066_2014-06-08_22-03-20_260595134347_rgbf000066-resize_4/001066_2014-06-08_22-03-20_260595134347_rgbf000066-resize_4-target.png,1000,4.2330000000000005,5,16753,995,feet,jsons/v1_VE1000_randls_66_rotated.json,1511241,1754314,30,Woman
96,205661,DepthScenes,duration_manipulation_targetAtFixation,jsons/v1_VE1000_randls_66_rotated.json,http://54.235.29.9/FacialAge/BNav_EC2/DepthDuration/v2_depth_duration_MTurk/v2_DepthDuration_HTML.html#77,77,1364,768,1364,768,8-22-2022,8-31-39,97,depth_duration_stimuli/002875_2014-06-01_15-19-00_094959634447_rgbf000151-resize_1/002875_2014-06-01_15-19-00_094959634447_rgbf000151-resize_1-target.png,1000,1.9675,3,9684,1004,feet,jsons/v1_VE1000_randls_66_rotated.json,1511241,1754314,30,Woman
97,205661,DepthScenes,duration_manipulation_targetAtFixation,jsons/v1_VE1000_randls_66_rotated.json,http://54.235.29.9/FacialAge/BNav_EC2/DepthDuration/v2_depth_duration_MTurk/v2_DepthDuration_HTML.html#77,77,1364,768,1364,768,8-22-2022,8-31-39,98,depth_duration_stimuli/001011_2014-06-08_23-18-54_260595134347_rgbf000044-resize_4/001011_2014-06-08_23-18-54_260595134347_rgbf000044-resize_4-target.png,1000,2.4730000000000003,1,5336,1005,feet,jsons/v1_VE1000_randls_66_rotated.json,1511241,1754314,30,Woman
98,205661,DepthScenes,duration_manipulation_targetAtFixation,jsons/v1_VE1000_randls_66_rotated.json,http://54.235.29.9/FacialAge/BNav_EC2/DepthDuration/v2_depth_duration_MTurk/v2_DepthDuration_HTML.html#77,77,1364,768,1364,768,8-22-2022,8-31-39,99,depth_duration_stimuli/001222_2014-06-17_16-24-06_260595134347_rgbf000073-resize_0/001222_2014-06-17_16-24-06_260595134347_rgbf000073-resize-original.jpg,1000,1.4385,0,6510,1004,feet,jsons/v1_VE1000_randls_66_rotated.json,1511241,1754314,30,Woman
99,205661,DepthScenes,duration_manipulation_targetAtFixation,jsons/v1_VE1000_randls_66_rotated.json,http://54.235.29.9/FacialAge/BNav_EC2/DepthDuration/v2_depth_duration_MTurk/v2_DepthDuration_HTML.html#77,77,1364,768,1364,768,8-22-2022,8-31-39,100,depth_duration_stimuli/002136_2014-06-25_21-18-03_260595134347_rgbf000109-resize_3/002136_2014-06-25_21-18-03_260595134347_rgbf000109-resize_3-target.png,1000,1.9569999999999999,2,6770,995,feet,jsons/v1_VE1000_randls_66_rotated.json,1511241,1754314,30,Woman
100,205661,DepthScenes,duration_manipulation_targetAtFixation,jsons/v1_VE1000_randls_66_rotated.json,http://54.235.29.9/FacialAge/BNav_EC2/DepthDuration/v2_depth_duration_MTurk/v2_DepthDuration_HTML.html#77,77,1364,768,1364,768,8-22-2022,8-31-39,101,depth_duration_stimuli/002964_2014-06-08_17-46-11_094959634447_rgbf000091-resize_4/002964_2014-06-08_17-46-11_094959634447_rgbf000091-resize_4-target.png,1000,1.6909999999999998,1,5989,989,feet,jsons/v1_VE1000_randls_66_rotated.json,1511241,1754314,30,Woman
101,205661,DepthScenes,duration_manipulation_targetAtFixation,jsons/v1_VE1000_randls_66_rotated.json,http://54.235.29.9/FacialAge/BNav_EC2/DepthDuration/v2_depth_duration_MTurk/v2_DepthDuration_HTML.html#77,77,1364,768,1364,768,8-22-2022,8-31-39,102,depth_duration_stimuli/000457_2014-06-08_16-52-43_260595134347_rgbf000199-resize_1/000457_2014-06-08_16-52-43_260595134347_rgbf000199-resize_1-target.png,1000,3.6489999999999996,1,7266,989,feet,jsons/v1_VE1000_randls_66_rotated.json,1511241,1754314,30,Woman
102,205661,DepthScenes,duration_manipulation_targetAtFixation,jsons/v1_VE1000_randls_66_rotated.json,http://54.235.29.9/FacialAge/BNav_EC2/DepthDuration/v2_depth_duration_MTurk/v2_DepthDuration_HTML.html#77,77,1364,768,1364,768,8-22-2022,8-31-39,103,depth_duration_stimuli/000929_2014-06-09_16-33-19_260595134347_rgbf000139-resize_0/000929_2014-06-09_16-33-19_260595134347_rgbf000139-resize_0-target.png,1000,2.8680000000000003,3,4807,1005,feet,jsons/v1_VE1000_randls_66_rotated.json,1511241,1754314,30,Woman
103,205661,DepthScenes,duration_manipulation_targetAtFixation,jsons/v1_VE1000_randls_66_rotated.json,http://54.235.29.9/FacialAge/BNav_EC2/DepthDuration/v2_depth_duration_MTurk/v2_DepthDuration_HTML.html#77,77,1364,768,1364,768,8-22-2022,8-31-39,104,depth_duration_stimuli/000734_2014-06-08_17-39-11_260595134347_rgbf000128-resize_2/000734_2014-06-08_17-39-11_260595134347_rgbf000128-resize_2-target.png,1000,4.098,3,6707,1004,feet,jsons/v1_VE1000_randls_66_rotated.json,1511241,1754314,30,Woman
104,205661,DepthScenes,duration_manipulation_targetAtFixation,jsons/v1_VE1000_randls_66_rotated.json,http://54.235.29.9/FacialAge/BNav_EC2/DepthDuration/v2_depth_duration_MTurk/v2_DepthDuration_HTML.html#77,77,1364,768,1364,768,8-22-2022,8-31-39,105,depth_duration_stimuli/000739_2014-06-08_18-45-58_260595134347_rgbf000068-resize_1/000739_2014-06-08_18-45-58_260595134347_rgbf000068-resize_1-target.png,1000,3.534,3,12502,1003,feet,jsons/v1_VE1000_randls_66_rotated.json,1511241,1754314,30,Woman
105,205661,DepthScenes,duration_manipulation_targetAtFixation,jsons/v1_VE1000_randls_66_rotated.json,http://54.235.29.9/FacialAge/BNav_EC2/DepthDuration/v2_depth_duration_MTurk/v2_DepthDuration_HTML.html#77,77,1364,768,1364,768,8-22-2022,8-31-39,106,depth_duration_stimuli/003490_2014-05-21_15-50-11_094959634447_rgbf000101-resize_3/003490_2014-05-21_15-50-11_094959634447_rgbf000101-resize_3-target.png,1000,3.6445,4,10445,992,feet,jsons/v1_VE1000_randls_66_rotated.json,1511241,1754314,30,Woman
106,205661,DepthScenes,duration_manipulation_targetAtFixation,jsons/v1_VE1000_randls_66_rotated.json,http://54.235.29.9/FacialAge/BNav_EC2/DepthDuration/v2_depth_duration_MTurk/v2_DepthDuration_HTML.html#77,77,1364,768,1364,768,8-22-2022,8-31-39,107,depth_duration_stimuli/001175_2014-06-17_15-45-55_260595134347_rgbf000129-resize_4/001175_2014-06-17_15-45-55_260595134347_rgbf000129-resize_4-target.png,1000,4.255,6,13690,1011,feet,jsons/v1_VE1000_randls_66_rotated.json,1511241,1754314,30,Woman
107,205661,DepthScenes,duration_manipulation_targetAtFixation,jsons/v1_VE1000_randls_66_rotated.json,http://54.235.29.9/FacialAge/BNav_EC2/DepthDuration/v2_depth_duration_MTurk/v2_DepthDuration_HTML.html#77,77,1364,768,1364,768,8-22-2022,8-31-39,108,depth_duration_stimuli/001214_2014-06-17_16-13-55_260595134347_rgbf000111-resize_0/001214_2014-06-17_16-13-55_260595134347_rgbf000111-resize_0-target.png,1000,2.6505,2,6556,1058,feet,jsons/v1_VE1000_randls_66_rotated.json,1511241,1754314,30,Woman
108,205661,DepthScenes,duration_manipulation_targetAtFixation,jsons/v1_VE1000_randls_66_rotated.json,http://54.235.29.9/FacialAge/BNav_EC2/DepthDuration/v2_depth_duration_MTurk/v2_DepthDuration_HTML.html#77,77,1364,768,1364,768,8-22-2022,8-31-39,109,depth_duration_stimuli/000810_2014-06-08_17-20-01_260595134347_rgbf000105-resize_0/000810_2014-06-08_17-20-01_260595134347_rgbf000105-resize_0-target.png,1000,1.4865,0,5142,1001,feet,jsons/v1_VE1000_randls_66_rotated.json,1511241,1754314,30,Woman
109,205661,DepthScenes,duration_manipulation_targetAtFixation,jsons/v1_VE1000_randls_66_rotated.json,http://54.235.29.9/FacialAge/BNav_EC2/DepthDuration/v2_depth_duration_MTurk/v2_DepthDuration_HTML.html#77,77,1364,768,1364,768,8-22-2022,8-31-39,110,depth_duration_stimuli/000691_2014-06-08_13-08-50_260595134347_rgbf000132-resize_3/000691_2014-06-08_13-08-50_260595134347_rgbf000132-resize_3-target.png,1000,4.1530000000000005,4,10531,997,feet,jsons/v1_VE1000_randls_66_rotated.json,1511241,1754314,30,Woman
110,205661,DepthScenes,duration_manipulation_targetAtFixation,jsons/v1_VE1000_randls_66_rotated.json,http://54.235.29.9/FacialAge/BNav_EC2/DepthDuration/v2_depth_duration_MTurk/v2_DepthDuration_HTML.html#77,77,1364,768,1364,768,8-22-2022,8-31-39,111,depth_duration_stimuli/002213_2014-06-28_18-37-58_260595134347_rgbf000055-resize_1/002213_2014-06-28_18-37-58_260595134347_rgbf000055-resize_1-target.png,1000,3.62,5,6844,1000,feet,jsons/v1_VE1000_randls_66_rotated.json,1511241,1754314,30,Woman
111,205661,DepthScenes,duration_manipulation_targetAtFixation,jsons/v1_VE1000_randls_66_rotated.json,http://54.235.29.9/FacialAge/BNav_EC2/DepthDuration/v2_depth_duration_MTurk/v2_DepthDuration_HTML.html#77,77,1364,768,1364,768,8-22-2022,8-31-39,112,depth_duration_stimuli/001447_2014-06-19_17-00-32_260595134347_rgbf000082-resize_5/001447_2014-06-19_17-00-32_260595134347_rgbf000082-resize_5-target.png,1000,4.13775,3,23650,991,feet,jsons/v1_VE1000_randls_66_rotated.json,1511241,1754314,30,Woman
112,205661,DepthScenes,duration_manipulation_targetAtFixation,jsons/v1_VE1000_randls_66_rotated.json,http://54.235.29.9/FacialAge/BNav_EC2/DepthDuration/v2_depth_duration_MTurk/v2_DepthDuration_HTML.html#77,77,1364,768,1364,768,8-22-2022,8-31-39,113,depth_duration_stimuli/000447_2014-06-08_16-15-46_260595134347_rgbf000130-resize_1/000447_2014-06-08_16-15-46_260595134347_rgbf000130-resize_1-target.png,1000,4.479,3,11232,1000,feet,jsons/v1_VE1000_randls_66_rotated.json,1511241,1754314,30,Woman
113,205661,DepthScenes,duration_manipulation_targetAtFixation,jsons/v1_VE1000_randls_66_rotated.json,http://54.235.29.9/FacialAge/BNav_EC2/DepthDuration/v2_depth_duration_MTurk/v2_DepthDuration_HTML.html#77,77,1364,768,1364,768,8-22-2022,8-31-39,114,depth_duration_stimuli/003010_2014-06-15_12-54-35_094959634447_rgbf000112-resize_0/003010_2014-06-15_12-54-35_094959634447_rgbf000112-resize_0-target.png,1000,3.1185,5,6555,1002,feet,jsons/v1_VE1000_randls_66_rotated.json,1511241,1754314,30,Woman
114,205661,DepthScenes,duration_manipulation_targetAtFixation,jsons/v1_VE1000_randls_66_rotated.json,http://54.235.29.9/FacialAge/BNav_EC2/DepthDuration/v2_depth_duration_MTurk/v2_DepthDuration_HTML.html#77,77,1364,768,1364,768,8-22-2022,8-31-39,115,depth_duration_stimuli/001810_2014-06-26_20-51-35_260595134347_rgbf000040-resize_3/001810_2014-06-26_20-51-35_260595134347_rgbf000040-resize_3-target.png,1000,2.2525,4,5296,999,feet,jsons/v1_VE1000_randls_66_rotated.json,1511241,1754314,30,Woman
115,205661,DepthScenes,duration_manipulation_targetAtFixation,jsons/v1_VE1000_randls_66_rotated.json,http://54.235.29.9/FacialAge/BNav_EC2/DepthDuration/v2_depth_duration_MTurk/v2_DepthDuration_HTML.html#77,77,1364,768,1364,768,8-22-2022,8-31-39,116,depth_duration_stimuli/002425_2014-06-28_20-27-29_260595134347_rgbf000031-resize_8/002425_2014-06-28_20-27-29_260595134347_rgbf000031-resize_8-target.png,1000,3.8960000000000004,3,12453,991,feet,jsons/v1_VE1000_randls_66_rotated.json,1511241,1754314,30,Woman
116,205661,DepthScenes,duration_manipulation_targetAtFixation,jsons/v1_VE1000_randls_66_rotated.json,http://54.235.29.9/FacialAge/BNav_EC2/DepthDuration/v2_depth_duration_MTurk/v2_DepthDuration_HTML.html#77,77,1364,768,1364,768,8-22-2022,8-31-39,117,depth_duration_stimuli/000642_2014-06-08_16-59-25_260595134347_rgbf000098-resize_2/000642_2014-06-08_16-59-25_260595134347_rgbf000098-resize_2-target.png,1000,2.8815,2,4893,1001,feet,jsons/v1_VE1000_randls_66_rotated.json,1511241,1754314,30,Woman
117,205661,DepthScenes,duration_manipulation_targetAtFixation,jsons/v1_VE1000_randls_66_rotated.json,http://54.235.29.9/FacialAge/BNav_EC2/DepthDuration/v2_depth_duration_MTurk/v2_DepthDuration_HTML.html#77,77,1364,768,1364,768,8-22-2022,8-31-39,118,depth_duration_stimuli/002209_2014-06-28_18-36-10_260595134347_rgbf000051-resize_1/002209_2014-06-28_18-36-10_260595134347_rgbf000051-resize_1-target.png,1000,2.057,2,5790,1017,feet,jsons/v1_VE1000_randls_66_rotated.json,1511241,1754314,30,Woman
118,205661,DepthScenes,duration_manipulation_targetAtFixation,jsons/v1_VE1000_randls_66_rotated.json,http://54.235.29.9/FacialAge/BNav_EC2/DepthDuration/v2_depth_duration_MTurk/v2_DepthDuration_HTML.html#77,77,1364,768,1364,768,8-22-2022,8-31-39,119,depth_duration_stimuli/002763_2014-06-22_19-13-10_094959634447_rgbf000075-resize_4/002763_2014-06-22_19-13-10_094959634447_rgbf000075-resize_4-target.png,1000,1.68375,2,18573,994,feet,jsons/v1_VE1000_randls_66_rotated.json,1511241,1754314,30,Woman
119,205661,DepthScenes,duration_manipulation_targetAtFixation,jsons/v1_VE1000_randls_66_rotated.json,http://54.235.29.9/FacialAge/BNav_EC2/DepthDuration/v2_depth_duration_MTurk/v2_DepthDuration_HTML.html#77,77,1364,768,1364,768,8-22-2022,8-31-39,120,depth_duration_stimuli/000787_2014-06-08_22-33-53_260595134347_rgbf000175-resize_1/000787_2014-06-08_22-33-53_260595134347_rgbf000175-resize-original.jpg,1000,4.784,0,7053,1001,feet,jsons/v1_VE1000_randls_66_rotated.json,1511241,1754314,30,Woman
120,205661,DepthScenes,duration_manipulation_targetAtFixation,jsons/v1_VE1000_randls_66_rotated.json,http://54.235.29.9/FacialAge/BNav_EC2/DepthDuration/v2_depth_duration_MTurk/v2_DepthDuration_HTML.html#77,77,1364,768,1364,768,8-22-2022,8-31-39,121,depth_duration_stimuli/002678_2014-06-13_16-15-32_094959634447_rgbf000151-resize_6/002678_2014-06-13_16-15-32_094959634447_rgbf000151-resize_6-target.png,1000,2.1830000000000003,3,6750,998,feet,jsons/v1_VE1000_randls_66_rotated.json,1511241,1754314,30,Woman
121,205661,DepthScenes,duration_manipulation_targetAtFixation,jsons/v1_VE1000_randls_66_rotated.json,http://54.235.29.9/FacialAge/BNav_EC2/DepthDuration/v2_depth_duration_MTurk/v2_DepthDuration_HTML.html#77,77,1364,768,1364,768,8-22-2022,8-31-39,122,depth_duration_stimuli/000368_2014-06-09_15-53-01_260595134347_rgbf000155-resize_2/000368_2014-06-09_15-53-01_260595134347_rgbf000155-resize_2-target.png,1000,2.4859999999999998,2,9000,1005,feet,jsons/v1_VE1000_randls_66_rotated.json,1511241,1754314,30,Woman
122,205661,DepthScenes,duration_manipulation_targetAtFixation,jsons/v1_VE1000_randls_66_rotated.json,http://54.235.29.9/FacialAge/BNav_EC2/DepthDuration/v2_depth_duration_MTurk/v2_DepthDuration_HTML.html#77,77,1364,768,1364,768,8-22-2022,8-31-39,123,depth_duration_stimuli/002758_2014-06-22_19-11-20_094959634447_rgbf000128-resize_1/002758_2014-06-22_19-11-20_094959634447_rgbf000128-resize_1-target.png,1000,2.555,3,11171,992,feet,jsons/v1_VE1000_randls_66_rotated.json,1511241,1754314,30,Woman
123,205661,DepthScenes,duration_manipulation_targetAtFixation,jsons/v1_VE1000_randls_66_rotated.json,http://54.235.29.9/FacialAge/BNav_EC2/DepthDuration/v2_depth_duration_MTurk/v2_DepthDuration_HTML.html#77,77,1364,768,1364,768,8-22-2022,8-31-39,124,depth_duration_stimuli/002630_2014-06-24_14-47-50_094959634447_rgbf000055-resize_1/002630_2014-06-24_14-47-50_094959634447_rgbf000055-resize_1-target.png,1000,3.0095,6,5956,994,feet,jsons/v1_VE1000_randls_66_rotated.json,1511241,1754314,30,Woman
124,205661,DepthScenes,duration_manipulation_targetAtFixation,jsons/v1_VE1000_randls_66_rotated.json,http://54.235.29.9/FacialAge/BNav_EC2/DepthDuration/v2_depth_duration_MTurk/v2_DepthDuration_HTML.html#77,77,1364,768,1364,768,8-22-2022,8-31-39,125,depth_duration_stimuli/002444_2014-06-28_20-32-08_260595134347_rgbf000027-resize_0/002444_2014-06-28_20-32-08_260595134347_rgbf000027-resize_0-target.png,1000,4.388999999999999,6,10450,985,feet,jsons/v1_VE1000_randls_66_rotated.json,1511241,1754314,30,Woman
125,205661,DepthScenes,duration_manipulation_targetAtFixation,jsons/v1_VE1000_randls_66_rotated.json,http://54.235.29.9/FacialAge/BNav_EC2/DepthDuration/v2_depth_duration_MTurk/v2_DepthDuration_HTML.html#77,77,1364,768,1364,768,8-22-2022,8-31-39,126,depth_duration_stimuli/000436_2014-06-09_22-25-11_260595134347_rgbf000137-resize_1/000436_2014-06-09_22-25-11_260595134347_rgbf000137-resize_1-target.png,1000,4.0705,7,4436,1018,feet,jsons/v1_VE1000_randls_66_rotated.json,1511241,1754314,30,Woman
126,205661,DepthScenes,duration_manipulation_targetAtFixation,jsons/v1_VE1000_randls_66_rotated.json,http://54.235.29.9/FacialAge/BNav_EC2/DepthDuration/v2_depth_duration_MTurk/v2_DepthDuration_HTML.html#77,77,1364,768,1364,768,8-22-2022,8-31-39,127,depth_duration_stimuli/001100_2014-06-15_17-46-26_260595134347_rgbf000225-resize_2/001100_2014-06-15_17-46-26_260595134347_rgbf000225-resize_2-target.png,1000,2.24,3,6476,1008,feet,jsons/v1_VE1000_randls_66_rotated.json,1511241,1754314,30,Woman
127,205661,DepthScenes,duration_manipulation_targetAtFixation,jsons/v1_VE1000_randls_66_rotated.json,http://54.235.29.9/FacialAge/BNav_EC2/DepthDuration/v2_depth_duration_MTurk/v2_DepthDuration_HTML.html#77,77,1364,768,1364,768,8-22-2022,8-31-39,128,depth_duration_stimuli/002784_2014-06-22_19-26-30_094959634447_rgbf000083-resize_3/002784_2014-06-22_19-26-30_094959634447_rgbf000083-resize_3-target.png,1000,1.8046666666667,2,6935,988,feet,jsons/v1_VE1000_randls_66_rotated.json,1511241,1754314,30,Woman
128,205661,DepthScenes,duration_manipulation_targetAtFixation,jsons/v1_VE1000_randls_66_rotated.json,http://54.235.29.9/FacialAge/BNav_EC2/DepthDuration/v2_depth_duration_MTurk/v2_DepthDuration_HTML.html#77,77,1364,768,1364,768,8-22-2022,8-31-39,129,depth_duration_stimuli/001828_2014-06-26_21-40-03_260595134347_rgbf000024-resize_0/001828_2014-06-26_21-40-03_260595134347_rgbf000024-resize_0-target.png,1000,4.8260000000000005,3,9018,1001,feet,jsons/v1_VE1000_randls_66_rotated.json,1511241,1754314,30,Woman
129,205661,DepthScenes,duration_manipulation_targetAtFixation,jsons/v1_VE1000_randls_66_rotated.json,http://54.235.29.9/FacialAge/BNav_EC2/DepthDuration/v2_depth_duration_MTurk/v2_DepthDuration_HTML.html#77,77,1364,768,1364,768,8-22-2022,8-31-39,130,depth_duration_stimuli/000009_2014-05-26_14-32-05_260595134347_rgbf000034-resize_3/000009_2014-05-26_14-32-05_260595134347_rgbf000034-resize_3-target.png,1000,3.8715,5,5377,985,feet,jsons/v1_VE1000_randls_66_rotated.json,1511241,1754314,30,Woman
130,205661,DepthScenes,duration_manipulation_targetAtFixation,jsons/v1_VE1000_randls_66_rotated.json,http://54.235.29.9/FacialAge/BNav_EC2/DepthDuration/v2_depth_duration_MTurk/v2_DepthDuration_HTML.html#77,77,1364,768,1364,768,8-22-2022,8-31-39,131,depth_duration_stimuli/002545_2014-06-24_13-38-53_094959634447_rgbf000080-resize_4/002545_2014-06-24_13-38-53_094959634447_rgbf000080-resize_4-target.png,1000,1.9205,2,6386,992,feet,jsons/v1_VE1000_randls_66_rotated.json,1511241,1754314,30,Woman
131,205661,DepthScenes,duration_manipulation_targetAtFixation,jsons/v1_VE1000_randls_66_rotated.json,http://54.235.29.9/FacialAge/BNav_EC2/DepthDuration/v2_depth_duration_MTurk/v2_DepthDuration_HTML.html#77,77,1364,768,1364,768,8-22-2022,8-31-39,132,depth_duration_stimuli/001092_2014-06-15_17-34-58_260595134347_rgbf000171-resize_3/001092_2014-06-15_17-34-58_260595134347_rgbf000171-resize_3-target.png,1000,2.6935,3,4356,991,feet,jsons/v1_VE1000_randls_66_rotated.json,1511241,1754314,30,Woman
132,205661,DepthScenes,duration_manipulation_targetAtFixation,jsons/v1_VE1000_randls_66_rotated.json,http://54.235.29.9/FacialAge/BNav_EC2/DepthDuration/v2_depth_duration_MTurk/v2_DepthDuration_HTML.html#77,77,1364,768,1364,768,8-22-2022,8-31-39,133,depth_duration_stimuli/000137_2014-05-20_17-04-49_260595134347_rgbf000120-resize_1/000137_2014-05-20_17-04-49_260595134347_rgbf000120-resize_1-target.png,1000,3.786,3,6696,998,feet,jsons/v1_VE1000_randls_66_rotated.json,1511241,1754314,30,Woman
133,205661,DepthScenes,duration_manipulation_targetAtFixation,jsons/v1_VE1000_randls_66_rotated.json,http://54.235.29.9/FacialAge/BNav_EC2/DepthDuration/v2_depth_duration_MTurk/v2_DepthDuration_HTML.html#77,77,1364,768,1364,768,8-22-2022,8-31-39,134,depth_duration_stimuli/000736_2014-06-08_18-24-15_260595134347_rgbf000206-resize_3/000736_2014-06-08_18-24-15_260595134347_rgbf000206-resize_3-target.png,1000,3.515,4,5087,1001,feet,jsons/v1_VE1000_randls_66_rotated.json,1511241,1754314,30,Woman
134,205661,DepthScenes,duration_manipulation_targetAtFixation,jsons/v1_VE1000_randls_66_rotated.json,http://54.235.29.9/FacialAge/BNav_EC2/DepthDuration/v2_depth_duration_MTurk/v2_DepthDuration_HTML.html#77,77,1364,768,1364,768,8-22-2022,8-31-39,135,depth_duration_stimuli/000375_2014-06-08_11-17-29_260595134347_rgbf000133-resize_2/000375_2014-06-08_11-17-29_260595134347_rgbf000133-resize-original.jpg,1000,4.718,0,6493,993,feet,jsons/v1_VE1000_randls_66_rotated.json,1511241,1754314,30,Woman
135,205661,DepthScenes,duration_manipulation_targetAtFixation,jsons/v1_VE1000_randls_66_rotated.json,http://54.235.29.9/FacialAge/BNav_EC2/DepthDuration/v2_depth_duration_MTurk/v2_DepthDuration_HTML.html#77,77,1364,768,1364,768,8-22-2022,8-31-39,136,depth_duration_stimuli/000749_2014-06-08_21-55-06_260595134347_rgbf000070-resize_2/000749_2014-06-08_21-55-06_260595134347_rgbf000070-resize_2-target.png,1000,2.331,3,7043,1016,feet,jsons/v1_VE1000_randls_66_rotated.json,1511241,1754314,30,Woman
136,205661,DepthScenes,duration_manipulation_targetAtFixation,jsons/v1_VE1000_randls_66_rotated.json,http://54.235.29.9/FacialAge/BNav_EC2/DepthDuration/v2_depth_duration_MTurk/v2_DepthDuration_HTML.html#77,77,1364,768,1364,768,8-22-2022,8-31-39,137,depth_duration_stimuli/002788_2014-06-22_19-36-03_094959634447_rgbf000088-resize_2/002788_2014-06-22_19-36-03_094959634447_rgbf000088-resize_2-target.png,1000,1.6465,3,4974,985,feet,jsons/v1_VE1000_randls_66_rotated.json,1511241,1754314,30,Woman
137,205661,DepthScenes,duration_manipulation_targetAtFixation,jsons/v1_VE1000_randls_66_rotated.json,http://54.235.29.9/FacialAge/BNav_EC2/DepthDuration/v2_depth_duration_MTurk/v2_DepthDuration_HTML.html#77,77,1364,768,1364,768,8-22-2022,8-31-39,138,depth_duration_stimuli/000483_2014-06-09_20-41-45_260595134347_rgbf000116-resize_4/000483_2014-06-09_20-41-45_260595134347_rgbf000116-resize_4-target.png,1000,1.337,2,7147,983,feet,jsons/v1_VE1000_randls_66_rotated.json,1511241,1754314,30,Woman
138,205661,DepthScenes,duration_manipulation_targetAtFixation,jsons/v1_VE1000_randls_66_rotated.json,http://54.235.29.9/FacialAge/BNav_EC2/DepthDuration/v2_depth_duration_MTurk/v2_DepthDuration_HTML.html#77,77,1364,768,1364,768,8-22-2022,8-31-39,139,depth_duration_stimuli/000469_2014-06-09_19-42-10_260595134347_rgbf000081-resize_1/000469_2014-06-09_19-42-10_260595134347_rgbf000081-resize_1-target.png,1000,1.652,3,13988,996,feet,jsons/v1_VE1000_randls_66_rotated.json,1511241,1754314,30,Woman
139,205661,DepthScenes,duration_manipulation_targetAtFixation,jsons/v1_VE1000_randls_66_rotated.json,http://54.235.29.9/FacialAge/BNav_EC2/DepthDuration/v2_depth_duration_MTurk/v2_DepthDuration_HTML.html#77,77,1364,768,1364,768,8-22-2022,8-31-39,140,depth_duration_stimuli/002568_2014-06-24_13-59-21_094959634447_rgbf000062-resize_4/002568_2014-06-24_13-59-21_094959634447_rgbf000062-resize_4-target.png,1000,3.015,3,7590,989,feet,jsons/v1_VE1000_randls_66_rotated.json,1511241,1754314,30,Woman
140,205661,DepthScenes,duration_manipulation_targetAtFixation,jsons/v1_VE1000_randls_66_rotated.json,http://54.235.29.9/FacialAge/BNav_EC2/DepthDuration/v2_depth_duration_MTurk/v2_DepthDuration_HTML.html#77,77,1364,768,1364,768,8-22-2022,8-31-39,141,depth_duration_stimuli/003492_2014-05-21_15-50-55_094959634447_rgbf000828-resize_1/003492_2014-05-21_15-50-55_094959634447_rgbf000828-resize_1-target.png,1000,4.06875,7,98911,993,feet,jsons/v1_VE1000_randls_66_rotated.json,1511241,1754314,30,Woman
141,205661,DepthScenes,duration_manipulation_targetAtFixation,jsons/v1_VE1000_randls_66_rotated.json,http://54.235.29.9/FacialAge/BNav_EC2/DepthDuration/v2_depth_duration_MTurk/v2_DepthDuration_HTML.html#77,77,1364,768,1364,768,8-22-2022,8-31-39,142,depth_duration_stimuli/001584_2014-06-20_11-07-43_260595134347_rgbf000002-resize_1/001584_2014-06-20_11-07-43_260595134347_rgbf000002-resize_1-target.png,1000,3.53,5,24378,1002,feet,jsons/v1_VE1000_randls_66_rotated.json,1511241,1754314,30,Woman
142,205661,DepthScenes,duration_manipulation_targetAtFixation,jsons/v1_VE1000_randls_66_rotated.json,http://54.235.29.9/FacialAge/BNav_EC2/DepthDuration/v2_depth_duration_MTurk/v2_DepthDuration_HTML.html#77,77,1364,768,1364,768,8-22-2022,8-31-39,143,depth_duration_stimuli/003621_2014-05-23_18-06-08_094959634447_rgbf000101-resize_1/003621_2014-05-23_18-06-08_094959634447_rgbf000101-resize_1-target.png,1000,3.9835,5,6302,1009,feet,jsons/v1_VE1000_randls_66_rotated.json,1511241,1754314,30,Woman
143,205661,DepthScenes,duration_manipulation_targetAtFixation,jsons/v1_VE1000_randls_66_rotated.json,http://54.235.29.9/FacialAge/BNav_EC2/DepthDuration/v2_depth_duration_MTurk/v2_DepthDuration_HTML.html#77,77,1364,768,1364,768,8-22-2022,8-31-39,144,depth_duration_stimuli/000635_2014-06-08_16-38-42_260595134347_rgbf000106-resize_1/000635_2014-06-08_16-38-42_260595134347_rgbf000106-resize_1-target.png,1000,2.074,6,11873,1002,feet,jsons/v1_VE1000_randls_66_rotated.json,1511241,1754314,30,Woman
144,205661,DepthScenes,duration_manipulation_targetAtFixation,jsons/v1_VE1000_randls_66_rotated.json,http://54.235.29.9/FacialAge/BNav_EC2/DepthDuration/v2_depth_duration_MTurk/v2_DepthDuration_HTML.html#77,77,1364,768,1364,768,8-22-2022,8-31-39,145,depth_duration_stimuli/002279_2014-06-28_18-55-32_260595134347_rgbf000040-resize_5/002279_2014-06-28_18-55-32_260595134347_rgbf000040-resize_5-target.png,1000,1.5043333333333,4,5084,1010,feet,jsons/v1_VE1000_randls_66_rotated.json,1511241,1754314,30,Woman
145,205661,DepthScenes,duration_manipulation_targetAtFixation,jsons/v1_VE1000_randls_66_rotated.json,http://54.235.29.9/FacialAge/BNav_EC2/DepthDuration/v2_depth_duration_MTurk/v2_DepthDuration_HTML.html#77,77,1364,768,1364,768,8-22-2022,8-31-39,146,depth_duration_stimuli/002467_2014-06-28_20-38-07_260595134347_rgbf000026-resize_2/002467_2014-06-28_20-38-07_260595134347_rgbf000026-resize_2-target.png,1000,4.742,4,25994,979,feet,jsons/v1_VE1000_randls_66_rotated.json,1511241,1754314,30,Woman
146,205661,DepthScenes,duration_manipulation_targetAtFixation,jsons/v1_VE1000_randls_66_rotated.json,http://54.235.29.9/FacialAge/BNav_EC2/DepthDuration/v2_depth_duration_MTurk/v2_DepthDuration_HTML.html#77,77,1364,768,1364,768,8-22-2022,8-31-39,147,depth_duration_stimuli/002570_2014-06-24_13-59-54_094959634447_rgbf000059-resize_0/002570_2014-06-24_13-59-54_094959634447_rgbf000059-resize_0-target.png,1000,4.037,3,32758,1010,feet,jsons/v1_VE1000_randls_66_rotated.json,1511241,1754314,30,Woman
147,205661,DepthScenes,duration_manipulation_targetAtFixation,jsons/v1_VE1000_randls_66_rotated.json,http://54.235.29.9/FacialAge/BNav_EC2/DepthDuration/v2_depth_duration_MTurk/v2_DepthDuration_HTML.html#77,77,1364,768,1364,768,8-22-2022,8-31-39,148,depth_duration_stimuli/001571_2014-06-20_17-21-32_260595134347_rgbf000089-resize_1/001571_2014-06-20_17-21-32_260595134347_rgbf000089-resize_1-target.png,1000,1.86,3,5920,999,feet,jsons/v1_VE1000_randls_66_rotated.json,1511241,1754314,30,Woman
148,205661,DepthScenes,duration_manipulation_targetAtFixation,jsons/v1_VE1000_randls_66_rotated.json,http://54.235.29.9/FacialAge/BNav_EC2/DepthDuration/v2_depth_duration_MTurk/v2_DepthDuration_HTML.html#77,77,1364,768,1364,768,8-22-2022,8-31-39,149,depth_duration_stimuli/002272_2014-06-28_18-53-56_260595134347_rgbf000067-resize_2/002272_2014-06-28_18-53-56_260595134347_rgbf000067-resize_2-target.png,1000,1.138,3,4623,999,feet,jsons/v1_VE1000_randls_66_rotated.json,1511241,1754314,30,Woman
149,205661,DepthScenes,duration_manipulation_targetAtFixation,jsons/v1_VE1000_randls_66_rotated.json,http://54.235.29.9/FacialAge/BNav_EC2/DepthDuration/v2_depth_duration_MTurk/v2_DepthDuration_HTML.html#77,77,1364,768,1364,768,8-22-2022,8-31-39,150,depth_duration_stimuli/002805_2014-06-22_19-54-03_094959634447_rgbf000079-resize_1/002805_2014-06-22_19-54-03_094959634447_rgbf000079-resize_1-target.png,1000,3.1439999999999997,3,6011,1010,feet,jsons/v1_VE1000_randls_66_rotated.json,1511241,1754314,30,Woman
150,205661,DepthScenes,duration_manipulation_targetAtFixation,jsons/v1_VE1000_randls_66_rotated.json,http://54.235.29.9/FacialAge/BNav_EC2/DepthDuration/v2_depth_duration_MTurk/v2_DepthDuration_HTML.html#77,77,1364,768,1364,768,8-22-2022,8-31-39,151,depth_duration_stimuli/000906_2014-06-08_13-35-43_260595134347_rgbf000155-resize_1/000906_2014-06-08_13-35-43_260595134347_rgbf000155-resize_1-target.png,1000,2.8489999999999998,3,6517,1001,feet,jsons/v1_VE1000_randls_66_rotated.json,1511241,1754314,30,Woman
151,205661,DepthScenes,duration_manipulation_targetAtFixation,jsons/v1_VE1000_randls_66_rotated.json,http://54.235.29.9/FacialAge/BNav_EC2/DepthDuration/v2_depth_duration_MTurk/v2_DepthDuration_HTML.html#77,77,1364,768,1364,768,8-22-2022,8-31-39,152,depth_duration_stimuli/000569_2014-06-09_22-51-47_260595134347_rgbf000141-resize_3/000569_2014-06-09_22-51-47_260595134347_rgbf000141-resize-original.jpg,1000,4.512,0,7763,999,feet,jsons/v1_VE1000_randls_66_rotated.json,1511241,1754314,30,Woman
152,205661,DepthScenes,duration_manipulation_targetAtFixation,jsons/v1_VE1000_randls_66_rotated.json,http://54.235.29.9/FacialAge/BNav_EC2/DepthDuration/v2_depth_duration_MTurk/v2_DepthDuration_HTML.html#77,77,1364,768,1364,768,8-22-2022,8-31-39,153,depth_duration_stimuli/000502_2014-06-08_23-02-32_260595134347_rgbf000063-resize_4/000502_2014-06-08_23-02-32_260595134347_rgbf000063-resize_4-target.png,1000,2.431,2,10247,997,feet,jsons/v1_VE1000_randls_66_rotated.json,1511241,1754314,30,Woman
153,205661,DepthScenes,duration_manipulation_targetAtFixation,jsons/v1_VE1000_randls_66_rotated.json,http://54.235.29.9/FacialAge/BNav_EC2/DepthDuration/v2_depth_duration_MTurk/v2_DepthDuration_HTML.html#77,77,1364,768,1364,768,8-22-2022,8-31-39,154,depth_duration_stimuli/001199_2014-06-17_16-03-48_260595134347_rgbf000077-resize_0/001199_2014-06-17_16-03-48_260595134347_rgbf000077-resize_0-target.png,1000,3.4375,4,4968,993,feet,jsons/v1_VE1000_randls_66_rotated.json,1511241,1754314,30,Woman
154,205661,DepthScenes,duration_manipulation_targetAtFixation,jsons/v1_VE1000_randls_66_rotated.json,http://54.235.29.9/FacialAge/BNav_EC2/DepthDuration/v2_depth_duration_MTurk/v2_DepthDuration_HTML.html#77,77,1364,768,1364,768,8-22-2022,8-31-39,155,depth_duration_stimuli/002340_2014-06-28_20-05-46_260595134347_rgbf000113-resize_0/002340_2014-06-28_20-05-46_260595134347_rgbf000113-resize_0-target.png,1000,2.4735,4,27284,1001,feet,jsons/v1_VE1000_randls_66_rotated.json,1511241,1754314,30,Woman
155,205661,DepthScenes,duration_manipulation_targetAtFixation,jsons/v1_VE1000_randls_66_rotated.json,http://54.235.29.9/FacialAge/BNav_EC2/DepthDuration/v2_depth_duration_MTurk/v2_DepthDuration_HTML.html#77,77,1364,768,1364,768,8-22-2022,8-31-39,156,depth_duration_stimuli/001016_2014-06-09_16-16-10_260595134347_rgbf000112-resize_5/001016_2014-06-09_16-16-10_260595134347_rgbf000112-resize_5-target.png,1000,1.6565,3,4301,981,feet,jsons/v1_VE1000_randls_66_rotated.json,1511241,1754314,30,Woman
156,205661,DepthScenes,duration_manipulation_targetAtFixation,jsons/v1_VE1000_randls_66_rotated.json,http://54.235.29.9/FacialAge/BNav_EC2/DepthDuration/v2_depth_duration_MTurk/v2_DepthDuration_HTML.html#77,77,1364,768,1364,768,8-22-2022,8-31-39,157,depth_duration_stimuli/002995_2014-06-15_12-31-26_094959634447_rgbf000150-resize_1/002995_2014-06-15_12-31-26_094959634447_rgbf000150-resize_1-target.png,1000,3.8360000000000003,5,6591,1009,feet,jsons/v1_VE1000_randls_66_rotated.json,1511241,1754314,30,Woman
157,205661,DepthScenes,duration_manipulation_targetAtFixation,jsons/v1_VE1000_randls_66_rotated.json,http://54.235.29.9/FacialAge/BNav_EC2/DepthDuration/v2_depth_duration_MTurk/v2_DepthDuration_HTML.html#77,77,1364,768,1364,768,8-22-2022,8-31-39,158,depth_duration_stimuli/002748_2014-06-22_19-07-22_094959634447_rgbf000078-resize_1/002748_2014-06-22_19-07-22_094959634447_rgbf000078-resize_1-target.png,1000,4.6705,5,4569,976,feet,jsons/v1_VE1000_randls_66_rotated.json,1511241,1754314,30,Woman
158,205661,DepthScenes,duration_manipulation_targetAtFixation,jsons/v1_VE1000_randls_66_rotated.json,http://54.235.29.9/FacialAge/BNav_EC2/DepthDuration/v2_depth_duration_MTurk/v2_DepthDuration_HTML.html#77,77,1364,768,1364,768,8-22-2022,8-31-39,159,depth_duration_stimuli/002199_2014-06-28_18-33-56_260595134347_rgbf000074-resize_0/002199_2014-06-28_18-33-56_260595134347_rgbf000074-resize_0-target.png,1000,1.996,5,12050,1004,feet,jsons/v1_VE1000_randls_66_rotated.json,1511241,1754314,30,Woman
159,205661,DepthScenes,duration_manipulation_targetAtFixation,jsons/v1_VE1000_randls_66_rotated.json,http://54.235.29.9/FacialAge/BNav_EC2/DepthDuration/v2_depth_duration_MTurk/v2_DepthDuration_HTML.html#77,77,1364,768,1364,768,8-22-2022,8-31-39,160,depth_duration_stimuli/001056_2014-06-08_18-46-44_260595134347_rgbf000068-resize_0/001056_2014-06-08_18-46-44_260595134347_rgbf000068-resize_0-target.png,1000,2.6625,4,4987,1008,feet,jsons/v1_VE1000_randls_66_rotated.json,1511241,1754314,30,Woman
160,205661,DepthScenes,duration_manipulation_targetAtFixation,jsons/v1_VE1000_randls_66_rotated.json,http://54.235.29.9/FacialAge/BNav_EC2/DepthDuration/v2_depth_duration_MTurk/v2_DepthDuration_HTML.html#77,77,1364,768,1364,768,8-22-2022,8-31-39,161,depth_duration_stimuli/001136_2014-06-17_15-19-41_260595134347_rgbf000076-resize_3/001136_2014-06-17_15-19-41_260595134347_rgbf000076-resize_3-target.png,1000,1.8655,3,12527,999,feet,jsons/v1_VE1000_randls_66_rotated.json,1511241,1754314,30,Woman
161,205661,DepthScenes,duration_manipulation_targetAtFixation,jsons/v1_VE1000_randls_66_rotated.json,http://54.235.29.9/FacialAge/BNav_EC2/DepthDuration/v2_depth_duration_MTurk/v2_DepthDuration_HTML.html#77,77,1364,768,1364,768,8-22-2022,8-31-39,162,depth_duration_stimuli/001164_2014-06-17_15-35-46_260595134347_rgbf000085-resize_3/001164_2014-06-17_15-35-46_260595134347_rgbf000085-resize_3-target.png,1000,2.354,3,6545,1010,feet,jsons/v1_VE1000_randls_66_rotated.json,1511241,1754314,30,Woman
162,205661,DepthScenes,duration_manipulation_targetAtFixation,jsons/v1_VE1000_randls_66_rotated.json,http://54.235.29.9/FacialAge/BNav_EC2/DepthDuration/v2_depth_duration_MTurk/v2_DepthDuration_HTML.html#77,77,1364,768,1364,768,8-22-2022,8-31-39,163,depth_duration_stimuli/001094_2014-06-15_17-36-00_260595134347_rgbf000205-resize_0/001094_2014-06-15_17-36-00_260595134347_rgbf000205-resize_0-target.png,1000,4.2175,5,10986,995,feet,jsons/v1_VE1000_randls_66_rotated.json,1511241,1754314,30,Woman
163,205661,DepthScenes,duration_manipulation_targetAtFixation,jsons/v1_VE1000_randls_66_rotated.json,http://54.235.29.9/FacialAge/BNav_EC2/DepthDuration/v2_depth_duration_MTurk/v2_DepthDuration_HTML.html#77,77,1364,768,1364,768,8-22-2022,8-31-39,164,depth_duration_stimuli/000692_2014-06-08_13-09-42_260595134347_rgbf000199-resize_2/000692_2014-06-08_13-09-42_260595134347_rgbf000199-resize_2-target.png,1000,3.661,4,4563,997,feet,jsons/v1_VE1000_randls_66_rotated.json,1511241,1754314,30,Woman
