,subjID,experimentName,versionName,sequenceName,url,selected_row,windowWidth,windowHeight,screenWidth,screenHeight,startDate,startTime,trial,stimulus,duration,actual_depth,depth_estimate,trial_RT,log_sceneDuration,unitSelection,seq_filepath,experimentTime,totalTime,age,gender
0,207977,DepthScenes,duration_manipulation_targetAtFixation,jsons/VE125_randls_37.json,http://54.235.29.9/FacialAge/BNav_EC2/DepthDuration/v2_depth_duration_MTurk/v2_DepthDuration_HTML.html#418,418,1365,657,1366,768,8-30-2022,23-45-5,1,depth_duration_stimuli/002279_2014-06-28_18-55-32_260595134347_rgbf000040-resize_5/002279_2014-06-28_18-55-32_260595134347_rgbf000040-resize_5-target.png,125,1.5043333333333,0,1838,145,meters,jsons/VE125_randls_37.json,1078017,1332820,35,Man
1,207977,DepthScenes,duration_manipulation_targetAtFixation,jsons/VE125_randls_37.json,http://54.235.29.9/FacialAge/BNav_EC2/DepthDuration/v2_depth_duration_MTurk/v2_DepthDuration_HTML.html#418,418,1365,657,1366,768,8-30-2022,23-45-5,2,depth_duration_stimuli/000635_2014-06-08_16-38-42_260595134347_rgbf000106-resize_1/000635_2014-06-08_16-38-42_260595134347_rgbf000106-resize_1-target.png,125,2.074,0,1581,127,meters,jsons/VE125_randls_37.json,1078017,1332820,35,Man
2,207977,DepthScenes,duration_manipulation_targetAtFixation,jsons/VE125_randls_37.json,http://54.235.29.9/FacialAge/BNav_EC2/DepthDuration/v2_depth_duration_MTurk/v2_DepthDuration_HTML.html#418,418,1365,657,1366,768,8-30-2022,23-45-5,3,depth_duration_stimuli/002988_2014-06-15_12-24-20_094959634447_rgbf000150-resize_1/002988_2014-06-15_12-24-20_094959634447_rgbf000150-resize_1-target.png,125,4.7669999999999995,0,1400,128,meters,jsons/VE125_randls_37.json,1078017,1332820,35,Man
3,207977,DepthScenes,duration_manipulation_targetAtFixation,jsons/VE125_randls_37.json,http://54.235.29.9/FacialAge/BNav_EC2/DepthDuration/v2_depth_duration_MTurk/v2_DepthDuration_HTML.html#418,418,1365,657,1366,768,8-30-2022,23-45-5,4,depth_duration_stimuli/001052_2014-06-08_18-24-54_260595134347_rgbf000130-resize_1/001052_2014-06-08_18-24-54_260595134347_rgbf000130-resize_1-target.png,125,4.1045,0,4511,118,meters,jsons/VE125_randls_37.json,1078017,1332820,35,Man
4,207977,DepthScenes,duration_manipulation_targetAtFixation,jsons/VE125_randls_37.json,http://54.235.29.9/FacialAge/BNav_EC2/DepthDuration/v2_depth_duration_MTurk/v2_DepthDuration_HTML.html#418,418,1365,657,1366,768,8-30-2022,23-45-5,5,depth_duration_stimuli/001092_2014-06-15_17-34-58_260595134347_rgbf000171-resize_3/001092_2014-06-15_17-34-58_260595134347_rgbf000171-resize_3-target.png,125,2.6935,0,1374,108,meters,jsons/VE125_randls_37.json,1078017,1332820,35,Man
5,207977,DepthScenes,duration_manipulation_targetAtFixation,jsons/VE125_randls_37.json,http://54.235.29.9/FacialAge/BNav_EC2/DepthDuration/v2_depth_duration_MTurk/v2_DepthDuration_HTML.html#418,418,1365,657,1366,768,8-30-2022,23-45-5,6,depth_duration_stimuli/002545_2014-06-24_13-38-53_094959634447_rgbf000080-resize_4/002545_2014-06-24_13-38-53_094959634447_rgbf000080-resize_4-target.png,125,1.9205,0,1447,118,meters,jsons/VE125_randls_37.json,1078017,1332820,35,Man
6,207977,DepthScenes,duration_manipulation_targetAtFixation,jsons/VE125_randls_37.json,http://54.235.29.9/FacialAge/BNav_EC2/DepthDuration/v2_depth_duration_MTurk/v2_DepthDuration_HTML.html#418,418,1365,657,1366,768,8-30-2022,23-45-5,7,depth_duration_stimuli/000906_2014-06-08_13-35-43_260595134347_rgbf000155-resize_1/000906_2014-06-08_13-35-43_260595134347_rgbf000155-resize_1-target.png,125,2.8489999999999998,0,24730,139,meters,jsons/VE125_randls_37.json,1078017,1332820,35,Man
7,207977,DepthScenes,duration_manipulation_targetAtFixation,jsons/VE125_randls_37.json,http://54.235.29.9/FacialAge/BNav_EC2/DepthDuration/v2_depth_duration_MTurk/v2_DepthDuration_HTML.html#418,418,1365,657,1366,768,8-30-2022,23-45-5,8,depth_duration_stimuli/002805_2014-06-22_19-54-03_094959634447_rgbf000079-resize_1/002805_2014-06-22_19-54-03_094959634447_rgbf000079-resize_1-target.png,125,3.1439999999999997,0,1581,123,meters,jsons/VE125_randls_37.json,1078017,1332820,35,Man
8,207977,DepthScenes,duration_manipulation_targetAtFixation,jsons/VE125_randls_37.json,http://54.235.29.9/FacialAge/BNav_EC2/DepthDuration/v2_depth_duration_MTurk/v2_DepthDuration_HTML.html#418,418,1365,657,1366,768,8-30-2022,23-45-5,9,depth_duration_stimuli/002600_2014-06-24_14-27-04_094959634447_rgbf000074-resize_2/002600_2014-06-24_14-27-04_094959634447_rgbf000074-resize_2-target.png,125,2.7575,0,1544,138,meters,jsons/VE125_randls_37.json,1078017,1332820,35,Man
9,207977,DepthScenes,duration_manipulation_targetAtFixation,jsons/VE125_randls_37.json,http://54.235.29.9/FacialAge/BNav_EC2/DepthDuration/v2_depth_duration_MTurk/v2_DepthDuration_HTML.html#418,418,1365,657,1366,768,8-30-2022,23-45-5,10,depth_duration_stimuli/003228_2014-05-14_13-42-35_094959634447_rgbf000101-resize_1/003228_2014-05-14_13-42-35_094959634447_rgbf000101-resize_1-target.png,125,1.9680000000000002,0,1503,127,meters,jsons/VE125_randls_37.json,1078017,1332820,35,Man
10,207977,DepthScenes,duration_manipulation_targetAtFixation,jsons/VE125_randls_37.json,http://54.235.29.9/FacialAge/BNav_EC2/DepthDuration/v2_depth_duration_MTurk/v2_DepthDuration_HTML.html#418,418,1365,657,1366,768,8-30-2022,23-45-5,11,depth_duration_stimuli/002057_2014-06-24_21-00-13_260595134347_rgbf000120-resize_1/002057_2014-06-24_21-00-13_260595134347_rgbf000120-resize_1-target.png,125,2.967,0,1417,118,meters,jsons/VE125_randls_37.json,1078017,1332820,35,Man
11,207977,DepthScenes,duration_manipulation_targetAtFixation,jsons/VE125_randls_37.json,http://54.235.29.9/FacialAge/BNav_EC2/DepthDuration/v2_depth_duration_MTurk/v2_DepthDuration_HTML.html#418,418,1365,657,1366,768,8-30-2022,23-45-5,12,depth_duration_stimuli/000709_2014-06-08_13-51-55_260595134347_rgbf000068-resize_3/000709_2014-06-08_13-51-55_260595134347_rgbf000068-resize_3-target.png,125,1.8030000000000002,0,1758,139,meters,jsons/VE125_randls_37.json,1078017,1332820,35,Man
12,207977,DepthScenes,duration_manipulation_targetAtFixation,jsons/VE125_randls_37.json,http://54.235.29.9/FacialAge/BNav_EC2/DepthDuration/v2_depth_duration_MTurk/v2_DepthDuration_HTML.html#418,418,1365,657,1366,768,8-30-2022,23-45-5,13,depth_duration_stimuli/000569_2014-06-09_22-51-47_260595134347_rgbf000141-resize_3/000569_2014-06-09_22-51-47_260595134347_rgbf000141-resize-original.jpg,125,4.512,0,1355,139,meters,jsons/VE125_randls_37.json,1078017,1332820,35,Man
13,207977,DepthScenes,duration_manipulation_targetAtFixation,jsons/VE125_randls_37.json,http://54.235.29.9/FacialAge/BNav_EC2/DepthDuration/v2_depth_duration_MTurk/v2_DepthDuration_HTML.html#418,418,1365,657,1366,768,8-30-2022,23-45-5,14,depth_duration_stimuli/001066_2014-06-08_22-03-20_260595134347_rgbf000066-resize_4/001066_2014-06-08_22-03-20_260595134347_rgbf000066-resize_4-target.png,125,4.2330000000000005,0,1756,128,meters,jsons/VE125_randls_37.json,1078017,1332820,35,Man
14,207977,DepthScenes,duration_manipulation_targetAtFixation,jsons/VE125_randls_37.json,http://54.235.29.9/FacialAge/BNav_EC2/DepthDuration/v2_depth_duration_MTurk/v2_DepthDuration_HTML.html#418,418,1365,657,1366,768,8-30-2022,23-45-5,15,depth_duration_stimuli/000742_2014-06-08_18-48-09_260595134347_rgbf000164-resize_4/000742_2014-06-08_18-48-09_260595134347_rgbf000164-resize_4-target.png,125,4.632,0,1618,123,meters,jsons/VE125_randls_37.json,1078017,1332820,35,Man
15,207977,DepthScenes,duration_manipulation_targetAtFixation,jsons/VE125_randls_37.json,http://54.235.29.9/FacialAge/BNav_EC2/DepthDuration/v2_depth_duration_MTurk/v2_DepthDuration_HTML.html#418,418,1365,657,1366,768,8-30-2022,23-45-5,16,depth_duration_stimuli/001059_2014-06-08_21-53-27_260595134347_rgbf000061-resize_4/001059_2014-06-08_21-53-27_260595134347_rgbf000061-resize_4-target.png,125,2.4185,0,48153,122,meters,jsons/VE125_randls_37.json,1078017,1332820,35,Man
16,207977,DepthScenes,duration_manipulation_targetAtFixation,jsons/VE125_randls_37.json,http://54.235.29.9/FacialAge/BNav_EC2/DepthDuration/v2_depth_duration_MTurk/v2_DepthDuration_HTML.html#418,418,1365,657,1366,768,8-30-2022,23-45-5,17,depth_duration_stimuli/001032_2014-06-08_13-23-17_260595134347_rgbf000021-resize_3/001032_2014-06-08_13-23-17_260595134347_rgbf000021-resize_3-target.png,125,3.2725,0,1549,118,meters,jsons/VE125_randls_37.json,1078017,1332820,35,Man
17,207977,DepthScenes,duration_manipulation_targetAtFixation,jsons/VE125_randls_37.json,http://54.235.29.9/FacialAge/BNav_EC2/DepthDuration/v2_depth_duration_MTurk/v2_DepthDuration_HTML.html#418,418,1365,657,1366,768,8-30-2022,23-45-5,18,depth_duration_stimuli/000009_2014-05-26_14-32-05_260595134347_rgbf000034-resize_3/000009_2014-05-26_14-32-05_260595134347_rgbf000034-resize_3-target.png,125,3.8715,0,1471,118,meters,jsons/VE125_randls_37.json,1078017,1332820,35,Man
18,207977,DepthScenes,duration_manipulation_targetAtFixation,jsons/VE125_randls_37.json,http://54.235.29.9/FacialAge/BNav_EC2/DepthDuration/v2_depth_duration_MTurk/v2_DepthDuration_HTML.html#418,418,1365,657,1366,768,8-30-2022,23-45-5,19,depth_duration_stimuli/001828_2014-06-26_21-40-03_260595134347_rgbf000024-resize_0/001828_2014-06-26_21-40-03_260595134347_rgbf000024-resize_0-target.png,125,4.8260000000000005,0,1472,118,meters,jsons/VE125_randls_37.json,1078017,1332820,35,Man
19,207977,DepthScenes,duration_manipulation_targetAtFixation,jsons/VE125_randls_37.json,http://54.235.29.9/FacialAge/BNav_EC2/DepthDuration/v2_depth_duration_MTurk/v2_DepthDuration_HTML.html#418,418,1365,657,1366,768,8-30-2022,23-45-5,20,depth_duration_stimuli/000522_2014-06-08_13-35-06_260595134347_rgbf000244-resize_1/000522_2014-06-08_13-35-06_260595134347_rgbf000244-resize_1-target.png,125,2.3715,0,1439,118,meters,jsons/VE125_randls_37.json,1078017,1332820,35,Man
20,207977,DepthScenes,duration_manipulation_targetAtFixation,jsons/VE125_randls_37.json,http://54.235.29.9/FacialAge/BNav_EC2/DepthDuration/v2_depth_duration_MTurk/v2_DepthDuration_HTML.html#418,418,1365,657,1366,768,8-30-2022,23-45-5,21,depth_duration_stimuli/002949_2014-06-26_15-57-42_094959634447_rgbf000079-resize_1/002949_2014-06-26_15-57-42_094959634447_rgbf000079-resize_1-target.png,125,1.8915,0,1459,122,meters,jsons/VE125_randls_37.json,1078017,1332820,35,Man
21,207977,DepthScenes,duration_manipulation_targetAtFixation,jsons/VE125_randls_37.json,http://54.235.29.9/FacialAge/BNav_EC2/DepthDuration/v2_depth_duration_MTurk/v2_DepthDuration_HTML.html#418,418,1365,657,1366,768,8-30-2022,23-45-5,22,depth_duration_stimuli/002153_2014-06-25_21-27-18_260595134347_rgbf000038-resize_5/002153_2014-06-25_21-27-18_260595134347_rgbf000038-resize_5-target.png,125,2.505,0,1478,119,meters,jsons/VE125_randls_37.json,1078017,1332820,35,Man
22,207977,DepthScenes,duration_manipulation_targetAtFixation,jsons/VE125_randls_37.json,http://54.235.29.9/FacialAge/BNav_EC2/DepthDuration/v2_depth_duration_MTurk/v2_DepthDuration_HTML.html#418,418,1365,657,1366,768,8-30-2022,23-45-5,23,depth_duration_stimuli/002660_2014-06-13_15-44-18_094959634447_rgbf001878-resize_2/002660_2014-06-13_15-44-18_094959634447_rgbf001878-resize_2-target.png,125,3.576,0,1425,129,meters,jsons/VE125_randls_37.json,1078017,1332820,35,Man
23,207977,DepthScenes,duration_manipulation_targetAtFixation,jsons/VE125_randls_37.json,http://54.235.29.9/FacialAge/BNav_EC2/DepthDuration/v2_depth_duration_MTurk/v2_DepthDuration_HTML.html#418,418,1365,657,1366,768,8-30-2022,23-45-5,24,depth_duration_stimuli/000773_2014-06-08_22-24-54_260595134347_rgbf000093-resize_1/000773_2014-06-08_22-24-54_260595134347_rgbf000093-resize_1-target.png,125,4.973,0,18996,141,meters,jsons/VE125_randls_37.json,1078017,1332820,35,Man
24,207977,DepthScenes,duration_manipulation_targetAtFixation,jsons/VE125_randls_37.json,http://54.235.29.9/FacialAge/BNav_EC2/DepthDuration/v2_depth_duration_MTurk/v2_DepthDuration_HTML.html#418,418,1365,657,1366,768,8-30-2022,23-45-5,25,depth_duration_stimuli/002414_2014-06-28_20-24-58_260595134347_rgbf000067-resize_4/002414_2014-06-28_20-24-58_260595134347_rgbf000067-resize_4-target.png,125,4.363,0,2423,117,meters,jsons/VE125_randls_37.json,1078017,1332820,35,Man
25,207977,DepthScenes,duration_manipulation_targetAtFixation,jsons/VE125_randls_37.json,http://54.235.29.9/FacialAge/BNav_EC2/DepthDuration/v2_depth_duration_MTurk/v2_DepthDuration_HTML.html#418,418,1365,657,1366,768,8-30-2022,23-45-5,26,depth_duration_stimuli/000447_2014-06-08_16-15-46_260595134347_rgbf000130-resize_1/000447_2014-06-08_16-15-46_260595134347_rgbf000130-resize_1-target.png,125,4.479,0,1508,118,meters,jsons/VE125_randls_37.json,1078017,1332820,35,Man
26,207977,DepthScenes,duration_manipulation_targetAtFixation,jsons/VE125_randls_37.json,http://54.235.29.9/FacialAge/BNav_EC2/DepthDuration/v2_depth_duration_MTurk/v2_DepthDuration_HTML.html#418,418,1365,657,1366,768,8-30-2022,23-45-5,27,depth_duration_stimuli/001447_2014-06-19_17-00-32_260595134347_rgbf000082-resize_5/001447_2014-06-19_17-00-32_260595134347_rgbf000082-resize_5-target.png,125,4.13775,0,1483,134,meters,jsons/VE125_randls_37.json,1078017,1332820,35,Man
27,207977,DepthScenes,duration_manipulation_targetAtFixation,jsons/VE125_randls_37.json,http://54.235.29.9/FacialAge/BNav_EC2/DepthDuration/v2_depth_duration_MTurk/v2_DepthDuration_HTML.html#418,418,1365,657,1366,768,8-30-2022,23-45-5,28,depth_duration_stimuli/000758_2014-06-08_22-05-08_260595134347_rgbf000085-resize_0/000758_2014-06-08_22-05-08_260595134347_rgbf000085-resize_0-target.png,125,3.3810000000000002,0,1418,128,meters,jsons/VE125_randls_37.json,1078017,1332820,35,Man
28,207977,DepthScenes,duration_manipulation_targetAtFixation,jsons/VE125_randls_37.json,http://54.235.29.9/FacialAge/BNav_EC2/DepthDuration/v2_depth_duration_MTurk/v2_DepthDuration_HTML.html#418,418,1365,657,1366,768,8-30-2022,23-45-5,29,depth_duration_stimuli/000854_2014-06-09_19-43-13_260595134347_rgbf000066-resize_0/000854_2014-06-09_19-43-13_260595134347_rgbf000066-resize_0-target.png,125,3.068,0,1525,137,meters,jsons/VE125_randls_37.json,1078017,1332820,35,Man
29,207977,DepthScenes,duration_manipulation_targetAtFixation,jsons/VE125_randls_37.json,http://54.235.29.9/FacialAge/BNav_EC2/DepthDuration/v2_depth_duration_MTurk/v2_DepthDuration_HTML.html#418,418,1365,657,1366,768,8-30-2022,23-45-5,30,depth_duration_stimuli/000375_2014-06-08_11-17-29_260595134347_rgbf000133-resize_2/000375_2014-06-08_11-17-29_260595134347_rgbf000133-resize-original.jpg,125,4.718,0,1668,128,meters,jsons/VE125_randls_37.json,1078017,1332820,35,Man
30,207977,DepthScenes,duration_manipulation_targetAtFixation,jsons/VE125_randls_37.json,http://54.235.29.9/FacialAge/BNav_EC2/DepthDuration/v2_depth_duration_MTurk/v2_DepthDuration_HTML.html#418,418,1365,657,1366,768,8-30-2022,23-45-5,31,depth_duration_stimuli/000506_2014-06-08_23-21-00_260595134347_rgbf000070-resize_7/000506_2014-06-08_23-21-00_260595134347_rgbf000070-resize_7-target.png,125,4.0585,0,1503,117,meters,jsons/VE125_randls_37.json,1078017,1332820,35,Man
31,207977,DepthScenes,duration_manipulation_targetAtFixation,jsons/VE125_randls_37.json,http://54.235.29.9/FacialAge/BNav_EC2/DepthDuration/v2_depth_duration_MTurk/v2_DepthDuration_HTML.html#418,418,1365,657,1366,768,8-30-2022,23-45-5,32,depth_duration_stimuli/003079_2014-06-15_15-18-20_094959634447_rgbf000152-resize_8/003079_2014-06-15_15-18-20_094959634447_rgbf000152-resize_8-target.png,125,2.8775,0,1504,128,meters,jsons/VE125_randls_37.json,1078017,1332820,35,Man
32,207977,DepthScenes,duration_manipulation_targetAtFixation,jsons/VE125_randls_37.json,http://54.235.29.9/FacialAge/BNav_EC2/DepthDuration/v2_depth_duration_MTurk/v2_DepthDuration_HTML.html#418,418,1365,657,1366,768,8-30-2022,23-45-5,33,depth_duration_stimuli/003292_2014-05-14_21-53-49_094959634447_rgbf000100-resize_2/003292_2014-05-14_21-53-49_094959634447_rgbf000100-resize_2-target.png,125,3.4815,0,23658,122,meters,jsons/VE125_randls_37.json,1078017,1332820,35,Man
33,207977,DepthScenes,duration_manipulation_targetAtFixation,jsons/VE125_randls_37.json,http://54.235.29.9/FacialAge/BNav_EC2/DepthDuration/v2_depth_duration_MTurk/v2_DepthDuration_HTML.html#418,418,1365,657,1366,768,8-30-2022,23-45-5,34,depth_duration_stimuli/002639_2014-06-24_14-51-37_094959634447_rgbf000074-resize_4/002639_2014-06-24_14-51-37_094959634447_rgbf000074-resize_4-target.png,125,4.0375,0,1526,138,meters,jsons/VE125_randls_37.json,1078017,1332820,35,Man
34,207977,DepthScenes,duration_manipulation_targetAtFixation,jsons/VE125_randls_37.json,http://54.235.29.9/FacialAge/BNav_EC2/DepthDuration/v2_depth_duration_MTurk/v2_DepthDuration_HTML.html#418,418,1365,657,1366,768,8-30-2022,23-45-5,35,depth_duration_stimuli/002213_2014-06-28_18-37-58_260595134347_rgbf000055-resize_1/002213_2014-06-28_18-37-58_260595134347_rgbf000055-resize_1-target.png,125,3.62,0,4384,139,meters,jsons/VE125_randls_37.json,1078017,1332820,35,Man
35,207977,DepthScenes,duration_manipulation_targetAtFixation,jsons/VE125_randls_37.json,http://54.235.29.9/FacialAge/BNav_EC2/DepthDuration/v2_depth_duration_MTurk/v2_DepthDuration_HTML.html#418,418,1365,657,1366,768,8-30-2022,23-45-5,36,depth_duration_stimuli/000691_2014-06-08_13-08-50_260595134347_rgbf000132-resize_3/000691_2014-06-08_13-08-50_260595134347_rgbf000132-resize_3-target.png,125,4.1530000000000005,0,1508,128,meters,jsons/VE125_randls_37.json,1078017,1332820,35,Man
36,207977,DepthScenes,duration_manipulation_targetAtFixation,jsons/VE125_randls_37.json,http://54.235.29.9/FacialAge/BNav_EC2/DepthDuration/v2_depth_duration_MTurk/v2_DepthDuration_HTML.html#418,418,1365,657,1366,768,8-30-2022,23-45-5,37,depth_duration_stimuli/002748_2014-06-22_19-07-22_094959634447_rgbf000078-resize_1/002748_2014-06-22_19-07-22_094959634447_rgbf000078-resize_1-target.png,125,4.6705,0,1991,120,meters,jsons/VE125_randls_37.json,1078017,1332820,35,Man
37,207977,DepthScenes,duration_manipulation_targetAtFixation,jsons/VE125_randls_37.json,http://54.235.29.9/FacialAge/BNav_EC2/DepthDuration/v2_depth_duration_MTurk/v2_DepthDuration_HTML.html#418,418,1365,657,1366,768,8-30-2022,23-45-5,38,depth_duration_stimuli/002995_2014-06-15_12-31-26_094959634447_rgbf000150-resize_1/002995_2014-06-15_12-31-26_094959634447_rgbf000150-resize_1-target.png,125,3.8360000000000003,0,1989,110,meters,jsons/VE125_randls_37.json,1078017,1332820,35,Man
38,207977,DepthScenes,duration_manipulation_targetAtFixation,jsons/VE125_randls_37.json,http://54.235.29.9/FacialAge/BNav_EC2/DepthDuration/v2_depth_duration_MTurk/v2_DepthDuration_HTML.html#418,418,1365,657,1366,768,8-30-2022,23-45-5,39,depth_duration_stimuli/000810_2014-06-08_17-20-01_260595134347_rgbf000105-resize_0/000810_2014-06-08_17-20-01_260595134347_rgbf000105-resize_0-target.png,125,1.4865,0,3241,118,meters,jsons/VE125_randls_37.json,1078017,1332820,35,Man
39,207977,DepthScenes,duration_manipulation_targetAtFixation,jsons/VE125_randls_37.json,http://54.235.29.9/FacialAge/BNav_EC2/DepthDuration/v2_depth_duration_MTurk/v2_DepthDuration_HTML.html#418,418,1365,657,1366,768,8-30-2022,23-45-5,40,depth_duration_stimuli/001214_2014-06-17_16-13-55_260595134347_rgbf000111-resize_0/001214_2014-06-17_16-13-55_260595134347_rgbf000111-resize_0-target.png,125,2.6505,0,1521,108,meters,jsons/VE125_randls_37.json,1078017,1332820,35,Man
40,207977,DepthScenes,duration_manipulation_targetAtFixation,jsons/VE125_randls_37.json,http://54.235.29.9/FacialAge/BNav_EC2/DepthDuration/v2_depth_duration_MTurk/v2_DepthDuration_HTML.html#418,418,1365,657,1366,768,8-30-2022,23-45-5,41,depth_duration_stimuli/002039_2014-06-24_20-22-38_260595134347_rgbf000084-resize_1/002039_2014-06-24_20-22-38_260595134347_rgbf000084-resize_1-target.png,125,4.408,0,1418,128,meters,jsons/VE125_randls_37.json,1078017,1332820,35,Man
41,207977,DepthScenes,duration_manipulation_targetAtFixation,jsons/VE125_randls_37.json,http://54.235.29.9/FacialAge/BNav_EC2/DepthDuration/v2_depth_duration_MTurk/v2_DepthDuration_HTML.html#418,418,1365,657,1366,768,8-30-2022,23-45-5,42,depth_duration_stimuli/002103_2014-06-25_20-00-40_260595134347_rgbf000049-resize_0/002103_2014-06-25_20-00-40_260595134347_rgbf000049-resize_0-target.png,125,4.105,0,1438,133,meters,jsons/VE125_randls_37.json,1078017,1332820,35,Man
42,207977,DepthScenes,duration_manipulation_targetAtFixation,jsons/VE125_randls_37.json,http://54.235.29.9/FacialAge/BNav_EC2/DepthDuration/v2_depth_duration_MTurk/v2_DepthDuration_HTML.html#418,418,1365,657,1366,768,8-30-2022,23-45-5,43,depth_duration_stimuli/001011_2014-06-08_23-18-54_260595134347_rgbf000044-resize_4/001011_2014-06-08_23-18-54_260595134347_rgbf000044-resize_4-target.png,125,2.4730000000000003,0,1482,138,meters,jsons/VE125_randls_37.json,1078017,1332820,35,Man
43,207977,DepthScenes,duration_manipulation_targetAtFixation,jsons/VE125_randls_37.json,http://54.235.29.9/FacialAge/BNav_EC2/DepthDuration/v2_depth_duration_MTurk/v2_DepthDuration_HTML.html#418,418,1365,657,1366,768,8-30-2022,23-45-5,44,depth_duration_stimuli/002875_2014-06-01_15-19-00_094959634447_rgbf000151-resize_1/002875_2014-06-01_15-19-00_094959634447_rgbf000151-resize_1-target.png,125,1.9675,0,1465,118,meters,jsons/VE125_randls_37.json,1078017,1332820,35,Man
44,207977,DepthScenes,duration_manipulation_targetAtFixation,jsons/VE125_randls_37.json,http://54.235.29.9/FacialAge/BNav_EC2/DepthDuration/v2_depth_duration_MTurk/v2_DepthDuration_HTML.html#418,418,1365,657,1366,768,8-30-2022,23-45-5,45,depth_duration_stimuli/000787_2014-06-08_22-33-53_260595134347_rgbf000175-resize_1/000787_2014-06-08_22-33-53_260595134347_rgbf000175-resize-original.jpg,125,4.784,0,1543,138,meters,jsons/VE125_randls_37.json,1078017,1332820,35,Man
45,207977,DepthScenes,duration_manipulation_targetAtFixation,jsons/VE125_randls_37.json,http://54.235.29.9/FacialAge/BNav_EC2/DepthDuration/v2_depth_duration_MTurk/v2_DepthDuration_HTML.html#418,418,1365,657,1366,768,8-30-2022,23-45-5,46,depth_duration_stimuli/002272_2014-06-28_18-53-56_260595134347_rgbf000067-resize_2/002272_2014-06-28_18-53-56_260595134347_rgbf000067-resize_2-target.png,125,1.138,0,1493,127,meters,jsons/VE125_randls_37.json,1078017,1332820,35,Man
46,207977,DepthScenes,duration_manipulation_targetAtFixation,jsons/VE125_randls_37.json,http://54.235.29.9/FacialAge/BNav_EC2/DepthDuration/v2_depth_duration_MTurk/v2_DepthDuration_HTML.html#418,418,1365,657,1366,768,8-30-2022,23-45-5,47,depth_duration_stimuli/001571_2014-06-20_17-21-32_260595134347_rgbf000089-resize_1/001571_2014-06-20_17-21-32_260595134347_rgbf000089-resize_1-target.png,125,1.86,0,1443,129,meters,jsons/VE125_randls_37.json,1078017,1332820,35,Man
47,207977,DepthScenes,duration_manipulation_targetAtFixation,jsons/VE125_randls_37.json,http://54.235.29.9/FacialAge/BNav_EC2/DepthDuration/v2_depth_duration_MTurk/v2_DepthDuration_HTML.html#418,418,1365,657,1366,768,8-30-2022,23-45-5,48,depth_duration_stimuli/002989_2014-06-15_12-25-03_094959634447_rgbf000150-resize_3/002989_2014-06-15_12-25-03_094959634447_rgbf000150-resize_3-target.png,125,4.1975,0,1481,118,meters,jsons/VE125_randls_37.json,1078017,1332820,35,Man
48,207977,DepthScenes,duration_manipulation_targetAtFixation,jsons/VE125_randls_37.json,http://54.235.29.9/FacialAge/BNav_EC2/DepthDuration/v2_depth_duration_MTurk/v2_DepthDuration_HTML.html#418,418,1365,657,1366,768,8-30-2022,23-45-5,49,depth_duration_stimuli/000866_2014-06-09_20-45-42_260595134347_rgbf000139-resize_1/000866_2014-06-09_20-45-42_260595134347_rgbf000139-resize_1-target.png,125,3.2155,0,1459,117,meters,jsons/VE125_randls_37.json,1078017,1332820,35,Man
49,207977,DepthScenes,duration_manipulation_targetAtFixation,jsons/VE125_randls_37.json,http://54.235.29.9/FacialAge/BNav_EC2/DepthDuration/v2_depth_duration_MTurk/v2_DepthDuration_HTML.html#418,418,1365,657,1366,768,8-30-2022,23-45-5,50,depth_duration_stimuli/002549_2014-06-24_13-41-39_094959634447_rgbf000022-resize_3/002549_2014-06-24_13-41-39_094959634447_rgbf000022-resize_3-target.png,125,1.476,0,1428,118,meters,jsons/VE125_randls_37.json,1078017,1332820,35,Man
50,207977,DepthScenes,duration_manipulation_targetAtFixation,jsons/VE125_randls_37.json,http://54.235.29.9/FacialAge/BNav_EC2/DepthDuration/v2_depth_duration_MTurk/v2_DepthDuration_HTML.html#418,418,1365,657,1366,768,8-30-2022,23-45-5,51,depth_duration_stimuli/002750_2014-06-22_19-08-03_094959634447_rgbf000094-resize_4/002750_2014-06-22_19-08-03_094959634447_rgbf000094-resize_4-target.png,125,2.354,0,1322,118,meters,jsons/VE125_randls_37.json,1078017,1332820,35,Man
51,207977,DepthScenes,duration_manipulation_targetAtFixation,jsons/VE125_randls_37.json,http://54.235.29.9/FacialAge/BNav_EC2/DepthDuration/v2_depth_duration_MTurk/v2_DepthDuration_HTML.html#418,418,1365,657,1366,768,8-30-2022,23-45-5,52,depth_duration_stimuli/001016_2014-06-09_16-16-10_260595134347_rgbf000112-resize_5/001016_2014-06-09_16-16-10_260595134347_rgbf000112-resize_5-target.png,125,1.6565,0,1273,119,meters,jsons/VE125_randls_37.json,1078017,1332820,35,Man
52,207977,DepthScenes,duration_manipulation_targetAtFixation,jsons/VE125_randls_37.json,http://54.235.29.9/FacialAge/BNav_EC2/DepthDuration/v2_depth_duration_MTurk/v2_DepthDuration_HTML.html#418,418,1365,657,1366,768,8-30-2022,23-45-5,53,depth_duration_stimuli/002340_2014-06-28_20-05-46_260595134347_rgbf000113-resize_0/002340_2014-06-28_20-05-46_260595134347_rgbf000113-resize_0-target.png,125,2.4735,0,1185,118,meters,jsons/VE125_randls_37.json,1078017,1332820,35,Man
53,207977,DepthScenes,duration_manipulation_targetAtFixation,jsons/VE125_randls_37.json,http://54.235.29.9/FacialAge/BNav_EC2/DepthDuration/v2_depth_duration_MTurk/v2_DepthDuration_HTML.html#418,418,1365,657,1366,768,8-30-2022,23-45-5,54,depth_duration_stimuli/000469_2014-06-09_19-42-10_260595134347_rgbf000081-resize_1/000469_2014-06-09_19-42-10_260595134347_rgbf000081-resize_1-target.png,125,1.652,0,1216,128,meters,jsons/VE125_randls_37.json,1078017,1332820,35,Man
54,207977,DepthScenes,duration_manipulation_targetAtFixation,jsons/VE125_randls_37.json,http://54.235.29.9/FacialAge/BNav_EC2/DepthDuration/v2_depth_duration_MTurk/v2_DepthDuration_HTML.html#418,418,1365,657,1366,768,8-30-2022,23-45-5,55,depth_duration_stimuli/000483_2014-06-09_20-41-45_260595134347_rgbf000116-resize_4/000483_2014-06-09_20-41-45_260595134347_rgbf000116-resize_4-target.png,125,1.337,0,1170,127,meters,jsons/VE125_randls_37.json,1078017,1332820,35,Man
55,207977,DepthScenes,duration_manipulation_targetAtFixation,jsons/VE125_randls_37.json,http://54.235.29.9/FacialAge/BNav_EC2/DepthDuration/v2_depth_duration_MTurk/v2_DepthDuration_HTML.html#418,418,1365,657,1366,768,8-30-2022,23-45-5,56,depth_duration_stimuli/002118_2014-06-25_20-32-08_260595134347_rgbf000078-resize_1/002118_2014-06-25_20-32-08_260595134347_rgbf000078-resize_1-target.png,125,2.6460000000000004,0,2508,124,meters,jsons/VE125_randls_37.json,1078017,1332820,35,Man
56,207977,DepthScenes,duration_manipulation_targetAtFixation,jsons/VE125_randls_37.json,http://54.235.29.9/FacialAge/BNav_EC2/DepthDuration/v2_depth_duration_MTurk/v2_DepthDuration_HTML.html#418,418,1365,657,1366,768,8-30-2022,23-45-5,57,depth_duration_stimuli/001516_2014-06-20_16-25-09_260595134347_rgbf000076-resize_2/001516_2014-06-20_16-25-09_260595134347_rgbf000076-resize_2-target.png,125,1.7445,0,21327,140,meters,jsons/VE125_randls_37.json,1078017,1332820,35,Man
57,207977,DepthScenes,duration_manipulation_targetAtFixation,jsons/VE125_randls_37.json,http://54.235.29.9/FacialAge/BNav_EC2/DepthDuration/v2_depth_duration_MTurk/v2_DepthDuration_HTML.html#418,418,1365,657,1366,768,8-30-2022,23-45-5,58,depth_duration_stimuli/002663_2014-06-13_15-50-26_094959634447_rgbf000075-resize_1/002663_2014-06-13_15-50-26_094959634447_rgbf000075-resize_1-target.png,125,4.7495,0,1528,127,meters,jsons/VE125_randls_37.json,1078017,1332820,35,Man
58,207977,DepthScenes,duration_manipulation_targetAtFixation,jsons/VE125_randls_37.json,http://54.235.29.9/FacialAge/BNav_EC2/DepthDuration/v2_depth_duration_MTurk/v2_DepthDuration_HTML.html#418,418,1365,657,1366,768,8-30-2022,23-45-5,59,depth_duration_stimuli/000409_2014-06-04_19-23-33_260595134347_rgbf000067-resize_0/000409_2014-06-04_19-23-33_260595134347_rgbf000067-resize_0-target.png,125,3.7335,0,3147,121,meters,jsons/VE125_randls_37.json,1078017,1332820,35,Man
59,207977,DepthScenes,duration_manipulation_targetAtFixation,jsons/VE125_randls_37.json,http://54.235.29.9/FacialAge/BNav_EC2/DepthDuration/v2_depth_duration_MTurk/v2_DepthDuration_HTML.html#418,418,1365,657,1366,768,8-30-2022,23-45-5,60,depth_duration_stimuli/002509_2014-06-24_13-19-22_094959634447_rgbf000077-resize_0/002509_2014-06-24_13-19-22_094959634447_rgbf000077-resize_0-target.png,125,1.3065,0,1428,128,meters,jsons/VE125_randls_37.json,1078017,1332820,35,Man
60,207977,DepthScenes,duration_manipulation_targetAtFixation,jsons/VE125_randls_37.json,http://54.235.29.9/FacialAge/BNav_EC2/DepthDuration/v2_depth_duration_MTurk/v2_DepthDuration_HTML.html#418,418,1365,657,1366,768,8-30-2022,23-45-5,61,depth_duration_stimuli/003338_2014-05-20_11-01-23_094959634447_rgbf000051-resize_6/003338_2014-05-20_11-01-23_094959634447_rgbf000051-resize_6-target.png,125,1.693,0,1341,129,meters,jsons/VE125_randls_37.json,1078017,1332820,35,Man
61,207977,DepthScenes,duration_manipulation_targetAtFixation,jsons/VE125_randls_37.json,http://54.235.29.9/FacialAge/BNav_EC2/DepthDuration/v2_depth_duration_MTurk/v2_DepthDuration_HTML.html#418,418,1365,657,1366,768,8-30-2022,23-45-5,62,depth_duration_stimuli/001570_2014-06-20_17-21-09_260595134347_rgbf000135-resize_4/001570_2014-06-20_17-21-09_260595134347_rgbf000135-resize_4-target.png,125,4.467,0,1425,118,meters,jsons/VE125_randls_37.json,1078017,1332820,35,Man
62,207977,DepthScenes,duration_manipulation_targetAtFixation,jsons/VE125_randls_37.json,http://54.235.29.9/FacialAge/BNav_EC2/DepthDuration/v2_depth_duration_MTurk/v2_DepthDuration_HTML.html#418,418,1365,657,1366,768,8-30-2022,23-45-5,63,depth_duration_stimuli/001392_2014-06-19_16-07-59_260595134347_rgbf000046-resize_1/001392_2014-06-19_16-07-59_260595134347_rgbf000046-resize_1-target.png,125,4.135,0,1364,118,meters,jsons/VE125_randls_37.json,1078017,1332820,35,Man
63,207977,DepthScenes,duration_manipulation_targetAtFixation,jsons/VE125_randls_37.json,http://54.235.29.9/FacialAge/BNav_EC2/DepthDuration/v2_depth_duration_MTurk/v2_DepthDuration_HTML.html#418,418,1365,657,1366,768,8-30-2022,23-45-5,64,depth_duration_stimuli/000682_2014-06-08_23-14-58_260595134347_rgbf000041-resize_5/000682_2014-06-08_23-14-58_260595134347_rgbf000041-resize_5-target.png,125,2.7239999999999998,0,1336,118,meters,jsons/VE125_randls_37.json,1078017,1332820,35,Man
64,207977,DepthScenes,duration_manipulation_targetAtFixation,jsons/VE125_randls_37.json,http://54.235.29.9/FacialAge/BNav_EC2/DepthDuration/v2_depth_duration_MTurk/v2_DepthDuration_HTML.html#418,418,1365,657,1366,768,8-30-2022,23-45-5,65,depth_duration_stimuli/001650_2014-06-20_12-09-00_260595134347_rgbf000087-resize_3/001650_2014-06-20_12-09-00_260595134347_rgbf000087-resize_3-target.png,125,1.9505,0,1332,127,meters,jsons/VE125_randls_37.json,1078017,1332820,35,Man
65,207977,DepthScenes,duration_manipulation_targetAtFixation,jsons/VE125_randls_37.json,http://54.235.29.9/FacialAge/BNav_EC2/DepthDuration/v2_depth_duration_MTurk/v2_DepthDuration_HTML.html#418,418,1365,657,1366,768,8-30-2022,23-45-5,66,depth_duration_stimuli/001222_2014-06-17_16-24-06_260595134347_rgbf000073-resize_0/001222_2014-06-17_16-24-06_260595134347_rgbf000073-resize-original.jpg,125,1.4385,0,1277,109,meters,jsons/VE125_randls_37.json,1078017,1332820,35,Man
66,207977,DepthScenes,duration_manipulation_targetAtFixation,jsons/VE125_randls_37.json,http://54.235.29.9/FacialAge/BNav_EC2/DepthDuration/v2_depth_duration_MTurk/v2_DepthDuration_HTML.html#418,418,1365,657,1366,768,8-30-2022,23-45-5,67,depth_duration_stimuli/000917_2014-06-09_22-45-29_260595134347_rgbf000149-resize_3/000917_2014-06-09_22-45-29_260595134347_rgbf000149-resize_3-target.png,125,4.1865,0,2754,138,meters,jsons/VE125_randls_37.json,1078017,1332820,35,Man
67,207977,DepthScenes,duration_manipulation_targetAtFixation,jsons/VE125_randls_37.json,http://54.235.29.9/FacialAge/BNav_EC2/DepthDuration/v2_depth_duration_MTurk/v2_DepthDuration_HTML.html#418,418,1365,657,1366,768,8-30-2022,23-45-5,68,depth_duration_stimuli/002323_2014-06-28_20-01-54_260595134347_rgbf000051-resize_4/002323_2014-06-28_20-01-54_260595134347_rgbf000051-resize_4-target.png,125,3.7310000000000003,0,1477,128,meters,jsons/VE125_randls_37.json,1078017,1332820,35,Man
68,207977,DepthScenes,duration_manipulation_targetAtFixation,jsons/VE125_randls_37.json,http://54.235.29.9/FacialAge/BNav_EC2/DepthDuration/v2_depth_duration_MTurk/v2_DepthDuration_HTML.html#418,418,1365,657,1366,768,8-30-2022,23-45-5,69,depth_duration_stimuli/001029_2014-06-08_13-17-57_260595134347_rgbf000065-resize_1/001029_2014-06-08_13-17-57_260595134347_rgbf000065-resize_1-target.png,125,3.0835,0,1384,119,meters,jsons/VE125_randls_37.json,1078017,1332820,35,Man
69,207977,DepthScenes,duration_manipulation_targetAtFixation,jsons/VE125_randls_37.json,http://54.235.29.9/FacialAge/BNav_EC2/DepthDuration/v2_depth_duration_MTurk/v2_DepthDuration_HTML.html#418,418,1365,657,1366,768,8-30-2022,23-45-5,70,depth_duration_stimuli/000677_2014-06-08_23-10-32_260595134347_rgbf000158-resize_6/000677_2014-06-08_23-10-32_260595134347_rgbf000158-resize_6-target.png,125,3.556,0,1432,119,meters,jsons/VE125_randls_37.json,1078017,1332820,35,Man
70,207977,DepthScenes,duration_manipulation_targetAtFixation,jsons/VE125_randls_37.json,http://54.235.29.9/FacialAge/BNav_EC2/DepthDuration/v2_depth_duration_MTurk/v2_DepthDuration_HTML.html#418,418,1365,657,1366,768,8-30-2022,23-45-5,71,depth_duration_stimuli/000739_2014-06-08_18-45-58_260595134347_rgbf000068-resize_1/000739_2014-06-08_18-45-58_260595134347_rgbf000068-resize_1-target.png,125,3.534,0,1398,123,meters,jsons/VE125_randls_37.json,1078017,1332820,35,Man
71,207977,DepthScenes,duration_manipulation_targetAtFixation,jsons/VE125_randls_37.json,http://54.235.29.9/FacialAge/BNav_EC2/DepthDuration/v2_depth_duration_MTurk/v2_DepthDuration_HTML.html#418,418,1365,657,1366,768,8-30-2022,23-45-5,72,depth_duration_stimuli/000734_2014-06-08_17-39-11_260595134347_rgbf000128-resize_2/000734_2014-06-08_17-39-11_260595134347_rgbf000128-resize_2-target.png,125,4.098,0,1412,127,meters,jsons/VE125_randls_37.json,1078017,1332820,35,Man
72,207977,DepthScenes,duration_manipulation_targetAtFixation,jsons/VE125_randls_37.json,http://54.235.29.9/FacialAge/BNav_EC2/DepthDuration/v2_depth_duration_MTurk/v2_DepthDuration_HTML.html#418,418,1365,657,1366,768,8-30-2022,23-45-5,73,depth_duration_stimuli/001808_2014-06-26_20-50-58_260595134347_rgbf000029-resize_1/001808_2014-06-26_20-50-58_260595134347_rgbf000029-resize_1-target.png,125,4.249,0,1429,132,meters,jsons/VE125_randls_37.json,1078017,1332820,35,Man
73,207977,DepthScenes,duration_manipulation_targetAtFixation,jsons/VE125_randls_37.json,http://54.235.29.9/FacialAge/BNav_EC2/DepthDuration/v2_depth_duration_MTurk/v2_DepthDuration_HTML.html#418,418,1365,657,1366,768,8-30-2022,23-45-5,74,depth_duration_stimuli/001815_2014-06-26_20-52-55_260595134347_rgbf000020-resize_0/001815_2014-06-26_20-52-55_260595134347_rgbf000020-resize_0-target.png,125,3.3865,0,1390,119,meters,jsons/VE125_randls_37.json,1078017,1332820,35,Man
74,207977,DepthScenes,duration_manipulation_targetAtFixation,jsons/VE125_randls_37.json,http://54.235.29.9/FacialAge/BNav_EC2/DepthDuration/v2_depth_duration_MTurk/v2_DepthDuration_HTML.html#418,418,1365,657,1366,768,8-30-2022,23-45-5,75,depth_duration_stimuli/001199_2014-06-17_16-03-48_260595134347_rgbf000077-resize_0/001199_2014-06-17_16-03-48_260595134347_rgbf000077-resize_0-target.png,125,3.4375,0,1388,118,meters,jsons/VE125_randls_37.json,1078017,1332820,35,Man
75,207977,DepthScenes,duration_manipulation_targetAtFixation,jsons/VE125_randls_37.json,http://54.235.29.9/FacialAge/BNav_EC2/DepthDuration/v2_depth_duration_MTurk/v2_DepthDuration_HTML.html#418,418,1365,657,1366,768,8-30-2022,23-45-5,76,depth_duration_stimuli/000502_2014-06-08_23-02-32_260595134347_rgbf000063-resize_4/000502_2014-06-08_23-02-32_260595134347_rgbf000063-resize_4-target.png,125,2.431,0,1458,119,meters,jsons/VE125_randls_37.json,1078017,1332820,35,Man
76,207977,DepthScenes,duration_manipulation_targetAtFixation,jsons/VE125_randls_37.json,http://54.235.29.9/FacialAge/BNav_EC2/DepthDuration/v2_depth_duration_MTurk/v2_DepthDuration_HTML.html#418,418,1365,657,1366,768,8-30-2022,23-45-5,77,depth_duration_stimuli/001167_2014-06-17_15-38-07_260595134347_rgbf000108-resize_0/001167_2014-06-17_15-38-07_260595134347_rgbf000108-resize_0-target.png,125,1.8505,0,1340,128,meters,jsons/VE125_randls_37.json,1078017,1332820,35,Man
77,207977,DepthScenes,duration_manipulation_targetAtFixation,jsons/VE125_randls_37.json,http://54.235.29.9/FacialAge/BNav_EC2/DepthDuration/v2_depth_duration_MTurk/v2_DepthDuration_HTML.html#418,418,1365,657,1366,768,8-30-2022,23-45-5,78,depth_duration_stimuli/003587_2014-05-23_16-48-02_094959634447_rgbf002384-resize_2/003587_2014-05-23_16-48-02_094959634447_rgbf002384-resize_2-target.png,125,1.357,0,1360,123,meters,jsons/VE125_randls_37.json,1078017,1332820,35,Man
78,207977,DepthScenes,duration_manipulation_targetAtFixation,jsons/VE125_randls_37.json,http://54.235.29.9/FacialAge/BNav_EC2/DepthDuration/v2_depth_duration_MTurk/v2_DepthDuration_HTML.html#418,418,1365,657,1366,768,8-30-2022,23-45-5,79,depth_duration_stimuli/002784_2014-06-22_19-26-30_094959634447_rgbf000083-resize_3/002784_2014-06-22_19-26-30_094959634447_rgbf000083-resize_3-target.png,125,1.8046666666667,0,1242,118,meters,jsons/VE125_randls_37.json,1078017,1332820,35,Man
79,207977,DepthScenes,duration_manipulation_targetAtFixation,jsons/VE125_randls_37.json,http://54.235.29.9/FacialAge/BNav_EC2/DepthDuration/v2_depth_duration_MTurk/v2_DepthDuration_HTML.html#418,418,1365,657,1366,768,8-30-2022,23-45-5,80,depth_duration_stimuli/001100_2014-06-15_17-46-26_260595134347_rgbf000225-resize_2/001100_2014-06-15_17-46-26_260595134347_rgbf000225-resize_2-target.png,125,2.24,0,1232,118,meters,jsons/VE125_randls_37.json,1078017,1332820,35,Man
80,207977,DepthScenes,duration_manipulation_targetAtFixation,jsons/VE125_randls_37.json,http://54.235.29.9/FacialAge/BNav_EC2/DepthDuration/v2_depth_duration_MTurk/v2_DepthDuration_HTML.html#418,418,1365,657,1366,768,8-30-2022,23-45-5,81,depth_duration_stimuli/001806_2014-06-26_20-50-20_260595134347_rgbf000091-resize_1/001806_2014-06-26_20-50-20_260595134347_rgbf000091-resize_1-target.png,125,2.7305,0,1213,119,meters,jsons/VE125_randls_37.json,1078017,1332820,35,Man
81,207977,DepthScenes,duration_manipulation_targetAtFixation,jsons/VE125_randls_37.json,http://54.235.29.9/FacialAge/BNav_EC2/DepthDuration/v2_depth_duration_MTurk/v2_DepthDuration_HTML.html#418,418,1365,657,1366,768,8-30-2022,23-45-5,82,depth_duration_stimuli/001617_2014-06-20_11-35-32_260595134347_rgbf000066-resize_1/001617_2014-06-20_11-35-32_260595134347_rgbf000066-resize_1-target.png,125,3.7910000000000004,0,1296,118,meters,jsons/VE125_randls_37.json,1078017,1332820,35,Man
82,207977,DepthScenes,duration_manipulation_targetAtFixation,jsons/VE125_randls_37.json,http://54.235.29.9/FacialAge/BNav_EC2/DepthDuration/v2_depth_duration_MTurk/v2_DepthDuration_HTML.html#418,418,1365,657,1366,768,8-30-2022,23-45-5,83,depth_duration_stimuli/001150_2014-06-17_15-27-34_260595134347_rgbf000108-resize_2/001150_2014-06-17_15-27-34_260595134347_rgbf000108-resize_2-target.png,125,4.0325,0,3481,128,meters,jsons/VE125_randls_37.json,1078017,1332820,35,Man
83,207977,DepthScenes,duration_manipulation_targetAtFixation,jsons/VE125_randls_37.json,http://54.235.29.9/FacialAge/BNav_EC2/DepthDuration/v2_depth_duration_MTurk/v2_DepthDuration_HTML.html#418,418,1365,657,1366,768,8-30-2022,23-45-5,84,depth_duration_stimuli/000665_2014-06-09_20-42-35_260595134347_rgbf000110-resize_1/000665_2014-06-09_20-42-35_260595134347_rgbf000110-resize_1-target.png,125,3.057,0,8868,113,meters,jsons/VE125_randls_37.json,1078017,1332820,35,Man
84,207977,DepthScenes,duration_manipulation_targetAtFixation,jsons/VE125_randls_37.json,http://54.235.29.9/FacialAge/BNav_EC2/DepthDuration/v2_depth_duration_MTurk/v2_DepthDuration_HTML.html#418,418,1365,657,1366,768,8-30-2022,23-45-5,85,depth_duration_stimuli/001158_2014-06-17_15-32-16_260595134347_rgbf000138-resize_2/001158_2014-06-17_15-32-16_260595134347_rgbf000138-resize_2-target.png,125,4.5315,0,53906,125,meters,jsons/VE125_randls_37.json,1078017,1332820,35,Man
85,207977,DepthScenes,duration_manipulation_targetAtFixation,jsons/VE125_randls_37.json,http://54.235.29.9/FacialAge/BNav_EC2/DepthDuration/v2_depth_duration_MTurk/v2_DepthDuration_HTML.html#418,418,1365,657,1366,768,8-30-2022,23-45-5,86,depth_duration_stimuli/000556_2014-06-09_22-42-56_260595134347_rgbf000214-resize_1/000556_2014-06-09_22-42-56_260595134347_rgbf000214-resize_1-target.png,125,4.8415,0,3252,118,meters,jsons/VE125_randls_37.json,1078017,1332820,35,Man
86,207977,DepthScenes,duration_manipulation_targetAtFixation,jsons/VE125_randls_37.json,http://54.235.29.9/FacialAge/BNav_EC2/DepthDuration/v2_depth_duration_MTurk/v2_DepthDuration_HTML.html#418,418,1365,657,1366,768,8-30-2022,23-45-5,87,depth_duration_stimuli/000368_2014-06-09_15-53-01_260595134347_rgbf000155-resize_2/000368_2014-06-09_15-53-01_260595134347_rgbf000155-resize_2-target.png,125,2.4859999999999998,0,2531,121,meters,jsons/VE125_randls_37.json,1078017,1332820,35,Man
87,207977,DepthScenes,duration_manipulation_targetAtFixation,jsons/VE125_randls_37.json,http://54.235.29.9/FacialAge/BNav_EC2/DepthDuration/v2_depth_duration_MTurk/v2_DepthDuration_HTML.html#418,418,1365,657,1366,768,8-30-2022,23-45-5,88,depth_duration_stimuli/002678_2014-06-13_16-15-32_094959634447_rgbf000151-resize_6/002678_2014-06-13_16-15-32_094959634447_rgbf000151-resize_6-target.png,125,2.1830000000000003,0,1461,113,meters,jsons/VE125_randls_37.json,1078017,1332820,35,Man
88,207977,DepthScenes,duration_manipulation_targetAtFixation,jsons/VE125_randls_37.json,http://54.235.29.9/FacialAge/BNav_EC2/DepthDuration/v2_depth_duration_MTurk/v2_DepthDuration_HTML.html#418,418,1365,657,1366,768,8-30-2022,23-45-5,89,depth_duration_stimuli/002964_2014-06-08_17-46-11_094959634447_rgbf000091-resize_4/002964_2014-06-08_17-46-11_094959634447_rgbf000091-resize_4-target.png,125,1.6909999999999998,0,1426,128,meters,jsons/VE125_randls_37.json,1078017,1332820,35,Man
89,207977,DepthScenes,duration_manipulation_targetAtFixation,jsons/VE125_randls_37.json,http://54.235.29.9/FacialAge/BNav_EC2/DepthDuration/v2_depth_duration_MTurk/v2_DepthDuration_HTML.html#418,418,1365,657,1366,768,8-30-2022,23-45-5,90,depth_duration_stimuli/002136_2014-06-25_21-18-03_260595134347_rgbf000109-resize_3/002136_2014-06-25_21-18-03_260595134347_rgbf000109-resize_3-target.png,125,1.9569999999999999,0,1582,117,meters,jsons/VE125_randls_37.json,1078017,1332820,35,Man
90,207977,DepthScenes,duration_manipulation_targetAtFixation,jsons/VE125_randls_37.json,http://54.235.29.9/FacialAge/BNav_EC2/DepthDuration/v2_depth_duration_MTurk/v2_DepthDuration_HTML.html#418,418,1365,657,1366,768,8-30-2022,23-45-5,91,depth_duration_stimuli/001244_2014-06-17_16-47-45_260595134347_rgbf000030-resize_4/001244_2014-06-17_16-47-45_260595134347_rgbf000030-resize_4-target.png,125,2.0425,0,1461,128,meters,jsons/VE125_randls_37.json,1078017,1332820,35,Man
91,207977,DepthScenes,duration_manipulation_targetAtFixation,jsons/VE125_randls_37.json,http://54.235.29.9/FacialAge/BNav_EC2/DepthDuration/v2_depth_duration_MTurk/v2_DepthDuration_HTML.html#418,418,1365,657,1366,768,8-30-2022,23-45-5,92,depth_duration_stimuli/003495_2014-05-21_16-01-51_094959634447_rgbf000100-resize_3/003495_2014-05-21_16-01-51_094959634447_rgbf000100-resize_3-target.png,125,1.6255,0,1453,128,meters,jsons/VE125_randls_37.json,1078017,1332820,35,Man
92,207977,DepthScenes,duration_manipulation_targetAtFixation,jsons/VE125_randls_37.json,http://54.235.29.9/FacialAge/BNav_EC2/DepthDuration/v2_depth_duration_MTurk/v2_DepthDuration_HTML.html#418,418,1365,657,1366,768,8-30-2022,23-45-5,93,depth_duration_stimuli/002375_2014-06-28_20-13-44_260595134347_rgbf000032-resize_1/002375_2014-06-28_20-13-44_260595134347_rgbf000032-resize_1-target.png,125,4.0175,0,1408,118,meters,jsons/VE125_randls_37.json,1078017,1332820,35,Man
93,207977,DepthScenes,duration_manipulation_targetAtFixation,jsons/VE125_randls_37.json,http://54.235.29.9/FacialAge/BNav_EC2/DepthDuration/v2_depth_duration_MTurk/v2_DepthDuration_HTML.html#418,418,1365,657,1366,768,8-30-2022,23-45-5,94,depth_duration_stimuli/002657_2014-06-13_15-29-54_094959634447_rgbf000150-resize_1/002657_2014-06-13_15-29-54_094959634447_rgbf000150-resize_1-target.png,125,4.919,0,1401,119,meters,jsons/VE125_randls_37.json,1078017,1332820,35,Man
94,207977,DepthScenes,duration_manipulation_targetAtFixation,jsons/VE125_randls_37.json,http://54.235.29.9/FacialAge/BNav_EC2/DepthDuration/v2_depth_duration_MTurk/v2_DepthDuration_HTML.html#418,418,1365,657,1366,768,8-30-2022,23-45-5,95,depth_duration_stimuli/003534_2014-05-22_15-06-10_094959634447_rgbf000102-resize_4/003534_2014-05-22_15-06-10_094959634447_rgbf000102-resize_4-target.png,125,1.426,0,1331,119,meters,jsons/VE125_randls_37.json,1078017,1332820,35,Man
95,207977,DepthScenes,duration_manipulation_targetAtFixation,jsons/VE125_randls_37.json,http://54.235.29.9/FacialAge/BNav_EC2/DepthDuration/v2_depth_duration_MTurk/v2_DepthDuration_HTML.html#418,418,1365,657,1366,768,8-30-2022,23-45-5,96,depth_duration_stimuli/002637_2014-06-24_14-51-13_094959634447_rgbf000066-resize_4/002637_2014-06-24_14-51-13_094959634447_rgbf000066-resize_4-target.png,125,1.9955,0,1290,119,meters,jsons/VE125_randls_37.json,1078017,1332820,35,Man
96,207977,DepthScenes,duration_manipulation_targetAtFixation,jsons/VE125_randls_37.json,http://54.235.29.9/FacialAge/BNav_EC2/DepthDuration/v2_depth_duration_MTurk/v2_DepthDuration_HTML.html#418,418,1365,657,1366,768,8-30-2022,23-45-5,97,depth_duration_stimuli/001449_2014-06-19_17-01-27_260595134347_rgbf000116-resize_2/001449_2014-06-19_17-01-27_260595134347_rgbf000116-resize_2-target.png,125,3.452,0,2471,117,meters,jsons/VE125_randls_37.json,1078017,1332820,35,Man
97,207977,DepthScenes,duration_manipulation_targetAtFixation,jsons/VE125_randls_37.json,http://54.235.29.9/FacialAge/BNav_EC2/DepthDuration/v2_depth_duration_MTurk/v2_DepthDuration_HTML.html#418,418,1365,657,1366,768,8-30-2022,23-45-5,98,depth_duration_stimuli/001450_2014-06-19_17-02-03_260595134347_rgbf000203-resize_4/001450_2014-06-19_17-02-03_260595134347_rgbf000203-resize_4-target.png,125,4.0106666666667,0,1357,118,meters,jsons/VE125_randls_37.json,1078017,1332820,35,Man
98,207977,DepthScenes,duration_manipulation_targetAtFixation,jsons/VE125_randls_37.json,http://54.235.29.9/FacialAge/BNav_EC2/DepthDuration/v2_depth_duration_MTurk/v2_DepthDuration_HTML.html#418,418,1365,657,1366,768,8-30-2022,23-45-5,99,depth_duration_stimuli/001540_2014-06-20_17-01-05_260595134347_rgbf000086-resize_2/001540_2014-06-20_17-01-05_260595134347_rgbf000086-resize-original.jpg,125,1.459,0,1392,128,meters,jsons/VE125_randls_37.json,1078017,1332820,35,Man
99,207977,DepthScenes,duration_manipulation_targetAtFixation,jsons/VE125_randls_37.json,http://54.235.29.9/FacialAge/BNav_EC2/DepthDuration/v2_depth_duration_MTurk/v2_DepthDuration_HTML.html#418,418,1365,657,1366,768,8-30-2022,23-45-5,100,depth_duration_stimuli/000788_2014-06-08_22-34-36_260595134347_rgbf000131-resize_1/000788_2014-06-08_22-34-36_260595134347_rgbf000131-resize_1-target.png,125,3.359,0,1329,119,meters,jsons/VE125_randls_37.json,1078017,1332820,35,Man
100,207977,DepthScenes,duration_manipulation_targetAtFixation,jsons/VE125_randls_37.json,http://54.235.29.9/FacialAge/BNav_EC2/DepthDuration/v2_depth_duration_MTurk/v2_DepthDuration_HTML.html#418,418,1365,657,1366,768,8-30-2022,23-45-5,101,depth_duration_stimuli/001235_2014-06-17_16-37-36_260595134347_rgbf000084-resize_4/001235_2014-06-17_16-37-36_260595134347_rgbf000084-resize_4-target.png,125,3.6605,0,2461,118,meters,jsons/VE125_randls_37.json,1078017,1332820,35,Man
101,207977,DepthScenes,duration_manipulation_targetAtFixation,jsons/VE125_randls_37.json,http://54.235.29.9/FacialAge/BNav_EC2/DepthDuration/v2_depth_duration_MTurk/v2_DepthDuration_HTML.html#418,418,1365,657,1366,768,8-30-2022,23-45-5,102,depth_duration_stimuli/001417_2014-06-19_16-25-36_260595134347_rgbf000115-resize_5/001417_2014-06-19_16-25-36_260595134347_rgbf000115-resize_5-target.png,125,4.6255,0,1484,109,meters,jsons/VE125_randls_37.json,1078017,1332820,35,Man
102,207977,DepthScenes,duration_manipulation_targetAtFixation,jsons/VE125_randls_37.json,http://54.235.29.9/FacialAge/BNav_EC2/DepthDuration/v2_depth_duration_MTurk/v2_DepthDuration_HTML.html#418,418,1365,657,1366,768,8-30-2022,23-45-5,103,depth_duration_stimuli/003081_2014-06-15_15-19-16_094959634447_rgbf000150-resize_1/003081_2014-06-15_15-19-16_094959634447_rgbf000150-resize_1-target.png,125,3.9125,0,1314,130,meters,jsons/VE125_randls_37.json,1078017,1332820,35,Man
103,207977,DepthScenes,duration_manipulation_targetAtFixation,jsons/VE125_randls_37.json,http://54.235.29.9/FacialAge/BNav_EC2/DepthDuration/v2_depth_duration_MTurk/v2_DepthDuration_HTML.html#418,418,1365,657,1366,768,8-30-2022,23-45-5,104,depth_duration_stimuli/000878_2014-06-08_22-52-45_260595134347_rgbf000045-resize_2/000878_2014-06-08_22-52-45_260595134347_rgbf000045-resize_2-target.png,125,2.092,0,1390,131,meters,jsons/VE125_randls_37.json,1078017,1332820,35,Man
104,207977,DepthScenes,duration_manipulation_targetAtFixation,jsons/VE125_randls_37.json,http://54.235.29.9/FacialAge/BNav_EC2/DepthDuration/v2_depth_duration_MTurk/v2_DepthDuration_HTML.html#418,418,1365,657,1366,768,8-30-2022,23-45-5,105,depth_duration_stimuli/002953_2014-06-08_17-32-18_094959634447_rgbf000059-resize_5/002953_2014-06-08_17-32-18_094959634447_rgbf000059-resize_5-target.png,125,1.551,0,2461,118,meters,jsons/VE125_randls_37.json,1078017,1332820,35,Man
105,207977,DepthScenes,duration_manipulation_targetAtFixation,jsons/VE125_randls_37.json,http://54.235.29.9/FacialAge/BNav_EC2/DepthDuration/v2_depth_duration_MTurk/v2_DepthDuration_HTML.html#418,418,1365,657,1366,768,8-30-2022,23-45-5,106,depth_duration_stimuli/000736_2014-06-08_18-24-15_260595134347_rgbf000206-resize_3/000736_2014-06-08_18-24-15_260595134347_rgbf000206-resize_3-target.png,125,3.515,0,1469,108,meters,jsons/VE125_randls_37.json,1078017,1332820,35,Man
106,207977,DepthScenes,duration_manipulation_targetAtFixation,jsons/VE125_randls_37.json,http://54.235.29.9/FacialAge/BNav_EC2/DepthDuration/v2_depth_duration_MTurk/v2_DepthDuration_HTML.html#418,418,1365,657,1366,768,8-30-2022,23-45-5,107,depth_duration_stimuli/000137_2014-05-20_17-04-49_260595134347_rgbf000120-resize_1/000137_2014-05-20_17-04-49_260595134347_rgbf000120-resize_1-target.png,125,3.786,0,1327,118,meters,jsons/VE125_randls_37.json,1078017,1332820,35,Man
107,207977,DepthScenes,duration_manipulation_targetAtFixation,jsons/VE125_randls_37.json,http://54.235.29.9/FacialAge/BNav_EC2/DepthDuration/v2_depth_duration_MTurk/v2_DepthDuration_HTML.html#418,418,1365,657,1366,768,8-30-2022,23-45-5,108,depth_duration_stimuli/001055_2014-06-08_18-45-35_260595134347_rgbf000111-resize_4/001055_2014-06-08_18-45-35_260595134347_rgbf000111-resize_4-target.png,125,2.4290000000000003,0,3413,133,meters,jsons/VE125_randls_37.json,1078017,1332820,35,Man
108,207977,DepthScenes,duration_manipulation_targetAtFixation,jsons/VE125_randls_37.json,http://54.235.29.9/FacialAge/BNav_EC2/DepthDuration/v2_depth_duration_MTurk/v2_DepthDuration_HTML.html#418,418,1365,657,1366,768,8-30-2022,23-45-5,109,depth_duration_stimuli/000549_2014-06-08_22-10-24_260595134347_rgbf000247-resize_3/000549_2014-06-08_22-10-24_260595134347_rgbf000247-resize_3-target.png,125,1.841,0,1620,128,meters,jsons/VE125_randls_37.json,1078017,1332820,35,Man
109,207977,DepthScenes,duration_manipulation_targetAtFixation,jsons/VE125_randls_37.json,http://54.235.29.9/FacialAge/BNav_EC2/DepthDuration/v2_depth_duration_MTurk/v2_DepthDuration_HTML.html#418,418,1365,657,1366,768,8-30-2022,23-45-5,110,depth_duration_stimuli/000486_2014-06-09_20-47-20_260595134347_rgbf000143-resize_2/000486_2014-06-09_20-47-20_260595134347_rgbf000143-resize_2-target.png,125,4.8325,0,2422,118,meters,jsons/VE125_randls_37.json,1078017,1332820,35,Man
110,207977,DepthScenes,duration_manipulation_targetAtFixation,jsons/VE125_randls_37.json,http://54.235.29.9/FacialAge/BNav_EC2/DepthDuration/v2_depth_duration_MTurk/v2_DepthDuration_HTML.html#418,418,1365,657,1366,768,8-30-2022,23-45-5,111,depth_duration_stimuli/003083_2014-06-15_15-21-03_094959634447_rgbf000063-resize_1/003083_2014-06-15_15-21-03_094959634447_rgbf000063-resize_1-target.png,125,4.1405,0,26348,108,meters,jsons/VE125_randls_37.json,1078017,1332820,35,Man
111,207977,DepthScenes,duration_manipulation_targetAtFixation,jsons/VE125_randls_37.json,http://54.235.29.9/FacialAge/BNav_EC2/DepthDuration/v2_depth_duration_MTurk/v2_DepthDuration_HTML.html#418,418,1365,657,1366,768,8-30-2022,23-45-5,112,depth_duration_stimuli/002788_2014-06-22_19-36-03_094959634447_rgbf000088-resize_2/002788_2014-06-22_19-36-03_094959634447_rgbf000088-resize_2-target.png,125,1.6465,0,2295,128,meters,jsons/VE125_randls_37.json,1078017,1332820,35,Man
112,207977,DepthScenes,duration_manipulation_targetAtFixation,jsons/VE125_randls_37.json,http://54.235.29.9/FacialAge/BNav_EC2/DepthDuration/v2_depth_duration_MTurk/v2_DepthDuration_HTML.html#418,418,1365,657,1366,768,8-30-2022,23-45-5,113,depth_duration_stimuli/000749_2014-06-08_21-55-06_260595134347_rgbf000070-resize_2/000749_2014-06-08_21-55-06_260595134347_rgbf000070-resize_2-target.png,125,2.331,0,37014,141,meters,jsons/VE125_randls_37.json,1078017,1332820,35,Man
113,207977,DepthScenes,duration_manipulation_targetAtFixation,jsons/VE125_randls_37.json,http://54.235.29.9/FacialAge/BNav_EC2/DepthDuration/v2_depth_duration_MTurk/v2_DepthDuration_HTML.html#418,418,1365,657,1366,768,8-30-2022,23-45-5,114,depth_duration_stimuli/000414_2014-06-04_19-49-13_260595134347_rgbf000044-resize_0/000414_2014-06-04_19-49-13_260595134347_rgbf000044-resize_0-target.png,125,4.329,0,1981,134,meters,jsons/VE125_randls_37.json,1078017,1332820,35,Man
114,207977,DepthScenes,duration_manipulation_targetAtFixation,jsons/VE125_randls_37.json,http://54.235.29.9/FacialAge/BNav_EC2/DepthDuration/v2_depth_duration_MTurk/v2_DepthDuration_HTML.html#418,418,1365,657,1366,768,8-30-2022,23-45-5,115,depth_duration_stimuli/003129_2014-05-12_10-48-10_094959634447_rgbf000100-resize_0/003129_2014-05-12_10-48-10_094959634447_rgbf000100-resize_0-target.png,125,4.9305,0,6317,113,meters,jsons/VE125_randls_37.json,1078017,1332820,35,Man
115,207977,DepthScenes,duration_manipulation_targetAtFixation,jsons/VE125_randls_37.json,http://54.235.29.9/FacialAge/BNav_EC2/DepthDuration/v2_depth_duration_MTurk/v2_DepthDuration_HTML.html#418,418,1365,657,1366,768,8-30-2022,23-45-5,116,depth_duration_stimuli/001170_2014-06-17_15-43-44_260595134347_rgbf000096-resize_6/001170_2014-06-17_15-43-44_260595134347_rgbf000096-resize-original.jpg,125,1.1909999999999998,0,3007,121,meters,jsons/VE125_randls_37.json,1078017,1332820,35,Man
116,207977,DepthScenes,duration_manipulation_targetAtFixation,jsons/VE125_randls_37.json,http://54.235.29.9/FacialAge/BNav_EC2/DepthDuration/v2_depth_duration_MTurk/v2_DepthDuration_HTML.html#418,418,1365,657,1366,768,8-30-2022,23-45-5,117,depth_duration_stimuli/002763_2014-06-22_19-13-10_094959634447_rgbf000075-resize_4/002763_2014-06-22_19-13-10_094959634447_rgbf000075-resize_4-target.png,125,1.68375,0,1614,128,meters,jsons/VE125_randls_37.json,1078017,1332820,35,Man
117,207977,DepthScenes,duration_manipulation_targetAtFixation,jsons/VE125_randls_37.json,http://54.235.29.9/FacialAge/BNav_EC2/DepthDuration/v2_depth_duration_MTurk/v2_DepthDuration_HTML.html#418,418,1365,657,1366,768,8-30-2022,23-45-5,118,depth_duration_stimuli/002209_2014-06-28_18-36-10_260595134347_rgbf000051-resize_1/002209_2014-06-28_18-36-10_260595134347_rgbf000051-resize_1-target.png,125,2.057,0,1469,127,meters,jsons/VE125_randls_37.json,1078017,1332820,35,Man
118,207977,DepthScenes,duration_manipulation_targetAtFixation,jsons/VE125_randls_37.json,http://54.235.29.9/FacialAge/BNav_EC2/DepthDuration/v2_depth_duration_MTurk/v2_DepthDuration_HTML.html#418,418,1365,657,1366,768,8-30-2022,23-45-5,119,depth_duration_stimuli/000436_2014-06-09_22-25-11_260595134347_rgbf000137-resize_1/000436_2014-06-09_22-25-11_260595134347_rgbf000137-resize_1-target.png,125,4.0705,0,1442,118,meters,jsons/VE125_randls_37.json,1078017,1332820,35,Man
119,207977,DepthScenes,duration_manipulation_targetAtFixation,jsons/VE125_randls_37.json,http://54.235.29.9/FacialAge/BNav_EC2/DepthDuration/v2_depth_duration_MTurk/v2_DepthDuration_HTML.html#418,418,1365,657,1366,768,8-30-2022,23-45-5,120,depth_duration_stimuli/002444_2014-06-28_20-32-08_260595134347_rgbf000027-resize_0/002444_2014-06-28_20-32-08_260595134347_rgbf000027-resize_0-target.png,125,4.388999999999999,0,1382,118,meters,jsons/VE125_randls_37.json,1078017,1332820,35,Man
120,207977,DepthScenes,duration_manipulation_targetAtFixation,jsons/VE125_randls_37.json,http://54.235.29.9/FacialAge/BNav_EC2/DepthDuration/v2_depth_duration_MTurk/v2_DepthDuration_HTML.html#418,418,1365,657,1366,768,8-30-2022,23-45-5,121,depth_duration_stimuli/002570_2014-06-24_13-59-54_094959634447_rgbf000059-resize_0/002570_2014-06-24_13-59-54_094959634447_rgbf000059-resize_0-target.png,125,4.037,0,1377,117,meters,jsons/VE125_randls_37.json,1078017,1332820,35,Man
121,207977,DepthScenes,duration_manipulation_targetAtFixation,jsons/VE125_randls_37.json,http://54.235.29.9/FacialAge/BNav_EC2/DepthDuration/v2_depth_duration_MTurk/v2_DepthDuration_HTML.html#418,418,1365,657,1366,768,8-30-2022,23-45-5,122,depth_duration_stimuli/002467_2014-06-28_20-38-07_260595134347_rgbf000026-resize_2/002467_2014-06-28_20-38-07_260595134347_rgbf000026-resize_2-target.png,125,4.742,0,1375,128,meters,jsons/VE125_randls_37.json,1078017,1332820,35,Man
122,207977,DepthScenes,duration_manipulation_targetAtFixation,jsons/VE125_randls_37.json,http://54.235.29.9/FacialAge/BNav_EC2/DepthDuration/v2_depth_duration_MTurk/v2_DepthDuration_HTML.html#418,418,1365,657,1366,768,8-30-2022,23-45-5,123,depth_duration_stimuli/003621_2014-05-23_18-06-08_094959634447_rgbf000101-resize_1/003621_2014-05-23_18-06-08_094959634447_rgbf000101-resize_1-target.png,125,3.9835,0,2484,127,meters,jsons/VE125_randls_37.json,1078017,1332820,35,Man
123,207977,DepthScenes,duration_manipulation_targetAtFixation,jsons/VE125_randls_37.json,http://54.235.29.9/FacialAge/BNav_EC2/DepthDuration/v2_depth_duration_MTurk/v2_DepthDuration_HTML.html#418,418,1365,657,1366,768,8-30-2022,23-45-5,124,depth_duration_stimuli/001584_2014-06-20_11-07-43_260595134347_rgbf000002-resize_1/001584_2014-06-20_11-07-43_260595134347_rgbf000002-resize_1-target.png,125,3.53,0,1652,121,meters,jsons/VE125_randls_37.json,1078017,1332820,35,Man
124,207977,DepthScenes,duration_manipulation_targetAtFixation,jsons/VE125_randls_37.json,http://54.235.29.9/FacialAge/BNav_EC2/DepthDuration/v2_depth_duration_MTurk/v2_DepthDuration_HTML.html#418,418,1365,657,1366,768,8-30-2022,23-45-5,125,depth_duration_stimuli/001555_2014-06-20_17-12-10_260595134347_rgbf000065-resize_4/001555_2014-06-20_17-12-10_260595134347_rgbf000065-resize_4-target.png,125,1.633,0,2638,118,meters,jsons/VE125_randls_37.json,1078017,1332820,35,Man
125,207977,DepthScenes,duration_manipulation_targetAtFixation,jsons/VE125_randls_37.json,http://54.235.29.9/FacialAge/BNav_EC2/DepthDuration/v2_depth_duration_MTurk/v2_DepthDuration_HTML.html#418,418,1365,657,1366,768,8-30-2022,23-45-5,126,depth_duration_stimuli/000103_2014-05-14_22-01-17_260595134347_rgbf000152-resize_5/000103_2014-05-14_22-01-17_260595134347_rgbf000152-resize_5-target.png,125,1.993,0,2218,118,meters,jsons/VE125_randls_37.json,1078017,1332820,35,Man
126,207977,DepthScenes,duration_manipulation_targetAtFixation,jsons/VE125_randls_37.json,http://54.235.29.9/FacialAge/BNav_EC2/DepthDuration/v2_depth_duration_MTurk/v2_DepthDuration_HTML.html#418,418,1365,657,1366,768,8-30-2022,23-45-5,127,depth_duration_stimuli/002630_2014-06-24_14-47-50_094959634447_rgbf000055-resize_1/002630_2014-06-24_14-47-50_094959634447_rgbf000055-resize_1-target.png,125,3.0095,0,1639,118,meters,jsons/VE125_randls_37.json,1078017,1332820,35,Man
127,207977,DepthScenes,duration_manipulation_targetAtFixation,jsons/VE125_randls_37.json,http://54.235.29.9/FacialAge/BNav_EC2/DepthDuration/v2_depth_duration_MTurk/v2_DepthDuration_HTML.html#418,418,1365,657,1366,768,8-30-2022,23-45-5,128,depth_duration_stimuli/002758_2014-06-22_19-11-20_094959634447_rgbf000128-resize_1/002758_2014-06-22_19-11-20_094959634447_rgbf000128-resize_1-target.png,125,2.555,0,1427,129,meters,jsons/VE125_randls_37.json,1078017,1332820,35,Man
128,207977,DepthScenes,duration_manipulation_targetAtFixation,jsons/VE125_randls_37.json,http://54.235.29.9/FacialAge/BNav_EC2/DepthDuration/v2_depth_duration_MTurk/v2_DepthDuration_HTML.html#418,418,1365,657,1366,768,8-30-2022,23-45-5,129,depth_duration_stimuli/001110_2014-06-15_17-25-28_260595134347_rgbf000150-resize_1/001110_2014-06-15_17-25-28_260595134347_rgbf000150-resize_1-target.png,125,1.7115,0,1397,118,meters,jsons/VE125_randls_37.json,1078017,1332820,35,Man
129,207977,DepthScenes,duration_manipulation_targetAtFixation,jsons/VE125_randls_37.json,http://54.235.29.9/FacialAge/BNav_EC2/DepthDuration/v2_depth_duration_MTurk/v2_DepthDuration_HTML.html#418,418,1365,657,1366,768,8-30-2022,23-45-5,130,depth_duration_stimuli/000927_2014-06-09_16-32-30_260595134347_rgbf000123-resize_3/000927_2014-06-09_16-32-30_260595134347_rgbf000123-resize_3-target.png,125,2.6785,0,1409,138,meters,jsons/VE125_randls_37.json,1078017,1332820,35,Man
130,207977,DepthScenes,duration_manipulation_targetAtFixation,jsons/VE125_randls_37.json,http://54.235.29.9/FacialAge/BNav_EC2/DepthDuration/v2_depth_duration_MTurk/v2_DepthDuration_HTML.html#418,418,1365,657,1366,768,8-30-2022,23-45-5,131,depth_duration_stimuli/000470_2014-06-09_19-42-40_260595134347_rgbf000094-resize_1/000470_2014-06-09_19-42-40_260595134347_rgbf000094-resize_1-target.png,125,1.831,0,1251,119,meters,jsons/VE125_randls_37.json,1078017,1332820,35,Man
131,207977,DepthScenes,duration_manipulation_targetAtFixation,jsons/VE125_randls_37.json,http://54.235.29.9/FacialAge/BNav_EC2/DepthDuration/v2_depth_duration_MTurk/v2_DepthDuration_HTML.html#418,418,1365,657,1366,768,8-30-2022,23-45-5,132,depth_duration_stimuli/000109_2014-05-14_23-41-52_260595134347_rgbf000035-resize_9/000109_2014-05-14_23-41-52_260595134347_rgbf000035-resize_9-target.png,125,1.3545,0,3203,128,meters,jsons/VE125_randls_37.json,1078017,1332820,35,Man
132,207977,DepthScenes,duration_manipulation_targetAtFixation,jsons/VE125_randls_37.json,http://54.235.29.9/FacialAge/BNav_EC2/DepthDuration/v2_depth_duration_MTurk/v2_DepthDuration_HTML.html#418,418,1365,657,1366,768,8-30-2022,23-45-5,133,depth_duration_stimuli/003492_2014-05-21_15-50-55_094959634447_rgbf000828-resize_1/003492_2014-05-21_15-50-55_094959634447_rgbf000828-resize_1-target.png,125,4.06875,0,1792,134,meters,jsons/VE125_randls_37.json,1078017,1332820,35,Man
133,207977,DepthScenes,duration_manipulation_targetAtFixation,jsons/VE125_randls_37.json,http://54.235.29.9/FacialAge/BNav_EC2/DepthDuration/v2_depth_duration_MTurk/v2_DepthDuration_HTML.html#418,418,1365,657,1366,768,8-30-2022,23-45-5,134,depth_duration_stimuli/002568_2014-06-24_13-59-21_094959634447_rgbf000062-resize_4/002568_2014-06-24_13-59-21_094959634447_rgbf000062-resize_4-target.png,125,3.015,0,1960,119,meters,jsons/VE125_randls_37.json,1078017,1332820,35,Man
134,207977,DepthScenes,duration_manipulation_targetAtFixation,jsons/VE125_randls_37.json,http://54.235.29.9/FacialAge/BNav_EC2/DepthDuration/v2_depth_duration_MTurk/v2_DepthDuration_HTML.html#418,418,1365,657,1366,768,8-30-2022,23-45-5,135,depth_duration_stimuli/002072_2014-06-24_21-48-06_260595134347_rgbf000115-resize_0/002072_2014-06-24_21-48-06_260595134347_rgbf000115-resize-original.jpg,125,4.702,0,1697,118,meters,jsons/VE125_randls_37.json,1078017,1332820,35,Man
135,207977,DepthScenes,duration_manipulation_targetAtFixation,jsons/VE125_randls_37.json,http://54.235.29.9/FacialAge/BNav_EC2/DepthDuration/v2_depth_duration_MTurk/v2_DepthDuration_HTML.html#418,418,1365,657,1366,768,8-30-2022,23-45-5,136,depth_duration_stimuli/000692_2014-06-08_13-09-42_260595134347_rgbf000199-resize_2/000692_2014-06-08_13-09-42_260595134347_rgbf000199-resize_2-target.png,125,3.661,0,1622,139,meters,jsons/VE125_randls_37.json,1078017,1332820,35,Man
136,207977,DepthScenes,duration_manipulation_targetAtFixation,jsons/VE125_randls_37.json,http://54.235.29.9/FacialAge/BNav_EC2/DepthDuration/v2_depth_duration_MTurk/v2_DepthDuration_HTML.html#418,418,1365,657,1366,768,8-30-2022,23-45-5,137,depth_duration_stimuli/001094_2014-06-15_17-36-00_260595134347_rgbf000205-resize_0/001094_2014-06-15_17-36-00_260595134347_rgbf000205-resize_0-target.png,125,4.2175,0,1475,119,meters,jsons/VE125_randls_37.json,1078017,1332820,35,Man
137,207977,DepthScenes,duration_manipulation_targetAtFixation,jsons/VE125_randls_37.json,http://54.235.29.9/FacialAge/BNav_EC2/DepthDuration/v2_depth_duration_MTurk/v2_DepthDuration_HTML.html#418,418,1365,657,1366,768,8-30-2022,23-45-5,138,depth_duration_stimuli/001164_2014-06-17_15-35-46_260595134347_rgbf000085-resize_3/001164_2014-06-17_15-35-46_260595134347_rgbf000085-resize_3-target.png,125,2.354,0,1417,124,meters,jsons/VE125_randls_37.json,1078017,1332820,35,Man
138,207977,DepthScenes,duration_manipulation_targetAtFixation,jsons/VE125_randls_37.json,http://54.235.29.9/FacialAge/BNav_EC2/DepthDuration/v2_depth_duration_MTurk/v2_DepthDuration_HTML.html#418,418,1365,657,1366,768,8-30-2022,23-45-5,139,depth_duration_stimuli/001136_2014-06-17_15-19-41_260595134347_rgbf000076-resize_3/001136_2014-06-17_15-19-41_260595134347_rgbf000076-resize_3-target.png,125,1.8655,0,1539,119,meters,jsons/VE125_randls_37.json,1078017,1332820,35,Man
139,207977,DepthScenes,duration_manipulation_targetAtFixation,jsons/VE125_randls_37.json,http://54.235.29.9/FacialAge/BNav_EC2/DepthDuration/v2_depth_duration_MTurk/v2_DepthDuration_HTML.html#418,418,1365,657,1366,768,8-30-2022,23-45-5,140,depth_duration_stimuli/002725_2014-06-22_11-47-51_094959634447_rgbf000070-resize_1/002725_2014-06-22_11-47-51_094959634447_rgbf000070-resize_1-target.png,125,2.195,0,1401,128,meters,jsons/VE125_randls_37.json,1078017,1332820,35,Man
140,207977,DepthScenes,duration_manipulation_targetAtFixation,jsons/VE125_randls_37.json,http://54.235.29.9/FacialAge/BNav_EC2/DepthDuration/v2_depth_duration_MTurk/v2_DepthDuration_HTML.html#418,418,1365,657,1366,768,8-30-2022,23-45-5,141,depth_duration_stimuli/002344_2014-06-28_20-06-29_260595134347_rgbf000030-resize_1/002344_2014-06-28_20-06-29_260595134347_rgbf000030-resize_1-target.png,125,1.5795,0,1393,128,meters,jsons/VE125_randls_37.json,1078017,1332820,35,Man
141,207977,DepthScenes,duration_manipulation_targetAtFixation,jsons/VE125_randls_37.json,http://54.235.29.9/FacialAge/BNav_EC2/DepthDuration/v2_depth_duration_MTurk/v2_DepthDuration_HTML.html#418,418,1365,657,1366,768,8-30-2022,23-45-5,142,depth_duration_stimuli/000929_2014-06-09_16-33-19_260595134347_rgbf000139-resize_0/000929_2014-06-09_16-33-19_260595134347_rgbf000139-resize_0-target.png,125,2.8680000000000003,0,1486,138,meters,jsons/VE125_randls_37.json,1078017,1332820,35,Man
142,207977,DepthScenes,duration_manipulation_targetAtFixation,jsons/VE125_randls_37.json,http://54.235.29.9/FacialAge/BNav_EC2/DepthDuration/v2_depth_duration_MTurk/v2_DepthDuration_HTML.html#418,418,1365,657,1366,768,8-30-2022,23-45-5,143,depth_duration_stimuli/000457_2014-06-08_16-52-43_260595134347_rgbf000199-resize_1/000457_2014-06-08_16-52-43_260595134347_rgbf000199-resize_1-target.png,125,3.6489999999999996,0,1441,120,meters,jsons/VE125_randls_37.json,1078017,1332820,35,Man
143,207977,DepthScenes,duration_manipulation_targetAtFixation,jsons/VE125_randls_37.json,http://54.235.29.9/FacialAge/BNav_EC2/DepthDuration/v2_depth_duration_MTurk/v2_DepthDuration_HTML.html#418,418,1365,657,1366,768,8-30-2022,23-45-5,144,depth_duration_stimuli/002445_2014-06-28_20-32-16_260595134347_rgbf000029-resize_4/002445_2014-06-28_20-32-16_260595134347_rgbf000029-resize_4-target.png,125,2.5315,0,2699,109,meters,jsons/VE125_randls_37.json,1078017,1332820,35,Man
144,207977,DepthScenes,duration_manipulation_targetAtFixation,jsons/VE125_randls_37.json,http://54.235.29.9/FacialAge/BNav_EC2/DepthDuration/v2_depth_duration_MTurk/v2_DepthDuration_HTML.html#418,418,1365,657,1366,768,8-30-2022,23-45-5,145,depth_duration_stimuli/000780_2014-06-08_22-28-29_260595134347_rgbf000126-resize_1/000780_2014-06-08_22-28-29_260595134347_rgbf000126-resize_1-target.png,125,3.3825,0,1643,117,meters,jsons/VE125_randls_37.json,1078017,1332820,35,Man
145,207977,DepthScenes,duration_manipulation_targetAtFixation,jsons/VE125_randls_37.json,http://54.235.29.9/FacialAge/BNav_EC2/DepthDuration/v2_depth_duration_MTurk/v2_DepthDuration_HTML.html#418,418,1365,657,1366,768,8-30-2022,23-45-5,146,depth_duration_stimuli/001498_2014-06-19_17-45-14_260595134347_rgbf000129-resize_4/001498_2014-06-19_17-45-14_260595134347_rgbf000129-resize-original.jpg,125,1.4075,0,1432,107,meters,jsons/VE125_randls_37.json,1078017,1332820,35,Man
146,207977,DepthScenes,duration_manipulation_targetAtFixation,jsons/VE125_randls_37.json,http://54.235.29.9/FacialAge/BNav_EC2/DepthDuration/v2_depth_duration_MTurk/v2_DepthDuration_HTML.html#418,418,1365,657,1366,768,8-30-2022,23-45-5,147,depth_duration_stimuli/001175_2014-06-17_15-45-55_260595134347_rgbf000129-resize_4/001175_2014-06-17_15-45-55_260595134347_rgbf000129-resize_4-target.png,125,4.255,0,2494,118,meters,jsons/VE125_randls_37.json,1078017,1332820,35,Man
147,207977,DepthScenes,duration_manipulation_targetAtFixation,jsons/VE125_randls_37.json,http://54.235.29.9/FacialAge/BNav_EC2/DepthDuration/v2_depth_duration_MTurk/v2_DepthDuration_HTML.html#418,418,1365,657,1366,768,8-30-2022,23-45-5,148,depth_duration_stimuli/003490_2014-05-21_15-50-11_094959634447_rgbf000101-resize_3/003490_2014-05-21_15-50-11_094959634447_rgbf000101-resize_3-target.png,125,3.6445,0,1815,107,meters,jsons/VE125_randls_37.json,1078017,1332820,35,Man
148,207977,DepthScenes,duration_manipulation_targetAtFixation,jsons/VE125_randls_37.json,http://54.235.29.9/FacialAge/BNav_EC2/DepthDuration/v2_depth_duration_MTurk/v2_DepthDuration_HTML.html#418,418,1365,657,1366,768,8-30-2022,23-45-5,149,depth_duration_stimuli/003070_2014-06-15_14-58-27_094959634447_rgbf000150-resize_3/003070_2014-06-15_14-58-27_094959634447_rgbf000150-resize_3-target.png,125,2.9415,0,1961,113,meters,jsons/VE125_randls_37.json,1078017,1332820,35,Man
149,207977,DepthScenes,duration_manipulation_targetAtFixation,jsons/VE125_randls_37.json,http://54.235.29.9/FacialAge/BNav_EC2/DepthDuration/v2_depth_duration_MTurk/v2_DepthDuration_HTML.html#418,418,1365,657,1366,768,8-30-2022,23-45-5,150,depth_duration_stimuli/000943_2014-06-09_19-31-07_260595134347_rgbf000128-resize_1/000943_2014-06-09_19-31-07_260595134347_rgbf000128-resize_1-target.png,125,1.9765,0,1618,124,meters,jsons/VE125_randls_37.json,1078017,1332820,35,Man
150,207977,DepthScenes,duration_manipulation_targetAtFixation,jsons/VE125_randls_37.json,http://54.235.29.9/FacialAge/BNav_EC2/DepthDuration/v2_depth_duration_MTurk/v2_DepthDuration_HTML.html#418,418,1365,657,1366,768,8-30-2022,23-45-5,151,depth_duration_stimuli/001133_2014-06-17_14-49-16_260595134347_rgbf000100-resize_0/001133_2014-06-17_14-49-16_260595134347_rgbf000100-resize_0-target.png,125,4.2115,0,1455,118,meters,jsons/VE125_randls_37.json,1078017,1332820,35,Man
151,207977,DepthScenes,duration_manipulation_targetAtFixation,jsons/VE125_randls_37.json,http://54.235.29.9/FacialAge/BNav_EC2/DepthDuration/v2_depth_duration_MTurk/v2_DepthDuration_HTML.html#418,418,1365,657,1366,768,8-30-2022,23-45-5,152,depth_duration_stimuli/001132_2014-06-17_14-48-54_260595134347_rgbf000100-resize_2/001132_2014-06-17_14-48-54_260595134347_rgbf000100-resize_2-target.png,125,3.753,0,1493,129,meters,jsons/VE125_randls_37.json,1078017,1332820,35,Man
152,207977,DepthScenes,duration_manipulation_targetAtFixation,jsons/VE125_randls_37.json,http://54.235.29.9/FacialAge/BNav_EC2/DepthDuration/v2_depth_duration_MTurk/v2_DepthDuration_HTML.html#418,418,1365,657,1366,768,8-30-2022,23-45-5,153,depth_duration_stimuli/001810_2014-06-26_20-51-35_260595134347_rgbf000040-resize_3/001810_2014-06-26_20-51-35_260595134347_rgbf000040-resize_3-target.png,125,2.2525,0,39210,104,meters,jsons/VE125_randls_37.json,1078017,1332820,35,Man
153,207977,DepthScenes,duration_manipulation_targetAtFixation,jsons/VE125_randls_37.json,http://54.235.29.9/FacialAge/BNav_EC2/DepthDuration/v2_depth_duration_MTurk/v2_DepthDuration_HTML.html#418,418,1365,657,1366,768,8-30-2022,23-45-5,154,depth_duration_stimuli/003010_2014-06-15_12-54-35_094959634447_rgbf000112-resize_0/003010_2014-06-15_12-54-35_094959634447_rgbf000112-resize_0-target.png,125,3.1185,0,39573,126,meters,jsons/VE125_randls_37.json,1078017,1332820,35,Man
154,207977,DepthScenes,duration_manipulation_targetAtFixation,jsons/VE125_randls_37.json,http://54.235.29.9/FacialAge/BNav_EC2/DepthDuration/v2_depth_duration_MTurk/v2_DepthDuration_HTML.html#418,418,1365,657,1366,768,8-30-2022,23-45-5,155,depth_duration_stimuli/000642_2014-06-08_16-59-25_260595134347_rgbf000098-resize_2/000642_2014-06-08_16-59-25_260595134347_rgbf000098-resize_2-target.png,125,2.8815,0,7304,119,meters,jsons/VE125_randls_37.json,1078017,1332820,35,Man
155,207977,DepthScenes,duration_manipulation_targetAtFixation,jsons/VE125_randls_37.json,http://54.235.29.9/FacialAge/BNav_EC2/DepthDuration/v2_depth_duration_MTurk/v2_DepthDuration_HTML.html#418,418,1365,657,1366,768,8-30-2022,23-45-5,156,depth_duration_stimuli/002425_2014-06-28_20-27-29_260595134347_rgbf000031-resize_8/002425_2014-06-28_20-27-29_260595134347_rgbf000031-resize_8-target.png,125,3.8960000000000004,0,15384,127,meters,jsons/VE125_randls_37.json,1078017,1332820,35,Man
156,207977,DepthScenes,duration_manipulation_targetAtFixation,jsons/VE125_randls_37.json,http://54.235.29.9/FacialAge/BNav_EC2/DepthDuration/v2_depth_duration_MTurk/v2_DepthDuration_HTML.html#418,418,1365,657,1366,768,8-30-2022,23-45-5,157,depth_duration_stimuli/002905_2014-06-03_18-04-43_094959634447_rgbf000151-resize_2/002905_2014-06-03_18-04-43_094959634447_rgbf000151-resize_2-target.png,125,2.0295,0,370572,113,meters,jsons/VE125_randls_37.json,1078017,1332820,35,Man
157,207977,DepthScenes,duration_manipulation_targetAtFixation,jsons/VE125_randls_37.json,http://54.235.29.9/FacialAge/BNav_EC2/DepthDuration/v2_depth_duration_MTurk/v2_DepthDuration_HTML.html#418,418,1365,657,1366,768,8-30-2022,23-45-5,158,depth_duration_stimuli/003423_2014-05-21_10-23-26_094959634447_rgbf002665-resize_2/003423_2014-05-21_10-23-26_094959634447_rgbf002665-resize_2-target.png,125,3.2575,0,1460,127,meters,jsons/VE125_randls_37.json,1078017,1332820,35,Man
158,207977,DepthScenes,duration_manipulation_targetAtFixation,jsons/VE125_randls_37.json,http://54.235.29.9/FacialAge/BNav_EC2/DepthDuration/v2_depth_duration_MTurk/v2_DepthDuration_HTML.html#418,418,1365,657,1366,768,8-30-2022,23-45-5,159,depth_duration_stimuli/001056_2014-06-08_18-46-44_260595134347_rgbf000068-resize_0/001056_2014-06-08_18-46-44_260595134347_rgbf000068-resize_0-target.png,125,2.6625,0,1340,117,meters,jsons/VE125_randls_37.json,1078017,1332820,35,Man
159,207977,DepthScenes,duration_manipulation_targetAtFixation,jsons/VE125_randls_37.json,http://54.235.29.9/FacialAge/BNav_EC2/DepthDuration/v2_depth_duration_MTurk/v2_DepthDuration_HTML.html#418,418,1365,657,1366,768,8-30-2022,23-45-5,160,depth_duration_stimuli/002199_2014-06-28_18-33-56_260595134347_rgbf000074-resize_0/002199_2014-06-28_18-33-56_260595134347_rgbf000074-resize_0-target.png,125,1.996,0,1362,118,meters,jsons/VE125_randls_37.json,1078017,1332820,35,Man
160,207977,DepthScenes,duration_manipulation_targetAtFixation,jsons/VE125_randls_37.json,http://54.235.29.9/FacialAge/BNav_EC2/DepthDuration/v2_depth_duration_MTurk/v2_DepthDuration_HTML.html#418,418,1365,657,1366,768,8-30-2022,23-45-5,161,depth_duration_stimuli/002043_2014-06-24_20-29-38_260595134347_rgbf000039-resize_4/002043_2014-06-24_20-29-38_260595134347_rgbf000039-resize_4-target.png,125,2.8435,0,2712,118,meters,jsons/VE125_randls_37.json,1078017,1332820,35,Man
161,207977,DepthScenes,duration_manipulation_targetAtFixation,jsons/VE125_randls_37.json,http://54.235.29.9/FacialAge/BNav_EC2/DepthDuration/v2_depth_duration_MTurk/v2_DepthDuration_HTML.html#418,418,1365,657,1366,768,8-30-2022,23-45-5,162,depth_duration_stimuli/003048_2014-06-15_13-49-43_094959634447_rgbf000150-resize_1/003048_2014-06-15_13-49-43_094959634447_rgbf000150-resize_1-target.png,125,4.0035,0,1454,120,meters,jsons/VE125_randls_37.json,1078017,1332820,35,Man
162,207977,DepthScenes,duration_manipulation_targetAtFixation,jsons/VE125_randls_37.json,http://54.235.29.9/FacialAge/BNav_EC2/DepthDuration/v2_depth_duration_MTurk/v2_DepthDuration_HTML.html#418,418,1365,657,1366,768,8-30-2022,23-45-5,163,depth_duration_stimuli/000493_2014-06-09_21-01-18_260595134347_rgbf000196-resize_3/000493_2014-06-09_21-01-18_260595134347_rgbf000196-resize_3-target.png,125,3.44,0,1353,119,meters,jsons/VE125_randls_37.json,1078017,1332820,35,Man
163,207977,DepthScenes,duration_manipulation_targetAtFixation,jsons/VE125_randls_37.json,http://54.235.29.9/FacialAge/BNav_EC2/DepthDuration/v2_depth_duration_MTurk/v2_DepthDuration_HTML.html#418,418,1365,657,1366,768,8-30-2022,23-45-5,164,depth_duration_stimuli/000191_2014-05-12_17-07-38_260595134347_rgbf000199-resize_0/000191_2014-05-12_17-07-38_260595134347_rgbf000199-resize_0-target.png,125,3.7995,0,1307,128,meters,jsons/VE125_randls_37.json,1078017,1332820,35,Man
