,subjID,experimentName,versionName,sequenceName,url,selected_row,windowWidth,windowHeight,screenWidth,screenHeight,startDate,startTime,trial,stimulus,duration,actual_depth,depth_estimate,trial_RT,log_sceneDuration,unitSelection,seq_filepath,experimentTime,totalTime,age,gender
0,208096,DepthScenes,duration_manipulation_targetAtFixation,jsons/v1_VE1000_randls_43.json,http://54.235.29.9/FacialAge/BNav_EC2/DepthDuration/v2_depth_duration_MTurk/v2_DepthDuration_HTML.html#154,154,1920,937,1920,1080,8-22-2022,8-29-42,1,depth_duration_stimuli/001092_2014-06-15_17-34-58_260595134347_rgbf000171-resize_3/001092_2014-06-15_17-34-58_260595134347_rgbf000171-resize_3-target.png,1000,2.6935,4,2474,1000,feet,jsons/v1_VE1000_randls_43.json,574763,717437,34,Man
1,208096,DepthScenes,duration_manipulation_targetAtFixation,jsons/v1_VE1000_randls_43.json,http://54.235.29.9/FacialAge/BNav_EC2/DepthDuration/v2_depth_duration_MTurk/v2_DepthDuration_HTML.html#154,154,1920,937,1920,1080,8-22-2022,8-29-42,2,depth_duration_stimuli/002545_2014-06-24_13-38-53_094959634447_rgbf000080-resize_4/002545_2014-06-24_13-38-53_094959634447_rgbf000080-resize_4-target.png,1000,1.9205,6,2625,1002,feet,jsons/v1_VE1000_randls_43.json,574763,717437,34,Man
2,208096,DepthScenes,duration_manipulation_targetAtFixation,jsons/v1_VE1000_randls_43.json,http://54.235.29.9/FacialAge/BNav_EC2/DepthDuration/v2_depth_duration_MTurk/v2_DepthDuration_HTML.html#154,154,1920,937,1920,1080,8-22-2022,8-29-42,3,depth_duration_stimuli/000368_2014-06-09_15-53-01_260595134347_rgbf000155-resize_2/000368_2014-06-09_15-53-01_260595134347_rgbf000155-resize_2-target.png,1000,2.4859999999999998,4,2394,992,feet,jsons/v1_VE1000_randls_43.json,574763,717437,34,Man
3,208096,DepthScenes,duration_manipulation_targetAtFixation,jsons/v1_VE1000_randls_43.json,http://54.235.29.9/FacialAge/BNav_EC2/DepthDuration/v2_depth_duration_MTurk/v2_DepthDuration_HTML.html#154,154,1920,937,1920,1080,8-22-2022,8-29-42,4,depth_duration_stimuli/002678_2014-06-13_16-15-32_094959634447_rgbf000151-resize_6/002678_2014-06-13_16-15-32_094959634447_rgbf000151-resize_6-target.png,1000,2.1830000000000003,7,3092,1009,feet,jsons/v1_VE1000_randls_43.json,574763,717437,34,Man
4,208096,DepthScenes,duration_manipulation_targetAtFixation,jsons/v1_VE1000_randls_43.json,http://54.235.29.9/FacialAge/BNav_EC2/DepthDuration/v2_depth_duration_MTurk/v2_DepthDuration_HTML.html#154,154,1920,937,1920,1080,8-22-2022,8-29-42,5,depth_duration_stimuli/001055_2014-06-08_18-45-35_260595134347_rgbf000111-resize_4/001055_2014-06-08_18-45-35_260595134347_rgbf000111-resize_4-target.png,1000,2.4290000000000003,6,2404,1007,feet,jsons/v1_VE1000_randls_43.json,574763,717437,34,Man
5,208096,DepthScenes,duration_manipulation_targetAtFixation,jsons/v1_VE1000_randls_43.json,http://54.235.29.9/FacialAge/BNav_EC2/DepthDuration/v2_depth_duration_MTurk/v2_DepthDuration_HTML.html#154,154,1920,937,1920,1080,8-22-2022,8-29-42,6,depth_duration_stimuli/000549_2014-06-08_22-10-24_260595134347_rgbf000247-resize_3/000549_2014-06-08_22-10-24_260595134347_rgbf000247-resize_3-target.png,1000,1.841,2,2635,1013,feet,jsons/v1_VE1000_randls_43.json,574763,717437,34,Man
6,208096,DepthScenes,duration_manipulation_targetAtFixation,jsons/v1_VE1000_randls_43.json,http://54.235.29.9/FacialAge/BNav_EC2/DepthDuration/v2_depth_duration_MTurk/v2_DepthDuration_HTML.html#154,154,1920,937,1920,1080,8-22-2022,8-29-42,7,depth_duration_stimuli/000773_2014-06-08_22-24-54_260595134347_rgbf000093-resize_1/000773_2014-06-08_22-24-54_260595134347_rgbf000093-resize_1-target.png,1000,4.973,8,3265,1005,feet,jsons/v1_VE1000_randls_43.json,574763,717437,34,Man
7,208096,DepthScenes,duration_manipulation_targetAtFixation,jsons/v1_VE1000_randls_43.json,http://54.235.29.9/FacialAge/BNav_EC2/DepthDuration/v2_depth_duration_MTurk/v2_DepthDuration_HTML.html#154,154,1920,937,1920,1080,8-22-2022,8-29-42,8,depth_duration_stimuli/002414_2014-06-28_20-24-58_260595134347_rgbf000067-resize_4/002414_2014-06-28_20-24-58_260595134347_rgbf000067-resize_4-target.png,1000,4.363,10,3574,1000,feet,jsons/v1_VE1000_randls_43.json,574763,717437,34,Man
8,208096,DepthScenes,duration_manipulation_targetAtFixation,jsons/v1_VE1000_randls_43.json,http://54.235.29.9/FacialAge/BNav_EC2/DepthDuration/v2_depth_duration_MTurk/v2_DepthDuration_HTML.html#154,154,1920,937,1920,1080,8-22-2022,8-29-42,9,depth_duration_stimuli/003292_2014-05-14_21-53-49_094959634447_rgbf000100-resize_2/003292_2014-05-14_21-53-49_094959634447_rgbf000100-resize_2-target.png,1000,3.4815,4,2554,999,feet,jsons/v1_VE1000_randls_43.json,574763,717437,34,Man
9,208096,DepthScenes,duration_manipulation_targetAtFixation,jsons/v1_VE1000_randls_43.json,http://54.235.29.9/FacialAge/BNav_EC2/DepthDuration/v2_depth_duration_MTurk/v2_DepthDuration_HTML.html#154,154,1920,937,1920,1080,8-22-2022,8-29-42,10,depth_duration_stimuli/002639_2014-06-24_14-51-37_094959634447_rgbf000074-resize_4/002639_2014-06-24_14-51-37_094959634447_rgbf000074-resize_4-target.png,1000,4.0375,6,3140,997,feet,jsons/v1_VE1000_randls_43.json,574763,717437,34,Man
10,208096,DepthScenes,duration_manipulation_targetAtFixation,jsons/v1_VE1000_randls_43.json,http://54.235.29.9/FacialAge/BNav_EC2/DepthDuration/v2_depth_duration_MTurk/v2_DepthDuration_HTML.html#154,154,1920,937,1920,1080,8-22-2022,8-29-42,11,depth_duration_stimuli/001167_2014-06-17_15-38-07_260595134347_rgbf000108-resize_0/001167_2014-06-17_15-38-07_260595134347_rgbf000108-resize_0-target.png,1000,1.8505,3,2450,995,feet,jsons/v1_VE1000_randls_43.json,574763,717437,34,Man
11,208096,DepthScenes,duration_manipulation_targetAtFixation,jsons/v1_VE1000_randls_43.json,http://54.235.29.9/FacialAge/BNav_EC2/DepthDuration/v2_depth_duration_MTurk/v2_DepthDuration_HTML.html#154,154,1920,937,1920,1080,8-22-2022,8-29-42,12,depth_duration_stimuli/003587_2014-05-23_16-48-02_094959634447_rgbf002384-resize_2/003587_2014-05-23_16-48-02_094959634447_rgbf002384-resize_2-target.png,1000,1.357,2,2867,992,feet,jsons/v1_VE1000_randls_43.json,574763,717437,34,Man
12,208096,DepthScenes,duration_manipulation_targetAtFixation,jsons/v1_VE1000_randls_43.json,http://54.235.29.9/FacialAge/BNav_EC2/DepthDuration/v2_depth_duration_MTurk/v2_DepthDuration_HTML.html#154,154,1920,937,1920,1080,8-22-2022,8-29-42,13,depth_duration_stimuli/000569_2014-06-09_22-51-47_260595134347_rgbf000141-resize_3/000569_2014-06-09_22-51-47_260595134347_rgbf000141-resize-original.jpg,1000,4.512,0,3015,999,feet,jsons/v1_VE1000_randls_43.json,574763,717437,34,Man
13,208096,DepthScenes,duration_manipulation_targetAtFixation,jsons/v1_VE1000_randls_43.json,http://54.235.29.9/FacialAge/BNav_EC2/DepthDuration/v2_depth_duration_MTurk/v2_DepthDuration_HTML.html#154,154,1920,937,1920,1080,8-22-2022,8-29-42,14,depth_duration_stimuli/002748_2014-06-22_19-07-22_094959634447_rgbf000078-resize_1/002748_2014-06-22_19-07-22_094959634447_rgbf000078-resize_1-target.png,1000,4.6705,9,3969,1000,feet,jsons/v1_VE1000_randls_43.json,574763,717437,34,Man
14,208096,DepthScenes,duration_manipulation_targetAtFixation,jsons/v1_VE1000_randls_43.json,http://54.235.29.9/FacialAge/BNav_EC2/DepthDuration/v2_depth_duration_MTurk/v2_DepthDuration_HTML.html#154,154,1920,937,1920,1080,8-22-2022,8-29-42,15,depth_duration_stimuli/002995_2014-06-15_12-31-26_094959634447_rgbf000150-resize_1/002995_2014-06-15_12-31-26_094959634447_rgbf000150-resize_1-target.png,1000,3.8360000000000003,8,3670,998,feet,jsons/v1_VE1000_randls_43.json,574763,717437,34,Man
15,208096,DepthScenes,duration_manipulation_targetAtFixation,jsons/v1_VE1000_randls_43.json,http://54.235.29.9/FacialAge/BNav_EC2/DepthDuration/v2_depth_duration_MTurk/v2_DepthDuration_HTML.html#154,154,1920,937,1920,1080,8-22-2022,8-29-42,16,depth_duration_stimuli/000470_2014-06-09_19-42-40_260595134347_rgbf000094-resize_1/000470_2014-06-09_19-42-40_260595134347_rgbf000094-resize_1-target.png,1000,1.831,4,4571,1000,feet,jsons/v1_VE1000_randls_43.json,574763,717437,34,Man
16,208096,DepthScenes,duration_manipulation_targetAtFixation,jsons/v1_VE1000_randls_43.json,http://54.235.29.9/FacialAge/BNav_EC2/DepthDuration/v2_depth_duration_MTurk/v2_DepthDuration_HTML.html#154,154,1920,937,1920,1080,8-22-2022,8-29-42,17,depth_duration_stimuli/000109_2014-05-14_23-41-52_260595134347_rgbf000035-resize_9/000109_2014-05-14_23-41-52_260595134347_rgbf000035-resize_9-target.png,1000,1.3545,3,2541,1001,feet,jsons/v1_VE1000_randls_43.json,574763,717437,34,Man
17,208096,DepthScenes,duration_manipulation_targetAtFixation,jsons/v1_VE1000_randls_43.json,http://54.235.29.9/FacialAge/BNav_EC2/DepthDuration/v2_depth_duration_MTurk/v2_DepthDuration_HTML.html#154,154,1920,937,1920,1080,8-22-2022,8-29-42,18,depth_duration_stimuli/001810_2014-06-26_20-51-35_260595134347_rgbf000040-resize_3/001810_2014-06-26_20-51-35_260595134347_rgbf000040-resize_3-target.png,1000,2.2525,4,3092,1000,feet,jsons/v1_VE1000_randls_43.json,574763,717437,34,Man
18,208096,DepthScenes,duration_manipulation_targetAtFixation,jsons/v1_VE1000_randls_43.json,http://54.235.29.9/FacialAge/BNav_EC2/DepthDuration/v2_depth_duration_MTurk/v2_DepthDuration_HTML.html#154,154,1920,937,1920,1080,8-22-2022,8-29-42,19,depth_duration_stimuli/003010_2014-06-15_12-54-35_094959634447_rgbf000112-resize_0/003010_2014-06-15_12-54-35_094959634447_rgbf000112-resize_0-target.png,1000,3.1185,7,3230,998,feet,jsons/v1_VE1000_randls_43.json,574763,717437,34,Man
19,208096,DepthScenes,duration_manipulation_targetAtFixation,jsons/v1_VE1000_randls_43.json,http://54.235.29.9/FacialAge/BNav_EC2/DepthDuration/v2_depth_duration_MTurk/v2_DepthDuration_HTML.html#154,154,1920,937,1920,1080,8-22-2022,8-29-42,20,depth_duration_stimuli/001808_2014-06-26_20-50-58_260595134347_rgbf000029-resize_1/001808_2014-06-26_20-50-58_260595134347_rgbf000029-resize_1-target.png,1000,4.249,10,4476,1006,feet,jsons/v1_VE1000_randls_43.json,574763,717437,34,Man
20,208096,DepthScenes,duration_manipulation_targetAtFixation,jsons/v1_VE1000_randls_43.json,http://54.235.29.9/FacialAge/BNav_EC2/DepthDuration/v2_depth_duration_MTurk/v2_DepthDuration_HTML.html#154,154,1920,937,1920,1080,8-22-2022,8-29-42,21,depth_duration_stimuli/001815_2014-06-26_20-52-55_260595134347_rgbf000020-resize_0/001815_2014-06-26_20-52-55_260595134347_rgbf000020-resize_0-target.png,1000,3.3865,7,3107,1012,feet,jsons/v1_VE1000_randls_43.json,574763,717437,34,Man
21,208096,DepthScenes,duration_manipulation_targetAtFixation,jsons/v1_VE1000_randls_43.json,http://54.235.29.9/FacialAge/BNav_EC2/DepthDuration/v2_depth_duration_MTurk/v2_DepthDuration_HTML.html#154,154,1920,937,1920,1080,8-22-2022,8-29-42,22,depth_duration_stimuli/000739_2014-06-08_18-45-58_260595134347_rgbf000068-resize_1/000739_2014-06-08_18-45-58_260595134347_rgbf000068-resize_1-target.png,1000,3.534,6,3908,1003,feet,jsons/v1_VE1000_randls_43.json,574763,717437,34,Man
22,208096,DepthScenes,duration_manipulation_targetAtFixation,jsons/v1_VE1000_randls_43.json,http://54.235.29.9/FacialAge/BNav_EC2/DepthDuration/v2_depth_duration_MTurk/v2_DepthDuration_HTML.html#154,154,1920,937,1920,1080,8-22-2022,8-29-42,23,depth_duration_stimuli/000734_2014-06-08_17-39-11_260595134347_rgbf000128-resize_2/000734_2014-06-08_17-39-11_260595134347_rgbf000128-resize_2-target.png,1000,4.098,5,3162,999,feet,jsons/v1_VE1000_randls_43.json,574763,717437,34,Man
23,208096,DepthScenes,duration_manipulation_targetAtFixation,jsons/v1_VE1000_randls_43.json,http://54.235.29.9/FacialAge/BNav_EC2/DepthDuration/v2_depth_duration_MTurk/v2_DepthDuration_HTML.html#154,154,1920,937,1920,1080,8-22-2022,8-29-42,24,depth_duration_stimuli/003621_2014-05-23_18-06-08_094959634447_rgbf000101-resize_1/003621_2014-05-23_18-06-08_094959634447_rgbf000101-resize_1-target.png,1000,3.9835,7,3042,991,feet,jsons/v1_VE1000_randls_43.json,574763,717437,34,Man
24,208096,DepthScenes,duration_manipulation_targetAtFixation,jsons/v1_VE1000_randls_43.json,http://54.235.29.9/FacialAge/BNav_EC2/DepthDuration/v2_depth_duration_MTurk/v2_DepthDuration_HTML.html#154,154,1920,937,1920,1080,8-22-2022,8-29-42,25,depth_duration_stimuli/001584_2014-06-20_11-07-43_260595134347_rgbf000002-resize_1/001584_2014-06-20_11-07-43_260595134347_rgbf000002-resize_1-target.png,1000,3.53,6,3645,999,feet,jsons/v1_VE1000_randls_43.json,574763,717437,34,Man
25,208096,DepthScenes,duration_manipulation_targetAtFixation,jsons/v1_VE1000_randls_43.json,http://54.235.29.9/FacialAge/BNav_EC2/DepthDuration/v2_depth_duration_MTurk/v2_DepthDuration_HTML.html#154,154,1920,937,1920,1080,8-22-2022,8-29-42,26,depth_duration_stimuli/003070_2014-06-15_14-58-27_094959634447_rgbf000150-resize_3/003070_2014-06-15_14-58-27_094959634447_rgbf000150-resize_3-target.png,1000,2.9415,6,2409,998,feet,jsons/v1_VE1000_randls_43.json,574763,717437,34,Man
26,208096,DepthScenes,duration_manipulation_targetAtFixation,jsons/v1_VE1000_randls_43.json,http://54.235.29.9/FacialAge/BNav_EC2/DepthDuration/v2_depth_duration_MTurk/v2_DepthDuration_HTML.html#154,154,1920,937,1920,1080,8-22-2022,8-29-42,27,depth_duration_stimuli/000943_2014-06-09_19-31-07_260595134347_rgbf000128-resize_1/000943_2014-06-09_19-31-07_260595134347_rgbf000128-resize_1-target.png,1000,1.9765,3,2292,1009,feet,jsons/v1_VE1000_randls_43.json,574763,717437,34,Man
27,208096,DepthScenes,duration_manipulation_targetAtFixation,jsons/v1_VE1000_randls_43.json,http://54.235.29.9/FacialAge/BNav_EC2/DepthDuration/v2_depth_duration_MTurk/v2_DepthDuration_HTML.html#154,154,1920,937,1920,1080,8-22-2022,8-29-42,28,depth_duration_stimuli/001029_2014-06-08_13-17-57_260595134347_rgbf000065-resize_1/001029_2014-06-08_13-17-57_260595134347_rgbf000065-resize_1-target.png,1000,3.0835,5,2351,988,feet,jsons/v1_VE1000_randls_43.json,574763,717437,34,Man
28,208096,DepthScenes,duration_manipulation_targetAtFixation,jsons/v1_VE1000_randls_43.json,http://54.235.29.9/FacialAge/BNav_EC2/DepthDuration/v2_depth_duration_MTurk/v2_DepthDuration_HTML.html#154,154,1920,937,1920,1080,8-22-2022,8-29-42,29,depth_duration_stimuli/000677_2014-06-08_23-10-32_260595134347_rgbf000158-resize_6/000677_2014-06-08_23-10-32_260595134347_rgbf000158-resize_6-target.png,1000,3.556,6,2811,1011,feet,jsons/v1_VE1000_randls_43.json,574763,717437,34,Man
29,208096,DepthScenes,duration_manipulation_targetAtFixation,jsons/v1_VE1000_randls_43.json,http://54.235.29.9/FacialAge/BNav_EC2/DepthDuration/v2_depth_duration_MTurk/v2_DepthDuration_HTML.html#154,154,1920,937,1920,1080,8-22-2022,8-29-42,30,depth_duration_stimuli/000375_2014-06-08_11-17-29_260595134347_rgbf000133-resize_2/000375_2014-06-08_11-17-29_260595134347_rgbf000133-resize-original.jpg,1000,4.718,0,3073,998,feet,jsons/v1_VE1000_randls_43.json,574763,717437,34,Man
30,208096,DepthScenes,duration_manipulation_targetAtFixation,jsons/v1_VE1000_randls_43.json,http://54.235.29.9/FacialAge/BNav_EC2/DepthDuration/v2_depth_duration_MTurk/v2_DepthDuration_HTML.html#154,154,1920,937,1920,1080,8-22-2022,8-29-42,31,depth_duration_stimuli/000878_2014-06-08_22-52-45_260595134347_rgbf000045-resize_2/000878_2014-06-08_22-52-45_260595134347_rgbf000045-resize_2-target.png,1000,2.092,5,4412,1003,feet,jsons/v1_VE1000_randls_43.json,574763,717437,34,Man
31,208096,DepthScenes,duration_manipulation_targetAtFixation,jsons/v1_VE1000_randls_43.json,http://54.235.29.9/FacialAge/BNav_EC2/DepthDuration/v2_depth_duration_MTurk/v2_DepthDuration_HTML.html#154,154,1920,937,1920,1080,8-22-2022,8-29-42,32,depth_duration_stimuli/002953_2014-06-08_17-32-18_094959634447_rgbf000059-resize_5/002953_2014-06-08_17-32-18_094959634447_rgbf000059-resize_5-target.png,1000,1.551,2,2739,1000,feet,jsons/v1_VE1000_randls_43.json,574763,717437,34,Man
32,208096,DepthScenes,duration_manipulation_targetAtFixation,jsons/v1_VE1000_randls_43.json,http://54.235.29.9/FacialAge/BNav_EC2/DepthDuration/v2_depth_duration_MTurk/v2_DepthDuration_HTML.html#154,154,1920,937,1920,1080,8-22-2022,8-29-42,33,depth_duration_stimuli/002663_2014-06-13_15-50-26_094959634447_rgbf000075-resize_1/002663_2014-06-13_15-50-26_094959634447_rgbf000075-resize_1-target.png,1000,4.7495,11,4377,997,feet,jsons/v1_VE1000_randls_43.json,574763,717437,34,Man
33,208096,DepthScenes,duration_manipulation_targetAtFixation,jsons/v1_VE1000_randls_43.json,http://54.235.29.9/FacialAge/BNav_EC2/DepthDuration/v2_depth_duration_MTurk/v2_DepthDuration_HTML.html#154,154,1920,937,1920,1080,8-22-2022,8-29-42,34,depth_duration_stimuli/000409_2014-06-04_19-23-33_260595134347_rgbf000067-resize_0/000409_2014-06-04_19-23-33_260595134347_rgbf000067-resize_0-target.png,1000,3.7335,6,2891,1000,feet,jsons/v1_VE1000_randls_43.json,574763,717437,34,Man
34,208096,DepthScenes,duration_manipulation_targetAtFixation,jsons/v1_VE1000_randls_43.json,http://54.235.29.9/FacialAge/BNav_EC2/DepthDuration/v2_depth_duration_MTurk/v2_DepthDuration_HTML.html#154,154,1920,937,1920,1080,8-22-2022,8-29-42,35,depth_duration_stimuli/000929_2014-06-09_16-33-19_260595134347_rgbf000139-resize_0/000929_2014-06-09_16-33-19_260595134347_rgbf000139-resize_0-target.png,1000,2.8680000000000003,4,3636,1001,feet,jsons/v1_VE1000_randls_43.json,574763,717437,34,Man
35,208096,DepthScenes,duration_manipulation_targetAtFixation,jsons/v1_VE1000_randls_43.json,http://54.235.29.9/FacialAge/BNav_EC2/DepthDuration/v2_depth_duration_MTurk/v2_DepthDuration_HTML.html#154,154,1920,937,1920,1080,8-22-2022,8-29-42,36,depth_duration_stimuli/000457_2014-06-08_16-52-43_260595134347_rgbf000199-resize_1/000457_2014-06-08_16-52-43_260595134347_rgbf000199-resize_1-target.png,1000,3.6489999999999996,6,2745,989,feet,jsons/v1_VE1000_randls_43.json,574763,717437,34,Man
36,208096,DepthScenes,duration_manipulation_targetAtFixation,jsons/v1_VE1000_randls_43.json,http://54.235.29.9/FacialAge/BNav_EC2/DepthDuration/v2_depth_duration_MTurk/v2_DepthDuration_HTML.html#154,154,1920,937,1920,1080,8-22-2022,8-29-42,37,depth_duration_stimuli/002549_2014-06-24_13-41-39_094959634447_rgbf000022-resize_3/002549_2014-06-24_13-41-39_094959634447_rgbf000022-resize_3-target.png,1000,1.476,3,2292,999,feet,jsons/v1_VE1000_randls_43.json,574763,717437,34,Man
37,208096,DepthScenes,duration_manipulation_targetAtFixation,jsons/v1_VE1000_randls_43.json,http://54.235.29.9/FacialAge/BNav_EC2/DepthDuration/v2_depth_duration_MTurk/v2_DepthDuration_HTML.html#154,154,1920,937,1920,1080,8-22-2022,8-29-42,38,depth_duration_stimuli/002750_2014-06-22_19-08-03_094959634447_rgbf000094-resize_4/002750_2014-06-22_19-08-03_094959634447_rgbf000094-resize_4-target.png,1000,2.354,5,2305,998,feet,jsons/v1_VE1000_randls_43.json,574763,717437,34,Man
38,208096,DepthScenes,duration_manipulation_targetAtFixation,jsons/v1_VE1000_randls_43.json,http://54.235.29.9/FacialAge/BNav_EC2/DepthDuration/v2_depth_duration_MTurk/v2_DepthDuration_HTML.html#154,154,1920,937,1920,1080,8-22-2022,8-29-42,39,depth_duration_stimuli/000906_2014-06-08_13-35-43_260595134347_rgbf000155-resize_1/000906_2014-06-08_13-35-43_260595134347_rgbf000155-resize_1-target.png,1000,2.8489999999999998,7,3005,1013,feet,jsons/v1_VE1000_randls_43.json,574763,717437,34,Man
39,208096,DepthScenes,duration_manipulation_targetAtFixation,jsons/v1_VE1000_randls_43.json,http://54.235.29.9/FacialAge/BNav_EC2/DepthDuration/v2_depth_duration_MTurk/v2_DepthDuration_HTML.html#154,154,1920,937,1920,1080,8-22-2022,8-29-42,40,depth_duration_stimuli/002805_2014-06-22_19-54-03_094959634447_rgbf000079-resize_1/002805_2014-06-22_19-54-03_094959634447_rgbf000079-resize_1-target.png,1000,3.1439999999999997,8,6300,1005,feet,jsons/v1_VE1000_randls_43.json,574763,717437,34,Man
40,208096,DepthScenes,duration_manipulation_targetAtFixation,jsons/v1_VE1000_randls_43.json,http://54.235.29.9/FacialAge/BNav_EC2/DepthDuration/v2_depth_duration_MTurk/v2_DepthDuration_HTML.html#154,154,1920,937,1920,1080,8-22-2022,8-29-42,41,depth_duration_stimuli/000642_2014-06-08_16-59-25_260595134347_rgbf000098-resize_2/000642_2014-06-08_16-59-25_260595134347_rgbf000098-resize_2-target.png,1000,2.8815,7,2875,999,feet,jsons/v1_VE1000_randls_43.json,574763,717437,34,Man
41,208096,DepthScenes,duration_manipulation_targetAtFixation,jsons/v1_VE1000_randls_43.json,http://54.235.29.9/FacialAge/BNav_EC2/DepthDuration/v2_depth_duration_MTurk/v2_DepthDuration_HTML.html#154,154,1920,937,1920,1080,8-22-2022,8-29-42,42,depth_duration_stimuli/002425_2014-06-28_20-27-29_260595134347_rgbf000031-resize_8/002425_2014-06-28_20-27-29_260595134347_rgbf000031-resize_8-target.png,1000,3.8960000000000004,9,2826,1005,feet,jsons/v1_VE1000_randls_43.json,574763,717437,34,Man
42,208096,DepthScenes,duration_manipulation_targetAtFixation,jsons/v1_VE1000_randls_43.json,http://54.235.29.9/FacialAge/BNav_EC2/DepthDuration/v2_depth_duration_MTurk/v2_DepthDuration_HTML.html#154,154,1920,937,1920,1080,8-22-2022,8-29-42,43,depth_duration_stimuli/002445_2014-06-28_20-32-16_260595134347_rgbf000029-resize_4/002445_2014-06-28_20-32-16_260595134347_rgbf000029-resize_4-target.png,1000,2.5315,4,2330,998,feet,jsons/v1_VE1000_randls_43.json,574763,717437,34,Man
43,208096,DepthScenes,duration_manipulation_targetAtFixation,jsons/v1_VE1000_randls_43.json,http://54.235.29.9/FacialAge/BNav_EC2/DepthDuration/v2_depth_duration_MTurk/v2_DepthDuration_HTML.html#154,154,1920,937,1920,1080,8-22-2022,8-29-42,44,depth_duration_stimuli/000780_2014-06-08_22-28-29_260595134347_rgbf000126-resize_1/000780_2014-06-08_22-28-29_260595134347_rgbf000126-resize_1-target.png,1000,3.3825,7,3521,998,feet,jsons/v1_VE1000_randls_43.json,574763,717437,34,Man
44,208096,DepthScenes,duration_manipulation_targetAtFixation,jsons/v1_VE1000_randls_43.json,http://54.235.29.9/FacialAge/BNav_EC2/DepthDuration/v2_depth_duration_MTurk/v2_DepthDuration_HTML.html#154,154,1920,937,1920,1080,8-22-2022,8-29-42,45,depth_duration_stimuli/000787_2014-06-08_22-33-53_260595134347_rgbf000175-resize_1/000787_2014-06-08_22-33-53_260595134347_rgbf000175-resize-original.jpg,1000,4.784,0,2918,986,feet,jsons/v1_VE1000_randls_43.json,574763,717437,34,Man
45,208096,DepthScenes,duration_manipulation_targetAtFixation,jsons/v1_VE1000_randls_43.json,http://54.235.29.9/FacialAge/BNav_EC2/DepthDuration/v2_depth_duration_MTurk/v2_DepthDuration_HTML.html#154,154,1920,937,1920,1080,8-22-2022,8-29-42,46,depth_duration_stimuli/002057_2014-06-24_21-00-13_260595134347_rgbf000120-resize_1/002057_2014-06-24_21-00-13_260595134347_rgbf000120-resize_1-target.png,1000,2.967,7,3068,993,feet,jsons/v1_VE1000_randls_43.json,574763,717437,34,Man
46,208096,DepthScenes,duration_manipulation_targetAtFixation,jsons/v1_VE1000_randls_43.json,http://54.235.29.9/FacialAge/BNav_EC2/DepthDuration/v2_depth_duration_MTurk/v2_DepthDuration_HTML.html#154,154,1920,937,1920,1080,8-22-2022,8-29-42,47,depth_duration_stimuli/000709_2014-06-08_13-51-55_260595134347_rgbf000068-resize_3/000709_2014-06-08_13-51-55_260595134347_rgbf000068-resize_3-target.png,1000,1.8030000000000002,4,2268,999,feet,jsons/v1_VE1000_randls_43.json,574763,717437,34,Man
47,208096,DepthScenes,duration_manipulation_targetAtFixation,jsons/v1_VE1000_randls_43.json,http://54.235.29.9/FacialAge/BNav_EC2/DepthDuration/v2_depth_duration_MTurk/v2_DepthDuration_HTML.html#154,154,1920,937,1920,1080,8-22-2022,8-29-42,48,depth_duration_stimuli/000447_2014-06-08_16-15-46_260595134347_rgbf000130-resize_1/000447_2014-06-08_16-15-46_260595134347_rgbf000130-resize_1-target.png,1000,4.479,8,3979,999,feet,jsons/v1_VE1000_randls_43.json,574763,717437,34,Man
48,208096,DepthScenes,duration_manipulation_targetAtFixation,jsons/v1_VE1000_randls_43.json,http://54.235.29.9/FacialAge/BNav_EC2/DepthDuration/v2_depth_duration_MTurk/v2_DepthDuration_HTML.html#154,154,1920,937,1920,1080,8-22-2022,8-29-42,49,depth_duration_stimuli/001447_2014-06-19_17-00-32_260595134347_rgbf000082-resize_5/001447_2014-06-19_17-00-32_260595134347_rgbf000082-resize_5-target.png,1000,4.13775,5,2876,1002,feet,jsons/v1_VE1000_randls_43.json,574763,717437,34,Man
49,208096,DepthScenes,duration_manipulation_targetAtFixation,jsons/v1_VE1000_randls_43.json,http://54.235.29.9/FacialAge/BNav_EC2/DepthDuration/v2_depth_duration_MTurk/v2_DepthDuration_HTML.html#154,154,1920,937,1920,1080,8-22-2022,8-29-42,50,depth_duration_stimuli/002988_2014-06-15_12-24-20_094959634447_rgbf000150-resize_1/002988_2014-06-15_12-24-20_094959634447_rgbf000150-resize_1-target.png,1000,4.7669999999999995,6,2936,996,feet,jsons/v1_VE1000_randls_43.json,574763,717437,34,Man
50,208096,DepthScenes,duration_manipulation_targetAtFixation,jsons/v1_VE1000_randls_43.json,http://54.235.29.9/FacialAge/BNav_EC2/DepthDuration/v2_depth_duration_MTurk/v2_DepthDuration_HTML.html#154,154,1920,937,1920,1080,8-22-2022,8-29-42,51,depth_duration_stimuli/001052_2014-06-08_18-24-54_260595134347_rgbf000130-resize_1/001052_2014-06-08_18-24-54_260595134347_rgbf000130-resize_1-target.png,1000,4.1045,5,2413,994,feet,jsons/v1_VE1000_randls_43.json,574763,717437,34,Man
51,208096,DepthScenes,duration_manipulation_targetAtFixation,jsons/v1_VE1000_randls_43.json,http://54.235.29.9/FacialAge/BNav_EC2/DepthDuration/v2_depth_duration_MTurk/v2_DepthDuration_HTML.html#154,154,1920,937,1920,1080,8-22-2022,8-29-42,52,depth_duration_stimuli/002153_2014-06-25_21-27-18_260595134347_rgbf000038-resize_5/002153_2014-06-25_21-27-18_260595134347_rgbf000038-resize_5-target.png,1000,2.505,4,2294,1002,feet,jsons/v1_VE1000_randls_43.json,574763,717437,34,Man
52,208096,DepthScenes,duration_manipulation_targetAtFixation,jsons/v1_VE1000_randls_43.json,http://54.235.29.9/FacialAge/BNav_EC2/DepthDuration/v2_depth_duration_MTurk/v2_DepthDuration_HTML.html#154,154,1920,937,1920,1080,8-22-2022,8-29-42,53,depth_duration_stimuli/002660_2014-06-13_15-44-18_094959634447_rgbf001878-resize_2/002660_2014-06-13_15-44-18_094959634447_rgbf001878-resize_2-target.png,1000,3.576,7,2979,996,feet,jsons/v1_VE1000_randls_43.json,574763,717437,34,Man
53,208096,DepthScenes,duration_manipulation_targetAtFixation,jsons/v1_VE1000_randls_43.json,http://54.235.29.9/FacialAge/BNav_EC2/DepthDuration/v2_depth_duration_MTurk/v2_DepthDuration_HTML.html#154,154,1920,937,1920,1080,8-22-2022,8-29-42,54,depth_duration_stimuli/001150_2014-06-17_15-27-34_260595134347_rgbf000108-resize_2/001150_2014-06-17_15-27-34_260595134347_rgbf000108-resize_2-target.png,1000,4.0325,6,2573,986,feet,jsons/v1_VE1000_randls_43.json,574763,717437,34,Man
54,208096,DepthScenes,duration_manipulation_targetAtFixation,jsons/v1_VE1000_randls_43.json,http://54.235.29.9/FacialAge/BNav_EC2/DepthDuration/v2_depth_duration_MTurk/v2_DepthDuration_HTML.html#154,154,1920,937,1920,1080,8-22-2022,8-29-42,55,depth_duration_stimuli/000665_2014-06-09_20-42-35_260595134347_rgbf000110-resize_1/000665_2014-06-09_20-42-35_260595134347_rgbf000110-resize_1-target.png,1000,3.057,6,2295,994,feet,jsons/v1_VE1000_randls_43.json,574763,717437,34,Man
55,208096,DepthScenes,duration_manipulation_targetAtFixation,jsons/v1_VE1000_randls_43.json,http://54.235.29.9/FacialAge/BNav_EC2/DepthDuration/v2_depth_duration_MTurk/v2_DepthDuration_HTML.html#154,154,1920,937,1920,1080,8-22-2022,8-29-42,56,depth_duration_stimuli/001056_2014-06-08_18-46-44_260595134347_rgbf000068-resize_0/001056_2014-06-08_18-46-44_260595134347_rgbf000068-resize_0-target.png,1000,2.6625,4,2883,1004,feet,jsons/v1_VE1000_randls_43.json,574763,717437,34,Man
56,208096,DepthScenes,duration_manipulation_targetAtFixation,jsons/v1_VE1000_randls_43.json,http://54.235.29.9/FacialAge/BNav_EC2/DepthDuration/v2_depth_duration_MTurk/v2_DepthDuration_HTML.html#154,154,1920,937,1920,1080,8-22-2022,8-29-42,57,depth_duration_stimuli/002199_2014-06-28_18-33-56_260595134347_rgbf000074-resize_0/002199_2014-06-28_18-33-56_260595134347_rgbf000074-resize_0-target.png,1000,1.996,1,2820,999,feet,jsons/v1_VE1000_randls_43.json,574763,717437,34,Man
57,208096,DepthScenes,duration_manipulation_targetAtFixation,jsons/v1_VE1000_randls_43.json,http://54.235.29.9/FacialAge/BNav_EC2/DepthDuration/v2_depth_duration_MTurk/v2_DepthDuration_HTML.html#154,154,1920,937,1920,1080,8-22-2022,8-29-42,58,depth_duration_stimuli/002784_2014-06-22_19-26-30_094959634447_rgbf000083-resize_3/002784_2014-06-22_19-26-30_094959634447_rgbf000083-resize_3-target.png,1000,1.8046666666667,2,2352,996,feet,jsons/v1_VE1000_randls_43.json,574763,717437,34,Man
58,208096,DepthScenes,duration_manipulation_targetAtFixation,jsons/v1_VE1000_randls_43.json,http://54.235.29.9/FacialAge/BNav_EC2/DepthDuration/v2_depth_duration_MTurk/v2_DepthDuration_HTML.html#154,154,1920,937,1920,1080,8-22-2022,8-29-42,59,depth_duration_stimuli/001100_2014-06-15_17-46-26_260595134347_rgbf000225-resize_2/001100_2014-06-15_17-46-26_260595134347_rgbf000225-resize_2-target.png,1000,2.24,2,3131,1006,feet,jsons/v1_VE1000_randls_43.json,574763,717437,34,Man
59,208096,DepthScenes,duration_manipulation_targetAtFixation,jsons/v1_VE1000_randls_43.json,http://54.235.29.9/FacialAge/BNav_EC2/DepthDuration/v2_depth_duration_MTurk/v2_DepthDuration_HTML.html#154,154,1920,937,1920,1080,8-22-2022,8-29-42,60,depth_duration_stimuli/002213_2014-06-28_18-37-58_260595134347_rgbf000055-resize_1/002213_2014-06-28_18-37-58_260595134347_rgbf000055-resize_1-target.png,1000,3.62,9,2764,1011,feet,jsons/v1_VE1000_randls_43.json,574763,717437,34,Man
60,208096,DepthScenes,duration_manipulation_targetAtFixation,jsons/v1_VE1000_randls_43.json,http://54.235.29.9/FacialAge/BNav_EC2/DepthDuration/v2_depth_duration_MTurk/v2_DepthDuration_HTML.html#154,154,1920,937,1920,1080,8-22-2022,8-29-42,61,depth_duration_stimuli/000691_2014-06-08_13-08-50_260595134347_rgbf000132-resize_3/000691_2014-06-08_13-08-50_260595134347_rgbf000132-resize_3-target.png,1000,4.1530000000000005,7,3366,1002,feet,jsons/v1_VE1000_randls_43.json,574763,717437,34,Man
61,208096,DepthScenes,duration_manipulation_targetAtFixation,jsons/v1_VE1000_randls_43.json,http://54.235.29.9/FacialAge/BNav_EC2/DepthDuration/v2_depth_duration_MTurk/v2_DepthDuration_HTML.html#154,154,1920,937,1920,1080,8-22-2022,8-29-42,62,depth_duration_stimuli/000414_2014-06-04_19-49-13_260595134347_rgbf000044-resize_0/000414_2014-06-04_19-49-13_260595134347_rgbf000044-resize_0-target.png,1000,4.329,10,3066,995,feet,jsons/v1_VE1000_randls_43.json,574763,717437,34,Man
62,208096,DepthScenes,duration_manipulation_targetAtFixation,jsons/v1_VE1000_randls_43.json,http://54.235.29.9/FacialAge/BNav_EC2/DepthDuration/v2_depth_duration_MTurk/v2_DepthDuration_HTML.html#154,154,1920,937,1920,1080,8-22-2022,8-29-42,63,depth_duration_stimuli/003129_2014-05-12_10-48-10_094959634447_rgbf000100-resize_0/003129_2014-05-12_10-48-10_094959634447_rgbf000100-resize_0-target.png,1000,4.9305,7,3379,1007,feet,jsons/v1_VE1000_randls_43.json,574763,717437,34,Man
63,208096,DepthScenes,duration_manipulation_targetAtFixation,jsons/v1_VE1000_randls_43.json,http://54.235.29.9/FacialAge/BNav_EC2/DepthDuration/v2_depth_duration_MTurk/v2_DepthDuration_HTML.html#154,154,1920,937,1920,1080,8-22-2022,8-29-42,64,depth_duration_stimuli/002905_2014-06-03_18-04-43_094959634447_rgbf000151-resize_2/002905_2014-06-03_18-04-43_094959634447_rgbf000151-resize_2-target.png,1000,2.0295,3,2339,1003,feet,jsons/v1_VE1000_randls_43.json,574763,717437,34,Man
64,208096,DepthScenes,duration_manipulation_targetAtFixation,jsons/v1_VE1000_randls_43.json,http://54.235.29.9/FacialAge/BNav_EC2/DepthDuration/v2_depth_duration_MTurk/v2_DepthDuration_HTML.html#154,154,1920,937,1920,1080,8-22-2022,8-29-42,65,depth_duration_stimuli/003423_2014-05-21_10-23-26_094959634447_rgbf002665-resize_2/003423_2014-05-21_10-23-26_094959634447_rgbf002665-resize_2-target.png,1000,3.2575,9,2800,999,feet,jsons/v1_VE1000_randls_43.json,574763,717437,34,Man
65,208096,DepthScenes,duration_manipulation_targetAtFixation,jsons/v1_VE1000_randls_43.json,http://54.235.29.9/FacialAge/BNav_EC2/DepthDuration/v2_depth_duration_MTurk/v2_DepthDuration_HTML.html#154,154,1920,937,1920,1080,8-22-2022,8-29-42,66,depth_duration_stimuli/001222_2014-06-17_16-24-06_260595134347_rgbf000073-resize_0/001222_2014-06-17_16-24-06_260595134347_rgbf000073-resize-original.jpg,1000,1.4385,0,2883,1012,feet,jsons/v1_VE1000_randls_43.json,574763,717437,34,Man
66,208096,DepthScenes,duration_manipulation_targetAtFixation,jsons/v1_VE1000_randls_43.json,http://54.235.29.9/FacialAge/BNav_EC2/DepthDuration/v2_depth_duration_MTurk/v2_DepthDuration_HTML.html#154,154,1920,937,1920,1080,8-22-2022,8-29-42,67,depth_duration_stimuli/002272_2014-06-28_18-53-56_260595134347_rgbf000067-resize_2/002272_2014-06-28_18-53-56_260595134347_rgbf000067-resize_2-target.png,1000,1.138,2,2759,1001,feet,jsons/v1_VE1000_randls_43.json,574763,717437,34,Man
67,208096,DepthScenes,duration_manipulation_targetAtFixation,jsons/v1_VE1000_randls_43.json,http://54.235.29.9/FacialAge/BNav_EC2/DepthDuration/v2_depth_duration_MTurk/v2_DepthDuration_HTML.html#154,154,1920,937,1920,1080,8-22-2022,8-29-42,68,depth_duration_stimuli/001571_2014-06-20_17-21-32_260595134347_rgbf000089-resize_1/001571_2014-06-20_17-21-32_260595134347_rgbf000089-resize_1-target.png,1000,1.86,3,2562,999,feet,jsons/v1_VE1000_randls_43.json,574763,717437,34,Man
68,208096,DepthScenes,duration_manipulation_targetAtFixation,jsons/v1_VE1000_randls_43.json,http://54.235.29.9/FacialAge/BNav_EC2/DepthDuration/v2_depth_duration_MTurk/v2_DepthDuration_HTML.html#154,154,1920,937,1920,1080,8-22-2022,8-29-42,69,depth_duration_stimuli/002118_2014-06-25_20-32-08_260595134347_rgbf000078-resize_1/002118_2014-06-25_20-32-08_260595134347_rgbf000078-resize_1-target.png,1000,2.6460000000000004,4,2508,1000,feet,jsons/v1_VE1000_randls_43.json,574763,717437,34,Man
69,208096,DepthScenes,duration_manipulation_targetAtFixation,jsons/v1_VE1000_randls_43.json,http://54.235.29.9/FacialAge/BNav_EC2/DepthDuration/v2_depth_duration_MTurk/v2_DepthDuration_HTML.html#154,154,1920,937,1920,1080,8-22-2022,8-29-42,70,depth_duration_stimuli/001516_2014-06-20_16-25-09_260595134347_rgbf000076-resize_2/001516_2014-06-20_16-25-09_260595134347_rgbf000076-resize_2-target.png,1000,1.7445,2,2682,1002,feet,jsons/v1_VE1000_randls_43.json,574763,717437,34,Man
70,208096,DepthScenes,duration_manipulation_targetAtFixation,jsons/v1_VE1000_randls_43.json,http://54.235.29.9/FacialAge/BNav_EC2/DepthDuration/v2_depth_duration_MTurk/v2_DepthDuration_HTML.html#154,154,1920,937,1920,1080,8-22-2022,8-29-42,71,depth_duration_stimuli/002763_2014-06-22_19-13-10_094959634447_rgbf000075-resize_4/002763_2014-06-22_19-13-10_094959634447_rgbf000075-resize_4-target.png,1000,1.68375,2,2273,991,feet,jsons/v1_VE1000_randls_43.json,574763,717437,34,Man
71,208096,DepthScenes,duration_manipulation_targetAtFixation,jsons/v1_VE1000_randls_43.json,http://54.235.29.9/FacialAge/BNav_EC2/DepthDuration/v2_depth_duration_MTurk/v2_DepthDuration_HTML.html#154,154,1920,937,1920,1080,8-22-2022,8-29-42,72,depth_duration_stimuli/002209_2014-06-28_18-36-10_260595134347_rgbf000051-resize_1/002209_2014-06-28_18-36-10_260595134347_rgbf000051-resize_1-target.png,1000,2.057,3,3219,998,feet,jsons/v1_VE1000_randls_43.json,574763,717437,34,Man
72,208096,DepthScenes,duration_manipulation_targetAtFixation,jsons/v1_VE1000_randls_43.json,http://54.235.29.9/FacialAge/BNav_EC2/DepthDuration/v2_depth_duration_MTurk/v2_DepthDuration_HTML.html#154,154,1920,937,1920,1080,8-22-2022,8-29-42,73,depth_duration_stimuli/001570_2014-06-20_17-21-09_260595134347_rgbf000135-resize_4/001570_2014-06-20_17-21-09_260595134347_rgbf000135-resize_4-target.png,1000,4.467,67,4061,1001,feet,jsons/v1_VE1000_randls_43.json,574763,717437,34,Man
73,208096,DepthScenes,duration_manipulation_targetAtFixation,jsons/v1_VE1000_randls_43.json,http://54.235.29.9/FacialAge/BNav_EC2/DepthDuration/v2_depth_duration_MTurk/v2_DepthDuration_HTML.html#154,154,1920,937,1920,1080,8-22-2022,8-29-42,74,depth_duration_stimuli/001392_2014-06-19_16-07-59_260595134347_rgbf000046-resize_1/001392_2014-06-19_16-07-59_260595134347_rgbf000046-resize_1-target.png,1000,4.135,6,3963,1015,feet,jsons/v1_VE1000_randls_43.json,574763,717437,34,Man
74,208096,DepthScenes,duration_manipulation_targetAtFixation,jsons/v1_VE1000_randls_43.json,http://54.235.29.9/FacialAge/BNav_EC2/DepthDuration/v2_depth_duration_MTurk/v2_DepthDuration_HTML.html#154,154,1920,937,1920,1080,8-22-2022,8-29-42,75,depth_duration_stimuli/002509_2014-06-24_13-19-22_094959634447_rgbf000077-resize_0/002509_2014-06-24_13-19-22_094959634447_rgbf000077-resize_0-target.png,1000,1.3065,3,2724,1000,feet,jsons/v1_VE1000_randls_43.json,574763,717437,34,Man
75,208096,DepthScenes,duration_manipulation_targetAtFixation,jsons/v1_VE1000_randls_43.json,http://54.235.29.9/FacialAge/BNav_EC2/DepthDuration/v2_depth_duration_MTurk/v2_DepthDuration_HTML.html#154,154,1920,937,1920,1080,8-22-2022,8-29-42,76,depth_duration_stimuli/003338_2014-05-20_11-01-23_094959634447_rgbf000051-resize_6/003338_2014-05-20_11-01-23_094959634447_rgbf000051-resize_6-target.png,1000,1.693,2,2396,1012,feet,jsons/v1_VE1000_randls_43.json,574763,717437,34,Man
76,208096,DepthScenes,duration_manipulation_targetAtFixation,jsons/v1_VE1000_randls_43.json,http://54.235.29.9/FacialAge/BNav_EC2/DepthDuration/v2_depth_duration_MTurk/v2_DepthDuration_HTML.html#154,154,1920,937,1920,1080,8-22-2022,8-29-42,77,depth_duration_stimuli/000682_2014-06-08_23-14-58_260595134347_rgbf000041-resize_5/000682_2014-06-08_23-14-58_260595134347_rgbf000041-resize_5-target.png,1000,2.7239999999999998,7,3148,1000,feet,jsons/v1_VE1000_randls_43.json,574763,717437,34,Man
77,208096,DepthScenes,duration_manipulation_targetAtFixation,jsons/v1_VE1000_randls_43.json,http://54.235.29.9/FacialAge/BNav_EC2/DepthDuration/v2_depth_duration_MTurk/v2_DepthDuration_HTML.html#154,154,1920,937,1920,1080,8-22-2022,8-29-42,78,depth_duration_stimuli/001650_2014-06-20_12-09-00_260595134347_rgbf000087-resize_3/001650_2014-06-20_12-09-00_260595134347_rgbf000087-resize_3-target.png,1000,1.9505,3,2492,1005,feet,jsons/v1_VE1000_randls_43.json,574763,717437,34,Man
78,208096,DepthScenes,duration_manipulation_targetAtFixation,jsons/v1_VE1000_randls_43.json,http://54.235.29.9/FacialAge/BNav_EC2/DepthDuration/v2_depth_duration_MTurk/v2_DepthDuration_HTML.html#154,154,1920,937,1920,1080,8-22-2022,8-29-42,79,depth_duration_stimuli/001066_2014-06-08_22-03-20_260595134347_rgbf000066-resize_4/001066_2014-06-08_22-03-20_260595134347_rgbf000066-resize_4-target.png,1000,4.2330000000000005,7,4539,998,feet,jsons/v1_VE1000_randls_43.json,574763,717437,34,Man
79,208096,DepthScenes,duration_manipulation_targetAtFixation,jsons/v1_VE1000_randls_43.json,http://54.235.29.9/FacialAge/BNav_EC2/DepthDuration/v2_depth_duration_MTurk/v2_DepthDuration_HTML.html#154,154,1920,937,1920,1080,8-22-2022,8-29-42,80,depth_duration_stimuli/000742_2014-06-08_18-48-09_260595134347_rgbf000164-resize_4/000742_2014-06-08_18-48-09_260595134347_rgbf000164-resize_4-target.png,1000,4.632,8,2531,1011,feet,jsons/v1_VE1000_randls_43.json,574763,717437,34,Man
80,208096,DepthScenes,duration_manipulation_targetAtFixation,jsons/v1_VE1000_randls_43.json,http://54.235.29.9/FacialAge/BNav_EC2/DepthDuration/v2_depth_duration_MTurk/v2_DepthDuration_HTML.html#154,154,1920,937,1920,1080,8-22-2022,8-29-42,81,depth_duration_stimuli/002989_2014-06-15_12-25-03_094959634447_rgbf000150-resize_3/002989_2014-06-15_12-25-03_094959634447_rgbf000150-resize_3-target.png,1000,4.1975,10,3260,1001,feet,jsons/v1_VE1000_randls_43.json,574763,717437,34,Man
81,208096,DepthScenes,duration_manipulation_targetAtFixation,jsons/v1_VE1000_randls_43.json,http://54.235.29.9/FacialAge/BNav_EC2/DepthDuration/v2_depth_duration_MTurk/v2_DepthDuration_HTML.html#154,154,1920,937,1920,1080,8-22-2022,8-29-42,82,depth_duration_stimuli/000866_2014-06-09_20-45-42_260595134347_rgbf000139-resize_1/000866_2014-06-09_20-45-42_260595134347_rgbf000139-resize_1-target.png,1000,3.2155,3,2865,989,feet,jsons/v1_VE1000_randls_43.json,574763,717437,34,Man
82,208096,DepthScenes,duration_manipulation_targetAtFixation,jsons/v1_VE1000_randls_43.json,http://54.235.29.9/FacialAge/BNav_EC2/DepthDuration/v2_depth_duration_MTurk/v2_DepthDuration_HTML.html#154,154,1920,937,1920,1080,8-22-2022,8-29-42,83,depth_duration_stimuli/001417_2014-06-19_16-25-36_260595134347_rgbf000115-resize_5/001417_2014-06-19_16-25-36_260595134347_rgbf000115-resize_5-target.png,1000,4.6255,8,3780,1007,feet,jsons/v1_VE1000_randls_43.json,574763,717437,34,Man
83,208096,DepthScenes,duration_manipulation_targetAtFixation,jsons/v1_VE1000_randls_43.json,http://54.235.29.9/FacialAge/BNav_EC2/DepthDuration/v2_depth_duration_MTurk/v2_DepthDuration_HTML.html#154,154,1920,937,1920,1080,8-22-2022,8-29-42,84,depth_duration_stimuli/003081_2014-06-15_15-19-16_094959634447_rgbf000150-resize_1/003081_2014-06-15_15-19-16_094959634447_rgbf000150-resize_1-target.png,1000,3.9125,7,2859,1000,feet,jsons/v1_VE1000_randls_43.json,574763,717437,34,Man
84,208096,DepthScenes,duration_manipulation_targetAtFixation,jsons/v1_VE1000_randls_43.json,http://54.235.29.9/FacialAge/BNav_EC2/DepthDuration/v2_depth_duration_MTurk/v2_DepthDuration_HTML.html#154,154,1920,937,1920,1080,8-22-2022,8-29-42,85,depth_duration_stimuli/001175_2014-06-17_15-45-55_260595134347_rgbf000129-resize_4/001175_2014-06-17_15-45-55_260595134347_rgbf000129-resize_4-target.png,1000,4.255,9,3143,995,feet,jsons/v1_VE1000_randls_43.json,574763,717437,34,Man
85,208096,DepthScenes,duration_manipulation_targetAtFixation,jsons/v1_VE1000_randls_43.json,http://54.235.29.9/FacialAge/BNav_EC2/DepthDuration/v2_depth_duration_MTurk/v2_DepthDuration_HTML.html#154,154,1920,937,1920,1080,8-22-2022,8-29-42,86,depth_duration_stimuli/003490_2014-05-21_15-50-11_094959634447_rgbf000101-resize_3/003490_2014-05-21_15-50-11_094959634447_rgbf000101-resize_3-target.png,1000,3.6445,8,3420,999,feet,jsons/v1_VE1000_randls_43.json,574763,717437,34,Man
86,208096,DepthScenes,duration_manipulation_targetAtFixation,jsons/v1_VE1000_randls_43.json,http://54.235.29.9/FacialAge/BNav_EC2/DepthDuration/v2_depth_duration_MTurk/v2_DepthDuration_HTML.html#154,154,1920,937,1920,1080,8-22-2022,8-29-42,87,depth_duration_stimuli/000788_2014-06-08_22-34-36_260595134347_rgbf000131-resize_1/000788_2014-06-08_22-34-36_260595134347_rgbf000131-resize_1-target.png,1000,3.359,6,3180,1007,feet,jsons/v1_VE1000_randls_43.json,574763,717437,34,Man
87,208096,DepthScenes,duration_manipulation_targetAtFixation,jsons/v1_VE1000_randls_43.json,http://54.235.29.9/FacialAge/BNav_EC2/DepthDuration/v2_depth_duration_MTurk/v2_DepthDuration_HTML.html#154,154,1920,937,1920,1080,8-22-2022,8-29-42,88,depth_duration_stimuli/001235_2014-06-17_16-37-36_260595134347_rgbf000084-resize_4/001235_2014-06-17_16-37-36_260595134347_rgbf000084-resize_4-target.png,1000,3.6605,7,2388,1001,feet,jsons/v1_VE1000_randls_43.json,574763,717437,34,Man
88,208096,DepthScenes,duration_manipulation_targetAtFixation,jsons/v1_VE1000_randls_43.json,http://54.235.29.9/FacialAge/BNav_EC2/DepthDuration/v2_depth_duration_MTurk/v2_DepthDuration_HTML.html#154,154,1920,937,1920,1080,8-22-2022,8-29-42,89,depth_duration_stimuli/000810_2014-06-08_17-20-01_260595134347_rgbf000105-resize_0/000810_2014-06-08_17-20-01_260595134347_rgbf000105-resize_0-target.png,1000,1.4865,3,2699,1000,feet,jsons/v1_VE1000_randls_43.json,574763,717437,34,Man
89,208096,DepthScenes,duration_manipulation_targetAtFixation,jsons/v1_VE1000_randls_43.json,http://54.235.29.9/FacialAge/BNav_EC2/DepthDuration/v2_depth_duration_MTurk/v2_DepthDuration_HTML.html#154,154,1920,937,1920,1080,8-22-2022,8-29-42,90,depth_duration_stimuli/001214_2014-06-17_16-13-55_260595134347_rgbf000111-resize_0/001214_2014-06-17_16-13-55_260595134347_rgbf000111-resize_0-target.png,1000,2.6505,4,2292,992,feet,jsons/v1_VE1000_randls_43.json,574763,717437,34,Man
90,208096,DepthScenes,duration_manipulation_targetAtFixation,jsons/v1_VE1000_randls_43.json,http://54.235.29.9/FacialAge/BNav_EC2/DepthDuration/v2_depth_duration_MTurk/v2_DepthDuration_HTML.html#154,154,1920,937,1920,1080,8-22-2022,8-29-42,91,depth_duration_stimuli/002279_2014-06-28_18-55-32_260595134347_rgbf000040-resize_5/002279_2014-06-28_18-55-32_260595134347_rgbf000040-resize_5-target.png,1000,1.5043333333333,2,2240,997,feet,jsons/v1_VE1000_randls_43.json,574763,717437,34,Man
91,208096,DepthScenes,duration_manipulation_targetAtFixation,jsons/v1_VE1000_randls_43.json,http://54.235.29.9/FacialAge/BNav_EC2/DepthDuration/v2_depth_duration_MTurk/v2_DepthDuration_HTML.html#154,154,1920,937,1920,1080,8-22-2022,8-29-42,92,depth_duration_stimuli/000635_2014-06-08_16-38-42_260595134347_rgbf000106-resize_1/000635_2014-06-08_16-38-42_260595134347_rgbf000106-resize_1-target.png,1000,2.074,5,3104,988,feet,jsons/v1_VE1000_randls_43.json,574763,717437,34,Man
92,208096,DepthScenes,duration_manipulation_targetAtFixation,jsons/v1_VE1000_randls_43.json,http://54.235.29.9/FacialAge/BNav_EC2/DepthDuration/v2_depth_duration_MTurk/v2_DepthDuration_HTML.html#154,154,1920,937,1920,1080,8-22-2022,8-29-42,93,depth_duration_stimuli/001110_2014-06-15_17-25-28_260595134347_rgbf000150-resize_1/001110_2014-06-15_17-25-28_260595134347_rgbf000150-resize_1-target.png,1000,1.7115,3,2365,986,feet,jsons/v1_VE1000_randls_43.json,574763,717437,34,Man
93,208096,DepthScenes,duration_manipulation_targetAtFixation,jsons/v1_VE1000_randls_43.json,http://54.235.29.9/FacialAge/BNav_EC2/DepthDuration/v2_depth_duration_MTurk/v2_DepthDuration_HTML.html#154,154,1920,937,1920,1080,8-22-2022,8-29-42,94,depth_duration_stimuli/000927_2014-06-09_16-32-30_260595134347_rgbf000123-resize_3/000927_2014-06-09_16-32-30_260595134347_rgbf000123-resize_3-target.png,1000,2.6785,4,2852,1000,feet,jsons/v1_VE1000_randls_43.json,574763,717437,34,Man
94,208096,DepthScenes,duration_manipulation_targetAtFixation,jsons/v1_VE1000_randls_43.json,http://54.235.29.9/FacialAge/BNav_EC2/DepthDuration/v2_depth_duration_MTurk/v2_DepthDuration_HTML.html#154,154,1920,937,1920,1080,8-22-2022,8-29-42,95,depth_duration_stimuli/002600_2014-06-24_14-27-04_094959634447_rgbf000074-resize_2/002600_2014-06-24_14-27-04_094959634447_rgbf000074-resize_2-target.png,1000,2.7575,5,2882,991,feet,jsons/v1_VE1000_randls_43.json,574763,717437,34,Man
95,208096,DepthScenes,duration_manipulation_targetAtFixation,jsons/v1_VE1000_randls_43.json,http://54.235.29.9/FacialAge/BNav_EC2/DepthDuration/v2_depth_duration_MTurk/v2_DepthDuration_HTML.html#154,154,1920,937,1920,1080,8-22-2022,8-29-42,96,depth_duration_stimuli/003228_2014-05-14_13-42-35_094959634447_rgbf000101-resize_1/003228_2014-05-14_13-42-35_094959634447_rgbf000101-resize_1-target.png,1000,1.9680000000000002,2,2284,1007,feet,jsons/v1_VE1000_randls_43.json,574763,717437,34,Man
96,208096,DepthScenes,duration_manipulation_targetAtFixation,jsons/v1_VE1000_randls_43.json,http://54.235.29.9/FacialAge/BNav_EC2/DepthDuration/v2_depth_duration_MTurk/v2_DepthDuration_HTML.html#154,154,1920,937,1920,1080,8-22-2022,8-29-42,97,depth_duration_stimuli/000917_2014-06-09_22-45-29_260595134347_rgbf000149-resize_3/000917_2014-06-09_22-45-29_260595134347_rgbf000149-resize_3-target.png,1000,4.1865,6,3100,999,feet,jsons/v1_VE1000_randls_43.json,574763,717437,34,Man
97,208096,DepthScenes,duration_manipulation_targetAtFixation,jsons/v1_VE1000_randls_43.json,http://54.235.29.9/FacialAge/BNav_EC2/DepthDuration/v2_depth_duration_MTurk/v2_DepthDuration_HTML.html#154,154,1920,937,1920,1080,8-22-2022,8-29-42,98,depth_duration_stimuli/002323_2014-06-28_20-01-54_260595134347_rgbf000051-resize_4/002323_2014-06-28_20-01-54_260595134347_rgbf000051-resize_4-target.png,1000,3.7310000000000003,6,3639,997,feet,jsons/v1_VE1000_randls_43.json,574763,717437,34,Man
98,208096,DepthScenes,duration_manipulation_targetAtFixation,jsons/v1_VE1000_randls_43.json,http://54.235.29.9/FacialAge/BNav_EC2/DepthDuration/v2_depth_duration_MTurk/v2_DepthDuration_HTML.html#154,154,1920,937,1920,1080,8-22-2022,8-29-42,99,depth_duration_stimuli/001540_2014-06-20_17-01-05_260595134347_rgbf000086-resize_2/001540_2014-06-20_17-01-05_260595134347_rgbf000086-resize-original.jpg,1000,1.459,0,3340,1000,feet,jsons/v1_VE1000_randls_43.json,574763,717437,34,Man
99,208096,DepthScenes,duration_manipulation_targetAtFixation,jsons/v1_VE1000_randls_43.json,http://54.235.29.9/FacialAge/BNav_EC2/DepthDuration/v2_depth_duration_MTurk/v2_DepthDuration_HTML.html#154,154,1920,937,1920,1080,8-22-2022,8-29-42,100,depth_duration_stimuli/001158_2014-06-17_15-32-16_260595134347_rgbf000138-resize_2/001158_2014-06-17_15-32-16_260595134347_rgbf000138-resize_2-target.png,1000,4.5315,5,3219,1000,feet,jsons/v1_VE1000_randls_43.json,574763,717437,34,Man
100,208096,DepthScenes,duration_manipulation_targetAtFixation,jsons/v1_VE1000_randls_43.json,http://54.235.29.9/FacialAge/BNav_EC2/DepthDuration/v2_depth_duration_MTurk/v2_DepthDuration_HTML.html#154,154,1920,937,1920,1080,8-22-2022,8-29-42,101,depth_duration_stimuli/000556_2014-06-09_22-42-56_260595134347_rgbf000214-resize_1/000556_2014-06-09_22-42-56_260595134347_rgbf000214-resize_1-target.png,1000,4.8415,6,2804,1011,feet,jsons/v1_VE1000_randls_43.json,574763,717437,34,Man
101,208096,DepthScenes,duration_manipulation_targetAtFixation,jsons/v1_VE1000_randls_43.json,http://54.235.29.9/FacialAge/BNav_EC2/DepthDuration/v2_depth_duration_MTurk/v2_DepthDuration_HTML.html#154,154,1920,937,1920,1080,8-22-2022,8-29-42,102,depth_duration_stimuli/000436_2014-06-09_22-25-11_260595134347_rgbf000137-resize_1/000436_2014-06-09_22-25-11_260595134347_rgbf000137-resize_1-target.png,1000,4.0705,7,2651,1014,feet,jsons/v1_VE1000_randls_43.json,574763,717437,34,Man
102,208096,DepthScenes,duration_manipulation_targetAtFixation,jsons/v1_VE1000_randls_43.json,http://54.235.29.9/FacialAge/BNav_EC2/DepthDuration/v2_depth_duration_MTurk/v2_DepthDuration_HTML.html#154,154,1920,937,1920,1080,8-22-2022,8-29-42,103,depth_duration_stimuli/002444_2014-06-28_20-32-08_260595134347_rgbf000027-resize_0/002444_2014-06-28_20-32-08_260595134347_rgbf000027-resize_0-target.png,1000,4.388999999999999,7,2292,1000,feet,jsons/v1_VE1000_randls_43.json,574763,717437,34,Man
103,208096,DepthScenes,duration_manipulation_targetAtFixation,jsons/v1_VE1000_randls_43.json,http://54.235.29.9/FacialAge/BNav_EC2/DepthDuration/v2_depth_duration_MTurk/v2_DepthDuration_HTML.html#154,154,1920,937,1920,1080,8-22-2022,8-29-42,104,depth_duration_stimuli/001011_2014-06-08_23-18-54_260595134347_rgbf000044-resize_4/001011_2014-06-08_23-18-54_260595134347_rgbf000044-resize_4-target.png,1000,2.4730000000000003,5,2693,992,feet,jsons/v1_VE1000_randls_43.json,574763,717437,34,Man
104,208096,DepthScenes,duration_manipulation_targetAtFixation,jsons/v1_VE1000_randls_43.json,http://54.235.29.9/FacialAge/BNav_EC2/DepthDuration/v2_depth_duration_MTurk/v2_DepthDuration_HTML.html#154,154,1920,937,1920,1080,8-22-2022,8-29-42,105,depth_duration_stimuli/002875_2014-06-01_15-19-00_094959634447_rgbf000151-resize_1/002875_2014-06-01_15-19-00_094959634447_rgbf000151-resize_1-target.png,1000,1.9675,3,3557,999,feet,jsons/v1_VE1000_randls_43.json,574763,717437,34,Man
105,208096,DepthScenes,duration_manipulation_targetAtFixation,jsons/v1_VE1000_randls_43.json,http://54.235.29.9/FacialAge/BNav_EC2/DepthDuration/v2_depth_duration_MTurk/v2_DepthDuration_HTML.html#154,154,1920,937,1920,1080,8-22-2022,8-29-42,106,depth_duration_stimuli/003492_2014-05-21_15-50-55_094959634447_rgbf000828-resize_1/003492_2014-05-21_15-50-55_094959634447_rgbf000828-resize_1-target.png,1000,4.06875,5,3092,1000,feet,jsons/v1_VE1000_randls_43.json,574763,717437,34,Man
106,208096,DepthScenes,duration_manipulation_targetAtFixation,jsons/v1_VE1000_randls_43.json,http://54.235.29.9/FacialAge/BNav_EC2/DepthDuration/v2_depth_duration_MTurk/v2_DepthDuration_HTML.html#154,154,1920,937,1920,1080,8-22-2022,8-29-42,107,depth_duration_stimuli/002568_2014-06-24_13-59-21_094959634447_rgbf000062-resize_4/002568_2014-06-24_13-59-21_094959634447_rgbf000062-resize_4-target.png,1000,3.015,4,2476,999,feet,jsons/v1_VE1000_randls_43.json,574763,717437,34,Man
107,208096,DepthScenes,duration_manipulation_targetAtFixation,jsons/v1_VE1000_randls_43.json,http://54.235.29.9/FacialAge/BNav_EC2/DepthDuration/v2_depth_duration_MTurk/v2_DepthDuration_HTML.html#154,154,1920,937,1920,1080,8-22-2022,8-29-42,108,depth_duration_stimuli/001164_2014-06-17_15-35-46_260595134347_rgbf000085-resize_3/001164_2014-06-17_15-35-46_260595134347_rgbf000085-resize_3-target.png,1000,2.354,4,3364,1000,feet,jsons/v1_VE1000_randls_43.json,574763,717437,34,Man
108,208096,DepthScenes,duration_manipulation_targetAtFixation,jsons/v1_VE1000_randls_43.json,http://54.235.29.9/FacialAge/BNav_EC2/DepthDuration/v2_depth_duration_MTurk/v2_DepthDuration_HTML.html#154,154,1920,937,1920,1080,8-22-2022,8-29-42,109,depth_duration_stimuli/001136_2014-06-17_15-19-41_260595134347_rgbf000076-resize_3/001136_2014-06-17_15-19-41_260595134347_rgbf000076-resize_3-target.png,1000,1.8655,3,2659,1001,feet,jsons/v1_VE1000_randls_43.json,574763,717437,34,Man
109,208096,DepthScenes,duration_manipulation_targetAtFixation,jsons/v1_VE1000_randls_43.json,http://54.235.29.9/FacialAge/BNav_EC2/DepthDuration/v2_depth_duration_MTurk/v2_DepthDuration_HTML.html#154,154,1920,937,1920,1080,8-22-2022,8-29-42,110,depth_duration_stimuli/000506_2014-06-08_23-21-00_260595134347_rgbf000070-resize_7/000506_2014-06-08_23-21-00_260595134347_rgbf000070-resize_7-target.png,1000,4.0585,6,2561,1009,feet,jsons/v1_VE1000_randls_43.json,574763,717437,34,Man
110,208096,DepthScenes,duration_manipulation_targetAtFixation,jsons/v1_VE1000_randls_43.json,http://54.235.29.9/FacialAge/BNav_EC2/DepthDuration/v2_depth_duration_MTurk/v2_DepthDuration_HTML.html#154,154,1920,937,1920,1080,8-22-2022,8-29-42,111,depth_duration_stimuli/003079_2014-06-15_15-18-20_094959634447_rgbf000152-resize_8/003079_2014-06-15_15-18-20_094959634447_rgbf000152-resize_8-target.png,1000,2.8775,6,2579,1000,feet,jsons/v1_VE1000_randls_43.json,574763,717437,34,Man
111,208096,DepthScenes,duration_manipulation_targetAtFixation,jsons/v1_VE1000_randls_43.json,http://54.235.29.9/FacialAge/BNav_EC2/DepthDuration/v2_depth_duration_MTurk/v2_DepthDuration_HTML.html#154,154,1920,937,1920,1080,8-22-2022,8-29-42,112,depth_duration_stimuli/000493_2014-06-09_21-01-18_260595134347_rgbf000196-resize_3/000493_2014-06-09_21-01-18_260595134347_rgbf000196-resize_3-target.png,1000,3.44,4,2827,1000,feet,jsons/v1_VE1000_randls_43.json,574763,717437,34,Man
112,208096,DepthScenes,duration_manipulation_targetAtFixation,jsons/v1_VE1000_randls_43.json,http://54.235.29.9/FacialAge/BNav_EC2/DepthDuration/v2_depth_duration_MTurk/v2_DepthDuration_HTML.html#154,154,1920,937,1920,1080,8-22-2022,8-29-42,113,depth_duration_stimuli/000191_2014-05-12_17-07-38_260595134347_rgbf000199-resize_0/000191_2014-05-12_17-07-38_260595134347_rgbf000199-resize_0-target.png,1000,3.7995,6,3108,1000,feet,jsons/v1_VE1000_randls_43.json,574763,717437,34,Man
113,208096,DepthScenes,duration_manipulation_targetAtFixation,jsons/v1_VE1000_randls_43.json,http://54.235.29.9/FacialAge/BNav_EC2/DepthDuration/v2_depth_duration_MTurk/v2_DepthDuration_HTML.html#154,154,1920,937,1920,1080,8-22-2022,8-29-42,114,depth_duration_stimuli/000486_2014-06-09_20-47-20_260595134347_rgbf000143-resize_2/000486_2014-06-09_20-47-20_260595134347_rgbf000143-resize_2-target.png,1000,4.8325,5,2603,1005,feet,jsons/v1_VE1000_randls_43.json,574763,717437,34,Man
114,208096,DepthScenes,duration_manipulation_targetAtFixation,jsons/v1_VE1000_randls_43.json,http://54.235.29.9/FacialAge/BNav_EC2/DepthDuration/v2_depth_duration_MTurk/v2_DepthDuration_HTML.html#154,154,1920,937,1920,1080,8-22-2022,8-29-42,115,depth_duration_stimuli/003083_2014-06-15_15-21-03_094959634447_rgbf000063-resize_1/003083_2014-06-15_15-21-03_094959634447_rgbf000063-resize_1-target.png,1000,4.1405,7,3039,1005,feet,jsons/v1_VE1000_randls_43.json,574763,717437,34,Man
115,208096,DepthScenes,duration_manipulation_targetAtFixation,jsons/v1_VE1000_randls_43.json,http://54.235.29.9/FacialAge/BNav_EC2/DepthDuration/v2_depth_duration_MTurk/v2_DepthDuration_HTML.html#154,154,1920,937,1920,1080,8-22-2022,8-29-42,116,depth_duration_stimuli/001170_2014-06-17_15-43-44_260595134347_rgbf000096-resize_6/001170_2014-06-17_15-43-44_260595134347_rgbf000096-resize-original.jpg,1000,1.1909999999999998,0,2780,1007,feet,jsons/v1_VE1000_randls_43.json,574763,717437,34,Man
116,208096,DepthScenes,duration_manipulation_targetAtFixation,jsons/v1_VE1000_randls_43.json,http://54.235.29.9/FacialAge/BNav_EC2/DepthDuration/v2_depth_duration_MTurk/v2_DepthDuration_HTML.html#154,154,1920,937,1920,1080,8-22-2022,8-29-42,117,depth_duration_stimuli/000469_2014-06-09_19-42-10_260595134347_rgbf000081-resize_1/000469_2014-06-09_19-42-10_260595134347_rgbf000081-resize_1-target.png,1000,1.652,2,2340,1015,feet,jsons/v1_VE1000_randls_43.json,574763,717437,34,Man
117,208096,DepthScenes,duration_manipulation_targetAtFixation,jsons/v1_VE1000_randls_43.json,http://54.235.29.9/FacialAge/BNav_EC2/DepthDuration/v2_depth_duration_MTurk/v2_DepthDuration_HTML.html#154,154,1920,937,1920,1080,8-22-2022,8-29-42,118,depth_duration_stimuli/000483_2014-06-09_20-41-45_260595134347_rgbf000116-resize_4/000483_2014-06-09_20-41-45_260595134347_rgbf000116-resize_4-target.png,1000,1.337,1,2756,1001,feet,jsons/v1_VE1000_randls_43.json,574763,717437,34,Man
118,208096,DepthScenes,duration_manipulation_targetAtFixation,jsons/v1_VE1000_randls_43.json,http://54.235.29.9/FacialAge/BNav_EC2/DepthDuration/v2_depth_duration_MTurk/v2_DepthDuration_HTML.html#154,154,1920,937,1920,1080,8-22-2022,8-29-42,119,depth_duration_stimuli/001449_2014-06-19_17-01-27_260595134347_rgbf000116-resize_2/001449_2014-06-19_17-01-27_260595134347_rgbf000116-resize_2-target.png,1000,3.452,3,2700,988,feet,jsons/v1_VE1000_randls_43.json,574763,717437,34,Man
119,208096,DepthScenes,duration_manipulation_targetAtFixation,jsons/v1_VE1000_randls_43.json,http://54.235.29.9/FacialAge/BNav_EC2/DepthDuration/v2_depth_duration_MTurk/v2_DepthDuration_HTML.html#154,154,1920,937,1920,1080,8-22-2022,8-29-42,120,depth_duration_stimuli/001450_2014-06-19_17-02-03_260595134347_rgbf000203-resize_4/001450_2014-06-19_17-02-03_260595134347_rgbf000203-resize_4-target.png,1000,4.0106666666667,7,3716,1000,feet,jsons/v1_VE1000_randls_43.json,574763,717437,34,Man
120,208096,DepthScenes,duration_manipulation_targetAtFixation,jsons/v1_VE1000_randls_43.json,http://54.235.29.9/FacialAge/BNav_EC2/DepthDuration/v2_depth_duration_MTurk/v2_DepthDuration_HTML.html#154,154,1920,937,1920,1080,8-22-2022,8-29-42,121,depth_duration_stimuli/001244_2014-06-17_16-47-45_260595134347_rgbf000030-resize_4/001244_2014-06-17_16-47-45_260595134347_rgbf000030-resize_4-target.png,1000,2.0425,3,3612,1006,feet,jsons/v1_VE1000_randls_43.json,574763,717437,34,Man
121,208096,DepthScenes,duration_manipulation_targetAtFixation,jsons/v1_VE1000_randls_43.json,http://54.235.29.9/FacialAge/BNav_EC2/DepthDuration/v2_depth_duration_MTurk/v2_DepthDuration_HTML.html#154,154,1920,937,1920,1080,8-22-2022,8-29-42,122,depth_duration_stimuli/003495_2014-05-21_16-01-51_094959634447_rgbf000100-resize_3/003495_2014-05-21_16-01-51_094959634447_rgbf000100-resize_3-target.png,1000,1.6255,2,4467,1000,feet,jsons/v1_VE1000_randls_43.json,574763,717437,34,Man
122,208096,DepthScenes,duration_manipulation_targetAtFixation,jsons/v1_VE1000_randls_43.json,http://54.235.29.9/FacialAge/BNav_EC2/DepthDuration/v2_depth_duration_MTurk/v2_DepthDuration_HTML.html#154,154,1920,937,1920,1080,8-22-2022,8-29-42,123,depth_duration_stimuli/000009_2014-05-26_14-32-05_260595134347_rgbf000034-resize_3/000009_2014-05-26_14-32-05_260595134347_rgbf000034-resize_3-target.png,1000,3.8715,7,3844,1000,feet,jsons/v1_VE1000_randls_43.json,574763,717437,34,Man
123,208096,DepthScenes,duration_manipulation_targetAtFixation,jsons/v1_VE1000_randls_43.json,http://54.235.29.9/FacialAge/BNav_EC2/DepthDuration/v2_depth_duration_MTurk/v2_DepthDuration_HTML.html#154,154,1920,937,1920,1080,8-22-2022,8-29-42,124,depth_duration_stimuli/001828_2014-06-26_21-40-03_260595134347_rgbf000024-resize_0/001828_2014-06-26_21-40-03_260595134347_rgbf000024-resize_0-target.png,1000,4.8260000000000005,8,2539,1000,feet,jsons/v1_VE1000_randls_43.json,574763,717437,34,Man
124,208096,DepthScenes,duration_manipulation_targetAtFixation,jsons/v1_VE1000_randls_43.json,http://54.235.29.9/FacialAge/BNav_EC2/DepthDuration/v2_depth_duration_MTurk/v2_DepthDuration_HTML.html#154,154,1920,937,1920,1080,8-22-2022,8-29-42,125,depth_duration_stimuli/000522_2014-06-08_13-35-06_260595134347_rgbf000244-resize_1/000522_2014-06-08_13-35-06_260595134347_rgbf000244-resize_1-target.png,1000,2.3715,1,2473,989,feet,jsons/v1_VE1000_randls_43.json,574763,717437,34,Man
125,208096,DepthScenes,duration_manipulation_targetAtFixation,jsons/v1_VE1000_randls_43.json,http://54.235.29.9/FacialAge/BNav_EC2/DepthDuration/v2_depth_duration_MTurk/v2_DepthDuration_HTML.html#154,154,1920,937,1920,1080,8-22-2022,8-29-42,126,depth_duration_stimuli/002949_2014-06-26_15-57-42_094959634447_rgbf000079-resize_1/002949_2014-06-26_15-57-42_094959634447_rgbf000079-resize_1-target.png,1000,1.8915,3,2588,1000,feet,jsons/v1_VE1000_randls_43.json,574763,717437,34,Man
126,208096,DepthScenes,duration_manipulation_targetAtFixation,jsons/v1_VE1000_randls_43.json,http://54.235.29.9/FacialAge/BNav_EC2/DepthDuration/v2_depth_duration_MTurk/v2_DepthDuration_HTML.html#154,154,1920,937,1920,1080,8-22-2022,8-29-42,127,depth_duration_stimuli/002043_2014-06-24_20-29-38_260595134347_rgbf000039-resize_4/002043_2014-06-24_20-29-38_260595134347_rgbf000039-resize_4-target.png,1000,2.8435,4,2685,994,feet,jsons/v1_VE1000_randls_43.json,574763,717437,34,Man
127,208096,DepthScenes,duration_manipulation_targetAtFixation,jsons/v1_VE1000_randls_43.json,http://54.235.29.9/FacialAge/BNav_EC2/DepthDuration/v2_depth_duration_MTurk/v2_DepthDuration_HTML.html#154,154,1920,937,1920,1080,8-22-2022,8-29-42,128,depth_duration_stimuli/003048_2014-06-15_13-49-43_094959634447_rgbf000150-resize_1/003048_2014-06-15_13-49-43_094959634447_rgbf000150-resize_1-target.png,1000,4.0035,7,3252,1000,feet,jsons/v1_VE1000_randls_43.json,574763,717437,34,Man
128,208096,DepthScenes,duration_manipulation_targetAtFixation,jsons/v1_VE1000_randls_43.json,http://54.235.29.9/FacialAge/BNav_EC2/DepthDuration/v2_depth_duration_MTurk/v2_DepthDuration_HTML.html#154,154,1920,937,1920,1080,8-22-2022,8-29-42,129,depth_duration_stimuli/001133_2014-06-17_14-49-16_260595134347_rgbf000100-resize_0/001133_2014-06-17_14-49-16_260595134347_rgbf000100-resize_0-target.png,1000,4.2115,8,2567,1010,feet,jsons/v1_VE1000_randls_43.json,574763,717437,34,Man
129,208096,DepthScenes,duration_manipulation_targetAtFixation,jsons/v1_VE1000_randls_43.json,http://54.235.29.9/FacialAge/BNav_EC2/DepthDuration/v2_depth_duration_MTurk/v2_DepthDuration_HTML.html#154,154,1920,937,1920,1080,8-22-2022,8-29-42,130,depth_duration_stimuli/001132_2014-06-17_14-48-54_260595134347_rgbf000100-resize_2/001132_2014-06-17_14-48-54_260595134347_rgbf000100-resize_2-target.png,1000,3.753,5,3225,989,feet,jsons/v1_VE1000_randls_43.json,574763,717437,34,Man
130,208096,DepthScenes,duration_manipulation_targetAtFixation,jsons/v1_VE1000_randls_43.json,http://54.235.29.9/FacialAge/BNav_EC2/DepthDuration/v2_depth_duration_MTurk/v2_DepthDuration_HTML.html#154,154,1920,937,1920,1080,8-22-2022,8-29-42,131,depth_duration_stimuli/002788_2014-06-22_19-36-03_094959634447_rgbf000088-resize_2/002788_2014-06-22_19-36-03_094959634447_rgbf000088-resize_2-target.png,1000,1.6465,3,2489,997,feet,jsons/v1_VE1000_randls_43.json,574763,717437,34,Man
131,208096,DepthScenes,duration_manipulation_targetAtFixation,jsons/v1_VE1000_randls_43.json,http://54.235.29.9/FacialAge/BNav_EC2/DepthDuration/v2_depth_duration_MTurk/v2_DepthDuration_HTML.html#154,154,1920,937,1920,1080,8-22-2022,8-29-42,132,depth_duration_stimuli/000749_2014-06-08_21-55-06_260595134347_rgbf000070-resize_2/000749_2014-06-08_21-55-06_260595134347_rgbf000070-resize_2-target.png,1000,2.331,3,2468,999,feet,jsons/v1_VE1000_randls_43.json,574763,717437,34,Man
132,208096,DepthScenes,duration_manipulation_targetAtFixation,jsons/v1_VE1000_randls_43.json,http://54.235.29.9/FacialAge/BNav_EC2/DepthDuration/v2_depth_duration_MTurk/v2_DepthDuration_HTML.html#154,154,1920,937,1920,1080,8-22-2022,8-29-42,133,depth_duration_stimuli/000758_2014-06-08_22-05-08_260595134347_rgbf000085-resize_0/000758_2014-06-08_22-05-08_260595134347_rgbf000085-resize_0-target.png,1000,3.3810000000000002,3,2706,1005,feet,jsons/v1_VE1000_randls_43.json,574763,717437,34,Man
133,208096,DepthScenes,duration_manipulation_targetAtFixation,jsons/v1_VE1000_randls_43.json,http://54.235.29.9/FacialAge/BNav_EC2/DepthDuration/v2_depth_duration_MTurk/v2_DepthDuration_HTML.html#154,154,1920,937,1920,1080,8-22-2022,8-29-42,134,depth_duration_stimuli/000854_2014-06-09_19-43-13_260595134347_rgbf000066-resize_0/000854_2014-06-09_19-43-13_260595134347_rgbf000066-resize_0-target.png,1000,3.068,3,3767,995,feet,jsons/v1_VE1000_randls_43.json,574763,717437,34,Man
134,208096,DepthScenes,duration_manipulation_targetAtFixation,jsons/v1_VE1000_randls_43.json,http://54.235.29.9/FacialAge/BNav_EC2/DepthDuration/v2_depth_duration_MTurk/v2_DepthDuration_HTML.html#154,154,1920,937,1920,1080,8-22-2022,8-29-42,135,depth_duration_stimuli/002072_2014-06-24_21-48-06_260595134347_rgbf000115-resize_0/002072_2014-06-24_21-48-06_260595134347_rgbf000115-resize-original.jpg,1000,4.702,0,3012,1000,feet,jsons/v1_VE1000_randls_43.json,574763,717437,34,Man
135,208096,DepthScenes,duration_manipulation_targetAtFixation,jsons/v1_VE1000_randls_43.json,http://54.235.29.9/FacialAge/BNav_EC2/DepthDuration/v2_depth_duration_MTurk/v2_DepthDuration_HTML.html#154,154,1920,937,1920,1080,8-22-2022,8-29-42,136,depth_duration_stimuli/002725_2014-06-22_11-47-51_094959634447_rgbf000070-resize_1/002725_2014-06-22_11-47-51_094959634447_rgbf000070-resize_1-target.png,1000,2.195,3,3643,1000,feet,jsons/v1_VE1000_randls_43.json,574763,717437,34,Man
136,208096,DepthScenes,duration_manipulation_targetAtFixation,jsons/v1_VE1000_randls_43.json,http://54.235.29.9/FacialAge/BNav_EC2/DepthDuration/v2_depth_duration_MTurk/v2_DepthDuration_HTML.html#154,154,1920,937,1920,1080,8-22-2022,8-29-42,137,depth_duration_stimuli/002344_2014-06-28_20-06-29_260595134347_rgbf000030-resize_1/002344_2014-06-28_20-06-29_260595134347_rgbf000030-resize_1-target.png,1000,1.5795,1,2591,987,feet,jsons/v1_VE1000_randls_43.json,574763,717437,34,Man
137,208096,DepthScenes,duration_manipulation_targetAtFixation,jsons/v1_VE1000_randls_43.json,http://54.235.29.9/FacialAge/BNav_EC2/DepthDuration/v2_depth_duration_MTurk/v2_DepthDuration_HTML.html#154,154,1920,937,1920,1080,8-22-2022,8-29-42,138,depth_duration_stimuli/001016_2014-06-09_16-16-10_260595134347_rgbf000112-resize_5/001016_2014-06-09_16-16-10_260595134347_rgbf000112-resize_5-target.png,1000,1.6565,2,2411,1000,feet,jsons/v1_VE1000_randls_43.json,574763,717437,34,Man
138,208096,DepthScenes,duration_manipulation_targetAtFixation,jsons/v1_VE1000_randls_43.json,http://54.235.29.9/FacialAge/BNav_EC2/DepthDuration/v2_depth_duration_MTurk/v2_DepthDuration_HTML.html#154,154,1920,937,1920,1080,8-22-2022,8-29-42,139,depth_duration_stimuli/002340_2014-06-28_20-05-46_260595134347_rgbf000113-resize_0/002340_2014-06-28_20-05-46_260595134347_rgbf000113-resize_0-target.png,1000,2.4735,3,2820,1008,feet,jsons/v1_VE1000_randls_43.json,574763,717437,34,Man
139,208096,DepthScenes,duration_manipulation_targetAtFixation,jsons/v1_VE1000_randls_43.json,http://54.235.29.9/FacialAge/BNav_EC2/DepthDuration/v2_depth_duration_MTurk/v2_DepthDuration_HTML.html#154,154,1920,937,1920,1080,8-22-2022,8-29-42,140,depth_duration_stimuli/002375_2014-06-28_20-13-44_260595134347_rgbf000032-resize_1/002375_2014-06-28_20-13-44_260595134347_rgbf000032-resize_1-target.png,1000,4.0175,4,2557,997,feet,jsons/v1_VE1000_randls_43.json,574763,717437,34,Man
140,208096,DepthScenes,duration_manipulation_targetAtFixation,jsons/v1_VE1000_randls_43.json,http://54.235.29.9/FacialAge/BNav_EC2/DepthDuration/v2_depth_duration_MTurk/v2_DepthDuration_HTML.html#154,154,1920,937,1920,1080,8-22-2022,8-29-42,141,depth_duration_stimuli/002657_2014-06-13_15-29-54_094959634447_rgbf000150-resize_1/002657_2014-06-13_15-29-54_094959634447_rgbf000150-resize_1-target.png,1000,4.919,8,3343,994,feet,jsons/v1_VE1000_randls_43.json,574763,717437,34,Man
141,208096,DepthScenes,duration_manipulation_targetAtFixation,jsons/v1_VE1000_randls_43.json,http://54.235.29.9/FacialAge/BNav_EC2/DepthDuration/v2_depth_duration_MTurk/v2_DepthDuration_HTML.html#154,154,1920,937,1920,1080,8-22-2022,8-29-42,142,depth_duration_stimuli/001199_2014-06-17_16-03-48_260595134347_rgbf000077-resize_0/001199_2014-06-17_16-03-48_260595134347_rgbf000077-resize_0-target.png,1000,3.4375,10,3348,1008,feet,jsons/v1_VE1000_randls_43.json,574763,717437,34,Man
142,208096,DepthScenes,duration_manipulation_targetAtFixation,jsons/v1_VE1000_randls_43.json,http://54.235.29.9/FacialAge/BNav_EC2/DepthDuration/v2_depth_duration_MTurk/v2_DepthDuration_HTML.html#154,154,1920,937,1920,1080,8-22-2022,8-29-42,143,depth_duration_stimuli/000502_2014-06-08_23-02-32_260595134347_rgbf000063-resize_4/000502_2014-06-08_23-02-32_260595134347_rgbf000063-resize_4-target.png,1000,2.431,4,2980,1003,feet,jsons/v1_VE1000_randls_43.json,574763,717437,34,Man
143,208096,DepthScenes,duration_manipulation_targetAtFixation,jsons/v1_VE1000_randls_43.json,http://54.235.29.9/FacialAge/BNav_EC2/DepthDuration/v2_depth_duration_MTurk/v2_DepthDuration_HTML.html#154,154,1920,937,1920,1080,8-22-2022,8-29-42,144,depth_duration_stimuli/000692_2014-06-08_13-09-42_260595134347_rgbf000199-resize_2/000692_2014-06-08_13-09-42_260595134347_rgbf000199-resize_2-target.png,1000,3.661,7,4004,1000,feet,jsons/v1_VE1000_randls_43.json,574763,717437,34,Man
144,208096,DepthScenes,duration_manipulation_targetAtFixation,jsons/v1_VE1000_randls_43.json,http://54.235.29.9/FacialAge/BNav_EC2/DepthDuration/v2_depth_duration_MTurk/v2_DepthDuration_HTML.html#154,154,1920,937,1920,1080,8-22-2022,8-29-42,145,depth_duration_stimuli/001094_2014-06-15_17-36-00_260595134347_rgbf000205-resize_0/001094_2014-06-15_17-36-00_260595134347_rgbf000205-resize_0-target.png,1000,4.2175,7,3186,998,feet,jsons/v1_VE1000_randls_43.json,574763,717437,34,Man
145,208096,DepthScenes,duration_manipulation_targetAtFixation,jsons/v1_VE1000_randls_43.json,http://54.235.29.9/FacialAge/BNav_EC2/DepthDuration/v2_depth_duration_MTurk/v2_DepthDuration_HTML.html#154,154,1920,937,1920,1080,8-22-2022,8-29-42,146,depth_duration_stimuli/001498_2014-06-19_17-45-14_260595134347_rgbf000129-resize_4/001498_2014-06-19_17-45-14_260595134347_rgbf000129-resize-original.jpg,1000,1.4075,0,3260,1011,feet,jsons/v1_VE1000_randls_43.json,574763,717437,34,Man
146,208096,DepthScenes,duration_manipulation_targetAtFixation,jsons/v1_VE1000_randls_43.json,http://54.235.29.9/FacialAge/BNav_EC2/DepthDuration/v2_depth_duration_MTurk/v2_DepthDuration_HTML.html#154,154,1920,937,1920,1080,8-22-2022,8-29-42,147,depth_duration_stimuli/003534_2014-05-22_15-06-10_094959634447_rgbf000102-resize_4/003534_2014-05-22_15-06-10_094959634447_rgbf000102-resize_4-target.png,1000,1.426,1,2537,996,feet,jsons/v1_VE1000_randls_43.json,574763,717437,34,Man
147,208096,DepthScenes,duration_manipulation_targetAtFixation,jsons/v1_VE1000_randls_43.json,http://54.235.29.9/FacialAge/BNav_EC2/DepthDuration/v2_depth_duration_MTurk/v2_DepthDuration_HTML.html#154,154,1920,937,1920,1080,8-22-2022,8-29-42,148,depth_duration_stimuli/002637_2014-06-24_14-51-13_094959634447_rgbf000066-resize_4/002637_2014-06-24_14-51-13_094959634447_rgbf000066-resize_4-target.png,1000,1.9955,2,2652,1000,feet,jsons/v1_VE1000_randls_43.json,574763,717437,34,Man
148,208096,DepthScenes,duration_manipulation_targetAtFixation,jsons/v1_VE1000_randls_43.json,http://54.235.29.9/FacialAge/BNav_EC2/DepthDuration/v2_depth_duration_MTurk/v2_DepthDuration_HTML.html#154,154,1920,937,1920,1080,8-22-2022,8-29-42,149,depth_duration_stimuli/001806_2014-06-26_20-50-20_260595134347_rgbf000091-resize_1/001806_2014-06-26_20-50-20_260595134347_rgbf000091-resize_1-target.png,1000,2.7305,3,2408,996,feet,jsons/v1_VE1000_randls_43.json,574763,717437,34,Man
149,208096,DepthScenes,duration_manipulation_targetAtFixation,jsons/v1_VE1000_randls_43.json,http://54.235.29.9/FacialAge/BNav_EC2/DepthDuration/v2_depth_duration_MTurk/v2_DepthDuration_HTML.html#154,154,1920,937,1920,1080,8-22-2022,8-29-42,150,depth_duration_stimuli/001617_2014-06-20_11-35-32_260595134347_rgbf000066-resize_1/001617_2014-06-20_11-35-32_260595134347_rgbf000066-resize_1-target.png,1000,3.7910000000000004,6,2625,1000,feet,jsons/v1_VE1000_randls_43.json,574763,717437,34,Man
150,208096,DepthScenes,duration_manipulation_targetAtFixation,jsons/v1_VE1000_randls_43.json,http://54.235.29.9/FacialAge/BNav_EC2/DepthDuration/v2_depth_duration_MTurk/v2_DepthDuration_HTML.html#154,154,1920,937,1920,1080,8-22-2022,8-29-42,151,depth_duration_stimuli/001059_2014-06-08_21-53-27_260595134347_rgbf000061-resize_4/001059_2014-06-08_21-53-27_260595134347_rgbf000061-resize_4-target.png,1000,2.4185,3,3794,1001,feet,jsons/v1_VE1000_randls_43.json,574763,717437,34,Man
151,208096,DepthScenes,duration_manipulation_targetAtFixation,jsons/v1_VE1000_randls_43.json,http://54.235.29.9/FacialAge/BNav_EC2/DepthDuration/v2_depth_duration_MTurk/v2_DepthDuration_HTML.html#154,154,1920,937,1920,1080,8-22-2022,8-29-42,152,depth_duration_stimuli/001032_2014-06-08_13-23-17_260595134347_rgbf000021-resize_3/001032_2014-06-08_13-23-17_260595134347_rgbf000021-resize_3-target.png,1000,3.2725,5,2868,1009,feet,jsons/v1_VE1000_randls_43.json,574763,717437,34,Man
152,208096,DepthScenes,duration_manipulation_targetAtFixation,jsons/v1_VE1000_randls_43.json,http://54.235.29.9/FacialAge/BNav_EC2/DepthDuration/v2_depth_duration_MTurk/v2_DepthDuration_HTML.html#154,154,1920,937,1920,1080,8-22-2022,8-29-42,153,depth_duration_stimuli/001555_2014-06-20_17-12-10_260595134347_rgbf000065-resize_4/001555_2014-06-20_17-12-10_260595134347_rgbf000065-resize_4-target.png,1000,1.633,1,3550,986,feet,jsons/v1_VE1000_randls_43.json,574763,717437,34,Man
153,208096,DepthScenes,duration_manipulation_targetAtFixation,jsons/v1_VE1000_randls_43.json,http://54.235.29.9/FacialAge/BNav_EC2/DepthDuration/v2_depth_duration_MTurk/v2_DepthDuration_HTML.html#154,154,1920,937,1920,1080,8-22-2022,8-29-42,154,depth_duration_stimuli/000103_2014-05-14_22-01-17_260595134347_rgbf000152-resize_5/000103_2014-05-14_22-01-17_260595134347_rgbf000152-resize_5-target.png,1000,1.993,3,2852,1000,feet,jsons/v1_VE1000_randls_43.json,574763,717437,34,Man
154,208096,DepthScenes,duration_manipulation_targetAtFixation,jsons/v1_VE1000_randls_43.json,http://54.235.29.9/FacialAge/BNav_EC2/DepthDuration/v2_depth_duration_MTurk/v2_DepthDuration_HTML.html#154,154,1920,937,1920,1080,8-22-2022,8-29-42,155,depth_duration_stimuli/002964_2014-06-08_17-46-11_094959634447_rgbf000091-resize_4/002964_2014-06-08_17-46-11_094959634447_rgbf000091-resize_4-target.png,1000,1.6909999999999998,2,2837,1006,feet,jsons/v1_VE1000_randls_43.json,574763,717437,34,Man
155,208096,DepthScenes,duration_manipulation_targetAtFixation,jsons/v1_VE1000_randls_43.json,http://54.235.29.9/FacialAge/BNav_EC2/DepthDuration/v2_depth_duration_MTurk/v2_DepthDuration_HTML.html#154,154,1920,937,1920,1080,8-22-2022,8-29-42,156,depth_duration_stimuli/002136_2014-06-25_21-18-03_260595134347_rgbf000109-resize_3/002136_2014-06-25_21-18-03_260595134347_rgbf000109-resize_3-target.png,1000,1.9569999999999999,3,2842,998,feet,jsons/v1_VE1000_randls_43.json,574763,717437,34,Man
156,208096,DepthScenes,duration_manipulation_targetAtFixation,jsons/v1_VE1000_randls_43.json,http://54.235.29.9/FacialAge/BNav_EC2/DepthDuration/v2_depth_duration_MTurk/v2_DepthDuration_HTML.html#154,154,1920,937,1920,1080,8-22-2022,8-29-42,157,depth_duration_stimuli/002630_2014-06-24_14-47-50_094959634447_rgbf000055-resize_1/002630_2014-06-24_14-47-50_094959634447_rgbf000055-resize_1-target.png,1000,3.0095,7,2690,1006,feet,jsons/v1_VE1000_randls_43.json,574763,717437,34,Man
157,208096,DepthScenes,duration_manipulation_targetAtFixation,jsons/v1_VE1000_randls_43.json,http://54.235.29.9/FacialAge/BNav_EC2/DepthDuration/v2_depth_duration_MTurk/v2_DepthDuration_HTML.html#154,154,1920,937,1920,1080,8-22-2022,8-29-42,158,depth_duration_stimuli/002758_2014-06-22_19-11-20_094959634447_rgbf000128-resize_1/002758_2014-06-22_19-11-20_094959634447_rgbf000128-resize_1-target.png,1000,2.555,3,3100,1000,feet,jsons/v1_VE1000_randls_43.json,574763,717437,34,Man
158,208096,DepthScenes,duration_manipulation_targetAtFixation,jsons/v1_VE1000_randls_43.json,http://54.235.29.9/FacialAge/BNav_EC2/DepthDuration/v2_depth_duration_MTurk/v2_DepthDuration_HTML.html#154,154,1920,937,1920,1080,8-22-2022,8-29-42,159,depth_duration_stimuli/002039_2014-06-24_20-22-38_260595134347_rgbf000084-resize_1/002039_2014-06-24_20-22-38_260595134347_rgbf000084-resize_1-target.png,1000,4.408,7,3700,1005,feet,jsons/v1_VE1000_randls_43.json,574763,717437,34,Man
159,208096,DepthScenes,duration_manipulation_targetAtFixation,jsons/v1_VE1000_randls_43.json,http://54.235.29.9/FacialAge/BNav_EC2/DepthDuration/v2_depth_duration_MTurk/v2_DepthDuration_HTML.html#154,154,1920,937,1920,1080,8-22-2022,8-29-42,160,depth_duration_stimuli/002103_2014-06-25_20-00-40_260595134347_rgbf000049-resize_0/002103_2014-06-25_20-00-40_260595134347_rgbf000049-resize_0-target.png,1000,4.105,8,2967,997,feet,jsons/v1_VE1000_randls_43.json,574763,717437,34,Man
160,208096,DepthScenes,duration_manipulation_targetAtFixation,jsons/v1_VE1000_randls_43.json,http://54.235.29.9/FacialAge/BNav_EC2/DepthDuration/v2_depth_duration_MTurk/v2_DepthDuration_HTML.html#154,154,1920,937,1920,1080,8-22-2022,8-29-42,161,depth_duration_stimuli/000736_2014-06-08_18-24-15_260595134347_rgbf000206-resize_3/000736_2014-06-08_18-24-15_260595134347_rgbf000206-resize_3-target.png,1000,3.515,5,3591,995,feet,jsons/v1_VE1000_randls_43.json,574763,717437,34,Man
161,208096,DepthScenes,duration_manipulation_targetAtFixation,jsons/v1_VE1000_randls_43.json,http://54.235.29.9/FacialAge/BNav_EC2/DepthDuration/v2_depth_duration_MTurk/v2_DepthDuration_HTML.html#154,154,1920,937,1920,1080,8-22-2022,8-29-42,162,depth_duration_stimuli/000137_2014-05-20_17-04-49_260595134347_rgbf000120-resize_1/000137_2014-05-20_17-04-49_260595134347_rgbf000120-resize_1-target.png,1000,3.786,6,3011,992,feet,jsons/v1_VE1000_randls_43.json,574763,717437,34,Man
162,208096,DepthScenes,duration_manipulation_targetAtFixation,jsons/v1_VE1000_randls_43.json,http://54.235.29.9/FacialAge/BNav_EC2/DepthDuration/v2_depth_duration_MTurk/v2_DepthDuration_HTML.html#154,154,1920,937,1920,1080,8-22-2022,8-29-42,163,depth_duration_stimuli/002570_2014-06-24_13-59-54_094959634447_rgbf000059-resize_0/002570_2014-06-24_13-59-54_094959634447_rgbf000059-resize_0-target.png,1000,4.037,6,3581,994,feet,jsons/v1_VE1000_randls_43.json,574763,717437,34,Man
163,208096,DepthScenes,duration_manipulation_targetAtFixation,jsons/v1_VE1000_randls_43.json,http://54.235.29.9/FacialAge/BNav_EC2/DepthDuration/v2_depth_duration_MTurk/v2_DepthDuration_HTML.html#154,154,1920,937,1920,1080,8-22-2022,8-29-42,164,depth_duration_stimuli/002467_2014-06-28_20-38-07_260595134347_rgbf000026-resize_2/002467_2014-06-28_20-38-07_260595134347_rgbf000026-resize_2-target.png,1000,4.742,7,2764,1000,feet,jsons/v1_VE1000_randls_43.json,574763,717437,34,Man
