,subjID,experimentName,versionName,sequenceName,url,selected_row,windowWidth,windowHeight,screenWidth,screenHeight,startDate,startTime,trial,stimulus,duration,actual_depth,depth_estimate,trial_RT,log_sceneDuration,unitSelection,seq_filepath,experimentTime,totalTime,age,gender
0,209931,DepthScenes,duration_manipulation_targetAtFixation,jsons/v1_VE250_randls_23.json,http://54.235.29.9/FacialAge/BNav_EC2/DepthDuration/v2_depth_duration_MTurk/v2_DepthDuration_HTML.html#42,42,1366,768,1366,768,8-20-2022,8-14-47,1,depth_duration_stimuli/000682_2014-06-08_23-14-58_260595134347_rgbf000041-resize_5/000682_2014-06-08_23-14-58_260595134347_rgbf000041-resize_5-target.png,250,2.7239999999999998,6,4548,256,feet,jsons/v1_VE250_randls_23.json,605584,2016908,29,Man
1,209931,DepthScenes,duration_manipulation_targetAtFixation,jsons/v1_VE250_randls_23.json,http://54.235.29.9/FacialAge/BNav_EC2/DepthDuration/v2_depth_duration_MTurk/v2_DepthDuration_HTML.html#42,42,1366,768,1366,768,8-20-2022,8-14-47,2,depth_duration_stimuli/001650_2014-06-20_12-09-00_260595134347_rgbf000087-resize_3/001650_2014-06-20_12-09-00_260595134347_rgbf000087-resize_3-target.png,250,1.9505,1,3277,246,feet,jsons/v1_VE250_randls_23.json,605584,2016908,29,Man
2,209931,DepthScenes,duration_manipulation_targetAtFixation,jsons/v1_VE250_randls_23.json,http://54.235.29.9/FacialAge/BNav_EC2/DepthDuration/v2_depth_duration_MTurk/v2_DepthDuration_HTML.html#42,42,1366,768,1366,768,8-20-2022,8-14-47,3,depth_duration_stimuli/000436_2014-06-09_22-25-11_260595134347_rgbf000137-resize_1/000436_2014-06-09_22-25-11_260595134347_rgbf000137-resize_1-target.png,250,4.0705,9,3545,245,feet,jsons/v1_VE250_randls_23.json,605584,2016908,29,Man
3,209931,DepthScenes,duration_manipulation_targetAtFixation,jsons/v1_VE250_randls_23.json,http://54.235.29.9/FacialAge/BNav_EC2/DepthDuration/v2_depth_duration_MTurk/v2_DepthDuration_HTML.html#42,42,1366,768,1366,768,8-20-2022,8-14-47,4,depth_duration_stimuli/002444_2014-06-28_20-32-08_260595134347_rgbf000027-resize_0/002444_2014-06-28_20-32-08_260595134347_rgbf000027-resize_0-target.png,250,4.388999999999999,9,3042,234,feet,jsons/v1_VE250_randls_23.json,605584,2016908,29,Man
4,209931,DepthScenes,duration_manipulation_targetAtFixation,jsons/v1_VE250_randls_23.json,http://54.235.29.9/FacialAge/BNav_EC2/DepthDuration/v2_depth_duration_MTurk/v2_DepthDuration_HTML.html#42,42,1366,768,1366,768,8-20-2022,8-14-47,5,depth_duration_stimuli/001449_2014-06-19_17-01-27_260595134347_rgbf000116-resize_2/001449_2014-06-19_17-01-27_260595134347_rgbf000116-resize_2-target.png,250,3.452,6,2560,244,feet,jsons/v1_VE250_randls_23.json,605584,2016908,29,Man
5,209931,DepthScenes,duration_manipulation_targetAtFixation,jsons/v1_VE250_randls_23.json,http://54.235.29.9/FacialAge/BNav_EC2/DepthDuration/v2_depth_duration_MTurk/v2_DepthDuration_HTML.html#42,42,1366,768,1366,768,8-20-2022,8-14-47,6,depth_duration_stimuli/001450_2014-06-19_17-02-03_260595134347_rgbf000203-resize_4/001450_2014-06-19_17-02-03_260595134347_rgbf000203-resize_4-target.png,250,4.0106666666667,7,2447,253,feet,jsons/v1_VE250_randls_23.json,605584,2016908,29,Man
6,209931,DepthScenes,duration_manipulation_targetAtFixation,jsons/v1_VE250_randls_23.json,http://54.235.29.9/FacialAge/BNav_EC2/DepthDuration/v2_depth_duration_MTurk/v2_DepthDuration_HTML.html#42,42,1366,768,1366,768,8-20-2022,8-14-47,7,depth_duration_stimuli/001150_2014-06-17_15-27-34_260595134347_rgbf000108-resize_2/001150_2014-06-17_15-27-34_260595134347_rgbf000108-resize_2-target.png,250,4.0325,8,2207,252,feet,jsons/v1_VE250_randls_23.json,605584,2016908,29,Man
7,209931,DepthScenes,duration_manipulation_targetAtFixation,jsons/v1_VE250_randls_23.json,http://54.235.29.9/FacialAge/BNav_EC2/DepthDuration/v2_depth_duration_MTurk/v2_DepthDuration_HTML.html#42,42,1366,768,1366,768,8-20-2022,8-14-47,8,depth_duration_stimuli/000665_2014-06-09_20-42-35_260595134347_rgbf000110-resize_1/000665_2014-06-09_20-42-35_260595134347_rgbf000110-resize_1-target.png,250,3.057,3,4103,247,feet,jsons/v1_VE250_randls_23.json,605584,2016908,29,Man
8,209931,DepthScenes,duration_manipulation_targetAtFixation,jsons/v1_VE250_randls_23.json,http://54.235.29.9/FacialAge/BNav_EC2/DepthDuration/v2_depth_duration_MTurk/v2_DepthDuration_HTML.html#42,42,1366,768,1366,768,8-20-2022,8-14-47,9,depth_duration_stimuli/000642_2014-06-08_16-59-25_260595134347_rgbf000098-resize_2/000642_2014-06-08_16-59-25_260595134347_rgbf000098-resize_2-target.png,250,2.8815,8,4573,246,feet,jsons/v1_VE250_randls_23.json,605584,2016908,29,Man
9,209931,DepthScenes,duration_manipulation_targetAtFixation,jsons/v1_VE250_randls_23.json,http://54.235.29.9/FacialAge/BNav_EC2/DepthDuration/v2_depth_duration_MTurk/v2_DepthDuration_HTML.html#42,42,1366,768,1366,768,8-20-2022,8-14-47,10,depth_duration_stimuli/002425_2014-06-28_20-27-29_260595134347_rgbf000031-resize_8/002425_2014-06-28_20-27-29_260595134347_rgbf000031-resize_8-target.png,250,3.8960000000000004,9,2532,257,feet,jsons/v1_VE250_randls_23.json,605584,2016908,29,Man
10,209931,DepthScenes,duration_manipulation_targetAtFixation,jsons/v1_VE250_randls_23.json,http://54.235.29.9/FacialAge/BNav_EC2/DepthDuration/v2_depth_duration_MTurk/v2_DepthDuration_HTML.html#42,42,1366,768,1366,768,8-20-2022,8-14-47,11,depth_duration_stimuli/001056_2014-06-08_18-46-44_260595134347_rgbf000068-resize_0/001056_2014-06-08_18-46-44_260595134347_rgbf000068-resize_0-target.png,250,2.6625,8,2633,251,feet,jsons/v1_VE250_randls_23.json,605584,2016908,29,Man
11,209931,DepthScenes,duration_manipulation_targetAtFixation,jsons/v1_VE250_randls_23.json,http://54.235.29.9/FacialAge/BNav_EC2/DepthDuration/v2_depth_duration_MTurk/v2_DepthDuration_HTML.html#42,42,1366,768,1366,768,8-20-2022,8-14-47,12,depth_duration_stimuli/002199_2014-06-28_18-33-56_260595134347_rgbf000074-resize_0/002199_2014-06-28_18-33-56_260595134347_rgbf000074-resize_0-target.png,250,1.996,2,2830,253,feet,jsons/v1_VE250_randls_23.json,605584,2016908,29,Man
12,209931,DepthScenes,duration_manipulation_targetAtFixation,jsons/v1_VE250_randls_23.json,http://54.235.29.9/FacialAge/BNav_EC2/DepthDuration/v2_depth_duration_MTurk/v2_DepthDuration_HTML.html#42,42,1366,768,1366,768,8-20-2022,8-14-47,13,depth_duration_stimuli/000569_2014-06-09_22-51-47_260595134347_rgbf000141-resize_3/000569_2014-06-09_22-51-47_260595134347_rgbf000141-resize-original.jpg,250,4.512,0,2110,241,feet,jsons/v1_VE250_randls_23.json,605584,2016908,29,Man
13,209931,DepthScenes,duration_manipulation_targetAtFixation,jsons/v1_VE250_randls_23.json,http://54.235.29.9/FacialAge/BNav_EC2/DepthDuration/v2_depth_duration_MTurk/v2_DepthDuration_HTML.html#42,42,1366,768,1366,768,8-20-2022,8-14-47,14,depth_duration_stimuli/001092_2014-06-15_17-34-58_260595134347_rgbf000171-resize_3/001092_2014-06-15_17-34-58_260595134347_rgbf000171-resize_3-target.png,250,2.6935,4,2808,249,feet,jsons/v1_VE250_randls_23.json,605584,2016908,29,Man
14,209931,DepthScenes,duration_manipulation_targetAtFixation,jsons/v1_VE250_randls_23.json,http://54.235.29.9/FacialAge/BNav_EC2/DepthDuration/v2_depth_duration_MTurk/v2_DepthDuration_HTML.html#42,42,1366,768,1366,768,8-20-2022,8-14-47,15,depth_duration_stimuli/002545_2014-06-24_13-38-53_094959634447_rgbf000080-resize_4/002545_2014-06-24_13-38-53_094959634447_rgbf000080-resize_4-target.png,250,1.9205,4,1742,240,feet,jsons/v1_VE250_randls_23.json,605584,2016908,29,Man
15,209931,DepthScenes,duration_manipulation_targetAtFixation,jsons/v1_VE250_randls_23.json,http://54.235.29.9/FacialAge/BNav_EC2/DepthDuration/v2_depth_duration_MTurk/v2_DepthDuration_HTML.html#42,42,1366,768,1366,768,8-20-2022,8-14-47,16,depth_duration_stimuli/000414_2014-06-04_19-49-13_260595134347_rgbf000044-resize_0/000414_2014-06-04_19-49-13_260595134347_rgbf000044-resize_0-target.png,250,4.329,12,4627,253,feet,jsons/v1_VE250_randls_23.json,605584,2016908,29,Man
16,209931,DepthScenes,duration_manipulation_targetAtFixation,jsons/v1_VE250_randls_23.json,http://54.235.29.9/FacialAge/BNav_EC2/DepthDuration/v2_depth_duration_MTurk/v2_DepthDuration_HTML.html#42,42,1366,768,1366,768,8-20-2022,8-14-47,17,depth_duration_stimuli/003129_2014-05-12_10-48-10_094959634447_rgbf000100-resize_0/003129_2014-05-12_10-48-10_094959634447_rgbf000100-resize_0-target.png,250,4.9305,7,3999,231,feet,jsons/v1_VE250_randls_23.json,605584,2016908,29,Man
17,209931,DepthScenes,duration_manipulation_targetAtFixation,jsons/v1_VE250_randls_23.json,http://54.235.29.9/FacialAge/BNav_EC2/DepthDuration/v2_depth_duration_MTurk/v2_DepthDuration_HTML.html#42,42,1366,768,1366,768,8-20-2022,8-14-47,18,depth_duration_stimuli/003070_2014-06-15_14-58-27_094959634447_rgbf000150-resize_3/003070_2014-06-15_14-58-27_094959634447_rgbf000150-resize_3-target.png,250,2.9415,7,3253,256,feet,jsons/v1_VE250_randls_23.json,605584,2016908,29,Man
18,209931,DepthScenes,duration_manipulation_targetAtFixation,jsons/v1_VE250_randls_23.json,http://54.235.29.9/FacialAge/BNav_EC2/DepthDuration/v2_depth_duration_MTurk/v2_DepthDuration_HTML.html#42,42,1366,768,1366,768,8-20-2022,8-14-47,19,depth_duration_stimuli/000943_2014-06-09_19-31-07_260595134347_rgbf000128-resize_1/000943_2014-06-09_19-31-07_260595134347_rgbf000128-resize_1-target.png,250,1.9765,3,2882,253,feet,jsons/v1_VE250_randls_23.json,605584,2016908,29,Man
19,209931,DepthScenes,duration_manipulation_targetAtFixation,jsons/v1_VE250_randls_23.json,http://54.235.29.9/FacialAge/BNav_EC2/DepthDuration/v2_depth_duration_MTurk/v2_DepthDuration_HTML.html#42,42,1366,768,1366,768,8-20-2022,8-14-47,20,depth_duration_stimuli/002905_2014-06-03_18-04-43_094959634447_rgbf000151-resize_2/002905_2014-06-03_18-04-43_094959634447_rgbf000151-resize_2-target.png,250,2.0295,5,3386,241,feet,jsons/v1_VE250_randls_23.json,605584,2016908,29,Man
20,209931,DepthScenes,duration_manipulation_targetAtFixation,jsons/v1_VE250_randls_23.json,http://54.235.29.9/FacialAge/BNav_EC2/DepthDuration/v2_depth_duration_MTurk/v2_DepthDuration_HTML.html#42,42,1366,768,1366,768,8-20-2022,8-14-47,21,depth_duration_stimuli/003423_2014-05-21_10-23-26_094959634447_rgbf002665-resize_2/003423_2014-05-21_10-23-26_094959634447_rgbf002665-resize_2-target.png,250,3.2575,12,3943,248,feet,jsons/v1_VE250_randls_23.json,605584,2016908,29,Man
21,209931,DepthScenes,duration_manipulation_targetAtFixation,jsons/v1_VE250_randls_23.json,http://54.235.29.9/FacialAge/BNav_EC2/DepthDuration/v2_depth_duration_MTurk/v2_DepthDuration_HTML.html#42,42,1366,768,1366,768,8-20-2022,8-14-47,22,depth_duration_stimuli/000486_2014-06-09_20-47-20_260595134347_rgbf000143-resize_2/000486_2014-06-09_20-47-20_260595134347_rgbf000143-resize_2-target.png,250,4.8325,8,3760,263,feet,jsons/v1_VE250_randls_23.json,605584,2016908,29,Man
22,209931,DepthScenes,duration_manipulation_targetAtFixation,jsons/v1_VE250_randls_23.json,http://54.235.29.9/FacialAge/BNav_EC2/DepthDuration/v2_depth_duration_MTurk/v2_DepthDuration_HTML.html#42,42,1366,768,1366,768,8-20-2022,8-14-47,23,depth_duration_stimuli/003083_2014-06-15_15-21-03_094959634447_rgbf000063-resize_1/003083_2014-06-15_15-21-03_094959634447_rgbf000063-resize_1-target.png,250,4.1405,14,5108,247,feet,jsons/v1_VE250_randls_23.json,605584,2016908,29,Man
23,209931,DepthScenes,duration_manipulation_targetAtFixation,jsons/v1_VE250_randls_23.json,http://54.235.29.9/FacialAge/BNav_EC2/DepthDuration/v2_depth_duration_MTurk/v2_DepthDuration_HTML.html#42,42,1366,768,1366,768,8-20-2022,8-14-47,24,depth_duration_stimuli/002153_2014-06-25_21-27-18_260595134347_rgbf000038-resize_5/002153_2014-06-25_21-27-18_260595134347_rgbf000038-resize_5-target.png,250,2.505,4,2520,262,feet,jsons/v1_VE250_randls_23.json,605584,2016908,29,Man
24,209931,DepthScenes,duration_manipulation_targetAtFixation,jsons/v1_VE250_randls_23.json,http://54.235.29.9/FacialAge/BNav_EC2/DepthDuration/v2_depth_duration_MTurk/v2_DepthDuration_HTML.html#42,42,1366,768,1366,768,8-20-2022,8-14-47,25,depth_duration_stimuli/002660_2014-06-13_15-44-18_094959634447_rgbf001878-resize_2/002660_2014-06-13_15-44-18_094959634447_rgbf001878-resize_2-target.png,250,3.576,5,2578,261,feet,jsons/v1_VE250_randls_23.json,605584,2016908,29,Man
25,209931,DepthScenes,duration_manipulation_targetAtFixation,jsons/v1_VE250_randls_23.json,http://54.235.29.9/FacialAge/BNav_EC2/DepthDuration/v2_depth_duration_MTurk/v2_DepthDuration_HTML.html#42,42,1366,768,1366,768,8-20-2022,8-14-47,26,depth_duration_stimuli/001011_2014-06-08_23-18-54_260595134347_rgbf000044-resize_4/001011_2014-06-08_23-18-54_260595134347_rgbf000044-resize_4-target.png,250,2.4730000000000003,8,4019,242,feet,jsons/v1_VE250_randls_23.json,605584,2016908,29,Man
26,209931,DepthScenes,duration_manipulation_targetAtFixation,jsons/v1_VE250_randls_23.json,http://54.235.29.9/FacialAge/BNav_EC2/DepthDuration/v2_depth_duration_MTurk/v2_DepthDuration_HTML.html#42,42,1366,768,1366,768,8-20-2022,8-14-47,27,depth_duration_stimuli/002875_2014-06-01_15-19-00_094959634447_rgbf000151-resize_1/002875_2014-06-01_15-19-00_094959634447_rgbf000151-resize_1-target.png,250,1.9675,6,3870,255,feet,jsons/v1_VE250_randls_23.json,605584,2016908,29,Man
27,209931,DepthScenes,duration_manipulation_targetAtFixation,jsons/v1_VE250_randls_23.json,http://54.235.29.9/FacialAge/BNav_EC2/DepthDuration/v2_depth_duration_MTurk/v2_DepthDuration_HTML.html#42,42,1366,768,1366,768,8-20-2022,8-14-47,28,depth_duration_stimuli/002988_2014-06-15_12-24-20_094959634447_rgbf000150-resize_1/002988_2014-06-15_12-24-20_094959634447_rgbf000150-resize_1-target.png,250,4.7669999999999995,0,2502,253,feet,jsons/v1_VE250_randls_23.json,605584,2016908,29,Man
28,209931,DepthScenes,duration_manipulation_targetAtFixation,jsons/v1_VE250_randls_23.json,http://54.235.29.9/FacialAge/BNav_EC2/DepthDuration/v2_depth_duration_MTurk/v2_DepthDuration_HTML.html#42,42,1366,768,1366,768,8-20-2022,8-14-47,29,depth_duration_stimuli/001052_2014-06-08_18-24-54_260595134347_rgbf000130-resize_1/001052_2014-06-08_18-24-54_260595134347_rgbf000130-resize_1-target.png,250,4.1045,7,2873,247,feet,jsons/v1_VE250_randls_23.json,605584,2016908,29,Man
29,209931,DepthScenes,duration_manipulation_targetAtFixation,jsons/v1_VE250_randls_23.json,http://54.235.29.9/FacialAge/BNav_EC2/DepthDuration/v2_depth_duration_MTurk/v2_DepthDuration_HTML.html#42,42,1366,768,1366,768,8-20-2022,8-14-47,30,depth_duration_stimuli/000375_2014-06-08_11-17-29_260595134347_rgbf000133-resize_2/000375_2014-06-08_11-17-29_260595134347_rgbf000133-resize-original.jpg,250,4.718,0,2049,258,feet,jsons/v1_VE250_randls_23.json,605584,2016908,29,Man
30,209931,DepthScenes,duration_manipulation_targetAtFixation,jsons/v1_VE250_randls_23.json,http://54.235.29.9/FacialAge/BNav_EC2/DepthDuration/v2_depth_duration_MTurk/v2_DepthDuration_HTML.html#42,42,1366,768,1366,768,8-20-2022,8-14-47,31,depth_duration_stimuli/002043_2014-06-24_20-29-38_260595134347_rgbf000039-resize_4/002043_2014-06-24_20-29-38_260595134347_rgbf000039-resize_4-target.png,250,2.8435,8,2628,242,feet,jsons/v1_VE250_randls_23.json,605584,2016908,29,Man
31,209931,DepthScenes,duration_manipulation_targetAtFixation,jsons/v1_VE250_randls_23.json,http://54.235.29.9/FacialAge/BNav_EC2/DepthDuration/v2_depth_duration_MTurk/v2_DepthDuration_HTML.html#42,42,1366,768,1366,768,8-20-2022,8-14-47,32,depth_duration_stimuli/003048_2014-06-15_13-49-43_094959634447_rgbf000150-resize_1/003048_2014-06-15_13-49-43_094959634447_rgbf000150-resize_1-target.png,250,4.0035,8,2138,255,feet,jsons/v1_VE250_randls_23.json,605584,2016908,29,Man
32,209931,DepthScenes,duration_manipulation_targetAtFixation,jsons/v1_VE250_randls_23.json,http://54.235.29.9/FacialAge/BNav_EC2/DepthDuration/v2_depth_duration_MTurk/v2_DepthDuration_HTML.html#42,42,1366,768,1366,768,8-20-2022,8-14-47,33,depth_duration_stimuli/002763_2014-06-22_19-13-10_094959634447_rgbf000075-resize_4/002763_2014-06-22_19-13-10_094959634447_rgbf000075-resize_4-target.png,250,1.68375,3,2284,252,feet,jsons/v1_VE250_randls_23.json,605584,2016908,29,Man
33,209931,DepthScenes,duration_manipulation_targetAtFixation,jsons/v1_VE250_randls_23.json,http://54.235.29.9/FacialAge/BNav_EC2/DepthDuration/v2_depth_duration_MTurk/v2_DepthDuration_HTML.html#42,42,1366,768,1366,768,8-20-2022,8-14-47,34,depth_duration_stimuli/002209_2014-06-28_18-36-10_260595134347_rgbf000051-resize_1/002209_2014-06-28_18-36-10_260595134347_rgbf000051-resize_1-target.png,250,2.057,2,2462,249,feet,jsons/v1_VE250_randls_23.json,605584,2016908,29,Man
34,209931,DepthScenes,duration_manipulation_targetAtFixation,jsons/v1_VE250_randls_23.json,http://54.235.29.9/FacialAge/BNav_EC2/DepthDuration/v2_depth_duration_MTurk/v2_DepthDuration_HTML.html#42,42,1366,768,1366,768,8-20-2022,8-14-47,35,depth_duration_stimuli/000522_2014-06-08_13-35-06_260595134347_rgbf000244-resize_1/000522_2014-06-08_13-35-06_260595134347_rgbf000244-resize_1-target.png,250,2.3715,1,4739,253,feet,jsons/v1_VE250_randls_23.json,605584,2016908,29,Man
35,209931,DepthScenes,duration_manipulation_targetAtFixation,jsons/v1_VE250_randls_23.json,http://54.235.29.9/FacialAge/BNav_EC2/DepthDuration/v2_depth_duration_MTurk/v2_DepthDuration_HTML.html#42,42,1366,768,1366,768,8-20-2022,8-14-47,36,depth_duration_stimuli/002949_2014-06-26_15-57-42_094959634447_rgbf000079-resize_1/002949_2014-06-26_15-57-42_094959634447_rgbf000079-resize_1-target.png,250,1.8915,4,2300,232,feet,jsons/v1_VE250_randls_23.json,605584,2016908,29,Man
36,209931,DepthScenes,duration_manipulation_targetAtFixation,jsons/v1_VE250_randls_23.json,http://54.235.29.9/FacialAge/BNav_EC2/DepthDuration/v2_depth_duration_MTurk/v2_DepthDuration_HTML.html#42,42,1366,768,1366,768,8-20-2022,8-14-47,37,depth_duration_stimuli/000917_2014-06-09_22-45-29_260595134347_rgbf000149-resize_3/000917_2014-06-09_22-45-29_260595134347_rgbf000149-resize_3-target.png,250,4.1865,8,2166,240,feet,jsons/v1_VE250_randls_23.json,605584,2016908,29,Man
37,209931,DepthScenes,duration_manipulation_targetAtFixation,jsons/v1_VE250_randls_23.json,http://54.235.29.9/FacialAge/BNav_EC2/DepthDuration/v2_depth_duration_MTurk/v2_DepthDuration_HTML.html#42,42,1366,768,1366,768,8-20-2022,8-14-47,38,depth_duration_stimuli/002323_2014-06-28_20-01-54_260595134347_rgbf000051-resize_4/002323_2014-06-28_20-01-54_260595134347_rgbf000051-resize_4-target.png,250,3.7310000000000003,11,4059,254,feet,jsons/v1_VE250_randls_23.json,605584,2016908,29,Man
38,209931,DepthScenes,duration_manipulation_targetAtFixation,jsons/v1_VE250_randls_23.json,http://54.235.29.9/FacialAge/BNav_EC2/DepthDuration/v2_depth_duration_MTurk/v2_DepthDuration_HTML.html#42,42,1366,768,1366,768,8-20-2022,8-14-47,39,depth_duration_stimuli/002549_2014-06-24_13-41-39_094959634447_rgbf000022-resize_3/002549_2014-06-24_13-41-39_094959634447_rgbf000022-resize_3-target.png,250,1.476,5,34400,248,feet,jsons/v1_VE250_randls_23.json,605584,2016908,29,Man
39,209931,DepthScenes,duration_manipulation_targetAtFixation,jsons/v1_VE250_randls_23.json,http://54.235.29.9/FacialAge/BNav_EC2/DepthDuration/v2_depth_duration_MTurk/v2_DepthDuration_HTML.html#42,42,1366,768,1366,768,8-20-2022,8-14-47,40,depth_duration_stimuli/002750_2014-06-22_19-08-03_094959634447_rgbf000094-resize_4/002750_2014-06-22_19-08-03_094959634447_rgbf000094-resize_4-target.png,250,2.354,3,2959,246,feet,jsons/v1_VE250_randls_23.json,605584,2016908,29,Man
40,209931,DepthScenes,duration_manipulation_targetAtFixation,jsons/v1_VE250_randls_23.json,http://54.235.29.9/FacialAge/BNav_EC2/DepthDuration/v2_depth_duration_MTurk/v2_DepthDuration_HTML.html#42,42,1366,768,1366,768,8-20-2022,8-14-47,41,depth_duration_stimuli/002600_2014-06-24_14-27-04_094959634447_rgbf000074-resize_2/002600_2014-06-24_14-27-04_094959634447_rgbf000074-resize_2-target.png,250,2.7575,7,3012,258,feet,jsons/v1_VE250_randls_23.json,605584,2016908,29,Man
41,209931,DepthScenes,duration_manipulation_targetAtFixation,jsons/v1_VE250_randls_23.json,http://54.235.29.9/FacialAge/BNav_EC2/DepthDuration/v2_depth_duration_MTurk/v2_DepthDuration_HTML.html#42,42,1366,768,1366,768,8-20-2022,8-14-47,42,depth_duration_stimuli/003228_2014-05-14_13-42-35_094959634447_rgbf000101-resize_1/003228_2014-05-14_13-42-35_094959634447_rgbf000101-resize_1-target.png,250,1.9680000000000002,3,2495,246,feet,jsons/v1_VE250_randls_23.json,605584,2016908,29,Man
42,209931,DepthScenes,duration_manipulation_targetAtFixation,jsons/v1_VE250_randls_23.json,http://54.235.29.9/FacialAge/BNav_EC2/DepthDuration/v2_depth_duration_MTurk/v2_DepthDuration_HTML.html#42,42,1366,768,1366,768,8-20-2022,8-14-47,43,depth_duration_stimuli/001029_2014-06-08_13-17-57_260595134347_rgbf000065-resize_1/001029_2014-06-08_13-17-57_260595134347_rgbf000065-resize_1-target.png,250,3.0835,3,4571,232,feet,jsons/v1_VE250_randls_23.json,605584,2016908,29,Man
43,209931,DepthScenes,duration_manipulation_targetAtFixation,jsons/v1_VE250_randls_23.json,http://54.235.29.9/FacialAge/BNav_EC2/DepthDuration/v2_depth_duration_MTurk/v2_DepthDuration_HTML.html#42,42,1366,768,1366,768,8-20-2022,8-14-47,44,depth_duration_stimuli/000677_2014-06-08_23-10-32_260595134347_rgbf000158-resize_6/000677_2014-06-08_23-10-32_260595134347_rgbf000158-resize_6-target.png,250,3.556,3,1766,247,feet,jsons/v1_VE250_randls_23.json,605584,2016908,29,Man
44,209931,DepthScenes,duration_manipulation_targetAtFixation,jsons/v1_VE250_randls_23.json,http://54.235.29.9/FacialAge/BNav_EC2/DepthDuration/v2_depth_duration_MTurk/v2_DepthDuration_HTML.html#42,42,1366,768,1366,768,8-20-2022,8-14-47,45,depth_duration_stimuli/000787_2014-06-08_22-33-53_260595134347_rgbf000175-resize_1/000787_2014-06-08_22-33-53_260595134347_rgbf000175-resize-original.jpg,250,4.784,0,1908,247,feet,jsons/v1_VE250_randls_23.json,605584,2016908,29,Man
45,209931,DepthScenes,duration_manipulation_targetAtFixation,jsons/v1_VE250_randls_23.json,http://54.235.29.9/FacialAge/BNav_EC2/DepthDuration/v2_depth_duration_MTurk/v2_DepthDuration_HTML.html#42,42,1366,768,1366,768,8-20-2022,8-14-47,46,depth_duration_stimuli/001110_2014-06-15_17-25-28_260595134347_rgbf000150-resize_1/001110_2014-06-15_17-25-28_260595134347_rgbf000150-resize_1-target.png,250,1.7115,3,2063,253,feet,jsons/v1_VE250_randls_23.json,605584,2016908,29,Man
46,209931,DepthScenes,duration_manipulation_targetAtFixation,jsons/v1_VE250_randls_23.json,http://54.235.29.9/FacialAge/BNav_EC2/DepthDuration/v2_depth_duration_MTurk/v2_DepthDuration_HTML.html#42,42,1366,768,1366,768,8-20-2022,8-14-47,47,depth_duration_stimuli/000927_2014-06-09_16-32-30_260595134347_rgbf000123-resize_3/000927_2014-06-09_16-32-30_260595134347_rgbf000123-resize_3-target.png,250,2.6785,5,1771,253,feet,jsons/v1_VE250_randls_23.json,605584,2016908,29,Man
47,209931,DepthScenes,duration_manipulation_targetAtFixation,jsons/v1_VE250_randls_23.json,http://54.235.29.9/FacialAge/BNav_EC2/DepthDuration/v2_depth_duration_MTurk/v2_DepthDuration_HTML.html#42,42,1366,768,1366,768,8-20-2022,8-14-47,48,depth_duration_stimuli/002663_2014-06-13_15-50-26_094959634447_rgbf000075-resize_1/002663_2014-06-13_15-50-26_094959634447_rgbf000075-resize_1-target.png,250,4.7495,9,3107,265,feet,jsons/v1_VE250_randls_23.json,605584,2016908,29,Man
48,209931,DepthScenes,duration_manipulation_targetAtFixation,jsons/v1_VE250_randls_23.json,http://54.235.29.9/FacialAge/BNav_EC2/DepthDuration/v2_depth_duration_MTurk/v2_DepthDuration_HTML.html#42,42,1366,768,1366,768,8-20-2022,8-14-47,49,depth_duration_stimuli/000409_2014-06-04_19-23-33_260595134347_rgbf000067-resize_0/000409_2014-06-04_19-23-33_260595134347_rgbf000067-resize_0-target.png,250,3.7335,7,4156,251,feet,jsons/v1_VE250_randls_23.json,605584,2016908,29,Man
49,209931,DepthScenes,duration_manipulation_targetAtFixation,jsons/v1_VE250_randls_23.json,http://54.235.29.9/FacialAge/BNav_EC2/DepthDuration/v2_depth_duration_MTurk/v2_DepthDuration_HTML.html#42,42,1366,768,1366,768,8-20-2022,8-14-47,50,depth_duration_stimuli/001417_2014-06-19_16-25-36_260595134347_rgbf000115-resize_5/001417_2014-06-19_16-25-36_260595134347_rgbf000115-resize_5-target.png,250,4.6255,9,2676,259,feet,jsons/v1_VE250_randls_23.json,605584,2016908,29,Man
50,209931,DepthScenes,duration_manipulation_targetAtFixation,jsons/v1_VE250_randls_23.json,http://54.235.29.9/FacialAge/BNav_EC2/DepthDuration/v2_depth_duration_MTurk/v2_DepthDuration_HTML.html#42,42,1366,768,1366,768,8-20-2022,8-14-47,51,depth_duration_stimuli/003081_2014-06-15_15-19-16_094959634447_rgbf000150-resize_1/003081_2014-06-15_15-19-16_094959634447_rgbf000150-resize_1-target.png,250,3.9125,12,3485,255,feet,jsons/v1_VE250_randls_23.json,605584,2016908,29,Man
51,209931,DepthScenes,duration_manipulation_targetAtFixation,jsons/v1_VE250_randls_23.json,http://54.235.29.9/FacialAge/BNav_EC2/DepthDuration/v2_depth_duration_MTurk/v2_DepthDuration_HTML.html#42,42,1366,768,1366,768,8-20-2022,8-14-47,52,depth_duration_stimuli/002057_2014-06-24_21-00-13_260595134347_rgbf000120-resize_1/002057_2014-06-24_21-00-13_260595134347_rgbf000120-resize_1-target.png,250,2.967,11,3095,248,feet,jsons/v1_VE250_randls_23.json,605584,2016908,29,Man
52,209931,DepthScenes,duration_manipulation_targetAtFixation,jsons/v1_VE250_randls_23.json,http://54.235.29.9/FacialAge/BNav_EC2/DepthDuration/v2_depth_duration_MTurk/v2_DepthDuration_HTML.html#42,42,1366,768,1366,768,8-20-2022,8-14-47,53,depth_duration_stimuli/000709_2014-06-08_13-51-55_260595134347_rgbf000068-resize_3/000709_2014-06-08_13-51-55_260595134347_rgbf000068-resize_3-target.png,250,1.8030000000000002,2,1950,256,feet,jsons/v1_VE250_randls_23.json,605584,2016908,29,Man
53,209931,DepthScenes,duration_manipulation_targetAtFixation,jsons/v1_VE250_randls_23.json,http://54.235.29.9/FacialAge/BNav_EC2/DepthDuration/v2_depth_duration_MTurk/v2_DepthDuration_HTML.html#42,42,1366,768,1366,768,8-20-2022,8-14-47,54,depth_duration_stimuli/000788_2014-06-08_22-34-36_260595134347_rgbf000131-resize_1/000788_2014-06-08_22-34-36_260595134347_rgbf000131-resize_1-target.png,250,3.359,4,2382,240,feet,jsons/v1_VE250_randls_23.json,605584,2016908,29,Man
54,209931,DepthScenes,duration_manipulation_targetAtFixation,jsons/v1_VE250_randls_23.json,http://54.235.29.9/FacialAge/BNav_EC2/DepthDuration/v2_depth_duration_MTurk/v2_DepthDuration_HTML.html#42,42,1366,768,1366,768,8-20-2022,8-14-47,55,depth_duration_stimuli/001235_2014-06-17_16-37-36_260595134347_rgbf000084-resize_4/001235_2014-06-17_16-37-36_260595134347_rgbf000084-resize_4-target.png,250,3.6605,6,3297,247,feet,jsons/v1_VE250_randls_23.json,605584,2016908,29,Man
55,209931,DepthScenes,duration_manipulation_targetAtFixation,jsons/v1_VE250_randls_23.json,http://54.235.29.9/FacialAge/BNav_EC2/DepthDuration/v2_depth_duration_MTurk/v2_DepthDuration_HTML.html#42,42,1366,768,1366,768,8-20-2022,8-14-47,56,depth_duration_stimuli/000736_2014-06-08_18-24-15_260595134347_rgbf000206-resize_3/000736_2014-06-08_18-24-15_260595134347_rgbf000206-resize_3-target.png,250,3.515,4,3682,247,feet,jsons/v1_VE250_randls_23.json,605584,2016908,29,Man
56,209931,DepthScenes,duration_manipulation_targetAtFixation,jsons/v1_VE250_randls_23.json,http://54.235.29.9/FacialAge/BNav_EC2/DepthDuration/v2_depth_duration_MTurk/v2_DepthDuration_HTML.html#42,42,1366,768,1366,768,8-20-2022,8-14-47,57,depth_duration_stimuli/000137_2014-05-20_17-04-49_260595134347_rgbf000120-resize_1/000137_2014-05-20_17-04-49_260595134347_rgbf000120-resize_1-target.png,250,3.786,7,2364,254,feet,jsons/v1_VE250_randls_23.json,605584,2016908,29,Man
57,209931,DepthScenes,duration_manipulation_targetAtFixation,jsons/v1_VE250_randls_23.json,http://54.235.29.9/FacialAge/BNav_EC2/DepthDuration/v2_depth_duration_MTurk/v2_DepthDuration_HTML.html#42,42,1366,768,1366,768,8-20-2022,8-14-47,58,depth_duration_stimuli/000009_2014-05-26_14-32-05_260595134347_rgbf000034-resize_3/000009_2014-05-26_14-32-05_260595134347_rgbf000034-resize_3-target.png,250,3.8715,12,2826,253,feet,jsons/v1_VE250_randls_23.json,605584,2016908,29,Man
58,209931,DepthScenes,duration_manipulation_targetAtFixation,jsons/v1_VE250_randls_23.json,http://54.235.29.9/FacialAge/BNav_EC2/DepthDuration/v2_depth_duration_MTurk/v2_DepthDuration_HTML.html#42,42,1366,768,1366,768,8-20-2022,8-14-47,59,depth_duration_stimuli/001828_2014-06-26_21-40-03_260595134347_rgbf000024-resize_0/001828_2014-06-26_21-40-03_260595134347_rgbf000024-resize_0-target.png,250,4.8260000000000005,12,2331,242,feet,jsons/v1_VE250_randls_23.json,605584,2016908,29,Man
59,209931,DepthScenes,duration_manipulation_targetAtFixation,jsons/v1_VE250_randls_23.json,http://54.235.29.9/FacialAge/BNav_EC2/DepthDuration/v2_depth_duration_MTurk/v2_DepthDuration_HTML.html#42,42,1366,768,1366,768,8-20-2022,8-14-47,60,depth_duration_stimuli/002630_2014-06-24_14-47-50_094959634447_rgbf000055-resize_1/002630_2014-06-24_14-47-50_094959634447_rgbf000055-resize_1-target.png,250,3.0095,10,3605,238,feet,jsons/v1_VE250_randls_23.json,605584,2016908,29,Man
60,209931,DepthScenes,duration_manipulation_targetAtFixation,jsons/v1_VE250_randls_23.json,http://54.235.29.9/FacialAge/BNav_EC2/DepthDuration/v2_depth_duration_MTurk/v2_DepthDuration_HTML.html#42,42,1366,768,1366,768,8-20-2022,8-14-47,61,depth_duration_stimuli/002758_2014-06-22_19-11-20_094959634447_rgbf000128-resize_1/002758_2014-06-22_19-11-20_094959634447_rgbf000128-resize_1-target.png,250,2.555,4,2433,257,feet,jsons/v1_VE250_randls_23.json,605584,2016908,29,Man
61,209931,DepthScenes,duration_manipulation_targetAtFixation,jsons/v1_VE250_randls_23.json,http://54.235.29.9/FacialAge/BNav_EC2/DepthDuration/v2_depth_duration_MTurk/v2_DepthDuration_HTML.html#42,42,1366,768,1366,768,8-20-2022,8-14-47,62,depth_duration_stimuli/001167_2014-06-17_15-38-07_260595134347_rgbf000108-resize_0/001167_2014-06-17_15-38-07_260595134347_rgbf000108-resize_0-target.png,250,1.8505,3,3004,246,feet,jsons/v1_VE250_randls_23.json,605584,2016908,29,Man
62,209931,DepthScenes,duration_manipulation_targetAtFixation,jsons/v1_VE250_randls_23.json,http://54.235.29.9/FacialAge/BNav_EC2/DepthDuration/v2_depth_duration_MTurk/v2_DepthDuration_HTML.html#42,42,1366,768,1366,768,8-20-2022,8-14-47,63,depth_duration_stimuli/003587_2014-05-23_16-48-02_094959634447_rgbf002384-resize_2/003587_2014-05-23_16-48-02_094959634447_rgbf002384-resize_2-target.png,250,1.357,1,1663,253,feet,jsons/v1_VE250_randls_23.json,605584,2016908,29,Man
63,209931,DepthScenes,duration_manipulation_targetAtFixation,jsons/v1_VE250_randls_23.json,http://54.235.29.9/FacialAge/BNav_EC2/DepthDuration/v2_depth_duration_MTurk/v2_DepthDuration_HTML.html#42,42,1366,768,1366,768,8-20-2022,8-14-47,64,depth_duration_stimuli/000506_2014-06-08_23-21-00_260595134347_rgbf000070-resize_7/000506_2014-06-08_23-21-00_260595134347_rgbf000070-resize_7-target.png,250,4.0585,3,5619,254,feet,jsons/v1_VE250_randls_23.json,605584,2016908,29,Man
64,209931,DepthScenes,duration_manipulation_targetAtFixation,jsons/v1_VE250_randls_23.json,http://54.235.29.9/FacialAge/BNav_EC2/DepthDuration/v2_depth_duration_MTurk/v2_DepthDuration_HTML.html#42,42,1366,768,1366,768,8-20-2022,8-14-47,65,depth_duration_stimuli/003079_2014-06-15_15-18-20_094959634447_rgbf000152-resize_8/003079_2014-06-15_15-18-20_094959634447_rgbf000152-resize_8-target.png,250,2.8775,5,2870,257,feet,jsons/v1_VE250_randls_23.json,605584,2016908,29,Man
65,209931,DepthScenes,duration_manipulation_targetAtFixation,jsons/v1_VE250_randls_23.json,http://54.235.29.9/FacialAge/BNav_EC2/DepthDuration/v2_depth_duration_MTurk/v2_DepthDuration_HTML.html#42,42,1366,768,1366,768,8-20-2022,8-14-47,66,depth_duration_stimuli/001222_2014-06-17_16-24-06_260595134347_rgbf000073-resize_0/001222_2014-06-17_16-24-06_260595134347_rgbf000073-resize-original.jpg,250,1.4385,0,1946,243,feet,jsons/v1_VE250_randls_23.json,605584,2016908,29,Man
66,209931,DepthScenes,duration_manipulation_targetAtFixation,jsons/v1_VE250_randls_23.json,http://54.235.29.9/FacialAge/BNav_EC2/DepthDuration/v2_depth_duration_MTurk/v2_DepthDuration_HTML.html#42,42,1366,768,1366,768,8-20-2022,8-14-47,67,depth_duration_stimuli/003292_2014-05-14_21-53-49_094959634447_rgbf000100-resize_2/003292_2014-05-14_21-53-49_094959634447_rgbf000100-resize_2-target.png,250,3.4815,4,2763,251,feet,jsons/v1_VE250_randls_23.json,605584,2016908,29,Man
67,209931,DepthScenes,duration_manipulation_targetAtFixation,jsons/v1_VE250_randls_23.json,http://54.235.29.9/FacialAge/BNav_EC2/DepthDuration/v2_depth_duration_MTurk/v2_DepthDuration_HTML.html#42,42,1366,768,1366,768,8-20-2022,8-14-47,68,depth_duration_stimuli/002639_2014-06-24_14-51-37_094959634447_rgbf000074-resize_4/002639_2014-06-24_14-51-37_094959634447_rgbf000074-resize_4-target.png,250,4.0375,5,1798,246,feet,jsons/v1_VE250_randls_23.json,605584,2016908,29,Man
68,209931,DepthScenes,duration_manipulation_targetAtFixation,jsons/v1_VE250_randls_23.json,http://54.235.29.9/FacialAge/BNav_EC2/DepthDuration/v2_depth_duration_MTurk/v2_DepthDuration_HTML.html#42,42,1366,768,1366,768,8-20-2022,8-14-47,69,depth_duration_stimuli/000470_2014-06-09_19-42-40_260595134347_rgbf000094-resize_1/000470_2014-06-09_19-42-40_260595134347_rgbf000094-resize_1-target.png,250,1.831,3,2940,256,feet,jsons/v1_VE250_randls_23.json,605584,2016908,29,Man
69,209931,DepthScenes,duration_manipulation_targetAtFixation,jsons/v1_VE250_randls_23.json,http://54.235.29.9/FacialAge/BNav_EC2/DepthDuration/v2_depth_duration_MTurk/v2_DepthDuration_HTML.html#42,42,1366,768,1366,768,8-20-2022,8-14-47,70,depth_duration_stimuli/000109_2014-05-14_23-41-52_260595134347_rgbf000035-resize_9/000109_2014-05-14_23-41-52_260595134347_rgbf000035-resize_9-target.png,250,1.3545,3,2044,247,feet,jsons/v1_VE250_randls_23.json,605584,2016908,29,Man
70,209931,DepthScenes,duration_manipulation_targetAtFixation,jsons/v1_VE250_randls_23.json,http://54.235.29.9/FacialAge/BNav_EC2/DepthDuration/v2_depth_duration_MTurk/v2_DepthDuration_HTML.html#42,42,1366,768,1366,768,8-20-2022,8-14-47,71,depth_duration_stimuli/002964_2014-06-08_17-46-11_094959634447_rgbf000091-resize_4/002964_2014-06-08_17-46-11_094959634447_rgbf000091-resize_4-target.png,250,1.6909999999999998,1,4794,246,feet,jsons/v1_VE250_randls_23.json,605584,2016908,29,Man
71,209931,DepthScenes,duration_manipulation_targetAtFixation,jsons/v1_VE250_randls_23.json,http://54.235.29.9/FacialAge/BNav_EC2/DepthDuration/v2_depth_duration_MTurk/v2_DepthDuration_HTML.html#42,42,1366,768,1366,768,8-20-2022,8-14-47,72,depth_duration_stimuli/002136_2014-06-25_21-18-03_260595134347_rgbf000109-resize_3/002136_2014-06-25_21-18-03_260595134347_rgbf000109-resize_3-target.png,250,1.9569999999999999,3,3339,244,feet,jsons/v1_VE250_randls_23.json,605584,2016908,29,Man
72,209931,DepthScenes,duration_manipulation_targetAtFixation,jsons/v1_VE250_randls_23.json,http://54.235.29.9/FacialAge/BNav_EC2/DepthDuration/v2_depth_duration_MTurk/v2_DepthDuration_HTML.html#42,42,1366,768,1366,768,8-20-2022,8-14-47,73,depth_duration_stimuli/000739_2014-06-08_18-45-58_260595134347_rgbf000068-resize_1/000739_2014-06-08_18-45-58_260595134347_rgbf000068-resize_1-target.png,250,3.534,5,3314,247,feet,jsons/v1_VE250_randls_23.json,605584,2016908,29,Man
73,209931,DepthScenes,duration_manipulation_targetAtFixation,jsons/v1_VE250_randls_23.json,http://54.235.29.9/FacialAge/BNav_EC2/DepthDuration/v2_depth_duration_MTurk/v2_DepthDuration_HTML.html#42,42,1366,768,1366,768,8-20-2022,8-14-47,74,depth_duration_stimuli/000734_2014-06-08_17-39-11_260595134347_rgbf000128-resize_2/000734_2014-06-08_17-39-11_260595134347_rgbf000128-resize_2-target.png,250,4.098,4,1883,254,feet,jsons/v1_VE250_randls_23.json,605584,2016908,29,Man
74,209931,DepthScenes,duration_manipulation_targetAtFixation,jsons/v1_VE250_randls_23.json,http://54.235.29.9/FacialAge/BNav_EC2/DepthDuration/v2_depth_duration_MTurk/v2_DepthDuration_HTML.html#42,42,1366,768,1366,768,8-20-2022,8-14-47,75,depth_duration_stimuli/000906_2014-06-08_13-35-43_260595134347_rgbf000155-resize_1/000906_2014-06-08_13-35-43_260595134347_rgbf000155-resize_1-target.png,250,2.8489999999999998,5,1863,237,feet,jsons/v1_VE250_randls_23.json,605584,2016908,29,Man
75,209931,DepthScenes,duration_manipulation_targetAtFixation,jsons/v1_VE250_randls_23.json,http://54.235.29.9/FacialAge/BNav_EC2/DepthDuration/v2_depth_duration_MTurk/v2_DepthDuration_HTML.html#42,42,1366,768,1366,768,8-20-2022,8-14-47,76,depth_duration_stimuli/002805_2014-06-22_19-54-03_094959634447_rgbf000079-resize_1/002805_2014-06-22_19-54-03_094959634447_rgbf000079-resize_1-target.png,250,3.1439999999999997,8,2534,239,feet,jsons/v1_VE250_randls_23.json,605584,2016908,29,Man
76,209931,DepthScenes,duration_manipulation_targetAtFixation,jsons/v1_VE250_randls_23.json,http://54.235.29.9/FacialAge/BNav_EC2/DepthDuration/v2_depth_duration_MTurk/v2_DepthDuration_HTML.html#42,42,1366,768,1366,768,8-20-2022,8-14-47,77,depth_duration_stimuli/001244_2014-06-17_16-47-45_260595134347_rgbf000030-resize_4/001244_2014-06-17_16-47-45_260595134347_rgbf000030-resize_4-target.png,250,2.0425,2,3507,243,feet,jsons/v1_VE250_randls_23.json,605584,2016908,29,Man
77,209931,DepthScenes,duration_manipulation_targetAtFixation,jsons/v1_VE250_randls_23.json,http://54.235.29.9/FacialAge/BNav_EC2/DepthDuration/v2_depth_duration_MTurk/v2_DepthDuration_HTML.html#42,42,1366,768,1366,768,8-20-2022,8-14-47,78,depth_duration_stimuli/003495_2014-05-21_16-01-51_094959634447_rgbf000100-resize_3/003495_2014-05-21_16-01-51_094959634447_rgbf000100-resize_3-target.png,250,1.6255,2,2603,269,feet,jsons/v1_VE250_randls_23.json,605584,2016908,29,Man
78,209931,DepthScenes,duration_manipulation_targetAtFixation,jsons/v1_VE250_randls_23.json,http://54.235.29.9/FacialAge/BNav_EC2/DepthDuration/v2_depth_duration_MTurk/v2_DepthDuration_HTML.html#42,42,1366,768,1366,768,8-20-2022,8-14-47,79,depth_duration_stimuli/001806_2014-06-26_20-50-20_260595134347_rgbf000091-resize_1/001806_2014-06-26_20-50-20_260595134347_rgbf000091-resize_1-target.png,250,2.7305,3,6814,256,feet,jsons/v1_VE250_randls_23.json,605584,2016908,29,Man
79,209931,DepthScenes,duration_manipulation_targetAtFixation,jsons/v1_VE250_randls_23.json,http://54.235.29.9/FacialAge/BNav_EC2/DepthDuration/v2_depth_duration_MTurk/v2_DepthDuration_HTML.html#42,42,1366,768,1366,768,8-20-2022,8-14-47,80,depth_duration_stimuli/001617_2014-06-20_11-35-32_260595134347_rgbf000066-resize_1/001617_2014-06-20_11-35-32_260595134347_rgbf000066-resize_1-target.png,250,3.7910000000000004,5,4410,254,feet,jsons/v1_VE250_randls_23.json,605584,2016908,29,Man
80,209931,DepthScenes,duration_manipulation_targetAtFixation,jsons/v1_VE250_randls_23.json,http://54.235.29.9/FacialAge/BNav_EC2/DepthDuration/v2_depth_duration_MTurk/v2_DepthDuration_HTML.html#42,42,1366,768,1366,768,8-20-2022,8-14-47,81,depth_duration_stimuli/000878_2014-06-08_22-52-45_260595134347_rgbf000045-resize_2/000878_2014-06-08_22-52-45_260595134347_rgbf000045-resize_2-target.png,250,2.092,2,2253,255,feet,jsons/v1_VE250_randls_23.json,605584,2016908,29,Man
81,209931,DepthScenes,duration_manipulation_targetAtFixation,jsons/v1_VE250_randls_23.json,http://54.235.29.9/FacialAge/BNav_EC2/DepthDuration/v2_depth_duration_MTurk/v2_DepthDuration_HTML.html#42,42,1366,768,1366,768,8-20-2022,8-14-47,82,depth_duration_stimuli/002953_2014-06-08_17-32-18_094959634447_rgbf000059-resize_5/002953_2014-06-08_17-32-18_094959634447_rgbf000059-resize_5-target.png,250,1.551,2,24333,256,feet,jsons/v1_VE250_randls_23.json,605584,2016908,29,Man
82,209931,DepthScenes,duration_manipulation_targetAtFixation,jsons/v1_VE250_randls_23.json,http://54.235.29.9/FacialAge/BNav_EC2/DepthDuration/v2_depth_duration_MTurk/v2_DepthDuration_HTML.html#42,42,1366,768,1366,768,8-20-2022,8-14-47,83,depth_duration_stimuli/000773_2014-06-08_22-24-54_260595134347_rgbf000093-resize_1/000773_2014-06-08_22-24-54_260595134347_rgbf000093-resize_1-target.png,250,4.973,5,3792,263,feet,jsons/v1_VE250_randls_23.json,605584,2016908,29,Man
83,209931,DepthScenes,duration_manipulation_targetAtFixation,jsons/v1_VE250_randls_23.json,http://54.235.29.9/FacialAge/BNav_EC2/DepthDuration/v2_depth_duration_MTurk/v2_DepthDuration_HTML.html#42,42,1366,768,1366,768,8-20-2022,8-14-47,84,depth_duration_stimuli/002414_2014-06-28_20-24-58_260595134347_rgbf000067-resize_4/002414_2014-06-28_20-24-58_260595134347_rgbf000067-resize_4-target.png,250,4.363,6,2659,258,feet,jsons/v1_VE250_randls_23.json,605584,2016908,29,Man
84,209931,DepthScenes,duration_manipulation_targetAtFixation,jsons/v1_VE250_randls_23.json,http://54.235.29.9/FacialAge/BNav_EC2/DepthDuration/v2_depth_duration_MTurk/v2_DepthDuration_HTML.html#42,42,1366,768,1366,768,8-20-2022,8-14-47,85,depth_duration_stimuli/002039_2014-06-24_20-22-38_260595134347_rgbf000084-resize_1/002039_2014-06-24_20-22-38_260595134347_rgbf000084-resize_1-target.png,250,4.408,8,2732,253,feet,jsons/v1_VE250_randls_23.json,605584,2016908,29,Man
85,209931,DepthScenes,duration_manipulation_targetAtFixation,jsons/v1_VE250_randls_23.json,http://54.235.29.9/FacialAge/BNav_EC2/DepthDuration/v2_depth_duration_MTurk/v2_DepthDuration_HTML.html#42,42,1366,768,1366,768,8-20-2022,8-14-47,86,depth_duration_stimuli/002103_2014-06-25_20-00-40_260595134347_rgbf000049-resize_0/002103_2014-06-25_20-00-40_260595134347_rgbf000049-resize_0-target.png,250,4.105,4,2636,251,feet,jsons/v1_VE250_randls_23.json,605584,2016908,29,Man
86,209931,DepthScenes,duration_manipulation_targetAtFixation,jsons/v1_VE250_randls_23.json,http://54.235.29.9/FacialAge/BNav_EC2/DepthDuration/v2_depth_duration_MTurk/v2_DepthDuration_HTML.html#42,42,1366,768,1366,768,8-20-2022,8-14-47,87,depth_duration_stimuli/002509_2014-06-24_13-19-22_094959634447_rgbf000077-resize_0/002509_2014-06-24_13-19-22_094959634447_rgbf000077-resize_0-target.png,250,1.3065,2,1949,236,feet,jsons/v1_VE250_randls_23.json,605584,2016908,29,Man
87,209931,DepthScenes,duration_manipulation_targetAtFixation,jsons/v1_VE250_randls_23.json,http://54.235.29.9/FacialAge/BNav_EC2/DepthDuration/v2_depth_duration_MTurk/v2_DepthDuration_HTML.html#42,42,1366,768,1366,768,8-20-2022,8-14-47,88,depth_duration_stimuli/003338_2014-05-20_11-01-23_094959634447_rgbf000051-resize_6/003338_2014-05-20_11-01-23_094959634447_rgbf000051-resize_6-target.png,250,1.693,2,2137,259,feet,jsons/v1_VE250_randls_23.json,605584,2016908,29,Man
88,209931,DepthScenes,duration_manipulation_targetAtFixation,jsons/v1_VE250_randls_23.json,http://54.235.29.9/FacialAge/BNav_EC2/DepthDuration/v2_depth_duration_MTurk/v2_DepthDuration_HTML.html#42,42,1366,768,1366,768,8-20-2022,8-14-47,89,depth_duration_stimuli/002725_2014-06-22_11-47-51_094959634447_rgbf000070-resize_1/002725_2014-06-22_11-47-51_094959634447_rgbf000070-resize_1-target.png,250,2.195,3,3858,241,feet,jsons/v1_VE250_randls_23.json,605584,2016908,29,Man
89,209931,DepthScenes,duration_manipulation_targetAtFixation,jsons/v1_VE250_randls_23.json,http://54.235.29.9/FacialAge/BNav_EC2/DepthDuration/v2_depth_duration_MTurk/v2_DepthDuration_HTML.html#42,42,1366,768,1366,768,8-20-2022,8-14-47,90,depth_duration_stimuli/002344_2014-06-28_20-06-29_260595134347_rgbf000030-resize_1/002344_2014-06-28_20-06-29_260595134347_rgbf000030-resize_1-target.png,250,1.5795,2,2169,254,feet,jsons/v1_VE250_randls_23.json,605584,2016908,29,Man
90,209931,DepthScenes,duration_manipulation_targetAtFixation,jsons/v1_VE250_randls_23.json,http://54.235.29.9/FacialAge/BNav_EC2/DepthDuration/v2_depth_duration_MTurk/v2_DepthDuration_HTML.html#42,42,1366,768,1366,768,8-20-2022,8-14-47,91,depth_duration_stimuli/002445_2014-06-28_20-32-16_260595134347_rgbf000029-resize_4/002445_2014-06-28_20-32-16_260595134347_rgbf000029-resize_4-target.png,250,2.5315,2,2416,247,feet,jsons/v1_VE250_randls_23.json,605584,2016908,29,Man
91,209931,DepthScenes,duration_manipulation_targetAtFixation,jsons/v1_VE250_randls_23.json,http://54.235.29.9/FacialAge/BNav_EC2/DepthDuration/v2_depth_duration_MTurk/v2_DepthDuration_HTML.html#42,42,1366,768,1366,768,8-20-2022,8-14-47,92,depth_duration_stimuli/000780_2014-06-08_22-28-29_260595134347_rgbf000126-resize_1/000780_2014-06-08_22-28-29_260595134347_rgbf000126-resize_1-target.png,250,3.3825,3,2864,268,feet,jsons/v1_VE250_randls_23.json,605584,2016908,29,Man
92,209931,DepthScenes,duration_manipulation_targetAtFixation,jsons/v1_VE250_randls_23.json,http://54.235.29.9/FacialAge/BNav_EC2/DepthDuration/v2_depth_duration_MTurk/v2_DepthDuration_HTML.html#42,42,1366,768,1366,768,8-20-2022,8-14-47,93,depth_duration_stimuli/001158_2014-06-17_15-32-16_260595134347_rgbf000138-resize_2/001158_2014-06-17_15-32-16_260595134347_rgbf000138-resize_2-target.png,250,4.5315,10,3140,246,feet,jsons/v1_VE250_randls_23.json,605584,2016908,29,Man
93,209931,DepthScenes,duration_manipulation_targetAtFixation,jsons/v1_VE250_randls_23.json,http://54.235.29.9/FacialAge/BNav_EC2/DepthDuration/v2_depth_duration_MTurk/v2_DepthDuration_HTML.html#42,42,1366,768,1366,768,8-20-2022,8-14-47,94,depth_duration_stimuli/000556_2014-06-09_22-42-56_260595134347_rgbf000214-resize_1/000556_2014-06-09_22-42-56_260595134347_rgbf000214-resize_1-target.png,250,4.8415,7,4055,245,feet,jsons/v1_VE250_randls_23.json,605584,2016908,29,Man
94,209931,DepthScenes,duration_manipulation_targetAtFixation,jsons/v1_VE250_randls_23.json,http://54.235.29.9/FacialAge/BNav_EC2/DepthDuration/v2_depth_duration_MTurk/v2_DepthDuration_HTML.html#42,42,1366,768,1366,768,8-20-2022,8-14-47,95,depth_duration_stimuli/002375_2014-06-28_20-13-44_260595134347_rgbf000032-resize_1/002375_2014-06-28_20-13-44_260595134347_rgbf000032-resize_1-target.png,250,4.0175,3,2320,247,feet,jsons/v1_VE250_randls_23.json,605584,2016908,29,Man
95,209931,DepthScenes,duration_manipulation_targetAtFixation,jsons/v1_VE250_randls_23.json,http://54.235.29.9/FacialAge/BNav_EC2/DepthDuration/v2_depth_duration_MTurk/v2_DepthDuration_HTML.html#42,42,1366,768,1366,768,8-20-2022,8-14-47,96,depth_duration_stimuli/002657_2014-06-13_15-29-54_094959634447_rgbf000150-resize_1/002657_2014-06-13_15-29-54_094959634447_rgbf000150-resize_1-target.png,250,4.919,6,2217,269,feet,jsons/v1_VE250_randls_23.json,605584,2016908,29,Man
96,209931,DepthScenes,duration_manipulation_targetAtFixation,jsons/v1_VE250_randls_23.json,http://54.235.29.9/FacialAge/BNav_EC2/DepthDuration/v2_depth_duration_MTurk/v2_DepthDuration_HTML.html#42,42,1366,768,1366,768,8-20-2022,8-14-47,97,depth_duration_stimuli/000493_2014-06-09_21-01-18_260595134347_rgbf000196-resize_3/000493_2014-06-09_21-01-18_260595134347_rgbf000196-resize_3-target.png,250,3.44,5,1807,253,feet,jsons/v1_VE250_randls_23.json,605584,2016908,29,Man
97,209931,DepthScenes,duration_manipulation_targetAtFixation,jsons/v1_VE250_randls_23.json,http://54.235.29.9/FacialAge/BNav_EC2/DepthDuration/v2_depth_duration_MTurk/v2_DepthDuration_HTML.html#42,42,1366,768,1366,768,8-20-2022,8-14-47,98,depth_duration_stimuli/000191_2014-05-12_17-07-38_260595134347_rgbf000199-resize_0/000191_2014-05-12_17-07-38_260595134347_rgbf000199-resize_0-target.png,250,3.7995,5,2265,253,feet,jsons/v1_VE250_randls_23.json,605584,2016908,29,Man
98,209931,DepthScenes,duration_manipulation_targetAtFixation,jsons/v1_VE250_randls_23.json,http://54.235.29.9/FacialAge/BNav_EC2/DepthDuration/v2_depth_duration_MTurk/v2_DepthDuration_HTML.html#42,42,1366,768,1366,768,8-20-2022,8-14-47,99,depth_duration_stimuli/001540_2014-06-20_17-01-05_260595134347_rgbf000086-resize_2/001540_2014-06-20_17-01-05_260595134347_rgbf000086-resize-original.jpg,250,1.459,0,2043,247,feet,jsons/v1_VE250_randls_23.json,605584,2016908,29,Man
99,209931,DepthScenes,duration_manipulation_targetAtFixation,jsons/v1_VE250_randls_23.json,http://54.235.29.9/FacialAge/BNav_EC2/DepthDuration/v2_depth_duration_MTurk/v2_DepthDuration_HTML.html#42,42,1366,768,1366,768,8-20-2022,8-14-47,100,depth_duration_stimuli/001175_2014-06-17_15-45-55_260595134347_rgbf000129-resize_4/001175_2014-06-17_15-45-55_260595134347_rgbf000129-resize_4-target.png,250,4.255,10,4895,247,feet,jsons/v1_VE250_randls_23.json,605584,2016908,29,Man
100,209931,DepthScenes,duration_manipulation_targetAtFixation,jsons/v1_VE250_randls_23.json,http://54.235.29.9/FacialAge/BNav_EC2/DepthDuration/v2_depth_duration_MTurk/v2_DepthDuration_HTML.html#42,42,1366,768,1366,768,8-20-2022,8-14-47,101,depth_duration_stimuli/003490_2014-05-21_15-50-11_094959634447_rgbf000101-resize_3/003490_2014-05-21_15-50-11_094959634447_rgbf000101-resize_3-target.png,250,3.6445,9,2669,264,feet,jsons/v1_VE250_randls_23.json,605584,2016908,29,Man
101,209931,DepthScenes,duration_manipulation_targetAtFixation,jsons/v1_VE250_randls_23.json,http://54.235.29.9/FacialAge/BNav_EC2/DepthDuration/v2_depth_duration_MTurk/v2_DepthDuration_HTML.html#42,42,1366,768,1366,768,8-20-2022,8-14-47,102,depth_duration_stimuli/000469_2014-06-09_19-42-10_260595134347_rgbf000081-resize_1/000469_2014-06-09_19-42-10_260595134347_rgbf000081-resize_1-target.png,250,1.652,3,2638,254,feet,jsons/v1_VE250_randls_23.json,605584,2016908,29,Man
102,209931,DepthScenes,duration_manipulation_targetAtFixation,jsons/v1_VE250_randls_23.json,http://54.235.29.9/FacialAge/BNav_EC2/DepthDuration/v2_depth_duration_MTurk/v2_DepthDuration_HTML.html#42,42,1366,768,1366,768,8-20-2022,8-14-47,103,depth_duration_stimuli/000483_2014-06-09_20-41-45_260595134347_rgbf000116-resize_4/000483_2014-06-09_20-41-45_260595134347_rgbf000116-resize_4-target.png,250,1.337,2,2663,248,feet,jsons/v1_VE250_randls_23.json,605584,2016908,29,Man
103,209931,DepthScenes,duration_manipulation_targetAtFixation,jsons/v1_VE250_randls_23.json,http://54.235.29.9/FacialAge/BNav_EC2/DepthDuration/v2_depth_duration_MTurk/v2_DepthDuration_HTML.html#42,42,1366,768,1366,768,8-20-2022,8-14-47,104,depth_duration_stimuli/000447_2014-06-08_16-15-46_260595134347_rgbf000130-resize_1/000447_2014-06-08_16-15-46_260595134347_rgbf000130-resize_1-target.png,250,4.479,4,2233,254,feet,jsons/v1_VE250_randls_23.json,605584,2016908,29,Man
104,209931,DepthScenes,duration_manipulation_targetAtFixation,jsons/v1_VE250_randls_23.json,http://54.235.29.9/FacialAge/BNav_EC2/DepthDuration/v2_depth_duration_MTurk/v2_DepthDuration_HTML.html#42,42,1366,768,1366,768,8-20-2022,8-14-47,105,depth_duration_stimuli/001447_2014-06-19_17-00-32_260595134347_rgbf000082-resize_5/001447_2014-06-19_17-00-32_260595134347_rgbf000082-resize_5-target.png,250,4.13775,2,3381,254,feet,jsons/v1_VE250_randls_23.json,605584,2016908,29,Man
105,209931,DepthScenes,duration_manipulation_targetAtFixation,jsons/v1_VE250_randls_23.json,http://54.235.29.9/FacialAge/BNav_EC2/DepthDuration/v2_depth_duration_MTurk/v2_DepthDuration_HTML.html#42,42,1366,768,1366,768,8-20-2022,8-14-47,106,depth_duration_stimuli/000929_2014-06-09_16-33-19_260595134347_rgbf000139-resize_0/000929_2014-06-09_16-33-19_260595134347_rgbf000139-resize_0-target.png,250,2.8680000000000003,4,2363,254,feet,jsons/v1_VE250_randls_23.json,605584,2016908,29,Man
106,209931,DepthScenes,duration_manipulation_targetAtFixation,jsons/v1_VE250_randls_23.json,http://54.235.29.9/FacialAge/BNav_EC2/DepthDuration/v2_depth_duration_MTurk/v2_DepthDuration_HTML.html#42,42,1366,768,1366,768,8-20-2022,8-14-47,107,depth_duration_stimuli/000457_2014-06-08_16-52-43_260595134347_rgbf000199-resize_1/000457_2014-06-08_16-52-43_260595134347_rgbf000199-resize_1-target.png,250,3.6489999999999996,8,3112,252,feet,jsons/v1_VE250_randls_23.json,605584,2016908,29,Man
107,209931,DepthScenes,duration_manipulation_targetAtFixation,jsons/v1_VE250_randls_23.json,http://54.235.29.9/FacialAge/BNav_EC2/DepthDuration/v2_depth_duration_MTurk/v2_DepthDuration_HTML.html#42,42,1366,768,1366,768,8-20-2022,8-14-47,108,depth_duration_stimuli/001810_2014-06-26_20-51-35_260595134347_rgbf000040-resize_3/001810_2014-06-26_20-51-35_260595134347_rgbf000040-resize_3-target.png,250,2.2525,5,2835,244,feet,jsons/v1_VE250_randls_23.json,605584,2016908,29,Man
108,209931,DepthScenes,duration_manipulation_targetAtFixation,jsons/v1_VE250_randls_23.json,http://54.235.29.9/FacialAge/BNav_EC2/DepthDuration/v2_depth_duration_MTurk/v2_DepthDuration_HTML.html#42,42,1366,768,1366,768,8-20-2022,8-14-47,109,depth_duration_stimuli/003010_2014-06-15_12-54-35_094959634447_rgbf000112-resize_0/003010_2014-06-15_12-54-35_094959634447_rgbf000112-resize_0-target.png,250,3.1185,5,2980,235,feet,jsons/v1_VE250_randls_23.json,605584,2016908,29,Man
109,209931,DepthScenes,duration_manipulation_targetAtFixation,jsons/v1_VE250_randls_23.json,http://54.235.29.9/FacialAge/BNav_EC2/DepthDuration/v2_depth_duration_MTurk/v2_DepthDuration_HTML.html#42,42,1366,768,1366,768,8-20-2022,8-14-47,110,depth_duration_stimuli/002784_2014-06-22_19-26-30_094959634447_rgbf000083-resize_3/002784_2014-06-22_19-26-30_094959634447_rgbf000083-resize_3-target.png,250,1.8046666666667,2,1966,263,feet,jsons/v1_VE250_randls_23.json,605584,2016908,29,Man
110,209931,DepthScenes,duration_manipulation_targetAtFixation,jsons/v1_VE250_randls_23.json,http://54.235.29.9/FacialAge/BNav_EC2/DepthDuration/v2_depth_duration_MTurk/v2_DepthDuration_HTML.html#42,42,1366,768,1366,768,8-20-2022,8-14-47,111,depth_duration_stimuli/001100_2014-06-15_17-46-26_260595134347_rgbf000225-resize_2/001100_2014-06-15_17-46-26_260595134347_rgbf000225-resize_2-target.png,250,2.24,2,1651,253,feet,jsons/v1_VE250_randls_23.json,605584,2016908,29,Man
111,209931,DepthScenes,duration_manipulation_targetAtFixation,jsons/v1_VE250_randls_23.json,http://54.235.29.9/FacialAge/BNav_EC2/DepthDuration/v2_depth_duration_MTurk/v2_DepthDuration_HTML.html#42,42,1366,768,1366,768,8-20-2022,8-14-47,112,depth_duration_stimuli/000810_2014-06-08_17-20-01_260595134347_rgbf000105-resize_0/000810_2014-06-08_17-20-01_260595134347_rgbf000105-resize_0-target.png,250,1.4865,2,1774,247,feet,jsons/v1_VE250_randls_23.json,605584,2016908,29,Man
112,209931,DepthScenes,duration_manipulation_targetAtFixation,jsons/v1_VE250_randls_23.json,http://54.235.29.9/FacialAge/BNav_EC2/DepthDuration/v2_depth_duration_MTurk/v2_DepthDuration_HTML.html#42,42,1366,768,1366,768,8-20-2022,8-14-47,113,depth_duration_stimuli/001214_2014-06-17_16-13-55_260595134347_rgbf000111-resize_0/001214_2014-06-17_16-13-55_260595134347_rgbf000111-resize_0-target.png,250,2.6505,3,1698,240,feet,jsons/v1_VE250_randls_23.json,605584,2016908,29,Man
113,209931,DepthScenes,duration_manipulation_targetAtFixation,jsons/v1_VE250_randls_23.json,http://54.235.29.9/FacialAge/BNav_EC2/DepthDuration/v2_depth_duration_MTurk/v2_DepthDuration_HTML.html#42,42,1366,768,1366,768,8-20-2022,8-14-47,114,depth_duration_stimuli/000692_2014-06-08_13-09-42_260595134347_rgbf000199-resize_2/000692_2014-06-08_13-09-42_260595134347_rgbf000199-resize_2-target.png,250,3.661,9,3009,239,feet,jsons/v1_VE250_randls_23.json,605584,2016908,29,Man
114,209931,DepthScenes,duration_manipulation_targetAtFixation,jsons/v1_VE250_randls_23.json,http://54.235.29.9/FacialAge/BNav_EC2/DepthDuration/v2_depth_duration_MTurk/v2_DepthDuration_HTML.html#42,42,1366,768,1366,768,8-20-2022,8-14-47,115,depth_duration_stimuli/001094_2014-06-15_17-36-00_260595134347_rgbf000205-resize_0/001094_2014-06-15_17-36-00_260595134347_rgbf000205-resize_0-target.png,250,4.2175,8,3252,236,feet,jsons/v1_VE250_randls_23.json,605584,2016908,29,Man
115,209931,DepthScenes,duration_manipulation_targetAtFixation,jsons/v1_VE250_randls_23.json,http://54.235.29.9/FacialAge/BNav_EC2/DepthDuration/v2_depth_duration_MTurk/v2_DepthDuration_HTML.html#42,42,1366,768,1366,768,8-20-2022,8-14-47,116,depth_duration_stimuli/001170_2014-06-17_15-43-44_260595134347_rgbf000096-resize_6/001170_2014-06-17_15-43-44_260595134347_rgbf000096-resize-original.jpg,250,1.1909999999999998,0,2047,256,feet,jsons/v1_VE250_randls_23.json,605584,2016908,29,Man
116,209931,DepthScenes,duration_manipulation_targetAtFixation,jsons/v1_VE250_randls_23.json,http://54.235.29.9/FacialAge/BNav_EC2/DepthDuration/v2_depth_duration_MTurk/v2_DepthDuration_HTML.html#42,42,1366,768,1366,768,8-20-2022,8-14-47,117,depth_duration_stimuli/001133_2014-06-17_14-49-16_260595134347_rgbf000100-resize_0/001133_2014-06-17_14-49-16_260595134347_rgbf000100-resize_0-target.png,250,4.2115,8,2559,246,feet,jsons/v1_VE250_randls_23.json,605584,2016908,29,Man
117,209931,DepthScenes,duration_manipulation_targetAtFixation,jsons/v1_VE250_randls_23.json,http://54.235.29.9/FacialAge/BNav_EC2/DepthDuration/v2_depth_duration_MTurk/v2_DepthDuration_HTML.html#42,42,1366,768,1366,768,8-20-2022,8-14-47,118,depth_duration_stimuli/001132_2014-06-17_14-48-54_260595134347_rgbf000100-resize_2/001132_2014-06-17_14-48-54_260595134347_rgbf000100-resize_2-target.png,250,3.753,4,3416,256,feet,jsons/v1_VE250_randls_23.json,605584,2016908,29,Man
118,209931,DepthScenes,duration_manipulation_targetAtFixation,jsons/v1_VE250_randls_23.json,http://54.235.29.9/FacialAge/BNav_EC2/DepthDuration/v2_depth_duration_MTurk/v2_DepthDuration_HTML.html#42,42,1366,768,1366,768,8-20-2022,8-14-47,119,depth_duration_stimuli/001016_2014-06-09_16-16-10_260595134347_rgbf000112-resize_5/001016_2014-06-09_16-16-10_260595134347_rgbf000112-resize_5-target.png,250,1.6565,2,2155,250,feet,jsons/v1_VE250_randls_23.json,605584,2016908,29,Man
119,209931,DepthScenes,duration_manipulation_targetAtFixation,jsons/v1_VE250_randls_23.json,http://54.235.29.9/FacialAge/BNav_EC2/DepthDuration/v2_depth_duration_MTurk/v2_DepthDuration_HTML.html#42,42,1366,768,1366,768,8-20-2022,8-14-47,120,depth_duration_stimuli/002340_2014-06-28_20-05-46_260595134347_rgbf000113-resize_0/002340_2014-06-28_20-05-46_260595134347_rgbf000113-resize_0-target.png,250,2.4735,5,2136,250,feet,jsons/v1_VE250_randls_23.json,605584,2016908,29,Man
120,209931,DepthScenes,duration_manipulation_targetAtFixation,jsons/v1_VE250_randls_23.json,http://54.235.29.9/FacialAge/BNav_EC2/DepthDuration/v2_depth_duration_MTurk/v2_DepthDuration_HTML.html#42,42,1366,768,1366,768,8-20-2022,8-14-47,121,depth_duration_stimuli/002279_2014-06-28_18-55-32_260595134347_rgbf000040-resize_5/002279_2014-06-28_18-55-32_260595134347_rgbf000040-resize_5-target.png,250,1.5043333333333,4,1705,255,feet,jsons/v1_VE250_randls_23.json,605584,2016908,29,Man
121,209931,DepthScenes,duration_manipulation_targetAtFixation,jsons/v1_VE250_randls_23.json,http://54.235.29.9/FacialAge/BNav_EC2/DepthDuration/v2_depth_duration_MTurk/v2_DepthDuration_HTML.html#42,42,1366,768,1366,768,8-20-2022,8-14-47,122,depth_duration_stimuli/000635_2014-06-08_16-38-42_260595134347_rgbf000106-resize_1/000635_2014-06-08_16-38-42_260595134347_rgbf000106-resize_1-target.png,250,2.074,6,2256,249,feet,jsons/v1_VE250_randls_23.json,605584,2016908,29,Man
122,209931,DepthScenes,duration_manipulation_targetAtFixation,jsons/v1_VE250_randls_23.json,http://54.235.29.9/FacialAge/BNav_EC2/DepthDuration/v2_depth_duration_MTurk/v2_DepthDuration_HTML.html#42,42,1366,768,1366,768,8-20-2022,8-14-47,123,depth_duration_stimuli/001059_2014-06-08_21-53-27_260595134347_rgbf000061-resize_4/001059_2014-06-08_21-53-27_260595134347_rgbf000061-resize_4-target.png,250,2.4185,4,2006,249,feet,jsons/v1_VE250_randls_23.json,605584,2016908,29,Man
123,209931,DepthScenes,duration_manipulation_targetAtFixation,jsons/v1_VE250_randls_23.json,http://54.235.29.9/FacialAge/BNav_EC2/DepthDuration/v2_depth_duration_MTurk/v2_DepthDuration_HTML.html#42,42,1366,768,1366,768,8-20-2022,8-14-47,124,depth_duration_stimuli/001032_2014-06-08_13-23-17_260595134347_rgbf000021-resize_3/001032_2014-06-08_13-23-17_260595134347_rgbf000021-resize_3-target.png,250,3.2725,4,1748,257,feet,jsons/v1_VE250_randls_23.json,605584,2016908,29,Man
124,209931,DepthScenes,duration_manipulation_targetAtFixation,jsons/v1_VE250_randls_23.json,http://54.235.29.9/FacialAge/BNav_EC2/DepthDuration/v2_depth_duration_MTurk/v2_DepthDuration_HTML.html#42,42,1366,768,1366,768,8-20-2022,8-14-47,125,depth_duration_stimuli/001066_2014-06-08_22-03-20_260595134347_rgbf000066-resize_4/001066_2014-06-08_22-03-20_260595134347_rgbf000066-resize_4-target.png,250,4.2330000000000005,8,1953,236,feet,jsons/v1_VE250_randls_23.json,605584,2016908,29,Man
125,209931,DepthScenes,duration_manipulation_targetAtFixation,jsons/v1_VE250_randls_23.json,http://54.235.29.9/FacialAge/BNav_EC2/DepthDuration/v2_depth_duration_MTurk/v2_DepthDuration_HTML.html#42,42,1366,768,1366,768,8-20-2022,8-14-47,126,depth_duration_stimuli/000742_2014-06-08_18-48-09_260595134347_rgbf000164-resize_4/000742_2014-06-08_18-48-09_260595134347_rgbf000164-resize_4-target.png,250,4.632,8,2029,244,feet,jsons/v1_VE250_randls_23.json,605584,2016908,29,Man
126,209931,DepthScenes,duration_manipulation_targetAtFixation,jsons/v1_VE250_randls_23.json,http://54.235.29.9/FacialAge/BNav_EC2/DepthDuration/v2_depth_duration_MTurk/v2_DepthDuration_HTML.html#42,42,1366,768,1366,768,8-20-2022,8-14-47,127,depth_duration_stimuli/000368_2014-06-09_15-53-01_260595134347_rgbf000155-resize_2/000368_2014-06-09_15-53-01_260595134347_rgbf000155-resize_2-target.png,250,2.4859999999999998,9,2008,254,feet,jsons/v1_VE250_randls_23.json,605584,2016908,29,Man
127,209931,DepthScenes,duration_manipulation_targetAtFixation,jsons/v1_VE250_randls_23.json,http://54.235.29.9/FacialAge/BNav_EC2/DepthDuration/v2_depth_duration_MTurk/v2_DepthDuration_HTML.html#42,42,1366,768,1366,768,8-20-2022,8-14-47,128,depth_duration_stimuli/002678_2014-06-13_16-15-32_094959634447_rgbf000151-resize_6/002678_2014-06-13_16-15-32_094959634447_rgbf000151-resize_6-target.png,250,2.1830000000000003,4,2922,247,feet,jsons/v1_VE250_randls_23.json,605584,2016908,29,Man
128,209931,DepthScenes,duration_manipulation_targetAtFixation,jsons/v1_VE250_randls_23.json,http://54.235.29.9/FacialAge/BNav_EC2/DepthDuration/v2_depth_duration_MTurk/v2_DepthDuration_HTML.html#42,42,1366,768,1366,768,8-20-2022,8-14-47,129,depth_duration_stimuli/000758_2014-06-08_22-05-08_260595134347_rgbf000085-resize_0/000758_2014-06-08_22-05-08_260595134347_rgbf000085-resize_0-target.png,250,3.3810000000000002,6,4198,236,feet,jsons/v1_VE250_randls_23.json,605584,2016908,29,Man
129,209931,DepthScenes,duration_manipulation_targetAtFixation,jsons/v1_VE250_randls_23.json,http://54.235.29.9/FacialAge/BNav_EC2/DepthDuration/v2_depth_duration_MTurk/v2_DepthDuration_HTML.html#42,42,1366,768,1366,768,8-20-2022,8-14-47,130,depth_duration_stimuli/000854_2014-06-09_19-43-13_260595134347_rgbf000066-resize_0/000854_2014-06-09_19-43-13_260595134347_rgbf000066-resize_0-target.png,250,3.068,3,2730,247,feet,jsons/v1_VE250_randls_23.json,605584,2016908,29,Man
130,209931,DepthScenes,duration_manipulation_targetAtFixation,jsons/v1_VE250_randls_23.json,http://54.235.29.9/FacialAge/BNav_EC2/DepthDuration/v2_depth_duration_MTurk/v2_DepthDuration_HTML.html#42,42,1366,768,1366,768,8-20-2022,8-14-47,131,depth_duration_stimuli/003492_2014-05-21_15-50-55_094959634447_rgbf000828-resize_1/003492_2014-05-21_15-50-55_094959634447_rgbf000828-resize_1-target.png,250,4.06875,9,3687,269,feet,jsons/v1_VE250_randls_23.json,605584,2016908,29,Man
131,209931,DepthScenes,duration_manipulation_targetAtFixation,jsons/v1_VE250_randls_23.json,http://54.235.29.9/FacialAge/BNav_EC2/DepthDuration/v2_depth_duration_MTurk/v2_DepthDuration_HTML.html#42,42,1366,768,1366,768,8-20-2022,8-14-47,132,depth_duration_stimuli/002568_2014-06-24_13-59-21_094959634447_rgbf000062-resize_4/002568_2014-06-24_13-59-21_094959634447_rgbf000062-resize_4-target.png,250,3.015,10,4120,249,feet,jsons/v1_VE250_randls_23.json,605584,2016908,29,Man
132,209931,DepthScenes,duration_manipulation_targetAtFixation,jsons/v1_VE250_randls_23.json,http://54.235.29.9/FacialAge/BNav_EC2/DepthDuration/v2_depth_duration_MTurk/v2_DepthDuration_HTML.html#42,42,1366,768,1366,768,8-20-2022,8-14-47,133,depth_duration_stimuli/002788_2014-06-22_19-36-03_094959634447_rgbf000088-resize_2/002788_2014-06-22_19-36-03_094959634447_rgbf000088-resize_2-target.png,250,1.6465,10,5656,252,feet,jsons/v1_VE250_randls_23.json,605584,2016908,29,Man
133,209931,DepthScenes,duration_manipulation_targetAtFixation,jsons/v1_VE250_randls_23.json,http://54.235.29.9/FacialAge/BNav_EC2/DepthDuration/v2_depth_duration_MTurk/v2_DepthDuration_HTML.html#42,42,1366,768,1366,768,8-20-2022,8-14-47,134,depth_duration_stimuli/000749_2014-06-08_21-55-06_260595134347_rgbf000070-resize_2/000749_2014-06-08_21-55-06_260595134347_rgbf000070-resize_2-target.png,250,2.331,3,2083,261,feet,jsons/v1_VE250_randls_23.json,605584,2016908,29,Man
134,209931,DepthScenes,duration_manipulation_targetAtFixation,jsons/v1_VE250_randls_23.json,http://54.235.29.9/FacialAge/BNav_EC2/DepthDuration/v2_depth_duration_MTurk/v2_DepthDuration_HTML.html#42,42,1366,768,1366,768,8-20-2022,8-14-47,135,depth_duration_stimuli/002072_2014-06-24_21-48-06_260595134347_rgbf000115-resize_0/002072_2014-06-24_21-48-06_260595134347_rgbf000115-resize-original.jpg,250,4.702,0,2117,254,feet,jsons/v1_VE250_randls_23.json,605584,2016908,29,Man
135,209931,DepthScenes,duration_manipulation_targetAtFixation,jsons/v1_VE250_randls_23.json,http://54.235.29.9/FacialAge/BNav_EC2/DepthDuration/v2_depth_duration_MTurk/v2_DepthDuration_HTML.html#42,42,1366,768,1366,768,8-20-2022,8-14-47,136,depth_duration_stimuli/002570_2014-06-24_13-59-54_094959634447_rgbf000059-resize_0/002570_2014-06-24_13-59-54_094959634447_rgbf000059-resize_0-target.png,250,4.037,0,4592,261,feet,jsons/v1_VE250_randls_23.json,605584,2016908,29,Man
136,209931,DepthScenes,duration_manipulation_targetAtFixation,jsons/v1_VE250_randls_23.json,http://54.235.29.9/FacialAge/BNav_EC2/DepthDuration/v2_depth_duration_MTurk/v2_DepthDuration_HTML.html#42,42,1366,768,1366,768,8-20-2022,8-14-47,137,depth_duration_stimuli/002467_2014-06-28_20-38-07_260595134347_rgbf000026-resize_2/002467_2014-06-28_20-38-07_260595134347_rgbf000026-resize_2-target.png,250,4.742,6,6531,241,feet,jsons/v1_VE250_randls_23.json,605584,2016908,29,Man
137,209931,DepthScenes,duration_manipulation_targetAtFixation,jsons/v1_VE250_randls_23.json,http://54.235.29.9/FacialAge/BNav_EC2/DepthDuration/v2_depth_duration_MTurk/v2_DepthDuration_HTML.html#42,42,1366,768,1366,768,8-20-2022,8-14-47,138,depth_duration_stimuli/001555_2014-06-20_17-12-10_260595134347_rgbf000065-resize_4/001555_2014-06-20_17-12-10_260595134347_rgbf000065-resize_4-target.png,250,1.633,2,2303,246,feet,jsons/v1_VE250_randls_23.json,605584,2016908,29,Man
138,209931,DepthScenes,duration_manipulation_targetAtFixation,jsons/v1_VE250_randls_23.json,http://54.235.29.9/FacialAge/BNav_EC2/DepthDuration/v2_depth_duration_MTurk/v2_DepthDuration_HTML.html#42,42,1366,768,1366,768,8-20-2022,8-14-47,139,depth_duration_stimuli/000103_2014-05-14_22-01-17_260595134347_rgbf000152-resize_5/000103_2014-05-14_22-01-17_260595134347_rgbf000152-resize_5-target.png,250,1.993,4,2311,237,feet,jsons/v1_VE250_randls_23.json,605584,2016908,29,Man
139,209931,DepthScenes,duration_manipulation_targetAtFixation,jsons/v1_VE250_randls_23.json,http://54.235.29.9/FacialAge/BNav_EC2/DepthDuration/v2_depth_duration_MTurk/v2_DepthDuration_HTML.html#42,42,1366,768,1366,768,8-20-2022,8-14-47,140,depth_duration_stimuli/001164_2014-06-17_15-35-46_260595134347_rgbf000085-resize_3/001164_2014-06-17_15-35-46_260595134347_rgbf000085-resize_3-target.png,250,2.354,3,4698,252,feet,jsons/v1_VE250_randls_23.json,605584,2016908,29,Man
140,209931,DepthScenes,duration_manipulation_targetAtFixation,jsons/v1_VE250_randls_23.json,http://54.235.29.9/FacialAge/BNav_EC2/DepthDuration/v2_depth_duration_MTurk/v2_DepthDuration_HTML.html#42,42,1366,768,1366,768,8-20-2022,8-14-47,141,depth_duration_stimuli/001136_2014-06-17_15-19-41_260595134347_rgbf000076-resize_3/001136_2014-06-17_15-19-41_260595134347_rgbf000076-resize_3-target.png,250,1.8655,3,1888,242,feet,jsons/v1_VE250_randls_23.json,605584,2016908,29,Man
141,209931,DepthScenes,duration_manipulation_targetAtFixation,jsons/v1_VE250_randls_23.json,http://54.235.29.9/FacialAge/BNav_EC2/DepthDuration/v2_depth_duration_MTurk/v2_DepthDuration_HTML.html#42,42,1366,768,1366,768,8-20-2022,8-14-47,142,depth_duration_stimuli/002213_2014-06-28_18-37-58_260595134347_rgbf000055-resize_1/002213_2014-06-28_18-37-58_260595134347_rgbf000055-resize_1-target.png,250,3.62,8,2550,247,feet,jsons/v1_VE250_randls_23.json,605584,2016908,29,Man
142,209931,DepthScenes,duration_manipulation_targetAtFixation,jsons/v1_VE250_randls_23.json,http://54.235.29.9/FacialAge/BNav_EC2/DepthDuration/v2_depth_duration_MTurk/v2_DepthDuration_HTML.html#42,42,1366,768,1366,768,8-20-2022,8-14-47,143,depth_duration_stimuli/000691_2014-06-08_13-08-50_260595134347_rgbf000132-resize_3/000691_2014-06-08_13-08-50_260595134347_rgbf000132-resize_3-target.png,250,4.1530000000000005,7,2242,253,feet,jsons/v1_VE250_randls_23.json,605584,2016908,29,Man
143,209931,DepthScenes,duration_manipulation_targetAtFixation,jsons/v1_VE250_randls_23.json,http://54.235.29.9/FacialAge/BNav_EC2/DepthDuration/v2_depth_duration_MTurk/v2_DepthDuration_HTML.html#42,42,1366,768,1366,768,8-20-2022,8-14-47,144,depth_duration_stimuli/002989_2014-06-15_12-25-03_094959634447_rgbf000150-resize_3/002989_2014-06-15_12-25-03_094959634447_rgbf000150-resize_3-target.png,250,4.1975,9,2997,247,feet,jsons/v1_VE250_randls_23.json,605584,2016908,29,Man
144,209931,DepthScenes,duration_manipulation_targetAtFixation,jsons/v1_VE250_randls_23.json,http://54.235.29.9/FacialAge/BNav_EC2/DepthDuration/v2_depth_duration_MTurk/v2_DepthDuration_HTML.html#42,42,1366,768,1366,768,8-20-2022,8-14-47,145,depth_duration_stimuli/000866_2014-06-09_20-45-42_260595134347_rgbf000139-resize_1/000866_2014-06-09_20-45-42_260595134347_rgbf000139-resize_1-target.png,250,3.2155,3,2578,259,feet,jsons/v1_VE250_randls_23.json,605584,2016908,29,Man
145,209931,DepthScenes,duration_manipulation_targetAtFixation,jsons/v1_VE250_randls_23.json,http://54.235.29.9/FacialAge/BNav_EC2/DepthDuration/v2_depth_duration_MTurk/v2_DepthDuration_HTML.html#42,42,1366,768,1366,768,8-20-2022,8-14-47,146,depth_duration_stimuli/001498_2014-06-19_17-45-14_260595134347_rgbf000129-resize_4/001498_2014-06-19_17-45-14_260595134347_rgbf000129-resize-original.jpg,250,1.4075,0,2135,258,feet,jsons/v1_VE250_randls_23.json,605584,2016908,29,Man
146,209931,DepthScenes,duration_manipulation_targetAtFixation,jsons/v1_VE250_randls_23.json,http://54.235.29.9/FacialAge/BNav_EC2/DepthDuration/v2_depth_duration_MTurk/v2_DepthDuration_HTML.html#42,42,1366,768,1366,768,8-20-2022,8-14-47,147,depth_duration_stimuli/002118_2014-06-25_20-32-08_260595134347_rgbf000078-resize_1/002118_2014-06-25_20-32-08_260595134347_rgbf000078-resize_1-target.png,250,2.6460000000000004,3,3700,256,feet,jsons/v1_VE250_randls_23.json,605584,2016908,29,Man
147,209931,DepthScenes,duration_manipulation_targetAtFixation,jsons/v1_VE250_randls_23.json,http://54.235.29.9/FacialAge/BNav_EC2/DepthDuration/v2_depth_duration_MTurk/v2_DepthDuration_HTML.html#42,42,1366,768,1366,768,8-20-2022,8-14-47,148,depth_duration_stimuli/001516_2014-06-20_16-25-09_260595134347_rgbf000076-resize_2/001516_2014-06-20_16-25-09_260595134347_rgbf000076-resize_2-target.png,250,1.7445,3,1945,252,feet,jsons/v1_VE250_randls_23.json,605584,2016908,29,Man
148,209931,DepthScenes,duration_manipulation_targetAtFixation,jsons/v1_VE250_randls_23.json,http://54.235.29.9/FacialAge/BNav_EC2/DepthDuration/v2_depth_duration_MTurk/v2_DepthDuration_HTML.html#42,42,1366,768,1366,768,8-20-2022,8-14-47,149,depth_duration_stimuli/002272_2014-06-28_18-53-56_260595134347_rgbf000067-resize_2/002272_2014-06-28_18-53-56_260595134347_rgbf000067-resize_2-target.png,250,1.138,2,2189,266,feet,jsons/v1_VE250_randls_23.json,605584,2016908,29,Man
149,209931,DepthScenes,duration_manipulation_targetAtFixation,jsons/v1_VE250_randls_23.json,http://54.235.29.9/FacialAge/BNav_EC2/DepthDuration/v2_depth_duration_MTurk/v2_DepthDuration_HTML.html#42,42,1366,768,1366,768,8-20-2022,8-14-47,150,depth_duration_stimuli/001571_2014-06-20_17-21-32_260595134347_rgbf000089-resize_1/001571_2014-06-20_17-21-32_260595134347_rgbf000089-resize_1-target.png,250,1.86,2,2471,254,feet,jsons/v1_VE250_randls_23.json,605584,2016908,29,Man
150,209931,DepthScenes,duration_manipulation_targetAtFixation,jsons/v1_VE250_randls_23.json,http://54.235.29.9/FacialAge/BNav_EC2/DepthDuration/v2_depth_duration_MTurk/v2_DepthDuration_HTML.html#42,42,1366,768,1366,768,8-20-2022,8-14-47,151,depth_duration_stimuli/001055_2014-06-08_18-45-35_260595134347_rgbf000111-resize_4/001055_2014-06-08_18-45-35_260595134347_rgbf000111-resize_4-target.png,250,2.4290000000000003,12,3200,258,feet,jsons/v1_VE250_randls_23.json,605584,2016908,29,Man
151,209931,DepthScenes,duration_manipulation_targetAtFixation,jsons/v1_VE250_randls_23.json,http://54.235.29.9/FacialAge/BNav_EC2/DepthDuration/v2_depth_duration_MTurk/v2_DepthDuration_HTML.html#42,42,1366,768,1366,768,8-20-2022,8-14-47,152,depth_duration_stimuli/000549_2014-06-08_22-10-24_260595134347_rgbf000247-resize_3/000549_2014-06-08_22-10-24_260595134347_rgbf000247-resize_3-target.png,250,1.841,2,1724,249,feet,jsons/v1_VE250_randls_23.json,605584,2016908,29,Man
152,209931,DepthScenes,duration_manipulation_targetAtFixation,jsons/v1_VE250_randls_23.json,http://54.235.29.9/FacialAge/BNav_EC2/DepthDuration/v2_depth_duration_MTurk/v2_DepthDuration_HTML.html#42,42,1366,768,1366,768,8-20-2022,8-14-47,153,depth_duration_stimuli/002748_2014-06-22_19-07-22_094959634447_rgbf000078-resize_1/002748_2014-06-22_19-07-22_094959634447_rgbf000078-resize_1-target.png,250,4.6705,10,3037,252,feet,jsons/v1_VE250_randls_23.json,605584,2016908,29,Man
153,209931,DepthScenes,duration_manipulation_targetAtFixation,jsons/v1_VE250_randls_23.json,http://54.235.29.9/FacialAge/BNav_EC2/DepthDuration/v2_depth_duration_MTurk/v2_DepthDuration_HTML.html#42,42,1366,768,1366,768,8-20-2022,8-14-47,154,depth_duration_stimuli/002995_2014-06-15_12-31-26_094959634447_rgbf000150-resize_1/002995_2014-06-15_12-31-26_094959634447_rgbf000150-resize_1-target.png,250,3.8360000000000003,12,1807,253,feet,jsons/v1_VE250_randls_23.json,605584,2016908,29,Man
154,209931,DepthScenes,duration_manipulation_targetAtFixation,jsons/v1_VE250_randls_23.json,http://54.235.29.9/FacialAge/BNav_EC2/DepthDuration/v2_depth_duration_MTurk/v2_DepthDuration_HTML.html#42,42,1366,768,1366,768,8-20-2022,8-14-47,155,depth_duration_stimuli/001808_2014-06-26_20-50-58_260595134347_rgbf000029-resize_1/001808_2014-06-26_20-50-58_260595134347_rgbf000029-resize_1-target.png,250,4.249,12,2590,253,feet,jsons/v1_VE250_randls_23.json,605584,2016908,29,Man
155,209931,DepthScenes,duration_manipulation_targetAtFixation,jsons/v1_VE250_randls_23.json,http://54.235.29.9/FacialAge/BNav_EC2/DepthDuration/v2_depth_duration_MTurk/v2_DepthDuration_HTML.html#42,42,1366,768,1366,768,8-20-2022,8-14-47,156,depth_duration_stimuli/001815_2014-06-26_20-52-55_260595134347_rgbf000020-resize_0/001815_2014-06-26_20-52-55_260595134347_rgbf000020-resize_0-target.png,250,3.3865,12,2765,239,feet,jsons/v1_VE250_randls_23.json,605584,2016908,29,Man
156,209931,DepthScenes,duration_manipulation_targetAtFixation,jsons/v1_VE250_randls_23.json,http://54.235.29.9/FacialAge/BNav_EC2/DepthDuration/v2_depth_duration_MTurk/v2_DepthDuration_HTML.html#42,42,1366,768,1366,768,8-20-2022,8-14-47,157,depth_duration_stimuli/001570_2014-06-20_17-21-09_260595134347_rgbf000135-resize_4/001570_2014-06-20_17-21-09_260595134347_rgbf000135-resize_4-target.png,250,4.467,12,1956,251,feet,jsons/v1_VE250_randls_23.json,605584,2016908,29,Man
157,209931,DepthScenes,duration_manipulation_targetAtFixation,jsons/v1_VE250_randls_23.json,http://54.235.29.9/FacialAge/BNav_EC2/DepthDuration/v2_depth_duration_MTurk/v2_DepthDuration_HTML.html#42,42,1366,768,1366,768,8-20-2022,8-14-47,158,depth_duration_stimuli/001392_2014-06-19_16-07-59_260595134347_rgbf000046-resize_1/001392_2014-06-19_16-07-59_260595134347_rgbf000046-resize_1-target.png,250,4.135,7,3681,236,feet,jsons/v1_VE250_randls_23.json,605584,2016908,29,Man
158,209931,DepthScenes,duration_manipulation_targetAtFixation,jsons/v1_VE250_randls_23.json,http://54.235.29.9/FacialAge/BNav_EC2/DepthDuration/v2_depth_duration_MTurk/v2_DepthDuration_HTML.html#42,42,1366,768,1366,768,8-20-2022,8-14-47,159,depth_duration_stimuli/003621_2014-05-23_18-06-08_094959634447_rgbf000101-resize_1/003621_2014-05-23_18-06-08_094959634447_rgbf000101-resize_1-target.png,250,3.9835,8,2181,250,feet,jsons/v1_VE250_randls_23.json,605584,2016908,29,Man
159,209931,DepthScenes,duration_manipulation_targetAtFixation,jsons/v1_VE250_randls_23.json,http://54.235.29.9/FacialAge/BNav_EC2/DepthDuration/v2_depth_duration_MTurk/v2_DepthDuration_HTML.html#42,42,1366,768,1366,768,8-20-2022,8-14-47,160,depth_duration_stimuli/001584_2014-06-20_11-07-43_260595134347_rgbf000002-resize_1/001584_2014-06-20_11-07-43_260595134347_rgbf000002-resize_1-target.png,250,3.53,7,3034,246,feet,jsons/v1_VE250_randls_23.json,605584,2016908,29,Man
160,209931,DepthScenes,duration_manipulation_targetAtFixation,jsons/v1_VE250_randls_23.json,http://54.235.29.9/FacialAge/BNav_EC2/DepthDuration/v2_depth_duration_MTurk/v2_DepthDuration_HTML.html#42,42,1366,768,1366,768,8-20-2022,8-14-47,161,depth_duration_stimuli/001199_2014-06-17_16-03-48_260595134347_rgbf000077-resize_0/001199_2014-06-17_16-03-48_260595134347_rgbf000077-resize_0-target.png,250,3.4375,8,1961,248,feet,jsons/v1_VE250_randls_23.json,605584,2016908,29,Man
161,209931,DepthScenes,duration_manipulation_targetAtFixation,jsons/v1_VE250_randls_23.json,http://54.235.29.9/FacialAge/BNav_EC2/DepthDuration/v2_depth_duration_MTurk/v2_DepthDuration_HTML.html#42,42,1366,768,1366,768,8-20-2022,8-14-47,162,depth_duration_stimuli/000502_2014-06-08_23-02-32_260595134347_rgbf000063-resize_4/000502_2014-06-08_23-02-32_260595134347_rgbf000063-resize_4-target.png,250,2.431,3,1765,254,feet,jsons/v1_VE250_randls_23.json,605584,2016908,29,Man
162,209931,DepthScenes,duration_manipulation_targetAtFixation,jsons/v1_VE250_randls_23.json,http://54.235.29.9/FacialAge/BNav_EC2/DepthDuration/v2_depth_duration_MTurk/v2_DepthDuration_HTML.html#42,42,1366,768,1366,768,8-20-2022,8-14-47,163,depth_duration_stimuli/003534_2014-05-22_15-06-10_094959634447_rgbf000102-resize_4/003534_2014-05-22_15-06-10_094959634447_rgbf000102-resize_4-target.png,250,1.426,3,2189,246,feet,jsons/v1_VE250_randls_23.json,605584,2016908,29,Man
163,209931,DepthScenes,duration_manipulation_targetAtFixation,jsons/v1_VE250_randls_23.json,http://54.235.29.9/FacialAge/BNav_EC2/DepthDuration/v2_depth_duration_MTurk/v2_DepthDuration_HTML.html#42,42,1366,768,1366,768,8-20-2022,8-14-47,164,depth_duration_stimuli/002637_2014-06-24_14-51-13_094959634447_rgbf000066-resize_4/002637_2014-06-24_14-51-13_094959634447_rgbf000066-resize_4-target.png,250,1.9955,4,1733,246,feet,jsons/v1_VE250_randls_23.json,605584,2016908,29,Man
