,subjID,experimentName,versionName,sequenceName,url,selected_row,windowWidth,windowHeight,screenWidth,screenHeight,startDate,startTime,trial,stimulus,duration,actual_depth,depth_estimate,trial_RT,log_sceneDuration,unitSelection,seq_filepath,experimentTime,totalTime,age,gender
0,211019,DepthScenes,duration_manipulation_targetAtFixation,jsons/v1_VE1000_randls_0.json,http://54.235.29.9/FacialAge/BNav_EC2/DepthDuration/v2_depth_duration_MTurk/v2_DepthDuration_HTML.html#8,8,1600,757,1600,900,8-29-2022,9-42-37,1,depth_duration_stimuli/001133_2014-06-17_14-49-16_260595134347_rgbf000100-resize_0/001133_2014-06-17_14-49-16_260595134347_rgbf000100-resize_0-target.png,1000,4.2115,3,4192,1048,feet,jsons/v1_VE1000_randls_0.json,686619,902345,50,Man
1,211019,DepthScenes,duration_manipulation_targetAtFixation,jsons/v1_VE1000_randls_0.json,http://54.235.29.9/FacialAge/BNav_EC2/DepthDuration/v2_depth_duration_MTurk/v2_DepthDuration_HTML.html#8,8,1600,757,1600,900,8-29-2022,9-42-37,2,depth_duration_stimuli/001132_2014-06-17_14-48-54_260595134347_rgbf000100-resize_2/001132_2014-06-17_14-48-54_260595134347_rgbf000100-resize_2-target.png,1000,3.753,2,3586,974,feet,jsons/v1_VE1000_randls_0.json,686619,902345,50,Man
2,211019,DepthScenes,duration_manipulation_targetAtFixation,jsons/v1_VE1000_randls_0.json,http://54.235.29.9/FacialAge/BNav_EC2/DepthDuration/v2_depth_duration_MTurk/v2_DepthDuration_HTML.html#8,8,1600,757,1600,900,8-29-2022,9-42-37,3,depth_duration_stimuli/003070_2014-06-15_14-58-27_094959634447_rgbf000150-resize_3/003070_2014-06-15_14-58-27_094959634447_rgbf000150-resize_3-target.png,1000,2.9415,1,3791,1029,feet,jsons/v1_VE1000_randls_0.json,686619,902345,50,Man
3,211019,DepthScenes,duration_manipulation_targetAtFixation,jsons/v1_VE1000_randls_0.json,http://54.235.29.9/FacialAge/BNav_EC2/DepthDuration/v2_depth_duration_MTurk/v2_DepthDuration_HTML.html#8,8,1600,757,1600,900,8-29-2022,9-42-37,4,depth_duration_stimuli/000943_2014-06-09_19-31-07_260595134347_rgbf000128-resize_1/000943_2014-06-09_19-31-07_260595134347_rgbf000128-resize_1-target.png,1000,1.9765,1,3681,1001,feet,jsons/v1_VE1000_randls_0.json,686619,902345,50,Man
4,211019,DepthScenes,duration_manipulation_targetAtFixation,jsons/v1_VE1000_randls_0.json,http://54.235.29.9/FacialAge/BNav_EC2/DepthDuration/v2_depth_duration_MTurk/v2_DepthDuration_HTML.html#8,8,1600,757,1600,900,8-29-2022,9-42-37,5,depth_duration_stimuli/002964_2014-06-08_17-46-11_094959634447_rgbf000091-resize_4/002964_2014-06-08_17-46-11_094959634447_rgbf000091-resize_4-target.png,1000,1.6909999999999998,1,4026,1003,feet,jsons/v1_VE1000_randls_0.json,686619,902345,50,Man
5,211019,DepthScenes,duration_manipulation_targetAtFixation,jsons/v1_VE1000_randls_0.json,http://54.235.29.9/FacialAge/BNav_EC2/DepthDuration/v2_depth_duration_MTurk/v2_DepthDuration_HTML.html#8,8,1600,757,1600,900,8-29-2022,9-42-37,6,depth_duration_stimuli/002136_2014-06-25_21-18-03_260595134347_rgbf000109-resize_3/002136_2014-06-25_21-18-03_260595134347_rgbf000109-resize_3-target.png,1000,1.9569999999999999,1,4286,1005,feet,jsons/v1_VE1000_randls_0.json,686619,902345,50,Man
6,211019,DepthScenes,duration_manipulation_targetAtFixation,jsons/v1_VE1000_randls_0.json,http://54.235.29.9/FacialAge/BNav_EC2/DepthDuration/v2_depth_duration_MTurk/v2_DepthDuration_HTML.html#8,8,1600,757,1600,900,8-29-2022,9-42-37,7,depth_duration_stimuli/000917_2014-06-09_22-45-29_260595134347_rgbf000149-resize_3/000917_2014-06-09_22-45-29_260595134347_rgbf000149-resize_3-target.png,1000,4.1865,2,3854,990,feet,jsons/v1_VE1000_randls_0.json,686619,902345,50,Man
7,211019,DepthScenes,duration_manipulation_targetAtFixation,jsons/v1_VE1000_randls_0.json,http://54.235.29.9/FacialAge/BNav_EC2/DepthDuration/v2_depth_duration_MTurk/v2_DepthDuration_HTML.html#8,8,1600,757,1600,900,8-29-2022,9-42-37,8,depth_duration_stimuli/002323_2014-06-28_20-01-54_260595134347_rgbf000051-resize_4/002323_2014-06-28_20-01-54_260595134347_rgbf000051-resize_4-target.png,1000,3.7310000000000003,3,4143,989,feet,jsons/v1_VE1000_randls_0.json,686619,902345,50,Man
8,211019,DepthScenes,duration_manipulation_targetAtFixation,jsons/v1_VE1000_randls_0.json,http://54.235.29.9/FacialAge/BNav_EC2/DepthDuration/v2_depth_duration_MTurk/v2_DepthDuration_HTML.html#8,8,1600,757,1600,900,8-29-2022,9-42-37,9,depth_duration_stimuli/002570_2014-06-24_13-59-54_094959634447_rgbf000059-resize_0/002570_2014-06-24_13-59-54_094959634447_rgbf000059-resize_0-target.png,1000,4.037,3,4811,1004,feet,jsons/v1_VE1000_randls_0.json,686619,902345,50,Man
9,211019,DepthScenes,duration_manipulation_targetAtFixation,jsons/v1_VE1000_randls_0.json,http://54.235.29.9/FacialAge/BNav_EC2/DepthDuration/v2_depth_duration_MTurk/v2_DepthDuration_HTML.html#8,8,1600,757,1600,900,8-29-2022,9-42-37,10,depth_duration_stimuli/002467_2014-06-28_20-38-07_260595134347_rgbf000026-resize_2/002467_2014-06-28_20-38-07_260595134347_rgbf000026-resize_2-target.png,1000,4.742,3,3731,982,feet,jsons/v1_VE1000_randls_0.json,686619,902345,50,Man
10,211019,DepthScenes,duration_manipulation_targetAtFixation,jsons/v1_VE1000_randls_0.json,http://54.235.29.9/FacialAge/BNav_EC2/DepthDuration/v2_depth_duration_MTurk/v2_DepthDuration_HTML.html#8,8,1600,757,1600,900,8-29-2022,9-42-37,11,depth_duration_stimuli/001449_2014-06-19_17-01-27_260595134347_rgbf000116-resize_2/001449_2014-06-19_17-01-27_260595134347_rgbf000116-resize_2-target.png,1000,3.452,2,4195,1002,feet,jsons/v1_VE1000_randls_0.json,686619,902345,50,Man
11,211019,DepthScenes,duration_manipulation_targetAtFixation,jsons/v1_VE1000_randls_0.json,http://54.235.29.9/FacialAge/BNav_EC2/DepthDuration/v2_depth_duration_MTurk/v2_DepthDuration_HTML.html#8,8,1600,757,1600,900,8-29-2022,9-42-37,12,depth_duration_stimuli/001450_2014-06-19_17-02-03_260595134347_rgbf000203-resize_4/001450_2014-06-19_17-02-03_260595134347_rgbf000203-resize_4-target.png,1000,4.0106666666667,3,4020,992,feet,jsons/v1_VE1000_randls_0.json,686619,902345,50,Man
12,211019,DepthScenes,duration_manipulation_targetAtFixation,jsons/v1_VE1000_randls_0.json,http://54.235.29.9/FacialAge/BNav_EC2/DepthDuration/v2_depth_duration_MTurk/v2_DepthDuration_HTML.html#8,8,1600,757,1600,900,8-29-2022,9-42-37,13,depth_duration_stimuli/000569_2014-06-09_22-51-47_260595134347_rgbf000141-resize_3/000569_2014-06-09_22-51-47_260595134347_rgbf000141-resize-original.jpg,1000,4.512,0,3711,1001,feet,jsons/v1_VE1000_randls_0.json,686619,902345,50,Man
13,211019,DepthScenes,duration_manipulation_targetAtFixation,jsons/v1_VE1000_randls_0.json,http://54.235.29.9/FacialAge/BNav_EC2/DepthDuration/v2_depth_duration_MTurk/v2_DepthDuration_HTML.html#8,8,1600,757,1600,900,8-29-2022,9-42-37,14,depth_duration_stimuli/000736_2014-06-08_18-24-15_260595134347_rgbf000206-resize_3/000736_2014-06-08_18-24-15_260595134347_rgbf000206-resize_3-target.png,1000,3.515,1,3693,987,feet,jsons/v1_VE1000_randls_0.json,686619,902345,50,Man
14,211019,DepthScenes,duration_manipulation_targetAtFixation,jsons/v1_VE1000_randls_0.json,http://54.235.29.9/FacialAge/BNav_EC2/DepthDuration/v2_depth_duration_MTurk/v2_DepthDuration_HTML.html#8,8,1600,757,1600,900,8-29-2022,9-42-37,15,depth_duration_stimuli/000137_2014-05-20_17-04-49_260595134347_rgbf000120-resize_1/000137_2014-05-20_17-04-49_260595134347_rgbf000120-resize_1-target.png,1000,3.786,3,3933,996,feet,jsons/v1_VE1000_randls_0.json,686619,902345,50,Man
15,211019,DepthScenes,duration_manipulation_targetAtFixation,jsons/v1_VE1000_randls_0.json,http://54.235.29.9/FacialAge/BNav_EC2/DepthDuration/v2_depth_duration_MTurk/v2_DepthDuration_HTML.html#8,8,1600,757,1600,900,8-29-2022,9-42-37,16,depth_duration_stimuli/002509_2014-06-24_13-19-22_094959634447_rgbf000077-resize_0/002509_2014-06-24_13-19-22_094959634447_rgbf000077-resize_0-target.png,1000,1.3065,4,3541,996,feet,jsons/v1_VE1000_randls_0.json,686619,902345,50,Man
16,211019,DepthScenes,duration_manipulation_targetAtFixation,jsons/v1_VE1000_randls_0.json,http://54.235.29.9/FacialAge/BNav_EC2/DepthDuration/v2_depth_duration_MTurk/v2_DepthDuration_HTML.html#8,8,1600,757,1600,900,8-29-2022,9-42-37,17,depth_duration_stimuli/003338_2014-05-20_11-01-23_094959634447_rgbf000051-resize_6/003338_2014-05-20_11-01-23_094959634447_rgbf000051-resize_6-target.png,1000,1.693,2,3735,1000,feet,jsons/v1_VE1000_randls_0.json,686619,902345,50,Man
17,211019,DepthScenes,duration_manipulation_targetAtFixation,jsons/v1_VE1000_randls_0.json,http://54.235.29.9/FacialAge/BNav_EC2/DepthDuration/v2_depth_duration_MTurk/v2_DepthDuration_HTML.html#8,8,1600,757,1600,900,8-29-2022,9-42-37,18,depth_duration_stimuli/000810_2014-06-08_17-20-01_260595134347_rgbf000105-resize_0/000810_2014-06-08_17-20-01_260595134347_rgbf000105-resize_0-target.png,1000,1.4865,2,4102,1016,feet,jsons/v1_VE1000_randls_0.json,686619,902345,50,Man
18,211019,DepthScenes,duration_manipulation_targetAtFixation,jsons/v1_VE1000_randls_0.json,http://54.235.29.9/FacialAge/BNav_EC2/DepthDuration/v2_depth_duration_MTurk/v2_DepthDuration_HTML.html#8,8,1600,757,1600,900,8-29-2022,9-42-37,19,depth_duration_stimuli/001214_2014-06-17_16-13-55_260595134347_rgbf000111-resize_0/001214_2014-06-17_16-13-55_260595134347_rgbf000111-resize_0-target.png,1000,2.6505,1,3547,947,feet,jsons/v1_VE1000_randls_0.json,686619,902345,50,Man
19,211019,DepthScenes,duration_manipulation_targetAtFixation,jsons/v1_VE1000_randls_0.json,http://54.235.29.9/FacialAge/BNav_EC2/DepthDuration/v2_depth_duration_MTurk/v2_DepthDuration_HTML.html#8,8,1600,757,1600,900,8-29-2022,9-42-37,20,depth_duration_stimuli/000486_2014-06-09_20-47-20_260595134347_rgbf000143-resize_2/000486_2014-06-09_20-47-20_260595134347_rgbf000143-resize_2-target.png,1000,4.8325,3,3709,1004,feet,jsons/v1_VE1000_randls_0.json,686619,902345,50,Man
20,211019,DepthScenes,duration_manipulation_targetAtFixation,jsons/v1_VE1000_randls_0.json,http://54.235.29.9/FacialAge/BNav_EC2/DepthDuration/v2_depth_duration_MTurk/v2_DepthDuration_HTML.html#8,8,1600,757,1600,900,8-29-2022,9-42-37,21,depth_duration_stimuli/003083_2014-06-15_15-21-03_094959634447_rgbf000063-resize_1/003083_2014-06-15_15-21-03_094959634447_rgbf000063-resize_1-target.png,1000,4.1405,5,3672,1005,feet,jsons/v1_VE1000_randls_0.json,686619,902345,50,Man
21,211019,DepthScenes,duration_manipulation_targetAtFixation,jsons/v1_VE1000_randls_0.json,http://54.235.29.9/FacialAge/BNav_EC2/DepthDuration/v2_depth_duration_MTurk/v2_DepthDuration_HTML.html#8,8,1600,757,1600,900,8-29-2022,9-42-37,22,depth_duration_stimuli/002788_2014-06-22_19-36-03_094959634447_rgbf000088-resize_2/002788_2014-06-22_19-36-03_094959634447_rgbf000088-resize_2-target.png,1000,1.6465,3,3640,1043,feet,jsons/v1_VE1000_randls_0.json,686619,902345,50,Man
22,211019,DepthScenes,duration_manipulation_targetAtFixation,jsons/v1_VE1000_randls_0.json,http://54.235.29.9/FacialAge/BNav_EC2/DepthDuration/v2_depth_duration_MTurk/v2_DepthDuration_HTML.html#8,8,1600,757,1600,900,8-29-2022,9-42-37,23,depth_duration_stimuli/000749_2014-06-08_21-55-06_260595134347_rgbf000070-resize_2/000749_2014-06-08_21-55-06_260595134347_rgbf000070-resize_2-target.png,1000,2.331,1,3958,992,feet,jsons/v1_VE1000_randls_0.json,686619,902345,50,Man
23,211019,DepthScenes,duration_manipulation_targetAtFixation,jsons/v1_VE1000_randls_0.json,http://54.235.29.9/FacialAge/BNav_EC2/DepthDuration/v2_depth_duration_MTurk/v2_DepthDuration_HTML.html#8,8,1600,757,1600,900,8-29-2022,9-42-37,24,depth_duration_stimuli/002763_2014-06-22_19-13-10_094959634447_rgbf000075-resize_4/002763_2014-06-22_19-13-10_094959634447_rgbf000075-resize_4-target.png,1000,1.68375,2,3688,1018,feet,jsons/v1_VE1000_randls_0.json,686619,902345,50,Man
24,211019,DepthScenes,duration_manipulation_targetAtFixation,jsons/v1_VE1000_randls_0.json,http://54.235.29.9/FacialAge/BNav_EC2/DepthDuration/v2_depth_duration_MTurk/v2_DepthDuration_HTML.html#8,8,1600,757,1600,900,8-29-2022,9-42-37,25,depth_duration_stimuli/002209_2014-06-28_18-36-10_260595134347_rgbf000051-resize_1/002209_2014-06-28_18-36-10_260595134347_rgbf000051-resize_1-target.png,1000,2.057,1,4750,1022,feet,jsons/v1_VE1000_randls_0.json,686619,902345,50,Man
25,211019,DepthScenes,duration_manipulation_targetAtFixation,jsons/v1_VE1000_randls_0.json,http://54.235.29.9/FacialAge/BNav_EC2/DepthDuration/v2_depth_duration_MTurk/v2_DepthDuration_HTML.html#8,8,1600,757,1600,900,8-29-2022,9-42-37,26,depth_duration_stimuli/001029_2014-06-08_13-17-57_260595134347_rgbf000065-resize_1/001029_2014-06-08_13-17-57_260595134347_rgbf000065-resize_1-target.png,1000,3.0835,3,4238,989,feet,jsons/v1_VE1000_randls_0.json,686619,902345,50,Man
26,211019,DepthScenes,duration_manipulation_targetAtFixation,jsons/v1_VE1000_randls_0.json,http://54.235.29.9/FacialAge/BNav_EC2/DepthDuration/v2_depth_duration_MTurk/v2_DepthDuration_HTML.html#8,8,1600,757,1600,900,8-29-2022,9-42-37,27,depth_duration_stimuli/000677_2014-06-08_23-10-32_260595134347_rgbf000158-resize_6/000677_2014-06-08_23-10-32_260595134347_rgbf000158-resize_6-target.png,1000,3.556,3,3871,994,feet,jsons/v1_VE1000_randls_0.json,686619,902345,50,Man
27,211019,DepthScenes,duration_manipulation_targetAtFixation,jsons/v1_VE1000_randls_0.json,http://54.235.29.9/FacialAge/BNav_EC2/DepthDuration/v2_depth_duration_MTurk/v2_DepthDuration_HTML.html#8,8,1600,757,1600,900,8-29-2022,9-42-37,28,depth_duration_stimuli/002663_2014-06-13_15-50-26_094959634447_rgbf000075-resize_1/002663_2014-06-13_15-50-26_094959634447_rgbf000075-resize_1-target.png,1000,4.7495,5,3638,997,feet,jsons/v1_VE1000_randls_0.json,686619,902345,50,Man
28,211019,DepthScenes,duration_manipulation_targetAtFixation,jsons/v1_VE1000_randls_0.json,http://54.235.29.9/FacialAge/BNav_EC2/DepthDuration/v2_depth_duration_MTurk/v2_DepthDuration_HTML.html#8,8,1600,757,1600,900,8-29-2022,9-42-37,29,depth_duration_stimuli/000409_2014-06-04_19-23-33_260595134347_rgbf000067-resize_0/000409_2014-06-04_19-23-33_260595134347_rgbf000067-resize_0-target.png,1000,3.7335,3,3457,1011,feet,jsons/v1_VE1000_randls_0.json,686619,902345,50,Man
29,211019,DepthScenes,duration_manipulation_targetAtFixation,jsons/v1_VE1000_randls_0.json,http://54.235.29.9/FacialAge/BNav_EC2/DepthDuration/v2_depth_duration_MTurk/v2_DepthDuration_HTML.html#8,8,1600,757,1600,900,8-29-2022,9-42-37,30,depth_duration_stimuli/000375_2014-06-08_11-17-29_260595134347_rgbf000133-resize_2/000375_2014-06-08_11-17-29_260595134347_rgbf000133-resize-original.jpg,1000,4.718,0,4068,943,feet,jsons/v1_VE1000_randls_0.json,686619,902345,50,Man
30,211019,DepthScenes,duration_manipulation_targetAtFixation,jsons/v1_VE1000_randls_0.json,http://54.235.29.9/FacialAge/BNav_EC2/DepthDuration/v2_depth_duration_MTurk/v2_DepthDuration_HTML.html#8,8,1600,757,1600,900,8-29-2022,9-42-37,31,depth_duration_stimuli/001806_2014-06-26_20-50-20_260595134347_rgbf000091-resize_1/001806_2014-06-26_20-50-20_260595134347_rgbf000091-resize_1-target.png,1000,2.7305,1,3218,941,feet,jsons/v1_VE1000_randls_0.json,686619,902345,50,Man
31,211019,DepthScenes,duration_manipulation_targetAtFixation,jsons/v1_VE1000_randls_0.json,http://54.235.29.9/FacialAge/BNav_EC2/DepthDuration/v2_depth_duration_MTurk/v2_DepthDuration_HTML.html#8,8,1600,757,1600,900,8-29-2022,9-42-37,32,depth_duration_stimuli/001617_2014-06-20_11-35-32_260595134347_rgbf000066-resize_1/001617_2014-06-20_11-35-32_260595134347_rgbf000066-resize_1-target.png,1000,3.7910000000000004,3,3553,1001,feet,jsons/v1_VE1000_randls_0.json,686619,902345,50,Man
32,211019,DepthScenes,duration_manipulation_targetAtFixation,jsons/v1_VE1000_randls_0.json,http://54.235.29.9/FacialAge/BNav_EC2/DepthDuration/v2_depth_duration_MTurk/v2_DepthDuration_HTML.html#8,8,1600,757,1600,900,8-29-2022,9-42-37,33,depth_duration_stimuli/002272_2014-06-28_18-53-56_260595134347_rgbf000067-resize_2/002272_2014-06-28_18-53-56_260595134347_rgbf000067-resize_2-target.png,1000,1.138,1,3460,1001,feet,jsons/v1_VE1000_randls_0.json,686619,902345,50,Man
33,211019,DepthScenes,duration_manipulation_targetAtFixation,jsons/v1_VE1000_randls_0.json,http://54.235.29.9/FacialAge/BNav_EC2/DepthDuration/v2_depth_duration_MTurk/v2_DepthDuration_HTML.html#8,8,1600,757,1600,900,8-29-2022,9-42-37,34,depth_duration_stimuli/001571_2014-06-20_17-21-32_260595134347_rgbf000089-resize_1/001571_2014-06-20_17-21-32_260595134347_rgbf000089-resize_1-target.png,1000,1.86,2,3490,997,feet,jsons/v1_VE1000_randls_0.json,686619,902345,50,Man
34,211019,DepthScenes,duration_manipulation_targetAtFixation,jsons/v1_VE1000_randls_0.json,http://54.235.29.9/FacialAge/BNav_EC2/DepthDuration/v2_depth_duration_MTurk/v2_DepthDuration_HTML.html#8,8,1600,757,1600,900,8-29-2022,9-42-37,35,depth_duration_stimuli/001056_2014-06-08_18-46-44_260595134347_rgbf000068-resize_0/001056_2014-06-08_18-46-44_260595134347_rgbf000068-resize_0-target.png,1000,2.6625,2,3707,1006,feet,jsons/v1_VE1000_randls_0.json,686619,902345,50,Man
35,211019,DepthScenes,duration_manipulation_targetAtFixation,jsons/v1_VE1000_randls_0.json,http://54.235.29.9/FacialAge/BNav_EC2/DepthDuration/v2_depth_duration_MTurk/v2_DepthDuration_HTML.html#8,8,1600,757,1600,900,8-29-2022,9-42-37,36,depth_duration_stimuli/002199_2014-06-28_18-33-56_260595134347_rgbf000074-resize_0/002199_2014-06-28_18-33-56_260595134347_rgbf000074-resize_0-target.png,1000,1.996,1,3283,993,feet,jsons/v1_VE1000_randls_0.json,686619,902345,50,Man
36,211019,DepthScenes,duration_manipulation_targetAtFixation,jsons/v1_VE1000_randls_0.json,http://54.235.29.9/FacialAge/BNav_EC2/DepthDuration/v2_depth_duration_MTurk/v2_DepthDuration_HTML.html#8,8,1600,757,1600,900,8-29-2022,9-42-37,37,depth_duration_stimuli/000682_2014-06-08_23-14-58_260595134347_rgbf000041-resize_5/000682_2014-06-08_23-14-58_260595134347_rgbf000041-resize_5-target.png,1000,2.7239999999999998,2,3321,997,feet,jsons/v1_VE1000_randls_0.json,686619,902345,50,Man
37,211019,DepthScenes,duration_manipulation_targetAtFixation,jsons/v1_VE1000_randls_0.json,http://54.235.29.9/FacialAge/BNav_EC2/DepthDuration/v2_depth_duration_MTurk/v2_DepthDuration_HTML.html#8,8,1600,757,1600,900,8-29-2022,9-42-37,38,depth_duration_stimuli/001650_2014-06-20_12-09-00_260595134347_rgbf000087-resize_3/001650_2014-06-20_12-09-00_260595134347_rgbf000087-resize_3-target.png,1000,1.9505,1,3537,1060,feet,jsons/v1_VE1000_randls_0.json,686619,902345,50,Man
38,211019,DepthScenes,duration_manipulation_targetAtFixation,jsons/v1_VE1000_randls_0.json,http://54.235.29.9/FacialAge/BNav_EC2/DepthDuration/v2_depth_duration_MTurk/v2_DepthDuration_HTML.html#8,8,1600,757,1600,900,8-29-2022,9-42-37,39,depth_duration_stimuli/000878_2014-06-08_22-52-45_260595134347_rgbf000045-resize_2/000878_2014-06-08_22-52-45_260595134347_rgbf000045-resize_2-target.png,1000,2.092,3,3686,1005,feet,jsons/v1_VE1000_randls_0.json,686619,902345,50,Man
39,211019,DepthScenes,duration_manipulation_targetAtFixation,jsons/v1_VE1000_randls_0.json,http://54.235.29.9/FacialAge/BNav_EC2/DepthDuration/v2_depth_duration_MTurk/v2_DepthDuration_HTML.html#8,8,1600,757,1600,900,8-29-2022,9-42-37,40,depth_duration_stimuli/002953_2014-06-08_17-32-18_094959634447_rgbf000059-resize_5/002953_2014-06-08_17-32-18_094959634447_rgbf000059-resize_5-target.png,1000,1.551,1,3445,983,feet,jsons/v1_VE1000_randls_0.json,686619,902345,50,Man
40,211019,DepthScenes,duration_manipulation_targetAtFixation,jsons/v1_VE1000_randls_0.json,http://54.235.29.9/FacialAge/BNav_EC2/DepthDuration/v2_depth_duration_MTurk/v2_DepthDuration_HTML.html#8,8,1600,757,1600,900,8-29-2022,9-42-37,41,depth_duration_stimuli/001417_2014-06-19_16-25-36_260595134347_rgbf000115-resize_5/001417_2014-06-19_16-25-36_260595134347_rgbf000115-resize_5-target.png,1000,4.6255,2,3407,997,feet,jsons/v1_VE1000_randls_0.json,686619,902345,50,Man
41,211019,DepthScenes,duration_manipulation_targetAtFixation,jsons/v1_VE1000_randls_0.json,http://54.235.29.9/FacialAge/BNav_EC2/DepthDuration/v2_depth_duration_MTurk/v2_DepthDuration_HTML.html#8,8,1600,757,1600,900,8-29-2022,9-42-37,42,depth_duration_stimuli/003081_2014-06-15_15-19-16_094959634447_rgbf000150-resize_1/003081_2014-06-15_15-19-16_094959634447_rgbf000150-resize_1-target.png,1000,3.9125,4,3595,1002,feet,jsons/v1_VE1000_randls_0.json,686619,902345,50,Man
42,211019,DepthScenes,duration_manipulation_targetAtFixation,jsons/v1_VE1000_randls_0.json,http://54.235.29.9/FacialAge/BNav_EC2/DepthDuration/v2_depth_duration_MTurk/v2_DepthDuration_HTML.html#8,8,1600,757,1600,900,8-29-2022,9-42-37,43,depth_duration_stimuli/001167_2014-06-17_15-38-07_260595134347_rgbf000108-resize_0/001167_2014-06-17_15-38-07_260595134347_rgbf000108-resize_0-target.png,1000,1.8505,2,4280,1007,feet,jsons/v1_VE1000_randls_0.json,686619,902345,50,Man
43,211019,DepthScenes,duration_manipulation_targetAtFixation,jsons/v1_VE1000_randls_0.json,http://54.235.29.9/FacialAge/BNav_EC2/DepthDuration/v2_depth_duration_MTurk/v2_DepthDuration_HTML.html#8,8,1600,757,1600,900,8-29-2022,9-42-37,44,depth_duration_stimuli/003587_2014-05-23_16-48-02_094959634447_rgbf002384-resize_2/003587_2014-05-23_16-48-02_094959634447_rgbf002384-resize_2-target.png,1000,1.357,4,3801,997,feet,jsons/v1_VE1000_randls_0.json,686619,902345,50,Man
44,211019,DepthScenes,duration_manipulation_targetAtFixation,jsons/v1_VE1000_randls_0.json,http://54.235.29.9/FacialAge/BNav_EC2/DepthDuration/v2_depth_duration_MTurk/v2_DepthDuration_HTML.html#8,8,1600,757,1600,900,8-29-2022,9-42-37,45,depth_duration_stimuli/000787_2014-06-08_22-33-53_260595134347_rgbf000175-resize_1/000787_2014-06-08_22-33-53_260595134347_rgbf000175-resize-original.jpg,1000,4.784,0,3598,1006,feet,jsons/v1_VE1000_randls_0.json,686619,902345,50,Man
45,211019,DepthScenes,duration_manipulation_targetAtFixation,jsons/v1_VE1000_randls_0.json,http://54.235.29.9/FacialAge/BNav_EC2/DepthDuration/v2_depth_duration_MTurk/v2_DepthDuration_HTML.html#8,8,1600,757,1600,900,8-29-2022,9-42-37,46,depth_duration_stimuli/002375_2014-06-28_20-13-44_260595134347_rgbf000032-resize_1/002375_2014-06-28_20-13-44_260595134347_rgbf000032-resize_1-target.png,1000,4.0175,1,3527,996,feet,jsons/v1_VE1000_randls_0.json,686619,902345,50,Man
46,211019,DepthScenes,duration_manipulation_targetAtFixation,jsons/v1_VE1000_randls_0.json,http://54.235.29.9/FacialAge/BNav_EC2/DepthDuration/v2_depth_duration_MTurk/v2_DepthDuration_HTML.html#8,8,1600,757,1600,900,8-29-2022,9-42-37,47,depth_duration_stimuli/002657_2014-06-13_15-29-54_094959634447_rgbf000150-resize_1/002657_2014-06-13_15-29-54_094959634447_rgbf000150-resize_1-target.png,1000,4.919,3,3463,999,feet,jsons/v1_VE1000_randls_0.json,686619,902345,50,Man
47,211019,DepthScenes,duration_manipulation_targetAtFixation,jsons/v1_VE1000_randls_0.json,http://54.235.29.9/FacialAge/BNav_EC2/DepthDuration/v2_depth_duration_MTurk/v2_DepthDuration_HTML.html#8,8,1600,757,1600,900,8-29-2022,9-42-37,48,depth_duration_stimuli/000009_2014-05-26_14-32-05_260595134347_rgbf000034-resize_3/000009_2014-05-26_14-32-05_260595134347_rgbf000034-resize_3-target.png,1000,3.8715,5,3361,929,feet,jsons/v1_VE1000_randls_0.json,686619,902345,50,Man
48,211019,DepthScenes,duration_manipulation_targetAtFixation,jsons/v1_VE1000_randls_0.json,http://54.235.29.9/FacialAge/BNav_EC2/DepthDuration/v2_depth_duration_MTurk/v2_DepthDuration_HTML.html#8,8,1600,757,1600,900,8-29-2022,9-42-37,49,depth_duration_stimuli/001828_2014-06-26_21-40-03_260595134347_rgbf000024-resize_0/001828_2014-06-26_21-40-03_260595134347_rgbf000024-resize_0-target.png,1000,4.8260000000000005,5,3492,993,feet,jsons/v1_VE1000_randls_0.json,686619,902345,50,Man
49,211019,DepthScenes,duration_manipulation_targetAtFixation,jsons/v1_VE1000_randls_0.json,http://54.235.29.9/FacialAge/BNav_EC2/DepthDuration/v2_depth_duration_MTurk/v2_DepthDuration_HTML.html#8,8,1600,757,1600,900,8-29-2022,9-42-37,50,depth_duration_stimuli/000368_2014-06-09_15-53-01_260595134347_rgbf000155-resize_2/000368_2014-06-09_15-53-01_260595134347_rgbf000155-resize_2-target.png,1000,2.4859999999999998,2,3425,1005,feet,jsons/v1_VE1000_randls_0.json,686619,902345,50,Man
50,211019,DepthScenes,duration_manipulation_targetAtFixation,jsons/v1_VE1000_randls_0.json,http://54.235.29.9/FacialAge/BNav_EC2/DepthDuration/v2_depth_duration_MTurk/v2_DepthDuration_HTML.html#8,8,1600,757,1600,900,8-29-2022,9-42-37,51,depth_duration_stimuli/002678_2014-06-13_16-15-32_094959634447_rgbf000151-resize_6/002678_2014-06-13_16-15-32_094959634447_rgbf000151-resize_6-target.png,1000,2.1830000000000003,5,4309,999,feet,jsons/v1_VE1000_randls_0.json,686619,902345,50,Man
51,211019,DepthScenes,duration_manipulation_targetAtFixation,jsons/v1_VE1000_randls_0.json,http://54.235.29.9/FacialAge/BNav_EC2/DepthDuration/v2_depth_duration_MTurk/v2_DepthDuration_HTML.html#8,8,1600,757,1600,900,8-29-2022,9-42-37,52,depth_duration_stimuli/002630_2014-06-24_14-47-50_094959634447_rgbf000055-resize_1/002630_2014-06-24_14-47-50_094959634447_rgbf000055-resize_1-target.png,1000,3.0095,5,3455,997,feet,jsons/v1_VE1000_randls_0.json,686619,902345,50,Man
52,211019,DepthScenes,duration_manipulation_targetAtFixation,jsons/v1_VE1000_randls_0.json,http://54.235.29.9/FacialAge/BNav_EC2/DepthDuration/v2_depth_duration_MTurk/v2_DepthDuration_HTML.html#8,8,1600,757,1600,900,8-29-2022,9-42-37,53,depth_duration_stimuli/002758_2014-06-22_19-11-20_094959634447_rgbf000128-resize_1/002758_2014-06-22_19-11-20_094959634447_rgbf000128-resize_1-target.png,1000,2.555,2,3253,996,feet,jsons/v1_VE1000_randls_0.json,686619,902345,50,Man
53,211019,DepthScenes,duration_manipulation_targetAtFixation,jsons/v1_VE1000_randls_0.json,http://54.235.29.9/FacialAge/BNav_EC2/DepthDuration/v2_depth_duration_MTurk/v2_DepthDuration_HTML.html#8,8,1600,757,1600,900,8-29-2022,9-42-37,54,depth_duration_stimuli/002748_2014-06-22_19-07-22_094959634447_rgbf000078-resize_1/002748_2014-06-22_19-07-22_094959634447_rgbf000078-resize_1-target.png,1000,4.6705,8,3582,987,feet,jsons/v1_VE1000_randls_0.json,686619,902345,50,Man
54,211019,DepthScenes,duration_manipulation_targetAtFixation,jsons/v1_VE1000_randls_0.json,http://54.235.29.9/FacialAge/BNav_EC2/DepthDuration/v2_depth_duration_MTurk/v2_DepthDuration_HTML.html#8,8,1600,757,1600,900,8-29-2022,9-42-37,55,depth_duration_stimuli/002995_2014-06-15_12-31-26_094959634447_rgbf000150-resize_1/002995_2014-06-15_12-31-26_094959634447_rgbf000150-resize_1-target.png,1000,3.8360000000000003,6,3317,985,feet,jsons/v1_VE1000_randls_0.json,686619,902345,50,Man
55,211019,DepthScenes,duration_manipulation_targetAtFixation,jsons/v1_VE1000_randls_0.json,http://54.235.29.9/FacialAge/BNav_EC2/DepthDuration/v2_depth_duration_MTurk/v2_DepthDuration_HTML.html#8,8,1600,757,1600,900,8-29-2022,9-42-37,56,depth_duration_stimuli/001808_2014-06-26_20-50-58_260595134347_rgbf000029-resize_1/001808_2014-06-26_20-50-58_260595134347_rgbf000029-resize_1-target.png,1000,4.249,7,3219,952,feet,jsons/v1_VE1000_randls_0.json,686619,902345,50,Man
56,211019,DepthScenes,duration_manipulation_targetAtFixation,jsons/v1_VE1000_randls_0.json,http://54.235.29.9/FacialAge/BNav_EC2/DepthDuration/v2_depth_duration_MTurk/v2_DepthDuration_HTML.html#8,8,1600,757,1600,900,8-29-2022,9-42-37,57,depth_duration_stimuli/001815_2014-06-26_20-52-55_260595134347_rgbf000020-resize_0/001815_2014-06-26_20-52-55_260595134347_rgbf000020-resize_0-target.png,1000,3.3865,7,3397,991,feet,jsons/v1_VE1000_randls_0.json,686619,902345,50,Man
57,211019,DepthScenes,duration_manipulation_targetAtFixation,jsons/v1_VE1000_randls_0.json,http://54.235.29.9/FacialAge/BNav_EC2/DepthDuration/v2_depth_duration_MTurk/v2_DepthDuration_HTML.html#8,8,1600,757,1600,900,8-29-2022,9-42-37,58,depth_duration_stimuli/001164_2014-06-17_15-35-46_260595134347_rgbf000085-resize_3/001164_2014-06-17_15-35-46_260595134347_rgbf000085-resize_3-target.png,1000,2.354,4,3710,1003,feet,jsons/v1_VE1000_randls_0.json,686619,902345,50,Man
58,211019,DepthScenes,duration_manipulation_targetAtFixation,jsons/v1_VE1000_randls_0.json,http://54.235.29.9/FacialAge/BNav_EC2/DepthDuration/v2_depth_duration_MTurk/v2_DepthDuration_HTML.html#8,8,1600,757,1600,900,8-29-2022,9-42-37,59,depth_duration_stimuli/001136_2014-06-17_15-19-41_260595134347_rgbf000076-resize_3/001136_2014-06-17_15-19-41_260595134347_rgbf000076-resize_3-target.png,1000,1.8655,3,3974,988,feet,jsons/v1_VE1000_randls_0.json,686619,902345,50,Man
59,211019,DepthScenes,duration_manipulation_targetAtFixation,jsons/v1_VE1000_randls_0.json,http://54.235.29.9/FacialAge/BNav_EC2/DepthDuration/v2_depth_duration_MTurk/v2_DepthDuration_HTML.html#8,8,1600,757,1600,900,8-29-2022,9-42-37,60,depth_duration_stimuli/000506_2014-06-08_23-21-00_260595134347_rgbf000070-resize_7/000506_2014-06-08_23-21-00_260595134347_rgbf000070-resize_7-target.png,1000,4.0585,6,3705,1002,feet,jsons/v1_VE1000_randls_0.json,686619,902345,50,Man
60,211019,DepthScenes,duration_manipulation_targetAtFixation,jsons/v1_VE1000_randls_0.json,http://54.235.29.9/FacialAge/BNav_EC2/DepthDuration/v2_depth_duration_MTurk/v2_DepthDuration_HTML.html#8,8,1600,757,1600,900,8-29-2022,9-42-37,61,depth_duration_stimuli/003079_2014-06-15_15-18-20_094959634447_rgbf000152-resize_8/003079_2014-06-15_15-18-20_094959634447_rgbf000152-resize_8-target.png,1000,2.8775,8,3319,990,feet,jsons/v1_VE1000_randls_0.json,686619,902345,50,Man
61,211019,DepthScenes,duration_manipulation_targetAtFixation,jsons/v1_VE1000_randls_0.json,http://54.235.29.9/FacialAge/BNav_EC2/DepthDuration/v2_depth_duration_MTurk/v2_DepthDuration_HTML.html#8,8,1600,757,1600,900,8-29-2022,9-42-37,62,depth_duration_stimuli/000739_2014-06-08_18-45-58_260595134347_rgbf000068-resize_1/000739_2014-06-08_18-45-58_260595134347_rgbf000068-resize_1-target.png,1000,3.534,7,3509,1013,feet,jsons/v1_VE1000_randls_0.json,686619,902345,50,Man
62,211019,DepthScenes,duration_manipulation_targetAtFixation,jsons/v1_VE1000_randls_0.json,http://54.235.29.9/FacialAge/BNav_EC2/DepthDuration/v2_depth_duration_MTurk/v2_DepthDuration_HTML.html#8,8,1600,757,1600,900,8-29-2022,9-42-37,63,depth_duration_stimuli/000734_2014-06-08_17-39-11_260595134347_rgbf000128-resize_2/000734_2014-06-08_17-39-11_260595134347_rgbf000128-resize_2-target.png,1000,4.098,5,3345,999,feet,jsons/v1_VE1000_randls_0.json,686619,902345,50,Man
63,211019,DepthScenes,duration_manipulation_targetAtFixation,jsons/v1_VE1000_randls_0.json,http://54.235.29.9/FacialAge/BNav_EC2/DepthDuration/v2_depth_duration_MTurk/v2_DepthDuration_HTML.html#8,8,1600,757,1600,900,8-29-2022,9-42-37,64,depth_duration_stimuli/001555_2014-06-20_17-12-10_260595134347_rgbf000065-resize_4/001555_2014-06-20_17-12-10_260595134347_rgbf000065-resize_4-target.png,1000,1.633,2,4116,989,feet,jsons/v1_VE1000_randls_0.json,686619,902345,50,Man
64,211019,DepthScenes,duration_manipulation_targetAtFixation,jsons/v1_VE1000_randls_0.json,http://54.235.29.9/FacialAge/BNav_EC2/DepthDuration/v2_depth_duration_MTurk/v2_DepthDuration_HTML.html#8,8,1600,757,1600,900,8-29-2022,9-42-37,65,depth_duration_stimuli/000103_2014-05-14_22-01-17_260595134347_rgbf000152-resize_5/000103_2014-05-14_22-01-17_260595134347_rgbf000152-resize_5-target.png,1000,1.993,4,4174,993,feet,jsons/v1_VE1000_randls_0.json,686619,902345,50,Man
65,211019,DepthScenes,duration_manipulation_targetAtFixation,jsons/v1_VE1000_randls_0.json,http://54.235.29.9/FacialAge/BNav_EC2/DepthDuration/v2_depth_duration_MTurk/v2_DepthDuration_HTML.html#8,8,1600,757,1600,900,8-29-2022,9-42-37,66,depth_duration_stimuli/001222_2014-06-17_16-24-06_260595134347_rgbf000073-resize_0/001222_2014-06-17_16-24-06_260595134347_rgbf000073-resize-original.jpg,1000,1.4385,0,3809,996,feet,jsons/v1_VE1000_randls_0.json,686619,902345,50,Man
66,211019,DepthScenes,duration_manipulation_targetAtFixation,jsons/v1_VE1000_randls_0.json,http://54.235.29.9/FacialAge/BNav_EC2/DepthDuration/v2_depth_duration_MTurk/v2_DepthDuration_HTML.html#8,8,1600,757,1600,900,8-29-2022,9-42-37,67,depth_duration_stimuli/000642_2014-06-08_16-59-25_260595134347_rgbf000098-resize_2/000642_2014-06-08_16-59-25_260595134347_rgbf000098-resize_2-target.png,1000,2.8815,2,3200,928,feet,jsons/v1_VE1000_randls_0.json,686619,902345,50,Man
67,211019,DepthScenes,duration_manipulation_targetAtFixation,jsons/v1_VE1000_randls_0.json,http://54.235.29.9/FacialAge/BNav_EC2/DepthDuration/v2_depth_duration_MTurk/v2_DepthDuration_HTML.html#8,8,1600,757,1600,900,8-29-2022,9-42-37,68,depth_duration_stimuli/002425_2014-06-28_20-27-29_260595134347_rgbf000031-resize_8/002425_2014-06-28_20-27-29_260595134347_rgbf000031-resize_8-target.png,1000,3.8960000000000004,7,3542,994,feet,jsons/v1_VE1000_randls_0.json,686619,902345,50,Man
68,211019,DepthScenes,duration_manipulation_targetAtFixation,jsons/v1_VE1000_randls_0.json,http://54.235.29.9/FacialAge/BNav_EC2/DepthDuration/v2_depth_duration_MTurk/v2_DepthDuration_HTML.html#8,8,1600,757,1600,900,8-29-2022,9-42-37,69,depth_duration_stimuli/001570_2014-06-20_17-21-09_260595134347_rgbf000135-resize_4/001570_2014-06-20_17-21-09_260595134347_rgbf000135-resize_4-target.png,1000,4.467,9,3627,990,feet,jsons/v1_VE1000_randls_0.json,686619,902345,50,Man
69,211019,DepthScenes,duration_manipulation_targetAtFixation,jsons/v1_VE1000_randls_0.json,http://54.235.29.9/FacialAge/BNav_EC2/DepthDuration/v2_depth_duration_MTurk/v2_DepthDuration_HTML.html#8,8,1600,757,1600,900,8-29-2022,9-42-37,70,depth_duration_stimuli/001392_2014-06-19_16-07-59_260595134347_rgbf000046-resize_1/001392_2014-06-19_16-07-59_260595134347_rgbf000046-resize_1-target.png,1000,4.135,8,3556,992,feet,jsons/v1_VE1000_randls_0.json,686619,902345,50,Man
70,211019,DepthScenes,duration_manipulation_targetAtFixation,jsons/v1_VE1000_randls_0.json,http://54.235.29.9/FacialAge/BNav_EC2/DepthDuration/v2_depth_duration_MTurk/v2_DepthDuration_HTML.html#8,8,1600,757,1600,900,8-29-2022,9-42-37,71,depth_duration_stimuli/002153_2014-06-25_21-27-18_260595134347_rgbf000038-resize_5/002153_2014-06-25_21-27-18_260595134347_rgbf000038-resize_5-target.png,1000,2.505,2,3592,989,feet,jsons/v1_VE1000_randls_0.json,686619,902345,50,Man
71,211019,DepthScenes,duration_manipulation_targetAtFixation,jsons/v1_VE1000_randls_0.json,http://54.235.29.9/FacialAge/BNav_EC2/DepthDuration/v2_depth_duration_MTurk/v2_DepthDuration_HTML.html#8,8,1600,757,1600,900,8-29-2022,9-42-37,72,depth_duration_stimuli/002660_2014-06-13_15-44-18_094959634447_rgbf001878-resize_2/002660_2014-06-13_15-44-18_094959634447_rgbf001878-resize_2-target.png,1000,3.576,4,5378,1012,feet,jsons/v1_VE1000_randls_0.json,686619,902345,50,Man
72,211019,DepthScenes,duration_manipulation_targetAtFixation,jsons/v1_VE1000_randls_0.json,http://54.235.29.9/FacialAge/BNav_EC2/DepthDuration/v2_depth_duration_MTurk/v2_DepthDuration_HTML.html#8,8,1600,757,1600,900,8-29-2022,9-42-37,73,depth_duration_stimuli/000929_2014-06-09_16-33-19_260595134347_rgbf000139-resize_0/000929_2014-06-09_16-33-19_260595134347_rgbf000139-resize_0-target.png,1000,2.8680000000000003,2,3821,1010,feet,jsons/v1_VE1000_randls_0.json,686619,902345,50,Man
73,211019,DepthScenes,duration_manipulation_targetAtFixation,jsons/v1_VE1000_randls_0.json,http://54.235.29.9/FacialAge/BNav_EC2/DepthDuration/v2_depth_duration_MTurk/v2_DepthDuration_HTML.html#8,8,1600,757,1600,900,8-29-2022,9-42-37,74,depth_duration_stimuli/000457_2014-06-08_16-52-43_260595134347_rgbf000199-resize_1/000457_2014-06-08_16-52-43_260595134347_rgbf000199-resize_1-target.png,1000,3.6489999999999996,4,3456,1093,feet,jsons/v1_VE1000_randls_0.json,686619,902345,50,Man
74,211019,DepthScenes,duration_manipulation_targetAtFixation,jsons/v1_VE1000_randls_0.json,http://54.235.29.9/FacialAge/BNav_EC2/DepthDuration/v2_depth_duration_MTurk/v2_DepthDuration_HTML.html#8,8,1600,757,1600,900,8-29-2022,9-42-37,75,depth_duration_stimuli/000447_2014-06-08_16-15-46_260595134347_rgbf000130-resize_1/000447_2014-06-08_16-15-46_260595134347_rgbf000130-resize_1-target.png,1000,4.479,8,3400,1009,feet,jsons/v1_VE1000_randls_0.json,686619,902345,50,Man
75,211019,DepthScenes,duration_manipulation_targetAtFixation,jsons/v1_VE1000_randls_0.json,http://54.235.29.9/FacialAge/BNav_EC2/DepthDuration/v2_depth_duration_MTurk/v2_DepthDuration_HTML.html#8,8,1600,757,1600,900,8-29-2022,9-42-37,76,depth_duration_stimuli/001447_2014-06-19_17-00-32_260595134347_rgbf000082-resize_5/001447_2014-06-19_17-00-32_260595134347_rgbf000082-resize_5-target.png,1000,4.13775,2,3795,1013,feet,jsons/v1_VE1000_randls_0.json,686619,902345,50,Man
76,211019,DepthScenes,duration_manipulation_targetAtFixation,jsons/v1_VE1000_randls_0.json,http://54.235.29.9/FacialAge/BNav_EC2/DepthDuration/v2_depth_duration_MTurk/v2_DepthDuration_HTML.html#8,8,1600,757,1600,900,8-29-2022,9-42-37,77,depth_duration_stimuli/002445_2014-06-28_20-32-16_260595134347_rgbf000029-resize_4/002445_2014-06-28_20-32-16_260595134347_rgbf000029-resize_4-target.png,1000,2.5315,2,3957,1009,feet,jsons/v1_VE1000_randls_0.json,686619,902345,50,Man
77,211019,DepthScenes,duration_manipulation_targetAtFixation,jsons/v1_VE1000_randls_0.json,http://54.235.29.9/FacialAge/BNav_EC2/DepthDuration/v2_depth_duration_MTurk/v2_DepthDuration_HTML.html#8,8,1600,757,1600,900,8-29-2022,9-42-37,78,depth_duration_stimuli/000780_2014-06-08_22-28-29_260595134347_rgbf000126-resize_1/000780_2014-06-08_22-28-29_260595134347_rgbf000126-resize_1-target.png,1000,3.3825,6,3369,1006,feet,jsons/v1_VE1000_randls_0.json,686619,902345,50,Man
78,211019,DepthScenes,duration_manipulation_targetAtFixation,jsons/v1_VE1000_randls_0.json,http://54.235.29.9/FacialAge/BNav_EC2/DepthDuration/v2_depth_duration_MTurk/v2_DepthDuration_HTML.html#8,8,1600,757,1600,900,8-29-2022,9-42-37,79,depth_duration_stimuli/002549_2014-06-24_13-41-39_094959634447_rgbf000022-resize_3/002549_2014-06-24_13-41-39_094959634447_rgbf000022-resize_3-target.png,1000,1.476,2,3352,969,feet,jsons/v1_VE1000_randls_0.json,686619,902345,50,Man
79,211019,DepthScenes,duration_manipulation_targetAtFixation,jsons/v1_VE1000_randls_0.json,http://54.235.29.9/FacialAge/BNav_EC2/DepthDuration/v2_depth_duration_MTurk/v2_DepthDuration_HTML.html#8,8,1600,757,1600,900,8-29-2022,9-42-37,80,depth_duration_stimuli/002750_2014-06-22_19-08-03_094959634447_rgbf000094-resize_4/002750_2014-06-22_19-08-03_094959634447_rgbf000094-resize_4-target.png,1000,2.354,5,3804,992,feet,jsons/v1_VE1000_randls_0.json,686619,902345,50,Man
80,211019,DepthScenes,duration_manipulation_targetAtFixation,jsons/v1_VE1000_randls_0.json,http://54.235.29.9/FacialAge/BNav_EC2/DepthDuration/v2_depth_duration_MTurk/v2_DepthDuration_HTML.html#8,8,1600,757,1600,900,8-29-2022,9-42-37,81,depth_duration_stimuli/002988_2014-06-15_12-24-20_094959634447_rgbf000150-resize_1/002988_2014-06-15_12-24-20_094959634447_rgbf000150-resize_1-target.png,1000,4.7669999999999995,9,3335,996,feet,jsons/v1_VE1000_randls_0.json,686619,902345,50,Man
81,211019,DepthScenes,duration_manipulation_targetAtFixation,jsons/v1_VE1000_randls_0.json,http://54.235.29.9/FacialAge/BNav_EC2/DepthDuration/v2_depth_duration_MTurk/v2_DepthDuration_HTML.html#8,8,1600,757,1600,900,8-29-2022,9-42-37,82,depth_duration_stimuli/001052_2014-06-08_18-24-54_260595134347_rgbf000130-resize_1/001052_2014-06-08_18-24-54_260595134347_rgbf000130-resize_1-target.png,1000,4.1045,9,3594,1005,feet,jsons/v1_VE1000_randls_0.json,686619,902345,50,Man
82,211019,DepthScenes,duration_manipulation_targetAtFixation,jsons/v1_VE1000_randls_0.json,http://54.235.29.9/FacialAge/BNav_EC2/DepthDuration/v2_depth_duration_MTurk/v2_DepthDuration_HTML.html#8,8,1600,757,1600,900,8-29-2022,9-42-37,83,depth_duration_stimuli/002725_2014-06-22_11-47-51_094959634447_rgbf000070-resize_1/002725_2014-06-22_11-47-51_094959634447_rgbf000070-resize_1-target.png,1000,2.195,5,3456,987,feet,jsons/v1_VE1000_randls_0.json,686619,902345,50,Man
83,211019,DepthScenes,duration_manipulation_targetAtFixation,jsons/v1_VE1000_randls_0.json,http://54.235.29.9/FacialAge/BNav_EC2/DepthDuration/v2_depth_duration_MTurk/v2_DepthDuration_HTML.html#8,8,1600,757,1600,900,8-29-2022,9-42-37,84,depth_duration_stimuli/002344_2014-06-28_20-06-29_260595134347_rgbf000030-resize_1/002344_2014-06-28_20-06-29_260595134347_rgbf000030-resize_1-target.png,1000,1.5795,1,3338,990,feet,jsons/v1_VE1000_randls_0.json,686619,902345,50,Man
84,211019,DepthScenes,duration_manipulation_targetAtFixation,jsons/v1_VE1000_randls_0.json,http://54.235.29.9/FacialAge/BNav_EC2/DepthDuration/v2_depth_duration_MTurk/v2_DepthDuration_HTML.html#8,8,1600,757,1600,900,8-29-2022,9-42-37,85,depth_duration_stimuli/002989_2014-06-15_12-25-03_094959634447_rgbf000150-resize_3/002989_2014-06-15_12-25-03_094959634447_rgbf000150-resize_3-target.png,1000,4.1975,10,3843,1007,feet,jsons/v1_VE1000_randls_0.json,686619,902345,50,Man
85,211019,DepthScenes,duration_manipulation_targetAtFixation,jsons/v1_VE1000_randls_0.json,http://54.235.29.9/FacialAge/BNav_EC2/DepthDuration/v2_depth_duration_MTurk/v2_DepthDuration_HTML.html#8,8,1600,757,1600,900,8-29-2022,9-42-37,86,depth_duration_stimuli/000866_2014-06-09_20-45-42_260595134347_rgbf000139-resize_1/000866_2014-06-09_20-45-42_260595134347_rgbf000139-resize_1-target.png,1000,3.2155,5,3628,1003,feet,jsons/v1_VE1000_randls_0.json,686619,902345,50,Man
86,211019,DepthScenes,duration_manipulation_targetAtFixation,jsons/v1_VE1000_randls_0.json,http://54.235.29.9/FacialAge/BNav_EC2/DepthDuration/v2_depth_duration_MTurk/v2_DepthDuration_HTML.html#8,8,1600,757,1600,900,8-29-2022,9-42-37,87,depth_duration_stimuli/003621_2014-05-23_18-06-08_094959634447_rgbf000101-resize_1/003621_2014-05-23_18-06-08_094959634447_rgbf000101-resize_1-target.png,1000,3.9835,8,3462,997,feet,jsons/v1_VE1000_randls_0.json,686619,902345,50,Man
87,211019,DepthScenes,duration_manipulation_targetAtFixation,jsons/v1_VE1000_randls_0.json,http://54.235.29.9/FacialAge/BNav_EC2/DepthDuration/v2_depth_duration_MTurk/v2_DepthDuration_HTML.html#8,8,1600,757,1600,900,8-29-2022,9-42-37,88,depth_duration_stimuli/001584_2014-06-20_11-07-43_260595134347_rgbf000002-resize_1/001584_2014-06-20_11-07-43_260595134347_rgbf000002-resize_1-target.png,1000,3.53,5,3517,1059,feet,jsons/v1_VE1000_randls_0.json,686619,902345,50,Man
88,211019,DepthScenes,duration_manipulation_targetAtFixation,jsons/v1_VE1000_randls_0.json,http://54.235.29.9/FacialAge/BNav_EC2/DepthDuration/v2_depth_duration_MTurk/v2_DepthDuration_HTML.html#8,8,1600,757,1600,900,8-29-2022,9-42-37,89,depth_duration_stimuli/000906_2014-06-08_13-35-43_260595134347_rgbf000155-resize_1/000906_2014-06-08_13-35-43_260595134347_rgbf000155-resize_1-target.png,1000,2.8489999999999998,7,3594,996,feet,jsons/v1_VE1000_randls_0.json,686619,902345,50,Man
89,211019,DepthScenes,duration_manipulation_targetAtFixation,jsons/v1_VE1000_randls_0.json,http://54.235.29.9/FacialAge/BNav_EC2/DepthDuration/v2_depth_duration_MTurk/v2_DepthDuration_HTML.html#8,8,1600,757,1600,900,8-29-2022,9-42-37,90,depth_duration_stimuli/002805_2014-06-22_19-54-03_094959634447_rgbf000079-resize_1/002805_2014-06-22_19-54-03_094959634447_rgbf000079-resize_1-target.png,1000,3.1439999999999997,8,3318,994,feet,jsons/v1_VE1000_randls_0.json,686619,902345,50,Man
90,211019,DepthScenes,duration_manipulation_targetAtFixation,jsons/v1_VE1000_randls_0.json,http://54.235.29.9/FacialAge/BNav_EC2/DepthDuration/v2_depth_duration_MTurk/v2_DepthDuration_HTML.html#8,8,1600,757,1600,900,8-29-2022,9-42-37,91,depth_duration_stimuli/001810_2014-06-26_20-51-35_260595134347_rgbf000040-resize_3/001810_2014-06-26_20-51-35_260595134347_rgbf000040-resize_3-target.png,1000,2.2525,3,3096,998,feet,jsons/v1_VE1000_randls_0.json,686619,902345,50,Man
91,211019,DepthScenes,duration_manipulation_targetAtFixation,jsons/v1_VE1000_randls_0.json,http://54.235.29.9/FacialAge/BNav_EC2/DepthDuration/v2_depth_duration_MTurk/v2_DepthDuration_HTML.html#8,8,1600,757,1600,900,8-29-2022,9-42-37,92,depth_duration_stimuli/003010_2014-06-15_12-54-35_094959634447_rgbf000112-resize_0/003010_2014-06-15_12-54-35_094959634447_rgbf000112-resize_0-target.png,1000,3.1185,9,3212,998,feet,jsons/v1_VE1000_randls_0.json,686619,902345,50,Man
92,211019,DepthScenes,duration_manipulation_targetAtFixation,jsons/v1_VE1000_randls_0.json,http://54.235.29.9/FacialAge/BNav_EC2/DepthDuration/v2_depth_duration_MTurk/v2_DepthDuration_HTML.html#8,8,1600,757,1600,900,8-29-2022,9-42-37,93,depth_duration_stimuli/000692_2014-06-08_13-09-42_260595134347_rgbf000199-resize_2/000692_2014-06-08_13-09-42_260595134347_rgbf000199-resize_2-target.png,1000,3.661,10,3823,1004,feet,jsons/v1_VE1000_randls_0.json,686619,902345,50,Man
93,211019,DepthScenes,duration_manipulation_targetAtFixation,jsons/v1_VE1000_randls_0.json,http://54.235.29.9/FacialAge/BNav_EC2/DepthDuration/v2_depth_duration_MTurk/v2_DepthDuration_HTML.html#8,8,1600,757,1600,900,8-29-2022,9-42-37,94,depth_duration_stimuli/001094_2014-06-15_17-36-00_260595134347_rgbf000205-resize_0/001094_2014-06-15_17-36-00_260595134347_rgbf000205-resize_0-target.png,1000,4.2175,9,3303,972,feet,jsons/v1_VE1000_randls_0.json,686619,902345,50,Man
94,211019,DepthScenes,duration_manipulation_targetAtFixation,jsons/v1_VE1000_randls_0.json,http://54.235.29.9/FacialAge/BNav_EC2/DepthDuration/v2_depth_duration_MTurk/v2_DepthDuration_HTML.html#8,8,1600,757,1600,900,8-29-2022,9-42-37,95,depth_duration_stimuli/002279_2014-06-28_18-55-32_260595134347_rgbf000040-resize_5/002279_2014-06-28_18-55-32_260595134347_rgbf000040-resize_5-target.png,1000,1.5043333333333,2,3756,988,feet,jsons/v1_VE1000_randls_0.json,686619,902345,50,Man
95,211019,DepthScenes,duration_manipulation_targetAtFixation,jsons/v1_VE1000_randls_0.json,http://54.235.29.9/FacialAge/BNav_EC2/DepthDuration/v2_depth_duration_MTurk/v2_DepthDuration_HTML.html#8,8,1600,757,1600,900,8-29-2022,9-42-37,96,depth_duration_stimuli/000635_2014-06-08_16-38-42_260595134347_rgbf000106-resize_1/000635_2014-06-08_16-38-42_260595134347_rgbf000106-resize_1-target.png,1000,2.074,5,3223,1046,feet,jsons/v1_VE1000_randls_0.json,686619,902345,50,Man
96,211019,DepthScenes,duration_manipulation_targetAtFixation,jsons/v1_VE1000_randls_0.json,http://54.235.29.9/FacialAge/BNav_EC2/DepthDuration/v2_depth_duration_MTurk/v2_DepthDuration_HTML.html#8,8,1600,757,1600,900,8-29-2022,9-42-37,97,depth_duration_stimuli/001059_2014-06-08_21-53-27_260595134347_rgbf000061-resize_4/001059_2014-06-08_21-53-27_260595134347_rgbf000061-resize_4-target.png,1000,2.4185,5,3361,1017,feet,jsons/v1_VE1000_randls_0.json,686619,902345,50,Man
97,211019,DepthScenes,duration_manipulation_targetAtFixation,jsons/v1_VE1000_randls_0.json,http://54.235.29.9/FacialAge/BNav_EC2/DepthDuration/v2_depth_duration_MTurk/v2_DepthDuration_HTML.html#8,8,1600,757,1600,900,8-29-2022,9-42-37,98,depth_duration_stimuli/001032_2014-06-08_13-23-17_260595134347_rgbf000021-resize_3/001032_2014-06-08_13-23-17_260595134347_rgbf000021-resize_3-target.png,1000,3.2725,3,3229,980,feet,jsons/v1_VE1000_randls_0.json,686619,902345,50,Man
98,211019,DepthScenes,duration_manipulation_targetAtFixation,jsons/v1_VE1000_randls_0.json,http://54.235.29.9/FacialAge/BNav_EC2/DepthDuration/v2_depth_duration_MTurk/v2_DepthDuration_HTML.html#8,8,1600,757,1600,900,8-29-2022,9-42-37,99,depth_duration_stimuli/001540_2014-06-20_17-01-05_260595134347_rgbf000086-resize_2/001540_2014-06-20_17-01-05_260595134347_rgbf000086-resize-original.jpg,1000,1.459,0,4112,946,feet,jsons/v1_VE1000_randls_0.json,686619,902345,50,Man
99,211019,DepthScenes,duration_manipulation_targetAtFixation,jsons/v1_VE1000_randls_0.json,http://54.235.29.9/FacialAge/BNav_EC2/DepthDuration/v2_depth_duration_MTurk/v2_DepthDuration_HTML.html#8,8,1600,757,1600,900,8-29-2022,9-42-37,100,depth_duration_stimuli/001244_2014-06-17_16-47-45_260595134347_rgbf000030-resize_4/001244_2014-06-17_16-47-45_260595134347_rgbf000030-resize_4-target.png,1000,2.0425,4,4557,1005,feet,jsons/v1_VE1000_randls_0.json,686619,902345,50,Man
100,211019,DepthScenes,duration_manipulation_targetAtFixation,jsons/v1_VE1000_randls_0.json,http://54.235.29.9/FacialAge/BNav_EC2/DepthDuration/v2_depth_duration_MTurk/v2_DepthDuration_HTML.html#8,8,1600,757,1600,900,8-29-2022,9-42-37,101,depth_duration_stimuli/003495_2014-05-21_16-01-51_094959634447_rgbf000100-resize_3/003495_2014-05-21_16-01-51_094959634447_rgbf000100-resize_3-target.png,1000,1.6255,3,3408,992,feet,jsons/v1_VE1000_randls_0.json,686619,902345,50,Man
101,211019,DepthScenes,duration_manipulation_targetAtFixation,jsons/v1_VE1000_randls_0.json,http://54.235.29.9/FacialAge/BNav_EC2/DepthDuration/v2_depth_duration_MTurk/v2_DepthDuration_HTML.html#8,8,1600,757,1600,900,8-29-2022,9-42-37,102,depth_duration_stimuli/002213_2014-06-28_18-37-58_260595134347_rgbf000055-resize_1/002213_2014-06-28_18-37-58_260595134347_rgbf000055-resize_1-target.png,1000,3.62,10,3942,1000,feet,jsons/v1_VE1000_randls_0.json,686619,902345,50,Man
102,211019,DepthScenes,duration_manipulation_targetAtFixation,jsons/v1_VE1000_randls_0.json,http://54.235.29.9/FacialAge/BNav_EC2/DepthDuration/v2_depth_duration_MTurk/v2_DepthDuration_HTML.html#8,8,1600,757,1600,900,8-29-2022,9-42-37,103,depth_duration_stimuli/000691_2014-06-08_13-08-50_260595134347_rgbf000132-resize_3/000691_2014-06-08_13-08-50_260595134347_rgbf000132-resize_3-target.png,1000,4.1530000000000005,7,3313,990,feet,jsons/v1_VE1000_randls_0.json,686619,902345,50,Man
103,211019,DepthScenes,duration_manipulation_targetAtFixation,jsons/v1_VE1000_randls_0.json,http://54.235.29.9/FacialAge/BNav_EC2/DepthDuration/v2_depth_duration_MTurk/v2_DepthDuration_HTML.html#8,8,1600,757,1600,900,8-29-2022,9-42-37,104,depth_duration_stimuli/002118_2014-06-25_20-32-08_260595134347_rgbf000078-resize_1/002118_2014-06-25_20-32-08_260595134347_rgbf000078-resize_1-target.png,1000,2.6460000000000004,5,4258,1003,feet,jsons/v1_VE1000_randls_0.json,686619,902345,50,Man
104,211019,DepthScenes,duration_manipulation_targetAtFixation,jsons/v1_VE1000_randls_0.json,http://54.235.29.9/FacialAge/BNav_EC2/DepthDuration/v2_depth_duration_MTurk/v2_DepthDuration_HTML.html#8,8,1600,757,1600,900,8-29-2022,9-42-37,105,depth_duration_stimuli/001516_2014-06-20_16-25-09_260595134347_rgbf000076-resize_2/001516_2014-06-20_16-25-09_260595134347_rgbf000076-resize_2-target.png,1000,1.7445,5,3765,995,feet,jsons/v1_VE1000_randls_0.json,686619,902345,50,Man
105,211019,DepthScenes,duration_manipulation_targetAtFixation,jsons/v1_VE1000_randls_0.json,http://54.235.29.9/FacialAge/BNav_EC2/DepthDuration/v2_depth_duration_MTurk/v2_DepthDuration_HTML.html#8,8,1600,757,1600,900,8-29-2022,9-42-37,106,depth_duration_stimuli/000469_2014-06-09_19-42-10_260595134347_rgbf000081-resize_1/000469_2014-06-09_19-42-10_260595134347_rgbf000081-resize_1-target.png,1000,1.652,4,3824,1008,feet,jsons/v1_VE1000_randls_0.json,686619,902345,50,Man
106,211019,DepthScenes,duration_manipulation_targetAtFixation,jsons/v1_VE1000_randls_0.json,http://54.235.29.9/FacialAge/BNav_EC2/DepthDuration/v2_depth_duration_MTurk/v2_DepthDuration_HTML.html#8,8,1600,757,1600,900,8-29-2022,9-42-37,107,depth_duration_stimuli/000483_2014-06-09_20-41-45_260595134347_rgbf000116-resize_4/000483_2014-06-09_20-41-45_260595134347_rgbf000116-resize_4-target.png,1000,1.337,3,3406,999,feet,jsons/v1_VE1000_randls_0.json,686619,902345,50,Man
107,211019,DepthScenes,duration_manipulation_targetAtFixation,jsons/v1_VE1000_randls_0.json,http://54.235.29.9/FacialAge/BNav_EC2/DepthDuration/v2_depth_duration_MTurk/v2_DepthDuration_HTML.html#8,8,1600,757,1600,900,8-29-2022,9-42-37,108,depth_duration_stimuli/002057_2014-06-24_21-00-13_260595134347_rgbf000120-resize_1/002057_2014-06-24_21-00-13_260595134347_rgbf000120-resize_1-target.png,1000,2.967,7,3391,952,feet,jsons/v1_VE1000_randls_0.json,686619,902345,50,Man
108,211019,DepthScenes,duration_manipulation_targetAtFixation,jsons/v1_VE1000_randls_0.json,http://54.235.29.9/FacialAge/BNav_EC2/DepthDuration/v2_depth_duration_MTurk/v2_DepthDuration_HTML.html#8,8,1600,757,1600,900,8-29-2022,9-42-37,109,depth_duration_stimuli/000709_2014-06-08_13-51-55_260595134347_rgbf000068-resize_3/000709_2014-06-08_13-51-55_260595134347_rgbf000068-resize_3-target.png,1000,1.8030000000000002,4,3865,1069,feet,jsons/v1_VE1000_randls_0.json,686619,902345,50,Man
109,211019,DepthScenes,duration_manipulation_targetAtFixation,jsons/v1_VE1000_randls_0.json,http://54.235.29.9/FacialAge/BNav_EC2/DepthDuration/v2_depth_duration_MTurk/v2_DepthDuration_HTML.html#8,8,1600,757,1600,900,8-29-2022,9-42-37,110,depth_duration_stimuli/002600_2014-06-24_14-27-04_094959634447_rgbf000074-resize_2/002600_2014-06-24_14-27-04_094959634447_rgbf000074-resize_2-target.png,1000,2.7575,4,3499,1084,feet,jsons/v1_VE1000_randls_0.json,686619,902345,50,Man
110,211019,DepthScenes,duration_manipulation_targetAtFixation,jsons/v1_VE1000_randls_0.json,http://54.235.29.9/FacialAge/BNav_EC2/DepthDuration/v2_depth_duration_MTurk/v2_DepthDuration_HTML.html#8,8,1600,757,1600,900,8-29-2022,9-42-37,111,depth_duration_stimuli/003228_2014-05-14_13-42-35_094959634447_rgbf000101-resize_1/003228_2014-05-14_13-42-35_094959634447_rgbf000101-resize_1-target.png,1000,1.9680000000000002,3,4011,1072,feet,jsons/v1_VE1000_randls_0.json,686619,902345,50,Man
111,211019,DepthScenes,duration_manipulation_targetAtFixation,jsons/v1_VE1000_randls_0.json,http://54.235.29.9/FacialAge/BNav_EC2/DepthDuration/v2_depth_duration_MTurk/v2_DepthDuration_HTML.html#8,8,1600,757,1600,900,8-29-2022,9-42-37,112,depth_duration_stimuli/000414_2014-06-04_19-49-13_260595134347_rgbf000044-resize_0/000414_2014-06-04_19-49-13_260595134347_rgbf000044-resize_0-target.png,1000,4.329,10,4097,1006,feet,jsons/v1_VE1000_randls_0.json,686619,902345,50,Man
112,211019,DepthScenes,duration_manipulation_targetAtFixation,jsons/v1_VE1000_randls_0.json,http://54.235.29.9/FacialAge/BNav_EC2/DepthDuration/v2_depth_duration_MTurk/v2_DepthDuration_HTML.html#8,8,1600,757,1600,900,8-29-2022,9-42-37,113,depth_duration_stimuli/003129_2014-05-12_10-48-10_094959634447_rgbf000100-resize_0/003129_2014-05-12_10-48-10_094959634447_rgbf000100-resize_0-target.png,1000,4.9305,12,3510,1053,feet,jsons/v1_VE1000_randls_0.json,686619,902345,50,Man
113,211019,DepthScenes,duration_manipulation_targetAtFixation,jsons/v1_VE1000_randls_0.json,http://54.235.29.9/FacialAge/BNav_EC2/DepthDuration/v2_depth_duration_MTurk/v2_DepthDuration_HTML.html#8,8,1600,757,1600,900,8-29-2022,9-42-37,114,depth_duration_stimuli/002043_2014-06-24_20-29-38_260595134347_rgbf000039-resize_4/002043_2014-06-24_20-29-38_260595134347_rgbf000039-resize_4-target.png,1000,2.8435,9,3519,990,feet,jsons/v1_VE1000_randls_0.json,686619,902345,50,Man
114,211019,DepthScenes,duration_manipulation_targetAtFixation,jsons/v1_VE1000_randls_0.json,http://54.235.29.9/FacialAge/BNav_EC2/DepthDuration/v2_depth_duration_MTurk/v2_DepthDuration_HTML.html#8,8,1600,757,1600,900,8-29-2022,9-42-37,115,depth_duration_stimuli/003048_2014-06-15_13-49-43_094959634447_rgbf000150-resize_1/003048_2014-06-15_13-49-43_094959634447_rgbf000150-resize_1-target.png,1000,4.0035,10,3825,1010,feet,jsons/v1_VE1000_randls_0.json,686619,902345,50,Man
115,211019,DepthScenes,duration_manipulation_targetAtFixation,jsons/v1_VE1000_randls_0.json,http://54.235.29.9/FacialAge/BNav_EC2/DepthDuration/v2_depth_duration_MTurk/v2_DepthDuration_HTML.html#8,8,1600,757,1600,900,8-29-2022,9-42-37,116,depth_duration_stimuli/001170_2014-06-17_15-43-44_260595134347_rgbf000096-resize_6/001170_2014-06-17_15-43-44_260595134347_rgbf000096-resize-original.jpg,1000,1.1909999999999998,0,3652,954,feet,jsons/v1_VE1000_randls_0.json,686619,902345,50,Man
116,211019,DepthScenes,duration_manipulation_targetAtFixation,jsons/v1_VE1000_randls_0.json,http://54.235.29.9/FacialAge/BNav_EC2/DepthDuration/v2_depth_duration_MTurk/v2_DepthDuration_HTML.html#8,8,1600,757,1600,900,8-29-2022,9-42-37,117,depth_duration_stimuli/002905_2014-06-03_18-04-43_094959634447_rgbf000151-resize_2/002905_2014-06-03_18-04-43_094959634447_rgbf000151-resize_2-target.png,1000,2.0295,4,3814,998,feet,jsons/v1_VE1000_randls_0.json,686619,902345,50,Man
117,211019,DepthScenes,duration_manipulation_targetAtFixation,jsons/v1_VE1000_randls_0.json,http://54.235.29.9/FacialAge/BNav_EC2/DepthDuration/v2_depth_duration_MTurk/v2_DepthDuration_HTML.html#8,8,1600,757,1600,900,8-29-2022,9-42-37,118,depth_duration_stimuli/003423_2014-05-21_10-23-26_094959634447_rgbf002665-resize_2/003423_2014-05-21_10-23-26_094959634447_rgbf002665-resize_2-target.png,1000,3.2575,8,4159,1012,feet,jsons/v1_VE1000_randls_0.json,686619,902345,50,Man
118,211019,DepthScenes,duration_manipulation_targetAtFixation,jsons/v1_VE1000_randls_0.json,http://54.235.29.9/FacialAge/BNav_EC2/DepthDuration/v2_depth_duration_MTurk/v2_DepthDuration_HTML.html#8,8,1600,757,1600,900,8-29-2022,9-42-37,119,depth_duration_stimuli/003292_2014-05-14_21-53-49_094959634447_rgbf000100-resize_2/003292_2014-05-14_21-53-49_094959634447_rgbf000100-resize_2-target.png,1000,3.4815,6,3644,1059,feet,jsons/v1_VE1000_randls_0.json,686619,902345,50,Man
119,211019,DepthScenes,duration_manipulation_targetAtFixation,jsons/v1_VE1000_randls_0.json,http://54.235.29.9/FacialAge/BNav_EC2/DepthDuration/v2_depth_duration_MTurk/v2_DepthDuration_HTML.html#8,8,1600,757,1600,900,8-29-2022,9-42-37,120,depth_duration_stimuli/002639_2014-06-24_14-51-37_094959634447_rgbf000074-resize_4/002639_2014-06-24_14-51-37_094959634447_rgbf000074-resize_4-target.png,1000,4.0375,9,3248,991,feet,jsons/v1_VE1000_randls_0.json,686619,902345,50,Man
120,211019,DepthScenes,duration_manipulation_targetAtFixation,jsons/v1_VE1000_randls_0.json,http://54.235.29.9/FacialAge/BNav_EC2/DepthDuration/v2_depth_duration_MTurk/v2_DepthDuration_HTML.html#8,8,1600,757,1600,900,8-29-2022,9-42-37,121,depth_duration_stimuli/000788_2014-06-08_22-34-36_260595134347_rgbf000131-resize_1/000788_2014-06-08_22-34-36_260595134347_rgbf000131-resize_1-target.png,1000,3.359,8,3360,1058,feet,jsons/v1_VE1000_randls_0.json,686619,902345,50,Man
121,211019,DepthScenes,duration_manipulation_targetAtFixation,jsons/v1_VE1000_randls_0.json,http://54.235.29.9/FacialAge/BNav_EC2/DepthDuration/v2_depth_duration_MTurk/v2_DepthDuration_HTML.html#8,8,1600,757,1600,900,8-29-2022,9-42-37,122,depth_duration_stimuli/001235_2014-06-17_16-37-36_260595134347_rgbf000084-resize_4/001235_2014-06-17_16-37-36_260595134347_rgbf000084-resize_4-target.png,1000,3.6605,10,4492,1065,feet,jsons/v1_VE1000_randls_0.json,686619,902345,50,Man
122,211019,DepthScenes,duration_manipulation_targetAtFixation,jsons/v1_VE1000_randls_0.json,http://54.235.29.9/FacialAge/BNav_EC2/DepthDuration/v2_depth_duration_MTurk/v2_DepthDuration_HTML.html#8,8,1600,757,1600,900,8-29-2022,9-42-37,123,depth_duration_stimuli/002784_2014-06-22_19-26-30_094959634447_rgbf000083-resize_3/002784_2014-06-22_19-26-30_094959634447_rgbf000083-resize_3-target.png,1000,1.8046666666667,4,3516,991,feet,jsons/v1_VE1000_randls_0.json,686619,902345,50,Man
123,211019,DepthScenes,duration_manipulation_targetAtFixation,jsons/v1_VE1000_randls_0.json,http://54.235.29.9/FacialAge/BNav_EC2/DepthDuration/v2_depth_duration_MTurk/v2_DepthDuration_HTML.html#8,8,1600,757,1600,900,8-29-2022,9-42-37,124,depth_duration_stimuli/001100_2014-06-15_17-46-26_260595134347_rgbf000225-resize_2/001100_2014-06-15_17-46-26_260595134347_rgbf000225-resize_2-target.png,1000,2.24,3,3282,1005,feet,jsons/v1_VE1000_randls_0.json,686619,902345,50,Man
124,211019,DepthScenes,duration_manipulation_targetAtFixation,jsons/v1_VE1000_randls_0.json,http://54.235.29.9/FacialAge/BNav_EC2/DepthDuration/v2_depth_duration_MTurk/v2_DepthDuration_HTML.html#8,8,1600,757,1600,900,8-29-2022,9-42-37,125,depth_duration_stimuli/001016_2014-06-09_16-16-10_260595134347_rgbf000112-resize_5/001016_2014-06-09_16-16-10_260595134347_rgbf000112-resize_5-target.png,1000,1.6565,6,3287,995,feet,jsons/v1_VE1000_randls_0.json,686619,902345,50,Man
125,211019,DepthScenes,duration_manipulation_targetAtFixation,jsons/v1_VE1000_randls_0.json,http://54.235.29.9/FacialAge/BNav_EC2/DepthDuration/v2_depth_duration_MTurk/v2_DepthDuration_HTML.html#8,8,1600,757,1600,900,8-29-2022,9-42-37,126,depth_duration_stimuli/002340_2014-06-28_20-05-46_260595134347_rgbf000113-resize_0/002340_2014-06-28_20-05-46_260595134347_rgbf000113-resize_0-target.png,1000,2.4735,11,3487,949,feet,jsons/v1_VE1000_randls_0.json,686619,902345,50,Man
126,211019,DepthScenes,duration_manipulation_targetAtFixation,jsons/v1_VE1000_randls_0.json,http://54.235.29.9/FacialAge/BNav_EC2/DepthDuration/v2_depth_duration_MTurk/v2_DepthDuration_HTML.html#8,8,1600,757,1600,900,8-29-2022,9-42-37,127,depth_duration_stimuli/000522_2014-06-08_13-35-06_260595134347_rgbf000244-resize_1/000522_2014-06-08_13-35-06_260595134347_rgbf000244-resize_1-target.png,1000,2.3715,2,3202,1033,feet,jsons/v1_VE1000_randls_0.json,686619,902345,50,Man
127,211019,DepthScenes,duration_manipulation_targetAtFixation,jsons/v1_VE1000_randls_0.json,http://54.235.29.9/FacialAge/BNav_EC2/DepthDuration/v2_depth_duration_MTurk/v2_DepthDuration_HTML.html#8,8,1600,757,1600,900,8-29-2022,9-42-37,128,depth_duration_stimuli/002949_2014-06-26_15-57-42_094959634447_rgbf000079-resize_1/002949_2014-06-26_15-57-42_094959634447_rgbf000079-resize_1-target.png,1000,1.8915,4,3871,996,feet,jsons/v1_VE1000_randls_0.json,686619,902345,50,Man
128,211019,DepthScenes,duration_manipulation_targetAtFixation,jsons/v1_VE1000_randls_0.json,http://54.235.29.9/FacialAge/BNav_EC2/DepthDuration/v2_depth_duration_MTurk/v2_DepthDuration_HTML.html#8,8,1600,757,1600,900,8-29-2022,9-42-37,129,depth_duration_stimuli/001175_2014-06-17_15-45-55_260595134347_rgbf000129-resize_4/001175_2014-06-17_15-45-55_260595134347_rgbf000129-resize_4-target.png,1000,4.255,13,3416,996,feet,jsons/v1_VE1000_randls_0.json,686619,902345,50,Man
129,211019,DepthScenes,duration_manipulation_targetAtFixation,jsons/v1_VE1000_randls_0.json,http://54.235.29.9/FacialAge/BNav_EC2/DepthDuration/v2_depth_duration_MTurk/v2_DepthDuration_HTML.html#8,8,1600,757,1600,900,8-29-2022,9-42-37,130,depth_duration_stimuli/003490_2014-05-21_15-50-11_094959634447_rgbf000101-resize_3/003490_2014-05-21_15-50-11_094959634447_rgbf000101-resize_3-target.png,1000,3.6445,8,4132,1019,feet,jsons/v1_VE1000_randls_0.json,686619,902345,50,Man
130,211019,DepthScenes,duration_manipulation_targetAtFixation,jsons/v1_VE1000_randls_0.json,http://54.235.29.9/FacialAge/BNav_EC2/DepthDuration/v2_depth_duration_MTurk/v2_DepthDuration_HTML.html#8,8,1600,757,1600,900,8-29-2022,9-42-37,131,depth_duration_stimuli/001199_2014-06-17_16-03-48_260595134347_rgbf000077-resize_0/001199_2014-06-17_16-03-48_260595134347_rgbf000077-resize_0-target.png,1000,3.4375,13,3607,960,feet,jsons/v1_VE1000_randls_0.json,686619,902345,50,Man
131,211019,DepthScenes,duration_manipulation_targetAtFixation,jsons/v1_VE1000_randls_0.json,http://54.235.29.9/FacialAge/BNav_EC2/DepthDuration/v2_depth_duration_MTurk/v2_DepthDuration_HTML.html#8,8,1600,757,1600,900,8-29-2022,9-42-37,132,depth_duration_stimuli/000502_2014-06-08_23-02-32_260595134347_rgbf000063-resize_4/000502_2014-06-08_23-02-32_260595134347_rgbf000063-resize_4-target.png,1000,2.431,4,3587,1008,feet,jsons/v1_VE1000_randls_0.json,686619,902345,50,Man
132,211019,DepthScenes,duration_manipulation_targetAtFixation,jsons/v1_VE1000_randls_0.json,http://54.235.29.9/FacialAge/BNav_EC2/DepthDuration/v2_depth_duration_MTurk/v2_DepthDuration_HTML.html#8,8,1600,757,1600,900,8-29-2022,9-42-37,133,depth_duration_stimuli/001055_2014-06-08_18-45-35_260595134347_rgbf000111-resize_4/001055_2014-06-08_18-45-35_260595134347_rgbf000111-resize_4-target.png,1000,2.4290000000000003,8,3986,987,feet,jsons/v1_VE1000_randls_0.json,686619,902345,50,Man
133,211019,DepthScenes,duration_manipulation_targetAtFixation,jsons/v1_VE1000_randls_0.json,http://54.235.29.9/FacialAge/BNav_EC2/DepthDuration/v2_depth_duration_MTurk/v2_DepthDuration_HTML.html#8,8,1600,757,1600,900,8-29-2022,9-42-37,134,depth_duration_stimuli/000549_2014-06-08_22-10-24_260595134347_rgbf000247-resize_3/000549_2014-06-08_22-10-24_260595134347_rgbf000247-resize_3-target.png,1000,1.841,3,3701,1006,feet,jsons/v1_VE1000_randls_0.json,686619,902345,50,Man
134,211019,DepthScenes,duration_manipulation_targetAtFixation,jsons/v1_VE1000_randls_0.json,http://54.235.29.9/FacialAge/BNav_EC2/DepthDuration/v2_depth_duration_MTurk/v2_DepthDuration_HTML.html#8,8,1600,757,1600,900,8-29-2022,9-42-37,135,depth_duration_stimuli/002072_2014-06-24_21-48-06_260595134347_rgbf000115-resize_0/002072_2014-06-24_21-48-06_260595134347_rgbf000115-resize-original.jpg,1000,4.702,0,3272,931,feet,jsons/v1_VE1000_randls_0.json,686619,902345,50,Man
135,211019,DepthScenes,duration_manipulation_targetAtFixation,jsons/v1_VE1000_randls_0.json,http://54.235.29.9/FacialAge/BNav_EC2/DepthDuration/v2_depth_duration_MTurk/v2_DepthDuration_HTML.html#8,8,1600,757,1600,900,8-29-2022,9-42-37,136,depth_duration_stimuli/001011_2014-06-08_23-18-54_260595134347_rgbf000044-resize_4/001011_2014-06-08_23-18-54_260595134347_rgbf000044-resize_4-target.png,1000,2.4730000000000003,7,3399,1000,feet,jsons/v1_VE1000_randls_0.json,686619,902345,50,Man
136,211019,DepthScenes,duration_manipulation_targetAtFixation,jsons/v1_VE1000_randls_0.json,http://54.235.29.9/FacialAge/BNav_EC2/DepthDuration/v2_depth_duration_MTurk/v2_DepthDuration_HTML.html#8,8,1600,757,1600,900,8-29-2022,9-42-37,137,depth_duration_stimuli/002875_2014-06-01_15-19-00_094959634447_rgbf000151-resize_1/002875_2014-06-01_15-19-00_094959634447_rgbf000151-resize_1-target.png,1000,1.9675,6,3388,1000,feet,jsons/v1_VE1000_randls_0.json,686619,902345,50,Man
137,211019,DepthScenes,duration_manipulation_targetAtFixation,jsons/v1_VE1000_randls_0.json,http://54.235.29.9/FacialAge/BNav_EC2/DepthDuration/v2_depth_duration_MTurk/v2_DepthDuration_HTML.html#8,8,1600,757,1600,900,8-29-2022,9-42-37,138,depth_duration_stimuli/001150_2014-06-17_15-27-34_260595134347_rgbf000108-resize_2/001150_2014-06-17_15-27-34_260595134347_rgbf000108-resize_2-target.png,1000,4.0325,8,3593,1002,feet,jsons/v1_VE1000_randls_0.json,686619,902345,50,Man
138,211019,DepthScenes,duration_manipulation_targetAtFixation,jsons/v1_VE1000_randls_0.json,http://54.235.29.9/FacialAge/BNav_EC2/DepthDuration/v2_depth_duration_MTurk/v2_DepthDuration_HTML.html#8,8,1600,757,1600,900,8-29-2022,9-42-37,139,depth_duration_stimuli/000665_2014-06-09_20-42-35_260595134347_rgbf000110-resize_1/000665_2014-06-09_20-42-35_260595134347_rgbf000110-resize_1-target.png,1000,3.057,7,3538,1000,feet,jsons/v1_VE1000_randls_0.json,686619,902345,50,Man
139,211019,DepthScenes,duration_manipulation_targetAtFixation,jsons/v1_VE1000_randls_0.json,http://54.235.29.9/FacialAge/BNav_EC2/DepthDuration/v2_depth_duration_MTurk/v2_DepthDuration_HTML.html#8,8,1600,757,1600,900,8-29-2022,9-42-37,140,depth_duration_stimuli/001110_2014-06-15_17-25-28_260595134347_rgbf000150-resize_1/001110_2014-06-15_17-25-28_260595134347_rgbf000150-resize_1-target.png,1000,1.7115,5,3327,1003,feet,jsons/v1_VE1000_randls_0.json,686619,902345,50,Man
140,211019,DepthScenes,duration_manipulation_targetAtFixation,jsons/v1_VE1000_randls_0.json,http://54.235.29.9/FacialAge/BNav_EC2/DepthDuration/v2_depth_duration_MTurk/v2_DepthDuration_HTML.html#8,8,1600,757,1600,900,8-29-2022,9-42-37,141,depth_duration_stimuli/000927_2014-06-09_16-32-30_260595134347_rgbf000123-resize_3/000927_2014-06-09_16-32-30_260595134347_rgbf000123-resize_3-target.png,1000,2.6785,7,3536,977,feet,jsons/v1_VE1000_randls_0.json,686619,902345,50,Man
141,211019,DepthScenes,duration_manipulation_targetAtFixation,jsons/v1_VE1000_randls_0.json,http://54.235.29.9/FacialAge/BNav_EC2/DepthDuration/v2_depth_duration_MTurk/v2_DepthDuration_HTML.html#8,8,1600,757,1600,900,8-29-2022,9-42-37,142,depth_duration_stimuli/000773_2014-06-08_22-24-54_260595134347_rgbf000093-resize_1/000773_2014-06-08_22-24-54_260595134347_rgbf000093-resize_1-target.png,1000,4.973,9,3440,990,feet,jsons/v1_VE1000_randls_0.json,686619,902345,50,Man
142,211019,DepthScenes,duration_manipulation_targetAtFixation,jsons/v1_VE1000_randls_0.json,http://54.235.29.9/FacialAge/BNav_EC2/DepthDuration/v2_depth_duration_MTurk/v2_DepthDuration_HTML.html#8,8,1600,757,1600,900,8-29-2022,9-42-37,143,depth_duration_stimuli/002414_2014-06-28_20-24-58_260595134347_rgbf000067-resize_4/002414_2014-06-28_20-24-58_260595134347_rgbf000067-resize_4-target.png,1000,4.363,11,3512,992,feet,jsons/v1_VE1000_randls_0.json,686619,902345,50,Man
143,211019,DepthScenes,duration_manipulation_targetAtFixation,jsons/v1_VE1000_randls_0.json,http://54.235.29.9/FacialAge/BNav_EC2/DepthDuration/v2_depth_duration_MTurk/v2_DepthDuration_HTML.html#8,8,1600,757,1600,900,8-29-2022,9-42-37,144,depth_duration_stimuli/000470_2014-06-09_19-42-40_260595134347_rgbf000094-resize_1/000470_2014-06-09_19-42-40_260595134347_rgbf000094-resize_1-target.png,1000,1.831,5,3405,979,feet,jsons/v1_VE1000_randls_0.json,686619,902345,50,Man
144,211019,DepthScenes,duration_manipulation_targetAtFixation,jsons/v1_VE1000_randls_0.json,http://54.235.29.9/FacialAge/BNav_EC2/DepthDuration/v2_depth_duration_MTurk/v2_DepthDuration_HTML.html#8,8,1600,757,1600,900,8-29-2022,9-42-37,145,depth_duration_stimuli/000109_2014-05-14_23-41-52_260595134347_rgbf000035-resize_9/000109_2014-05-14_23-41-52_260595134347_rgbf000035-resize_9-target.png,1000,1.3545,2,3352,998,feet,jsons/v1_VE1000_randls_0.json,686619,902345,50,Man
145,211019,DepthScenes,duration_manipulation_targetAtFixation,jsons/v1_VE1000_randls_0.json,http://54.235.29.9/FacialAge/BNav_EC2/DepthDuration/v2_depth_duration_MTurk/v2_DepthDuration_HTML.html#8,8,1600,757,1600,900,8-29-2022,9-42-37,146,depth_duration_stimuli/001498_2014-06-19_17-45-14_260595134347_rgbf000129-resize_4/001498_2014-06-19_17-45-14_260595134347_rgbf000129-resize-original.jpg,1000,1.4075,0,4517,991,feet,jsons/v1_VE1000_randls_0.json,686619,902345,50,Man
146,211019,DepthScenes,duration_manipulation_targetAtFixation,jsons/v1_VE1000_randls_0.json,http://54.235.29.9/FacialAge/BNav_EC2/DepthDuration/v2_depth_duration_MTurk/v2_DepthDuration_HTML.html#8,8,1600,757,1600,900,8-29-2022,9-42-37,147,depth_duration_stimuli/000436_2014-06-09_22-25-11_260595134347_rgbf000137-resize_1/000436_2014-06-09_22-25-11_260595134347_rgbf000137-resize_1-target.png,1000,4.0705,12,3594,997,feet,jsons/v1_VE1000_randls_0.json,686619,902345,50,Man
147,211019,DepthScenes,duration_manipulation_targetAtFixation,jsons/v1_VE1000_randls_0.json,http://54.235.29.9/FacialAge/BNav_EC2/DepthDuration/v2_depth_duration_MTurk/v2_DepthDuration_HTML.html#8,8,1600,757,1600,900,8-29-2022,9-42-37,148,depth_duration_stimuli/002444_2014-06-28_20-32-08_260595134347_rgbf000027-resize_0/002444_2014-06-28_20-32-08_260595134347_rgbf000027-resize_0-target.png,1000,4.388999999999999,10,3930,1010,feet,jsons/v1_VE1000_randls_0.json,686619,902345,50,Man
148,211019,DepthScenes,duration_manipulation_targetAtFixation,jsons/v1_VE1000_randls_0.json,http://54.235.29.9/FacialAge/BNav_EC2/DepthDuration/v2_depth_duration_MTurk/v2_DepthDuration_HTML.html#8,8,1600,757,1600,900,8-29-2022,9-42-37,149,depth_duration_stimuli/000493_2014-06-09_21-01-18_260595134347_rgbf000196-resize_3/000493_2014-06-09_21-01-18_260595134347_rgbf000196-resize_3-target.png,1000,3.44,9,5281,990,feet,jsons/v1_VE1000_randls_0.json,686619,902345,50,Man
149,211019,DepthScenes,duration_manipulation_targetAtFixation,jsons/v1_VE1000_randls_0.json,http://54.235.29.9/FacialAge/BNav_EC2/DepthDuration/v2_depth_duration_MTurk/v2_DepthDuration_HTML.html#8,8,1600,757,1600,900,8-29-2022,9-42-37,150,depth_duration_stimuli/000191_2014-05-12_17-07-38_260595134347_rgbf000199-resize_0/000191_2014-05-12_17-07-38_260595134347_rgbf000199-resize_0-target.png,1000,3.7995,14,3566,1037,feet,jsons/v1_VE1000_randls_0.json,686619,902345,50,Man
150,211019,DepthScenes,duration_manipulation_targetAtFixation,jsons/v1_VE1000_randls_0.json,http://54.235.29.9/FacialAge/BNav_EC2/DepthDuration/v2_depth_duration_MTurk/v2_DepthDuration_HTML.html#8,8,1600,757,1600,900,8-29-2022,9-42-37,151,depth_duration_stimuli/001092_2014-06-15_17-34-58_260595134347_rgbf000171-resize_3/001092_2014-06-15_17-34-58_260595134347_rgbf000171-resize_3-target.png,1000,2.6935,7,4233,1007,feet,jsons/v1_VE1000_randls_0.json,686619,902345,50,Man
151,211019,DepthScenes,duration_manipulation_targetAtFixation,jsons/v1_VE1000_randls_0.json,http://54.235.29.9/FacialAge/BNav_EC2/DepthDuration/v2_depth_duration_MTurk/v2_DepthDuration_HTML.html#8,8,1600,757,1600,900,8-29-2022,9-42-37,152,depth_duration_stimuli/002545_2014-06-24_13-38-53_094959634447_rgbf000080-resize_4/002545_2014-06-24_13-38-53_094959634447_rgbf000080-resize_4-target.png,1000,1.9205,6,3411,998,feet,jsons/v1_VE1000_randls_0.json,686619,902345,50,Man
152,211019,DepthScenes,duration_manipulation_targetAtFixation,jsons/v1_VE1000_randls_0.json,http://54.235.29.9/FacialAge/BNav_EC2/DepthDuration/v2_depth_duration_MTurk/v2_DepthDuration_HTML.html#8,8,1600,757,1600,900,8-29-2022,9-42-37,153,depth_duration_stimuli/001158_2014-06-17_15-32-16_260595134347_rgbf000138-resize_2/001158_2014-06-17_15-32-16_260595134347_rgbf000138-resize_2-target.png,1000,4.5315,12,3298,990,feet,jsons/v1_VE1000_randls_0.json,686619,902345,50,Man
153,211019,DepthScenes,duration_manipulation_targetAtFixation,jsons/v1_VE1000_randls_0.json,http://54.235.29.9/FacialAge/BNav_EC2/DepthDuration/v2_depth_duration_MTurk/v2_DepthDuration_HTML.html#8,8,1600,757,1600,900,8-29-2022,9-42-37,154,depth_duration_stimuli/000556_2014-06-09_22-42-56_260595134347_rgbf000214-resize_1/000556_2014-06-09_22-42-56_260595134347_rgbf000214-resize_1-target.png,1000,4.8415,8,3286,998,feet,jsons/v1_VE1000_randls_0.json,686619,902345,50,Man
154,211019,DepthScenes,duration_manipulation_targetAtFixation,jsons/v1_VE1000_randls_0.json,http://54.235.29.9/FacialAge/BNav_EC2/DepthDuration/v2_depth_duration_MTurk/v2_DepthDuration_HTML.html#8,8,1600,757,1600,900,8-29-2022,9-42-37,155,depth_duration_stimuli/003534_2014-05-22_15-06-10_094959634447_rgbf000102-resize_4/003534_2014-05-22_15-06-10_094959634447_rgbf000102-resize_4-target.png,1000,1.426,2,3350,1000,feet,jsons/v1_VE1000_randls_0.json,686619,902345,50,Man
155,211019,DepthScenes,duration_manipulation_targetAtFixation,jsons/v1_VE1000_randls_0.json,http://54.235.29.9/FacialAge/BNav_EC2/DepthDuration/v2_depth_duration_MTurk/v2_DepthDuration_HTML.html#8,8,1600,757,1600,900,8-29-2022,9-42-37,156,depth_duration_stimuli/002637_2014-06-24_14-51-13_094959634447_rgbf000066-resize_4/002637_2014-06-24_14-51-13_094959634447_rgbf000066-resize_4-target.png,1000,1.9955,6,3955,991,feet,jsons/v1_VE1000_randls_0.json,686619,902345,50,Man
156,211019,DepthScenes,duration_manipulation_targetAtFixation,jsons/v1_VE1000_randls_0.json,http://54.235.29.9/FacialAge/BNav_EC2/DepthDuration/v2_depth_duration_MTurk/v2_DepthDuration_HTML.html#8,8,1600,757,1600,900,8-29-2022,9-42-37,157,depth_duration_stimuli/003492_2014-05-21_15-50-55_094959634447_rgbf000828-resize_1/003492_2014-05-21_15-50-55_094959634447_rgbf000828-resize_1-target.png,1000,4.06875,8,3455,1002,feet,jsons/v1_VE1000_randls_0.json,686619,902345,50,Man
157,211019,DepthScenes,duration_manipulation_targetAtFixation,jsons/v1_VE1000_randls_0.json,http://54.235.29.9/FacialAge/BNav_EC2/DepthDuration/v2_depth_duration_MTurk/v2_DepthDuration_HTML.html#8,8,1600,757,1600,900,8-29-2022,9-42-37,158,depth_duration_stimuli/002568_2014-06-24_13-59-21_094959634447_rgbf000062-resize_4/002568_2014-06-24_13-59-21_094959634447_rgbf000062-resize_4-target.png,1000,3.015,9,3406,1003,feet,jsons/v1_VE1000_randls_0.json,686619,902345,50,Man
158,211019,DepthScenes,duration_manipulation_targetAtFixation,jsons/v1_VE1000_randls_0.json,http://54.235.29.9/FacialAge/BNav_EC2/DepthDuration/v2_depth_duration_MTurk/v2_DepthDuration_HTML.html#8,8,1600,757,1600,900,8-29-2022,9-42-37,159,depth_duration_stimuli/001066_2014-06-08_22-03-20_260595134347_rgbf000066-resize_4/001066_2014-06-08_22-03-20_260595134347_rgbf000066-resize_4-target.png,1000,4.2330000000000005,12,3323,917,feet,jsons/v1_VE1000_randls_0.json,686619,902345,50,Man
159,211019,DepthScenes,duration_manipulation_targetAtFixation,jsons/v1_VE1000_randls_0.json,http://54.235.29.9/FacialAge/BNav_EC2/DepthDuration/v2_depth_duration_MTurk/v2_DepthDuration_HTML.html#8,8,1600,757,1600,900,8-29-2022,9-42-37,160,depth_duration_stimuli/000742_2014-06-08_18-48-09_260595134347_rgbf000164-resize_4/000742_2014-06-08_18-48-09_260595134347_rgbf000164-resize_4-target.png,1000,4.632,12,3510,1002,feet,jsons/v1_VE1000_randls_0.json,686619,902345,50,Man
160,211019,DepthScenes,duration_manipulation_targetAtFixation,jsons/v1_VE1000_randls_0.json,http://54.235.29.9/FacialAge/BNav_EC2/DepthDuration/v2_depth_duration_MTurk/v2_DepthDuration_HTML.html#8,8,1600,757,1600,900,8-29-2022,9-42-37,161,depth_duration_stimuli/002039_2014-06-24_20-22-38_260595134347_rgbf000084-resize_1/002039_2014-06-24_20-22-38_260595134347_rgbf000084-resize_1-target.png,1000,4.408,11,3394,994,feet,jsons/v1_VE1000_randls_0.json,686619,902345,50,Man
161,211019,DepthScenes,duration_manipulation_targetAtFixation,jsons/v1_VE1000_randls_0.json,http://54.235.29.9/FacialAge/BNav_EC2/DepthDuration/v2_depth_duration_MTurk/v2_DepthDuration_HTML.html#8,8,1600,757,1600,900,8-29-2022,9-42-37,162,depth_duration_stimuli/002103_2014-06-25_20-00-40_260595134347_rgbf000049-resize_0/002103_2014-06-25_20-00-40_260595134347_rgbf000049-resize_0-target.png,1000,4.105,10,3789,987,feet,jsons/v1_VE1000_randls_0.json,686619,902345,50,Man
162,211019,DepthScenes,duration_manipulation_targetAtFixation,jsons/v1_VE1000_randls_0.json,http://54.235.29.9/FacialAge/BNav_EC2/DepthDuration/v2_depth_duration_MTurk/v2_DepthDuration_HTML.html#8,8,1600,757,1600,900,8-29-2022,9-42-37,163,depth_duration_stimuli/000758_2014-06-08_22-05-08_260595134347_rgbf000085-resize_0/000758_2014-06-08_22-05-08_260595134347_rgbf000085-resize_0-target.png,1000,3.3810000000000002,10,3742,994,feet,jsons/v1_VE1000_randls_0.json,686619,902345,50,Man
163,211019,DepthScenes,duration_manipulation_targetAtFixation,jsons/v1_VE1000_randls_0.json,http://54.235.29.9/FacialAge/BNav_EC2/DepthDuration/v2_depth_duration_MTurk/v2_DepthDuration_HTML.html#8,8,1600,757,1600,900,8-29-2022,9-42-37,164,depth_duration_stimuli/000854_2014-06-09_19-43-13_260595134347_rgbf000066-resize_0/000854_2014-06-09_19-43-13_260595134347_rgbf000066-resize_0-target.png,1000,3.068,6,3775,989,feet,jsons/v1_VE1000_randls_0.json,686619,902345,50,Man
