,subjID,experimentName,versionName,sequenceName,url,selected_row,windowWidth,windowHeight,screenWidth,screenHeight,startDate,startTime,trial,stimulus,duration,actual_depth,depth_estimate,trial_RT,log_sceneDuration,unitSelection,seq_filepath,experimentTime,totalTime,age,gender
0,212298,DepthScenes,duration_manipulation_targetAtFixation,jsons/VE125_randls_70_rotated.json,http://54.235.29.9/FacialAge/BNav_EC2/DepthDuration/v2_depth_duration_MTurk/v2_DepthDuration_HTML.html#40,40,1920,1080,1920,1080,8-21-2022,8-39-26,1,depth_duration_stimuli/002953_2014-06-08_17-32-18_094959634447_rgbf000059-resize_5/002953_2014-06-08_17-32-18_094959634447_rgbf000059-resize_5-target.png,125,1.551,0,3058,123,feet,jsons/VE125_randls_70_rotated.json,550904,789321,33,Man
1,212298,DepthScenes,duration_manipulation_targetAtFixation,jsons/VE125_randls_70_rotated.json,http://54.235.29.9/FacialAge/BNav_EC2/DepthDuration/v2_depth_duration_MTurk/v2_DepthDuration_HTML.html#40,40,1920,1080,1920,1080,8-21-2022,8-39-26,2,depth_duration_stimuli/000878_2014-06-08_22-52-45_260595134347_rgbf000045-resize_2/000878_2014-06-08_22-52-45_260595134347_rgbf000045-resize_2-target.png,125,2.092,0,2892,124,feet,jsons/VE125_randls_70_rotated.json,550904,789321,33,Man
2,212298,DepthScenes,duration_manipulation_targetAtFixation,jsons/VE125_randls_70_rotated.json,http://54.235.29.9/FacialAge/BNav_EC2/DepthDuration/v2_depth_duration_MTurk/v2_DepthDuration_HTML.html#40,40,1920,1080,1920,1080,8-21-2022,8-39-26,3,depth_duration_stimuli/001100_2014-06-15_17-46-26_260595134347_rgbf000225-resize_2/001100_2014-06-15_17-46-26_260595134347_rgbf000225-resize_2-target.png,125,2.24,0,2374,125,feet,jsons/VE125_randls_70_rotated.json,550904,789321,33,Man
3,212298,DepthScenes,duration_manipulation_targetAtFixation,jsons/VE125_randls_70_rotated.json,http://54.235.29.9/FacialAge/BNav_EC2/DepthDuration/v2_depth_duration_MTurk/v2_DepthDuration_HTML.html#40,40,1920,1080,1920,1080,8-21-2022,8-39-26,4,depth_duration_stimuli/002784_2014-06-22_19-26-30_094959634447_rgbf000083-resize_3/002784_2014-06-22_19-26-30_094959634447_rgbf000083-resize_3-target.png,125,1.8046666666667,0,2148,124,feet,jsons/VE125_randls_70_rotated.json,550904,789321,33,Man
4,212298,DepthScenes,duration_manipulation_targetAtFixation,jsons/VE125_randls_70_rotated.json,http://54.235.29.9/FacialAge/BNav_EC2/DepthDuration/v2_depth_duration_MTurk/v2_DepthDuration_HTML.html#40,40,1920,1080,1920,1080,8-21-2022,8-39-26,5,depth_duration_stimuli/002444_2014-06-28_20-32-08_260595134347_rgbf000027-resize_0/002444_2014-06-28_20-32-08_260595134347_rgbf000027-resize_0-target.png,125,4.388999999999999,8,3813,133,feet,jsons/VE125_randls_70_rotated.json,550904,789321,33,Man
5,212298,DepthScenes,duration_manipulation_targetAtFixation,jsons/VE125_randls_70_rotated.json,http://54.235.29.9/FacialAge/BNav_EC2/DepthDuration/v2_depth_duration_MTurk/v2_DepthDuration_HTML.html#40,40,1920,1080,1920,1080,8-21-2022,8-39-26,6,depth_duration_stimuli/000436_2014-06-09_22-25-11_260595134347_rgbf000137-resize_1/000436_2014-06-09_22-25-11_260595134347_rgbf000137-resize_1-target.png,125,4.0705,8,3549,123,feet,jsons/VE125_randls_70_rotated.json,550904,789321,33,Man
6,212298,DepthScenes,duration_manipulation_targetAtFixation,jsons/VE125_randls_70_rotated.json,http://54.235.29.9/FacialAge/BNav_EC2/DepthDuration/v2_depth_duration_MTurk/v2_DepthDuration_HTML.html#40,40,1920,1080,1920,1080,8-21-2022,8-39-26,7,depth_duration_stimuli/001094_2014-06-15_17-36-00_260595134347_rgbf000205-resize_0/001094_2014-06-15_17-36-00_260595134347_rgbf000205-resize_0-target.png,125,4.2175,0,2665,132,feet,jsons/VE125_randls_70_rotated.json,550904,789321,33,Man
7,212298,DepthScenes,duration_manipulation_targetAtFixation,jsons/VE125_randls_70_rotated.json,http://54.235.29.9/FacialAge/BNav_EC2/DepthDuration/v2_depth_duration_MTurk/v2_DepthDuration_HTML.html#40,40,1920,1080,1920,1080,8-21-2022,8-39-26,8,depth_duration_stimuli/000692_2014-06-08_13-09-42_260595134347_rgbf000199-resize_2/000692_2014-06-08_13-09-42_260595134347_rgbf000199-resize_2-target.png,125,3.661,0,2364,121,feet,jsons/VE125_randls_70_rotated.json,550904,789321,33,Man
8,212298,DepthScenes,duration_manipulation_targetAtFixation,jsons/VE125_randls_70_rotated.json,http://54.235.29.9/FacialAge/BNav_EC2/DepthDuration/v2_depth_duration_MTurk/v2_DepthDuration_HTML.html#40,40,1920,1080,1920,1080,8-21-2022,8-39-26,9,depth_duration_stimuli/000103_2014-05-14_22-01-17_260595134347_rgbf000152-resize_5/000103_2014-05-14_22-01-17_260595134347_rgbf000152-resize_5-target.png,125,1.993,0,3109,123,feet,jsons/VE125_randls_70_rotated.json,550904,789321,33,Man
9,212298,DepthScenes,duration_manipulation_targetAtFixation,jsons/VE125_randls_70_rotated.json,http://54.235.29.9/FacialAge/BNav_EC2/DepthDuration/v2_depth_duration_MTurk/v2_DepthDuration_HTML.html#40,40,1920,1080,1920,1080,8-21-2022,8-39-26,10,depth_duration_stimuli/001555_2014-06-20_17-12-10_260595134347_rgbf000065-resize_4/001555_2014-06-20_17-12-10_260595134347_rgbf000065-resize_4-target.png,125,1.633,0,2592,102,feet,jsons/VE125_randls_70_rotated.json,550904,789321,33,Man
10,212298,DepthScenes,duration_manipulation_targetAtFixation,jsons/VE125_randls_70_rotated.json,http://54.235.29.9/FacialAge/BNav_EC2/DepthDuration/v2_depth_duration_MTurk/v2_DepthDuration_HTML.html#40,40,1920,1080,1920,1080,8-21-2022,8-39-26,11,depth_duration_stimuli/000943_2014-06-09_19-31-07_260595134347_rgbf000128-resize_1/000943_2014-06-09_19-31-07_260595134347_rgbf000128-resize_1-target.png,125,1.9765,5,3777,135,feet,jsons/VE125_randls_70_rotated.json,550904,789321,33,Man
11,212298,DepthScenes,duration_manipulation_targetAtFixation,jsons/VE125_randls_70_rotated.json,http://54.235.29.9/FacialAge/BNav_EC2/DepthDuration/v2_depth_duration_MTurk/v2_DepthDuration_HTML.html#40,40,1920,1080,1920,1080,8-21-2022,8-39-26,12,depth_duration_stimuli/003070_2014-06-15_14-58-27_094959634447_rgbf000150-resize_3/003070_2014-06-15_14-58-27_094959634447_rgbf000150-resize_3-target.png,125,2.9415,10,3750,123,feet,jsons/VE125_randls_70_rotated.json,550904,789321,33,Man
12,212298,DepthScenes,duration_manipulation_targetAtFixation,jsons/VE125_randls_70_rotated.json,http://54.235.29.9/FacialAge/BNav_EC2/DepthDuration/v2_depth_duration_MTurk/v2_DepthDuration_HTML.html#40,40,1920,1080,1920,1080,8-21-2022,8-39-26,13,depth_duration_stimuli/000137_2014-05-20_17-04-49_260595134347_rgbf000120-resize_1/000137_2014-05-20_17-04-49_260595134347_rgbf000120-resize_1-target.png,125,3.786,0,2701,125,feet,jsons/VE125_randls_70_rotated.json,550904,789321,33,Man
13,212298,DepthScenes,duration_manipulation_targetAtFixation,jsons/VE125_randls_70_rotated.json,http://54.235.29.9/FacialAge/BNav_EC2/DepthDuration/v2_depth_duration_MTurk/v2_DepthDuration_HTML.html#40,40,1920,1080,1920,1080,8-21-2022,8-39-26,14,depth_duration_stimuli/000736_2014-06-08_18-24-15_260595134347_rgbf000206-resize_3/000736_2014-06-08_18-24-15_260595134347_rgbf000206-resize_3-target.png,125,3.515,0,2286,123,feet,jsons/VE125_randls_70_rotated.json,550904,789321,33,Man
14,212298,DepthScenes,duration_manipulation_targetAtFixation,jsons/VE125_randls_70_rotated.json,http://54.235.29.9/FacialAge/BNav_EC2/DepthDuration/v2_depth_duration_MTurk/v2_DepthDuration_HTML.html#40,40,1920,1080,1920,1080,8-21-2022,8-39-26,15,depth_duration_stimuli/001214_2014-06-17_16-13-55_260595134347_rgbf000111-resize_0/001214_2014-06-17_16-13-55_260595134347_rgbf000111-resize_0-target.png,125,2.6505,5,5319,125,feet,jsons/VE125_randls_70_rotated.json,550904,789321,33,Man
15,212298,DepthScenes,duration_manipulation_targetAtFixation,jsons/VE125_randls_70_rotated.json,http://54.235.29.9/FacialAge/BNav_EC2/DepthDuration/v2_depth_duration_MTurk/v2_DepthDuration_HTML.html#40,40,1920,1080,1920,1080,8-21-2022,8-39-26,16,depth_duration_stimuli/000810_2014-06-08_17-20-01_260595134347_rgbf000105-resize_0/000810_2014-06-08_17-20-01_260595134347_rgbf000105-resize_0-target.png,125,1.4865,6,4437,125,feet,jsons/VE125_randls_70_rotated.json,550904,789321,33,Man
16,212298,DepthScenes,duration_manipulation_targetAtFixation,jsons/VE125_randls_70_rotated.json,http://54.235.29.9/FacialAge/BNav_EC2/DepthDuration/v2_depth_duration_MTurk/v2_DepthDuration_HTML.html#40,40,1920,1080,1920,1080,8-21-2022,8-39-26,17,depth_duration_stimuli/000854_2014-06-09_19-43-13_260595134347_rgbf000066-resize_0/000854_2014-06-09_19-43-13_260595134347_rgbf000066-resize_0-target.png,125,3.068,0,3015,118,feet,jsons/VE125_randls_70_rotated.json,550904,789321,33,Man
17,212298,DepthScenes,duration_manipulation_targetAtFixation,jsons/VE125_randls_70_rotated.json,http://54.235.29.9/FacialAge/BNav_EC2/DepthDuration/v2_depth_duration_MTurk/v2_DepthDuration_HTML.html#40,40,1920,1080,1920,1080,8-21-2022,8-39-26,18,depth_duration_stimuli/000758_2014-06-08_22-05-08_260595134347_rgbf000085-resize_0/000758_2014-06-08_22-05-08_260595134347_rgbf000085-resize_0-target.png,125,3.3810000000000002,0,5476,145,feet,jsons/VE125_randls_70_rotated.json,550904,789321,33,Man
18,212298,DepthScenes,duration_manipulation_targetAtFixation,jsons/VE125_randls_70_rotated.json,http://54.235.29.9/FacialAge/BNav_EC2/DepthDuration/v2_depth_duration_MTurk/v2_DepthDuration_HTML.html#40,40,1920,1080,1920,1080,8-21-2022,8-39-26,19,depth_duration_stimuli/001498_2014-06-19_17-45-14_260595134347_rgbf000129-resize_4/001498_2014-06-19_17-45-14_260595134347_rgbf000129-resize-original.jpg,125,1.4075,0,2350,139,feet,jsons/VE125_randls_70_rotated.json,550904,789321,33,Man
19,212298,DepthScenes,duration_manipulation_targetAtFixation,jsons/VE125_randls_70_rotated.json,http://54.235.29.9/FacialAge/BNav_EC2/DepthDuration/v2_depth_duration_MTurk/v2_DepthDuration_HTML.html#40,40,1920,1080,1920,1080,8-21-2022,8-39-26,20,depth_duration_stimuli/003587_2014-05-23_16-48-02_094959634447_rgbf002384-resize_2/003587_2014-05-23_16-48-02_094959634447_rgbf002384-resize_2-target.png,125,1.357,0,2255,126,feet,jsons/VE125_randls_70_rotated.json,550904,789321,33,Man
20,212298,DepthScenes,duration_manipulation_targetAtFixation,jsons/VE125_randls_70_rotated.json,http://54.235.29.9/FacialAge/BNav_EC2/DepthDuration/v2_depth_duration_MTurk/v2_DepthDuration_HTML.html#40,40,1920,1080,1920,1080,8-21-2022,8-39-26,21,depth_duration_stimuli/001167_2014-06-17_15-38-07_260595134347_rgbf000108-resize_0/001167_2014-06-17_15-38-07_260595134347_rgbf000108-resize_0-target.png,125,1.8505,0,2319,125,feet,jsons/VE125_randls_70_rotated.json,550904,789321,33,Man
21,212298,DepthScenes,duration_manipulation_targetAtFixation,jsons/VE125_randls_70_rotated.json,http://54.235.29.9/FacialAge/BNav_EC2/DepthDuration/v2_depth_duration_MTurk/v2_DepthDuration_HTML.html#40,40,1920,1080,1920,1080,8-21-2022,8-39-26,22,depth_duration_stimuli/000549_2014-06-08_22-10-24_260595134347_rgbf000247-resize_3/000549_2014-06-08_22-10-24_260595134347_rgbf000247-resize_3-target.png,125,1.841,8,3577,125,feet,jsons/VE125_randls_70_rotated.json,550904,789321,33,Man
22,212298,DepthScenes,duration_manipulation_targetAtFixation,jsons/VE125_randls_70_rotated.json,http://54.235.29.9/FacialAge/BNav_EC2/DepthDuration/v2_depth_duration_MTurk/v2_DepthDuration_HTML.html#40,40,1920,1080,1920,1080,8-21-2022,8-39-26,23,depth_duration_stimuli/001055_2014-06-08_18-45-35_260595134347_rgbf000111-resize_4/001055_2014-06-08_18-45-35_260595134347_rgbf000111-resize_4-target.png,125,2.4290000000000003,12,4202,116,feet,jsons/VE125_randls_70_rotated.json,550904,789321,33,Man
23,212298,DepthScenes,duration_manipulation_targetAtFixation,jsons/VE125_randls_70_rotated.json,http://54.235.29.9/FacialAge/BNav_EC2/DepthDuration/v2_depth_duration_MTurk/v2_DepthDuration_HTML.html#40,40,1920,1080,1920,1080,8-21-2022,8-39-26,24,depth_duration_stimuli/002660_2014-06-13_15-44-18_094959634447_rgbf001878-resize_2/002660_2014-06-13_15-44-18_094959634447_rgbf001878-resize_2-target.png,125,3.576,0,2106,110,feet,jsons/VE125_randls_70_rotated.json,550904,789321,33,Man
24,212298,DepthScenes,duration_manipulation_targetAtFixation,jsons/VE125_randls_70_rotated.json,http://54.235.29.9/FacialAge/BNav_EC2/DepthDuration/v2_depth_duration_MTurk/v2_DepthDuration_HTML.html#40,40,1920,1080,1920,1080,8-21-2022,8-39-26,25,depth_duration_stimuli/002153_2014-06-25_21-27-18_260595134347_rgbf000038-resize_5/002153_2014-06-25_21-27-18_260595134347_rgbf000038-resize_5-target.png,125,2.505,0,2198,124,feet,jsons/VE125_randls_70_rotated.json,550904,789321,33,Man
25,212298,DepthScenes,duration_manipulation_targetAtFixation,jsons/VE125_randls_70_rotated.json,http://54.235.29.9/FacialAge/BNav_EC2/DepthDuration/v2_depth_duration_MTurk/v2_DepthDuration_HTML.html#40,40,1920,1080,1920,1080,8-21-2022,8-39-26,26,depth_duration_stimuli/002467_2014-06-28_20-38-07_260595134347_rgbf000026-resize_2/002467_2014-06-28_20-38-07_260595134347_rgbf000026-resize_2-target.png,125,4.742,0,2043,136,feet,jsons/VE125_randls_70_rotated.json,550904,789321,33,Man
26,212298,DepthScenes,duration_manipulation_targetAtFixation,jsons/VE125_randls_70_rotated.json,http://54.235.29.9/FacialAge/BNav_EC2/DepthDuration/v2_depth_duration_MTurk/v2_DepthDuration_HTML.html#40,40,1920,1080,1920,1080,8-21-2022,8-39-26,27,depth_duration_stimuli/002570_2014-06-24_13-59-54_094959634447_rgbf000059-resize_0/002570_2014-06-24_13-59-54_094959634447_rgbf000059-resize_0-target.png,125,4.037,0,2080,94,feet,jsons/VE125_randls_70_rotated.json,550904,789321,33,Man
27,212298,DepthScenes,duration_manipulation_targetAtFixation,jsons/VE125_randls_70_rotated.json,http://54.235.29.9/FacialAge/BNav_EC2/DepthDuration/v2_depth_duration_MTurk/v2_DepthDuration_HTML.html#40,40,1920,1080,1920,1080,8-21-2022,8-39-26,28,depth_duration_stimuli/000780_2014-06-08_22-28-29_260595134347_rgbf000126-resize_1/000780_2014-06-08_22-28-29_260595134347_rgbf000126-resize_1-target.png,125,3.3825,0,2153,122,feet,jsons/VE125_randls_70_rotated.json,550904,789321,33,Man
28,212298,DepthScenes,duration_manipulation_targetAtFixation,jsons/VE125_randls_70_rotated.json,http://54.235.29.9/FacialAge/BNav_EC2/DepthDuration/v2_depth_duration_MTurk/v2_DepthDuration_HTML.html#40,40,1920,1080,1920,1080,8-21-2022,8-39-26,29,depth_duration_stimuli/002445_2014-06-28_20-32-16_260595134347_rgbf000029-resize_4/002445_2014-06-28_20-32-16_260595134347_rgbf000029-resize_4-target.png,125,2.5315,0,2170,125,feet,jsons/VE125_randls_70_rotated.json,550904,789321,33,Man
29,212298,DepthScenes,duration_manipulation_targetAtFixation,jsons/VE125_randls_70_rotated.json,http://54.235.29.9/FacialAge/BNav_EC2/DepthDuration/v2_depth_duration_MTurk/v2_DepthDuration_HTML.html#40,40,1920,1080,1920,1080,8-21-2022,8-39-26,30,depth_duration_stimuli/002072_2014-06-24_21-48-06_260595134347_rgbf000115-resize_0/002072_2014-06-24_21-48-06_260595134347_rgbf000115-resize-original.jpg,125,4.702,0,2031,127,feet,jsons/VE125_randls_70_rotated.json,550904,789321,33,Man
30,212298,DepthScenes,duration_manipulation_targetAtFixation,jsons/VE125_randls_70_rotated.json,http://54.235.29.9/FacialAge/BNav_EC2/DepthDuration/v2_depth_duration_MTurk/v2_DepthDuration_HTML.html#40,40,1920,1080,1920,1080,8-21-2022,8-39-26,31,depth_duration_stimuli/002639_2014-06-24_14-51-37_094959634447_rgbf000074-resize_4/002639_2014-06-24_14-51-37_094959634447_rgbf000074-resize_4-target.png,125,4.0375,0,2057,123,feet,jsons/VE125_randls_70_rotated.json,550904,789321,33,Man
31,212298,DepthScenes,duration_manipulation_targetAtFixation,jsons/VE125_randls_70_rotated.json,http://54.235.29.9/FacialAge/BNav_EC2/DepthDuration/v2_depth_duration_MTurk/v2_DepthDuration_HTML.html#40,40,1920,1080,1920,1080,8-21-2022,8-39-26,32,depth_duration_stimuli/003292_2014-05-14_21-53-49_094959634447_rgbf000100-resize_2/003292_2014-05-14_21-53-49_094959634447_rgbf000100-resize_2-target.png,125,3.4815,0,1988,119,feet,jsons/VE125_randls_70_rotated.json,550904,789321,33,Man
32,212298,DepthScenes,duration_manipulation_targetAtFixation,jsons/VE125_randls_70_rotated.json,http://54.235.29.9/FacialAge/BNav_EC2/DepthDuration/v2_depth_duration_MTurk/v2_DepthDuration_HTML.html#40,40,1920,1080,1920,1080,8-21-2022,8-39-26,33,depth_duration_stimuli/001032_2014-06-08_13-23-17_260595134347_rgbf000021-resize_3/001032_2014-06-08_13-23-17_260595134347_rgbf000021-resize_3-target.png,125,3.2725,6,3829,136,feet,jsons/VE125_randls_70_rotated.json,550904,789321,33,Man
33,212298,DepthScenes,duration_manipulation_targetAtFixation,jsons/VE125_randls_70_rotated.json,http://54.235.29.9/FacialAge/BNav_EC2/DepthDuration/v2_depth_duration_MTurk/v2_DepthDuration_HTML.html#40,40,1920,1080,1920,1080,8-21-2022,8-39-26,34,depth_duration_stimuli/001059_2014-06-08_21-53-27_260595134347_rgbf000061-resize_4/001059_2014-06-08_21-53-27_260595134347_rgbf000061-resize_4-target.png,125,2.4185,8,3546,111,feet,jsons/VE125_randls_70_rotated.json,550904,789321,33,Man
34,212298,DepthScenes,duration_manipulation_targetAtFixation,jsons/VE125_randls_70_rotated.json,http://54.235.29.9/FacialAge/BNav_EC2/DepthDuration/v2_depth_duration_MTurk/v2_DepthDuration_HTML.html#40,40,1920,1080,1920,1080,8-21-2022,8-39-26,35,depth_duration_stimuli/000109_2014-05-14_23-41-52_260595134347_rgbf000035-resize_9/000109_2014-05-14_23-41-52_260595134347_rgbf000035-resize_9-target.png,125,1.3545,0,2389,136,feet,jsons/VE125_randls_70_rotated.json,550904,789321,33,Man
35,212298,DepthScenes,duration_manipulation_targetAtFixation,jsons/VE125_randls_70_rotated.json,http://54.235.29.9/FacialAge/BNav_EC2/DepthDuration/v2_depth_duration_MTurk/v2_DepthDuration_HTML.html#40,40,1920,1080,1920,1080,8-21-2022,8-39-26,36,depth_duration_stimuli/000470_2014-06-09_19-42-40_260595134347_rgbf000094-resize_1/000470_2014-06-09_19-42-40_260595134347_rgbf000094-resize_1-target.png,125,1.831,0,2252,135,feet,jsons/VE125_randls_70_rotated.json,550904,789321,33,Man
36,212298,DepthScenes,duration_manipulation_targetAtFixation,jsons/VE125_randls_70_rotated.json,http://54.235.29.9/FacialAge/BNav_EC2/DepthDuration/v2_depth_duration_MTurk/v2_DepthDuration_HTML.html#40,40,1920,1080,1920,1080,8-21-2022,8-39-26,37,depth_duration_stimuli/002425_2014-06-28_20-27-29_260595134347_rgbf000031-resize_8/002425_2014-06-28_20-27-29_260595134347_rgbf000031-resize_8-target.png,125,3.8960000000000004,0,2976,138,feet,jsons/VE125_randls_70_rotated.json,550904,789321,33,Man
37,212298,DepthScenes,duration_manipulation_targetAtFixation,jsons/VE125_randls_70_rotated.json,http://54.235.29.9/FacialAge/BNav_EC2/DepthDuration/v2_depth_duration_MTurk/v2_DepthDuration_HTML.html#40,40,1920,1080,1920,1080,8-21-2022,8-39-26,38,depth_duration_stimuli/000642_2014-06-08_16-59-25_260595134347_rgbf000098-resize_2/000642_2014-06-08_16-59-25_260595134347_rgbf000098-resize_2-target.png,125,2.8815,0,2078,106,feet,jsons/VE125_randls_70_rotated.json,550904,789321,33,Man
38,212298,DepthScenes,duration_manipulation_targetAtFixation,jsons/VE125_randls_70_rotated.json,http://54.235.29.9/FacialAge/BNav_EC2/DepthDuration/v2_depth_duration_MTurk/v2_DepthDuration_HTML.html#40,40,1920,1080,1920,1080,8-21-2022,8-39-26,39,depth_duration_stimuli/002136_2014-06-25_21-18-03_260595134347_rgbf000109-resize_3/002136_2014-06-25_21-18-03_260595134347_rgbf000109-resize_3-target.png,125,1.9569999999999999,0,2583,131,feet,jsons/VE125_randls_70_rotated.json,550904,789321,33,Man
39,212298,DepthScenes,duration_manipulation_targetAtFixation,jsons/VE125_randls_70_rotated.json,http://54.235.29.9/FacialAge/BNav_EC2/DepthDuration/v2_depth_duration_MTurk/v2_DepthDuration_HTML.html#40,40,1920,1080,1920,1080,8-21-2022,8-39-26,40,depth_duration_stimuli/002964_2014-06-08_17-46-11_094959634447_rgbf000091-resize_4/002964_2014-06-08_17-46-11_094959634447_rgbf000091-resize_4-target.png,125,1.6909999999999998,0,1914,120,feet,jsons/VE125_randls_70_rotated.json,550904,789321,33,Man
40,212298,DepthScenes,duration_manipulation_targetAtFixation,jsons/VE125_randls_70_rotated.json,http://54.235.29.9/FacialAge/BNav_EC2/DepthDuration/v2_depth_duration_MTurk/v2_DepthDuration_HTML.html#40,40,1920,1080,1920,1080,8-21-2022,8-39-26,41,depth_duration_stimuli/002103_2014-06-25_20-00-40_260595134347_rgbf000049-resize_0/002103_2014-06-25_20-00-40_260595134347_rgbf000049-resize_0-target.png,125,4.105,0,2227,126,feet,jsons/VE125_randls_70_rotated.json,550904,789321,33,Man
41,212298,DepthScenes,duration_manipulation_targetAtFixation,jsons/VE125_randls_70_rotated.json,http://54.235.29.9/FacialAge/BNav_EC2/DepthDuration/v2_depth_duration_MTurk/v2_DepthDuration_HTML.html#40,40,1920,1080,1920,1080,8-21-2022,8-39-26,42,depth_duration_stimuli/002039_2014-06-24_20-22-38_260595134347_rgbf000084-resize_1/002039_2014-06-24_20-22-38_260595134347_rgbf000084-resize_1-target.png,125,4.408,0,1945,123,feet,jsons/VE125_randls_70_rotated.json,550904,789321,33,Man
42,212298,DepthScenes,duration_manipulation_targetAtFixation,jsons/VE125_randls_70_rotated.json,http://54.235.29.9/FacialAge/BNav_EC2/DepthDuration/v2_depth_duration_MTurk/v2_DepthDuration_HTML.html#40,40,1920,1080,1920,1080,8-21-2022,8-39-26,43,depth_duration_stimuli/000709_2014-06-08_13-51-55_260595134347_rgbf000068-resize_3/000709_2014-06-08_13-51-55_260595134347_rgbf000068-resize_3-target.png,125,1.8030000000000002,4,4461,125,feet,jsons/VE125_randls_70_rotated.json,550904,789321,33,Man
43,212298,DepthScenes,duration_manipulation_targetAtFixation,jsons/VE125_randls_70_rotated.json,http://54.235.29.9/FacialAge/BNav_EC2/DepthDuration/v2_depth_duration_MTurk/v2_DepthDuration_HTML.html#40,40,1920,1080,1920,1080,8-21-2022,8-39-26,44,depth_duration_stimuli/002057_2014-06-24_21-00-13_260595134347_rgbf000120-resize_1/002057_2014-06-24_21-00-13_260595134347_rgbf000120-resize_1-target.png,125,2.967,12,4197,128,feet,jsons/VE125_randls_70_rotated.json,550904,789321,33,Man
44,212298,DepthScenes,duration_manipulation_targetAtFixation,jsons/VE125_randls_70_rotated.json,http://54.235.29.9/FacialAge/BNav_EC2/DepthDuration/v2_depth_duration_MTurk/v2_DepthDuration_HTML.html#40,40,1920,1080,1920,1080,8-21-2022,8-39-26,45,depth_duration_stimuli/001516_2014-06-20_16-25-09_260595134347_rgbf000076-resize_2/001516_2014-06-20_16-25-09_260595134347_rgbf000076-resize_2-target.png,125,1.7445,0,2415,126,feet,jsons/VE125_randls_70_rotated.json,550904,789321,33,Man
45,212298,DepthScenes,duration_manipulation_targetAtFixation,jsons/VE125_randls_70_rotated.json,http://54.235.29.9/FacialAge/BNav_EC2/DepthDuration/v2_depth_duration_MTurk/v2_DepthDuration_HTML.html#40,40,1920,1080,1920,1080,8-21-2022,8-39-26,46,depth_duration_stimuli/002118_2014-06-25_20-32-08_260595134347_rgbf000078-resize_1/002118_2014-06-25_20-32-08_260595134347_rgbf000078-resize_1-target.png,125,2.6460000000000004,0,1952,159,feet,jsons/VE125_randls_70_rotated.json,550904,789321,33,Man
46,212298,DepthScenes,duration_manipulation_targetAtFixation,jsons/VE125_randls_70_rotated.json,http://54.235.29.9/FacialAge/BNav_EC2/DepthDuration/v2_depth_duration_MTurk/v2_DepthDuration_HTML.html#40,40,1920,1080,1920,1080,8-21-2022,8-39-26,47,depth_duration_stimuli/002199_2014-06-28_18-33-56_260595134347_rgbf000074-resize_0/002199_2014-06-28_18-33-56_260595134347_rgbf000074-resize_0-target.png,125,1.996,0,2402,122,feet,jsons/VE125_randls_70_rotated.json,550904,789321,33,Man
47,212298,DepthScenes,duration_manipulation_targetAtFixation,jsons/VE125_randls_70_rotated.json,http://54.235.29.9/FacialAge/BNav_EC2/DepthDuration/v2_depth_duration_MTurk/v2_DepthDuration_HTML.html#40,40,1920,1080,1920,1080,8-21-2022,8-39-26,48,depth_duration_stimuli/001056_2014-06-08_18-46-44_260595134347_rgbf000068-resize_0/001056_2014-06-08_18-46-44_260595134347_rgbf000068-resize_0-target.png,125,2.6625,0,2117,138,feet,jsons/VE125_randls_70_rotated.json,550904,789321,33,Man
48,212298,DepthScenes,duration_manipulation_targetAtFixation,jsons/VE125_randls_70_rotated.json,http://54.235.29.9/FacialAge/BNav_EC2/DepthDuration/v2_depth_duration_MTurk/v2_DepthDuration_HTML.html#40,40,1920,1080,1920,1080,8-21-2022,8-39-26,49,depth_duration_stimuli/001170_2014-06-17_15-43-44_260595134347_rgbf000096-resize_6/001170_2014-06-17_15-43-44_260595134347_rgbf000096-resize-original.jpg,125,1.1909999999999998,0,1768,184,feet,jsons/VE125_randls_70_rotated.json,550904,789321,33,Man
49,212298,DepthScenes,duration_manipulation_targetAtFixation,jsons/VE125_randls_70_rotated.json,http://54.235.29.9/FacialAge/BNav_EC2/DepthDuration/v2_depth_duration_MTurk/v2_DepthDuration_HTML.html#40,40,1920,1080,1920,1080,8-21-2022,8-39-26,50,depth_duration_stimuli/002340_2014-06-28_20-05-46_260595134347_rgbf000113-resize_0/002340_2014-06-28_20-05-46_260595134347_rgbf000113-resize_0-target.png,125,2.4735,0,1837,135,feet,jsons/VE125_randls_70_rotated.json,550904,789321,33,Man
50,212298,DepthScenes,duration_manipulation_targetAtFixation,jsons/VE125_randls_70_rotated.json,http://54.235.29.9/FacialAge/BNav_EC2/DepthDuration/v2_depth_duration_MTurk/v2_DepthDuration_HTML.html#40,40,1920,1080,1920,1080,8-21-2022,8-39-26,51,depth_duration_stimuli/001016_2014-06-09_16-16-10_260595134347_rgbf000112-resize_5/001016_2014-06-09_16-16-10_260595134347_rgbf000112-resize_5-target.png,125,1.6565,0,1869,127,feet,jsons/VE125_randls_70_rotated.json,550904,789321,33,Man
51,212298,DepthScenes,duration_manipulation_targetAtFixation,jsons/VE125_randls_70_rotated.json,http://54.235.29.9/FacialAge/BNav_EC2/DepthDuration/v2_depth_duration_MTurk/v2_DepthDuration_HTML.html#40,40,1920,1080,1920,1080,8-21-2022,8-39-26,52,depth_duration_stimuli/003010_2014-06-15_12-54-35_094959634447_rgbf000112-resize_0/003010_2014-06-15_12-54-35_094959634447_rgbf000112-resize_0-target.png,125,3.1185,0,1844,136,feet,jsons/VE125_randls_70_rotated.json,550904,789321,33,Man
52,212298,DepthScenes,duration_manipulation_targetAtFixation,jsons/VE125_randls_70_rotated.json,http://54.235.29.9/FacialAge/BNav_EC2/DepthDuration/v2_depth_duration_MTurk/v2_DepthDuration_HTML.html#40,40,1920,1080,1920,1080,8-21-2022,8-39-26,53,depth_duration_stimuli/001810_2014-06-26_20-51-35_260595134347_rgbf000040-resize_3/001810_2014-06-26_20-51-35_260595134347_rgbf000040-resize_3-target.png,125,2.2525,0,2181,123,feet,jsons/VE125_randls_70_rotated.json,550904,789321,33,Man
53,212298,DepthScenes,duration_manipulation_targetAtFixation,jsons/VE125_randls_70_rotated.json,http://54.235.29.9/FacialAge/BNav_EC2/DepthDuration/v2_depth_duration_MTurk/v2_DepthDuration_HTML.html#40,40,1920,1080,1920,1080,8-21-2022,8-39-26,54,depth_duration_stimuli/002805_2014-06-22_19-54-03_094959634447_rgbf000079-resize_1/002805_2014-06-22_19-54-03_094959634447_rgbf000079-resize_1-target.png,125,3.1439999999999997,8,4159,120,feet,jsons/VE125_randls_70_rotated.json,550904,789321,33,Man
54,212298,DepthScenes,duration_manipulation_targetAtFixation,jsons/VE125_randls_70_rotated.json,http://54.235.29.9/FacialAge/BNav_EC2/DepthDuration/v2_depth_duration_MTurk/v2_DepthDuration_HTML.html#40,40,1920,1080,1920,1080,8-21-2022,8-39-26,55,depth_duration_stimuli/000906_2014-06-08_13-35-43_260595134347_rgbf000155-resize_1/000906_2014-06-08_13-35-43_260595134347_rgbf000155-resize_1-target.png,125,2.8489999999999998,12,3872,119,feet,jsons/VE125_randls_70_rotated.json,550904,789321,33,Man
55,212298,DepthScenes,duration_manipulation_targetAtFixation,jsons/VE125_randls_70_rotated.json,http://54.235.29.9/FacialAge/BNav_EC2/DepthDuration/v2_depth_duration_MTurk/v2_DepthDuration_HTML.html#40,40,1920,1080,1920,1080,8-21-2022,8-39-26,56,depth_duration_stimuli/001828_2014-06-26_21-40-03_260595134347_rgbf000024-resize_0/001828_2014-06-26_21-40-03_260595134347_rgbf000024-resize_0-target.png,125,4.8260000000000005,10,6172,123,feet,jsons/VE125_randls_70_rotated.json,550904,789321,33,Man
56,212298,DepthScenes,duration_manipulation_targetAtFixation,jsons/VE125_randls_70_rotated.json,http://54.235.29.9/FacialAge/BNav_EC2/DepthDuration/v2_depth_duration_MTurk/v2_DepthDuration_HTML.html#40,40,1920,1080,1920,1080,8-21-2022,8-39-26,57,depth_duration_stimuli/000009_2014-05-26_14-32-05_260595134347_rgbf000034-resize_3/000009_2014-05-26_14-32-05_260595134347_rgbf000034-resize_3-target.png,125,3.8715,14,5425,128,feet,jsons/VE125_randls_70_rotated.json,550904,789321,33,Man
57,212298,DepthScenes,duration_manipulation_targetAtFixation,jsons/VE125_randls_70_rotated.json,http://54.235.29.9/FacialAge/BNav_EC2/DepthDuration/v2_depth_duration_MTurk/v2_DepthDuration_HTML.html#40,40,1920,1080,1920,1080,8-21-2022,8-39-26,58,depth_duration_stimuli/003048_2014-06-15_13-49-43_094959634447_rgbf000150-resize_1/003048_2014-06-15_13-49-43_094959634447_rgbf000150-resize_1-target.png,125,4.0035,0,2048,139,feet,jsons/VE125_randls_70_rotated.json,550904,789321,33,Man
58,212298,DepthScenes,duration_manipulation_targetAtFixation,jsons/VE125_randls_70_rotated.json,http://54.235.29.9/FacialAge/BNav_EC2/DepthDuration/v2_depth_duration_MTurk/v2_DepthDuration_HTML.html#40,40,1920,1080,1920,1080,8-21-2022,8-39-26,59,depth_duration_stimuli/002043_2014-06-24_20-29-38_260595134347_rgbf000039-resize_4/002043_2014-06-24_20-29-38_260595134347_rgbf000039-resize_4-target.png,125,2.8435,0,2028,123,feet,jsons/VE125_randls_70_rotated.json,550904,789321,33,Man
59,212298,DepthScenes,duration_manipulation_targetAtFixation,jsons/VE125_randls_70_rotated.json,http://54.235.29.9/FacialAge/BNav_EC2/DepthDuration/v2_depth_duration_MTurk/v2_DepthDuration_HTML.html#40,40,1920,1080,1920,1080,8-21-2022,8-39-26,60,depth_duration_stimuli/001571_2014-06-20_17-21-32_260595134347_rgbf000089-resize_1/001571_2014-06-20_17-21-32_260595134347_rgbf000089-resize_1-target.png,125,1.86,4,4214,121,feet,jsons/VE125_randls_70_rotated.json,550904,789321,33,Man
60,212298,DepthScenes,duration_manipulation_targetAtFixation,jsons/VE125_randls_70_rotated.json,http://54.235.29.9/FacialAge/BNav_EC2/DepthDuration/v2_depth_duration_MTurk/v2_DepthDuration_HTML.html#40,40,1920,1080,1920,1080,8-21-2022,8-39-26,61,depth_duration_stimuli/002272_2014-06-28_18-53-56_260595134347_rgbf000067-resize_2/002272_2014-06-28_18-53-56_260595134347_rgbf000067-resize_2-target.png,125,1.138,5,2927,122,feet,jsons/VE125_randls_70_rotated.json,550904,789321,33,Man
61,212298,DepthScenes,duration_manipulation_targetAtFixation,jsons/VE125_randls_70_rotated.json,http://54.235.29.9/FacialAge/BNav_EC2/DepthDuration/v2_depth_duration_MTurk/v2_DepthDuration_HTML.html#40,40,1920,1080,1920,1080,8-21-2022,8-39-26,62,depth_duration_stimuli/002657_2014-06-13_15-29-54_094959634447_rgbf000150-resize_1/002657_2014-06-13_15-29-54_094959634447_rgbf000150-resize_1-target.png,125,4.919,0,2106,114,feet,jsons/VE125_randls_70_rotated.json,550904,789321,33,Man
62,212298,DepthScenes,duration_manipulation_targetAtFixation,jsons/VE125_randls_70_rotated.json,http://54.235.29.9/FacialAge/BNav_EC2/DepthDuration/v2_depth_duration_MTurk/v2_DepthDuration_HTML.html#40,40,1920,1080,1920,1080,8-21-2022,8-39-26,63,depth_duration_stimuli/002375_2014-06-28_20-13-44_260595134347_rgbf000032-resize_1/002375_2014-06-28_20-13-44_260595134347_rgbf000032-resize_1-target.png,125,4.0175,0,2073,124,feet,jsons/VE125_randls_70_rotated.json,550904,789321,33,Man
63,212298,DepthScenes,duration_manipulation_targetAtFixation,jsons/VE125_randls_70_rotated.json,http://54.235.29.9/FacialAge/BNav_EC2/DepthDuration/v2_depth_duration_MTurk/v2_DepthDuration_HTML.html#40,40,1920,1080,1920,1080,8-21-2022,8-39-26,64,depth_duration_stimuli/003338_2014-05-20_11-01-23_094959634447_rgbf000051-resize_6/003338_2014-05-20_11-01-23_094959634447_rgbf000051-resize_6-target.png,125,1.693,0,1912,59,feet,jsons/VE125_randls_70_rotated.json,550904,789321,33,Man
64,212298,DepthScenes,duration_manipulation_targetAtFixation,jsons/VE125_randls_70_rotated.json,http://54.235.29.9/FacialAge/BNav_EC2/DepthDuration/v2_depth_duration_MTurk/v2_DepthDuration_HTML.html#40,40,1920,1080,1920,1080,8-21-2022,8-39-26,65,depth_duration_stimuli/002509_2014-06-24_13-19-22_094959634447_rgbf000077-resize_0/002509_2014-06-24_13-19-22_094959634447_rgbf000077-resize_0-target.png,125,1.3065,0,1998,121,feet,jsons/VE125_randls_70_rotated.json,550904,789321,33,Man
65,212298,DepthScenes,duration_manipulation_targetAtFixation,jsons/VE125_randls_70_rotated.json,http://54.235.29.9/FacialAge/BNav_EC2/DepthDuration/v2_depth_duration_MTurk/v2_DepthDuration_HTML.html#40,40,1920,1080,1920,1080,8-21-2022,8-39-26,66,depth_duration_stimuli/001540_2014-06-20_17-01-05_260595134347_rgbf000086-resize_2/001540_2014-06-20_17-01-05_260595134347_rgbf000086-resize-original.jpg,125,1.459,0,1846,124,feet,jsons/VE125_randls_70_rotated.json,550904,789321,33,Man
66,212298,DepthScenes,duration_manipulation_targetAtFixation,jsons/VE125_randls_70_rotated.json,http://54.235.29.9/FacialAge/BNav_EC2/DepthDuration/v2_depth_duration_MTurk/v2_DepthDuration_HTML.html#40,40,1920,1080,1920,1080,8-21-2022,8-39-26,67,depth_duration_stimuli/000483_2014-06-09_20-41-45_260595134347_rgbf000116-resize_4/000483_2014-06-09_20-41-45_260595134347_rgbf000116-resize_4-target.png,125,1.337,4,3238,122,feet,jsons/VE125_randls_70_rotated.json,550904,789321,33,Man
67,212298,DepthScenes,duration_manipulation_targetAtFixation,jsons/VE125_randls_70_rotated.json,http://54.235.29.9/FacialAge/BNav_EC2/DepthDuration/v2_depth_duration_MTurk/v2_DepthDuration_HTML.html#40,40,1920,1080,1920,1080,8-21-2022,8-39-26,68,depth_duration_stimuli/000469_2014-06-09_19-42-10_260595134347_rgbf000081-resize_1/000469_2014-06-09_19-42-10_260595134347_rgbf000081-resize_1-target.png,125,1.652,0,2353,131,feet,jsons/VE125_randls_70_rotated.json,550904,789321,33,Man
68,212298,DepthScenes,duration_manipulation_targetAtFixation,jsons/VE125_randls_70_rotated.json,http://54.235.29.9/FacialAge/BNav_EC2/DepthDuration/v2_depth_duration_MTurk/v2_DepthDuration_HTML.html#40,40,1920,1080,1920,1080,8-21-2022,8-39-26,69,depth_duration_stimuli/001450_2014-06-19_17-02-03_260595134347_rgbf000203-resize_4/001450_2014-06-19_17-02-03_260595134347_rgbf000203-resize_4-target.png,125,4.0106666666667,0,1888,127,feet,jsons/VE125_randls_70_rotated.json,550904,789321,33,Man
69,212298,DepthScenes,duration_manipulation_targetAtFixation,jsons/VE125_randls_70_rotated.json,http://54.235.29.9/FacialAge/BNav_EC2/DepthDuration/v2_depth_duration_MTurk/v2_DepthDuration_HTML.html#40,40,1920,1080,1920,1080,8-21-2022,8-39-26,70,depth_duration_stimuli/001449_2014-06-19_17-01-27_260595134347_rgbf000116-resize_2/001449_2014-06-19_17-01-27_260595134347_rgbf000116-resize_2-target.png,125,3.452,0,2220,128,feet,jsons/VE125_randls_70_rotated.json,550904,789321,33,Man
70,212298,DepthScenes,duration_manipulation_targetAtFixation,jsons/VE125_randls_70_rotated.json,http://54.235.29.9/FacialAge/BNav_EC2/DepthDuration/v2_depth_duration_MTurk/v2_DepthDuration_HTML.html#40,40,1920,1080,1920,1080,8-21-2022,8-39-26,71,depth_duration_stimuli/001447_2014-06-19_17-00-32_260595134347_rgbf000082-resize_5/001447_2014-06-19_17-00-32_260595134347_rgbf000082-resize_5-target.png,125,4.13775,4,2988,115,feet,jsons/VE125_randls_70_rotated.json,550904,789321,33,Man
71,212298,DepthScenes,duration_manipulation_targetAtFixation,jsons/VE125_randls_70_rotated.json,http://54.235.29.9/FacialAge/BNav_EC2/DepthDuration/v2_depth_duration_MTurk/v2_DepthDuration_HTML.html#40,40,1920,1080,1920,1080,8-21-2022,8-39-26,72,depth_duration_stimuli/000447_2014-06-08_16-15-46_260595134347_rgbf000130-resize_1/000447_2014-06-08_16-15-46_260595134347_rgbf000130-resize_1-target.png,125,4.479,14,4017,133,feet,jsons/VE125_randls_70_rotated.json,550904,789321,33,Man
72,212298,DepthScenes,duration_manipulation_targetAtFixation,jsons/VE125_randls_70_rotated.json,http://54.235.29.9/FacialAge/BNav_EC2/DepthDuration/v2_depth_duration_MTurk/v2_DepthDuration_HTML.html#40,40,1920,1080,1920,1080,8-21-2022,8-39-26,73,depth_duration_stimuli/003081_2014-06-15_15-19-16_094959634447_rgbf000150-resize_1/003081_2014-06-15_15-19-16_094959634447_rgbf000150-resize_1-target.png,125,3.9125,12,3715,131,feet,jsons/VE125_randls_70_rotated.json,550904,789321,33,Man
73,212298,DepthScenes,duration_manipulation_targetAtFixation,jsons/VE125_randls_70_rotated.json,http://54.235.29.9/FacialAge/BNav_EC2/DepthDuration/v2_depth_duration_MTurk/v2_DepthDuration_HTML.html#40,40,1920,1080,1920,1080,8-21-2022,8-39-26,74,depth_duration_stimuli/001417_2014-06-19_16-25-36_260595134347_rgbf000115-resize_5/001417_2014-06-19_16-25-36_260595134347_rgbf000115-resize_5-target.png,125,4.6255,12,4068,124,feet,jsons/VE125_randls_70_rotated.json,550904,789321,33,Man
74,212298,DepthScenes,duration_manipulation_targetAtFixation,jsons/VE125_randls_70_rotated.json,http://54.235.29.9/FacialAge/BNav_EC2/DepthDuration/v2_depth_duration_MTurk/v2_DepthDuration_HTML.html#40,40,1920,1080,1920,1080,8-21-2022,8-39-26,75,depth_duration_stimuli/002568_2014-06-24_13-59-21_094959634447_rgbf000062-resize_4/002568_2014-06-24_13-59-21_094959634447_rgbf000062-resize_4-target.png,125,3.015,0,1723,122,feet,jsons/VE125_randls_70_rotated.json,550904,789321,33,Man
75,212298,DepthScenes,duration_manipulation_targetAtFixation,jsons/VE125_randls_70_rotated.json,http://54.235.29.9/FacialAge/BNav_EC2/DepthDuration/v2_depth_duration_MTurk/v2_DepthDuration_HTML.html#40,40,1920,1080,1920,1080,8-21-2022,8-39-26,76,depth_duration_stimuli/003492_2014-05-21_15-50-55_094959634447_rgbf000828-resize_1/003492_2014-05-21_15-50-55_094959634447_rgbf000828-resize_1-target.png,125,4.06875,0,1661,88,feet,jsons/VE125_randls_70_rotated.json,550904,789321,33,Man
76,212298,DepthScenes,duration_manipulation_targetAtFixation,jsons/VE125_randls_70_rotated.json,http://54.235.29.9/FacialAge/BNav_EC2/DepthDuration/v2_depth_duration_MTurk/v2_DepthDuration_HTML.html#40,40,1920,1080,1920,1080,8-21-2022,8-39-26,77,depth_duration_stimuli/001136_2014-06-17_15-19-41_260595134347_rgbf000076-resize_3/001136_2014-06-17_15-19-41_260595134347_rgbf000076-resize_3-target.png,125,1.8655,0,1746,123,feet,jsons/VE125_randls_70_rotated.json,550904,789321,33,Man
77,212298,DepthScenes,duration_manipulation_targetAtFixation,jsons/VE125_randls_70_rotated.json,http://54.235.29.9/FacialAge/BNav_EC2/DepthDuration/v2_depth_duration_MTurk/v2_DepthDuration_HTML.html#40,40,1920,1080,1920,1080,8-21-2022,8-39-26,78,depth_duration_stimuli/001164_2014-06-17_15-35-46_260595134347_rgbf000085-resize_3/001164_2014-06-17_15-35-46_260595134347_rgbf000085-resize_3-target.png,125,2.354,0,1688,117,feet,jsons/VE125_randls_70_rotated.json,550904,789321,33,Man
78,212298,DepthScenes,duration_manipulation_targetAtFixation,jsons/VE125_randls_70_rotated.json,http://54.235.29.9/FacialAge/BNav_EC2/DepthDuration/v2_depth_duration_MTurk/v2_DepthDuration_HTML.html#40,40,1920,1080,1920,1080,8-21-2022,8-39-26,79,depth_duration_stimuli/003228_2014-05-14_13-42-35_094959634447_rgbf000101-resize_1/003228_2014-05-14_13-42-35_094959634447_rgbf000101-resize_1-target.png,125,1.9680000000000002,0,1734,133,feet,jsons/VE125_randls_70_rotated.json,550904,789321,33,Man
79,212298,DepthScenes,duration_manipulation_targetAtFixation,jsons/VE125_randls_70_rotated.json,http://54.235.29.9/FacialAge/BNav_EC2/DepthDuration/v2_depth_duration_MTurk/v2_DepthDuration_HTML.html#40,40,1920,1080,1920,1080,8-21-2022,8-39-26,80,depth_duration_stimuli/002600_2014-06-24_14-27-04_094959634447_rgbf000074-resize_2/002600_2014-06-24_14-27-04_094959634447_rgbf000074-resize_2-target.png,125,2.7575,0,1742,136,feet,jsons/VE125_randls_70_rotated.json,550904,789321,33,Man
80,212298,DepthScenes,duration_manipulation_targetAtFixation,jsons/VE125_randls_70_rotated.json,http://54.235.29.9/FacialAge/BNav_EC2/DepthDuration/v2_depth_duration_MTurk/v2_DepthDuration_HTML.html#40,40,1920,1080,1920,1080,8-21-2022,8-39-26,81,depth_duration_stimuli/001132_2014-06-17_14-48-54_260595134347_rgbf000100-resize_2/001132_2014-06-17_14-48-54_260595134347_rgbf000100-resize_2-target.png,125,3.753,6,2844,122,feet,jsons/VE125_randls_70_rotated.json,550904,789321,33,Man
81,212298,DepthScenes,duration_manipulation_targetAtFixation,jsons/VE125_randls_70_rotated.json,http://54.235.29.9/FacialAge/BNav_EC2/DepthDuration/v2_depth_duration_MTurk/v2_DepthDuration_HTML.html#40,40,1920,1080,1920,1080,8-21-2022,8-39-26,82,depth_duration_stimuli/001133_2014-06-17_14-49-16_260595134347_rgbf000100-resize_0/001133_2014-06-17_14-49-16_260595134347_rgbf000100-resize_0-target.png,125,4.2115,0,2567,125,feet,jsons/VE125_randls_70_rotated.json,550904,789321,33,Man
82,212298,DepthScenes,duration_manipulation_targetAtFixation,jsons/VE125_randls_70_rotated.json,http://54.235.29.9/FacialAge/BNav_EC2/DepthDuration/v2_depth_duration_MTurk/v2_DepthDuration_HTML.html#40,40,1920,1080,1920,1080,8-21-2022,8-39-26,83,depth_duration_stimuli/000191_2014-05-12_17-07-38_260595134347_rgbf000199-resize_0/000191_2014-05-12_17-07-38_260595134347_rgbf000199-resize_0-target.png,125,3.7995,14,3323,124,feet,jsons/VE125_randls_70_rotated.json,550904,789321,33,Man
83,212298,DepthScenes,duration_manipulation_targetAtFixation,jsons/VE125_randls_70_rotated.json,http://54.235.29.9/FacialAge/BNav_EC2/DepthDuration/v2_depth_duration_MTurk/v2_DepthDuration_HTML.html#40,40,1920,1080,1920,1080,8-21-2022,8-39-26,84,depth_duration_stimuli/000493_2014-06-09_21-01-18_260595134347_rgbf000196-resize_3/000493_2014-06-09_21-01-18_260595134347_rgbf000196-resize_3-target.png,125,3.44,7,3483,124,feet,jsons/VE125_randls_70_rotated.json,550904,789321,33,Man
84,212298,DepthScenes,duration_manipulation_targetAtFixation,jsons/VE125_randls_70_rotated.json,http://54.235.29.9/FacialAge/BNav_EC2/DepthDuration/v2_depth_duration_MTurk/v2_DepthDuration_HTML.html#40,40,1920,1080,1920,1080,8-21-2022,8-39-26,85,depth_duration_stimuli/000866_2014-06-09_20-45-42_260595134347_rgbf000139-resize_1/000866_2014-06-09_20-45-42_260595134347_rgbf000139-resize_1-target.png,125,3.2155,0,1901,124,feet,jsons/VE125_randls_70_rotated.json,550904,789321,33,Man
85,212298,DepthScenes,duration_manipulation_targetAtFixation,jsons/VE125_randls_70_rotated.json,http://54.235.29.9/FacialAge/BNav_EC2/DepthDuration/v2_depth_duration_MTurk/v2_DepthDuration_HTML.html#40,40,1920,1080,1920,1080,8-21-2022,8-39-26,86,depth_duration_stimuli/002989_2014-06-15_12-25-03_094959634447_rgbf000150-resize_3/002989_2014-06-15_12-25-03_094959634447_rgbf000150-resize_3-target.png,125,4.1975,0,2092,117,feet,jsons/VE125_randls_70_rotated.json,550904,789321,33,Man
86,212298,DepthScenes,duration_manipulation_targetAtFixation,jsons/VE125_randls_70_rotated.json,http://54.235.29.9/FacialAge/BNav_EC2/DepthDuration/v2_depth_duration_MTurk/v2_DepthDuration_HTML.html#40,40,1920,1080,1920,1080,8-21-2022,8-39-26,87,depth_duration_stimuli/000691_2014-06-08_13-08-50_260595134347_rgbf000132-resize_3/000691_2014-06-08_13-08-50_260595134347_rgbf000132-resize_3-target.png,125,4.1530000000000005,0,1789,124,feet,jsons/VE125_randls_70_rotated.json,550904,789321,33,Man
87,212298,DepthScenes,duration_manipulation_targetAtFixation,jsons/VE125_randls_70_rotated.json,http://54.235.29.9/FacialAge/BNav_EC2/DepthDuration/v2_depth_duration_MTurk/v2_DepthDuration_HTML.html#40,40,1920,1080,1920,1080,8-21-2022,8-39-26,88,depth_duration_stimuli/002213_2014-06-28_18-37-58_260595134347_rgbf000055-resize_1/002213_2014-06-28_18-37-58_260595134347_rgbf000055-resize_1-target.png,125,3.62,0,1687,133,feet,jsons/VE125_randls_70_rotated.json,550904,789321,33,Man
88,212298,DepthScenes,duration_manipulation_targetAtFixation,jsons/VE125_randls_70_rotated.json,http://54.235.29.9/FacialAge/BNav_EC2/DepthDuration/v2_depth_duration_MTurk/v2_DepthDuration_HTML.html#40,40,1920,1080,1920,1080,8-21-2022,8-39-26,89,depth_duration_stimuli/000927_2014-06-09_16-32-30_260595134347_rgbf000123-resize_3/000927_2014-06-09_16-32-30_260595134347_rgbf000123-resize_3-target.png,125,2.6785,10,3443,132,feet,jsons/VE125_randls_70_rotated.json,550904,789321,33,Man
89,212298,DepthScenes,duration_manipulation_targetAtFixation,jsons/VE125_randls_70_rotated.json,http://54.235.29.9/FacialAge/BNav_EC2/DepthDuration/v2_depth_duration_MTurk/v2_DepthDuration_HTML.html#40,40,1920,1080,1920,1080,8-21-2022,8-39-26,90,depth_duration_stimuli/001110_2014-06-15_17-25-28_260595134347_rgbf000150-resize_1/001110_2014-06-15_17-25-28_260595134347_rgbf000150-resize_1-target.png,125,1.7115,6,2895,179,feet,jsons/VE125_randls_70_rotated.json,550904,789321,33,Man
90,212298,DepthScenes,duration_manipulation_targetAtFixation,jsons/VE125_randls_70_rotated.json,http://54.235.29.9/FacialAge/BNav_EC2/DepthDuration/v2_depth_duration_MTurk/v2_DepthDuration_HTML.html#40,40,1920,1080,1920,1080,8-21-2022,8-39-26,91,depth_duration_stimuli/000665_2014-06-09_20-42-35_260595134347_rgbf000110-resize_1/000665_2014-06-09_20-42-35_260595134347_rgbf000110-resize_1-target.png,125,3.057,0,2259,126,feet,jsons/VE125_randls_70_rotated.json,550904,789321,33,Man
91,212298,DepthScenes,duration_manipulation_targetAtFixation,jsons/VE125_randls_70_rotated.json,http://54.235.29.9/FacialAge/BNav_EC2/DepthDuration/v2_depth_duration_MTurk/v2_DepthDuration_HTML.html#40,40,1920,1080,1920,1080,8-21-2022,8-39-26,92,depth_duration_stimuli/001150_2014-06-17_15-27-34_260595134347_rgbf000108-resize_2/001150_2014-06-17_15-27-34_260595134347_rgbf000108-resize_2-target.png,125,4.0325,6,3375,82,feet,jsons/VE125_randls_70_rotated.json,550904,789321,33,Man
92,212298,DepthScenes,duration_manipulation_targetAtFixation,jsons/VE125_randls_70_rotated.json,http://54.235.29.9/FacialAge/BNav_EC2/DepthDuration/v2_depth_duration_MTurk/v2_DepthDuration_HTML.html#40,40,1920,1080,1920,1080,8-21-2022,8-39-26,93,depth_duration_stimuli/000742_2014-06-08_18-48-09_260595134347_rgbf000164-resize_4/000742_2014-06-08_18-48-09_260595134347_rgbf000164-resize_4-target.png,125,4.632,0,2034,127,feet,jsons/VE125_randls_70_rotated.json,550904,789321,33,Man
93,212298,DepthScenes,duration_manipulation_targetAtFixation,jsons/VE125_randls_70_rotated.json,http://54.235.29.9/FacialAge/BNav_EC2/DepthDuration/v2_depth_duration_MTurk/v2_DepthDuration_HTML.html#40,40,1920,1080,1920,1080,8-21-2022,8-39-26,94,depth_duration_stimuli/001066_2014-06-08_22-03-20_260595134347_rgbf000066-resize_4/001066_2014-06-08_22-03-20_260595134347_rgbf000066-resize_4-target.png,125,4.2330000000000005,0,1895,128,feet,jsons/VE125_randls_70_rotated.json,550904,789321,33,Man
94,212298,DepthScenes,duration_manipulation_targetAtFixation,jsons/VE125_randls_70_rotated.json,http://54.235.29.9/FacialAge/BNav_EC2/DepthDuration/v2_depth_duration_MTurk/v2_DepthDuration_HTML.html#40,40,1920,1080,1920,1080,8-21-2022,8-39-26,95,depth_duration_stimuli/002545_2014-06-24_13-38-53_094959634447_rgbf000080-resize_4/002545_2014-06-24_13-38-53_094959634447_rgbf000080-resize_4-target.png,125,1.9205,7,3434,177,feet,jsons/VE125_randls_70_rotated.json,550904,789321,33,Man
95,212298,DepthScenes,duration_manipulation_targetAtFixation,jsons/VE125_randls_70_rotated.json,http://54.235.29.9/FacialAge/BNav_EC2/DepthDuration/v2_depth_duration_MTurk/v2_DepthDuration_HTML.html#40,40,1920,1080,1920,1080,8-21-2022,8-39-26,96,depth_duration_stimuli/001092_2014-06-15_17-34-58_260595134347_rgbf000171-resize_3/001092_2014-06-15_17-34-58_260595134347_rgbf000171-resize_3-target.png,125,2.6935,6,2871,125,feet,jsons/VE125_randls_70_rotated.json,550904,789321,33,Man
96,212298,DepthScenes,duration_manipulation_targetAtFixation,jsons/VE125_randls_70_rotated.json,http://54.235.29.9/FacialAge/BNav_EC2/DepthDuration/v2_depth_duration_MTurk/v2_DepthDuration_HTML.html#40,40,1920,1080,1920,1080,8-21-2022,8-39-26,97,depth_duration_stimuli/001235_2014-06-17_16-37-36_260595134347_rgbf000084-resize_4/001235_2014-06-17_16-37-36_260595134347_rgbf000084-resize_4-target.png,125,3.6605,0,1743,121,feet,jsons/VE125_randls_70_rotated.json,550904,789321,33,Man
97,212298,DepthScenes,duration_manipulation_targetAtFixation,jsons/VE125_randls_70_rotated.json,http://54.235.29.9/FacialAge/BNav_EC2/DepthDuration/v2_depth_duration_MTurk/v2_DepthDuration_HTML.html#40,40,1920,1080,1920,1080,8-21-2022,8-39-26,98,depth_duration_stimuli/000788_2014-06-08_22-34-36_260595134347_rgbf000131-resize_1/000788_2014-06-08_22-34-36_260595134347_rgbf000131-resize_1-target.png,125,3.359,0,1736,125,feet,jsons/VE125_randls_70_rotated.json,550904,789321,33,Man
98,212298,DepthScenes,duration_manipulation_targetAtFixation,jsons/VE125_randls_70_rotated.json,http://54.235.29.9/FacialAge/BNav_EC2/DepthDuration/v2_depth_duration_MTurk/v2_DepthDuration_HTML.html#40,40,1920,1080,1920,1080,8-21-2022,8-39-26,99,depth_duration_stimuli/001222_2014-06-17_16-24-06_260595134347_rgbf000073-resize_0/001222_2014-06-17_16-24-06_260595134347_rgbf000073-resize-original.jpg,125,1.4385,0,2308,124,feet,jsons/VE125_randls_70_rotated.json,550904,789321,33,Man
99,212298,DepthScenes,duration_manipulation_targetAtFixation,jsons/VE125_randls_70_rotated.json,http://54.235.29.9/FacialAge/BNav_EC2/DepthDuration/v2_depth_duration_MTurk/v2_DepthDuration_HTML.html#40,40,1920,1080,1920,1080,8-21-2022,8-39-26,100,depth_duration_stimuli/000409_2014-06-04_19-23-33_260595134347_rgbf000067-resize_0/000409_2014-06-04_19-23-33_260595134347_rgbf000067-resize_0-target.png,125,3.7335,0,1874,138,feet,jsons/VE125_randls_70_rotated.json,550904,789321,33,Man
100,212298,DepthScenes,duration_manipulation_targetAtFixation,jsons/VE125_randls_70_rotated.json,http://54.235.29.9/FacialAge/BNav_EC2/DepthDuration/v2_depth_duration_MTurk/v2_DepthDuration_HTML.html#40,40,1920,1080,1920,1080,8-21-2022,8-39-26,101,depth_duration_stimuli/002663_2014-06-13_15-50-26_094959634447_rgbf000075-resize_1/002663_2014-06-13_15-50-26_094959634447_rgbf000075-resize_1-target.png,125,4.7495,0,1736,147,feet,jsons/VE125_randls_70_rotated.json,550904,789321,33,Man
101,212298,DepthScenes,duration_manipulation_targetAtFixation,jsons/VE125_randls_70_rotated.json,http://54.235.29.9/FacialAge/BNav_EC2/DepthDuration/v2_depth_duration_MTurk/v2_DepthDuration_HTML.html#40,40,1920,1080,1920,1080,8-21-2022,8-39-26,102,depth_duration_stimuli/000677_2014-06-08_23-10-32_260595134347_rgbf000158-resize_6/000677_2014-06-08_23-10-32_260595134347_rgbf000158-resize_6-target.png,125,3.556,5,2893,124,feet,jsons/VE125_randls_70_rotated.json,550904,789321,33,Man
102,212298,DepthScenes,duration_manipulation_targetAtFixation,jsons/VE125_randls_70_rotated.json,http://54.235.29.9/FacialAge/BNav_EC2/DepthDuration/v2_depth_duration_MTurk/v2_DepthDuration_HTML.html#40,40,1920,1080,1920,1080,8-21-2022,8-39-26,103,depth_duration_stimuli/001029_2014-06-08_13-17-57_260595134347_rgbf000065-resize_1/001029_2014-06-08_13-17-57_260595134347_rgbf000065-resize_1-target.png,125,3.0835,7,4096,124,feet,jsons/VE125_randls_70_rotated.json,550904,789321,33,Man
103,212298,DepthScenes,duration_manipulation_targetAtFixation,jsons/VE125_randls_70_rotated.json,http://54.235.29.9/FacialAge/BNav_EC2/DepthDuration/v2_depth_duration_MTurk/v2_DepthDuration_HTML.html#40,40,1920,1080,1920,1080,8-21-2022,8-39-26,104,depth_duration_stimuli/000635_2014-06-08_16-38-42_260595134347_rgbf000106-resize_1/000635_2014-06-08_16-38-42_260595134347_rgbf000106-resize_1-target.png,125,2.074,6,3073,125,feet,jsons/VE125_randls_70_rotated.json,550904,789321,33,Man
104,212298,DepthScenes,duration_manipulation_targetAtFixation,jsons/VE125_randls_70_rotated.json,http://54.235.29.9/FacialAge/BNav_EC2/DepthDuration/v2_depth_duration_MTurk/v2_DepthDuration_HTML.html#40,40,1920,1080,1920,1080,8-21-2022,8-39-26,105,depth_duration_stimuli/002279_2014-06-28_18-55-32_260595134347_rgbf000040-resize_5/002279_2014-06-28_18-55-32_260595134347_rgbf000040-resize_5-target.png,125,1.5043333333333,3,3606,124,feet,jsons/VE125_randls_70_rotated.json,550904,789321,33,Man
105,212298,DepthScenes,duration_manipulation_targetAtFixation,jsons/VE125_randls_70_rotated.json,http://54.235.29.9/FacialAge/BNav_EC2/DepthDuration/v2_depth_duration_MTurk/v2_DepthDuration_HTML.html#40,40,1920,1080,1920,1080,8-21-2022,8-39-26,106,depth_duration_stimuli/001617_2014-06-20_11-35-32_260595134347_rgbf000066-resize_1/001617_2014-06-20_11-35-32_260595134347_rgbf000066-resize_1-target.png,125,3.7910000000000004,8,3330,124,feet,jsons/VE125_randls_70_rotated.json,550904,789321,33,Man
106,212298,DepthScenes,duration_manipulation_targetAtFixation,jsons/VE125_randls_70_rotated.json,http://54.235.29.9/FacialAge/BNav_EC2/DepthDuration/v2_depth_duration_MTurk/v2_DepthDuration_HTML.html#40,40,1920,1080,1920,1080,8-21-2022,8-39-26,107,depth_duration_stimuli/001806_2014-06-26_20-50-20_260595134347_rgbf000091-resize_1/001806_2014-06-26_20-50-20_260595134347_rgbf000091-resize_1-target.png,125,2.7305,4,2663,120,feet,jsons/VE125_randls_70_rotated.json,550904,789321,33,Man
107,212298,DepthScenes,duration_manipulation_targetAtFixation,jsons/VE125_randls_70_rotated.json,http://54.235.29.9/FacialAge/BNav_EC2/DepthDuration/v2_depth_duration_MTurk/v2_DepthDuration_HTML.html#40,40,1920,1080,1920,1080,8-21-2022,8-39-26,108,depth_duration_stimuli/003079_2014-06-15_15-18-20_094959634447_rgbf000152-resize_8/003079_2014-06-15_15-18-20_094959634447_rgbf000152-resize_8-target.png,125,2.8775,0,2629,122,feet,jsons/VE125_randls_70_rotated.json,550904,789321,33,Man
108,212298,DepthScenes,duration_manipulation_targetAtFixation,jsons/VE125_randls_70_rotated.json,http://54.235.29.9/FacialAge/BNav_EC2/DepthDuration/v2_depth_duration_MTurk/v2_DepthDuration_HTML.html#40,40,1920,1080,1920,1080,8-21-2022,8-39-26,109,depth_duration_stimuli/000506_2014-06-08_23-21-00_260595134347_rgbf000070-resize_7/000506_2014-06-08_23-21-00_260595134347_rgbf000070-resize_7-target.png,125,4.0585,0,1686,114,feet,jsons/VE125_randls_70_rotated.json,550904,789321,33,Man
109,212298,DepthScenes,duration_manipulation_targetAtFixation,jsons/VE125_randls_70_rotated.json,http://54.235.29.9/FacialAge/BNav_EC2/DepthDuration/v2_depth_duration_MTurk/v2_DepthDuration_HTML.html#40,40,1920,1080,1920,1080,8-21-2022,8-39-26,110,depth_duration_stimuli/002758_2014-06-22_19-11-20_094959634447_rgbf000128-resize_1/002758_2014-06-22_19-11-20_094959634447_rgbf000128-resize_1-target.png,125,2.555,0,1702,123,feet,jsons/VE125_randls_70_rotated.json,550904,789321,33,Man
110,212298,DepthScenes,duration_manipulation_targetAtFixation,jsons/VE125_randls_70_rotated.json,http://54.235.29.9/FacialAge/BNav_EC2/DepthDuration/v2_depth_duration_MTurk/v2_DepthDuration_HTML.html#40,40,1920,1080,1920,1080,8-21-2022,8-39-26,111,depth_duration_stimuli/002630_2014-06-24_14-47-50_094959634447_rgbf000055-resize_1/002630_2014-06-24_14-47-50_094959634447_rgbf000055-resize_1-target.png,125,3.0095,0,2309,125,feet,jsons/VE125_randls_70_rotated.json,550904,789321,33,Man
111,212298,DepthScenes,duration_manipulation_targetAtFixation,jsons/VE125_randls_70_rotated.json,http://54.235.29.9/FacialAge/BNav_EC2/DepthDuration/v2_depth_duration_MTurk/v2_DepthDuration_HTML.html#40,40,1920,1080,1920,1080,8-21-2022,8-39-26,112,depth_duration_stimuli/002949_2014-06-26_15-57-42_094959634447_rgbf000079-resize_1/002949_2014-06-26_15-57-42_094959634447_rgbf000079-resize_1-target.png,125,1.8915,0,1845,124,feet,jsons/VE125_randls_70_rotated.json,550904,789321,33,Man
112,212298,DepthScenes,duration_manipulation_targetAtFixation,jsons/VE125_randls_70_rotated.json,http://54.235.29.9/FacialAge/BNav_EC2/DepthDuration/v2_depth_duration_MTurk/v2_DepthDuration_HTML.html#40,40,1920,1080,1920,1080,8-21-2022,8-39-26,113,depth_duration_stimuli/000522_2014-06-08_13-35-06_260595134347_rgbf000244-resize_1/000522_2014-06-08_13-35-06_260595134347_rgbf000244-resize_1-target.png,125,2.3715,0,1650,124,feet,jsons/VE125_randls_70_rotated.json,550904,789321,33,Man
113,212298,DepthScenes,duration_manipulation_targetAtFixation,jsons/VE125_randls_70_rotated.json,http://54.235.29.9/FacialAge/BNav_EC2/DepthDuration/v2_depth_duration_MTurk/v2_DepthDuration_HTML.html#40,40,1920,1080,1920,1080,8-21-2022,8-39-26,114,depth_duration_stimuli/002637_2014-06-24_14-51-13_094959634447_rgbf000066-resize_4/002637_2014-06-24_14-51-13_094959634447_rgbf000066-resize_4-target.png,125,1.9955,0,1657,124,feet,jsons/VE125_randls_70_rotated.json,550904,789321,33,Man
114,212298,DepthScenes,duration_manipulation_targetAtFixation,jsons/VE125_randls_70_rotated.json,http://54.235.29.9/FacialAge/BNav_EC2/DepthDuration/v2_depth_duration_MTurk/v2_DepthDuration_HTML.html#40,40,1920,1080,1920,1080,8-21-2022,8-39-26,115,depth_duration_stimuli/003534_2014-05-22_15-06-10_094959634447_rgbf000102-resize_4/003534_2014-05-22_15-06-10_094959634447_rgbf000102-resize_4-target.png,125,1.426,0,1697,174,feet,jsons/VE125_randls_70_rotated.json,550904,789321,33,Man
115,212298,DepthScenes,duration_manipulation_targetAtFixation,jsons/VE125_randls_70_rotated.json,http://54.235.29.9/FacialAge/BNav_EC2/DepthDuration/v2_depth_duration_MTurk/v2_DepthDuration_HTML.html#40,40,1920,1080,1920,1080,8-21-2022,8-39-26,116,depth_duration_stimuli/002323_2014-06-28_20-01-54_260595134347_rgbf000051-resize_4/002323_2014-06-28_20-01-54_260595134347_rgbf000051-resize_4-target.png,125,3.7310000000000003,6,3120,125,feet,jsons/VE125_randls_70_rotated.json,550904,789321,33,Man
116,212298,DepthScenes,duration_manipulation_targetAtFixation,jsons/VE125_randls_70_rotated.json,http://54.235.29.9/FacialAge/BNav_EC2/DepthDuration/v2_depth_duration_MTurk/v2_DepthDuration_HTML.html#40,40,1920,1080,1920,1080,8-21-2022,8-39-26,117,depth_duration_stimuli/000917_2014-06-09_22-45-29_260595134347_rgbf000149-resize_3/000917_2014-06-09_22-45-29_260595134347_rgbf000149-resize_3-target.png,125,4.1865,8,2770,122,feet,jsons/VE125_randls_70_rotated.json,550904,789321,33,Man
117,212298,DepthScenes,duration_manipulation_targetAtFixation,jsons/VE125_randls_70_rotated.json,http://54.235.29.9/FacialAge/BNav_EC2/DepthDuration/v2_depth_duration_MTurk/v2_DepthDuration_HTML.html#40,40,1920,1080,1920,1080,8-21-2022,8-39-26,118,depth_duration_stimuli/003490_2014-05-21_15-50-11_094959634447_rgbf000101-resize_3/003490_2014-05-21_15-50-11_094959634447_rgbf000101-resize_3-target.png,125,3.6445,6,2573,123,feet,jsons/VE125_randls_70_rotated.json,550904,789321,33,Man
118,212298,DepthScenes,duration_manipulation_targetAtFixation,jsons/VE125_randls_70_rotated.json,http://54.235.29.9/FacialAge/BNav_EC2/DepthDuration/v2_depth_duration_MTurk/v2_DepthDuration_HTML.html#40,40,1920,1080,1920,1080,8-21-2022,8-39-26,119,depth_duration_stimuli/001175_2014-06-17_15-45-55_260595134347_rgbf000129-resize_4/001175_2014-06-17_15-45-55_260595134347_rgbf000129-resize_4-target.png,125,4.255,8,4624,93,feet,jsons/VE125_randls_70_rotated.json,550904,789321,33,Man
119,212298,DepthScenes,duration_manipulation_targetAtFixation,jsons/VE125_randls_70_rotated.json,http://54.235.29.9/FacialAge/BNav_EC2/DepthDuration/v2_depth_duration_MTurk/v2_DepthDuration_HTML.html#40,40,1920,1080,1920,1080,8-21-2022,8-39-26,120,depth_duration_stimuli/000787_2014-06-08_22-33-53_260595134347_rgbf000175-resize_1/000787_2014-06-08_22-33-53_260595134347_rgbf000175-resize-original.jpg,125,4.784,0,2253,125,feet,jsons/VE125_randls_70_rotated.json,550904,789321,33,Man
120,212298,DepthScenes,duration_manipulation_targetAtFixation,jsons/VE125_randls_70_rotated.json,http://54.235.29.9/FacialAge/BNav_EC2/DepthDuration/v2_depth_duration_MTurk/v2_DepthDuration_HTML.html#40,40,1920,1080,1920,1080,8-21-2022,8-39-26,121,depth_duration_stimuli/002750_2014-06-22_19-08-03_094959634447_rgbf000094-resize_4/002750_2014-06-22_19-08-03_094959634447_rgbf000094-resize_4-target.png,125,2.354,8,3129,116,feet,jsons/VE125_randls_70_rotated.json,550904,789321,33,Man
121,212298,DepthScenes,duration_manipulation_targetAtFixation,jsons/VE125_randls_70_rotated.json,http://54.235.29.9/FacialAge/BNav_EC2/DepthDuration/v2_depth_duration_MTurk/v2_DepthDuration_HTML.html#40,40,1920,1080,1920,1080,8-21-2022,8-39-26,122,depth_duration_stimuli/002549_2014-06-24_13-41-39_094959634447_rgbf000022-resize_3/002549_2014-06-24_13-41-39_094959634447_rgbf000022-resize_3-target.png,125,1.476,3,2826,121,feet,jsons/VE125_randls_70_rotated.json,550904,789321,33,Man
122,212298,DepthScenes,duration_manipulation_targetAtFixation,jsons/VE125_randls_70_rotated.json,http://54.235.29.9/FacialAge/BNav_EC2/DepthDuration/v2_depth_duration_MTurk/v2_DepthDuration_HTML.html#40,40,1920,1080,1920,1080,8-21-2022,8-39-26,123,depth_duration_stimuli/001392_2014-06-19_16-07-59_260595134347_rgbf000046-resize_1/001392_2014-06-19_16-07-59_260595134347_rgbf000046-resize_1-target.png,125,4.135,12,3471,125,feet,jsons/VE125_randls_70_rotated.json,550904,789321,33,Man
123,212298,DepthScenes,duration_manipulation_targetAtFixation,jsons/VE125_randls_70_rotated.json,http://54.235.29.9/FacialAge/BNav_EC2/DepthDuration/v2_depth_duration_MTurk/v2_DepthDuration_HTML.html#40,40,1920,1080,1920,1080,8-21-2022,8-39-26,124,depth_duration_stimuli/001570_2014-06-20_17-21-09_260595134347_rgbf000135-resize_4/001570_2014-06-20_17-21-09_260595134347_rgbf000135-resize_4-target.png,125,4.467,0,3935,149,feet,jsons/VE125_randls_70_rotated.json,550904,789321,33,Man
124,212298,DepthScenes,duration_manipulation_targetAtFixation,jsons/VE125_randls_70_rotated.json,http://54.235.29.9/FacialAge/BNav_EC2/DepthDuration/v2_depth_duration_MTurk/v2_DepthDuration_HTML.html#40,40,1920,1080,1920,1080,8-21-2022,8-39-26,125,depth_duration_stimuli/002414_2014-06-28_20-24-58_260595134347_rgbf000067-resize_4/002414_2014-06-28_20-24-58_260595134347_rgbf000067-resize_4-target.png,125,4.363,8,3972,126,feet,jsons/VE125_randls_70_rotated.json,550904,789321,33,Man
125,212298,DepthScenes,duration_manipulation_targetAtFixation,jsons/VE125_randls_70_rotated.json,http://54.235.29.9/FacialAge/BNav_EC2/DepthDuration/v2_depth_duration_MTurk/v2_DepthDuration_HTML.html#40,40,1920,1080,1920,1080,8-21-2022,8-39-26,126,depth_duration_stimuli/000773_2014-06-08_22-24-54_260595134347_rgbf000093-resize_1/000773_2014-06-08_22-24-54_260595134347_rgbf000093-resize_1-target.png,125,4.973,7,3248,125,feet,jsons/VE125_randls_70_rotated.json,550904,789321,33,Man
126,212298,DepthScenes,duration_manipulation_targetAtFixation,jsons/VE125_randls_70_rotated.json,http://54.235.29.9/FacialAge/BNav_EC2/DepthDuration/v2_depth_duration_MTurk/v2_DepthDuration_HTML.html#40,40,1920,1080,1920,1080,8-21-2022,8-39-26,127,depth_duration_stimuli/001052_2014-06-08_18-24-54_260595134347_rgbf000130-resize_1/001052_2014-06-08_18-24-54_260595134347_rgbf000130-resize_1-target.png,125,4.1045,0,1860,114,feet,jsons/VE125_randls_70_rotated.json,550904,789321,33,Man
127,212298,DepthScenes,duration_manipulation_targetAtFixation,jsons/VE125_randls_70_rotated.json,http://54.235.29.9/FacialAge/BNav_EC2/DepthDuration/v2_depth_duration_MTurk/v2_DepthDuration_HTML.html#40,40,1920,1080,1920,1080,8-21-2022,8-39-26,128,depth_duration_stimuli/002988_2014-06-15_12-24-20_094959634447_rgbf000150-resize_1/002988_2014-06-15_12-24-20_094959634447_rgbf000150-resize_1-target.png,125,4.7669999999999995,0,2371,139,feet,jsons/VE125_randls_70_rotated.json,550904,789321,33,Man
128,212298,DepthScenes,duration_manipulation_targetAtFixation,jsons/VE125_randls_70_rotated.json,http://54.235.29.9/FacialAge/BNav_EC2/DepthDuration/v2_depth_duration_MTurk/v2_DepthDuration_HTML.html#40,40,1920,1080,1920,1080,8-21-2022,8-39-26,129,depth_duration_stimuli/000556_2014-06-09_22-42-56_260595134347_rgbf000214-resize_1/000556_2014-06-09_22-42-56_260595134347_rgbf000214-resize_1-target.png,125,4.8415,8,2956,125,feet,jsons/VE125_randls_70_rotated.json,550904,789321,33,Man
129,212298,DepthScenes,duration_manipulation_targetAtFixation,jsons/VE125_randls_70_rotated.json,http://54.235.29.9/FacialAge/BNav_EC2/DepthDuration/v2_depth_duration_MTurk/v2_DepthDuration_HTML.html#40,40,1920,1080,1920,1080,8-21-2022,8-39-26,130,depth_duration_stimuli/001158_2014-06-17_15-32-16_260595134347_rgbf000138-resize_2/001158_2014-06-17_15-32-16_260595134347_rgbf000138-resize_2-target.png,125,4.5315,8,4058,119,feet,jsons/VE125_randls_70_rotated.json,550904,789321,33,Man
130,212298,DepthScenes,duration_manipulation_targetAtFixation,jsons/VE125_randls_70_rotated.json,http://54.235.29.9/FacialAge/BNav_EC2/DepthDuration/v2_depth_duration_MTurk/v2_DepthDuration_HTML.html#40,40,1920,1080,1920,1080,8-21-2022,8-39-26,131,depth_duration_stimuli/000502_2014-06-08_23-02-32_260595134347_rgbf000063-resize_4/000502_2014-06-08_23-02-32_260595134347_rgbf000063-resize_4-target.png,125,2.431,4,4852,119,feet,jsons/VE125_randls_70_rotated.json,550904,789321,33,Man
131,212298,DepthScenes,duration_manipulation_targetAtFixation,jsons/VE125_randls_70_rotated.json,http://54.235.29.9/FacialAge/BNav_EC2/DepthDuration/v2_depth_duration_MTurk/v2_DepthDuration_HTML.html#40,40,1920,1080,1920,1080,8-21-2022,8-39-26,132,depth_duration_stimuli/001199_2014-06-17_16-03-48_260595134347_rgbf000077-resize_0/001199_2014-06-17_16-03-48_260595134347_rgbf000077-resize_0-target.png,125,3.4375,5,2929,118,feet,jsons/VE125_randls_70_rotated.json,550904,789321,33,Man
132,212298,DepthScenes,duration_manipulation_targetAtFixation,jsons/VE125_randls_70_rotated.json,http://54.235.29.9/FacialAge/BNav_EC2/DepthDuration/v2_depth_duration_MTurk/v2_DepthDuration_HTML.html#40,40,1920,1080,1920,1080,8-21-2022,8-39-26,133,depth_duration_stimuli/000749_2014-06-08_21-55-06_260595134347_rgbf000070-resize_2/000749_2014-06-08_21-55-06_260595134347_rgbf000070-resize_2-target.png,125,2.331,0,2148,131,feet,jsons/VE125_randls_70_rotated.json,550904,789321,33,Man
133,212298,DepthScenes,duration_manipulation_targetAtFixation,jsons/VE125_randls_70_rotated.json,http://54.235.29.9/FacialAge/BNav_EC2/DepthDuration/v2_depth_duration_MTurk/v2_DepthDuration_HTML.html#40,40,1920,1080,1920,1080,8-21-2022,8-39-26,134,depth_duration_stimuli/002788_2014-06-22_19-36-03_094959634447_rgbf000088-resize_2/002788_2014-06-22_19-36-03_094959634447_rgbf000088-resize_2-target.png,125,1.6465,5,2941,123,feet,jsons/VE125_randls_70_rotated.json,550904,789321,33,Man
134,212298,DepthScenes,duration_manipulation_targetAtFixation,jsons/VE125_randls_70_rotated.json,http://54.235.29.9/FacialAge/BNav_EC2/DepthDuration/v2_depth_duration_MTurk/v2_DepthDuration_HTML.html#40,40,1920,1080,1920,1080,8-21-2022,8-39-26,135,depth_duration_stimuli/000375_2014-06-08_11-17-29_260595134347_rgbf000133-resize_2/000375_2014-06-08_11-17-29_260595134347_rgbf000133-resize-original.jpg,125,4.718,0,1972,127,feet,jsons/VE125_randls_70_rotated.json,550904,789321,33,Man
135,212298,DepthScenes,duration_manipulation_targetAtFixation,jsons/VE125_randls_70_rotated.json,http://54.235.29.9/FacialAge/BNav_EC2/DepthDuration/v2_depth_duration_MTurk/v2_DepthDuration_HTML.html#40,40,1920,1080,1920,1080,8-21-2022,8-39-26,136,depth_duration_stimuli/002678_2014-06-13_16-15-32_094959634447_rgbf000151-resize_6/002678_2014-06-13_16-15-32_094959634447_rgbf000151-resize_6-target.png,125,2.1830000000000003,8,3628,122,feet,jsons/VE125_randls_70_rotated.json,550904,789321,33,Man
136,212298,DepthScenes,duration_manipulation_targetAtFixation,jsons/VE125_randls_70_rotated.json,http://54.235.29.9/FacialAge/BNav_EC2/DepthDuration/v2_depth_duration_MTurk/v2_DepthDuration_HTML.html#40,40,1920,1080,1920,1080,8-21-2022,8-39-26,137,depth_duration_stimuli/000368_2014-06-09_15-53-01_260595134347_rgbf000155-resize_2/000368_2014-06-09_15-53-01_260595134347_rgbf000155-resize_2-target.png,125,2.4859999999999998,4,3018,125,feet,jsons/VE125_randls_70_rotated.json,550904,789321,33,Man
137,212298,DepthScenes,duration_manipulation_targetAtFixation,jsons/VE125_randls_70_rotated.json,http://54.235.29.9/FacialAge/BNav_EC2/DepthDuration/v2_depth_duration_MTurk/v2_DepthDuration_HTML.html#40,40,1920,1080,1920,1080,8-21-2022,8-39-26,138,depth_duration_stimuli/000734_2014-06-08_17-39-11_260595134347_rgbf000128-resize_2/000734_2014-06-08_17-39-11_260595134347_rgbf000128-resize_2-target.png,125,4.098,8,2919,134,feet,jsons/VE125_randls_70_rotated.json,550904,789321,33,Man
138,212298,DepthScenes,duration_manipulation_targetAtFixation,jsons/VE125_randls_70_rotated.json,http://54.235.29.9/FacialAge/BNav_EC2/DepthDuration/v2_depth_duration_MTurk/v2_DepthDuration_HTML.html#40,40,1920,1080,1920,1080,8-21-2022,8-39-26,139,depth_duration_stimuli/000739_2014-06-08_18-45-58_260595134347_rgbf000068-resize_1/000739_2014-06-08_18-45-58_260595134347_rgbf000068-resize_1-target.png,125,3.534,8,3704,124,feet,jsons/VE125_randls_70_rotated.json,550904,789321,33,Man
139,212298,DepthScenes,duration_manipulation_targetAtFixation,jsons/VE125_randls_70_rotated.json,http://54.235.29.9/FacialAge/BNav_EC2/DepthDuration/v2_depth_duration_MTurk/v2_DepthDuration_HTML.html#40,40,1920,1080,1920,1080,8-21-2022,8-39-26,140,depth_duration_stimuli/001650_2014-06-20_12-09-00_260595134347_rgbf000087-resize_3/001650_2014-06-20_12-09-00_260595134347_rgbf000087-resize_3-target.png,125,1.9505,2,3100,122,feet,jsons/VE125_randls_70_rotated.json,550904,789321,33,Man
140,212298,DepthScenes,duration_manipulation_targetAtFixation,jsons/VE125_randls_70_rotated.json,http://54.235.29.9/FacialAge/BNav_EC2/DepthDuration/v2_depth_duration_MTurk/v2_DepthDuration_HTML.html#40,40,1920,1080,1920,1080,8-21-2022,8-39-26,141,depth_duration_stimuli/000682_2014-06-08_23-14-58_260595134347_rgbf000041-resize_5/000682_2014-06-08_23-14-58_260595134347_rgbf000041-resize_5-target.png,125,2.7239999999999998,5,3122,130,feet,jsons/VE125_randls_70_rotated.json,550904,789321,33,Man
141,212298,DepthScenes,duration_manipulation_targetAtFixation,jsons/VE125_randls_70_rotated.json,http://54.235.29.9/FacialAge/BNav_EC2/DepthDuration/v2_depth_duration_MTurk/v2_DepthDuration_HTML.html#40,40,1920,1080,1920,1080,8-21-2022,8-39-26,142,depth_duration_stimuli/003495_2014-05-21_16-01-51_094959634447_rgbf000100-resize_3/003495_2014-05-21_16-01-51_094959634447_rgbf000100-resize_3-target.png,125,1.6255,3,2840,120,feet,jsons/VE125_randls_70_rotated.json,550904,789321,33,Man
142,212298,DepthScenes,duration_manipulation_targetAtFixation,jsons/VE125_randls_70_rotated.json,http://54.235.29.9/FacialAge/BNav_EC2/DepthDuration/v2_depth_duration_MTurk/v2_DepthDuration_HTML.html#40,40,1920,1080,1920,1080,8-21-2022,8-39-26,143,depth_duration_stimuli/001244_2014-06-17_16-47-45_260595134347_rgbf000030-resize_4/001244_2014-06-17_16-47-45_260595134347_rgbf000030-resize_4-target.png,125,2.0425,4,2752,121,feet,jsons/VE125_randls_70_rotated.json,550904,789321,33,Man
143,212298,DepthScenes,duration_manipulation_targetAtFixation,jsons/VE125_randls_70_rotated.json,http://54.235.29.9/FacialAge/BNav_EC2/DepthDuration/v2_depth_duration_MTurk/v2_DepthDuration_HTML.html#40,40,1920,1080,1920,1080,8-21-2022,8-39-26,144,depth_duration_stimuli/000457_2014-06-08_16-52-43_260595134347_rgbf000199-resize_1/000457_2014-06-08_16-52-43_260595134347_rgbf000199-resize_1-target.png,125,3.6489999999999996,0,2832,127,feet,jsons/VE125_randls_70_rotated.json,550904,789321,33,Man
144,212298,DepthScenes,duration_manipulation_targetAtFixation,jsons/VE125_randls_70_rotated.json,http://54.235.29.9/FacialAge/BNav_EC2/DepthDuration/v2_depth_duration_MTurk/v2_DepthDuration_HTML.html#40,40,1920,1080,1920,1080,8-21-2022,8-39-26,145,depth_duration_stimuli/000929_2014-06-09_16-33-19_260595134347_rgbf000139-resize_0/000929_2014-06-09_16-33-19_260595134347_rgbf000139-resize_0-target.png,125,2.8680000000000003,0,1768,125,feet,jsons/VE125_randls_70_rotated.json,550904,789321,33,Man
145,212298,DepthScenes,duration_manipulation_targetAtFixation,jsons/VE125_randls_70_rotated.json,http://54.235.29.9/FacialAge/BNav_EC2/DepthDuration/v2_depth_duration_MTurk/v2_DepthDuration_HTML.html#40,40,1920,1080,1920,1080,8-21-2022,8-39-26,146,depth_duration_stimuli/003423_2014-05-21_10-23-26_094959634447_rgbf002665-resize_2/003423_2014-05-21_10-23-26_094959634447_rgbf002665-resize_2-target.png,125,3.2575,12,3553,139,feet,jsons/VE125_randls_70_rotated.json,550904,789321,33,Man
146,212298,DepthScenes,duration_manipulation_targetAtFixation,jsons/VE125_randls_70_rotated.json,http://54.235.29.9/FacialAge/BNav_EC2/DepthDuration/v2_depth_duration_MTurk/v2_DepthDuration_HTML.html#40,40,1920,1080,1920,1080,8-21-2022,8-39-26,147,depth_duration_stimuli/002905_2014-06-03_18-04-43_094959634447_rgbf000151-resize_2/002905_2014-06-03_18-04-43_094959634447_rgbf000151-resize_2-target.png,125,2.0295,3,2606,125,feet,jsons/VE125_randls_70_rotated.json,550904,789321,33,Man
147,212298,DepthScenes,duration_manipulation_targetAtFixation,jsons/VE125_randls_70_rotated.json,http://54.235.29.9/FacialAge/BNav_EC2/DepthDuration/v2_depth_duration_MTurk/v2_DepthDuration_HTML.html#40,40,1920,1080,1920,1080,8-21-2022,8-39-26,148,depth_duration_stimuli/002209_2014-06-28_18-36-10_260595134347_rgbf000051-resize_1/002209_2014-06-28_18-36-10_260595134347_rgbf000051-resize_1-target.png,125,2.057,2,4618,125,feet,jsons/VE125_randls_70_rotated.json,550904,789321,33,Man
148,212298,DepthScenes,duration_manipulation_targetAtFixation,jsons/VE125_randls_70_rotated.json,http://54.235.29.9/FacialAge/BNav_EC2/DepthDuration/v2_depth_duration_MTurk/v2_DepthDuration_HTML.html#40,40,1920,1080,1920,1080,8-21-2022,8-39-26,149,depth_duration_stimuli/002763_2014-06-22_19-13-10_094959634447_rgbf000075-resize_4/002763_2014-06-22_19-13-10_094959634447_rgbf000075-resize_4-target.png,125,1.68375,4,2729,116,feet,jsons/VE125_randls_70_rotated.json,550904,789321,33,Man
149,212298,DepthScenes,duration_manipulation_targetAtFixation,jsons/VE125_randls_70_rotated.json,http://54.235.29.9/FacialAge/BNav_EC2/DepthDuration/v2_depth_duration_MTurk/v2_DepthDuration_HTML.html#40,40,1920,1080,1920,1080,8-21-2022,8-39-26,150,depth_duration_stimuli/002875_2014-06-01_15-19-00_094959634447_rgbf000151-resize_1/002875_2014-06-01_15-19-00_094959634447_rgbf000151-resize_1-target.png,125,1.9675,5,2771,124,feet,jsons/VE125_randls_70_rotated.json,550904,789321,33,Man
150,212298,DepthScenes,duration_manipulation_targetAtFixation,jsons/VE125_randls_70_rotated.json,http://54.235.29.9/FacialAge/BNav_EC2/DepthDuration/v2_depth_duration_MTurk/v2_DepthDuration_HTML.html#40,40,1920,1080,1920,1080,8-21-2022,8-39-26,151,depth_duration_stimuli/001011_2014-06-08_23-18-54_260595134347_rgbf000044-resize_4/001011_2014-06-08_23-18-54_260595134347_rgbf000044-resize_4-target.png,125,2.4730000000000003,6,2754,133,feet,jsons/VE125_randls_70_rotated.json,550904,789321,33,Man
151,212298,DepthScenes,duration_manipulation_targetAtFixation,jsons/VE125_randls_70_rotated.json,http://54.235.29.9/FacialAge/BNav_EC2/DepthDuration/v2_depth_duration_MTurk/v2_DepthDuration_HTML.html#40,40,1920,1080,1920,1080,8-21-2022,8-39-26,152,depth_duration_stimuli/000569_2014-06-09_22-51-47_260595134347_rgbf000141-resize_3/000569_2014-06-09_22-51-47_260595134347_rgbf000141-resize-original.jpg,125,4.512,0,2102,87,feet,jsons/VE125_randls_70_rotated.json,550904,789321,33,Man
152,212298,DepthScenes,duration_manipulation_targetAtFixation,jsons/VE125_randls_70_rotated.json,http://54.235.29.9/FacialAge/BNav_EC2/DepthDuration/v2_depth_duration_MTurk/v2_DepthDuration_HTML.html#40,40,1920,1080,1920,1080,8-21-2022,8-39-26,153,depth_duration_stimuli/002995_2014-06-15_12-31-26_094959634447_rgbf000150-resize_1/002995_2014-06-15_12-31-26_094959634447_rgbf000150-resize_1-target.png,125,3.8360000000000003,8,3229,125,feet,jsons/VE125_randls_70_rotated.json,550904,789321,33,Man
153,212298,DepthScenes,duration_manipulation_targetAtFixation,jsons/VE125_randls_70_rotated.json,http://54.235.29.9/FacialAge/BNav_EC2/DepthDuration/v2_depth_duration_MTurk/v2_DepthDuration_HTML.html#40,40,1920,1080,1920,1080,8-21-2022,8-39-26,154,depth_duration_stimuli/002748_2014-06-22_19-07-22_094959634447_rgbf000078-resize_1/002748_2014-06-22_19-07-22_094959634447_rgbf000078-resize_1-target.png,125,4.6705,14,3778,125,feet,jsons/VE125_randls_70_rotated.json,550904,789321,33,Man
154,212298,DepthScenes,duration_manipulation_targetAtFixation,jsons/VE125_randls_70_rotated.json,http://54.235.29.9/FacialAge/BNav_EC2/DepthDuration/v2_depth_duration_MTurk/v2_DepthDuration_HTML.html#40,40,1920,1080,1920,1080,8-21-2022,8-39-26,155,depth_duration_stimuli/001584_2014-06-20_11-07-43_260595134347_rgbf000002-resize_1/001584_2014-06-20_11-07-43_260595134347_rgbf000002-resize_1-target.png,125,3.53,8,3821,124,feet,jsons/VE125_randls_70_rotated.json,550904,789321,33,Man
155,212298,DepthScenes,duration_manipulation_targetAtFixation,jsons/VE125_randls_70_rotated.json,http://54.235.29.9/FacialAge/BNav_EC2/DepthDuration/v2_depth_duration_MTurk/v2_DepthDuration_HTML.html#40,40,1920,1080,1920,1080,8-21-2022,8-39-26,156,depth_duration_stimuli/003621_2014-05-23_18-06-08_094959634447_rgbf000101-resize_1/003621_2014-05-23_18-06-08_094959634447_rgbf000101-resize_1-target.png,125,3.9835,8,4296,119,feet,jsons/VE125_randls_70_rotated.json,550904,789321,33,Man
156,212298,DepthScenes,duration_manipulation_targetAtFixation,jsons/VE125_randls_70_rotated.json,http://54.235.29.9/FacialAge/BNav_EC2/DepthDuration/v2_depth_duration_MTurk/v2_DepthDuration_HTML.html#40,40,1920,1080,1920,1080,8-21-2022,8-39-26,157,depth_duration_stimuli/003129_2014-05-12_10-48-10_094959634447_rgbf000100-resize_0/003129_2014-05-12_10-48-10_094959634447_rgbf000100-resize_0-target.png,125,4.9305,12,5756,122,feet,jsons/VE125_randls_70_rotated.json,550904,789321,33,Man
157,212298,DepthScenes,duration_manipulation_targetAtFixation,jsons/VE125_randls_70_rotated.json,http://54.235.29.9/FacialAge/BNav_EC2/DepthDuration/v2_depth_duration_MTurk/v2_DepthDuration_HTML.html#40,40,1920,1080,1920,1080,8-21-2022,8-39-26,158,depth_duration_stimuli/000414_2014-06-04_19-49-13_260595134347_rgbf000044-resize_0/000414_2014-06-04_19-49-13_260595134347_rgbf000044-resize_0-target.png,125,4.329,15,3689,100,feet,jsons/VE125_randls_70_rotated.json,550904,789321,33,Man
158,212298,DepthScenes,duration_manipulation_targetAtFixation,jsons/VE125_randls_70_rotated.json,http://54.235.29.9/FacialAge/BNav_EC2/DepthDuration/v2_depth_duration_MTurk/v2_DepthDuration_HTML.html#40,40,1920,1080,1920,1080,8-21-2022,8-39-26,159,depth_duration_stimuli/003083_2014-06-15_15-21-03_094959634447_rgbf000063-resize_1/003083_2014-06-15_15-21-03_094959634447_rgbf000063-resize_1-target.png,125,4.1405,12,3208,125,feet,jsons/VE125_randls_70_rotated.json,550904,789321,33,Man
159,212298,DepthScenes,duration_manipulation_targetAtFixation,jsons/VE125_randls_70_rotated.json,http://54.235.29.9/FacialAge/BNav_EC2/DepthDuration/v2_depth_duration_MTurk/v2_DepthDuration_HTML.html#40,40,1920,1080,1920,1080,8-21-2022,8-39-26,160,depth_duration_stimuli/000486_2014-06-09_20-47-20_260595134347_rgbf000143-resize_2/000486_2014-06-09_20-47-20_260595134347_rgbf000143-resize_2-target.png,125,4.8325,12,4405,115,feet,jsons/VE125_randls_70_rotated.json,550904,789321,33,Man
160,212298,DepthScenes,duration_manipulation_targetAtFixation,jsons/VE125_randls_70_rotated.json,http://54.235.29.9/FacialAge/BNav_EC2/DepthDuration/v2_depth_duration_MTurk/v2_DepthDuration_HTML.html#40,40,1920,1080,1920,1080,8-21-2022,8-39-26,161,depth_duration_stimuli/001815_2014-06-26_20-52-55_260595134347_rgbf000020-resize_0/001815_2014-06-26_20-52-55_260595134347_rgbf000020-resize_0-target.png,125,3.3865,20,3783,173,feet,jsons/VE125_randls_70_rotated.json,550904,789321,33,Man
161,212298,DepthScenes,duration_manipulation_targetAtFixation,jsons/VE125_randls_70_rotated.json,http://54.235.29.9/FacialAge/BNav_EC2/DepthDuration/v2_depth_duration_MTurk/v2_DepthDuration_HTML.html#40,40,1920,1080,1920,1080,8-21-2022,8-39-26,162,depth_duration_stimuli/001808_2014-06-26_20-50-58_260595134347_rgbf000029-resize_1/001808_2014-06-26_20-50-58_260595134347_rgbf000029-resize_1-target.png,125,4.249,15,4421,126,feet,jsons/VE125_randls_70_rotated.json,550904,789321,33,Man
162,212298,DepthScenes,duration_manipulation_targetAtFixation,jsons/VE125_randls_70_rotated.json,http://54.235.29.9/FacialAge/BNav_EC2/DepthDuration/v2_depth_duration_MTurk/v2_DepthDuration_HTML.html#40,40,1920,1080,1920,1080,8-21-2022,8-39-26,163,depth_duration_stimuli/002344_2014-06-28_20-06-29_260595134347_rgbf000030-resize_1/002344_2014-06-28_20-06-29_260595134347_rgbf000030-resize_1-target.png,125,1.5795,2,3359,124,feet,jsons/VE125_randls_70_rotated.json,550904,789321,33,Man
163,212298,DepthScenes,duration_manipulation_targetAtFixation,jsons/VE125_randls_70_rotated.json,http://54.235.29.9/FacialAge/BNav_EC2/DepthDuration/v2_depth_duration_MTurk/v2_DepthDuration_HTML.html#40,40,1920,1080,1920,1080,8-21-2022,8-39-26,164,depth_duration_stimuli/002725_2014-06-22_11-47-51_094959634447_rgbf000070-resize_1/002725_2014-06-22_11-47-51_094959634447_rgbf000070-resize_1-target.png,125,2.195,10,3909,125,feet,jsons/VE125_randls_70_rotated.json,550904,789321,33,Man
