,subjID,experimentName,versionName,sequenceName,url,selected_row,windowWidth,windowHeight,screenWidth,screenHeight,startDate,startTime,trial,stimulus,duration,actual_depth,depth_estimate,trial_RT,log_sceneDuration,unitSelection,seq_filepath,experimentTime,totalTime,age,gender
0,213165,DepthScenes,duration_manipulation_targetAtFixation,jsons/VE125_randls_21.json,http://54.235.29.9/FacialAge/BNav_EC2/DepthDuration/v2_depth_duration_MTurk/v2_DepthDuration_HTML.html#407,407,1366,625,1366,768,9-18-2022,13-27-37,1,depth_duration_stimuli/000009_2014-05-26_14-32-05_260595134347_rgbf000034-resize_3/000009_2014-05-26_14-32-05_260595134347_rgbf000034-resize_3-target.png,125,3.8715,1.5,5913,112,meters,jsons/VE125_randls_21.json,1564762,1829530,55,Man
1,213165,DepthScenes,duration_manipulation_targetAtFixation,jsons/VE125_randls_21.json,http://54.235.29.9/FacialAge/BNav_EC2/DepthDuration/v2_depth_duration_MTurk/v2_DepthDuration_HTML.html#407,407,1366,625,1366,768,9-18-2022,13-27-37,2,depth_duration_stimuli/001828_2014-06-26_21-40-03_260595134347_rgbf000024-resize_0/001828_2014-06-26_21-40-03_260595134347_rgbf000024-resize_0-target.png,125,4.8260000000000005,0.5,10634,123,meters,jsons/VE125_randls_21.json,1564762,1829530,55,Man
2,213165,DepthScenes,duration_manipulation_targetAtFixation,jsons/VE125_randls_21.json,http://54.235.29.9/FacialAge/BNav_EC2/DepthDuration/v2_depth_duration_MTurk/v2_DepthDuration_HTML.html#407,407,1366,625,1366,768,9-18-2022,13-27-37,3,depth_duration_stimuli/001056_2014-06-08_18-46-44_260595134347_rgbf000068-resize_0/001056_2014-06-08_18-46-44_260595134347_rgbf000068-resize_0-target.png,125,2.6625,0.2,7510,111,meters,jsons/VE125_randls_21.json,1564762,1829530,55,Man
3,213165,DepthScenes,duration_manipulation_targetAtFixation,jsons/VE125_randls_21.json,http://54.235.29.9/FacialAge/BNav_EC2/DepthDuration/v2_depth_duration_MTurk/v2_DepthDuration_HTML.html#407,407,1366,625,1366,768,9-18-2022,13-27-37,4,depth_duration_stimuli/002199_2014-06-28_18-33-56_260595134347_rgbf000074-resize_0/002199_2014-06-28_18-33-56_260595134347_rgbf000074-resize_0-target.png,125,1.996,0.5,11374,123,meters,jsons/VE125_randls_21.json,1564762,1829530,55,Man
4,213165,DepthScenes,duration_manipulation_targetAtFixation,jsons/VE125_randls_21.json,http://54.235.29.9/FacialAge/BNav_EC2/DepthDuration/v2_depth_duration_MTurk/v2_DepthDuration_HTML.html#407,407,1366,625,1366,768,9-18-2022,13-27-37,5,depth_duration_stimuli/000469_2014-06-09_19-42-10_260595134347_rgbf000081-resize_1/000469_2014-06-09_19-42-10_260595134347_rgbf000081-resize_1-target.png,125,1.652,0.3,12302,121,meters,jsons/VE125_randls_21.json,1564762,1829530,55,Man
5,213165,DepthScenes,duration_manipulation_targetAtFixation,jsons/VE125_randls_21.json,http://54.235.29.9/FacialAge/BNav_EC2/DepthDuration/v2_depth_duration_MTurk/v2_DepthDuration_HTML.html#407,407,1366,625,1366,768,9-18-2022,13-27-37,6,depth_duration_stimuli/000483_2014-06-09_20-41-45_260595134347_rgbf000116-resize_4/000483_2014-06-09_20-41-45_260595134347_rgbf000116-resize_4-target.png,125,1.337,0.4,5896,123,meters,jsons/VE125_randls_21.json,1564762,1829530,55,Man
6,213165,DepthScenes,duration_manipulation_targetAtFixation,jsons/VE125_randls_21.json,http://54.235.29.9/FacialAge/BNav_EC2/DepthDuration/v2_depth_duration_MTurk/v2_DepthDuration_HTML.html#407,407,1366,625,1366,768,9-18-2022,13-27-37,7,depth_duration_stimuli/001175_2014-06-17_15-45-55_260595134347_rgbf000129-resize_4/001175_2014-06-17_15-45-55_260595134347_rgbf000129-resize_4-target.png,125,4.255,1.0,5193,120,meters,jsons/VE125_randls_21.json,1564762,1829530,55,Man
7,213165,DepthScenes,duration_manipulation_targetAtFixation,jsons/VE125_randls_21.json,http://54.235.29.9/FacialAge/BNav_EC2/DepthDuration/v2_depth_duration_MTurk/v2_DepthDuration_HTML.html#407,407,1366,625,1366,768,9-18-2022,13-27-37,8,depth_duration_stimuli/003490_2014-05-21_15-50-11_094959634447_rgbf000101-resize_3/003490_2014-05-21_15-50-11_094959634447_rgbf000101-resize_3-target.png,125,3.6445,0.3,6516,130,meters,jsons/VE125_randls_21.json,1564762,1829530,55,Man
8,213165,DepthScenes,duration_manipulation_targetAtFixation,jsons/VE125_randls_21.json,http://54.235.29.9/FacialAge/BNav_EC2/DepthDuration/v2_depth_duration_MTurk/v2_DepthDuration_HTML.html#407,407,1366,625,1366,768,9-18-2022,13-27-37,9,depth_duration_stimuli/002509_2014-06-24_13-19-22_094959634447_rgbf000077-resize_0/002509_2014-06-24_13-19-22_094959634447_rgbf000077-resize_0-target.png,125,1.3065,0.2,5550,136,meters,jsons/VE125_randls_21.json,1564762,1829530,55,Man
9,213165,DepthScenes,duration_manipulation_targetAtFixation,jsons/VE125_randls_21.json,http://54.235.29.9/FacialAge/BNav_EC2/DepthDuration/v2_depth_duration_MTurk/v2_DepthDuration_HTML.html#407,407,1366,625,1366,768,9-18-2022,13-27-37,10,depth_duration_stimuli/003338_2014-05-20_11-01-23_094959634447_rgbf000051-resize_6/003338_2014-05-20_11-01-23_094959634447_rgbf000051-resize_6-target.png,125,1.693,0.0,5731,122,meters,jsons/VE125_randls_21.json,1564762,1829530,55,Man
10,213165,DepthScenes,duration_manipulation_targetAtFixation,jsons/VE125_randls_21.json,http://54.235.29.9/FacialAge/BNav_EC2/DepthDuration/v2_depth_duration_MTurk/v2_DepthDuration_HTML.html#407,407,1366,625,1366,768,9-18-2022,13-27-37,11,depth_duration_stimuli/000493_2014-06-09_21-01-18_260595134347_rgbf000196-resize_3/000493_2014-06-09_21-01-18_260595134347_rgbf000196-resize_3-target.png,125,3.44,0.6,7939,123,meters,jsons/VE125_randls_21.json,1564762,1829530,55,Man
11,213165,DepthScenes,duration_manipulation_targetAtFixation,jsons/VE125_randls_21.json,http://54.235.29.9/FacialAge/BNav_EC2/DepthDuration/v2_depth_duration_MTurk/v2_DepthDuration_HTML.html#407,407,1366,625,1366,768,9-18-2022,13-27-37,12,depth_duration_stimuli/000191_2014-05-12_17-07-38_260595134347_rgbf000199-resize_0/000191_2014-05-12_17-07-38_260595134347_rgbf000199-resize_0-target.png,125,3.7995,0.3,5949,114,meters,jsons/VE125_randls_21.json,1564762,1829530,55,Man
12,213165,DepthScenes,duration_manipulation_targetAtFixation,jsons/VE125_randls_21.json,http://54.235.29.9/FacialAge/BNav_EC2/DepthDuration/v2_depth_duration_MTurk/v2_DepthDuration_HTML.html#407,407,1366,625,1366,768,9-18-2022,13-27-37,13,depth_duration_stimuli/000569_2014-06-09_22-51-47_260595134347_rgbf000141-resize_3/000569_2014-06-09_22-51-47_260595134347_rgbf000141-resize-original.jpg,125,4.512,0.0,3763,98,meters,jsons/VE125_randls_21.json,1564762,1829530,55,Man
13,213165,DepthScenes,duration_manipulation_targetAtFixation,jsons/VE125_randls_21.json,http://54.235.29.9/FacialAge/BNav_EC2/DepthDuration/v2_depth_duration_MTurk/v2_DepthDuration_HTML.html#407,407,1366,625,1366,768,9-18-2022,13-27-37,14,depth_duration_stimuli/001555_2014-06-20_17-12-10_260595134347_rgbf000065-resize_4/001555_2014-06-20_17-12-10_260595134347_rgbf000065-resize_4-target.png,125,1.633,0.2,6685,122,meters,jsons/VE125_randls_21.json,1564762,1829530,55,Man
14,213165,DepthScenes,duration_manipulation_targetAtFixation,jsons/VE125_randls_21.json,http://54.235.29.9/FacialAge/BNav_EC2/DepthDuration/v2_depth_duration_MTurk/v2_DepthDuration_HTML.html#407,407,1366,625,1366,768,9-18-2022,13-27-37,15,depth_duration_stimuli/000103_2014-05-14_22-01-17_260595134347_rgbf000152-resize_5/000103_2014-05-14_22-01-17_260595134347_rgbf000152-resize_5-target.png,125,1.993,0.5,5831,134,meters,jsons/VE125_randls_21.json,1564762,1829530,55,Man
15,213165,DepthScenes,duration_manipulation_targetAtFixation,jsons/VE125_randls_21.json,http://54.235.29.9/FacialAge/BNav_EC2/DepthDuration/v2_depth_duration_MTurk/v2_DepthDuration_HTML.html#407,407,1366,625,1366,768,9-18-2022,13-27-37,16,depth_duration_stimuli/000642_2014-06-08_16-59-25_260595134347_rgbf000098-resize_2/000642_2014-06-08_16-59-25_260595134347_rgbf000098-resize_2-target.png,125,2.8815,0.6,5200,116,meters,jsons/VE125_randls_21.json,1564762,1829530,55,Man
16,213165,DepthScenes,duration_manipulation_targetAtFixation,jsons/VE125_randls_21.json,http://54.235.29.9/FacialAge/BNav_EC2/DepthDuration/v2_depth_duration_MTurk/v2_DepthDuration_HTML.html#407,407,1366,625,1366,768,9-18-2022,13-27-37,17,depth_duration_stimuli/002425_2014-06-28_20-27-29_260595134347_rgbf000031-resize_8/002425_2014-06-28_20-27-29_260595134347_rgbf000031-resize_8-target.png,125,3.8960000000000004,0.2,5574,139,meters,jsons/VE125_randls_21.json,1564762,1829530,55,Man
17,213165,DepthScenes,duration_manipulation_targetAtFixation,jsons/VE125_randls_21.json,http://54.235.29.9/FacialAge/BNav_EC2/DepthDuration/v2_depth_duration_MTurk/v2_DepthDuration_HTML.html#407,407,1366,625,1366,768,9-18-2022,13-27-37,18,depth_duration_stimuli/001449_2014-06-19_17-01-27_260595134347_rgbf000116-resize_2/001449_2014-06-19_17-01-27_260595134347_rgbf000116-resize_2-target.png,125,3.452,0.5,6023,123,meters,jsons/VE125_randls_21.json,1564762,1829530,55,Man
18,213165,DepthScenes,duration_manipulation_targetAtFixation,jsons/VE125_randls_21.json,http://54.235.29.9/FacialAge/BNav_EC2/DepthDuration/v2_depth_duration_MTurk/v2_DepthDuration_HTML.html#407,407,1366,625,1366,768,9-18-2022,13-27-37,19,depth_duration_stimuli/001450_2014-06-19_17-02-03_260595134347_rgbf000203-resize_4/001450_2014-06-19_17-02-03_260595134347_rgbf000203-resize_4-target.png,125,4.0106666666667,0.02,13694,134,meters,jsons/VE125_randls_21.json,1564762,1829530,55,Man
19,213165,DepthScenes,duration_manipulation_targetAtFixation,jsons/VE125_randls_21.json,http://54.235.29.9/FacialAge/BNav_EC2/DepthDuration/v2_depth_duration_MTurk/v2_DepthDuration_HTML.html#407,407,1366,625,1366,768,9-18-2022,13-27-37,20,depth_duration_stimuli/001055_2014-06-08_18-45-35_260595134347_rgbf000111-resize_4/001055_2014-06-08_18-45-35_260595134347_rgbf000111-resize_4-target.png,125,2.4290000000000003,1.0,4363,121,meters,jsons/VE125_randls_21.json,1564762,1829530,55,Man
20,213165,DepthScenes,duration_manipulation_targetAtFixation,jsons/VE125_randls_21.json,http://54.235.29.9/FacialAge/BNav_EC2/DepthDuration/v2_depth_duration_MTurk/v2_DepthDuration_HTML.html#407,407,1366,625,1366,768,9-18-2022,13-27-37,21,depth_duration_stimuli/000549_2014-06-08_22-10-24_260595134347_rgbf000247-resize_3/000549_2014-06-08_22-10-24_260595134347_rgbf000247-resize_3-target.png,125,1.841,0.4,5419,118,meters,jsons/VE125_randls_21.json,1564762,1829530,55,Man
21,213165,DepthScenes,duration_manipulation_targetAtFixation,jsons/VE125_randls_21.json,http://54.235.29.9/FacialAge/BNav_EC2/DepthDuration/v2_depth_duration_MTurk/v2_DepthDuration_HTML.html#407,407,1366,625,1366,768,9-18-2022,13-27-37,22,depth_duration_stimuli/001011_2014-06-08_23-18-54_260595134347_rgbf000044-resize_4/001011_2014-06-08_23-18-54_260595134347_rgbf000044-resize_4-target.png,125,2.4730000000000003,0.3,4593,114,meters,jsons/VE125_randls_21.json,1564762,1829530,55,Man
22,213165,DepthScenes,duration_manipulation_targetAtFixation,jsons/VE125_randls_21.json,http://54.235.29.9/FacialAge/BNav_EC2/DepthDuration/v2_depth_duration_MTurk/v2_DepthDuration_HTML.html#407,407,1366,625,1366,768,9-18-2022,13-27-37,23,depth_duration_stimuli/002875_2014-06-01_15-19-00_094959634447_rgbf000151-resize_1/002875_2014-06-01_15-19-00_094959634447_rgbf000151-resize_1-target.png,125,1.9675,0.1,5376,118,meters,jsons/VE125_randls_21.json,1564762,1829530,55,Man
23,213165,DepthScenes,duration_manipulation_targetAtFixation,jsons/VE125_randls_21.json,http://54.235.29.9/FacialAge/BNav_EC2/DepthDuration/v2_depth_duration_MTurk/v2_DepthDuration_HTML.html#407,407,1366,625,1366,768,9-18-2022,13-27-37,24,depth_duration_stimuli/000758_2014-06-08_22-05-08_260595134347_rgbf000085-resize_0/000758_2014-06-08_22-05-08_260595134347_rgbf000085-resize_0-target.png,125,3.3810000000000002,0.6,5592,126,meters,jsons/VE125_randls_21.json,1564762,1829530,55,Man
24,213165,DepthScenes,duration_manipulation_targetAtFixation,jsons/VE125_randls_21.json,http://54.235.29.9/FacialAge/BNav_EC2/DepthDuration/v2_depth_duration_MTurk/v2_DepthDuration_HTML.html#407,407,1366,625,1366,768,9-18-2022,13-27-37,25,depth_duration_stimuli/000854_2014-06-09_19-43-13_260595134347_rgbf000066-resize_0/000854_2014-06-09_19-43-13_260595134347_rgbf000066-resize_0-target.png,125,3.068,0.4,5467,127,meters,jsons/VE125_randls_21.json,1564762,1829530,55,Man
25,213165,DepthScenes,duration_manipulation_targetAtFixation,jsons/VE125_randls_21.json,http://54.235.29.9/FacialAge/BNav_EC2/DepthDuration/v2_depth_duration_MTurk/v2_DepthDuration_HTML.html#407,407,1366,625,1366,768,9-18-2022,13-27-37,26,depth_duration_stimuli/000470_2014-06-09_19-42-40_260595134347_rgbf000094-resize_1/000470_2014-06-09_19-42-40_260595134347_rgbf000094-resize_1-target.png,125,1.831,0.4,23831,125,meters,jsons/VE125_randls_21.json,1564762,1829530,55,Man
26,213165,DepthScenes,duration_manipulation_targetAtFixation,jsons/VE125_randls_21.json,http://54.235.29.9/FacialAge/BNav_EC2/DepthDuration/v2_depth_duration_MTurk/v2_DepthDuration_HTML.html#407,407,1366,625,1366,768,9-18-2022,13-27-37,27,depth_duration_stimuli/000109_2014-05-14_23-41-52_260595134347_rgbf000035-resize_9/000109_2014-05-14_23-41-52_260595134347_rgbf000035-resize_9-target.png,125,1.3545,0.5,5208,120,meters,jsons/VE125_randls_21.json,1564762,1829530,55,Man
27,213165,DepthScenes,duration_manipulation_targetAtFixation,jsons/VE125_randls_21.json,http://54.235.29.9/FacialAge/BNav_EC2/DepthDuration/v2_depth_duration_MTurk/v2_DepthDuration_HTML.html#407,407,1366,625,1366,768,9-18-2022,13-27-37,28,depth_duration_stimuli/001244_2014-06-17_16-47-45_260595134347_rgbf000030-resize_4/001244_2014-06-17_16-47-45_260595134347_rgbf000030-resize_4-target.png,125,2.0425,0.6,6096,127,meters,jsons/VE125_randls_21.json,1564762,1829530,55,Man
28,213165,DepthScenes,duration_manipulation_targetAtFixation,jsons/VE125_randls_21.json,http://54.235.29.9/FacialAge/BNav_EC2/DepthDuration/v2_depth_duration_MTurk/v2_DepthDuration_HTML.html#407,407,1366,625,1366,768,9-18-2022,13-27-37,29,depth_duration_stimuli/003495_2014-05-21_16-01-51_094959634447_rgbf000100-resize_3/003495_2014-05-21_16-01-51_094959634447_rgbf000100-resize_3-target.png,125,1.6255,0.4,5817,195,meters,jsons/VE125_randls_21.json,1564762,1829530,55,Man
29,213165,DepthScenes,duration_manipulation_targetAtFixation,jsons/VE125_randls_21.json,http://54.235.29.9/FacialAge/BNav_EC2/DepthDuration/v2_depth_duration_MTurk/v2_DepthDuration_HTML.html#407,407,1366,625,1366,768,9-18-2022,13-27-37,30,depth_duration_stimuli/000375_2014-06-08_11-17-29_260595134347_rgbf000133-resize_2/000375_2014-06-08_11-17-29_260595134347_rgbf000133-resize-original.jpg,125,4.718,0.3,6614,106,meters,jsons/VE125_randls_21.json,1564762,1829530,55,Man
30,213165,DepthScenes,duration_manipulation_targetAtFixation,jsons/VE125_randls_21.json,http://54.235.29.9/FacialAge/BNav_EC2/DepthDuration/v2_depth_duration_MTurk/v2_DepthDuration_HTML.html#407,407,1366,625,1366,768,9-18-2022,13-27-37,31,depth_duration_stimuli/002905_2014-06-03_18-04-43_094959634447_rgbf000151-resize_2/002905_2014-06-03_18-04-43_094959634447_rgbf000151-resize_2-target.png,125,2.0295,0.4,5268,124,meters,jsons/VE125_randls_21.json,1564762,1829530,55,Man
31,213165,DepthScenes,duration_manipulation_targetAtFixation,jsons/VE125_randls_21.json,http://54.235.29.9/FacialAge/BNav_EC2/DepthDuration/v2_depth_duration_MTurk/v2_DepthDuration_HTML.html#407,407,1366,625,1366,768,9-18-2022,13-27-37,32,depth_duration_stimuli/003423_2014-05-21_10-23-26_094959634447_rgbf002665-resize_2/003423_2014-05-21_10-23-26_094959634447_rgbf002665-resize_2-target.png,125,3.2575,0.3,5568,122,meters,jsons/VE125_randls_21.json,1564762,1829530,55,Man
32,213165,DepthScenes,duration_manipulation_targetAtFixation,jsons/VE125_randls_21.json,http://54.235.29.9/FacialAge/BNav_EC2/DepthDuration/v2_depth_duration_MTurk/v2_DepthDuration_HTML.html#407,407,1366,625,1366,768,9-18-2022,13-27-37,33,depth_duration_stimuli/002118_2014-06-25_20-32-08_260595134347_rgbf000078-resize_1/002118_2014-06-25_20-32-08_260595134347_rgbf000078-resize_1-target.png,125,2.6460000000000004,0.4,5129,125,meters,jsons/VE125_randls_21.json,1564762,1829530,55,Man
33,213165,DepthScenes,duration_manipulation_targetAtFixation,jsons/VE125_randls_21.json,http://54.235.29.9/FacialAge/BNav_EC2/DepthDuration/v2_depth_duration_MTurk/v2_DepthDuration_HTML.html#407,407,1366,625,1366,768,9-18-2022,13-27-37,34,depth_duration_stimuli/001516_2014-06-20_16-25-09_260595134347_rgbf000076-resize_2/001516_2014-06-20_16-25-09_260595134347_rgbf000076-resize_2-target.png,125,1.7445,0.5,5700,122,meters,jsons/VE125_randls_21.json,1564762,1829530,55,Man
34,213165,DepthScenes,duration_manipulation_targetAtFixation,jsons/VE125_randls_21.json,http://54.235.29.9/FacialAge/BNav_EC2/DepthDuration/v2_depth_duration_MTurk/v2_DepthDuration_HTML.html#407,407,1366,625,1366,768,9-18-2022,13-27-37,35,depth_duration_stimuli/002153_2014-06-25_21-27-18_260595134347_rgbf000038-resize_5/002153_2014-06-25_21-27-18_260595134347_rgbf000038-resize_5-target.png,125,2.505,0.6,4877,111,meters,jsons/VE125_randls_21.json,1564762,1829530,55,Man
35,213165,DepthScenes,duration_manipulation_targetAtFixation,jsons/VE125_randls_21.json,http://54.235.29.9/FacialAge/BNav_EC2/DepthDuration/v2_depth_duration_MTurk/v2_DepthDuration_HTML.html#407,407,1366,625,1366,768,9-18-2022,13-27-37,36,depth_duration_stimuli/002660_2014-06-13_15-44-18_094959634447_rgbf001878-resize_2/002660_2014-06-13_15-44-18_094959634447_rgbf001878-resize_2-target.png,125,3.576,0.7,5452,119,meters,jsons/VE125_randls_21.json,1564762,1829530,55,Man
36,213165,DepthScenes,duration_manipulation_targetAtFixation,jsons/VE125_randls_21.json,http://54.235.29.9/FacialAge/BNav_EC2/DepthDuration/v2_depth_duration_MTurk/v2_DepthDuration_HTML.html#407,407,1366,625,1366,768,9-18-2022,13-27-37,37,depth_duration_stimuli/002600_2014-06-24_14-27-04_094959634447_rgbf000074-resize_2/002600_2014-06-24_14-27-04_094959634447_rgbf000074-resize_2-target.png,125,2.7575,0.3,4936,110,meters,jsons/VE125_randls_21.json,1564762,1829530,55,Man
37,213165,DepthScenes,duration_manipulation_targetAtFixation,jsons/VE125_randls_21.json,http://54.235.29.9/FacialAge/BNav_EC2/DepthDuration/v2_depth_duration_MTurk/v2_DepthDuration_HTML.html#407,407,1366,625,1366,768,9-18-2022,13-27-37,38,depth_duration_stimuli/003228_2014-05-14_13-42-35_094959634447_rgbf000101-resize_1/003228_2014-05-14_13-42-35_094959634447_rgbf000101-resize_1-target.png,125,1.9680000000000002,0.5,4911,125,meters,jsons/VE125_randls_21.json,1564762,1829530,55,Man
38,213165,DepthScenes,duration_manipulation_targetAtFixation,jsons/VE125_randls_21.json,http://54.235.29.9/FacialAge/BNav_EC2/DepthDuration/v2_depth_duration_MTurk/v2_DepthDuration_HTML.html#407,407,1366,625,1366,768,9-18-2022,13-27-37,39,depth_duration_stimuli/002964_2014-06-08_17-46-11_094959634447_rgbf000091-resize_4/002964_2014-06-08_17-46-11_094959634447_rgbf000091-resize_4-target.png,125,1.6909999999999998,0.4,4981,125,meters,jsons/VE125_randls_21.json,1564762,1829530,55,Man
39,213165,DepthScenes,duration_manipulation_targetAtFixation,jsons/VE125_randls_21.json,http://54.235.29.9/FacialAge/BNav_EC2/DepthDuration/v2_depth_duration_MTurk/v2_DepthDuration_HTML.html#407,407,1366,625,1366,768,9-18-2022,13-27-37,40,depth_duration_stimuli/002136_2014-06-25_21-18-03_260595134347_rgbf000109-resize_3/002136_2014-06-25_21-18-03_260595134347_rgbf000109-resize_3-target.png,125,1.9569999999999999,0.6,5139,125,meters,jsons/VE125_randls_21.json,1564762,1829530,55,Man
40,213165,DepthScenes,duration_manipulation_targetAtFixation,jsons/VE125_randls_21.json,http://54.235.29.9/FacialAge/BNav_EC2/DepthDuration/v2_depth_duration_MTurk/v2_DepthDuration_HTML.html#407,407,1366,625,1366,768,9-18-2022,13-27-37,41,depth_duration_stimuli/003070_2014-06-15_14-58-27_094959634447_rgbf000150-resize_3/003070_2014-06-15_14-58-27_094959634447_rgbf000150-resize_3-target.png,125,2.9415,0.5,5327,124,meters,jsons/VE125_randls_21.json,1564762,1829530,55,Man
41,213165,DepthScenes,duration_manipulation_targetAtFixation,jsons/VE125_randls_21.json,http://54.235.29.9/FacialAge/BNav_EC2/DepthDuration/v2_depth_duration_MTurk/v2_DepthDuration_HTML.html#407,407,1366,625,1366,768,9-18-2022,13-27-37,42,depth_duration_stimuli/000943_2014-06-09_19-31-07_260595134347_rgbf000128-resize_1/000943_2014-06-09_19-31-07_260595134347_rgbf000128-resize_1-target.png,125,1.9765,0.6,5615,122,meters,jsons/VE125_randls_21.json,1564762,1829530,55,Man
42,213165,DepthScenes,duration_manipulation_targetAtFixation,jsons/VE125_randls_21.json,http://54.235.29.9/FacialAge/BNav_EC2/DepthDuration/v2_depth_duration_MTurk/v2_DepthDuration_HTML.html#407,407,1366,625,1366,768,9-18-2022,13-27-37,43,depth_duration_stimuli/001150_2014-06-17_15-27-34_260595134347_rgbf000108-resize_2/001150_2014-06-17_15-27-34_260595134347_rgbf000108-resize_2-target.png,125,4.0325,0.5,7072,107,meters,jsons/VE125_randls_21.json,1564762,1829530,55,Man
43,213165,DepthScenes,duration_manipulation_targetAtFixation,jsons/VE125_randls_21.json,http://54.235.29.9/FacialAge/BNav_EC2/DepthDuration/v2_depth_duration_MTurk/v2_DepthDuration_HTML.html#407,407,1366,625,1366,768,9-18-2022,13-27-37,44,depth_duration_stimuli/000665_2014-06-09_20-42-35_260595134347_rgbf000110-resize_1/000665_2014-06-09_20-42-35_260595134347_rgbf000110-resize_1-target.png,125,3.057,0.77,6265,133,meters,jsons/VE125_randls_21.json,1564762,1829530,55,Man
44,213165,DepthScenes,duration_manipulation_targetAtFixation,jsons/VE125_randls_21.json,http://54.235.29.9/FacialAge/BNav_EC2/DepthDuration/v2_depth_duration_MTurk/v2_DepthDuration_HTML.html#407,407,1366,625,1366,768,9-18-2022,13-27-37,45,depth_duration_stimuli/000787_2014-06-08_22-33-53_260595134347_rgbf000175-resize_1/000787_2014-06-08_22-33-53_260595134347_rgbf000175-resize-original.jpg,125,4.784,0.0,7630,123,meters,jsons/VE125_randls_21.json,1564762,1829530,55,Man
45,213165,DepthScenes,duration_manipulation_targetAtFixation,jsons/VE125_randls_21.json,http://54.235.29.9/FacialAge/BNav_EC2/DepthDuration/v2_depth_duration_MTurk/v2_DepthDuration_HTML.html#407,407,1366,625,1366,768,9-18-2022,13-27-37,46,depth_duration_stimuli/001092_2014-06-15_17-34-58_260595134347_rgbf000171-resize_3/001092_2014-06-15_17-34-58_260595134347_rgbf000171-resize_3-target.png,125,2.6935,0.6,5332,123,meters,jsons/VE125_randls_21.json,1564762,1829530,55,Man
46,213165,DepthScenes,duration_manipulation_targetAtFixation,jsons/VE125_randls_21.json,http://54.235.29.9/FacialAge/BNav_EC2/DepthDuration/v2_depth_duration_MTurk/v2_DepthDuration_HTML.html#407,407,1366,625,1366,768,9-18-2022,13-27-37,47,depth_duration_stimuli/002545_2014-06-24_13-38-53_094959634447_rgbf000080-resize_4/002545_2014-06-24_13-38-53_094959634447_rgbf000080-resize_4-target.png,125,1.9205,0.4,6065,126,meters,jsons/VE125_randls_21.json,1564762,1829530,55,Man
47,213165,DepthScenes,duration_manipulation_targetAtFixation,jsons/VE125_randls_21.json,http://54.235.29.9/FacialAge/BNav_EC2/DepthDuration/v2_depth_duration_MTurk/v2_DepthDuration_HTML.html#407,407,1366,625,1366,768,9-18-2022,13-27-37,48,depth_duration_stimuli/002445_2014-06-28_20-32-16_260595134347_rgbf000029-resize_4/002445_2014-06-28_20-32-16_260595134347_rgbf000029-resize_4-target.png,125,2.5315,0.7,6228,125,meters,jsons/VE125_randls_21.json,1564762,1829530,55,Man
48,213165,DepthScenes,duration_manipulation_targetAtFixation,jsons/VE125_randls_21.json,http://54.235.29.9/FacialAge/BNav_EC2/DepthDuration/v2_depth_duration_MTurk/v2_DepthDuration_HTML.html#407,407,1366,625,1366,768,9-18-2022,13-27-37,49,depth_duration_stimuli/000780_2014-06-08_22-28-29_260595134347_rgbf000126-resize_1/000780_2014-06-08_22-28-29_260595134347_rgbf000126-resize_1-target.png,125,3.3825,0.9,5306,127,meters,jsons/VE125_randls_21.json,1564762,1829530,55,Man
49,213165,DepthScenes,duration_manipulation_targetAtFixation,jsons/VE125_randls_21.json,http://54.235.29.9/FacialAge/BNav_EC2/DepthDuration/v2_depth_duration_MTurk/v2_DepthDuration_HTML.html#407,407,1366,625,1366,768,9-18-2022,13-27-37,50,depth_duration_stimuli/001059_2014-06-08_21-53-27_260595134347_rgbf000061-resize_4/001059_2014-06-08_21-53-27_260595134347_rgbf000061-resize_4-target.png,125,2.4185,0.5,8075,26,meters,jsons/VE125_randls_21.json,1564762,1829530,55,Man
50,213165,DepthScenes,duration_manipulation_targetAtFixation,jsons/VE125_randls_21.json,http://54.235.29.9/FacialAge/BNav_EC2/DepthDuration/v2_depth_duration_MTurk/v2_DepthDuration_HTML.html#407,407,1366,625,1366,768,9-18-2022,13-27-37,51,depth_duration_stimuli/001032_2014-06-08_13-23-17_260595134347_rgbf000021-resize_3/001032_2014-06-08_13-23-17_260595134347_rgbf000021-resize_3-target.png,125,3.2725,0.6,4921,119,meters,jsons/VE125_randls_21.json,1564762,1829530,55,Man
51,213165,DepthScenes,duration_manipulation_targetAtFixation,jsons/VE125_randls_21.json,http://54.235.29.9/FacialAge/BNav_EC2/DepthDuration/v2_depth_duration_MTurk/v2_DepthDuration_HTML.html#407,407,1366,625,1366,768,9-18-2022,13-27-37,52,depth_duration_stimuli/003492_2014-05-21_15-50-55_094959634447_rgbf000828-resize_1/003492_2014-05-21_15-50-55_094959634447_rgbf000828-resize_1-target.png,125,4.06875,0.4,4770,109,meters,jsons/VE125_randls_21.json,1564762,1829530,55,Man
52,213165,DepthScenes,duration_manipulation_targetAtFixation,jsons/VE125_randls_21.json,http://54.235.29.9/FacialAge/BNav_EC2/DepthDuration/v2_depth_duration_MTurk/v2_DepthDuration_HTML.html#407,407,1366,625,1366,768,9-18-2022,13-27-37,53,depth_duration_stimuli/002568_2014-06-24_13-59-21_094959634447_rgbf000062-resize_4/002568_2014-06-24_13-59-21_094959634447_rgbf000062-resize_4-target.png,125,3.015,0.4,5079,101,meters,jsons/VE125_randls_21.json,1564762,1829530,55,Man
53,213165,DepthScenes,duration_manipulation_targetAtFixation,jsons/VE125_randls_21.json,http://54.235.29.9/FacialAge/BNav_EC2/DepthDuration/v2_depth_duration_MTurk/v2_DepthDuration_HTML.html#407,407,1366,625,1366,768,9-18-2022,13-27-37,54,depth_duration_stimuli/000447_2014-06-08_16-15-46_260595134347_rgbf000130-resize_1/000447_2014-06-08_16-15-46_260595134347_rgbf000130-resize_1-target.png,125,4.479,0.5,4772,126,meters,jsons/VE125_randls_21.json,1564762,1829530,55,Man
54,213165,DepthScenes,duration_manipulation_targetAtFixation,jsons/VE125_randls_21.json,http://54.235.29.9/FacialAge/BNav_EC2/DepthDuration/v2_depth_duration_MTurk/v2_DepthDuration_HTML.html#407,407,1366,625,1366,768,9-18-2022,13-27-37,55,depth_duration_stimuli/001447_2014-06-19_17-00-32_260595134347_rgbf000082-resize_5/001447_2014-06-19_17-00-32_260595134347_rgbf000082-resize_5-target.png,125,4.13775,0.6,4386,129,meters,jsons/VE125_randls_21.json,1564762,1829530,55,Man
55,213165,DepthScenes,duration_manipulation_targetAtFixation,jsons/VE125_randls_21.json,http://54.235.29.9/FacialAge/BNav_EC2/DepthDuration/v2_depth_duration_MTurk/v2_DepthDuration_HTML.html#407,407,1366,625,1366,768,9-18-2022,13-27-37,56,depth_duration_stimuli/003292_2014-05-14_21-53-49_094959634447_rgbf000100-resize_2/003292_2014-05-14_21-53-49_094959634447_rgbf000100-resize_2-target.png,125,3.4815,0.7,4316,120,meters,jsons/VE125_randls_21.json,1564762,1829530,55,Man
56,213165,DepthScenes,duration_manipulation_targetAtFixation,jsons/VE125_randls_21.json,http://54.235.29.9/FacialAge/BNav_EC2/DepthDuration/v2_depth_duration_MTurk/v2_DepthDuration_HTML.html#407,407,1366,625,1366,768,9-18-2022,13-27-37,57,depth_duration_stimuli/002639_2014-06-24_14-51-37_094959634447_rgbf000074-resize_4/002639_2014-06-24_14-51-37_094959634447_rgbf000074-resize_4-target.png,125,4.0375,1.0,4802,122,meters,jsons/VE125_randls_21.json,1564762,1829530,55,Man
57,213165,DepthScenes,duration_manipulation_targetAtFixation,jsons/VE125_randls_21.json,http://54.235.29.9/FacialAge/BNav_EC2/DepthDuration/v2_depth_duration_MTurk/v2_DepthDuration_HTML.html#407,407,1366,625,1366,768,9-18-2022,13-27-37,58,depth_duration_stimuli/002057_2014-06-24_21-00-13_260595134347_rgbf000120-resize_1/002057_2014-06-24_21-00-13_260595134347_rgbf000120-resize_1-target.png,125,2.967,0.5,4778,140,meters,jsons/VE125_randls_21.json,1564762,1829530,55,Man
58,213165,DepthScenes,duration_manipulation_targetAtFixation,jsons/VE125_randls_21.json,http://54.235.29.9/FacialAge/BNav_EC2/DepthDuration/v2_depth_duration_MTurk/v2_DepthDuration_HTML.html#407,407,1366,625,1366,768,9-18-2022,13-27-37,59,depth_duration_stimuli/000709_2014-06-08_13-51-55_260595134347_rgbf000068-resize_3/000709_2014-06-08_13-51-55_260595134347_rgbf000068-resize_3-target.png,125,1.8030000000000002,0.5,5356,118,meters,jsons/VE125_randls_21.json,1564762,1829530,55,Man
59,213165,DepthScenes,duration_manipulation_targetAtFixation,jsons/VE125_randls_21.json,http://54.235.29.9/FacialAge/BNav_EC2/DepthDuration/v2_depth_duration_MTurk/v2_DepthDuration_HTML.html#407,407,1366,625,1366,768,9-18-2022,13-27-37,60,depth_duration_stimuli/000736_2014-06-08_18-24-15_260595134347_rgbf000206-resize_3/000736_2014-06-08_18-24-15_260595134347_rgbf000206-resize_3-target.png,125,3.515,0.3,4895,125,meters,jsons/VE125_randls_21.json,1564762,1829530,55,Man
60,213165,DepthScenes,duration_manipulation_targetAtFixation,jsons/VE125_randls_21.json,http://54.235.29.9/FacialAge/BNav_EC2/DepthDuration/v2_depth_duration_MTurk/v2_DepthDuration_HTML.html#407,407,1366,625,1366,768,9-18-2022,13-27-37,61,depth_duration_stimuli/000137_2014-05-20_17-04-49_260595134347_rgbf000120-resize_1/000137_2014-05-20_17-04-49_260595134347_rgbf000120-resize_1-target.png,125,3.786,0.4,6014,125,meters,jsons/VE125_randls_21.json,1564762,1829530,55,Man
61,213165,DepthScenes,duration_manipulation_targetAtFixation,jsons/VE125_randls_21.json,http://54.235.29.9/FacialAge/BNav_EC2/DepthDuration/v2_depth_duration_MTurk/v2_DepthDuration_HTML.html#407,407,1366,625,1366,768,9-18-2022,13-27-37,62,depth_duration_stimuli/000788_2014-06-08_22-34-36_260595134347_rgbf000131-resize_1/000788_2014-06-08_22-34-36_260595134347_rgbf000131-resize_1-target.png,125,3.359,0.6,6300,130,meters,jsons/VE125_randls_21.json,1564762,1829530,55,Man
62,213165,DepthScenes,duration_manipulation_targetAtFixation,jsons/VE125_randls_21.json,http://54.235.29.9/FacialAge/BNav_EC2/DepthDuration/v2_depth_duration_MTurk/v2_DepthDuration_HTML.html#407,407,1366,625,1366,768,9-18-2022,13-27-37,63,depth_duration_stimuli/001235_2014-06-17_16-37-36_260595134347_rgbf000084-resize_4/001235_2014-06-17_16-37-36_260595134347_rgbf000084-resize_4-target.png,125,3.6605,0.0,4734,87,meters,jsons/VE125_randls_21.json,1564762,1829530,55,Man
63,213165,DepthScenes,duration_manipulation_targetAtFixation,jsons/VE125_randls_21.json,http://54.235.29.9/FacialAge/BNav_EC2/DepthDuration/v2_depth_duration_MTurk/v2_DepthDuration_HTML.html#407,407,1366,625,1366,768,9-18-2022,13-27-37,64,depth_duration_stimuli/002272_2014-06-28_18-53-56_260595134347_rgbf000067-resize_2/002272_2014-06-28_18-53-56_260595134347_rgbf000067-resize_2-target.png,125,1.138,0.2,5141,137,meters,jsons/VE125_randls_21.json,1564762,1829530,55,Man
64,213165,DepthScenes,duration_manipulation_targetAtFixation,jsons/VE125_randls_21.json,http://54.235.29.9/FacialAge/BNav_EC2/DepthDuration/v2_depth_duration_MTurk/v2_DepthDuration_HTML.html#407,407,1366,625,1366,768,9-18-2022,13-27-37,65,depth_duration_stimuli/001571_2014-06-20_17-21-32_260595134347_rgbf000089-resize_1/001571_2014-06-20_17-21-32_260595134347_rgbf000089-resize_1-target.png,125,1.86,0.4,4985,124,meters,jsons/VE125_randls_21.json,1564762,1829530,55,Man
65,213165,DepthScenes,duration_manipulation_targetAtFixation,jsons/VE125_randls_21.json,http://54.235.29.9/FacialAge/BNav_EC2/DepthDuration/v2_depth_duration_MTurk/v2_DepthDuration_HTML.html#407,407,1366,625,1366,768,9-18-2022,13-27-37,66,depth_duration_stimuli/001222_2014-06-17_16-24-06_260595134347_rgbf000073-resize_0/001222_2014-06-17_16-24-06_260595134347_rgbf000073-resize-original.jpg,125,1.4385,0.0,4541,125,meters,jsons/VE125_randls_21.json,1564762,1829530,55,Man
66,213165,DepthScenes,duration_manipulation_targetAtFixation,jsons/VE125_randls_21.json,http://54.235.29.9/FacialAge/BNav_EC2/DepthDuration/v2_depth_duration_MTurk/v2_DepthDuration_HTML.html#407,407,1366,625,1366,768,9-18-2022,13-27-37,67,depth_duration_stimuli/000739_2014-06-08_18-45-58_260595134347_rgbf000068-resize_1/000739_2014-06-08_18-45-58_260595134347_rgbf000068-resize_1-target.png,125,3.534,0.7,6877,134,meters,jsons/VE125_randls_21.json,1564762,1829530,55,Man
67,213165,DepthScenes,duration_manipulation_targetAtFixation,jsons/VE125_randls_21.json,http://54.235.29.9/FacialAge/BNav_EC2/DepthDuration/v2_depth_duration_MTurk/v2_DepthDuration_HTML.html#407,407,1366,625,1366,768,9-18-2022,13-27-37,68,depth_duration_stimuli/000734_2014-06-08_17-39-11_260595134347_rgbf000128-resize_2/000734_2014-06-08_17-39-11_260595134347_rgbf000128-resize_2-target.png,125,4.098,0.5,5281,123,meters,jsons/VE125_randls_21.json,1564762,1829530,55,Man
68,213165,DepthScenes,duration_manipulation_targetAtFixation,jsons/VE125_randls_21.json,http://54.235.29.9/FacialAge/BNav_EC2/DepthDuration/v2_depth_duration_MTurk/v2_DepthDuration_HTML.html#407,407,1366,625,1366,768,9-18-2022,13-27-37,69,depth_duration_stimuli/001016_2014-06-09_16-16-10_260595134347_rgbf000112-resize_5/001016_2014-06-09_16-16-10_260595134347_rgbf000112-resize_5-target.png,125,1.6565,0.4,4804,124,meters,jsons/VE125_randls_21.json,1564762,1829530,55,Man
69,213165,DepthScenes,duration_manipulation_targetAtFixation,jsons/VE125_randls_21.json,http://54.235.29.9/FacialAge/BNav_EC2/DepthDuration/v2_depth_duration_MTurk/v2_DepthDuration_HTML.html#407,407,1366,625,1366,768,9-18-2022,13-27-37,70,depth_duration_stimuli/002340_2014-06-28_20-05-46_260595134347_rgbf000113-resize_0/002340_2014-06-28_20-05-46_260595134347_rgbf000113-resize_0-target.png,125,2.4735,0.0,5209,127,meters,jsons/VE125_randls_21.json,1564762,1829530,55,Man
70,213165,DepthScenes,duration_manipulation_targetAtFixation,jsons/VE125_randls_21.json,http://54.235.29.9/FacialAge/BNav_EC2/DepthDuration/v2_depth_duration_MTurk/v2_DepthDuration_HTML.html#407,407,1366,625,1366,768,9-18-2022,13-27-37,71,depth_duration_stimuli/001110_2014-06-15_17-25-28_260595134347_rgbf000150-resize_1/001110_2014-06-15_17-25-28_260595134347_rgbf000150-resize_1-target.png,125,1.7115,0.3,6495,127,meters,jsons/VE125_randls_21.json,1564762,1829530,55,Man
71,213165,DepthScenes,duration_manipulation_targetAtFixation,jsons/VE125_randls_21.json,http://54.235.29.9/FacialAge/BNav_EC2/DepthDuration/v2_depth_duration_MTurk/v2_DepthDuration_HTML.html#407,407,1366,625,1366,768,9-18-2022,13-27-37,72,depth_duration_stimuli/000927_2014-06-09_16-32-30_260595134347_rgbf000123-resize_3/000927_2014-06-09_16-32-30_260595134347_rgbf000123-resize_3-target.png,125,2.6785,0.2,5655,130,meters,jsons/VE125_randls_21.json,1564762,1829530,55,Man
72,213165,DepthScenes,duration_manipulation_targetAtFixation,jsons/VE125_randls_21.json,http://54.235.29.9/FacialAge/BNav_EC2/DepthDuration/v2_depth_duration_MTurk/v2_DepthDuration_HTML.html#407,407,1366,625,1366,768,9-18-2022,13-27-37,73,depth_duration_stimuli/002375_2014-06-28_20-13-44_260595134347_rgbf000032-resize_1/002375_2014-06-28_20-13-44_260595134347_rgbf000032-resize_1-target.png,125,4.0175,0.4,5301,125,meters,jsons/VE125_randls_21.json,1564762,1829530,55,Man
73,213165,DepthScenes,duration_manipulation_targetAtFixation,jsons/VE125_randls_21.json,http://54.235.29.9/FacialAge/BNav_EC2/DepthDuration/v2_depth_duration_MTurk/v2_DepthDuration_HTML.html#407,407,1366,625,1366,768,9-18-2022,13-27-37,74,depth_duration_stimuli/002657_2014-06-13_15-29-54_094959634447_rgbf000150-resize_1/002657_2014-06-13_15-29-54_094959634447_rgbf000150-resize_1-target.png,125,4.919,0.3,6053,123,meters,jsons/VE125_randls_21.json,1564762,1829530,55,Man
74,213165,DepthScenes,duration_manipulation_targetAtFixation,jsons/VE125_randls_21.json,http://54.235.29.9/FacialAge/BNav_EC2/DepthDuration/v2_depth_duration_MTurk/v2_DepthDuration_HTML.html#407,407,1366,625,1366,768,9-18-2022,13-27-37,75,depth_duration_stimuli/000773_2014-06-08_22-24-54_260595134347_rgbf000093-resize_1/000773_2014-06-08_22-24-54_260595134347_rgbf000093-resize_1-target.png,125,4.973,0.2,7169,139,meters,jsons/VE125_randls_21.json,1564762,1829530,55,Man
75,213165,DepthScenes,duration_manipulation_targetAtFixation,jsons/VE125_randls_21.json,http://54.235.29.9/FacialAge/BNav_EC2/DepthDuration/v2_depth_duration_MTurk/v2_DepthDuration_HTML.html#407,407,1366,625,1366,768,9-18-2022,13-27-37,76,depth_duration_stimuli/002414_2014-06-28_20-24-58_260595134347_rgbf000067-resize_4/002414_2014-06-28_20-24-58_260595134347_rgbf000067-resize_4-target.png,125,4.363,0.5,8101,123,meters,jsons/VE125_randls_21.json,1564762,1829530,55,Man
76,213165,DepthScenes,duration_manipulation_targetAtFixation,jsons/VE125_randls_21.json,http://54.235.29.9/FacialAge/BNav_EC2/DepthDuration/v2_depth_duration_MTurk/v2_DepthDuration_HTML.html#407,407,1366,625,1366,768,9-18-2022,13-27-37,77,depth_duration_stimuli/000436_2014-06-09_22-25-11_260595134347_rgbf000137-resize_1/000436_2014-06-09_22-25-11_260595134347_rgbf000137-resize_1-target.png,125,4.0705,0.5,11658,133,meters,jsons/VE125_randls_21.json,1564762,1829530,55,Man
77,213165,DepthScenes,duration_manipulation_targetAtFixation,jsons/VE125_randls_21.json,http://54.235.29.9/FacialAge/BNav_EC2/DepthDuration/v2_depth_duration_MTurk/v2_DepthDuration_HTML.html#407,407,1366,625,1366,768,9-18-2022,13-27-37,78,depth_duration_stimuli/002444_2014-06-28_20-32-08_260595134347_rgbf000027-resize_0/002444_2014-06-28_20-32-08_260595134347_rgbf000027-resize_0-target.png,125,4.388999999999999,0.0,6382,267,meters,jsons/VE125_randls_21.json,1564762,1829530,55,Man
78,213165,DepthScenes,duration_manipulation_targetAtFixation,jsons/VE125_randls_21.json,http://54.235.29.9/FacialAge/BNav_EC2/DepthDuration/v2_depth_duration_MTurk/v2_DepthDuration_HTML.html#407,407,1366,625,1366,768,9-18-2022,13-27-37,79,depth_duration_stimuli/002570_2014-06-24_13-59-54_094959634447_rgbf000059-resize_0/002570_2014-06-24_13-59-54_094959634447_rgbf000059-resize_0-target.png,125,4.037,0.4,6682,109,meters,jsons/VE125_randls_21.json,1564762,1829530,55,Man
79,213165,DepthScenes,duration_manipulation_targetAtFixation,jsons/VE125_randls_21.json,http://54.235.29.9/FacialAge/BNav_EC2/DepthDuration/v2_depth_duration_MTurk/v2_DepthDuration_HTML.html#407,407,1366,625,1366,768,9-18-2022,13-27-37,80,depth_duration_stimuli/002467_2014-06-28_20-38-07_260595134347_rgbf000026-resize_2/002467_2014-06-28_20-38-07_260595134347_rgbf000026-resize_2-target.png,125,4.742,0.3,11420,123,meters,jsons/VE125_randls_21.json,1564762,1829530,55,Man
80,213165,DepthScenes,duration_manipulation_targetAtFixation,jsons/VE125_randls_21.json,http://54.235.29.9/FacialAge/BNav_EC2/DepthDuration/v2_depth_duration_MTurk/v2_DepthDuration_HTML.html#407,407,1366,625,1366,768,9-18-2022,13-27-37,81,depth_duration_stimuli/002725_2014-06-22_11-47-51_094959634447_rgbf000070-resize_1/002725_2014-06-22_11-47-51_094959634447_rgbf000070-resize_1-target.png,125,2.195,0.2,6443,124,meters,jsons/VE125_randls_21.json,1564762,1829530,55,Man
81,213165,DepthScenes,duration_manipulation_targetAtFixation,jsons/VE125_randls_21.json,http://54.235.29.9/FacialAge/BNav_EC2/DepthDuration/v2_depth_duration_MTurk/v2_DepthDuration_HTML.html#407,407,1366,625,1366,768,9-18-2022,13-27-37,82,depth_duration_stimuli/002344_2014-06-28_20-06-29_260595134347_rgbf000030-resize_1/002344_2014-06-28_20-06-29_260595134347_rgbf000030-resize_1-target.png,125,1.5795,0.4,7812,123,meters,jsons/VE125_randls_21.json,1564762,1829530,55,Man
82,213165,DepthScenes,duration_manipulation_targetAtFixation,jsons/VE125_randls_21.json,http://54.235.29.9/FacialAge/BNav_EC2/DepthDuration/v2_depth_duration_MTurk/v2_DepthDuration_HTML.html#407,407,1366,625,1366,768,9-18-2022,13-27-37,83,depth_duration_stimuli/003534_2014-05-22_15-06-10_094959634447_rgbf000102-resize_4/003534_2014-05-22_15-06-10_094959634447_rgbf000102-resize_4-target.png,125,1.426,0.1,5631,43,meters,jsons/VE125_randls_21.json,1564762,1829530,55,Man
83,213165,DepthScenes,duration_manipulation_targetAtFixation,jsons/VE125_randls_21.json,http://54.235.29.9/FacialAge/BNav_EC2/DepthDuration/v2_depth_duration_MTurk/v2_DepthDuration_HTML.html#407,407,1366,625,1366,768,9-18-2022,13-27-37,84,depth_duration_stimuli/002637_2014-06-24_14-51-13_094959634447_rgbf000066-resize_4/002637_2014-06-24_14-51-13_094959634447_rgbf000066-resize_4-target.png,125,1.9955,0.3,5242,111,meters,jsons/VE125_randls_21.json,1564762,1829530,55,Man
84,213165,DepthScenes,duration_manipulation_targetAtFixation,jsons/VE125_randls_21.json,http://54.235.29.9/FacialAge/BNav_EC2/DepthDuration/v2_depth_duration_MTurk/v2_DepthDuration_HTML.html#407,407,1366,625,1366,768,9-18-2022,13-27-37,85,depth_duration_stimuli/000878_2014-06-08_22-52-45_260595134347_rgbf000045-resize_2/000878_2014-06-08_22-52-45_260595134347_rgbf000045-resize_2-target.png,125,2.092,0.6,5008,135,meters,jsons/VE125_randls_21.json,1564762,1829530,55,Man
85,213165,DepthScenes,duration_manipulation_targetAtFixation,jsons/VE125_randls_21.json,http://54.235.29.9/FacialAge/BNav_EC2/DepthDuration/v2_depth_duration_MTurk/v2_DepthDuration_HTML.html#407,407,1366,625,1366,768,9-18-2022,13-27-37,86,depth_duration_stimuli/002953_2014-06-08_17-32-18_094959634447_rgbf000059-resize_5/002953_2014-06-08_17-32-18_094959634447_rgbf000059-resize_5-target.png,125,1.551,0.4,5147,121,meters,jsons/VE125_randls_21.json,1564762,1829530,55,Man
86,213165,DepthScenes,duration_manipulation_targetAtFixation,jsons/VE125_randls_21.json,http://54.235.29.9/FacialAge/BNav_EC2/DepthDuration/v2_depth_duration_MTurk/v2_DepthDuration_HTML.html#407,407,1366,625,1366,768,9-18-2022,13-27-37,87,depth_duration_stimuli/001133_2014-06-17_14-49-16_260595134347_rgbf000100-resize_0/001133_2014-06-17_14-49-16_260595134347_rgbf000100-resize_0-target.png,125,4.2115,0.3,4702,126,meters,jsons/VE125_randls_21.json,1564762,1829530,55,Man
87,213165,DepthScenes,duration_manipulation_targetAtFixation,jsons/VE125_randls_21.json,http://54.235.29.9/FacialAge/BNav_EC2/DepthDuration/v2_depth_duration_MTurk/v2_DepthDuration_HTML.html#407,407,1366,625,1366,768,9-18-2022,13-27-37,88,depth_duration_stimuli/001132_2014-06-17_14-48-54_260595134347_rgbf000100-resize_2/001132_2014-06-17_14-48-54_260595134347_rgbf000100-resize_2-target.png,125,3.753,0.5,20175,122,meters,jsons/VE125_randls_21.json,1564762,1829530,55,Man
88,213165,DepthScenes,duration_manipulation_targetAtFixation,jsons/VE125_randls_21.json,http://54.235.29.9/FacialAge/BNav_EC2/DepthDuration/v2_depth_duration_MTurk/v2_DepthDuration_HTML.html#407,407,1366,625,1366,768,9-18-2022,13-27-37,89,depth_duration_stimuli/002788_2014-06-22_19-36-03_094959634447_rgbf000088-resize_2/002788_2014-06-22_19-36-03_094959634447_rgbf000088-resize_2-target.png,125,1.6465,0.5,37696,138,meters,jsons/VE125_randls_21.json,1564762,1829530,55,Man
89,213165,DepthScenes,duration_manipulation_targetAtFixation,jsons/VE125_randls_21.json,http://54.235.29.9/FacialAge/BNav_EC2/DepthDuration/v2_depth_duration_MTurk/v2_DepthDuration_HTML.html#407,407,1366,625,1366,768,9-18-2022,13-27-37,90,depth_duration_stimuli/000749_2014-06-08_21-55-06_260595134347_rgbf000070-resize_2/000749_2014-06-08_21-55-06_260595134347_rgbf000070-resize_2-target.png,125,2.331,0.6,10443,107,meters,jsons/VE125_randls_21.json,1564762,1829530,55,Man
90,213165,DepthScenes,duration_manipulation_targetAtFixation,jsons/VE125_randls_21.json,http://54.235.29.9/FacialAge/BNav_EC2/DepthDuration/v2_depth_duration_MTurk/v2_DepthDuration_HTML.html#407,407,1366,625,1366,768,9-18-2022,13-27-37,91,depth_duration_stimuli/002988_2014-06-15_12-24-20_094959634447_rgbf000150-resize_1/002988_2014-06-15_12-24-20_094959634447_rgbf000150-resize_1-target.png,125,4.7669999999999995,0.5,43050,119,meters,jsons/VE125_randls_21.json,1564762,1829530,55,Man
91,213165,DepthScenes,duration_manipulation_targetAtFixation,jsons/VE125_randls_21.json,http://54.235.29.9/FacialAge/BNav_EC2/DepthDuration/v2_depth_duration_MTurk/v2_DepthDuration_HTML.html#407,407,1366,625,1366,768,9-18-2022,13-27-37,92,depth_duration_stimuli/001052_2014-06-08_18-24-54_260595134347_rgbf000130-resize_1/001052_2014-06-08_18-24-54_260595134347_rgbf000130-resize_1-target.png,125,4.1045,0.5,9251,122,meters,jsons/VE125_randls_21.json,1564762,1829530,55,Man
92,213165,DepthScenes,duration_manipulation_targetAtFixation,jsons/VE125_randls_21.json,http://54.235.29.9/FacialAge/BNav_EC2/DepthDuration/v2_depth_duration_MTurk/v2_DepthDuration_HTML.html#407,407,1366,625,1366,768,9-18-2022,13-27-37,93,depth_duration_stimuli/000368_2014-06-09_15-53-01_260595134347_rgbf000155-resize_2/000368_2014-06-09_15-53-01_260595134347_rgbf000155-resize_2-target.png,125,2.4859999999999998,0.6,6722,111,meters,jsons/VE125_randls_21.json,1564762,1829530,55,Man
93,213165,DepthScenes,duration_manipulation_targetAtFixation,jsons/VE125_randls_21.json,http://54.235.29.9/FacialAge/BNav_EC2/DepthDuration/v2_depth_duration_MTurk/v2_DepthDuration_HTML.html#407,407,1366,625,1366,768,9-18-2022,13-27-37,94,depth_duration_stimuli/002678_2014-06-13_16-15-32_094959634447_rgbf000151-resize_6/002678_2014-06-13_16-15-32_094959634447_rgbf000151-resize_6-target.png,125,2.1830000000000003,0.5,37301,124,meters,jsons/VE125_randls_21.json,1564762,1829530,55,Man
94,213165,DepthScenes,duration_manipulation_targetAtFixation,jsons/VE125_randls_21.json,http://54.235.29.9/FacialAge/BNav_EC2/DepthDuration/v2_depth_duration_MTurk/v2_DepthDuration_HTML.html#407,407,1366,625,1366,768,9-18-2022,13-27-37,95,depth_duration_stimuli/001066_2014-06-08_22-03-20_260595134347_rgbf000066-resize_4/001066_2014-06-08_22-03-20_260595134347_rgbf000066-resize_4-target.png,125,4.2330000000000005,0.4,5481,125,meters,jsons/VE125_randls_21.json,1564762,1829530,55,Man
95,213165,DepthScenes,duration_manipulation_targetAtFixation,jsons/VE125_randls_21.json,http://54.235.29.9/FacialAge/BNav_EC2/DepthDuration/v2_depth_duration_MTurk/v2_DepthDuration_HTML.html#407,407,1366,625,1366,768,9-18-2022,13-27-37,96,depth_duration_stimuli/000742_2014-06-08_18-48-09_260595134347_rgbf000164-resize_4/000742_2014-06-08_18-48-09_260595134347_rgbf000164-resize_4-target.png,125,4.632,0.4,98659,125,meters,jsons/VE125_randls_21.json,1564762,1829530,55,Man
96,213165,DepthScenes,duration_manipulation_targetAtFixation,jsons/VE125_randls_21.json,http://54.235.29.9/FacialAge/BNav_EC2/DepthDuration/v2_depth_duration_MTurk/v2_DepthDuration_HTML.html#407,407,1366,625,1366,768,9-18-2022,13-27-37,97,depth_duration_stimuli/001808_2014-06-26_20-50-58_260595134347_rgbf000029-resize_1/001808_2014-06-26_20-50-58_260595134347_rgbf000029-resize_1-target.png,125,4.249,0.6,6300,130,meters,jsons/VE125_randls_21.json,1564762,1829530,55,Man
97,213165,DepthScenes,duration_manipulation_targetAtFixation,jsons/VE125_randls_21.json,http://54.235.29.9/FacialAge/BNav_EC2/DepthDuration/v2_depth_duration_MTurk/v2_DepthDuration_HTML.html#407,407,1366,625,1366,768,9-18-2022,13-27-37,98,depth_duration_stimuli/001815_2014-06-26_20-52-55_260595134347_rgbf000020-resize_0/001815_2014-06-26_20-52-55_260595134347_rgbf000020-resize_0-target.png,125,3.3865,0.6,17737,109,meters,jsons/VE125_randls_21.json,1564762,1829530,55,Man
98,213165,DepthScenes,duration_manipulation_targetAtFixation,jsons/VE125_randls_21.json,http://54.235.29.9/FacialAge/BNav_EC2/DepthDuration/v2_depth_duration_MTurk/v2_DepthDuration_HTML.html#407,407,1366,625,1366,768,9-18-2022,13-27-37,99,depth_duration_stimuli/001540_2014-06-20_17-01-05_260595134347_rgbf000086-resize_2/001540_2014-06-20_17-01-05_260595134347_rgbf000086-resize-original.jpg,125,1.459,0.0,5081,118,meters,jsons/VE125_randls_21.json,1564762,1829530,55,Man
99,213165,DepthScenes,duration_manipulation_targetAtFixation,jsons/VE125_randls_21.json,http://54.235.29.9/FacialAge/BNav_EC2/DepthDuration/v2_depth_duration_MTurk/v2_DepthDuration_HTML.html#407,407,1366,625,1366,768,9-18-2022,13-27-37,100,depth_duration_stimuli/002763_2014-06-22_19-13-10_094959634447_rgbf000075-resize_4/002763_2014-06-22_19-13-10_094959634447_rgbf000075-resize_4-target.png,125,1.68375,0.4,6045,121,meters,jsons/VE125_randls_21.json,1564762,1829530,55,Man
100,213165,DepthScenes,duration_manipulation_targetAtFixation,jsons/VE125_randls_21.json,http://54.235.29.9/FacialAge/BNav_EC2/DepthDuration/v2_depth_duration_MTurk/v2_DepthDuration_HTML.html#407,407,1366,625,1366,768,9-18-2022,13-27-37,101,depth_duration_stimuli/002209_2014-06-28_18-36-10_260595134347_rgbf000051-resize_1/002209_2014-06-28_18-36-10_260595134347_rgbf000051-resize_1-target.png,125,2.057,0.2,6086,120,meters,jsons/VE125_randls_21.json,1564762,1829530,55,Man
101,213165,DepthScenes,duration_manipulation_targetAtFixation,jsons/VE125_randls_21.json,http://54.235.29.9/FacialAge/BNav_EC2/DepthDuration/v2_depth_duration_MTurk/v2_DepthDuration_HTML.html#407,407,1366,625,1366,768,9-18-2022,13-27-37,102,depth_duration_stimuli/000682_2014-06-08_23-14-58_260595134347_rgbf000041-resize_5/000682_2014-06-08_23-14-58_260595134347_rgbf000041-resize_5-target.png,125,2.7239999999999998,0.5,7872,110,meters,jsons/VE125_randls_21.json,1564762,1829530,55,Man
102,213165,DepthScenes,duration_manipulation_targetAtFixation,jsons/VE125_randls_21.json,http://54.235.29.9/FacialAge/BNav_EC2/DepthDuration/v2_depth_duration_MTurk/v2_DepthDuration_HTML.html#407,407,1366,625,1366,768,9-18-2022,13-27-37,103,depth_duration_stimuli/001650_2014-06-20_12-09-00_260595134347_rgbf000087-resize_3/001650_2014-06-20_12-09-00_260595134347_rgbf000087-resize_3-target.png,125,1.9505,0.3,9284,117,meters,jsons/VE125_randls_21.json,1564762,1829530,55,Man
103,213165,DepthScenes,duration_manipulation_targetAtFixation,jsons/VE125_randls_21.json,http://54.235.29.9/FacialAge/BNav_EC2/DepthDuration/v2_depth_duration_MTurk/v2_DepthDuration_HTML.html#407,407,1366,625,1366,768,9-18-2022,13-27-37,104,depth_duration_stimuli/001164_2014-06-17_15-35-46_260595134347_rgbf000085-resize_3/001164_2014-06-17_15-35-46_260595134347_rgbf000085-resize_3-target.png,125,2.354,0.6,5384,110,meters,jsons/VE125_randls_21.json,1564762,1829530,55,Man
104,213165,DepthScenes,duration_manipulation_targetAtFixation,jsons/VE125_randls_21.json,http://54.235.29.9/FacialAge/BNav_EC2/DepthDuration/v2_depth_duration_MTurk/v2_DepthDuration_HTML.html#407,407,1366,625,1366,768,9-18-2022,13-27-37,105,depth_duration_stimuli/001136_2014-06-17_15-19-41_260595134347_rgbf000076-resize_3/001136_2014-06-17_15-19-41_260595134347_rgbf000076-resize_3-target.png,125,1.8655,0.5,22616,127,meters,jsons/VE125_randls_21.json,1564762,1829530,55,Man
105,213165,DepthScenes,duration_manipulation_targetAtFixation,jsons/VE125_randls_21.json,http://54.235.29.9/FacialAge/BNav_EC2/DepthDuration/v2_depth_duration_MTurk/v2_DepthDuration_HTML.html#407,407,1366,625,1366,768,9-18-2022,13-27-37,106,depth_duration_stimuli/002039_2014-06-24_20-22-38_260595134347_rgbf000084-resize_1/002039_2014-06-24_20-22-38_260595134347_rgbf000084-resize_1-target.png,125,4.408,0.7,76121,124,meters,jsons/VE125_randls_21.json,1564762,1829530,55,Man
106,213165,DepthScenes,duration_manipulation_targetAtFixation,jsons/VE125_randls_21.json,http://54.235.29.9/FacialAge/BNav_EC2/DepthDuration/v2_depth_duration_MTurk/v2_DepthDuration_HTML.html#407,407,1366,625,1366,768,9-18-2022,13-27-37,107,depth_duration_stimuli/002103_2014-06-25_20-00-40_260595134347_rgbf000049-resize_0/002103_2014-06-25_20-00-40_260595134347_rgbf000049-resize_0-target.png,125,4.105,0.5,5512,133,meters,jsons/VE125_randls_21.json,1564762,1829530,55,Man
107,213165,DepthScenes,duration_manipulation_targetAtFixation,jsons/VE125_randls_21.json,http://54.235.29.9/FacialAge/BNav_EC2/DepthDuration/v2_depth_duration_MTurk/v2_DepthDuration_HTML.html#407,407,1366,625,1366,768,9-18-2022,13-27-37,108,depth_duration_stimuli/001158_2014-06-17_15-32-16_260595134347_rgbf000138-resize_2/001158_2014-06-17_15-32-16_260595134347_rgbf000138-resize_2-target.png,125,4.5315,0.5,7551,133,meters,jsons/VE125_randls_21.json,1564762,1829530,55,Man
108,213165,DepthScenes,duration_manipulation_targetAtFixation,jsons/VE125_randls_21.json,http://54.235.29.9/FacialAge/BNav_EC2/DepthDuration/v2_depth_duration_MTurk/v2_DepthDuration_HTML.html#407,407,1366,625,1366,768,9-18-2022,13-27-37,109,depth_duration_stimuli/000556_2014-06-09_22-42-56_260595134347_rgbf000214-resize_1/000556_2014-06-09_22-42-56_260595134347_rgbf000214-resize_1-target.png,125,4.8415,0.4,6175,122,meters,jsons/VE125_randls_21.json,1564762,1829530,55,Man
109,213165,DepthScenes,duration_manipulation_targetAtFixation,jsons/VE125_randls_21.json,http://54.235.29.9/FacialAge/BNav_EC2/DepthDuration/v2_depth_duration_MTurk/v2_DepthDuration_HTML.html#407,407,1366,625,1366,768,9-18-2022,13-27-37,110,depth_duration_stimuli/002549_2014-06-24_13-41-39_094959634447_rgbf000022-resize_3/002549_2014-06-24_13-41-39_094959634447_rgbf000022-resize_3-target.png,125,1.476,0.6,6582,125,meters,jsons/VE125_randls_21.json,1564762,1829530,55,Man
110,213165,DepthScenes,duration_manipulation_targetAtFixation,jsons/VE125_randls_21.json,http://54.235.29.9/FacialAge/BNav_EC2/DepthDuration/v2_depth_duration_MTurk/v2_DepthDuration_HTML.html#407,407,1366,625,1366,768,9-18-2022,13-27-37,111,depth_duration_stimuli/002750_2014-06-22_19-08-03_094959634447_rgbf000094-resize_4/002750_2014-06-22_19-08-03_094959634447_rgbf000094-resize_4-target.png,125,2.354,0.6,5138,122,meters,jsons/VE125_randls_21.json,1564762,1829530,55,Man
111,213165,DepthScenes,duration_manipulation_targetAtFixation,jsons/VE125_randls_21.json,http://54.235.29.9/FacialAge/BNav_EC2/DepthDuration/v2_depth_duration_MTurk/v2_DepthDuration_HTML.html#407,407,1366,625,1366,768,9-18-2022,13-27-37,112,depth_duration_stimuli/001570_2014-06-20_17-21-09_260595134347_rgbf000135-resize_4/001570_2014-06-20_17-21-09_260595134347_rgbf000135-resize_4-target.png,125,4.467,0.5,5544,130,meters,jsons/VE125_randls_21.json,1564762,1829530,55,Man
112,213165,DepthScenes,duration_manipulation_targetAtFixation,jsons/VE125_randls_21.json,http://54.235.29.9/FacialAge/BNav_EC2/DepthDuration/v2_depth_duration_MTurk/v2_DepthDuration_HTML.html#407,407,1366,625,1366,768,9-18-2022,13-27-37,113,depth_duration_stimuli/001392_2014-06-19_16-07-59_260595134347_rgbf000046-resize_1/001392_2014-06-19_16-07-59_260595134347_rgbf000046-resize_1-target.png,125,4.135,0.4,6348,120,meters,jsons/VE125_randls_21.json,1564762,1829530,55,Man
113,213165,DepthScenes,duration_manipulation_targetAtFixation,jsons/VE125_randls_21.json,http://54.235.29.9/FacialAge/BNav_EC2/DepthDuration/v2_depth_duration_MTurk/v2_DepthDuration_HTML.html#407,407,1366,625,1366,768,9-18-2022,13-27-37,114,depth_duration_stimuli/001810_2014-06-26_20-51-35_260595134347_rgbf000040-resize_3/001810_2014-06-26_20-51-35_260595134347_rgbf000040-resize_3-target.png,125,2.2525,0.3,14446,124,meters,jsons/VE125_randls_21.json,1564762,1829530,55,Man
114,213165,DepthScenes,duration_manipulation_targetAtFixation,jsons/VE125_randls_21.json,http://54.235.29.9/FacialAge/BNav_EC2/DepthDuration/v2_depth_duration_MTurk/v2_DepthDuration_HTML.html#407,407,1366,625,1366,768,9-18-2022,13-27-37,115,depth_duration_stimuli/003010_2014-06-15_12-54-35_094959634447_rgbf000112-resize_0/003010_2014-06-15_12-54-35_094959634447_rgbf000112-resize_0-target.png,125,3.1185,1.0,4620,123,meters,jsons/VE125_randls_21.json,1564762,1829530,55,Man
115,213165,DepthScenes,duration_manipulation_targetAtFixation,jsons/VE125_randls_21.json,http://54.235.29.9/FacialAge/BNav_EC2/DepthDuration/v2_depth_duration_MTurk/v2_DepthDuration_HTML.html#407,407,1366,625,1366,768,9-18-2022,13-27-37,116,depth_duration_stimuli/001170_2014-06-17_15-43-44_260595134347_rgbf000096-resize_6/001170_2014-06-17_15-43-44_260595134347_rgbf000096-resize-original.jpg,125,1.1909999999999998,0.4,7531,123,meters,jsons/VE125_randls_21.json,1564762,1829530,55,Man
116,213165,DepthScenes,duration_manipulation_targetAtFixation,jsons/VE125_randls_21.json,http://54.235.29.9/FacialAge/BNav_EC2/DepthDuration/v2_depth_duration_MTurk/v2_DepthDuration_HTML.html#407,407,1366,625,1366,768,9-18-2022,13-27-37,117,depth_duration_stimuli/003621_2014-05-23_18-06-08_094959634447_rgbf000101-resize_1/003621_2014-05-23_18-06-08_094959634447_rgbf000101-resize_1-target.png,125,3.9835,0.4,5295,103,meters,jsons/VE125_randls_21.json,1564762,1829530,55,Man
117,213165,DepthScenes,duration_manipulation_targetAtFixation,jsons/VE125_randls_21.json,http://54.235.29.9/FacialAge/BNav_EC2/DepthDuration/v2_depth_duration_MTurk/v2_DepthDuration_HTML.html#407,407,1366,625,1366,768,9-18-2022,13-27-37,118,depth_duration_stimuli/001584_2014-06-20_11-07-43_260595134347_rgbf000002-resize_1/001584_2014-06-20_11-07-43_260595134347_rgbf000002-resize_1-target.png,125,3.53,0.2,4850,121,meters,jsons/VE125_randls_21.json,1564762,1829530,55,Man
118,213165,DepthScenes,duration_manipulation_targetAtFixation,jsons/VE125_randls_21.json,http://54.235.29.9/FacialAge/BNav_EC2/DepthDuration/v2_depth_duration_MTurk/v2_DepthDuration_HTML.html#407,407,1366,625,1366,768,9-18-2022,13-27-37,119,depth_duration_stimuli/002663_2014-06-13_15-50-26_094959634447_rgbf000075-resize_1/002663_2014-06-13_15-50-26_094959634447_rgbf000075-resize_1-target.png,125,4.7495,0.4,4634,112,meters,jsons/VE125_randls_21.json,1564762,1829530,55,Man
119,213165,DepthScenes,duration_manipulation_targetAtFixation,jsons/VE125_randls_21.json,http://54.235.29.9/FacialAge/BNav_EC2/DepthDuration/v2_depth_duration_MTurk/v2_DepthDuration_HTML.html#407,407,1366,625,1366,768,9-18-2022,13-27-37,120,depth_duration_stimuli/000409_2014-06-04_19-23-33_260595134347_rgbf000067-resize_0/000409_2014-06-04_19-23-33_260595134347_rgbf000067-resize_0-target.png,125,3.7335,0.4,4398,117,meters,jsons/VE125_randls_21.json,1564762,1829530,55,Man
120,213165,DepthScenes,duration_manipulation_targetAtFixation,jsons/VE125_randls_21.json,http://54.235.29.9/FacialAge/BNav_EC2/DepthDuration/v2_depth_duration_MTurk/v2_DepthDuration_HTML.html#407,407,1366,625,1366,768,9-18-2022,13-27-37,121,depth_duration_stimuli/000917_2014-06-09_22-45-29_260595134347_rgbf000149-resize_3/000917_2014-06-09_22-45-29_260595134347_rgbf000149-resize_3-target.png,125,4.1865,1.0,5733,119,meters,jsons/VE125_randls_21.json,1564762,1829530,55,Man
121,213165,DepthScenes,duration_manipulation_targetAtFixation,jsons/VE125_randls_21.json,http://54.235.29.9/FacialAge/BNav_EC2/DepthDuration/v2_depth_duration_MTurk/v2_DepthDuration_HTML.html#407,407,1366,625,1366,768,9-18-2022,13-27-37,122,depth_duration_stimuli/002323_2014-06-28_20-01-54_260595134347_rgbf000051-resize_4/002323_2014-06-28_20-01-54_260595134347_rgbf000051-resize_4-target.png,125,3.7310000000000003,1.0,5785,133,meters,jsons/VE125_randls_21.json,1564762,1829530,55,Man
122,213165,DepthScenes,duration_manipulation_targetAtFixation,jsons/VE125_randls_21.json,http://54.235.29.9/FacialAge/BNav_EC2/DepthDuration/v2_depth_duration_MTurk/v2_DepthDuration_HTML.html#407,407,1366,625,1366,768,9-18-2022,13-27-37,123,depth_duration_stimuli/001167_2014-06-17_15-38-07_260595134347_rgbf000108-resize_0/001167_2014-06-17_15-38-07_260595134347_rgbf000108-resize_0-target.png,125,1.8505,0.4,5960,124,meters,jsons/VE125_randls_21.json,1564762,1829530,55,Man
123,213165,DepthScenes,duration_manipulation_targetAtFixation,jsons/VE125_randls_21.json,http://54.235.29.9/FacialAge/BNav_EC2/DepthDuration/v2_depth_duration_MTurk/v2_DepthDuration_HTML.html#407,407,1366,625,1366,768,9-18-2022,13-27-37,124,depth_duration_stimuli/003587_2014-05-23_16-48-02_094959634447_rgbf002384-resize_2/003587_2014-05-23_16-48-02_094959634447_rgbf002384-resize_2-target.png,125,1.357,0.3,6301,126,meters,jsons/VE125_randls_21.json,1564762,1829530,55,Man
124,213165,DepthScenes,duration_manipulation_targetAtFixation,jsons/VE125_randls_21.json,http://54.235.29.9/FacialAge/BNav_EC2/DepthDuration/v2_depth_duration_MTurk/v2_DepthDuration_HTML.html#407,407,1366,625,1366,768,9-18-2022,13-27-37,125,depth_duration_stimuli/002748_2014-06-22_19-07-22_094959634447_rgbf000078-resize_1/002748_2014-06-22_19-07-22_094959634447_rgbf000078-resize_1-target.png,125,4.6705,0.4,5906,125,meters,jsons/VE125_randls_21.json,1564762,1829530,55,Man
125,213165,DepthScenes,duration_manipulation_targetAtFixation,jsons/VE125_randls_21.json,http://54.235.29.9/FacialAge/BNav_EC2/DepthDuration/v2_depth_duration_MTurk/v2_DepthDuration_HTML.html#407,407,1366,625,1366,768,9-18-2022,13-27-37,126,depth_duration_stimuli/002995_2014-06-15_12-31-26_094959634447_rgbf000150-resize_1/002995_2014-06-15_12-31-26_094959634447_rgbf000150-resize_1-target.png,125,3.8360000000000003,0.3,5670,131,meters,jsons/VE125_randls_21.json,1564762,1829530,55,Man
126,213165,DepthScenes,duration_manipulation_targetAtFixation,jsons/VE125_randls_21.json,http://54.235.29.9/FacialAge/BNav_EC2/DepthDuration/v2_depth_duration_MTurk/v2_DepthDuration_HTML.html#407,407,1366,625,1366,768,9-18-2022,13-27-37,127,depth_duration_stimuli/002989_2014-06-15_12-25-03_094959634447_rgbf000150-resize_3/002989_2014-06-15_12-25-03_094959634447_rgbf000150-resize_3-target.png,125,4.1975,1.0,6138,125,meters,jsons/VE125_randls_21.json,1564762,1829530,55,Man
127,213165,DepthScenes,duration_manipulation_targetAtFixation,jsons/VE125_randls_21.json,http://54.235.29.9/FacialAge/BNav_EC2/DepthDuration/v2_depth_duration_MTurk/v2_DepthDuration_HTML.html#407,407,1366,625,1366,768,9-18-2022,13-27-37,128,depth_duration_stimuli/000866_2014-06-09_20-45-42_260595134347_rgbf000139-resize_1/000866_2014-06-09_20-45-42_260595134347_rgbf000139-resize_1-target.png,125,3.2155,0.4,6254,134,meters,jsons/VE125_randls_21.json,1564762,1829530,55,Man
128,213165,DepthScenes,duration_manipulation_targetAtFixation,jsons/VE125_randls_21.json,http://54.235.29.9/FacialAge/BNav_EC2/DepthDuration/v2_depth_duration_MTurk/v2_DepthDuration_HTML.html#407,407,1366,625,1366,768,9-18-2022,13-27-37,129,depth_duration_stimuli/001029_2014-06-08_13-17-57_260595134347_rgbf000065-resize_1/001029_2014-06-08_13-17-57_260595134347_rgbf000065-resize_1-target.png,125,3.0835,0.7,4779,161,meters,jsons/VE125_randls_21.json,1564762,1829530,55,Man
129,213165,DepthScenes,duration_manipulation_targetAtFixation,jsons/VE125_randls_21.json,http://54.235.29.9/FacialAge/BNav_EC2/DepthDuration/v2_depth_duration_MTurk/v2_DepthDuration_HTML.html#407,407,1366,625,1366,768,9-18-2022,13-27-37,130,depth_duration_stimuli/000677_2014-06-08_23-10-32_260595134347_rgbf000158-resize_6/000677_2014-06-08_23-10-32_260595134347_rgbf000158-resize_6-target.png,125,3.556,0.4,5120,139,meters,jsons/VE125_randls_21.json,1564762,1829530,55,Man
130,213165,DepthScenes,duration_manipulation_targetAtFixation,jsons/VE125_randls_21.json,http://54.235.29.9/FacialAge/BNav_EC2/DepthDuration/v2_depth_duration_MTurk/v2_DepthDuration_HTML.html#407,407,1366,625,1366,768,9-18-2022,13-27-37,131,depth_duration_stimuli/000906_2014-06-08_13-35-43_260595134347_rgbf000155-resize_1/000906_2014-06-08_13-35-43_260595134347_rgbf000155-resize_1-target.png,125,2.8489999999999998,0.5,8014,115,meters,jsons/VE125_randls_21.json,1564762,1829530,55,Man
131,213165,DepthScenes,duration_manipulation_targetAtFixation,jsons/VE125_randls_21.json,http://54.235.29.9/FacialAge/BNav_EC2/DepthDuration/v2_depth_duration_MTurk/v2_DepthDuration_HTML.html#407,407,1366,625,1366,768,9-18-2022,13-27-37,132,depth_duration_stimuli/002805_2014-06-22_19-54-03_094959634447_rgbf000079-resize_1/002805_2014-06-22_19-54-03_094959634447_rgbf000079-resize_1-target.png,125,3.1439999999999997,0.5,36799,118,meters,jsons/VE125_randls_21.json,1564762,1829530,55,Man
132,213165,DepthScenes,duration_manipulation_targetAtFixation,jsons/VE125_randls_21.json,http://54.235.29.9/FacialAge/BNav_EC2/DepthDuration/v2_depth_duration_MTurk/v2_DepthDuration_HTML.html#407,407,1366,625,1366,768,9-18-2022,13-27-37,133,depth_duration_stimuli/001417_2014-06-19_16-25-36_260595134347_rgbf000115-resize_5/001417_2014-06-19_16-25-36_260595134347_rgbf000115-resize_5-target.png,125,4.6255,0.6,6402,119,meters,jsons/VE125_randls_21.json,1564762,1829530,55,Man
133,213165,DepthScenes,duration_manipulation_targetAtFixation,jsons/VE125_randls_21.json,http://54.235.29.9/FacialAge/BNav_EC2/DepthDuration/v2_depth_duration_MTurk/v2_DepthDuration_HTML.html#407,407,1366,625,1366,768,9-18-2022,13-27-37,134,depth_duration_stimuli/003081_2014-06-15_15-19-16_094959634447_rgbf000150-resize_1/003081_2014-06-15_15-19-16_094959634447_rgbf000150-resize_1-target.png,125,3.9125,0.5,5276,127,meters,jsons/VE125_randls_21.json,1564762,1829530,55,Man
134,213165,DepthScenes,duration_manipulation_targetAtFixation,jsons/VE125_randls_21.json,http://54.235.29.9/FacialAge/BNav_EC2/DepthDuration/v2_depth_duration_MTurk/v2_DepthDuration_HTML.html#407,407,1366,625,1366,768,9-18-2022,13-27-37,135,depth_duration_stimuli/002072_2014-06-24_21-48-06_260595134347_rgbf000115-resize_0/002072_2014-06-24_21-48-06_260595134347_rgbf000115-resize-original.jpg,125,4.702,0.0,3584,149,meters,jsons/VE125_randls_21.json,1564762,1829530,55,Man
135,213165,DepthScenes,duration_manipulation_targetAtFixation,jsons/VE125_randls_21.json,http://54.235.29.9/FacialAge/BNav_EC2/DepthDuration/v2_depth_duration_MTurk/v2_DepthDuration_HTML.html#407,407,1366,625,1366,768,9-18-2022,13-27-37,136,depth_duration_stimuli/000486_2014-06-09_20-47-20_260595134347_rgbf000143-resize_2/000486_2014-06-09_20-47-20_260595134347_rgbf000143-resize_2-target.png,125,4.8325,0.4,6248,122,meters,jsons/VE125_randls_21.json,1564762,1829530,55,Man
136,213165,DepthScenes,duration_manipulation_targetAtFixation,jsons/VE125_randls_21.json,http://54.235.29.9/FacialAge/BNav_EC2/DepthDuration/v2_depth_duration_MTurk/v2_DepthDuration_HTML.html#407,407,1366,625,1366,768,9-18-2022,13-27-37,137,depth_duration_stimuli/003083_2014-06-15_15-21-03_094959634447_rgbf000063-resize_1/003083_2014-06-15_15-21-03_094959634447_rgbf000063-resize_1-target.png,125,4.1405,0.6,6828,125,meters,jsons/VE125_randls_21.json,1564762,1829530,55,Man
137,213165,DepthScenes,duration_manipulation_targetAtFixation,jsons/VE125_randls_21.json,http://54.235.29.9/FacialAge/BNav_EC2/DepthDuration/v2_depth_duration_MTurk/v2_DepthDuration_HTML.html#407,407,1366,625,1366,768,9-18-2022,13-27-37,138,depth_duration_stimuli/002043_2014-06-24_20-29-38_260595134347_rgbf000039-resize_4/002043_2014-06-24_20-29-38_260595134347_rgbf000039-resize_4-target.png,125,2.8435,0.7,6569,136,meters,jsons/VE125_randls_21.json,1564762,1829530,55,Man
138,213165,DepthScenes,duration_manipulation_targetAtFixation,jsons/VE125_randls_21.json,http://54.235.29.9/FacialAge/BNav_EC2/DepthDuration/v2_depth_duration_MTurk/v2_DepthDuration_HTML.html#407,407,1366,625,1366,768,9-18-2022,13-27-37,139,depth_duration_stimuli/003048_2014-06-15_13-49-43_094959634447_rgbf000150-resize_1/003048_2014-06-15_13-49-43_094959634447_rgbf000150-resize_1-target.png,125,4.0035,1.0,3565,107,meters,jsons/VE125_randls_21.json,1564762,1829530,55,Man
139,213165,DepthScenes,duration_manipulation_targetAtFixation,jsons/VE125_randls_21.json,http://54.235.29.9/FacialAge/BNav_EC2/DepthDuration/v2_depth_duration_MTurk/v2_DepthDuration_HTML.html#407,407,1366,625,1366,768,9-18-2022,13-27-37,140,depth_duration_stimuli/002213_2014-06-28_18-37-58_260595134347_rgbf000055-resize_1/002213_2014-06-28_18-37-58_260595134347_rgbf000055-resize_1-target.png,125,3.62,0.0,4713,121,meters,jsons/VE125_randls_21.json,1564762,1829530,55,Man
140,213165,DepthScenes,duration_manipulation_targetAtFixation,jsons/VE125_randls_21.json,http://54.235.29.9/FacialAge/BNav_EC2/DepthDuration/v2_depth_duration_MTurk/v2_DepthDuration_HTML.html#407,407,1366,625,1366,768,9-18-2022,13-27-37,141,depth_duration_stimuli/000691_2014-06-08_13-08-50_260595134347_rgbf000132-resize_3/000691_2014-06-08_13-08-50_260595134347_rgbf000132-resize_3-target.png,125,4.1530000000000005,0.6,25917,201,meters,jsons/VE125_randls_21.json,1564762,1829530,55,Man
141,213165,DepthScenes,duration_manipulation_targetAtFixation,jsons/VE125_randls_21.json,http://54.235.29.9/FacialAge/BNav_EC2/DepthDuration/v2_depth_duration_MTurk/v2_DepthDuration_HTML.html#407,407,1366,625,1366,768,9-18-2022,13-27-37,142,depth_duration_stimuli/001806_2014-06-26_20-50-20_260595134347_rgbf000091-resize_1/001806_2014-06-26_20-50-20_260595134347_rgbf000091-resize_1-target.png,125,2.7305,1.0,5638,117,meters,jsons/VE125_randls_21.json,1564762,1829530,55,Man
142,213165,DepthScenes,duration_manipulation_targetAtFixation,jsons/VE125_randls_21.json,http://54.235.29.9/FacialAge/BNav_EC2/DepthDuration/v2_depth_duration_MTurk/v2_DepthDuration_HTML.html#407,407,1366,625,1366,768,9-18-2022,13-27-37,143,depth_duration_stimuli/001617_2014-06-20_11-35-32_260595134347_rgbf000066-resize_1/001617_2014-06-20_11-35-32_260595134347_rgbf000066-resize_1-target.png,125,3.7910000000000004,0.3,6706,128,meters,jsons/VE125_randls_21.json,1564762,1829530,55,Man
143,213165,DepthScenes,duration_manipulation_targetAtFixation,jsons/VE125_randls_21.json,http://54.235.29.9/FacialAge/BNav_EC2/DepthDuration/v2_depth_duration_MTurk/v2_DepthDuration_HTML.html#407,407,1366,625,1366,768,9-18-2022,13-27-37,144,depth_duration_stimuli/000506_2014-06-08_23-21-00_260595134347_rgbf000070-resize_7/000506_2014-06-08_23-21-00_260595134347_rgbf000070-resize_7-target.png,125,4.0585,0.5,8224,116,meters,jsons/VE125_randls_21.json,1564762,1829530,55,Man
144,213165,DepthScenes,duration_manipulation_targetAtFixation,jsons/VE125_randls_21.json,http://54.235.29.9/FacialAge/BNav_EC2/DepthDuration/v2_depth_duration_MTurk/v2_DepthDuration_HTML.html#407,407,1366,625,1366,768,9-18-2022,13-27-37,145,depth_duration_stimuli/003079_2014-06-15_15-18-20_094959634447_rgbf000152-resize_8/003079_2014-06-15_15-18-20_094959634447_rgbf000152-resize_8-target.png,125,2.8775,0.4,11061,128,meters,jsons/VE125_randls_21.json,1564762,1829530,55,Man
145,213165,DepthScenes,duration_manipulation_targetAtFixation,jsons/VE125_randls_21.json,http://54.235.29.9/FacialAge/BNav_EC2/DepthDuration/v2_depth_duration_MTurk/v2_DepthDuration_HTML.html#407,407,1366,625,1366,768,9-18-2022,13-27-37,146,depth_duration_stimuli/001498_2014-06-19_17-45-14_260595134347_rgbf000129-resize_4/001498_2014-06-19_17-45-14_260595134347_rgbf000129-resize-original.jpg,125,1.4075,0.5,12015,124,meters,jsons/VE125_randls_21.json,1564762,1829530,55,Man
146,213165,DepthScenes,duration_manipulation_targetAtFixation,jsons/VE125_randls_21.json,http://54.235.29.9/FacialAge/BNav_EC2/DepthDuration/v2_depth_duration_MTurk/v2_DepthDuration_HTML.html#407,407,1366,625,1366,768,9-18-2022,13-27-37,147,depth_duration_stimuli/002784_2014-06-22_19-26-30_094959634447_rgbf000083-resize_3/002784_2014-06-22_19-26-30_094959634447_rgbf000083-resize_3-target.png,125,1.8046666666667,0.3,5527,124,meters,jsons/VE125_randls_21.json,1564762,1829530,55,Man
147,213165,DepthScenes,duration_manipulation_targetAtFixation,jsons/VE125_randls_21.json,http://54.235.29.9/FacialAge/BNav_EC2/DepthDuration/v2_depth_duration_MTurk/v2_DepthDuration_HTML.html#407,407,1366,625,1366,768,9-18-2022,13-27-37,148,depth_duration_stimuli/001100_2014-06-15_17-46-26_260595134347_rgbf000225-resize_2/001100_2014-06-15_17-46-26_260595134347_rgbf000225-resize_2-target.png,125,2.24,0.3,6657,123,meters,jsons/VE125_randls_21.json,1564762,1829530,55,Man
148,213165,DepthScenes,duration_manipulation_targetAtFixation,jsons/VE125_randls_21.json,http://54.235.29.9/FacialAge/BNav_EC2/DepthDuration/v2_depth_duration_MTurk/v2_DepthDuration_HTML.html#407,407,1366,625,1366,768,9-18-2022,13-27-37,149,depth_duration_stimuli/000692_2014-06-08_13-09-42_260595134347_rgbf000199-resize_2/000692_2014-06-08_13-09-42_260595134347_rgbf000199-resize_2-target.png,125,3.661,0.4,4944,124,meters,jsons/VE125_randls_21.json,1564762,1829530,55,Man
149,213165,DepthScenes,duration_manipulation_targetAtFixation,jsons/VE125_randls_21.json,http://54.235.29.9/FacialAge/BNav_EC2/DepthDuration/v2_depth_duration_MTurk/v2_DepthDuration_HTML.html#407,407,1366,625,1366,768,9-18-2022,13-27-37,150,depth_duration_stimuli/001094_2014-06-15_17-36-00_260595134347_rgbf000205-resize_0/001094_2014-06-15_17-36-00_260595134347_rgbf000205-resize_0-target.png,125,4.2175,0.3,25844,119,meters,jsons/VE125_randls_21.json,1564762,1829530,55,Man
150,213165,DepthScenes,duration_manipulation_targetAtFixation,jsons/VE125_randls_21.json,http://54.235.29.9/FacialAge/BNav_EC2/DepthDuration/v2_depth_duration_MTurk/v2_DepthDuration_HTML.html#407,407,1366,625,1366,768,9-18-2022,13-27-37,151,depth_duration_stimuli/001199_2014-06-17_16-03-48_260595134347_rgbf000077-resize_0/001199_2014-06-17_16-03-48_260595134347_rgbf000077-resize_0-target.png,125,3.4375,0.5,6348,134,meters,jsons/VE125_randls_21.json,1564762,1829530,55,Man
151,213165,DepthScenes,duration_manipulation_targetAtFixation,jsons/VE125_randls_21.json,http://54.235.29.9/FacialAge/BNav_EC2/DepthDuration/v2_depth_duration_MTurk/v2_DepthDuration_HTML.html#407,407,1366,625,1366,768,9-18-2022,13-27-37,152,depth_duration_stimuli/000502_2014-06-08_23-02-32_260595134347_rgbf000063-resize_4/000502_2014-06-08_23-02-32_260595134347_rgbf000063-resize_4-target.png,125,2.431,0.3,9764,131,meters,jsons/VE125_randls_21.json,1564762,1829530,55,Man
152,213165,DepthScenes,duration_manipulation_targetAtFixation,jsons/VE125_randls_21.json,http://54.235.29.9/FacialAge/BNav_EC2/DepthDuration/v2_depth_duration_MTurk/v2_DepthDuration_HTML.html#407,407,1366,625,1366,768,9-18-2022,13-27-37,153,depth_duration_stimuli/002630_2014-06-24_14-47-50_094959634447_rgbf000055-resize_1/002630_2014-06-24_14-47-50_094959634447_rgbf000055-resize_1-target.png,125,3.0095,0.4,15409,131,meters,jsons/VE125_randls_21.json,1564762,1829530,55,Man
153,213165,DepthScenes,duration_manipulation_targetAtFixation,jsons/VE125_randls_21.json,http://54.235.29.9/FacialAge/BNav_EC2/DepthDuration/v2_depth_duration_MTurk/v2_DepthDuration_HTML.html#407,407,1366,625,1366,768,9-18-2022,13-27-37,154,depth_duration_stimuli/002758_2014-06-22_19-11-20_094959634447_rgbf000128-resize_1/002758_2014-06-22_19-11-20_094959634447_rgbf000128-resize_1-target.png,125,2.555,0.6,8106,126,meters,jsons/VE125_randls_21.json,1564762,1829530,55,Man
154,213165,DepthScenes,duration_manipulation_targetAtFixation,jsons/VE125_randls_21.json,http://54.235.29.9/FacialAge/BNav_EC2/DepthDuration/v2_depth_duration_MTurk/v2_DepthDuration_HTML.html#407,407,1366,625,1366,768,9-18-2022,13-27-37,155,depth_duration_stimuli/000810_2014-06-08_17-20-01_260595134347_rgbf000105-resize_0/000810_2014-06-08_17-20-01_260595134347_rgbf000105-resize_0-target.png,125,1.4865,0.5,24828,106,meters,jsons/VE125_randls_21.json,1564762,1829530,55,Man
155,213165,DepthScenes,duration_manipulation_targetAtFixation,jsons/VE125_randls_21.json,http://54.235.29.9/FacialAge/BNav_EC2/DepthDuration/v2_depth_duration_MTurk/v2_DepthDuration_HTML.html#407,407,1366,625,1366,768,9-18-2022,13-27-37,156,depth_duration_stimuli/001214_2014-06-17_16-13-55_260595134347_rgbf000111-resize_0/001214_2014-06-17_16-13-55_260595134347_rgbf000111-resize_0-target.png,125,2.6505,0.4,6644,125,meters,jsons/VE125_randls_21.json,1564762,1829530,55,Man
156,213165,DepthScenes,duration_manipulation_targetAtFixation,jsons/VE125_randls_21.json,http://54.235.29.9/FacialAge/BNav_EC2/DepthDuration/v2_depth_duration_MTurk/v2_DepthDuration_HTML.html#407,407,1366,625,1366,768,9-18-2022,13-27-37,157,depth_duration_stimuli/000929_2014-06-09_16-33-19_260595134347_rgbf000139-resize_0/000929_2014-06-09_16-33-19_260595134347_rgbf000139-resize_0-target.png,125,2.8680000000000003,0.2,9865,36,meters,jsons/VE125_randls_21.json,1564762,1829530,55,Man
157,213165,DepthScenes,duration_manipulation_targetAtFixation,jsons/VE125_randls_21.json,http://54.235.29.9/FacialAge/BNav_EC2/DepthDuration/v2_depth_duration_MTurk/v2_DepthDuration_HTML.html#407,407,1366,625,1366,768,9-18-2022,13-27-37,158,depth_duration_stimuli/000457_2014-06-08_16-52-43_260595134347_rgbf000199-resize_1/000457_2014-06-08_16-52-43_260595134347_rgbf000199-resize_1-target.png,125,3.6489999999999996,0.3,19259,123,meters,jsons/VE125_randls_21.json,1564762,1829530,55,Man
158,213165,DepthScenes,duration_manipulation_targetAtFixation,jsons/VE125_randls_21.json,http://54.235.29.9/FacialAge/BNav_EC2/DepthDuration/v2_depth_duration_MTurk/v2_DepthDuration_HTML.html#407,407,1366,625,1366,768,9-18-2022,13-27-37,159,depth_duration_stimuli/002279_2014-06-28_18-55-32_260595134347_rgbf000040-resize_5/002279_2014-06-28_18-55-32_260595134347_rgbf000040-resize_5-target.png,125,1.5043333333333,0.5,12025,123,meters,jsons/VE125_randls_21.json,1564762,1829530,55,Man
159,213165,DepthScenes,duration_manipulation_targetAtFixation,jsons/VE125_randls_21.json,http://54.235.29.9/FacialAge/BNav_EC2/DepthDuration/v2_depth_duration_MTurk/v2_DepthDuration_HTML.html#407,407,1366,625,1366,768,9-18-2022,13-27-37,160,depth_duration_stimuli/000635_2014-06-08_16-38-42_260595134347_rgbf000106-resize_1/000635_2014-06-08_16-38-42_260595134347_rgbf000106-resize_1-target.png,125,2.074,0.2,17027,124,meters,jsons/VE125_randls_21.json,1564762,1829530,55,Man
160,213165,DepthScenes,duration_manipulation_targetAtFixation,jsons/VE125_randls_21.json,http://54.235.29.9/FacialAge/BNav_EC2/DepthDuration/v2_depth_duration_MTurk/v2_DepthDuration_HTML.html#407,407,1366,625,1366,768,9-18-2022,13-27-37,161,depth_duration_stimuli/000414_2014-06-04_19-49-13_260595134347_rgbf000044-resize_0/000414_2014-06-04_19-49-13_260595134347_rgbf000044-resize_0-target.png,125,4.329,1.0,4589,115,meters,jsons/VE125_randls_21.json,1564762,1829530,55,Man
161,213165,DepthScenes,duration_manipulation_targetAtFixation,jsons/VE125_randls_21.json,http://54.235.29.9/FacialAge/BNav_EC2/DepthDuration/v2_depth_duration_MTurk/v2_DepthDuration_HTML.html#407,407,1366,625,1366,768,9-18-2022,13-27-37,162,depth_duration_stimuli/003129_2014-05-12_10-48-10_094959634447_rgbf000100-resize_0/003129_2014-05-12_10-48-10_094959634447_rgbf000100-resize_0-target.png,125,4.9305,0.0,4736,125,meters,jsons/VE125_randls_21.json,1564762,1829530,55,Man
162,213165,DepthScenes,duration_manipulation_targetAtFixation,jsons/VE125_randls_21.json,http://54.235.29.9/FacialAge/BNav_EC2/DepthDuration/v2_depth_duration_MTurk/v2_DepthDuration_HTML.html#407,407,1366,625,1366,768,9-18-2022,13-27-37,163,depth_duration_stimuli/000522_2014-06-08_13-35-06_260595134347_rgbf000244-resize_1/000522_2014-06-08_13-35-06_260595134347_rgbf000244-resize_1-target.png,125,2.3715,0.4,9534,122,meters,jsons/VE125_randls_21.json,1564762,1829530,55,Man
163,213165,DepthScenes,duration_manipulation_targetAtFixation,jsons/VE125_randls_21.json,http://54.235.29.9/FacialAge/BNav_EC2/DepthDuration/v2_depth_duration_MTurk/v2_DepthDuration_HTML.html#407,407,1366,625,1366,768,9-18-2022,13-27-37,164,depth_duration_stimuli/002949_2014-06-26_15-57-42_094959634447_rgbf000079-resize_1/002949_2014-06-26_15-57-42_094959634447_rgbf000079-resize_1-target.png,125,1.8915,0.4,7188,127,meters,jsons/VE125_randls_21.json,1564762,1829530,55,Man
