,subjID,experimentName,versionName,sequenceName,url,selected_row,windowWidth,windowHeight,screenWidth,screenHeight,startDate,startTime,trial,stimulus,duration,actual_depth,depth_estimate,trial_RT,log_sceneDuration,unitSelection,seq_filepath,experimentTime,totalTime,age,gender
0,214934,DepthScenes,duration_manipulation_targetAtFixation,jsons/VE125_randls_33.json,http://54.235.29.9/FacialAge/BNav_EC2/DepthDuration/v2_depth_duration_MTurk/v2_DepthDuration_HTML.html#117,117,1366,625,1366,768,9-18-2022,12-15-56,1,depth_duration_stimuli/003492_2014-05-21_15-50-55_094959634447_rgbf000828-resize_1/003492_2014-05-21_15-50-55_094959634447_rgbf000828-resize_1-target.png,125,4.06875,9,7529,125,meters,jsons/VE125_randls_33.json,2118610,2580580,25,Man
1,214934,DepthScenes,duration_manipulation_targetAtFixation,jsons/VE125_randls_33.json,http://54.235.29.9/FacialAge/BNav_EC2/DepthDuration/v2_depth_duration_MTurk/v2_DepthDuration_HTML.html#117,117,1366,625,1366,768,9-18-2022,12-15-56,2,depth_duration_stimuli/002568_2014-06-24_13-59-21_094959634447_rgbf000062-resize_4/002568_2014-06-24_13-59-21_094959634447_rgbf000062-resize_4-target.png,125,3.015,8,9401,125,meters,jsons/VE125_randls_33.json,2118610,2580580,25,Man
2,214934,DepthScenes,duration_manipulation_targetAtFixation,jsons/VE125_randls_33.json,http://54.235.29.9/FacialAge/BNav_EC2/DepthDuration/v2_depth_duration_MTurk/v2_DepthDuration_HTML.html#117,117,1366,625,1366,768,9-18-2022,12-15-56,3,depth_duration_stimuli/001417_2014-06-19_16-25-36_260595134347_rgbf000115-resize_5/001417_2014-06-19_16-25-36_260595134347_rgbf000115-resize_5-target.png,125,4.6255,10,10115,126,meters,jsons/VE125_randls_33.json,2118610,2580580,25,Man
3,214934,DepthScenes,duration_manipulation_targetAtFixation,jsons/VE125_randls_33.json,http://54.235.29.9/FacialAge/BNav_EC2/DepthDuration/v2_depth_duration_MTurk/v2_DepthDuration_HTML.html#117,117,1366,625,1366,768,9-18-2022,12-15-56,4,depth_duration_stimuli/003081_2014-06-15_15-19-16_094959634447_rgbf000150-resize_1/003081_2014-06-15_15-19-16_094959634447_rgbf000150-resize_1-target.png,125,3.9125,10,3907,125,meters,jsons/VE125_randls_33.json,2118610,2580580,25,Man
4,214934,DepthScenes,duration_manipulation_targetAtFixation,jsons/VE125_randls_33.json,http://54.235.29.9/FacialAge/BNav_EC2/DepthDuration/v2_depth_duration_MTurk/v2_DepthDuration_HTML.html#117,117,1366,625,1366,768,9-18-2022,12-15-56,5,depth_duration_stimuli/002272_2014-06-28_18-53-56_260595134347_rgbf000067-resize_2/002272_2014-06-28_18-53-56_260595134347_rgbf000067-resize_2-target.png,125,1.138,4,5404,126,meters,jsons/VE125_randls_33.json,2118610,2580580,25,Man
5,214934,DepthScenes,duration_manipulation_targetAtFixation,jsons/VE125_randls_33.json,http://54.235.29.9/FacialAge/BNav_EC2/DepthDuration/v2_depth_duration_MTurk/v2_DepthDuration_HTML.html#117,117,1366,625,1366,768,9-18-2022,12-15-56,6,depth_duration_stimuli/001571_2014-06-20_17-21-32_260595134347_rgbf000089-resize_1/001571_2014-06-20_17-21-32_260595134347_rgbf000089-resize_1-target.png,125,1.86,3,4489,124,meters,jsons/VE125_randls_33.json,2118610,2580580,25,Man
6,214934,DepthScenes,duration_manipulation_targetAtFixation,jsons/VE125_randls_33.json,http://54.235.29.9/FacialAge/BNav_EC2/DepthDuration/v2_depth_duration_MTurk/v2_DepthDuration_HTML.html#117,117,1366,625,1366,768,9-18-2022,12-15-56,7,depth_duration_stimuli/001133_2014-06-17_14-49-16_260595134347_rgbf000100-resize_0/001133_2014-06-17_14-49-16_260595134347_rgbf000100-resize_0-target.png,125,4.2115,5,6539,125,meters,jsons/VE125_randls_33.json,2118610,2580580,25,Man
7,214934,DepthScenes,duration_manipulation_targetAtFixation,jsons/VE125_randls_33.json,http://54.235.29.9/FacialAge/BNav_EC2/DepthDuration/v2_depth_duration_MTurk/v2_DepthDuration_HTML.html#117,117,1366,625,1366,768,9-18-2022,12-15-56,8,depth_duration_stimuli/001132_2014-06-17_14-48-54_260595134347_rgbf000100-resize_2/001132_2014-06-17_14-48-54_260595134347_rgbf000100-resize_2-target.png,125,3.753,6,5923,125,meters,jsons/VE125_randls_33.json,2118610,2580580,25,Man
8,214934,DepthScenes,duration_manipulation_targetAtFixation,jsons/VE125_randls_33.json,http://54.235.29.9/FacialAge/BNav_EC2/DepthDuration/v2_depth_duration_MTurk/v2_DepthDuration_HTML.html#117,117,1366,625,1366,768,9-18-2022,12-15-56,9,depth_duration_stimuli/001244_2014-06-17_16-47-45_260595134347_rgbf000030-resize_4/001244_2014-06-17_16-47-45_260595134347_rgbf000030-resize_4-target.png,125,2.0425,7,4148,125,meters,jsons/VE125_randls_33.json,2118610,2580580,25,Man
9,214934,DepthScenes,duration_manipulation_targetAtFixation,jsons/VE125_randls_33.json,http://54.235.29.9/FacialAge/BNav_EC2/DepthDuration/v2_depth_duration_MTurk/v2_DepthDuration_HTML.html#117,117,1366,625,1366,768,9-18-2022,12-15-56,10,depth_duration_stimuli/003495_2014-05-21_16-01-51_094959634447_rgbf000100-resize_3/003495_2014-05-21_16-01-51_094959634447_rgbf000100-resize_3-target.png,125,1.6255,8,4129,124,meters,jsons/VE125_randls_33.json,2118610,2580580,25,Man
10,214934,DepthScenes,duration_manipulation_targetAtFixation,jsons/VE125_randls_33.json,http://54.235.29.9/FacialAge/BNav_EC2/DepthDuration/v2_depth_duration_MTurk/v2_DepthDuration_HTML.html#117,117,1366,625,1366,768,9-18-2022,12-15-56,11,depth_duration_stimuli/000470_2014-06-09_19-42-40_260595134347_rgbf000094-resize_1/000470_2014-06-09_19-42-40_260595134347_rgbf000094-resize_1-target.png,125,1.831,3,3154,124,meters,jsons/VE125_randls_33.json,2118610,2580580,25,Man
11,214934,DepthScenes,duration_manipulation_targetAtFixation,jsons/VE125_randls_33.json,http://54.235.29.9/FacialAge/BNav_EC2/DepthDuration/v2_depth_duration_MTurk/v2_DepthDuration_HTML.html#117,117,1366,625,1366,768,9-18-2022,12-15-56,12,depth_duration_stimuli/000109_2014-05-14_23-41-52_260595134347_rgbf000035-resize_9/000109_2014-05-14_23-41-52_260595134347_rgbf000035-resize_9-target.png,125,1.3545,4,4266,124,meters,jsons/VE125_randls_33.json,2118610,2580580,25,Man
12,214934,DepthScenes,duration_manipulation_targetAtFixation,jsons/VE125_randls_33.json,http://54.235.29.9/FacialAge/BNav_EC2/DepthDuration/v2_depth_duration_MTurk/v2_DepthDuration_HTML.html#117,117,1366,625,1366,768,9-18-2022,12-15-56,13,depth_duration_stimuli/000569_2014-06-09_22-51-47_260595134347_rgbf000141-resize_3/000569_2014-06-09_22-51-47_260595134347_rgbf000141-resize-original.jpg,125,4.512,0,3394,125,meters,jsons/VE125_randls_33.json,2118610,2580580,25,Man
13,214934,DepthScenes,duration_manipulation_targetAtFixation,jsons/VE125_randls_33.json,http://54.235.29.9/FacialAge/BNav_EC2/DepthDuration/v2_depth_duration_MTurk/v2_DepthDuration_HTML.html#117,117,1366,625,1366,768,9-18-2022,12-15-56,14,depth_duration_stimuli/002989_2014-06-15_12-25-03_094959634447_rgbf000150-resize_3/002989_2014-06-15_12-25-03_094959634447_rgbf000150-resize_3-target.png,125,4.1975,7,4137,124,meters,jsons/VE125_randls_33.json,2118610,2580580,25,Man
14,214934,DepthScenes,duration_manipulation_targetAtFixation,jsons/VE125_randls_33.json,http://54.235.29.9/FacialAge/BNav_EC2/DepthDuration/v2_depth_duration_MTurk/v2_DepthDuration_HTML.html#117,117,1366,625,1366,768,9-18-2022,12-15-56,15,depth_duration_stimuli/000866_2014-06-09_20-45-42_260595134347_rgbf000139-resize_1/000866_2014-06-09_20-45-42_260595134347_rgbf000139-resize_1-target.png,125,3.2155,8,4204,126,meters,jsons/VE125_randls_33.json,2118610,2580580,25,Man
15,214934,DepthScenes,duration_manipulation_targetAtFixation,jsons/VE125_randls_33.json,http://54.235.29.9/FacialAge/BNav_EC2/DepthDuration/v2_depth_duration_MTurk/v2_DepthDuration_HTML.html#117,117,1366,625,1366,768,9-18-2022,12-15-56,16,depth_duration_stimuli/000906_2014-06-08_13-35-43_260595134347_rgbf000155-resize_1/000906_2014-06-08_13-35-43_260595134347_rgbf000155-resize_1-target.png,125,2.8489999999999998,8,2912,125,meters,jsons/VE125_randls_33.json,2118610,2580580,25,Man
16,214934,DepthScenes,duration_manipulation_targetAtFixation,jsons/VE125_randls_33.json,http://54.235.29.9/FacialAge/BNav_EC2/DepthDuration/v2_depth_duration_MTurk/v2_DepthDuration_HTML.html#117,117,1366,625,1366,768,9-18-2022,12-15-56,17,depth_duration_stimuli/002805_2014-06-22_19-54-03_094959634447_rgbf000079-resize_1/002805_2014-06-22_19-54-03_094959634447_rgbf000079-resize_1-target.png,125,3.1439999999999997,9,3163,125,meters,jsons/VE125_randls_33.json,2118610,2580580,25,Man
17,214934,DepthScenes,duration_manipulation_targetAtFixation,jsons/VE125_randls_33.json,http://54.235.29.9/FacialAge/BNav_EC2/DepthDuration/v2_depth_duration_MTurk/v2_DepthDuration_HTML.html#117,117,1366,625,1366,768,9-18-2022,12-15-56,18,depth_duration_stimuli/000736_2014-06-08_18-24-15_260595134347_rgbf000206-resize_3/000736_2014-06-08_18-24-15_260595134347_rgbf000206-resize_3-target.png,125,3.515,6,3852,125,meters,jsons/VE125_randls_33.json,2118610,2580580,25,Man
18,214934,DepthScenes,duration_manipulation_targetAtFixation,jsons/VE125_randls_33.json,http://54.235.29.9/FacialAge/BNav_EC2/DepthDuration/v2_depth_duration_MTurk/v2_DepthDuration_HTML.html#117,117,1366,625,1366,768,9-18-2022,12-15-56,19,depth_duration_stimuli/000137_2014-05-20_17-04-49_260595134347_rgbf000120-resize_1/000137_2014-05-20_17-04-49_260595134347_rgbf000120-resize_1-target.png,125,3.786,7,4195,126,meters,jsons/VE125_randls_33.json,2118610,2580580,25,Man
19,214934,DepthScenes,duration_manipulation_targetAtFixation,jsons/VE125_randls_33.json,http://54.235.29.9/FacialAge/BNav_EC2/DepthDuration/v2_depth_duration_MTurk/v2_DepthDuration_HTML.html#117,117,1366,625,1366,768,9-18-2022,12-15-56,20,depth_duration_stimuli/002663_2014-06-13_15-50-26_094959634447_rgbf000075-resize_1/002663_2014-06-13_15-50-26_094959634447_rgbf000075-resize_1-target.png,125,4.7495,8,2964,125,meters,jsons/VE125_randls_33.json,2118610,2580580,25,Man
20,214934,DepthScenes,duration_manipulation_targetAtFixation,jsons/VE125_randls_33.json,http://54.235.29.9/FacialAge/BNav_EC2/DepthDuration/v2_depth_duration_MTurk/v2_DepthDuration_HTML.html#117,117,1366,625,1366,768,9-18-2022,12-15-56,21,depth_duration_stimuli/000409_2014-06-04_19-23-33_260595134347_rgbf000067-resize_0/000409_2014-06-04_19-23-33_260595134347_rgbf000067-resize_0-target.png,125,3.7335,9,2938,124,meters,jsons/VE125_randls_33.json,2118610,2580580,25,Man
21,214934,DepthScenes,duration_manipulation_targetAtFixation,jsons/VE125_randls_33.json,http://54.235.29.9/FacialAge/BNav_EC2/DepthDuration/v2_depth_duration_MTurk/v2_DepthDuration_HTML.html#117,117,1366,625,1366,768,9-18-2022,12-15-56,22,depth_duration_stimuli/000506_2014-06-08_23-21-00_260595134347_rgbf000070-resize_7/000506_2014-06-08_23-21-00_260595134347_rgbf000070-resize_7-target.png,125,4.0585,11,3226,124,meters,jsons/VE125_randls_33.json,2118610,2580580,25,Man
22,214934,DepthScenes,duration_manipulation_targetAtFixation,jsons/VE125_randls_33.json,http://54.235.29.9/FacialAge/BNav_EC2/DepthDuration/v2_depth_duration_MTurk/v2_DepthDuration_HTML.html#117,117,1366,625,1366,768,9-18-2022,12-15-56,23,depth_duration_stimuli/003079_2014-06-15_15-18-20_094959634447_rgbf000152-resize_8/003079_2014-06-15_15-18-20_094959634447_rgbf000152-resize_8-target.png,125,2.8775,12,3116,126,meters,jsons/VE125_randls_33.json,2118610,2580580,25,Man
23,214934,DepthScenes,duration_manipulation_targetAtFixation,jsons/VE125_randls_33.json,http://54.235.29.9/FacialAge/BNav_EC2/DepthDuration/v2_depth_duration_MTurk/v2_DepthDuration_HTML.html#117,117,1366,625,1366,768,9-18-2022,12-15-56,24,depth_duration_stimuli/002630_2014-06-24_14-47-50_094959634447_rgbf000055-resize_1/002630_2014-06-24_14-47-50_094959634447_rgbf000055-resize_1-target.png,125,3.0095,12,2802,126,meters,jsons/VE125_randls_33.json,2118610,2580580,25,Man
24,214934,DepthScenes,duration_manipulation_targetAtFixation,jsons/VE125_randls_33.json,http://54.235.29.9/FacialAge/BNav_EC2/DepthDuration/v2_depth_duration_MTurk/v2_DepthDuration_HTML.html#117,117,1366,625,1366,768,9-18-2022,12-15-56,25,depth_duration_stimuli/002758_2014-06-22_19-11-20_094959634447_rgbf000128-resize_1/002758_2014-06-22_19-11-20_094959634447_rgbf000128-resize_1-target.png,125,2.555,0,4243,126,meters,jsons/VE125_randls_33.json,2118610,2580580,25,Man
25,214934,DepthScenes,duration_manipulation_targetAtFixation,jsons/VE125_randls_33.json,http://54.235.29.9/FacialAge/BNav_EC2/DepthDuration/v2_depth_duration_MTurk/v2_DepthDuration_HTML.html#117,117,1366,625,1366,768,9-18-2022,12-15-56,26,depth_duration_stimuli/002570_2014-06-24_13-59-54_094959634447_rgbf000059-resize_0/002570_2014-06-24_13-59-54_094959634447_rgbf000059-resize_0-target.png,125,4.037,6,3467,125,meters,jsons/VE125_randls_33.json,2118610,2580580,25,Man
26,214934,DepthScenes,duration_manipulation_targetAtFixation,jsons/VE125_randls_33.json,http://54.235.29.9/FacialAge/BNav_EC2/DepthDuration/v2_depth_duration_MTurk/v2_DepthDuration_HTML.html#117,117,1366,625,1366,768,9-18-2022,12-15-56,27,depth_duration_stimuli/002467_2014-06-28_20-38-07_260595134347_rgbf000026-resize_2/002467_2014-06-28_20-38-07_260595134347_rgbf000026-resize_2-target.png,125,4.742,6,5291,126,meters,jsons/VE125_randls_33.json,2118610,2580580,25,Man
27,214934,DepthScenes,duration_manipulation_targetAtFixation,jsons/VE125_randls_33.json,http://54.235.29.9/FacialAge/BNav_EC2/DepthDuration/v2_depth_duration_MTurk/v2_DepthDuration_HTML.html#117,117,1366,625,1366,768,9-18-2022,12-15-56,28,depth_duration_stimuli/001810_2014-06-26_20-51-35_260595134347_rgbf000040-resize_3/001810_2014-06-26_20-51-35_260595134347_rgbf000040-resize_3-target.png,125,2.2525,3,3700,126,meters,jsons/VE125_randls_33.json,2118610,2580580,25,Man
28,214934,DepthScenes,duration_manipulation_targetAtFixation,jsons/VE125_randls_33.json,http://54.235.29.9/FacialAge/BNav_EC2/DepthDuration/v2_depth_duration_MTurk/v2_DepthDuration_HTML.html#117,117,1366,625,1366,768,9-18-2022,12-15-56,29,depth_duration_stimuli/003010_2014-06-15_12-54-35_094959634447_rgbf000112-resize_0/003010_2014-06-15_12-54-35_094959634447_rgbf000112-resize_0-target.png,125,3.1185,8,3114,126,meters,jsons/VE125_randls_33.json,2118610,2580580,25,Man
29,214934,DepthScenes,duration_manipulation_targetAtFixation,jsons/VE125_randls_33.json,http://54.235.29.9/FacialAge/BNav_EC2/DepthDuration/v2_depth_duration_MTurk/v2_DepthDuration_HTML.html#117,117,1366,625,1366,768,9-18-2022,12-15-56,30,depth_duration_stimuli/000375_2014-06-08_11-17-29_260595134347_rgbf000133-resize_2/000375_2014-06-08_11-17-29_260595134347_rgbf000133-resize-original.jpg,125,4.718,0,3828,125,meters,jsons/VE125_randls_33.json,2118610,2580580,25,Man
30,214934,DepthScenes,duration_manipulation_targetAtFixation,jsons/VE125_randls_33.json,http://54.235.29.9/FacialAge/BNav_EC2/DepthDuration/v2_depth_duration_MTurk/v2_DepthDuration_HTML.html#117,117,1366,625,1366,768,9-18-2022,12-15-56,31,depth_duration_stimuli/002039_2014-06-24_20-22-38_260595134347_rgbf000084-resize_1/002039_2014-06-24_20-22-38_260595134347_rgbf000084-resize_1-target.png,125,4.408,3,3714,125,meters,jsons/VE125_randls_33.json,2118610,2580580,25,Man
31,214934,DepthScenes,duration_manipulation_targetAtFixation,jsons/VE125_randls_33.json,http://54.235.29.9/FacialAge/BNav_EC2/DepthDuration/v2_depth_duration_MTurk/v2_DepthDuration_HTML.html#117,117,1366,625,1366,768,9-18-2022,12-15-56,32,depth_duration_stimuli/002103_2014-06-25_20-00-40_260595134347_rgbf000049-resize_0/002103_2014-06-25_20-00-40_260595134347_rgbf000049-resize_0-target.png,125,4.105,8,3475,126,meters,jsons/VE125_randls_33.json,2118610,2580580,25,Man
32,214934,DepthScenes,duration_manipulation_targetAtFixation,jsons/VE125_randls_33.json,http://54.235.29.9/FacialAge/BNav_EC2/DepthDuration/v2_depth_duration_MTurk/v2_DepthDuration_HTML.html#117,117,1366,625,1366,768,9-18-2022,12-15-56,33,depth_duration_stimuli/001016_2014-06-09_16-16-10_260595134347_rgbf000112-resize_5/001016_2014-06-09_16-16-10_260595134347_rgbf000112-resize_5-target.png,125,1.6565,0,2850,124,meters,jsons/VE125_randls_33.json,2118610,2580580,25,Man
33,214934,DepthScenes,duration_manipulation_targetAtFixation,jsons/VE125_randls_33.json,http://54.235.29.9/FacialAge/BNav_EC2/DepthDuration/v2_depth_duration_MTurk/v2_DepthDuration_HTML.html#117,117,1366,625,1366,768,9-18-2022,12-15-56,34,depth_duration_stimuli/002340_2014-06-28_20-05-46_260595134347_rgbf000113-resize_0/002340_2014-06-28_20-05-46_260595134347_rgbf000113-resize_0-target.png,125,2.4735,0,3156,125,meters,jsons/VE125_randls_33.json,2118610,2580580,25,Man
34,214934,DepthScenes,duration_manipulation_targetAtFixation,jsons/VE125_randls_33.json,http://54.235.29.9/FacialAge/BNav_EC2/DepthDuration/v2_depth_duration_MTurk/v2_DepthDuration_HTML.html#117,117,1366,625,1366,768,9-18-2022,12-15-56,35,depth_duration_stimuli/000682_2014-06-08_23-14-58_260595134347_rgbf000041-resize_5/000682_2014-06-08_23-14-58_260595134347_rgbf000041-resize_5-target.png,125,2.7239999999999998,3,4155,125,meters,jsons/VE125_randls_33.json,2118610,2580580,25,Man
35,214934,DepthScenes,duration_manipulation_targetAtFixation,jsons/VE125_randls_33.json,http://54.235.29.9/FacialAge/BNav_EC2/DepthDuration/v2_depth_duration_MTurk/v2_DepthDuration_HTML.html#117,117,1366,625,1366,768,9-18-2022,12-15-56,36,depth_duration_stimuli/001650_2014-06-20_12-09-00_260595134347_rgbf000087-resize_3/001650_2014-06-20_12-09-00_260595134347_rgbf000087-resize_3-target.png,125,1.9505,4,4435,126,meters,jsons/VE125_randls_33.json,2118610,2580580,25,Man
36,214934,DepthScenes,duration_manipulation_targetAtFixation,jsons/VE125_randls_33.json,http://54.235.29.9/FacialAge/BNav_EC2/DepthDuration/v2_depth_duration_MTurk/v2_DepthDuration_HTML.html#117,117,1366,625,1366,768,9-18-2022,12-15-56,37,depth_duration_stimuli/003534_2014-05-22_15-06-10_094959634447_rgbf000102-resize_4/003534_2014-05-22_15-06-10_094959634447_rgbf000102-resize_4-target.png,125,1.426,2,2697,124,meters,jsons/VE125_randls_33.json,2118610,2580580,25,Man
37,214934,DepthScenes,duration_manipulation_targetAtFixation,jsons/VE125_randls_33.json,http://54.235.29.9/FacialAge/BNav_EC2/DepthDuration/v2_depth_duration_MTurk/v2_DepthDuration_HTML.html#117,117,1366,625,1366,768,9-18-2022,12-15-56,38,depth_duration_stimuli/002637_2014-06-24_14-51-13_094959634447_rgbf000066-resize_4/002637_2014-06-24_14-51-13_094959634447_rgbf000066-resize_4-target.png,125,1.9955,7,5492,125,meters,jsons/VE125_randls_33.json,2118610,2580580,25,Man
38,214934,DepthScenes,duration_manipulation_targetAtFixation,jsons/VE125_randls_33.json,http://54.235.29.9/FacialAge/BNav_EC2/DepthDuration/v2_depth_duration_MTurk/v2_DepthDuration_HTML.html#117,117,1366,625,1366,768,9-18-2022,12-15-56,39,depth_duration_stimuli/001092_2014-06-15_17-34-58_260595134347_rgbf000171-resize_3/001092_2014-06-15_17-34-58_260595134347_rgbf000171-resize_3-target.png,125,2.6935,5,3531,126,meters,jsons/VE125_randls_33.json,2118610,2580580,25,Man
39,214934,DepthScenes,duration_manipulation_targetAtFixation,jsons/VE125_randls_33.json,http://54.235.29.9/FacialAge/BNav_EC2/DepthDuration/v2_depth_duration_MTurk/v2_DepthDuration_HTML.html#117,117,1366,625,1366,768,9-18-2022,12-15-56,40,depth_duration_stimuli/002545_2014-06-24_13-38-53_094959634447_rgbf000080-resize_4/002545_2014-06-24_13-38-53_094959634447_rgbf000080-resize_4-target.png,125,1.9205,6,3148,125,meters,jsons/VE125_randls_33.json,2118610,2580580,25,Man
40,214934,DepthScenes,duration_manipulation_targetAtFixation,jsons/VE125_randls_33.json,http://54.235.29.9/FacialAge/BNav_EC2/DepthDuration/v2_depth_duration_MTurk/v2_DepthDuration_HTML.html#117,117,1366,625,1366,768,9-18-2022,12-15-56,41,depth_duration_stimuli/000493_2014-06-09_21-01-18_260595134347_rgbf000196-resize_3/000493_2014-06-09_21-01-18_260595134347_rgbf000196-resize_3-target.png,125,3.44,8,3283,124,meters,jsons/VE125_randls_33.json,2118610,2580580,25,Man
41,214934,DepthScenes,duration_manipulation_targetAtFixation,jsons/VE125_randls_33.json,http://54.235.29.9/FacialAge/BNav_EC2/DepthDuration/v2_depth_duration_MTurk/v2_DepthDuration_HTML.html#117,117,1366,625,1366,768,9-18-2022,12-15-56,42,depth_duration_stimuli/000191_2014-05-12_17-07-38_260595134347_rgbf000199-resize_0/000191_2014-05-12_17-07-38_260595134347_rgbf000199-resize_0-target.png,125,3.7995,15,5993,125,meters,jsons/VE125_randls_33.json,2118610,2580580,25,Man
42,214934,DepthScenes,duration_manipulation_targetAtFixation,jsons/VE125_randls_33.json,http://54.235.29.9/FacialAge/BNav_EC2/DepthDuration/v2_depth_duration_MTurk/v2_DepthDuration_HTML.html#117,117,1366,625,1366,768,9-18-2022,12-15-56,43,depth_duration_stimuli/001059_2014-06-08_21-53-27_260595134347_rgbf000061-resize_4/001059_2014-06-08_21-53-27_260595134347_rgbf000061-resize_4-target.png,125,2.4185,7,6029,126,meters,jsons/VE125_randls_33.json,2118610,2580580,25,Man
43,214934,DepthScenes,duration_manipulation_targetAtFixation,jsons/VE125_randls_33.json,http://54.235.29.9/FacialAge/BNav_EC2/DepthDuration/v2_depth_duration_MTurk/v2_DepthDuration_HTML.html#117,117,1366,625,1366,768,9-18-2022,12-15-56,44,depth_duration_stimuli/001032_2014-06-08_13-23-17_260595134347_rgbf000021-resize_3/001032_2014-06-08_13-23-17_260595134347_rgbf000021-resize_3-target.png,125,3.2725,8,5330,125,meters,jsons/VE125_randls_33.json,2118610,2580580,25,Man
44,214934,DepthScenes,duration_manipulation_targetAtFixation,jsons/VE125_randls_33.json,http://54.235.29.9/FacialAge/BNav_EC2/DepthDuration/v2_depth_duration_MTurk/v2_DepthDuration_HTML.html#117,117,1366,625,1366,768,9-18-2022,12-15-56,45,depth_duration_stimuli/000787_2014-06-08_22-33-53_260595134347_rgbf000175-resize_1/000787_2014-06-08_22-33-53_260595134347_rgbf000175-resize-original.jpg,125,4.784,0,11051,125,meters,jsons/VE125_randls_33.json,2118610,2580580,25,Man
45,214934,DepthScenes,duration_manipulation_targetAtFixation,jsons/VE125_randls_33.json,http://54.235.29.9/FacialAge/BNav_EC2/DepthDuration/v2_depth_duration_MTurk/v2_DepthDuration_HTML.html#117,117,1366,625,1366,768,9-18-2022,12-15-56,46,depth_duration_stimuli/000486_2014-06-09_20-47-20_260595134347_rgbf000143-resize_2/000486_2014-06-09_20-47-20_260595134347_rgbf000143-resize_2-target.png,125,4.8325,0,2257,125,meters,jsons/VE125_randls_33.json,2118610,2580580,25,Man
46,214934,DepthScenes,duration_manipulation_targetAtFixation,jsons/VE125_randls_33.json,http://54.235.29.9/FacialAge/BNav_EC2/DepthDuration/v2_depth_duration_MTurk/v2_DepthDuration_HTML.html#117,117,1366,625,1366,768,9-18-2022,12-15-56,47,depth_duration_stimuli/003083_2014-06-15_15-21-03_094959634447_rgbf000063-resize_1/003083_2014-06-15_15-21-03_094959634447_rgbf000063-resize_1-target.png,125,4.1405,7,3756,125,meters,jsons/VE125_randls_33.json,2118610,2580580,25,Man
47,214934,DepthScenes,duration_manipulation_targetAtFixation,jsons/VE125_randls_33.json,http://54.235.29.9/FacialAge/BNav_EC2/DepthDuration/v2_depth_duration_MTurk/v2_DepthDuration_HTML.html#117,117,1366,625,1366,768,9-18-2022,12-15-56,48,depth_duration_stimuli/002763_2014-06-22_19-13-10_094959634447_rgbf000075-resize_4/002763_2014-06-22_19-13-10_094959634447_rgbf000075-resize_4-target.png,125,1.68375,6,4689,124,meters,jsons/VE125_randls_33.json,2118610,2580580,25,Man
48,214934,DepthScenes,duration_manipulation_targetAtFixation,jsons/VE125_randls_33.json,http://54.235.29.9/FacialAge/BNav_EC2/DepthDuration/v2_depth_duration_MTurk/v2_DepthDuration_HTML.html#117,117,1366,625,1366,768,9-18-2022,12-15-56,49,depth_duration_stimuli/002209_2014-06-28_18-36-10_260595134347_rgbf000051-resize_1/002209_2014-06-28_18-36-10_260595134347_rgbf000051-resize_1-target.png,125,2.057,6,4366,125,meters,jsons/VE125_randls_33.json,2118610,2580580,25,Man
49,214934,DepthScenes,duration_manipulation_targetAtFixation,jsons/VE125_randls_33.json,http://54.235.29.9/FacialAge/BNav_EC2/DepthDuration/v2_depth_duration_MTurk/v2_DepthDuration_HTML.html#117,117,1366,625,1366,768,9-18-2022,12-15-56,50,depth_duration_stimuli/001199_2014-06-17_16-03-48_260595134347_rgbf000077-resize_0/001199_2014-06-17_16-03-48_260595134347_rgbf000077-resize_0-target.png,125,3.4375,4,17688,125,meters,jsons/VE125_randls_33.json,2118610,2580580,25,Man
50,214934,DepthScenes,duration_manipulation_targetAtFixation,jsons/VE125_randls_33.json,http://54.235.29.9/FacialAge/BNav_EC2/DepthDuration/v2_depth_duration_MTurk/v2_DepthDuration_HTML.html#117,117,1366,625,1366,768,9-18-2022,12-15-56,51,depth_duration_stimuli/000502_2014-06-08_23-02-32_260595134347_rgbf000063-resize_4/000502_2014-06-08_23-02-32_260595134347_rgbf000063-resize_4-target.png,125,2.431,6,3299,125,meters,jsons/VE125_randls_33.json,2118610,2580580,25,Man
51,214934,DepthScenes,duration_manipulation_targetAtFixation,jsons/VE125_randls_33.json,http://54.235.29.9/FacialAge/BNav_EC2/DepthDuration/v2_depth_duration_MTurk/v2_DepthDuration_HTML.html#117,117,1366,625,1366,768,9-18-2022,12-15-56,52,depth_duration_stimuli/002905_2014-06-03_18-04-43_094959634447_rgbf000151-resize_2/002905_2014-06-03_18-04-43_094959634447_rgbf000151-resize_2-target.png,125,2.0295,7,4435,123,meters,jsons/VE125_randls_33.json,2118610,2580580,25,Man
52,214934,DepthScenes,duration_manipulation_targetAtFixation,jsons/VE125_randls_33.json,http://54.235.29.9/FacialAge/BNav_EC2/DepthDuration/v2_depth_duration_MTurk/v2_DepthDuration_HTML.html#117,117,1366,625,1366,768,9-18-2022,12-15-56,53,depth_duration_stimuli/003423_2014-05-21_10-23-26_094959634447_rgbf002665-resize_2/003423_2014-05-21_10-23-26_094959634447_rgbf002665-resize_2-target.png,125,3.2575,6,3522,123,meters,jsons/VE125_randls_33.json,2118610,2580580,25,Man
53,214934,DepthScenes,duration_manipulation_targetAtFixation,jsons/VE125_randls_33.json,http://54.235.29.9/FacialAge/BNav_EC2/DepthDuration/v2_depth_duration_MTurk/v2_DepthDuration_HTML.html#117,117,1366,625,1366,768,9-18-2022,12-15-56,54,depth_duration_stimuli/002043_2014-06-24_20-29-38_260595134347_rgbf000039-resize_4/002043_2014-06-24_20-29-38_260595134347_rgbf000039-resize_4-target.png,125,2.8435,8,4234,125,meters,jsons/VE125_randls_33.json,2118610,2580580,25,Man
54,214934,DepthScenes,duration_manipulation_targetAtFixation,jsons/VE125_randls_33.json,http://54.235.29.9/FacialAge/BNav_EC2/DepthDuration/v2_depth_duration_MTurk/v2_DepthDuration_HTML.html#117,117,1366,625,1366,768,9-18-2022,12-15-56,55,depth_duration_stimuli/003048_2014-06-15_13-49-43_094959634447_rgbf000150-resize_1/003048_2014-06-15_13-49-43_094959634447_rgbf000150-resize_1-target.png,125,4.0035,8,3097,123,meters,jsons/VE125_randls_33.json,2118610,2580580,25,Man
55,214934,DepthScenes,duration_manipulation_targetAtFixation,jsons/VE125_randls_33.json,http://54.235.29.9/FacialAge/BNav_EC2/DepthDuration/v2_depth_duration_MTurk/v2_DepthDuration_HTML.html#117,117,1366,625,1366,768,9-18-2022,12-15-56,56,depth_duration_stimuli/000368_2014-06-09_15-53-01_260595134347_rgbf000155-resize_2/000368_2014-06-09_15-53-01_260595134347_rgbf000155-resize_2-target.png,125,2.4859999999999998,5,4779,126,meters,jsons/VE125_randls_33.json,2118610,2580580,25,Man
56,214934,DepthScenes,duration_manipulation_targetAtFixation,jsons/VE125_randls_33.json,http://54.235.29.9/FacialAge/BNav_EC2/DepthDuration/v2_depth_duration_MTurk/v2_DepthDuration_HTML.html#117,117,1366,625,1366,768,9-18-2022,12-15-56,57,depth_duration_stimuli/002678_2014-06-13_16-15-32_094959634447_rgbf000151-resize_6/002678_2014-06-13_16-15-32_094959634447_rgbf000151-resize_6-target.png,125,2.1830000000000003,6,3187,126,meters,jsons/VE125_randls_33.json,2118610,2580580,25,Man
57,214934,DepthScenes,duration_manipulation_targetAtFixation,jsons/VE125_randls_33.json,http://54.235.29.9/FacialAge/BNav_EC2/DepthDuration/v2_depth_duration_MTurk/v2_DepthDuration_HTML.html#117,117,1366,625,1366,768,9-18-2022,12-15-56,58,depth_duration_stimuli/002375_2014-06-28_20-13-44_260595134347_rgbf000032-resize_1/002375_2014-06-28_20-13-44_260595134347_rgbf000032-resize_1-target.png,125,4.0175,6,3347,126,meters,jsons/VE125_randls_33.json,2118610,2580580,25,Man
58,214934,DepthScenes,duration_manipulation_targetAtFixation,jsons/VE125_randls_33.json,http://54.235.29.9/FacialAge/BNav_EC2/DepthDuration/v2_depth_duration_MTurk/v2_DepthDuration_HTML.html#117,117,1366,625,1366,768,9-18-2022,12-15-56,59,depth_duration_stimuli/002657_2014-06-13_15-29-54_094959634447_rgbf000150-resize_1/002657_2014-06-13_15-29-54_094959634447_rgbf000150-resize_1-target.png,125,4.919,7,3164,125,meters,jsons/VE125_randls_33.json,2118610,2580580,25,Man
59,214934,DepthScenes,duration_manipulation_targetAtFixation,jsons/VE125_randls_33.json,http://54.235.29.9/FacialAge/BNav_EC2/DepthDuration/v2_depth_duration_MTurk/v2_DepthDuration_HTML.html#117,117,1366,625,1366,768,9-18-2022,12-15-56,60,depth_duration_stimuli/000692_2014-06-08_13-09-42_260595134347_rgbf000199-resize_2/000692_2014-06-08_13-09-42_260595134347_rgbf000199-resize_2-target.png,125,3.661,8,3085,125,meters,jsons/VE125_randls_33.json,2118610,2580580,25,Man
60,214934,DepthScenes,duration_manipulation_targetAtFixation,jsons/VE125_randls_33.json,http://54.235.29.9/FacialAge/BNav_EC2/DepthDuration/v2_depth_duration_MTurk/v2_DepthDuration_HTML.html#117,117,1366,625,1366,768,9-18-2022,12-15-56,61,depth_duration_stimuli/001094_2014-06-15_17-36-00_260595134347_rgbf000205-resize_0/001094_2014-06-15_17-36-00_260595134347_rgbf000205-resize_0-target.png,125,4.2175,12,4769,126,meters,jsons/VE125_randls_33.json,2118610,2580580,25,Man
61,214934,DepthScenes,duration_manipulation_targetAtFixation,jsons/VE125_randls_33.json,http://54.235.29.9/FacialAge/BNav_EC2/DepthDuration/v2_depth_duration_MTurk/v2_DepthDuration_HTML.html#117,117,1366,625,1366,768,9-18-2022,12-15-56,62,depth_duration_stimuli/003070_2014-06-15_14-58-27_094959634447_rgbf000150-resize_3/003070_2014-06-15_14-58-27_094959634447_rgbf000150-resize_3-target.png,125,2.9415,8,4610,125,meters,jsons/VE125_randls_33.json,2118610,2580580,25,Man
62,214934,DepthScenes,duration_manipulation_targetAtFixation,jsons/VE125_randls_33.json,http://54.235.29.9/FacialAge/BNav_EC2/DepthDuration/v2_depth_duration_MTurk/v2_DepthDuration_HTML.html#117,117,1366,625,1366,768,9-18-2022,12-15-56,63,depth_duration_stimuli/000943_2014-06-09_19-31-07_260595134347_rgbf000128-resize_1/000943_2014-06-09_19-31-07_260595134347_rgbf000128-resize_1-target.png,125,1.9765,7,3723,125,meters,jsons/VE125_randls_33.json,2118610,2580580,25,Man
63,214934,DepthScenes,duration_manipulation_targetAtFixation,jsons/VE125_randls_33.json,http://54.235.29.9/FacialAge/BNav_EC2/DepthDuration/v2_depth_duration_MTurk/v2_DepthDuration_HTML.html#117,117,1366,625,1366,768,9-18-2022,12-15-56,64,depth_duration_stimuli/002279_2014-06-28_18-55-32_260595134347_rgbf000040-resize_5/002279_2014-06-28_18-55-32_260595134347_rgbf000040-resize_5-target.png,125,1.5043333333333,6,5818,124,meters,jsons/VE125_randls_33.json,2118610,2580580,25,Man
64,214934,DepthScenes,duration_manipulation_targetAtFixation,jsons/VE125_randls_33.json,http://54.235.29.9/FacialAge/BNav_EC2/DepthDuration/v2_depth_duration_MTurk/v2_DepthDuration_HTML.html#117,117,1366,625,1366,768,9-18-2022,12-15-56,65,depth_duration_stimuli/000635_2014-06-08_16-38-42_260595134347_rgbf000106-resize_1/000635_2014-06-08_16-38-42_260595134347_rgbf000106-resize_1-target.png,125,2.074,15,1017165,125,meters,jsons/VE125_randls_33.json,2118610,2580580,25,Man
65,214934,DepthScenes,duration_manipulation_targetAtFixation,jsons/VE125_randls_33.json,http://54.235.29.9/FacialAge/BNav_EC2/DepthDuration/v2_depth_duration_MTurk/v2_DepthDuration_HTML.html#117,117,1366,625,1366,768,9-18-2022,12-15-56,66,depth_duration_stimuli/001222_2014-06-17_16-24-06_260595134347_rgbf000073-resize_0/001222_2014-06-17_16-24-06_260595134347_rgbf000073-resize-original.jpg,125,1.4385,0,2985,125,meters,jsons/VE125_randls_33.json,2118610,2580580,25,Man
66,214934,DepthScenes,duration_manipulation_targetAtFixation,jsons/VE125_randls_33.json,http://54.235.29.9/FacialAge/BNav_EC2/DepthDuration/v2_depth_duration_MTurk/v2_DepthDuration_HTML.html#117,117,1366,625,1366,768,9-18-2022,12-15-56,67,depth_duration_stimuli/000009_2014-05-26_14-32-05_260595134347_rgbf000034-resize_3/000009_2014-05-26_14-32-05_260595134347_rgbf000034-resize_3-target.png,125,3.8715,4,4539,125,meters,jsons/VE125_randls_33.json,2118610,2580580,25,Man
67,214934,DepthScenes,duration_manipulation_targetAtFixation,jsons/VE125_randls_33.json,http://54.235.29.9/FacialAge/BNav_EC2/DepthDuration/v2_depth_duration_MTurk/v2_DepthDuration_HTML.html#117,117,1366,625,1366,768,9-18-2022,12-15-56,68,depth_duration_stimuli/001828_2014-06-26_21-40-03_260595134347_rgbf000024-resize_0/001828_2014-06-26_21-40-03_260595134347_rgbf000024-resize_0-target.png,125,4.8260000000000005,12,8008,0,meters,jsons/VE125_randls_33.json,2118610,2580580,25,Man
68,214934,DepthScenes,duration_manipulation_targetAtFixation,jsons/VE125_randls_33.json,http://54.235.29.9/FacialAge/BNav_EC2/DepthDuration/v2_depth_duration_MTurk/v2_DepthDuration_HTML.html#117,117,1366,625,1366,768,9-18-2022,12-15-56,69,depth_duration_stimuli/002964_2014-06-08_17-46-11_094959634447_rgbf000091-resize_4/002964_2014-06-08_17-46-11_094959634447_rgbf000091-resize_4-target.png,125,1.6909999999999998,13,5873,1,meters,jsons/VE125_randls_33.json,2118610,2580580,25,Man
69,214934,DepthScenes,duration_manipulation_targetAtFixation,jsons/VE125_randls_33.json,http://54.235.29.9/FacialAge/BNav_EC2/DepthDuration/v2_depth_duration_MTurk/v2_DepthDuration_HTML.html#117,117,1366,625,1366,768,9-18-2022,12-15-56,70,depth_duration_stimuli/002136_2014-06-25_21-18-03_260595134347_rgbf000109-resize_3/002136_2014-06-25_21-18-03_260595134347_rgbf000109-resize_3-target.png,125,1.9569999999999999,5,3432,124,meters,jsons/VE125_randls_33.json,2118610,2580580,25,Man
70,214934,DepthScenes,duration_manipulation_targetAtFixation,jsons/VE125_randls_33.json,http://54.235.29.9/FacialAge/BNav_EC2/DepthDuration/v2_depth_duration_MTurk/v2_DepthDuration_HTML.html#117,117,1366,625,1366,768,9-18-2022,12-15-56,71,depth_duration_stimuli/000878_2014-06-08_22-52-45_260595134347_rgbf000045-resize_2/000878_2014-06-08_22-52-45_260595134347_rgbf000045-resize_2-target.png,125,2.092,7,3290,125,meters,jsons/VE125_randls_33.json,2118610,2580580,25,Man
71,214934,DepthScenes,duration_manipulation_targetAtFixation,jsons/VE125_randls_33.json,http://54.235.29.9/FacialAge/BNav_EC2/DepthDuration/v2_depth_duration_MTurk/v2_DepthDuration_HTML.html#117,117,1366,625,1366,768,9-18-2022,12-15-56,72,depth_duration_stimuli/002953_2014-06-08_17-32-18_094959634447_rgbf000059-resize_5/002953_2014-06-08_17-32-18_094959634447_rgbf000059-resize_5-target.png,125,1.551,0,4874,124,meters,jsons/VE125_randls_33.json,2118610,2580580,25,Man
72,214934,DepthScenes,duration_manipulation_targetAtFixation,jsons/VE125_randls_33.json,http://54.235.29.9/FacialAge/BNav_EC2/DepthDuration/v2_depth_duration_MTurk/v2_DepthDuration_HTML.html#117,117,1366,625,1366,768,9-18-2022,12-15-56,73,depth_duration_stimuli/001110_2014-06-15_17-25-28_260595134347_rgbf000150-resize_1/001110_2014-06-15_17-25-28_260595134347_rgbf000150-resize_1-target.png,125,1.7115,6,3395,124,meters,jsons/VE125_randls_33.json,2118610,2580580,25,Man
73,214934,DepthScenes,duration_manipulation_targetAtFixation,jsons/VE125_randls_33.json,http://54.235.29.9/FacialAge/BNav_EC2/DepthDuration/v2_depth_duration_MTurk/v2_DepthDuration_HTML.html#117,117,1366,625,1366,768,9-18-2022,12-15-56,74,depth_duration_stimuli/000927_2014-06-09_16-32-30_260595134347_rgbf000123-resize_3/000927_2014-06-09_16-32-30_260595134347_rgbf000123-resize_3-target.png,125,2.6785,6,25187,126,meters,jsons/VE125_randls_33.json,2118610,2580580,25,Man
74,214934,DepthScenes,duration_manipulation_targetAtFixation,jsons/VE125_randls_33.json,http://54.235.29.9/FacialAge/BNav_EC2/DepthDuration/v2_depth_duration_MTurk/v2_DepthDuration_HTML.html#117,117,1366,625,1366,768,9-18-2022,12-15-56,75,depth_duration_stimuli/001066_2014-06-08_22-03-20_260595134347_rgbf000066-resize_4/001066_2014-06-08_22-03-20_260595134347_rgbf000066-resize_4-target.png,125,4.2330000000000005,7,5537,125,meters,jsons/VE125_randls_33.json,2118610,2580580,25,Man
75,214934,DepthScenes,duration_manipulation_targetAtFixation,jsons/VE125_randls_33.json,http://54.235.29.9/FacialAge/BNav_EC2/DepthDuration/v2_depth_duration_MTurk/v2_DepthDuration_HTML.html#117,117,1366,625,1366,768,9-18-2022,12-15-56,76,depth_duration_stimuli/000742_2014-06-08_18-48-09_260595134347_rgbf000164-resize_4/000742_2014-06-08_18-48-09_260595134347_rgbf000164-resize_4-target.png,125,4.632,8,3356,126,meters,jsons/VE125_randls_33.json,2118610,2580580,25,Man
76,214934,DepthScenes,duration_manipulation_targetAtFixation,jsons/VE125_randls_33.json,http://54.235.29.9/FacialAge/BNav_EC2/DepthDuration/v2_depth_duration_MTurk/v2_DepthDuration_HTML.html#117,117,1366,625,1366,768,9-18-2022,12-15-56,77,depth_duration_stimuli/001806_2014-06-26_20-50-20_260595134347_rgbf000091-resize_1/001806_2014-06-26_20-50-20_260595134347_rgbf000091-resize_1-target.png,125,2.7305,6,2977,124,meters,jsons/VE125_randls_33.json,2118610,2580580,25,Man
77,214934,DepthScenes,duration_manipulation_targetAtFixation,jsons/VE125_randls_33.json,http://54.235.29.9/FacialAge/BNav_EC2/DepthDuration/v2_depth_duration_MTurk/v2_DepthDuration_HTML.html#117,117,1366,625,1366,768,9-18-2022,12-15-56,78,depth_duration_stimuli/001617_2014-06-20_11-35-32_260595134347_rgbf000066-resize_1/001617_2014-06-20_11-35-32_260595134347_rgbf000066-resize_1-target.png,125,3.7910000000000004,7,3186,123,meters,jsons/VE125_randls_33.json,2118610,2580580,25,Man
78,214934,DepthScenes,duration_manipulation_targetAtFixation,jsons/VE125_randls_33.json,http://54.235.29.9/FacialAge/BNav_EC2/DepthDuration/v2_depth_duration_MTurk/v2_DepthDuration_HTML.html#117,117,1366,625,1366,768,9-18-2022,12-15-56,79,depth_duration_stimuli/001150_2014-06-17_15-27-34_260595134347_rgbf000108-resize_2/001150_2014-06-17_15-27-34_260595134347_rgbf000108-resize_2-target.png,125,4.0325,6,3315,125,meters,jsons/VE125_randls_33.json,2118610,2580580,25,Man
79,214934,DepthScenes,duration_manipulation_targetAtFixation,jsons/VE125_randls_33.json,http://54.235.29.9/FacialAge/BNav_EC2/DepthDuration/v2_depth_duration_MTurk/v2_DepthDuration_HTML.html#117,117,1366,625,1366,768,9-18-2022,12-15-56,80,depth_duration_stimuli/000665_2014-06-09_20-42-35_260595134347_rgbf000110-resize_1/000665_2014-06-09_20-42-35_260595134347_rgbf000110-resize_1-target.png,125,3.057,12,7563,125,meters,jsons/VE125_randls_33.json,2118610,2580580,25,Man
80,214934,DepthScenes,duration_manipulation_targetAtFixation,jsons/VE125_randls_33.json,http://54.235.29.9/FacialAge/BNav_EC2/DepthDuration/v2_depth_duration_MTurk/v2_DepthDuration_HTML.html#117,117,1366,625,1366,768,9-18-2022,12-15-56,81,depth_duration_stimuli/002509_2014-06-24_13-19-22_094959634447_rgbf000077-resize_0/002509_2014-06-24_13-19-22_094959634447_rgbf000077-resize_0-target.png,125,1.3065,4,3920,125,meters,jsons/VE125_randls_33.json,2118610,2580580,25,Man
81,214934,DepthScenes,duration_manipulation_targetAtFixation,jsons/VE125_randls_33.json,http://54.235.29.9/FacialAge/BNav_EC2/DepthDuration/v2_depth_duration_MTurk/v2_DepthDuration_HTML.html#117,117,1366,625,1366,768,9-18-2022,12-15-56,82,depth_duration_stimuli/003338_2014-05-20_11-01-23_094959634447_rgbf000051-resize_6/003338_2014-05-20_11-01-23_094959634447_rgbf000051-resize_6-target.png,125,1.693,3,3093,126,meters,jsons/VE125_randls_33.json,2118610,2580580,25,Man
82,214934,DepthScenes,duration_manipulation_targetAtFixation,jsons/VE125_randls_33.json,http://54.235.29.9/FacialAge/BNav_EC2/DepthDuration/v2_depth_duration_MTurk/v2_DepthDuration_HTML.html#117,117,1366,625,1366,768,9-18-2022,12-15-56,83,depth_duration_stimuli/001158_2014-06-17_15-32-16_260595134347_rgbf000138-resize_2/001158_2014-06-17_15-32-16_260595134347_rgbf000138-resize_2-target.png,125,4.5315,5,3256,124,meters,jsons/VE125_randls_33.json,2118610,2580580,25,Man
83,214934,DepthScenes,duration_manipulation_targetAtFixation,jsons/VE125_randls_33.json,http://54.235.29.9/FacialAge/BNav_EC2/DepthDuration/v2_depth_duration_MTurk/v2_DepthDuration_HTML.html#117,117,1366,625,1366,768,9-18-2022,12-15-56,84,depth_duration_stimuli/000556_2014-06-09_22-42-56_260595134347_rgbf000214-resize_1/000556_2014-06-09_22-42-56_260595134347_rgbf000214-resize_1-target.png,125,4.8415,6,77550,125,meters,jsons/VE125_randls_33.json,2118610,2580580,25,Man
84,214934,DepthScenes,duration_manipulation_targetAtFixation,jsons/VE125_randls_33.json,http://54.235.29.9/FacialAge/BNav_EC2/DepthDuration/v2_depth_duration_MTurk/v2_DepthDuration_HTML.html#117,117,1366,625,1366,768,9-18-2022,12-15-56,85,depth_duration_stimuli/001055_2014-06-08_18-45-35_260595134347_rgbf000111-resize_4/001055_2014-06-08_18-45-35_260595134347_rgbf000111-resize_4-target.png,125,2.4290000000000003,8,3089,124,meters,jsons/VE125_randls_33.json,2118610,2580580,25,Man
85,214934,DepthScenes,duration_manipulation_targetAtFixation,jsons/VE125_randls_33.json,http://54.235.29.9/FacialAge/BNav_EC2/DepthDuration/v2_depth_duration_MTurk/v2_DepthDuration_HTML.html#117,117,1366,625,1366,768,9-18-2022,12-15-56,86,depth_duration_stimuli/000549_2014-06-08_22-10-24_260595134347_rgbf000247-resize_3/000549_2014-06-08_22-10-24_260595134347_rgbf000247-resize_3-target.png,125,1.841,4,3099,126,meters,jsons/VE125_randls_33.json,2118610,2580580,25,Man
86,214934,DepthScenes,duration_manipulation_targetAtFixation,jsons/VE125_randls_33.json,http://54.235.29.9/FacialAge/BNav_EC2/DepthDuration/v2_depth_duration_MTurk/v2_DepthDuration_HTML.html#117,117,1366,625,1366,768,9-18-2022,12-15-56,87,depth_duration_stimuli/000758_2014-06-08_22-05-08_260595134347_rgbf000085-resize_0/000758_2014-06-08_22-05-08_260595134347_rgbf000085-resize_0-target.png,125,3.3810000000000002,6,2907,126,meters,jsons/VE125_randls_33.json,2118610,2580580,25,Man
87,214934,DepthScenes,duration_manipulation_targetAtFixation,jsons/VE125_randls_33.json,http://54.235.29.9/FacialAge/BNav_EC2/DepthDuration/v2_depth_duration_MTurk/v2_DepthDuration_HTML.html#117,117,1366,625,1366,768,9-18-2022,12-15-56,88,depth_duration_stimuli/000854_2014-06-09_19-43-13_260595134347_rgbf000066-resize_0/000854_2014-06-09_19-43-13_260595134347_rgbf000066-resize_0-target.png,125,3.068,0,3906,125,meters,jsons/VE125_randls_33.json,2118610,2580580,25,Man
88,214934,DepthScenes,duration_manipulation_targetAtFixation,jsons/VE125_randls_33.json,http://54.235.29.9/FacialAge/BNav_EC2/DepthDuration/v2_depth_duration_MTurk/v2_DepthDuration_HTML.html#117,117,1366,625,1366,768,9-18-2022,12-15-56,89,depth_duration_stimuli/001570_2014-06-20_17-21-09_260595134347_rgbf000135-resize_4/001570_2014-06-20_17-21-09_260595134347_rgbf000135-resize_4-target.png,125,4.467,4,4827,124,meters,jsons/VE125_randls_33.json,2118610,2580580,25,Man
89,214934,DepthScenes,duration_manipulation_targetAtFixation,jsons/VE125_randls_33.json,http://54.235.29.9/FacialAge/BNav_EC2/DepthDuration/v2_depth_duration_MTurk/v2_DepthDuration_HTML.html#117,117,1366,625,1366,768,9-18-2022,12-15-56,90,depth_duration_stimuli/001392_2014-06-19_16-07-59_260595134347_rgbf000046-resize_1/001392_2014-06-19_16-07-59_260595134347_rgbf000046-resize_1-target.png,125,4.135,6,11531,125,meters,jsons/VE125_randls_33.json,2118610,2580580,25,Man
90,214934,DepthScenes,duration_manipulation_targetAtFixation,jsons/VE125_randls_33.json,http://54.235.29.9/FacialAge/BNav_EC2/DepthDuration/v2_depth_duration_MTurk/v2_DepthDuration_HTML.html#117,117,1366,625,1366,768,9-18-2022,12-15-56,91,depth_duration_stimuli/001175_2014-06-17_15-45-55_260595134347_rgbf000129-resize_4/001175_2014-06-17_15-45-55_260595134347_rgbf000129-resize_4-target.png,125,4.255,12,76682,125,meters,jsons/VE125_randls_33.json,2118610,2580580,25,Man
91,214934,DepthScenes,duration_manipulation_targetAtFixation,jsons/VE125_randls_33.json,http://54.235.29.9/FacialAge/BNav_EC2/DepthDuration/v2_depth_duration_MTurk/v2_DepthDuration_HTML.html#117,117,1366,625,1366,768,9-18-2022,12-15-56,92,depth_duration_stimuli/003490_2014-05-21_15-50-11_094959634447_rgbf000101-resize_3/003490_2014-05-21_15-50-11_094959634447_rgbf000101-resize_3-target.png,125,3.6445,4,3419,123,meters,jsons/VE125_randls_33.json,2118610,2580580,25,Man
92,214934,DepthScenes,duration_manipulation_targetAtFixation,jsons/VE125_randls_33.json,http://54.235.29.9/FacialAge/BNav_EC2/DepthDuration/v2_depth_duration_MTurk/v2_DepthDuration_HTML.html#117,117,1366,625,1366,768,9-18-2022,12-15-56,93,depth_duration_stimuli/002725_2014-06-22_11-47-51_094959634447_rgbf000070-resize_1/002725_2014-06-22_11-47-51_094959634447_rgbf000070-resize_1-target.png,125,2.195,8,3106,126,meters,jsons/VE125_randls_33.json,2118610,2580580,25,Man
93,214934,DepthScenes,duration_manipulation_targetAtFixation,jsons/VE125_randls_33.json,http://54.235.29.9/FacialAge/BNav_EC2/DepthDuration/v2_depth_duration_MTurk/v2_DepthDuration_HTML.html#117,117,1366,625,1366,768,9-18-2022,12-15-56,94,depth_duration_stimuli/002344_2014-06-28_20-06-29_260595134347_rgbf000030-resize_1/002344_2014-06-28_20-06-29_260595134347_rgbf000030-resize_1-target.png,125,1.5795,6,4124,126,meters,jsons/VE125_randls_33.json,2118610,2580580,25,Man
94,214934,DepthScenes,duration_manipulation_targetAtFixation,jsons/VE125_randls_33.json,http://54.235.29.9/FacialAge/BNav_EC2/DepthDuration/v2_depth_duration_MTurk/v2_DepthDuration_HTML.html#117,117,1366,625,1366,768,9-18-2022,12-15-56,95,depth_duration_stimuli/002549_2014-06-24_13-41-39_094959634447_rgbf000022-resize_3/002549_2014-06-24_13-41-39_094959634447_rgbf000022-resize_3-target.png,125,1.476,6,5121,126,meters,jsons/VE125_randls_33.json,2118610,2580580,25,Man
95,214934,DepthScenes,duration_manipulation_targetAtFixation,jsons/VE125_randls_33.json,http://54.235.29.9/FacialAge/BNav_EC2/DepthDuration/v2_depth_duration_MTurk/v2_DepthDuration_HTML.html#117,117,1366,625,1366,768,9-18-2022,12-15-56,96,depth_duration_stimuli/002750_2014-06-22_19-08-03_094959634447_rgbf000094-resize_4/002750_2014-06-22_19-08-03_094959634447_rgbf000094-resize_4-target.png,125,2.354,4,7026,124,meters,jsons/VE125_randls_33.json,2118610,2580580,25,Man
96,214934,DepthScenes,duration_manipulation_targetAtFixation,jsons/VE125_randls_33.json,http://54.235.29.9/FacialAge/BNav_EC2/DepthDuration/v2_depth_duration_MTurk/v2_DepthDuration_HTML.html#117,117,1366,625,1366,768,9-18-2022,12-15-56,97,depth_duration_stimuli/002445_2014-06-28_20-32-16_260595134347_rgbf000029-resize_4/002445_2014-06-28_20-32-16_260595134347_rgbf000029-resize_4-target.png,125,2.5315,6,3009,124,meters,jsons/VE125_randls_33.json,2118610,2580580,25,Man
97,214934,DepthScenes,duration_manipulation_targetAtFixation,jsons/VE125_randls_33.json,http://54.235.29.9/FacialAge/BNav_EC2/DepthDuration/v2_depth_duration_MTurk/v2_DepthDuration_HTML.html#117,117,1366,625,1366,768,9-18-2022,12-15-56,98,depth_duration_stimuli/000780_2014-06-08_22-28-29_260595134347_rgbf000126-resize_1/000780_2014-06-08_22-28-29_260595134347_rgbf000126-resize_1-target.png,125,3.3825,7,4924,127,meters,jsons/VE125_randls_33.json,2118610,2580580,25,Man
98,214934,DepthScenes,duration_manipulation_targetAtFixation,jsons/VE125_randls_33.json,http://54.235.29.9/FacialAge/BNav_EC2/DepthDuration/v2_depth_duration_MTurk/v2_DepthDuration_HTML.html#117,117,1366,625,1366,768,9-18-2022,12-15-56,99,depth_duration_stimuli/001540_2014-06-20_17-01-05_260595134347_rgbf000086-resize_2/001540_2014-06-20_17-01-05_260595134347_rgbf000086-resize-original.jpg,125,1.459,4,4362,123,meters,jsons/VE125_randls_33.json,2118610,2580580,25,Man
99,214934,DepthScenes,duration_manipulation_targetAtFixation,jsons/VE125_randls_33.json,http://54.235.29.9/FacialAge/BNav_EC2/DepthDuration/v2_depth_duration_MTurk/v2_DepthDuration_HTML.html#117,117,1366,625,1366,768,9-18-2022,12-15-56,100,depth_duration_stimuli/000447_2014-06-08_16-15-46_260595134347_rgbf000130-resize_1/000447_2014-06-08_16-15-46_260595134347_rgbf000130-resize_1-target.png,125,4.479,8,3306,125,meters,jsons/VE125_randls_33.json,2118610,2580580,25,Man
100,214934,DepthScenes,duration_manipulation_targetAtFixation,jsons/VE125_randls_33.json,http://54.235.29.9/FacialAge/BNav_EC2/DepthDuration/v2_depth_duration_MTurk/v2_DepthDuration_HTML.html#117,117,1366,625,1366,768,9-18-2022,12-15-56,101,depth_duration_stimuli/001447_2014-06-19_17-00-32_260595134347_rgbf000082-resize_5/001447_2014-06-19_17-00-32_260595134347_rgbf000082-resize_5-target.png,125,4.13775,10,3194,124,meters,jsons/VE125_randls_33.json,2118610,2580580,25,Man
101,214934,DepthScenes,duration_manipulation_targetAtFixation,jsons/VE125_randls_33.json,http://54.235.29.9/FacialAge/BNav_EC2/DepthDuration/v2_depth_duration_MTurk/v2_DepthDuration_HTML.html#117,117,1366,625,1366,768,9-18-2022,12-15-56,102,depth_duration_stimuli/001167_2014-06-17_15-38-07_260595134347_rgbf000108-resize_0/001167_2014-06-17_15-38-07_260595134347_rgbf000108-resize_0-target.png,125,1.8505,6,100084,124,meters,jsons/VE125_randls_33.json,2118610,2580580,25,Man
102,214934,DepthScenes,duration_manipulation_targetAtFixation,jsons/VE125_randls_33.json,http://54.235.29.9/FacialAge/BNav_EC2/DepthDuration/v2_depth_duration_MTurk/v2_DepthDuration_HTML.html#117,117,1366,625,1366,768,9-18-2022,12-15-56,103,depth_duration_stimuli/003587_2014-05-23_16-48-02_094959634447_rgbf002384-resize_2/003587_2014-05-23_16-48-02_094959634447_rgbf002384-resize_2-target.png,125,1.357,3,2892,124,meters,jsons/VE125_randls_33.json,2118610,2580580,25,Man
103,214934,DepthScenes,duration_manipulation_targetAtFixation,jsons/VE125_randls_33.json,http://54.235.29.9/FacialAge/BNav_EC2/DepthDuration/v2_depth_duration_MTurk/v2_DepthDuration_HTML.html#117,117,1366,625,1366,768,9-18-2022,12-15-56,104,depth_duration_stimuli/002057_2014-06-24_21-00-13_260595134347_rgbf000120-resize_1/002057_2014-06-24_21-00-13_260595134347_rgbf000120-resize_1-target.png,125,2.967,8,3227,124,meters,jsons/VE125_randls_33.json,2118610,2580580,25,Man
104,214934,DepthScenes,duration_manipulation_targetAtFixation,jsons/VE125_randls_33.json,http://54.235.29.9/FacialAge/BNav_EC2/DepthDuration/v2_depth_duration_MTurk/v2_DepthDuration_HTML.html#117,117,1366,625,1366,768,9-18-2022,12-15-56,105,depth_duration_stimuli/000709_2014-06-08_13-51-55_260595134347_rgbf000068-resize_3/000709_2014-06-08_13-51-55_260595134347_rgbf000068-resize_3-target.png,125,1.8030000000000002,6,3114,124,meters,jsons/VE125_randls_33.json,2118610,2580580,25,Man
105,214934,DepthScenes,duration_manipulation_targetAtFixation,jsons/VE125_randls_33.json,http://54.235.29.9/FacialAge/BNav_EC2/DepthDuration/v2_depth_duration_MTurk/v2_DepthDuration_HTML.html#117,117,1366,625,1366,768,9-18-2022,12-15-56,106,depth_duration_stimuli/002988_2014-06-15_12-24-20_094959634447_rgbf000150-resize_1/002988_2014-06-15_12-24-20_094959634447_rgbf000150-resize_1-target.png,125,4.7669999999999995,8,3650,126,meters,jsons/VE125_randls_33.json,2118610,2580580,25,Man
106,214934,DepthScenes,duration_manipulation_targetAtFixation,jsons/VE125_randls_33.json,http://54.235.29.9/FacialAge/BNav_EC2/DepthDuration/v2_depth_duration_MTurk/v2_DepthDuration_HTML.html#117,117,1366,625,1366,768,9-18-2022,12-15-56,107,depth_duration_stimuli/001052_2014-06-08_18-24-54_260595134347_rgbf000130-resize_1/001052_2014-06-08_18-24-54_260595134347_rgbf000130-resize_1-target.png,125,4.1045,10,3139,125,meters,jsons/VE125_randls_33.json,2118610,2580580,25,Man
107,214934,DepthScenes,duration_manipulation_targetAtFixation,jsons/VE125_randls_33.json,http://54.235.29.9/FacialAge/BNav_EC2/DepthDuration/v2_depth_duration_MTurk/v2_DepthDuration_HTML.html#117,117,1366,625,1366,768,9-18-2022,12-15-56,108,depth_duration_stimuli/000436_2014-06-09_22-25-11_260595134347_rgbf000137-resize_1/000436_2014-06-09_22-25-11_260595134347_rgbf000137-resize_1-target.png,125,4.0705,6,53276,124,meters,jsons/VE125_randls_33.json,2118610,2580580,25,Man
108,214934,DepthScenes,duration_manipulation_targetAtFixation,jsons/VE125_randls_33.json,http://54.235.29.9/FacialAge/BNav_EC2/DepthDuration/v2_depth_duration_MTurk/v2_DepthDuration_HTML.html#117,117,1366,625,1366,768,9-18-2022,12-15-56,109,depth_duration_stimuli/002444_2014-06-28_20-32-08_260595134347_rgbf000027-resize_0/002444_2014-06-28_20-32-08_260595134347_rgbf000027-resize_0-target.png,125,4.388999999999999,8,3427,126,meters,jsons/VE125_randls_33.json,2118610,2580580,25,Man
109,214934,DepthScenes,duration_manipulation_targetAtFixation,jsons/VE125_randls_33.json,http://54.235.29.9/FacialAge/BNav_EC2/DepthDuration/v2_depth_duration_MTurk/v2_DepthDuration_HTML.html#117,117,1366,625,1366,768,9-18-2022,12-15-56,110,depth_duration_stimuli/000522_2014-06-08_13-35-06_260595134347_rgbf000244-resize_1/000522_2014-06-08_13-35-06_260595134347_rgbf000244-resize_1-target.png,125,2.3715,7,3547,126,meters,jsons/VE125_randls_33.json,2118610,2580580,25,Man
110,214934,DepthScenes,duration_manipulation_targetAtFixation,jsons/VE125_randls_33.json,http://54.235.29.9/FacialAge/BNav_EC2/DepthDuration/v2_depth_duration_MTurk/v2_DepthDuration_HTML.html#117,117,1366,625,1366,768,9-18-2022,12-15-56,111,depth_duration_stimuli/002949_2014-06-26_15-57-42_094959634447_rgbf000079-resize_1/002949_2014-06-26_15-57-42_094959634447_rgbf000079-resize_1-target.png,125,1.8915,0,2977,124,meters,jsons/VE125_randls_33.json,2118610,2580580,25,Man
111,214934,DepthScenes,duration_manipulation_targetAtFixation,jsons/VE125_randls_33.json,http://54.235.29.9/FacialAge/BNav_EC2/DepthDuration/v2_depth_duration_MTurk/v2_DepthDuration_HTML.html#117,117,1366,625,1366,768,9-18-2022,12-15-56,112,depth_duration_stimuli/001164_2014-06-17_15-35-46_260595134347_rgbf000085-resize_3/001164_2014-06-17_15-35-46_260595134347_rgbf000085-resize_3-target.png,125,2.354,8,2885,125,meters,jsons/VE125_randls_33.json,2118610,2580580,25,Man
112,214934,DepthScenes,duration_manipulation_targetAtFixation,jsons/VE125_randls_33.json,http://54.235.29.9/FacialAge/BNav_EC2/DepthDuration/v2_depth_duration_MTurk/v2_DepthDuration_HTML.html#117,117,1366,625,1366,768,9-18-2022,12-15-56,113,depth_duration_stimuli/001136_2014-06-17_15-19-41_260595134347_rgbf000076-resize_3/001136_2014-06-17_15-19-41_260595134347_rgbf000076-resize_3-target.png,125,1.8655,6,3545,124,meters,jsons/VE125_randls_33.json,2118610,2580580,25,Man
113,214934,DepthScenes,duration_manipulation_targetAtFixation,jsons/VE125_randls_33.json,http://54.235.29.9/FacialAge/BNav_EC2/DepthDuration/v2_depth_duration_MTurk/v2_DepthDuration_HTML.html#117,117,1366,625,1366,768,9-18-2022,12-15-56,114,depth_duration_stimuli/002213_2014-06-28_18-37-58_260595134347_rgbf000055-resize_1/002213_2014-06-28_18-37-58_260595134347_rgbf000055-resize_1-target.png,125,3.62,0,2947,125,meters,jsons/VE125_randls_33.json,2118610,2580580,25,Man
114,214934,DepthScenes,duration_manipulation_targetAtFixation,jsons/VE125_randls_33.json,http://54.235.29.9/FacialAge/BNav_EC2/DepthDuration/v2_depth_duration_MTurk/v2_DepthDuration_HTML.html#117,117,1366,625,1366,768,9-18-2022,12-15-56,115,depth_duration_stimuli/000691_2014-06-08_13-08-50_260595134347_rgbf000132-resize_3/000691_2014-06-08_13-08-50_260595134347_rgbf000132-resize_3-target.png,125,4.1530000000000005,6,3882,124,meters,jsons/VE125_randls_33.json,2118610,2580580,25,Man
115,214934,DepthScenes,duration_manipulation_targetAtFixation,jsons/VE125_randls_33.json,http://54.235.29.9/FacialAge/BNav_EC2/DepthDuration/v2_depth_duration_MTurk/v2_DepthDuration_HTML.html#117,117,1366,625,1366,768,9-18-2022,12-15-56,116,depth_duration_stimuli/001170_2014-06-17_15-43-44_260595134347_rgbf000096-resize_6/001170_2014-06-17_15-43-44_260595134347_rgbf000096-resize-original.jpg,125,1.1909999999999998,0,2602,126,meters,jsons/VE125_randls_33.json,2118610,2580580,25,Man
116,214934,DepthScenes,duration_manipulation_targetAtFixation,jsons/VE125_randls_33.json,http://54.235.29.9/FacialAge/BNav_EC2/DepthDuration/v2_depth_duration_MTurk/v2_DepthDuration_HTML.html#117,117,1366,625,1366,768,9-18-2022,12-15-56,117,depth_duration_stimuli/001808_2014-06-26_20-50-58_260595134347_rgbf000029-resize_1/001808_2014-06-26_20-50-58_260595134347_rgbf000029-resize_1-target.png,125,4.249,7,3139,126,meters,jsons/VE125_randls_33.json,2118610,2580580,25,Man
117,214934,DepthScenes,duration_manipulation_targetAtFixation,jsons/VE125_randls_33.json,http://54.235.29.9/FacialAge/BNav_EC2/DepthDuration/v2_depth_duration_MTurk/v2_DepthDuration_HTML.html#117,117,1366,625,1366,768,9-18-2022,12-15-56,118,depth_duration_stimuli/001815_2014-06-26_20-52-55_260595134347_rgbf000020-resize_0/001815_2014-06-26_20-52-55_260595134347_rgbf000020-resize_0-target.png,125,3.3865,9,2836,125,meters,jsons/VE125_randls_33.json,2118610,2580580,25,Man
118,214934,DepthScenes,duration_manipulation_targetAtFixation,jsons/VE125_randls_33.json,http://54.235.29.9/FacialAge/BNav_EC2/DepthDuration/v2_depth_duration_MTurk/v2_DepthDuration_HTML.html#117,117,1366,625,1366,768,9-18-2022,12-15-56,119,depth_duration_stimuli/000414_2014-06-04_19-49-13_260595134347_rgbf000044-resize_0/000414_2014-06-04_19-49-13_260595134347_rgbf000044-resize_0-target.png,125,4.329,14,5580,125,meters,jsons/VE125_randls_33.json,2118610,2580580,25,Man
119,214934,DepthScenes,duration_manipulation_targetAtFixation,jsons/VE125_randls_33.json,http://54.235.29.9/FacialAge/BNav_EC2/DepthDuration/v2_depth_duration_MTurk/v2_DepthDuration_HTML.html#117,117,1366,625,1366,768,9-18-2022,12-15-56,120,depth_duration_stimuli/003129_2014-05-12_10-48-10_094959634447_rgbf000100-resize_0/003129_2014-05-12_10-48-10_094959634447_rgbf000100-resize_0-target.png,125,4.9305,8,3244,124,meters,jsons/VE125_randls_33.json,2118610,2580580,25,Man
120,214934,DepthScenes,duration_manipulation_targetAtFixation,jsons/VE125_randls_33.json,http://54.235.29.9/FacialAge/BNav_EC2/DepthDuration/v2_depth_duration_MTurk/v2_DepthDuration_HTML.html#117,117,1366,625,1366,768,9-18-2022,12-15-56,121,depth_duration_stimuli/001449_2014-06-19_17-01-27_260595134347_rgbf000116-resize_2/001449_2014-06-19_17-01-27_260595134347_rgbf000116-resize_2-target.png,125,3.452,8,2866,124,meters,jsons/VE125_randls_33.json,2118610,2580580,25,Man
121,214934,DepthScenes,duration_manipulation_targetAtFixation,jsons/VE125_randls_33.json,http://54.235.29.9/FacialAge/BNav_EC2/DepthDuration/v2_depth_duration_MTurk/v2_DepthDuration_HTML.html#117,117,1366,625,1366,768,9-18-2022,12-15-56,122,depth_duration_stimuli/001450_2014-06-19_17-02-03_260595134347_rgbf000203-resize_4/001450_2014-06-19_17-02-03_260595134347_rgbf000203-resize_4-target.png,125,4.0106666666667,15,2953,124,meters,jsons/VE125_randls_33.json,2118610,2580580,25,Man
122,214934,DepthScenes,duration_manipulation_targetAtFixation,jsons/VE125_randls_33.json,http://54.235.29.9/FacialAge/BNav_EC2/DepthDuration/v2_depth_duration_MTurk/v2_DepthDuration_HTML.html#117,117,1366,625,1366,768,9-18-2022,12-15-56,123,depth_duration_stimuli/002600_2014-06-24_14-27-04_094959634447_rgbf000074-resize_2/002600_2014-06-24_14-27-04_094959634447_rgbf000074-resize_2-target.png,125,2.7575,8,2901,125,meters,jsons/VE125_randls_33.json,2118610,2580580,25,Man
123,214934,DepthScenes,duration_manipulation_targetAtFixation,jsons/VE125_randls_33.json,http://54.235.29.9/FacialAge/BNav_EC2/DepthDuration/v2_depth_duration_MTurk/v2_DepthDuration_HTML.html#117,117,1366,625,1366,768,9-18-2022,12-15-56,124,depth_duration_stimuli/003228_2014-05-14_13-42-35_094959634447_rgbf000101-resize_1/003228_2014-05-14_13-42-35_094959634447_rgbf000101-resize_1-target.png,125,1.9680000000000002,6,4729,125,meters,jsons/VE125_randls_33.json,2118610,2580580,25,Man
124,214934,DepthScenes,duration_manipulation_targetAtFixation,jsons/VE125_randls_33.json,http://54.235.29.9/FacialAge/BNav_EC2/DepthDuration/v2_depth_duration_MTurk/v2_DepthDuration_HTML.html#117,117,1366,625,1366,768,9-18-2022,12-15-56,125,depth_duration_stimuli/000917_2014-06-09_22-45-29_260595134347_rgbf000149-resize_3/000917_2014-06-09_22-45-29_260595134347_rgbf000149-resize_3-target.png,125,4.1865,7,3164,124,meters,jsons/VE125_randls_33.json,2118610,2580580,25,Man
125,214934,DepthScenes,duration_manipulation_targetAtFixation,jsons/VE125_randls_33.json,http://54.235.29.9/FacialAge/BNav_EC2/DepthDuration/v2_depth_duration_MTurk/v2_DepthDuration_HTML.html#117,117,1366,625,1366,768,9-18-2022,12-15-56,126,depth_duration_stimuli/002323_2014-06-28_20-01-54_260595134347_rgbf000051-resize_4/002323_2014-06-28_20-01-54_260595134347_rgbf000051-resize_4-target.png,125,3.7310000000000003,8,3241,123,meters,jsons/VE125_randls_33.json,2118610,2580580,25,Man
126,214934,DepthScenes,duration_manipulation_targetAtFixation,jsons/VE125_randls_33.json,http://54.235.29.9/FacialAge/BNav_EC2/DepthDuration/v2_depth_duration_MTurk/v2_DepthDuration_HTML.html#117,117,1366,625,1366,768,9-18-2022,12-15-56,127,depth_duration_stimuli/000929_2014-06-09_16-33-19_260595134347_rgbf000139-resize_0/000929_2014-06-09_16-33-19_260595134347_rgbf000139-resize_0-target.png,125,2.8680000000000003,7,2955,126,meters,jsons/VE125_randls_33.json,2118610,2580580,25,Man
127,214934,DepthScenes,duration_manipulation_targetAtFixation,jsons/VE125_randls_33.json,http://54.235.29.9/FacialAge/BNav_EC2/DepthDuration/v2_depth_duration_MTurk/v2_DepthDuration_HTML.html#117,117,1366,625,1366,768,9-18-2022,12-15-56,128,depth_duration_stimuli/000457_2014-06-08_16-52-43_260595134347_rgbf000199-resize_1/000457_2014-06-08_16-52-43_260595134347_rgbf000199-resize_1-target.png,125,3.6489999999999996,9,3124,125,meters,jsons/VE125_randls_33.json,2118610,2580580,25,Man
128,214934,DepthScenes,duration_manipulation_targetAtFixation,jsons/VE125_randls_33.json,http://54.235.29.9/FacialAge/BNav_EC2/DepthDuration/v2_depth_duration_MTurk/v2_DepthDuration_HTML.html#117,117,1366,625,1366,768,9-18-2022,12-15-56,129,depth_duration_stimuli/000739_2014-06-08_18-45-58_260595134347_rgbf000068-resize_1/000739_2014-06-08_18-45-58_260595134347_rgbf000068-resize_1-target.png,125,3.534,7,3635,125,meters,jsons/VE125_randls_33.json,2118610,2580580,25,Man
129,214934,DepthScenes,duration_manipulation_targetAtFixation,jsons/VE125_randls_33.json,http://54.235.29.9/FacialAge/BNav_EC2/DepthDuration/v2_depth_duration_MTurk/v2_DepthDuration_HTML.html#117,117,1366,625,1366,768,9-18-2022,12-15-56,130,depth_duration_stimuli/000734_2014-06-08_17-39-11_260595134347_rgbf000128-resize_2/000734_2014-06-08_17-39-11_260595134347_rgbf000128-resize_2-target.png,125,4.098,8,3795,126,meters,jsons/VE125_randls_33.json,2118610,2580580,25,Man
130,214934,DepthScenes,duration_manipulation_targetAtFixation,jsons/VE125_randls_33.json,http://54.235.29.9/FacialAge/BNav_EC2/DepthDuration/v2_depth_duration_MTurk/v2_DepthDuration_HTML.html#117,117,1366,625,1366,768,9-18-2022,12-15-56,131,depth_duration_stimuli/000469_2014-06-09_19-42-10_260595134347_rgbf000081-resize_1/000469_2014-06-09_19-42-10_260595134347_rgbf000081-resize_1-target.png,125,1.652,7,3489,125,meters,jsons/VE125_randls_33.json,2118610,2580580,25,Man
131,214934,DepthScenes,duration_manipulation_targetAtFixation,jsons/VE125_randls_33.json,http://54.235.29.9/FacialAge/BNav_EC2/DepthDuration/v2_depth_duration_MTurk/v2_DepthDuration_HTML.html#117,117,1366,625,1366,768,9-18-2022,12-15-56,132,depth_duration_stimuli/000483_2014-06-09_20-41-45_260595134347_rgbf000116-resize_4/000483_2014-06-09_20-41-45_260595134347_rgbf000116-resize_4-target.png,125,1.337,8,3195,124,meters,jsons/VE125_randls_33.json,2118610,2580580,25,Man
132,214934,DepthScenes,duration_manipulation_targetAtFixation,jsons/VE125_randls_33.json,http://54.235.29.9/FacialAge/BNav_EC2/DepthDuration/v2_depth_duration_MTurk/v2_DepthDuration_HTML.html#117,117,1366,625,1366,768,9-18-2022,12-15-56,133,depth_duration_stimuli/002748_2014-06-22_19-07-22_094959634447_rgbf000078-resize_1/002748_2014-06-22_19-07-22_094959634447_rgbf000078-resize_1-target.png,125,4.6705,10,5387,124,meters,jsons/VE125_randls_33.json,2118610,2580580,25,Man
133,214934,DepthScenes,duration_manipulation_targetAtFixation,jsons/VE125_randls_33.json,http://54.235.29.9/FacialAge/BNav_EC2/DepthDuration/v2_depth_duration_MTurk/v2_DepthDuration_HTML.html#117,117,1366,625,1366,768,9-18-2022,12-15-56,134,depth_duration_stimuli/002995_2014-06-15_12-31-26_094959634447_rgbf000150-resize_1/002995_2014-06-15_12-31-26_094959634447_rgbf000150-resize_1-target.png,125,3.8360000000000003,8,3164,125,meters,jsons/VE125_randls_33.json,2118610,2580580,25,Man
134,214934,DepthScenes,duration_manipulation_targetAtFixation,jsons/VE125_randls_33.json,http://54.235.29.9/FacialAge/BNav_EC2/DepthDuration/v2_depth_duration_MTurk/v2_DepthDuration_HTML.html#117,117,1366,625,1366,768,9-18-2022,12-15-56,135,depth_duration_stimuli/002072_2014-06-24_21-48-06_260595134347_rgbf000115-resize_0/002072_2014-06-24_21-48-06_260595134347_rgbf000115-resize-original.jpg,125,4.702,0,2803,124,meters,jsons/VE125_randls_33.json,2118610,2580580,25,Man
135,214934,DepthScenes,duration_manipulation_targetAtFixation,jsons/VE125_randls_33.json,http://54.235.29.9/FacialAge/BNav_EC2/DepthDuration/v2_depth_duration_MTurk/v2_DepthDuration_HTML.html#117,117,1366,625,1366,768,9-18-2022,12-15-56,136,depth_duration_stimuli/003292_2014-05-14_21-53-49_094959634447_rgbf000100-resize_2/003292_2014-05-14_21-53-49_094959634447_rgbf000100-resize_2-target.png,125,3.4815,5,3562,124,meters,jsons/VE125_randls_33.json,2118610,2580580,25,Man
136,214934,DepthScenes,duration_manipulation_targetAtFixation,jsons/VE125_randls_33.json,http://54.235.29.9/FacialAge/BNav_EC2/DepthDuration/v2_depth_duration_MTurk/v2_DepthDuration_HTML.html#117,117,1366,625,1366,768,9-18-2022,12-15-56,137,depth_duration_stimuli/002639_2014-06-24_14-51-37_094959634447_rgbf000074-resize_4/002639_2014-06-24_14-51-37_094959634447_rgbf000074-resize_4-target.png,125,4.0375,9,3274,126,meters,jsons/VE125_randls_33.json,2118610,2580580,25,Man
137,214934,DepthScenes,duration_manipulation_targetAtFixation,jsons/VE125_randls_33.json,http://54.235.29.9/FacialAge/BNav_EC2/DepthDuration/v2_depth_duration_MTurk/v2_DepthDuration_HTML.html#117,117,1366,625,1366,768,9-18-2022,12-15-56,138,depth_duration_stimuli/003621_2014-05-23_18-06-08_094959634447_rgbf000101-resize_1/003621_2014-05-23_18-06-08_094959634447_rgbf000101-resize_1-target.png,125,3.9835,7,2538,125,meters,jsons/VE125_randls_33.json,2118610,2580580,25,Man
138,214934,DepthScenes,duration_manipulation_targetAtFixation,jsons/VE125_randls_33.json,http://54.235.29.9/FacialAge/BNav_EC2/DepthDuration/v2_depth_duration_MTurk/v2_DepthDuration_HTML.html#117,117,1366,625,1366,768,9-18-2022,12-15-56,139,depth_duration_stimuli/001584_2014-06-20_11-07-43_260595134347_rgbf000002-resize_1/001584_2014-06-20_11-07-43_260595134347_rgbf000002-resize_1-target.png,125,3.53,9,2739,125,meters,jsons/VE125_randls_33.json,2118610,2580580,25,Man
139,214934,DepthScenes,duration_manipulation_targetAtFixation,jsons/VE125_randls_33.json,http://54.235.29.9/FacialAge/BNav_EC2/DepthDuration/v2_depth_duration_MTurk/v2_DepthDuration_HTML.html#117,117,1366,625,1366,768,9-18-2022,12-15-56,140,depth_duration_stimuli/001029_2014-06-08_13-17-57_260595134347_rgbf000065-resize_1/001029_2014-06-08_13-17-57_260595134347_rgbf000065-resize_1-target.png,125,3.0835,9,3203,125,meters,jsons/VE125_randls_33.json,2118610,2580580,25,Man
140,214934,DepthScenes,duration_manipulation_targetAtFixation,jsons/VE125_randls_33.json,http://54.235.29.9/FacialAge/BNav_EC2/DepthDuration/v2_depth_duration_MTurk/v2_DepthDuration_HTML.html#117,117,1366,625,1366,768,9-18-2022,12-15-56,141,depth_duration_stimuli/000677_2014-06-08_23-10-32_260595134347_rgbf000158-resize_6/000677_2014-06-08_23-10-32_260595134347_rgbf000158-resize_6-target.png,125,3.556,8,3459,125,meters,jsons/VE125_randls_33.json,2118610,2580580,25,Man
141,214934,DepthScenes,duration_manipulation_targetAtFixation,jsons/VE125_randls_33.json,http://54.235.29.9/FacialAge/BNav_EC2/DepthDuration/v2_depth_duration_MTurk/v2_DepthDuration_HTML.html#117,117,1366,625,1366,768,9-18-2022,12-15-56,142,depth_duration_stimuli/002788_2014-06-22_19-36-03_094959634447_rgbf000088-resize_2/002788_2014-06-22_19-36-03_094959634447_rgbf000088-resize_2-target.png,125,1.6465,9,3699,125,meters,jsons/VE125_randls_33.json,2118610,2580580,25,Man
142,214934,DepthScenes,duration_manipulation_targetAtFixation,jsons/VE125_randls_33.json,http://54.235.29.9/FacialAge/BNav_EC2/DepthDuration/v2_depth_duration_MTurk/v2_DepthDuration_HTML.html#117,117,1366,625,1366,768,9-18-2022,12-15-56,143,depth_duration_stimuli/000749_2014-06-08_21-55-06_260595134347_rgbf000070-resize_2/000749_2014-06-08_21-55-06_260595134347_rgbf000070-resize_2-target.png,125,2.331,8,2771,126,meters,jsons/VE125_randls_33.json,2118610,2580580,25,Man
143,214934,DepthScenes,duration_manipulation_targetAtFixation,jsons/VE125_randls_33.json,http://54.235.29.9/FacialAge/BNav_EC2/DepthDuration/v2_depth_duration_MTurk/v2_DepthDuration_HTML.html#117,117,1366,625,1366,768,9-18-2022,12-15-56,144,depth_duration_stimuli/002118_2014-06-25_20-32-08_260595134347_rgbf000078-resize_1/002118_2014-06-25_20-32-08_260595134347_rgbf000078-resize_1-target.png,125,2.6460000000000004,5,2930,124,meters,jsons/VE125_randls_33.json,2118610,2580580,25,Man
144,214934,DepthScenes,duration_manipulation_targetAtFixation,jsons/VE125_randls_33.json,http://54.235.29.9/FacialAge/BNav_EC2/DepthDuration/v2_depth_duration_MTurk/v2_DepthDuration_HTML.html#117,117,1366,625,1366,768,9-18-2022,12-15-56,145,depth_duration_stimuli/001516_2014-06-20_16-25-09_260595134347_rgbf000076-resize_2/001516_2014-06-20_16-25-09_260595134347_rgbf000076-resize_2-target.png,125,1.7445,4,4620,126,meters,jsons/VE125_randls_33.json,2118610,2580580,25,Man
145,214934,DepthScenes,duration_manipulation_targetAtFixation,jsons/VE125_randls_33.json,http://54.235.29.9/FacialAge/BNav_EC2/DepthDuration/v2_depth_duration_MTurk/v2_DepthDuration_HTML.html#117,117,1366,625,1366,768,9-18-2022,12-15-56,146,depth_duration_stimuli/001498_2014-06-19_17-45-14_260595134347_rgbf000129-resize_4/001498_2014-06-19_17-45-14_260595134347_rgbf000129-resize-original.jpg,125,1.4075,6,54417,125,meters,jsons/VE125_randls_33.json,2118610,2580580,25,Man
146,214934,DepthScenes,duration_manipulation_targetAtFixation,jsons/VE125_randls_33.json,http://54.235.29.9/FacialAge/BNav_EC2/DepthDuration/v2_depth_duration_MTurk/v2_DepthDuration_HTML.html#117,117,1366,625,1366,768,9-18-2022,12-15-56,147,depth_duration_stimuli/000642_2014-06-08_16-59-25_260595134347_rgbf000098-resize_2/000642_2014-06-08_16-59-25_260595134347_rgbf000098-resize_2-target.png,125,2.8815,7,3001,124,meters,jsons/VE125_randls_33.json,2118610,2580580,25,Man
147,214934,DepthScenes,duration_manipulation_targetAtFixation,jsons/VE125_randls_33.json,http://54.235.29.9/FacialAge/BNav_EC2/DepthDuration/v2_depth_duration_MTurk/v2_DepthDuration_HTML.html#117,117,1366,625,1366,768,9-18-2022,12-15-56,148,depth_duration_stimuli/002425_2014-06-28_20-27-29_260595134347_rgbf000031-resize_8/002425_2014-06-28_20-27-29_260595134347_rgbf000031-resize_8-target.png,125,3.8960000000000004,10,3364,124,meters,jsons/VE125_randls_33.json,2118610,2580580,25,Man
148,214934,DepthScenes,duration_manipulation_targetAtFixation,jsons/VE125_randls_33.json,http://54.235.29.9/FacialAge/BNav_EC2/DepthDuration/v2_depth_duration_MTurk/v2_DepthDuration_HTML.html#117,117,1366,625,1366,768,9-18-2022,12-15-56,149,depth_duration_stimuli/002153_2014-06-25_21-27-18_260595134347_rgbf000038-resize_5/002153_2014-06-25_21-27-18_260595134347_rgbf000038-resize_5-target.png,125,2.505,5,2795,125,meters,jsons/VE125_randls_33.json,2118610,2580580,25,Man
149,214934,DepthScenes,duration_manipulation_targetAtFixation,jsons/VE125_randls_33.json,http://54.235.29.9/FacialAge/BNav_EC2/DepthDuration/v2_depth_duration_MTurk/v2_DepthDuration_HTML.html#117,117,1366,625,1366,768,9-18-2022,12-15-56,150,depth_duration_stimuli/002660_2014-06-13_15-44-18_094959634447_rgbf001878-resize_2/002660_2014-06-13_15-44-18_094959634447_rgbf001878-resize_2-target.png,125,3.576,4,3241,125,meters,jsons/VE125_randls_33.json,2118610,2580580,25,Man
150,214934,DepthScenes,duration_manipulation_targetAtFixation,jsons/VE125_randls_33.json,http://54.235.29.9/FacialAge/BNav_EC2/DepthDuration/v2_depth_duration_MTurk/v2_DepthDuration_HTML.html#117,117,1366,625,1366,768,9-18-2022,12-15-56,151,depth_duration_stimuli/001056_2014-06-08_18-46-44_260595134347_rgbf000068-resize_0/001056_2014-06-08_18-46-44_260595134347_rgbf000068-resize_0-target.png,125,2.6625,8,2897,125,meters,jsons/VE125_randls_33.json,2118610,2580580,25,Man
151,214934,DepthScenes,duration_manipulation_targetAtFixation,jsons/VE125_randls_33.json,http://54.235.29.9/FacialAge/BNav_EC2/DepthDuration/v2_depth_duration_MTurk/v2_DepthDuration_HTML.html#117,117,1366,625,1366,768,9-18-2022,12-15-56,152,depth_duration_stimuli/002199_2014-06-28_18-33-56_260595134347_rgbf000074-resize_0/002199_2014-06-28_18-33-56_260595134347_rgbf000074-resize_0-target.png,125,1.996,8,2802,125,meters,jsons/VE125_randls_33.json,2118610,2580580,25,Man
152,214934,DepthScenes,duration_manipulation_targetAtFixation,jsons/VE125_randls_33.json,http://54.235.29.9/FacialAge/BNav_EC2/DepthDuration/v2_depth_duration_MTurk/v2_DepthDuration_HTML.html#117,117,1366,625,1366,768,9-18-2022,12-15-56,153,depth_duration_stimuli/000810_2014-06-08_17-20-01_260595134347_rgbf000105-resize_0/000810_2014-06-08_17-20-01_260595134347_rgbf000105-resize_0-target.png,125,1.4865,8,3002,125,meters,jsons/VE125_randls_33.json,2118610,2580580,25,Man
153,214934,DepthScenes,duration_manipulation_targetAtFixation,jsons/VE125_randls_33.json,http://54.235.29.9/FacialAge/BNav_EC2/DepthDuration/v2_depth_duration_MTurk/v2_DepthDuration_HTML.html#117,117,1366,625,1366,768,9-18-2022,12-15-56,154,depth_duration_stimuli/001214_2014-06-17_16-13-55_260595134347_rgbf000111-resize_0/001214_2014-06-17_16-13-55_260595134347_rgbf000111-resize_0-target.png,125,2.6505,7,5618,125,meters,jsons/VE125_randls_33.json,2118610,2580580,25,Man
154,214934,DepthScenes,duration_manipulation_targetAtFixation,jsons/VE125_randls_33.json,http://54.235.29.9/FacialAge/BNav_EC2/DepthDuration/v2_depth_duration_MTurk/v2_DepthDuration_HTML.html#117,117,1366,625,1366,768,9-18-2022,12-15-56,155,depth_duration_stimuli/002784_2014-06-22_19-26-30_094959634447_rgbf000083-resize_3/002784_2014-06-22_19-26-30_094959634447_rgbf000083-resize_3-target.png,125,1.8046666666667,3,2810,126,meters,jsons/VE125_randls_33.json,2118610,2580580,25,Man
155,214934,DepthScenes,duration_manipulation_targetAtFixation,jsons/VE125_randls_33.json,http://54.235.29.9/FacialAge/BNav_EC2/DepthDuration/v2_depth_duration_MTurk/v2_DepthDuration_HTML.html#117,117,1366,625,1366,768,9-18-2022,12-15-56,156,depth_duration_stimuli/001100_2014-06-15_17-46-26_260595134347_rgbf000225-resize_2/001100_2014-06-15_17-46-26_260595134347_rgbf000225-resize_2-target.png,125,2.24,2,3339,126,meters,jsons/VE125_randls_33.json,2118610,2580580,25,Man
156,214934,DepthScenes,duration_manipulation_targetAtFixation,jsons/VE125_randls_33.json,http://54.235.29.9/FacialAge/BNav_EC2/DepthDuration/v2_depth_duration_MTurk/v2_DepthDuration_HTML.html#117,117,1366,625,1366,768,9-18-2022,12-15-56,157,depth_duration_stimuli/001555_2014-06-20_17-12-10_260595134347_rgbf000065-resize_4/001555_2014-06-20_17-12-10_260595134347_rgbf000065-resize_4-target.png,125,1.633,3,4322,124,meters,jsons/VE125_randls_33.json,2118610,2580580,25,Man
157,214934,DepthScenes,duration_manipulation_targetAtFixation,jsons/VE125_randls_33.json,http://54.235.29.9/FacialAge/BNav_EC2/DepthDuration/v2_depth_duration_MTurk/v2_DepthDuration_HTML.html#117,117,1366,625,1366,768,9-18-2022,12-15-56,158,depth_duration_stimuli/000103_2014-05-14_22-01-17_260595134347_rgbf000152-resize_5/000103_2014-05-14_22-01-17_260595134347_rgbf000152-resize_5-target.png,125,1.993,3,3245,125,meters,jsons/VE125_randls_33.json,2118610,2580580,25,Man
158,214934,DepthScenes,duration_manipulation_targetAtFixation,jsons/VE125_randls_33.json,http://54.235.29.9/FacialAge/BNav_EC2/DepthDuration/v2_depth_duration_MTurk/v2_DepthDuration_HTML.html#117,117,1366,625,1366,768,9-18-2022,12-15-56,159,depth_duration_stimuli/000788_2014-06-08_22-34-36_260595134347_rgbf000131-resize_1/000788_2014-06-08_22-34-36_260595134347_rgbf000131-resize_1-target.png,125,3.359,4,3928,126,meters,jsons/VE125_randls_33.json,2118610,2580580,25,Man
159,214934,DepthScenes,duration_manipulation_targetAtFixation,jsons/VE125_randls_33.json,http://54.235.29.9/FacialAge/BNav_EC2/DepthDuration/v2_depth_duration_MTurk/v2_DepthDuration_HTML.html#117,117,1366,625,1366,768,9-18-2022,12-15-56,160,depth_duration_stimuli/001235_2014-06-17_16-37-36_260595134347_rgbf000084-resize_4/001235_2014-06-17_16-37-36_260595134347_rgbf000084-resize_4-target.png,125,3.6605,8,2826,124,meters,jsons/VE125_randls_33.json,2118610,2580580,25,Man
160,214934,DepthScenes,duration_manipulation_targetAtFixation,jsons/VE125_randls_33.json,http://54.235.29.9/FacialAge/BNav_EC2/DepthDuration/v2_depth_duration_MTurk/v2_DepthDuration_HTML.html#117,117,1366,625,1366,768,9-18-2022,12-15-56,161,depth_duration_stimuli/001011_2014-06-08_23-18-54_260595134347_rgbf000044-resize_4/001011_2014-06-08_23-18-54_260595134347_rgbf000044-resize_4-target.png,125,2.4730000000000003,5,2685,125,meters,jsons/VE125_randls_33.json,2118610,2580580,25,Man
161,214934,DepthScenes,duration_manipulation_targetAtFixation,jsons/VE125_randls_33.json,http://54.235.29.9/FacialAge/BNav_EC2/DepthDuration/v2_depth_duration_MTurk/v2_DepthDuration_HTML.html#117,117,1366,625,1366,768,9-18-2022,12-15-56,162,depth_duration_stimuli/002875_2014-06-01_15-19-00_094959634447_rgbf000151-resize_1/002875_2014-06-01_15-19-00_094959634447_rgbf000151-resize_1-target.png,125,1.9675,5,2074,126,meters,jsons/VE125_randls_33.json,2118610,2580580,25,Man
162,214934,DepthScenes,duration_manipulation_targetAtFixation,jsons/VE125_randls_33.json,http://54.235.29.9/FacialAge/BNav_EC2/DepthDuration/v2_depth_duration_MTurk/v2_DepthDuration_HTML.html#117,117,1366,625,1366,768,9-18-2022,12-15-56,163,depth_duration_stimuli/000773_2014-06-08_22-24-54_260595134347_rgbf000093-resize_1/000773_2014-06-08_22-24-54_260595134347_rgbf000093-resize_1-target.png,125,4.973,5,2123,125,meters,jsons/VE125_randls_33.json,2118610,2580580,25,Man
163,214934,DepthScenes,duration_manipulation_targetAtFixation,jsons/VE125_randls_33.json,http://54.235.29.9/FacialAge/BNav_EC2/DepthDuration/v2_depth_duration_MTurk/v2_DepthDuration_HTML.html#117,117,1366,625,1366,768,9-18-2022,12-15-56,164,depth_duration_stimuli/002414_2014-06-28_20-24-58_260595134347_rgbf000067-resize_4/002414_2014-06-28_20-24-58_260595134347_rgbf000067-resize_4-target.png,125,4.363,7,2667,125,meters,jsons/VE125_randls_33.json,2118610,2580580,25,Man
