,subjID,experimentName,versionName,sequenceName,url,selected_row,windowWidth,windowHeight,screenWidth,screenHeight,startDate,startTime,trial,stimulus,duration,actual_depth,depth_estimate,trial_RT,log_sceneDuration,unitSelection,seq_filepath,experimentTime,totalTime,age,gender
0,215522,DepthScenes,duration_manipulation_targetAtFixation,jsons/v1_VE1000_randls_65.json,http://54.235.29.9/FacialAge/BNav_EC2/DepthDuration/v2_depth_duration_MTurk/v2_DepthDuration_HTML.html#351,351,1536,864,1536,864,8-30-2022,8-57-9,1,depth_duration_stimuli/001055_2014-06-08_18-45-35_260595134347_rgbf000111-resize_4/001055_2014-06-08_18-45-35_260595134347_rgbf000111-resize_4-target.png,1000,2.4290000000000003,3.0,4743,1000,meters,jsons/v1_VE1000_randls_65.json,897811,1335540,69,Man
1,215522,DepthScenes,duration_manipulation_targetAtFixation,jsons/v1_VE1000_randls_65.json,http://54.235.29.9/FacialAge/BNav_EC2/DepthDuration/v2_depth_duration_MTurk/v2_DepthDuration_HTML.html#351,351,1536,864,1536,864,8-30-2022,8-57-9,2,depth_duration_stimuli/000549_2014-06-08_22-10-24_260595134347_rgbf000247-resize_3/000549_2014-06-08_22-10-24_260595134347_rgbf000247-resize_3-target.png,1000,1.841,0.5,6637,1012,meters,jsons/v1_VE1000_randls_65.json,897811,1335540,69,Man
2,215522,DepthScenes,duration_manipulation_targetAtFixation,jsons/v1_VE1000_randls_65.json,http://54.235.29.9/FacialAge/BNav_EC2/DepthDuration/v2_depth_duration_MTurk/v2_DepthDuration_HTML.html#351,351,1536,864,1536,864,8-30-2022,8-57-9,3,depth_duration_stimuli/002057_2014-06-24_21-00-13_260595134347_rgbf000120-resize_1/002057_2014-06-24_21-00-13_260595134347_rgbf000120-resize_1-target.png,1000,2.967,0.0,7509,1012,meters,jsons/v1_VE1000_randls_65.json,897811,1335540,69,Man
3,215522,DepthScenes,duration_manipulation_targetAtFixation,jsons/v1_VE1000_randls_65.json,http://54.235.29.9/FacialAge/BNav_EC2/DepthDuration/v2_depth_duration_MTurk/v2_DepthDuration_HTML.html#351,351,1536,864,1536,864,8-30-2022,8-57-9,4,depth_duration_stimuli/000709_2014-06-08_13-51-55_260595134347_rgbf000068-resize_3/000709_2014-06-08_13-51-55_260595134347_rgbf000068-resize_3-target.png,1000,1.8030000000000002,1.5,8595,1009,meters,jsons/v1_VE1000_randls_65.json,897811,1335540,69,Man
4,215522,DepthScenes,duration_manipulation_targetAtFixation,jsons/v1_VE1000_randls_65.json,http://54.235.29.9/FacialAge/BNav_EC2/DepthDuration/v2_depth_duration_MTurk/v2_DepthDuration_HTML.html#351,351,1536,864,1536,864,8-30-2022,8-57-9,5,depth_duration_stimuli/002039_2014-06-24_20-22-38_260595134347_rgbf000084-resize_1/002039_2014-06-24_20-22-38_260595134347_rgbf000084-resize_1-target.png,1000,4.408,0.0,7910,991,meters,jsons/v1_VE1000_randls_65.json,897811,1335540,69,Man
5,215522,DepthScenes,duration_manipulation_targetAtFixation,jsons/v1_VE1000_randls_65.json,http://54.235.29.9/FacialAge/BNav_EC2/DepthDuration/v2_depth_duration_MTurk/v2_DepthDuration_HTML.html#351,351,1536,864,1536,864,8-30-2022,8-57-9,6,depth_duration_stimuli/002103_2014-06-25_20-00-40_260595134347_rgbf000049-resize_0/002103_2014-06-25_20-00-40_260595134347_rgbf000049-resize_0-target.png,1000,4.105,2.0,4433,1011,meters,jsons/v1_VE1000_randls_65.json,897811,1335540,69,Man
6,215522,DepthScenes,duration_manipulation_targetAtFixation,jsons/v1_VE1000_randls_65.json,http://54.235.29.9/FacialAge/BNav_EC2/DepthDuration/v2_depth_duration_MTurk/v2_DepthDuration_HTML.html#351,351,1536,864,1536,864,8-30-2022,8-57-9,7,depth_duration_stimuli/001570_2014-06-20_17-21-09_260595134347_rgbf000135-resize_4/001570_2014-06-20_17-21-09_260595134347_rgbf000135-resize_4-target.png,1000,4.467,3.0,4057,1002,meters,jsons/v1_VE1000_randls_65.json,897811,1335540,69,Man
7,215522,DepthScenes,duration_manipulation_targetAtFixation,jsons/v1_VE1000_randls_65.json,http://54.235.29.9/FacialAge/BNav_EC2/DepthDuration/v2_depth_duration_MTurk/v2_DepthDuration_HTML.html#351,351,1536,864,1536,864,8-30-2022,8-57-9,8,depth_duration_stimuli/001392_2014-06-19_16-07-59_260595134347_rgbf000046-resize_1/001392_2014-06-19_16-07-59_260595134347_rgbf000046-resize_1-target.png,1000,4.135,4.0,4298,999,meters,jsons/v1_VE1000_randls_65.json,897811,1335540,69,Man
8,215522,DepthScenes,duration_manipulation_targetAtFixation,jsons/v1_VE1000_randls_65.json,http://54.235.29.9/FacialAge/BNav_EC2/DepthDuration/v2_depth_duration_MTurk/v2_DepthDuration_HTML.html#351,351,1536,864,1536,864,8-30-2022,8-57-9,9,depth_duration_stimuli/000414_2014-06-04_19-49-13_260595134347_rgbf000044-resize_0/000414_2014-06-04_19-49-13_260595134347_rgbf000044-resize_0-target.png,1000,4.329,3.0,4822,1000,meters,jsons/v1_VE1000_randls_65.json,897811,1335540,69,Man
9,215522,DepthScenes,duration_manipulation_targetAtFixation,jsons/v1_VE1000_randls_65.json,http://54.235.29.9/FacialAge/BNav_EC2/DepthDuration/v2_depth_duration_MTurk/v2_DepthDuration_HTML.html#351,351,1536,864,1536,864,8-30-2022,8-57-9,10,depth_duration_stimuli/003129_2014-05-12_10-48-10_094959634447_rgbf000100-resize_0/003129_2014-05-12_10-48-10_094959634447_rgbf000100-resize_0-target.png,1000,4.9305,0.0,4947,998,meters,jsons/v1_VE1000_randls_65.json,897811,1335540,69,Man
10,215522,DepthScenes,duration_manipulation_targetAtFixation,jsons/v1_VE1000_randls_65.json,http://54.235.29.9/FacialAge/BNav_EC2/DepthDuration/v2_depth_duration_MTurk/v2_DepthDuration_HTML.html#351,351,1536,864,1536,864,8-30-2022,8-57-9,11,depth_duration_stimuli/002272_2014-06-28_18-53-56_260595134347_rgbf000067-resize_2/002272_2014-06-28_18-53-56_260595134347_rgbf000067-resize_2-target.png,1000,1.138,1.0,5898,1013,meters,jsons/v1_VE1000_randls_65.json,897811,1335540,69,Man
11,215522,DepthScenes,duration_manipulation_targetAtFixation,jsons/v1_VE1000_randls_65.json,http://54.235.29.9/FacialAge/BNav_EC2/DepthDuration/v2_depth_duration_MTurk/v2_DepthDuration_HTML.html#351,351,1536,864,1536,864,8-30-2022,8-57-9,12,depth_duration_stimuli/001571_2014-06-20_17-21-32_260595134347_rgbf000089-resize_1/001571_2014-06-20_17-21-32_260595134347_rgbf000089-resize_1-target.png,1000,1.86,1.0,4612,1007,meters,jsons/v1_VE1000_randls_65.json,897811,1335540,69,Man
12,215522,DepthScenes,duration_manipulation_targetAtFixation,jsons/v1_VE1000_randls_65.json,http://54.235.29.9/FacialAge/BNav_EC2/DepthDuration/v2_depth_duration_MTurk/v2_DepthDuration_HTML.html#351,351,1536,864,1536,864,8-30-2022,8-57-9,13,depth_duration_stimuli/000569_2014-06-09_22-51-47_260595134347_rgbf000141-resize_3/000569_2014-06-09_22-51-47_260595134347_rgbf000141-resize-original.jpg,1000,4.512,0.0,4088,996,meters,jsons/v1_VE1000_randls_65.json,897811,1335540,69,Man
13,215522,DepthScenes,duration_manipulation_targetAtFixation,jsons/v1_VE1000_randls_65.json,http://54.235.29.9/FacialAge/BNav_EC2/DepthDuration/v2_depth_duration_MTurk/v2_DepthDuration_HTML.html#351,351,1536,864,1536,864,8-30-2022,8-57-9,14,depth_duration_stimuli/002153_2014-06-25_21-27-18_260595134347_rgbf000038-resize_5/002153_2014-06-25_21-27-18_260595134347_rgbf000038-resize_5-target.png,1000,2.505,1.0,7361,999,meters,jsons/v1_VE1000_randls_65.json,897811,1335540,69,Man
14,215522,DepthScenes,duration_manipulation_targetAtFixation,jsons/v1_VE1000_randls_65.json,http://54.235.29.9/FacialAge/BNav_EC2/DepthDuration/v2_depth_duration_MTurk/v2_DepthDuration_HTML.html#351,351,1536,864,1536,864,8-30-2022,8-57-9,15,depth_duration_stimuli/002660_2014-06-13_15-44-18_094959634447_rgbf001878-resize_2/002660_2014-06-13_15-44-18_094959634447_rgbf001878-resize_2-target.png,1000,3.576,2.5,5843,1005,meters,jsons/v1_VE1000_randls_65.json,897811,1335540,69,Man
15,215522,DepthScenes,duration_manipulation_targetAtFixation,jsons/v1_VE1000_randls_65.json,http://54.235.29.9/FacialAge/BNav_EC2/DepthDuration/v2_depth_duration_MTurk/v2_DepthDuration_HTML.html#351,351,1536,864,1536,864,8-30-2022,8-57-9,16,depth_duration_stimuli/001056_2014-06-08_18-46-44_260595134347_rgbf000068-resize_0/001056_2014-06-08_18-46-44_260595134347_rgbf000068-resize_0-target.png,1000,2.6625,1.5,10376,1005,meters,jsons/v1_VE1000_randls_65.json,897811,1335540,69,Man
16,215522,DepthScenes,duration_manipulation_targetAtFixation,jsons/v1_VE1000_randls_65.json,http://54.235.29.9/FacialAge/BNav_EC2/DepthDuration/v2_depth_duration_MTurk/v2_DepthDuration_HTML.html#351,351,1536,864,1536,864,8-30-2022,8-57-9,17,depth_duration_stimuli/002199_2014-06-28_18-33-56_260595134347_rgbf000074-resize_0/002199_2014-06-28_18-33-56_260595134347_rgbf000074-resize_0-target.png,1000,1.996,0.5,6898,1000,meters,jsons/v1_VE1000_randls_65.json,897811,1335540,69,Man
17,215522,DepthScenes,duration_manipulation_targetAtFixation,jsons/v1_VE1000_randls_65.json,http://54.235.29.9/FacialAge/BNav_EC2/DepthDuration/v2_depth_duration_MTurk/v2_DepthDuration_HTML.html#351,351,1536,864,1536,864,8-30-2022,8-57-9,18,depth_duration_stimuli/000506_2014-06-08_23-21-00_260595134347_rgbf000070-resize_7/000506_2014-06-08_23-21-00_260595134347_rgbf000070-resize_7-target.png,1000,4.0585,3.0,4245,1003,meters,jsons/v1_VE1000_randls_65.json,897811,1335540,69,Man
18,215522,DepthScenes,duration_manipulation_targetAtFixation,jsons/v1_VE1000_randls_65.json,http://54.235.29.9/FacialAge/BNav_EC2/DepthDuration/v2_depth_duration_MTurk/v2_DepthDuration_HTML.html#351,351,1536,864,1536,864,8-30-2022,8-57-9,19,depth_duration_stimuli/003079_2014-06-15_15-18-20_094959634447_rgbf000152-resize_8/003079_2014-06-15_15-18-20_094959634447_rgbf000152-resize_8-target.png,1000,2.8775,0.0,8028,996,meters,jsons/v1_VE1000_randls_65.json,897811,1335540,69,Man
19,215522,DepthScenes,duration_manipulation_targetAtFixation,jsons/v1_VE1000_randls_65.json,http://54.235.29.9/FacialAge/BNav_EC2/DepthDuration/v2_depth_duration_MTurk/v2_DepthDuration_HTML.html#351,351,1536,864,1536,864,8-30-2022,8-57-9,20,depth_duration_stimuli/001417_2014-06-19_16-25-36_260595134347_rgbf000115-resize_5/001417_2014-06-19_16-25-36_260595134347_rgbf000115-resize_5-target.png,1000,4.6255,2.0,4246,984,meters,jsons/v1_VE1000_randls_65.json,897811,1335540,69,Man
20,215522,DepthScenes,duration_manipulation_targetAtFixation,jsons/v1_VE1000_randls_65.json,http://54.235.29.9/FacialAge/BNav_EC2/DepthDuration/v2_depth_duration_MTurk/v2_DepthDuration_HTML.html#351,351,1536,864,1536,864,8-30-2022,8-57-9,21,depth_duration_stimuli/003081_2014-06-15_15-19-16_094959634447_rgbf000150-resize_1/003081_2014-06-15_15-19-16_094959634447_rgbf000150-resize_1-target.png,1000,3.9125,2.5,5655,1010,meters,jsons/v1_VE1000_randls_65.json,897811,1335540,69,Man
21,215522,DepthScenes,duration_manipulation_targetAtFixation,jsons/v1_VE1000_randls_65.json,http://54.235.29.9/FacialAge/BNav_EC2/DepthDuration/v2_depth_duration_MTurk/v2_DepthDuration_HTML.html#351,351,1536,864,1536,864,8-30-2022,8-57-9,22,depth_duration_stimuli/001199_2014-06-17_16-03-48_260595134347_rgbf000077-resize_0/001199_2014-06-17_16-03-48_260595134347_rgbf000077-resize_0-target.png,1000,3.4375,3.5,5756,991,meters,jsons/v1_VE1000_randls_65.json,897811,1335540,69,Man
22,215522,DepthScenes,duration_manipulation_targetAtFixation,jsons/v1_VE1000_randls_65.json,http://54.235.29.9/FacialAge/BNav_EC2/DepthDuration/v2_depth_duration_MTurk/v2_DepthDuration_HTML.html#351,351,1536,864,1536,864,8-30-2022,8-57-9,23,depth_duration_stimuli/000502_2014-06-08_23-02-32_260595134347_rgbf000063-resize_4/000502_2014-06-08_23-02-32_260595134347_rgbf000063-resize_4-target.png,1000,2.431,0.0,4494,999,meters,jsons/v1_VE1000_randls_65.json,897811,1335540,69,Man
23,215522,DepthScenes,duration_manipulation_targetAtFixation,jsons/v1_VE1000_randls_65.json,http://54.235.29.9/FacialAge/BNav_EC2/DepthDuration/v2_depth_duration_MTurk/v2_DepthDuration_HTML.html#351,351,1536,864,1536,864,8-30-2022,8-57-9,24,depth_duration_stimuli/001175_2014-06-17_15-45-55_260595134347_rgbf000129-resize_4/001175_2014-06-17_15-45-55_260595134347_rgbf000129-resize_4-target.png,1000,4.255,4.5,8198,1015,meters,jsons/v1_VE1000_randls_65.json,897811,1335540,69,Man
24,215522,DepthScenes,duration_manipulation_targetAtFixation,jsons/v1_VE1000_randls_65.json,http://54.235.29.9/FacialAge/BNav_EC2/DepthDuration/v2_depth_duration_MTurk/v2_DepthDuration_HTML.html#351,351,1536,864,1536,864,8-30-2022,8-57-9,25,depth_duration_stimuli/003490_2014-05-21_15-50-11_094959634447_rgbf000101-resize_3/003490_2014-05-21_15-50-11_094959634447_rgbf000101-resize_3-target.png,1000,3.6445,0.0,4706,991,meters,jsons/v1_VE1000_randls_65.json,897811,1335540,69,Man
25,215522,DepthScenes,duration_manipulation_targetAtFixation,jsons/v1_VE1000_randls_65.json,http://54.235.29.9/FacialAge/BNav_EC2/DepthDuration/v2_depth_duration_MTurk/v2_DepthDuration_HTML.html#351,351,1536,864,1536,864,8-30-2022,8-57-9,26,depth_duration_stimuli/002663_2014-06-13_15-50-26_094959634447_rgbf000075-resize_1/002663_2014-06-13_15-50-26_094959634447_rgbf000075-resize_1-target.png,1000,4.7495,0.0,4413,1007,meters,jsons/v1_VE1000_randls_65.json,897811,1335540,69,Man
26,215522,DepthScenes,duration_manipulation_targetAtFixation,jsons/v1_VE1000_randls_65.json,http://54.235.29.9/FacialAge/BNav_EC2/DepthDuration/v2_depth_duration_MTurk/v2_DepthDuration_HTML.html#351,351,1536,864,1536,864,8-30-2022,8-57-9,27,depth_duration_stimuli/000409_2014-06-04_19-23-33_260595134347_rgbf000067-resize_0/000409_2014-06-04_19-23-33_260595134347_rgbf000067-resize_0-target.png,1000,3.7335,0.0,7100,1011,meters,jsons/v1_VE1000_randls_65.json,897811,1335540,69,Man
27,215522,DepthScenes,duration_manipulation_targetAtFixation,jsons/v1_VE1000_randls_65.json,http://54.235.29.9/FacialAge/BNav_EC2/DepthDuration/v2_depth_duration_MTurk/v2_DepthDuration_HTML.html#351,351,1536,864,1536,864,8-30-2022,8-57-9,28,depth_duration_stimuli/000642_2014-06-08_16-59-25_260595134347_rgbf000098-resize_2/000642_2014-06-08_16-59-25_260595134347_rgbf000098-resize_2-target.png,1000,2.8815,1.0,4294,1016,meters,jsons/v1_VE1000_randls_65.json,897811,1335540,69,Man
28,215522,DepthScenes,duration_manipulation_targetAtFixation,jsons/v1_VE1000_randls_65.json,http://54.235.29.9/FacialAge/BNav_EC2/DepthDuration/v2_depth_duration_MTurk/v2_DepthDuration_HTML.html#351,351,1536,864,1536,864,8-30-2022,8-57-9,29,depth_duration_stimuli/002425_2014-06-28_20-27-29_260595134347_rgbf000031-resize_8/002425_2014-06-28_20-27-29_260595134347_rgbf000031-resize_8-target.png,1000,3.8960000000000004,0.0,4932,1002,meters,jsons/v1_VE1000_randls_65.json,897811,1335540,69,Man
29,215522,DepthScenes,duration_manipulation_targetAtFixation,jsons/v1_VE1000_randls_65.json,http://54.235.29.9/FacialAge/BNav_EC2/DepthDuration/v2_depth_duration_MTurk/v2_DepthDuration_HTML.html#351,351,1536,864,1536,864,8-30-2022,8-57-9,30,depth_duration_stimuli/000375_2014-06-08_11-17-29_260595134347_rgbf000133-resize_2/000375_2014-06-08_11-17-29_260595134347_rgbf000133-resize-original.jpg,1000,4.718,0.0,4176,1005,meters,jsons/v1_VE1000_randls_65.json,897811,1335540,69,Man
30,215522,DepthScenes,duration_manipulation_targetAtFixation,jsons/v1_VE1000_randls_65.json,http://54.235.29.9/FacialAge/BNav_EC2/DepthDuration/v2_depth_duration_MTurk/v2_DepthDuration_HTML.html#351,351,1536,864,1536,864,8-30-2022,8-57-9,31,depth_duration_stimuli/001167_2014-06-17_15-38-07_260595134347_rgbf000108-resize_0/001167_2014-06-17_15-38-07_260595134347_rgbf000108-resize_0-target.png,1000,1.8505,1.0,4808,990,meters,jsons/v1_VE1000_randls_65.json,897811,1335540,69,Man
31,215522,DepthScenes,duration_manipulation_targetAtFixation,jsons/v1_VE1000_randls_65.json,http://54.235.29.9/FacialAge/BNav_EC2/DepthDuration/v2_depth_duration_MTurk/v2_DepthDuration_HTML.html#351,351,1536,864,1536,864,8-30-2022,8-57-9,32,depth_duration_stimuli/003587_2014-05-23_16-48-02_094959634447_rgbf002384-resize_2/003587_2014-05-23_16-48-02_094959634447_rgbf002384-resize_2-target.png,1000,1.357,1.0,3613,1006,meters,jsons/v1_VE1000_randls_65.json,897811,1335540,69,Man
32,215522,DepthScenes,duration_manipulation_targetAtFixation,jsons/v1_VE1000_randls_65.json,http://54.235.29.9/FacialAge/BNav_EC2/DepthDuration/v2_depth_duration_MTurk/v2_DepthDuration_HTML.html#351,351,1536,864,1536,864,8-30-2022,8-57-9,33,depth_duration_stimuli/002279_2014-06-28_18-55-32_260595134347_rgbf000040-resize_5/002279_2014-06-28_18-55-32_260595134347_rgbf000040-resize_5-target.png,1000,1.5043333333333,1.0,4936,1010,meters,jsons/v1_VE1000_randls_65.json,897811,1335540,69,Man
33,215522,DepthScenes,duration_manipulation_targetAtFixation,jsons/v1_VE1000_randls_65.json,http://54.235.29.9/FacialAge/BNav_EC2/DepthDuration/v2_depth_duration_MTurk/v2_DepthDuration_HTML.html#351,351,1536,864,1536,864,8-30-2022,8-57-9,34,depth_duration_stimuli/000635_2014-06-08_16-38-42_260595134347_rgbf000106-resize_1/000635_2014-06-08_16-38-42_260595134347_rgbf000106-resize_1-target.png,1000,2.074,2.0,5158,1015,meters,jsons/v1_VE1000_randls_65.json,897811,1335540,69,Man
34,215522,DepthScenes,duration_manipulation_targetAtFixation,jsons/v1_VE1000_randls_65.json,http://54.235.29.9/FacialAge/BNav_EC2/DepthDuration/v2_depth_duration_MTurk/v2_DepthDuration_HTML.html#351,351,1536,864,1536,864,8-30-2022,8-57-9,35,depth_duration_stimuli/001164_2014-06-17_15-35-46_260595134347_rgbf000085-resize_3/001164_2014-06-17_15-35-46_260595134347_rgbf000085-resize_3-target.png,1000,2.354,1.0,5727,1015,meters,jsons/v1_VE1000_randls_65.json,897811,1335540,69,Man
35,215522,DepthScenes,duration_manipulation_targetAtFixation,jsons/v1_VE1000_randls_65.json,http://54.235.29.9/FacialAge/BNav_EC2/DepthDuration/v2_depth_duration_MTurk/v2_DepthDuration_HTML.html#351,351,1536,864,1536,864,8-30-2022,8-57-9,36,depth_duration_stimuli/001136_2014-06-17_15-19-41_260595134347_rgbf000076-resize_3/001136_2014-06-17_15-19-41_260595134347_rgbf000076-resize_3-target.png,1000,1.8655,1.0,4541,1000,meters,jsons/v1_VE1000_randls_65.json,897811,1335540,69,Man
36,215522,DepthScenes,duration_manipulation_targetAtFixation,jsons/v1_VE1000_randls_65.json,http://54.235.29.9/FacialAge/BNav_EC2/DepthDuration/v2_depth_duration_MTurk/v2_DepthDuration_HTML.html#351,351,1536,864,1536,864,8-30-2022,8-57-9,37,depth_duration_stimuli/002509_2014-06-24_13-19-22_094959634447_rgbf000077-resize_0/002509_2014-06-24_13-19-22_094959634447_rgbf000077-resize_0-target.png,1000,1.3065,0.0,6411,1011,meters,jsons/v1_VE1000_randls_65.json,897811,1335540,69,Man
37,215522,DepthScenes,duration_manipulation_targetAtFixation,jsons/v1_VE1000_randls_65.json,http://54.235.29.9/FacialAge/BNav_EC2/DepthDuration/v2_depth_duration_MTurk/v2_DepthDuration_HTML.html#351,351,1536,864,1536,864,8-30-2022,8-57-9,38,depth_duration_stimuli/003338_2014-05-20_11-01-23_094959634447_rgbf000051-resize_6/003338_2014-05-20_11-01-23_094959634447_rgbf000051-resize_6-target.png,1000,1.693,1.0,6213,1003,meters,jsons/v1_VE1000_randls_65.json,897811,1335540,69,Man
38,215522,DepthScenes,duration_manipulation_targetAtFixation,jsons/v1_VE1000_randls_65.json,http://54.235.29.9/FacialAge/BNav_EC2/DepthDuration/v2_depth_duration_MTurk/v2_DepthDuration_HTML.html#351,351,1536,864,1536,864,8-30-2022,8-57-9,39,depth_duration_stimuli/003070_2014-06-15_14-58-27_094959634447_rgbf000150-resize_3/003070_2014-06-15_14-58-27_094959634447_rgbf000150-resize_3-target.png,1000,2.9415,2.0,3833,1018,meters,jsons/v1_VE1000_randls_65.json,897811,1335540,69,Man
39,215522,DepthScenes,duration_manipulation_targetAtFixation,jsons/v1_VE1000_randls_65.json,http://54.235.29.9/FacialAge/BNav_EC2/DepthDuration/v2_depth_duration_MTurk/v2_DepthDuration_HTML.html#351,351,1536,864,1536,864,8-30-2022,8-57-9,40,depth_duration_stimuli/000943_2014-06-09_19-31-07_260595134347_rgbf000128-resize_1/000943_2014-06-09_19-31-07_260595134347_rgbf000128-resize_1-target.png,1000,1.9765,2.0,3995,1011,meters,jsons/v1_VE1000_randls_65.json,897811,1335540,69,Man
40,215522,DepthScenes,duration_manipulation_targetAtFixation,jsons/v1_VE1000_randls_65.json,http://54.235.29.9/FacialAge/BNav_EC2/DepthDuration/v2_depth_duration_MTurk/v2_DepthDuration_HTML.html#351,351,1536,864,1536,864,8-30-2022,8-57-9,41,depth_duration_stimuli/003292_2014-05-14_21-53-49_094959634447_rgbf000100-resize_2/003292_2014-05-14_21-53-49_094959634447_rgbf000100-resize_2-target.png,1000,3.4815,1.0,3677,992,meters,jsons/v1_VE1000_randls_65.json,897811,1335540,69,Man
41,215522,DepthScenes,duration_manipulation_targetAtFixation,jsons/v1_VE1000_randls_65.json,http://54.235.29.9/FacialAge/BNav_EC2/DepthDuration/v2_depth_duration_MTurk/v2_DepthDuration_HTML.html#351,351,1536,864,1536,864,8-30-2022,8-57-9,42,depth_duration_stimuli/002639_2014-06-24_14-51-37_094959634447_rgbf000074-resize_4/002639_2014-06-24_14-51-37_094959634447_rgbf000074-resize_4-target.png,1000,4.0375,1.0,3637,994,meters,jsons/v1_VE1000_randls_65.json,897811,1335540,69,Man
42,215522,DepthScenes,duration_manipulation_targetAtFixation,jsons/v1_VE1000_randls_65.json,http://54.235.29.9/FacialAge/BNav_EC2/DepthDuration/v2_depth_duration_MTurk/v2_DepthDuration_HTML.html#351,351,1536,864,1536,864,8-30-2022,8-57-9,43,depth_duration_stimuli/001449_2014-06-19_17-01-27_260595134347_rgbf000116-resize_2/001449_2014-06-19_17-01-27_260595134347_rgbf000116-resize_2-target.png,1000,3.452,3.0,3844,1003,meters,jsons/v1_VE1000_randls_65.json,897811,1335540,69,Man
43,215522,DepthScenes,duration_manipulation_targetAtFixation,jsons/v1_VE1000_randls_65.json,http://54.235.29.9/FacialAge/BNav_EC2/DepthDuration/v2_depth_duration_MTurk/v2_DepthDuration_HTML.html#351,351,1536,864,1536,864,8-30-2022,8-57-9,44,depth_duration_stimuli/001450_2014-06-19_17-02-03_260595134347_rgbf000203-resize_4/001450_2014-06-19_17-02-03_260595134347_rgbf000203-resize_4-target.png,1000,4.0106666666667,2.0,3551,1006,meters,jsons/v1_VE1000_randls_65.json,897811,1335540,69,Man
44,215522,DepthScenes,duration_manipulation_targetAtFixation,jsons/v1_VE1000_randls_65.json,http://54.235.29.9/FacialAge/BNav_EC2/DepthDuration/v2_depth_duration_MTurk/v2_DepthDuration_HTML.html#351,351,1536,864,1536,864,8-30-2022,8-57-9,45,depth_duration_stimuli/000787_2014-06-08_22-33-53_260595134347_rgbf000175-resize_1/000787_2014-06-08_22-33-53_260595134347_rgbf000175-resize-original.jpg,1000,4.784,0.0,7894,994,meters,jsons/v1_VE1000_randls_65.json,897811,1335540,69,Man
45,215522,DepthScenes,duration_manipulation_targetAtFixation,jsons/v1_VE1000_randls_65.json,http://54.235.29.9/FacialAge/BNav_EC2/DepthDuration/v2_depth_duration_MTurk/v2_DepthDuration_HTML.html#351,351,1536,864,1536,864,8-30-2022,8-57-9,46,depth_duration_stimuli/000368_2014-06-09_15-53-01_260595134347_rgbf000155-resize_2/000368_2014-06-09_15-53-01_260595134347_rgbf000155-resize_2-target.png,1000,2.4859999999999998,1.0,4600,1001,meters,jsons/v1_VE1000_randls_65.json,897811,1335540,69,Man
46,215522,DepthScenes,duration_manipulation_targetAtFixation,jsons/v1_VE1000_randls_65.json,http://54.235.29.9/FacialAge/BNav_EC2/DepthDuration/v2_depth_duration_MTurk/v2_DepthDuration_HTML.html#351,351,1536,864,1536,864,8-30-2022,8-57-9,47,depth_duration_stimuli/002678_2014-06-13_16-15-32_094959634447_rgbf000151-resize_6/002678_2014-06-13_16-15-32_094959634447_rgbf000151-resize_6-target.png,1000,2.1830000000000003,0.5,6768,1004,meters,jsons/v1_VE1000_randls_65.json,897811,1335540,69,Man
47,215522,DepthScenes,duration_manipulation_targetAtFixation,jsons/v1_VE1000_randls_65.json,http://54.235.29.9/FacialAge/BNav_EC2/DepthDuration/v2_depth_duration_MTurk/v2_DepthDuration_HTML.html#351,351,1536,746,1536,864,8-30-2022,8-57-9,48,depth_duration_stimuli/002213_2014-06-28_18-37-58_260595134347_rgbf000055-resize_1/002213_2014-06-28_18-37-58_260595134347_rgbf000055-resize_1-target.png,1000,3.62,2.0,64345,993,meters,jsons/v1_VE1000_randls_65.json,897811,1335540,69,Man
48,215522,DepthScenes,duration_manipulation_targetAtFixation,jsons/v1_VE1000_randls_65.json,http://54.235.29.9/FacialAge/BNav_EC2/DepthDuration/v2_depth_duration_MTurk/v2_DepthDuration_HTML.html#351,351,1536,746,1536,864,8-30-2022,8-57-9,49,depth_duration_stimuli/000691_2014-06-08_13-08-50_260595134347_rgbf000132-resize_3/000691_2014-06-08_13-08-50_260595134347_rgbf000132-resize_3-target.png,1000,4.1530000000000005,1.0,4880,996,meters,jsons/v1_VE1000_randls_65.json,897811,1335540,69,Man
49,215522,DepthScenes,duration_manipulation_targetAtFixation,jsons/v1_VE1000_randls_65.json,http://54.235.29.9/FacialAge/BNav_EC2/DepthDuration/v2_depth_duration_MTurk/v2_DepthDuration_HTML.html#351,351,1536,746,1536,864,8-30-2022,8-57-9,50,depth_duration_stimuli/002043_2014-06-24_20-29-38_260595134347_rgbf000039-resize_4/002043_2014-06-24_20-29-38_260595134347_rgbf000039-resize_4-target.png,1000,2.8435,1.5,6311,1001,meters,jsons/v1_VE1000_randls_65.json,897811,1335540,69,Man
50,215522,DepthScenes,duration_manipulation_targetAtFixation,jsons/v1_VE1000_randls_65.json,http://54.235.29.9/FacialAge/BNav_EC2/DepthDuration/v2_depth_duration_MTurk/v2_DepthDuration_HTML.html#351,351,1536,746,1536,864,8-30-2022,8-57-9,51,depth_duration_stimuli/003048_2014-06-15_13-49-43_094959634447_rgbf000150-resize_1/003048_2014-06-15_13-49-43_094959634447_rgbf000150-resize_1-target.png,1000,4.0035,1.0,5053,1006,meters,jsons/v1_VE1000_randls_65.json,897811,1335540,69,Man
51,215522,DepthScenes,duration_manipulation_targetAtFixation,jsons/v1_VE1000_randls_65.json,http://54.235.29.9/FacialAge/BNav_EC2/DepthDuration/v2_depth_duration_MTurk/v2_DepthDuration_HTML.html#351,351,1536,746,1536,864,8-30-2022,8-57-9,52,depth_duration_stimuli/001092_2014-06-15_17-34-58_260595134347_rgbf000171-resize_3/001092_2014-06-15_17-34-58_260595134347_rgbf000171-resize_3-target.png,1000,2.6935,1.0,4143,1000,meters,jsons/v1_VE1000_randls_65.json,897811,1335540,69,Man
52,215522,DepthScenes,duration_manipulation_targetAtFixation,jsons/v1_VE1000_randls_65.json,http://54.235.29.9/FacialAge/BNav_EC2/DepthDuration/v2_depth_duration_MTurk/v2_DepthDuration_HTML.html#351,351,1536,746,1536,864,8-30-2022,8-57-9,53,depth_duration_stimuli/002545_2014-06-24_13-38-53_094959634447_rgbf000080-resize_4/002545_2014-06-24_13-38-53_094959634447_rgbf000080-resize_4-target.png,1000,1.9205,2.0,6185,1006,meters,jsons/v1_VE1000_randls_65.json,897811,1335540,69,Man
53,215522,DepthScenes,duration_manipulation_targetAtFixation,jsons/v1_VE1000_randls_65.json,http://54.235.29.9/FacialAge/BNav_EC2/DepthDuration/v2_depth_duration_MTurk/v2_DepthDuration_HTML.html#351,351,1536,746,1536,864,8-30-2022,8-57-9,54,depth_duration_stimuli/002784_2014-06-22_19-26-30_094959634447_rgbf000083-resize_3/002784_2014-06-22_19-26-30_094959634447_rgbf000083-resize_3-target.png,1000,1.8046666666667,1.0,5152,999,meters,jsons/v1_VE1000_randls_65.json,897811,1335540,69,Man
54,215522,DepthScenes,duration_manipulation_targetAtFixation,jsons/v1_VE1000_randls_65.json,http://54.235.29.9/FacialAge/BNav_EC2/DepthDuration/v2_depth_duration_MTurk/v2_DepthDuration_HTML.html#351,351,1536,746,1536,864,8-30-2022,8-57-9,55,depth_duration_stimuli/001100_2014-06-15_17-46-26_260595134347_rgbf000225-resize_2/001100_2014-06-15_17-46-26_260595134347_rgbf000225-resize_2-target.png,1000,2.24,2.0,4252,1003,meters,jsons/v1_VE1000_randls_65.json,897811,1335540,69,Man
55,215522,DepthScenes,duration_manipulation_targetAtFixation,jsons/v1_VE1000_randls_65.json,http://54.235.29.9/FacialAge/BNav_EC2/DepthDuration/v2_depth_duration_MTurk/v2_DepthDuration_HTML.html#351,351,1536,746,1536,864,8-30-2022,8-57-9,56,depth_duration_stimuli/000493_2014-06-09_21-01-18_260595134347_rgbf000196-resize_3/000493_2014-06-09_21-01-18_260595134347_rgbf000196-resize_3-target.png,1000,3.44,1.5,6228,1012,meters,jsons/v1_VE1000_randls_65.json,897811,1335540,69,Man
56,215522,DepthScenes,duration_manipulation_targetAtFixation,jsons/v1_VE1000_randls_65.json,http://54.235.29.9/FacialAge/BNav_EC2/DepthDuration/v2_depth_duration_MTurk/v2_DepthDuration_HTML.html#351,351,1536,746,1536,864,8-30-2022,8-57-9,57,depth_duration_stimuli/000191_2014-05-12_17-07-38_260595134347_rgbf000199-resize_0/000191_2014-05-12_17-07-38_260595134347_rgbf000199-resize_0-target.png,1000,3.7995,3.0,4776,1005,meters,jsons/v1_VE1000_randls_65.json,897811,1335540,69,Man
57,215522,DepthScenes,duration_manipulation_targetAtFixation,jsons/v1_VE1000_randls_65.json,http://54.235.29.9/FacialAge/BNav_EC2/DepthDuration/v2_depth_duration_MTurk/v2_DepthDuration_HTML.html#351,351,1536,746,1536,864,8-30-2022,8-57-9,58,depth_duration_stimuli/002964_2014-06-08_17-46-11_094959634447_rgbf000091-resize_4/002964_2014-06-08_17-46-11_094959634447_rgbf000091-resize_4-target.png,1000,1.6909999999999998,2.0,3965,997,meters,jsons/v1_VE1000_randls_65.json,897811,1335540,69,Man
58,215522,DepthScenes,duration_manipulation_targetAtFixation,jsons/v1_VE1000_randls_65.json,http://54.235.29.9/FacialAge/BNav_EC2/DepthDuration/v2_depth_duration_MTurk/v2_DepthDuration_HTML.html#351,351,1536,746,1536,864,8-30-2022,8-57-9,59,depth_duration_stimuli/002136_2014-06-25_21-18-03_260595134347_rgbf000109-resize_3/002136_2014-06-25_21-18-03_260595134347_rgbf000109-resize_3-target.png,1000,1.9569999999999999,0.0,4568,1014,meters,jsons/v1_VE1000_randls_65.json,897811,1335540,69,Man
59,215522,DepthScenes,duration_manipulation_targetAtFixation,jsons/v1_VE1000_randls_65.json,http://54.235.29.9/FacialAge/BNav_EC2/DepthDuration/v2_depth_duration_MTurk/v2_DepthDuration_HTML.html#351,351,1536,746,1536,864,8-30-2022,8-57-9,60,depth_duration_stimuli/000009_2014-05-26_14-32-05_260595134347_rgbf000034-resize_3/000009_2014-05-26_14-32-05_260595134347_rgbf000034-resize_3-target.png,1000,3.8715,1.0,4161,1020,meters,jsons/v1_VE1000_randls_65.json,897811,1335540,69,Man
60,215522,DepthScenes,duration_manipulation_targetAtFixation,jsons/v1_VE1000_randls_65.json,http://54.235.29.9/FacialAge/BNav_EC2/DepthDuration/v2_depth_duration_MTurk/v2_DepthDuration_HTML.html#351,351,1536,746,1536,864,8-30-2022,8-57-9,61,depth_duration_stimuli/001828_2014-06-26_21-40-03_260595134347_rgbf000024-resize_0/001828_2014-06-26_21-40-03_260595134347_rgbf000024-resize_0-target.png,1000,4.8260000000000005,2.0,3870,992,meters,jsons/v1_VE1000_randls_65.json,897811,1335540,69,Man
61,215522,DepthScenes,duration_manipulation_targetAtFixation,jsons/v1_VE1000_randls_65.json,http://54.235.29.9/FacialAge/BNav_EC2/DepthDuration/v2_depth_duration_MTurk/v2_DepthDuration_HTML.html#351,351,1536,746,1536,864,8-30-2022,8-57-9,62,depth_duration_stimuli/000736_2014-06-08_18-24-15_260595134347_rgbf000206-resize_3/000736_2014-06-08_18-24-15_260595134347_rgbf000206-resize_3-target.png,1000,3.515,2.0,3738,994,meters,jsons/v1_VE1000_randls_65.json,897811,1335540,69,Man
62,215522,DepthScenes,duration_manipulation_targetAtFixation,jsons/v1_VE1000_randls_65.json,http://54.235.29.9/FacialAge/BNav_EC2/DepthDuration/v2_depth_duration_MTurk/v2_DepthDuration_HTML.html#351,351,1536,746,1536,864,8-30-2022,8-57-9,63,depth_duration_stimuli/000137_2014-05-20_17-04-49_260595134347_rgbf000120-resize_1/000137_2014-05-20_17-04-49_260595134347_rgbf000120-resize_1-target.png,1000,3.786,2.0,6289,1004,meters,jsons/v1_VE1000_randls_65.json,897811,1335540,69,Man
63,215522,DepthScenes,duration_manipulation_targetAtFixation,jsons/v1_VE1000_randls_65.json,http://54.235.29.9/FacialAge/BNav_EC2/DepthDuration/v2_depth_duration_MTurk/v2_DepthDuration_HTML.html#351,351,1536,746,1536,864,8-30-2022,8-57-9,64,depth_duration_stimuli/001244_2014-06-17_16-47-45_260595134347_rgbf000030-resize_4/001244_2014-06-17_16-47-45_260595134347_rgbf000030-resize_4-target.png,1000,2.0425,1.0,3820,999,meters,jsons/v1_VE1000_randls_65.json,897811,1335540,69,Man
64,215522,DepthScenes,duration_manipulation_targetAtFixation,jsons/v1_VE1000_randls_65.json,http://54.235.29.9/FacialAge/BNav_EC2/DepthDuration/v2_depth_duration_MTurk/v2_DepthDuration_HTML.html#351,351,1536,746,1536,864,8-30-2022,8-57-9,65,depth_duration_stimuli/003495_2014-05-21_16-01-51_094959634447_rgbf000100-resize_3/003495_2014-05-21_16-01-51_094959634447_rgbf000100-resize_3-target.png,1000,1.6255,1.0,4559,1007,meters,jsons/v1_VE1000_randls_65.json,897811,1335540,69,Man
65,215522,DepthScenes,duration_manipulation_targetAtFixation,jsons/v1_VE1000_randls_65.json,http://54.235.29.9/FacialAge/BNav_EC2/DepthDuration/v2_depth_duration_MTurk/v2_DepthDuration_HTML.html#351,351,1536,746,1536,864,8-30-2022,8-57-9,66,depth_duration_stimuli/001222_2014-06-17_16-24-06_260595134347_rgbf000073-resize_0/001222_2014-06-17_16-24-06_260595134347_rgbf000073-resize-original.jpg,1000,1.4385,3.0,3719,995,meters,jsons/v1_VE1000_randls_65.json,897811,1335540,69,Man
66,215522,DepthScenes,duration_manipulation_targetAtFixation,jsons/v1_VE1000_randls_65.json,http://54.235.29.9/FacialAge/BNav_EC2/DepthDuration/v2_depth_duration_MTurk/v2_DepthDuration_HTML.html#351,351,1536,746,1536,864,8-30-2022,8-57-9,67,depth_duration_stimuli/002570_2014-06-24_13-59-54_094959634447_rgbf000059-resize_0/002570_2014-06-24_13-59-54_094959634447_rgbf000059-resize_0-target.png,1000,4.037,0.0,5043,993,meters,jsons/v1_VE1000_randls_65.json,897811,1335540,69,Man
67,215522,DepthScenes,duration_manipulation_targetAtFixation,jsons/v1_VE1000_randls_65.json,http://54.235.29.9/FacialAge/BNav_EC2/DepthDuration/v2_depth_duration_MTurk/v2_DepthDuration_HTML.html#351,351,1536,746,1536,864,8-30-2022,8-57-9,68,depth_duration_stimuli/002467_2014-06-28_20-38-07_260595134347_rgbf000026-resize_2/002467_2014-06-28_20-38-07_260595134347_rgbf000026-resize_2-target.png,1000,4.742,4.0,5549,1001,meters,jsons/v1_VE1000_randls_65.json,897811,1335540,69,Man
68,215522,DepthScenes,duration_manipulation_targetAtFixation,jsons/v1_VE1000_randls_65.json,http://54.235.29.9/FacialAge/BNav_EC2/DepthDuration/v2_depth_duration_MTurk/v2_DepthDuration_HTML.html#351,351,1536,746,1536,864,8-30-2022,8-57-9,69,depth_duration_stimuli/002748_2014-06-22_19-07-22_094959634447_rgbf000078-resize_1/002748_2014-06-22_19-07-22_094959634447_rgbf000078-resize_1-target.png,1000,4.6705,3.0,4375,992,meters,jsons/v1_VE1000_randls_65.json,897811,1335540,69,Man
69,215522,DepthScenes,duration_manipulation_targetAtFixation,jsons/v1_VE1000_randls_65.json,http://54.235.29.9/FacialAge/BNav_EC2/DepthDuration/v2_depth_duration_MTurk/v2_DepthDuration_HTML.html#351,351,1536,746,1536,864,8-30-2022,8-57-9,70,depth_duration_stimuli/002995_2014-06-15_12-31-26_094959634447_rgbf000150-resize_1/002995_2014-06-15_12-31-26_094959634447_rgbf000150-resize_1-target.png,1000,3.8360000000000003,3.0,7842,992,meters,jsons/v1_VE1000_randls_65.json,897811,1335540,69,Man
70,215522,DepthScenes,duration_manipulation_targetAtFixation,jsons/v1_VE1000_randls_65.json,http://54.235.29.9/FacialAge/BNav_EC2/DepthDuration/v2_depth_duration_MTurk/v2_DepthDuration_HTML.html#351,351,1536,746,1536,864,8-30-2022,8-57-9,71,depth_duration_stimuli/001810_2014-06-26_20-51-35_260595134347_rgbf000040-resize_3/001810_2014-06-26_20-51-35_260595134347_rgbf000040-resize_3-target.png,1000,2.2525,3.0,3912,1016,meters,jsons/v1_VE1000_randls_65.json,897811,1335540,69,Man
71,215522,DepthScenes,duration_manipulation_targetAtFixation,jsons/v1_VE1000_randls_65.json,http://54.235.29.9/FacialAge/BNav_EC2/DepthDuration/v2_depth_duration_MTurk/v2_DepthDuration_HTML.html#351,351,1536,746,1536,864,8-30-2022,8-57-9,72,depth_duration_stimuli/003010_2014-06-15_12-54-35_094959634447_rgbf000112-resize_0/003010_2014-06-15_12-54-35_094959634447_rgbf000112-resize_0-target.png,1000,3.1185,1.0,3997,1000,meters,jsons/v1_VE1000_randls_65.json,897811,1335540,69,Man
72,215522,DepthScenes,duration_manipulation_targetAtFixation,jsons/v1_VE1000_randls_65.json,http://54.235.29.9/FacialAge/BNav_EC2/DepthDuration/v2_depth_duration_MTurk/v2_DepthDuration_HTML.html#351,351,1536,746,1536,864,8-30-2022,8-57-9,73,depth_duration_stimuli/002600_2014-06-24_14-27-04_094959634447_rgbf000074-resize_2/002600_2014-06-24_14-27-04_094959634447_rgbf000074-resize_2-target.png,1000,2.7575,2.0,3736,1005,meters,jsons/v1_VE1000_randls_65.json,897811,1335540,69,Man
73,215522,DepthScenes,duration_manipulation_targetAtFixation,jsons/v1_VE1000_randls_65.json,http://54.235.29.9/FacialAge/BNav_EC2/DepthDuration/v2_depth_duration_MTurk/v2_DepthDuration_HTML.html#351,351,1536,746,1536,864,8-30-2022,8-57-9,74,depth_duration_stimuli/003228_2014-05-14_13-42-35_094959634447_rgbf000101-resize_1/003228_2014-05-14_13-42-35_094959634447_rgbf000101-resize_1-target.png,1000,1.9680000000000002,2.0,4314,993,meters,jsons/v1_VE1000_randls_65.json,897811,1335540,69,Man
74,215522,DepthScenes,duration_manipulation_targetAtFixation,jsons/v1_VE1000_randls_65.json,http://54.235.29.9/FacialAge/BNav_EC2/DepthDuration/v2_depth_duration_MTurk/v2_DepthDuration_HTML.html#351,351,1536,746,1536,864,8-30-2022,8-57-9,75,depth_duration_stimuli/001011_2014-06-08_23-18-54_260595134347_rgbf000044-resize_4/001011_2014-06-08_23-18-54_260595134347_rgbf000044-resize_4-target.png,1000,2.4730000000000003,1.0,4448,997,meters,jsons/v1_VE1000_randls_65.json,897811,1335540,69,Man
75,215522,DepthScenes,duration_manipulation_targetAtFixation,jsons/v1_VE1000_randls_65.json,http://54.235.29.9/FacialAge/BNav_EC2/DepthDuration/v2_depth_duration_MTurk/v2_DepthDuration_HTML.html#351,351,1536,746,1536,864,8-30-2022,8-57-9,76,depth_duration_stimuli/002875_2014-06-01_15-19-00_094959634447_rgbf000151-resize_1/002875_2014-06-01_15-19-00_094959634447_rgbf000151-resize_1-target.png,1000,1.9675,1.5,9998,993,meters,jsons/v1_VE1000_randls_65.json,897811,1335540,69,Man
76,215522,DepthScenes,duration_manipulation_targetAtFixation,jsons/v1_VE1000_randls_65.json,http://54.235.29.9/FacialAge/BNav_EC2/DepthDuration/v2_depth_duration_MTurk/v2_DepthDuration_HTML.html#351,351,1536,746,1536,864,8-30-2022,8-57-9,77,depth_duration_stimuli/000917_2014-06-09_22-45-29_260595134347_rgbf000149-resize_3/000917_2014-06-09_22-45-29_260595134347_rgbf000149-resize_3-target.png,1000,4.1865,3.0,3604,998,meters,jsons/v1_VE1000_randls_65.json,897811,1335540,69,Man
77,215522,DepthScenes,duration_manipulation_targetAtFixation,jsons/v1_VE1000_randls_65.json,http://54.235.29.9/FacialAge/BNav_EC2/DepthDuration/v2_depth_duration_MTurk/v2_DepthDuration_HTML.html#351,351,1536,746,1536,864,8-30-2022,8-57-9,78,depth_duration_stimuli/002323_2014-06-28_20-01-54_260595134347_rgbf000051-resize_4/002323_2014-06-28_20-01-54_260595134347_rgbf000051-resize_4-target.png,1000,3.7310000000000003,3.0,3412,987,meters,jsons/v1_VE1000_randls_65.json,897811,1335540,69,Man
78,215522,DepthScenes,duration_manipulation_targetAtFixation,jsons/v1_VE1000_randls_65.json,http://54.235.29.9/FacialAge/BNav_EC2/DepthDuration/v2_depth_duration_MTurk/v2_DepthDuration_HTML.html#351,351,1536,746,1536,864,8-30-2022,8-57-9,79,depth_duration_stimuli/001016_2014-06-09_16-16-10_260595134347_rgbf000112-resize_5/001016_2014-06-09_16-16-10_260595134347_rgbf000112-resize_5-target.png,1000,1.6565,3.0,3550,1002,meters,jsons/v1_VE1000_randls_65.json,897811,1335540,69,Man
79,215522,DepthScenes,duration_manipulation_targetAtFixation,jsons/v1_VE1000_randls_65.json,http://54.235.29.9/FacialAge/BNav_EC2/DepthDuration/v2_depth_duration_MTurk/v2_DepthDuration_HTML.html#351,351,1536,746,1536,864,8-30-2022,8-57-9,80,depth_duration_stimuli/002340_2014-06-28_20-05-46_260595134347_rgbf000113-resize_0/002340_2014-06-28_20-05-46_260595134347_rgbf000113-resize_0-target.png,1000,2.4735,1.0,3746,1004,meters,jsons/v1_VE1000_randls_65.json,897811,1335540,69,Man
80,215522,DepthScenes,duration_manipulation_targetAtFixation,jsons/v1_VE1000_randls_65.json,http://54.235.29.9/FacialAge/BNav_EC2/DepthDuration/v2_depth_duration_MTurk/v2_DepthDuration_HTML.html#351,351,1536,746,1536,864,8-30-2022,8-57-9,81,depth_duration_stimuli/000929_2014-06-09_16-33-19_260595134347_rgbf000139-resize_0/000929_2014-06-09_16-33-19_260595134347_rgbf000139-resize_0-target.png,1000,2.8680000000000003,1.0,4136,1001,meters,jsons/v1_VE1000_randls_65.json,897811,1335540,69,Man
81,215522,DepthScenes,duration_manipulation_targetAtFixation,jsons/v1_VE1000_randls_65.json,http://54.235.29.9/FacialAge/BNav_EC2/DepthDuration/v2_depth_duration_MTurk/v2_DepthDuration_HTML.html#351,351,1536,746,1536,864,8-30-2022,8-57-9,82,depth_duration_stimuli/000457_2014-06-08_16-52-43_260595134347_rgbf000199-resize_1/000457_2014-06-08_16-52-43_260595134347_rgbf000199-resize_1-target.png,1000,3.6489999999999996,1.0,2886,995,meters,jsons/v1_VE1000_randls_65.json,897811,1335540,69,Man
82,215522,DepthScenes,duration_manipulation_targetAtFixation,jsons/v1_VE1000_randls_65.json,http://54.235.29.9/FacialAge/BNav_EC2/DepthDuration/v2_depth_duration_MTurk/v2_DepthDuration_HTML.html#351,351,1536,746,1536,864,8-30-2022,8-57-9,83,depth_duration_stimuli/001066_2014-06-08_22-03-20_260595134347_rgbf000066-resize_4/001066_2014-06-08_22-03-20_260595134347_rgbf000066-resize_4-target.png,1000,4.2330000000000005,4.0,3837,1000,meters,jsons/v1_VE1000_randls_65.json,897811,1335540,69,Man
83,215522,DepthScenes,duration_manipulation_targetAtFixation,jsons/v1_VE1000_randls_65.json,http://54.235.29.9/FacialAge/BNav_EC2/DepthDuration/v2_depth_duration_MTurk/v2_DepthDuration_HTML.html#351,351,1536,746,1536,864,8-30-2022,8-57-9,84,depth_duration_stimuli/000742_2014-06-08_18-48-09_260595134347_rgbf000164-resize_4/000742_2014-06-08_18-48-09_260595134347_rgbf000164-resize_4-target.png,1000,4.632,2.0,3570,1000,meters,jsons/v1_VE1000_randls_65.json,897811,1335540,69,Man
84,215522,DepthScenes,duration_manipulation_targetAtFixation,jsons/v1_VE1000_randls_65.json,http://54.235.29.9/FacialAge/BNav_EC2/DepthDuration/v2_depth_duration_MTurk/v2_DepthDuration_HTML.html#351,351,1536,746,1536,864,8-30-2022,8-57-9,85,depth_duration_stimuli/001555_2014-06-20_17-12-10_260595134347_rgbf000065-resize_4/001555_2014-06-20_17-12-10_260595134347_rgbf000065-resize_4-target.png,1000,1.633,2.0,3397,996,meters,jsons/v1_VE1000_randls_65.json,897811,1335540,69,Man
85,215522,DepthScenes,duration_manipulation_targetAtFixation,jsons/v1_VE1000_randls_65.json,http://54.235.29.9/FacialAge/BNav_EC2/DepthDuration/v2_depth_duration_MTurk/v2_DepthDuration_HTML.html#351,351,1536,746,1536,864,8-30-2022,8-57-9,86,depth_duration_stimuli/000103_2014-05-14_22-01-17_260595134347_rgbf000152-resize_5/000103_2014-05-14_22-01-17_260595134347_rgbf000152-resize_5-target.png,1000,1.993,2.5,5598,986,meters,jsons/v1_VE1000_randls_65.json,897811,1335540,69,Man
86,215522,DepthScenes,duration_manipulation_targetAtFixation,jsons/v1_VE1000_randls_65.json,http://54.235.29.9/FacialAge/BNav_EC2/DepthDuration/v2_depth_duration_MTurk/v2_DepthDuration_HTML.html#351,351,1536,746,1536,864,8-30-2022,8-57-9,87,depth_duration_stimuli/002788_2014-06-22_19-36-03_094959634447_rgbf000088-resize_2/002788_2014-06-22_19-36-03_094959634447_rgbf000088-resize_2-target.png,1000,1.6465,3.0,3654,987,meters,jsons/v1_VE1000_randls_65.json,897811,1335540,69,Man
87,215522,DepthScenes,duration_manipulation_targetAtFixation,jsons/v1_VE1000_randls_65.json,http://54.235.29.9/FacialAge/BNav_EC2/DepthDuration/v2_depth_duration_MTurk/v2_DepthDuration_HTML.html#351,351,1536,746,1536,864,8-30-2022,8-57-9,88,depth_duration_stimuli/000749_2014-06-08_21-55-06_260595134347_rgbf000070-resize_2/000749_2014-06-08_21-55-06_260595134347_rgbf000070-resize_2-target.png,1000,2.331,3.0,3738,992,meters,jsons/v1_VE1000_randls_65.json,897811,1335540,69,Man
88,215522,DepthScenes,duration_manipulation_targetAtFixation,jsons/v1_VE1000_randls_65.json,http://54.235.29.9/FacialAge/BNav_EC2/DepthDuration/v2_depth_duration_MTurk/v2_DepthDuration_HTML.html#351,351,1536,746,1536,864,8-30-2022,8-57-9,89,depth_duration_stimuli/001029_2014-06-08_13-17-57_260595134347_rgbf000065-resize_1/001029_2014-06-08_13-17-57_260595134347_rgbf000065-resize_1-target.png,1000,3.0835,4.0,3433,1002,meters,jsons/v1_VE1000_randls_65.json,897811,1335540,69,Man
89,215522,DepthScenes,duration_manipulation_targetAtFixation,jsons/v1_VE1000_randls_65.json,http://54.235.29.9/FacialAge/BNav_EC2/DepthDuration/v2_depth_duration_MTurk/v2_DepthDuration_HTML.html#351,351,1536,746,1536,864,8-30-2022,8-57-9,90,depth_duration_stimuli/000677_2014-06-08_23-10-32_260595134347_rgbf000158-resize_6/000677_2014-06-08_23-10-32_260595134347_rgbf000158-resize_6-target.png,1000,3.556,0.0,4279,1002,meters,jsons/v1_VE1000_randls_65.json,897811,1335540,69,Man
90,215522,DepthScenes,duration_manipulation_targetAtFixation,jsons/v1_VE1000_randls_65.json,http://54.235.29.9/FacialAge/BNav_EC2/DepthDuration/v2_depth_duration_MTurk/v2_DepthDuration_HTML.html#351,351,1536,746,1536,864,8-30-2022,8-57-9,91,depth_duration_stimuli/001150_2014-06-17_15-27-34_260595134347_rgbf000108-resize_2/001150_2014-06-17_15-27-34_260595134347_rgbf000108-resize_2-target.png,1000,4.0325,3.0,4137,1006,meters,jsons/v1_VE1000_randls_65.json,897811,1335540,69,Man
91,215522,DepthScenes,duration_manipulation_targetAtFixation,jsons/v1_VE1000_randls_65.json,http://54.235.29.9/FacialAge/BNav_EC2/DepthDuration/v2_depth_duration_MTurk/v2_DepthDuration_HTML.html#351,351,1536,746,1536,864,8-30-2022,8-57-9,92,depth_duration_stimuli/000665_2014-06-09_20-42-35_260595134347_rgbf000110-resize_1/000665_2014-06-09_20-42-35_260595134347_rgbf000110-resize_1-target.png,1000,3.057,0.0,4277,1003,meters,jsons/v1_VE1000_randls_65.json,897811,1335540,69,Man
92,215522,DepthScenes,duration_manipulation_targetAtFixation,jsons/v1_VE1000_randls_65.json,http://54.235.29.9/FacialAge/BNav_EC2/DepthDuration/v2_depth_duration_MTurk/v2_DepthDuration_HTML.html#351,351,1536,746,1536,864,8-30-2022,8-57-9,93,depth_duration_stimuli/000758_2014-06-08_22-05-08_260595134347_rgbf000085-resize_0/000758_2014-06-08_22-05-08_260595134347_rgbf000085-resize_0-target.png,1000,3.3810000000000002,2.0,6010,1010,meters,jsons/v1_VE1000_randls_65.json,897811,1335540,69,Man
93,215522,DepthScenes,duration_manipulation_targetAtFixation,jsons/v1_VE1000_randls_65.json,http://54.235.29.9/FacialAge/BNav_EC2/DepthDuration/v2_depth_duration_MTurk/v2_DepthDuration_HTML.html#351,351,1536,746,1536,864,8-30-2022,8-57-9,94,depth_duration_stimuli/000854_2014-06-09_19-43-13_260595134347_rgbf000066-resize_0/000854_2014-06-09_19-43-13_260595134347_rgbf000066-resize_0-target.png,1000,3.068,3.0,5544,1010,meters,jsons/v1_VE1000_randls_65.json,897811,1335540,69,Man
94,215522,DepthScenes,duration_manipulation_targetAtFixation,jsons/v1_VE1000_randls_65.json,http://54.235.29.9/FacialAge/BNav_EC2/DepthDuration/v2_depth_duration_MTurk/v2_DepthDuration_HTML.html#351,351,1536,746,1536,864,8-30-2022,8-57-9,95,depth_duration_stimuli/001133_2014-06-17_14-49-16_260595134347_rgbf000100-resize_0/001133_2014-06-17_14-49-16_260595134347_rgbf000100-resize_0-target.png,1000,4.2115,2.0,4250,998,meters,jsons/v1_VE1000_randls_65.json,897811,1335540,69,Man
95,215522,DepthScenes,duration_manipulation_targetAtFixation,jsons/v1_VE1000_randls_65.json,http://54.235.29.9/FacialAge/BNav_EC2/DepthDuration/v2_depth_duration_MTurk/v2_DepthDuration_HTML.html#351,351,1536,746,1536,864,8-30-2022,8-57-9,96,depth_duration_stimuli/001132_2014-06-17_14-48-54_260595134347_rgbf000100-resize_2/001132_2014-06-17_14-48-54_260595134347_rgbf000100-resize_2-target.png,1000,3.753,3.0,4195,986,meters,jsons/v1_VE1000_randls_65.json,897811,1335540,69,Man
96,215522,DepthScenes,duration_manipulation_targetAtFixation,jsons/v1_VE1000_randls_65.json,http://54.235.29.9/FacialAge/BNav_EC2/DepthDuration/v2_depth_duration_MTurk/v2_DepthDuration_HTML.html#351,351,1536,746,1536,864,8-30-2022,8-57-9,97,depth_duration_stimuli/000878_2014-06-08_22-52-45_260595134347_rgbf000045-resize_2/000878_2014-06-08_22-52-45_260595134347_rgbf000045-resize_2-target.png,1000,2.092,3.0,3803,1002,meters,jsons/v1_VE1000_randls_65.json,897811,1335540,69,Man
97,215522,DepthScenes,duration_manipulation_targetAtFixation,jsons/v1_VE1000_randls_65.json,http://54.235.29.9/FacialAge/BNav_EC2/DepthDuration/v2_depth_duration_MTurk/v2_DepthDuration_HTML.html#351,351,1536,746,1536,864,8-30-2022,8-57-9,98,depth_duration_stimuli/002953_2014-06-08_17-32-18_094959634447_rgbf000059-resize_5/002953_2014-06-08_17-32-18_094959634447_rgbf000059-resize_5-target.png,1000,1.551,2.0,3626,1003,meters,jsons/v1_VE1000_randls_65.json,897811,1335540,69,Man
98,215522,DepthScenes,duration_manipulation_targetAtFixation,jsons/v1_VE1000_randls_65.json,http://54.235.29.9/FacialAge/BNav_EC2/DepthDuration/v2_depth_duration_MTurk/v2_DepthDuration_HTML.html#351,351,1536,746,1536,864,8-30-2022,8-57-9,99,depth_duration_stimuli/001540_2014-06-20_17-01-05_260595134347_rgbf000086-resize_2/001540_2014-06-20_17-01-05_260595134347_rgbf000086-resize-original.jpg,1000,1.459,0.0,4162,1000,meters,jsons/v1_VE1000_randls_65.json,897811,1335540,69,Man
99,215522,DepthScenes,duration_manipulation_targetAtFixation,jsons/v1_VE1000_randls_65.json,http://54.235.29.9/FacialAge/BNav_EC2/DepthDuration/v2_depth_duration_MTurk/v2_DepthDuration_HTML.html#351,351,1536,746,1536,864,8-30-2022,8-57-9,100,depth_duration_stimuli/000810_2014-06-08_17-20-01_260595134347_rgbf000105-resize_0/000810_2014-06-08_17-20-01_260595134347_rgbf000105-resize_0-target.png,1000,1.4865,1.0,3726,997,meters,jsons/v1_VE1000_randls_65.json,897811,1335540,69,Man
100,215522,DepthScenes,duration_manipulation_targetAtFixation,jsons/v1_VE1000_randls_65.json,http://54.235.29.9/FacialAge/BNav_EC2/DepthDuration/v2_depth_duration_MTurk/v2_DepthDuration_HTML.html#351,351,1536,746,1536,864,8-30-2022,8-57-9,101,depth_duration_stimuli/001214_2014-06-17_16-13-55_260595134347_rgbf000111-resize_0/001214_2014-06-17_16-13-55_260595134347_rgbf000111-resize_0-target.png,1000,2.6505,2.0,3797,995,meters,jsons/v1_VE1000_randls_65.json,897811,1335540,69,Man
101,215522,DepthScenes,duration_manipulation_targetAtFixation,jsons/v1_VE1000_randls_65.json,http://54.235.29.9/FacialAge/BNav_EC2/DepthDuration/v2_depth_duration_MTurk/v2_DepthDuration_HTML.html#351,351,1536,746,1536,864,8-30-2022,8-57-9,102,depth_duration_stimuli/001059_2014-06-08_21-53-27_260595134347_rgbf000061-resize_4/001059_2014-06-08_21-53-27_260595134347_rgbf000061-resize_4-target.png,1000,2.4185,2.0,3276,1003,meters,jsons/v1_VE1000_randls_65.json,897811,1335540,69,Man
102,215522,DepthScenes,duration_manipulation_targetAtFixation,jsons/v1_VE1000_randls_65.json,http://54.235.29.9/FacialAge/BNav_EC2/DepthDuration/v2_depth_duration_MTurk/v2_DepthDuration_HTML.html#351,351,1536,746,1536,864,8-30-2022,8-57-9,103,depth_duration_stimuli/001032_2014-06-08_13-23-17_260595134347_rgbf000021-resize_3/001032_2014-06-08_13-23-17_260595134347_rgbf000021-resize_3-target.png,1000,3.2725,2.0,3359,998,meters,jsons/v1_VE1000_randls_65.json,897811,1335540,69,Man
103,215522,DepthScenes,duration_manipulation_targetAtFixation,jsons/v1_VE1000_randls_65.json,http://54.235.29.9/FacialAge/BNav_EC2/DepthDuration/v2_depth_duration_MTurk/v2_DepthDuration_HTML.html#351,351,1536,746,1536,864,8-30-2022,8-57-9,104,depth_duration_stimuli/000906_2014-06-08_13-35-43_260595134347_rgbf000155-resize_1/000906_2014-06-08_13-35-43_260595134347_rgbf000155-resize_1-target.png,1000,2.8489999999999998,2.0,3609,998,meters,jsons/v1_VE1000_randls_65.json,897811,1335540,69,Man
104,215522,DepthScenes,duration_manipulation_targetAtFixation,jsons/v1_VE1000_randls_65.json,http://54.235.29.9/FacialAge/BNav_EC2/DepthDuration/v2_depth_duration_MTurk/v2_DepthDuration_HTML.html#351,351,1536,746,1536,864,8-30-2022,8-57-9,105,depth_duration_stimuli/002805_2014-06-22_19-54-03_094959634447_rgbf000079-resize_1/002805_2014-06-22_19-54-03_094959634447_rgbf000079-resize_1-target.png,1000,3.1439999999999997,3.0,3566,1003,meters,jsons/v1_VE1000_randls_65.json,897811,1335540,69,Man
105,215522,DepthScenes,duration_manipulation_targetAtFixation,jsons/v1_VE1000_randls_65.json,http://54.235.29.9/FacialAge/BNav_EC2/DepthDuration/v2_depth_duration_MTurk/v2_DepthDuration_HTML.html#351,351,1536,746,1536,864,8-30-2022,8-57-9,106,depth_duration_stimuli/001806_2014-06-26_20-50-20_260595134347_rgbf000091-resize_1/001806_2014-06-26_20-50-20_260595134347_rgbf000091-resize_1-target.png,1000,2.7305,1.0,3083,988,meters,jsons/v1_VE1000_randls_65.json,897811,1335540,69,Man
106,215522,DepthScenes,duration_manipulation_targetAtFixation,jsons/v1_VE1000_randls_65.json,http://54.235.29.9/FacialAge/BNav_EC2/DepthDuration/v2_depth_duration_MTurk/v2_DepthDuration_HTML.html#351,351,1536,746,1536,864,8-30-2022,8-57-9,107,depth_duration_stimuli/001617_2014-06-20_11-35-32_260595134347_rgbf000066-resize_1/001617_2014-06-20_11-35-32_260595134347_rgbf000066-resize_1-target.png,1000,3.7910000000000004,1.5,5319,996,meters,jsons/v1_VE1000_randls_65.json,897811,1335540,69,Man
107,215522,DepthScenes,duration_manipulation_targetAtFixation,jsons/v1_VE1000_randls_65.json,http://54.235.29.9/FacialAge/BNav_EC2/DepthDuration/v2_depth_duration_MTurk/v2_DepthDuration_HTML.html#351,351,1536,746,1536,864,8-30-2022,8-57-9,108,depth_duration_stimuli/003621_2014-05-23_18-06-08_094959634447_rgbf000101-resize_1/003621_2014-05-23_18-06-08_094959634447_rgbf000101-resize_1-target.png,1000,3.9835,2.0,3951,1000,meters,jsons/v1_VE1000_randls_65.json,897811,1335540,69,Man
108,215522,DepthScenes,duration_manipulation_targetAtFixation,jsons/v1_VE1000_randls_65.json,http://54.235.29.9/FacialAge/BNav_EC2/DepthDuration/v2_depth_duration_MTurk/v2_DepthDuration_HTML.html#351,351,1536,746,1536,864,8-30-2022,8-57-9,109,depth_duration_stimuli/001584_2014-06-20_11-07-43_260595134347_rgbf000002-resize_1/001584_2014-06-20_11-07-43_260595134347_rgbf000002-resize_1-target.png,1000,3.53,2.5,5667,990,meters,jsons/v1_VE1000_randls_65.json,897811,1335540,69,Man
109,215522,DepthScenes,duration_manipulation_targetAtFixation,jsons/v1_VE1000_randls_65.json,http://54.235.29.9/FacialAge/BNav_EC2/DepthDuration/v2_depth_duration_MTurk/v2_DepthDuration_HTML.html#351,351,1536,746,1536,864,8-30-2022,8-57-9,110,depth_duration_stimuli/000447_2014-06-08_16-15-46_260595134347_rgbf000130-resize_1/000447_2014-06-08_16-15-46_260595134347_rgbf000130-resize_1-target.png,1000,4.479,3.0,4010,991,meters,jsons/v1_VE1000_randls_65.json,897811,1335540,69,Man
110,215522,DepthScenes,duration_manipulation_targetAtFixation,jsons/v1_VE1000_randls_65.json,http://54.235.29.9/FacialAge/BNav_EC2/DepthDuration/v2_depth_duration_MTurk/v2_DepthDuration_HTML.html#351,351,1536,746,1536,864,8-30-2022,8-57-9,111,depth_duration_stimuli/001447_2014-06-19_17-00-32_260595134347_rgbf000082-resize_5/001447_2014-06-19_17-00-32_260595134347_rgbf000082-resize_5-target.png,1000,4.13775,3.0,4296,1000,meters,jsons/v1_VE1000_randls_65.json,897811,1335540,69,Man
111,215522,DepthScenes,duration_manipulation_targetAtFixation,jsons/v1_VE1000_randls_65.json,http://54.235.29.9/FacialAge/BNav_EC2/DepthDuration/v2_depth_duration_MTurk/v2_DepthDuration_HTML.html#351,351,1536,746,1536,864,8-30-2022,8-57-9,112,depth_duration_stimuli/002988_2014-06-15_12-24-20_094959634447_rgbf000150-resize_1/002988_2014-06-15_12-24-20_094959634447_rgbf000150-resize_1-target.png,1000,4.7669999999999995,2.0,4134,999,meters,jsons/v1_VE1000_randls_65.json,897811,1335540,69,Man
112,215522,DepthScenes,duration_manipulation_targetAtFixation,jsons/v1_VE1000_randls_65.json,http://54.235.29.9/FacialAge/BNav_EC2/DepthDuration/v2_depth_duration_MTurk/v2_DepthDuration_HTML.html#351,351,1536,746,1536,864,8-30-2022,8-57-9,113,depth_duration_stimuli/001052_2014-06-08_18-24-54_260595134347_rgbf000130-resize_1/001052_2014-06-08_18-24-54_260595134347_rgbf000130-resize_1-target.png,1000,4.1045,3.0,3793,993,meters,jsons/v1_VE1000_randls_65.json,897811,1335540,69,Man
113,215522,DepthScenes,duration_manipulation_targetAtFixation,jsons/v1_VE1000_randls_65.json,http://54.235.29.9/FacialAge/BNav_EC2/DepthDuration/v2_depth_duration_MTurk/v2_DepthDuration_HTML.html#351,351,1536,746,1536,864,8-30-2022,8-57-9,114,depth_duration_stimuli/001158_2014-06-17_15-32-16_260595134347_rgbf000138-resize_2/001158_2014-06-17_15-32-16_260595134347_rgbf000138-resize_2-target.png,1000,4.5315,0.0,3745,991,meters,jsons/v1_VE1000_randls_65.json,897811,1335540,69,Man
114,215522,DepthScenes,duration_manipulation_targetAtFixation,jsons/v1_VE1000_randls_65.json,http://54.235.29.9/FacialAge/BNav_EC2/DepthDuration/v2_depth_duration_MTurk/v2_DepthDuration_HTML.html#351,351,1536,746,1536,864,8-30-2022,8-57-9,115,depth_duration_stimuli/000556_2014-06-09_22-42-56_260595134347_rgbf000214-resize_1/000556_2014-06-09_22-42-56_260595134347_rgbf000214-resize_1-target.png,1000,4.8415,2.0,3206,995,meters,jsons/v1_VE1000_randls_65.json,897811,1335540,69,Man
115,215522,DepthScenes,duration_manipulation_targetAtFixation,jsons/v1_VE1000_randls_65.json,http://54.235.29.9/FacialAge/BNav_EC2/DepthDuration/v2_depth_duration_MTurk/v2_DepthDuration_HTML.html#351,351,1536,746,1536,864,8-30-2022,8-57-9,116,depth_duration_stimuli/001170_2014-06-17_15-43-44_260595134347_rgbf000096-resize_6/001170_2014-06-17_15-43-44_260595134347_rgbf000096-resize-original.jpg,1000,1.1909999999999998,0.0,6423,1008,meters,jsons/v1_VE1000_randls_65.json,897811,1335540,69,Man
116,215522,DepthScenes,duration_manipulation_targetAtFixation,jsons/v1_VE1000_randls_65.json,http://54.235.29.9/FacialAge/BNav_EC2/DepthDuration/v2_depth_duration_MTurk/v2_DepthDuration_HTML.html#351,351,1536,746,1536,864,8-30-2022,8-57-9,117,depth_duration_stimuli/000773_2014-06-08_22-24-54_260595134347_rgbf000093-resize_1/000773_2014-06-08_22-24-54_260595134347_rgbf000093-resize_1-target.png,1000,4.973,2.0,4054,994,meters,jsons/v1_VE1000_randls_65.json,897811,1335540,69,Man
117,215522,DepthScenes,duration_manipulation_targetAtFixation,jsons/v1_VE1000_randls_65.json,http://54.235.29.9/FacialAge/BNav_EC2/DepthDuration/v2_depth_duration_MTurk/v2_DepthDuration_HTML.html#351,351,1536,746,1536,864,8-30-2022,8-57-9,118,depth_duration_stimuli/002414_2014-06-28_20-24-58_260595134347_rgbf000067-resize_4/002414_2014-06-28_20-24-58_260595134347_rgbf000067-resize_4-target.png,1000,4.363,2.0,3745,997,meters,jsons/v1_VE1000_randls_65.json,897811,1335540,69,Man
118,215522,DepthScenes,duration_manipulation_targetAtFixation,jsons/v1_VE1000_randls_65.json,http://54.235.29.9/FacialAge/BNav_EC2/DepthDuration/v2_depth_duration_MTurk/v2_DepthDuration_HTML.html#351,351,1536,746,1536,864,8-30-2022,8-57-9,119,depth_duration_stimuli/003534_2014-05-22_15-06-10_094959634447_rgbf000102-resize_4/003534_2014-05-22_15-06-10_094959634447_rgbf000102-resize_4-target.png,1000,1.426,3.0,3846,998,meters,jsons/v1_VE1000_randls_65.json,897811,1335540,69,Man
119,215522,DepthScenes,duration_manipulation_targetAtFixation,jsons/v1_VE1000_randls_65.json,http://54.235.29.9/FacialAge/BNav_EC2/DepthDuration/v2_depth_duration_MTurk/v2_DepthDuration_HTML.html#351,351,1536,746,1536,864,8-30-2022,8-57-9,120,depth_duration_stimuli/002637_2014-06-24_14-51-13_094959634447_rgbf000066-resize_4/002637_2014-06-24_14-51-13_094959634447_rgbf000066-resize_4-target.png,1000,1.9955,2.0,3278,989,meters,jsons/v1_VE1000_randls_65.json,897811,1335540,69,Man
120,215522,DepthScenes,duration_manipulation_targetAtFixation,jsons/v1_VE1000_randls_65.json,http://54.235.29.9/FacialAge/BNav_EC2/DepthDuration/v2_depth_duration_MTurk/v2_DepthDuration_HTML.html#351,351,1536,746,1536,864,8-30-2022,8-57-9,121,depth_duration_stimuli/002630_2014-06-24_14-47-50_094959634447_rgbf000055-resize_1/002630_2014-06-24_14-47-50_094959634447_rgbf000055-resize_1-target.png,1000,3.0095,4.0,4954,995,meters,jsons/v1_VE1000_randls_65.json,897811,1335540,69,Man
121,215522,DepthScenes,duration_manipulation_targetAtFixation,jsons/v1_VE1000_randls_65.json,http://54.235.29.9/FacialAge/BNav_EC2/DepthDuration/v2_depth_duration_MTurk/v2_DepthDuration_HTML.html#351,351,1536,746,1536,864,8-30-2022,8-57-9,122,depth_duration_stimuli/002758_2014-06-22_19-11-20_094959634447_rgbf000128-resize_1/002758_2014-06-22_19-11-20_094959634447_rgbf000128-resize_1-target.png,1000,2.555,2.0,3924,999,meters,jsons/v1_VE1000_randls_65.json,897811,1335540,69,Man
122,215522,DepthScenes,duration_manipulation_targetAtFixation,jsons/v1_VE1000_randls_65.json,http://54.235.29.9/FacialAge/BNav_EC2/DepthDuration/v2_depth_duration_MTurk/v2_DepthDuration_HTML.html#351,351,1536,746,1536,864,8-30-2022,8-57-9,123,depth_duration_stimuli/002118_2014-06-25_20-32-08_260595134347_rgbf000078-resize_1/002118_2014-06-25_20-32-08_260595134347_rgbf000078-resize_1-target.png,1000,2.6460000000000004,4.0,3484,988,meters,jsons/v1_VE1000_randls_65.json,897811,1335540,69,Man
123,215522,DepthScenes,duration_manipulation_targetAtFixation,jsons/v1_VE1000_randls_65.json,http://54.235.29.9/FacialAge/BNav_EC2/DepthDuration/v2_depth_duration_MTurk/v2_DepthDuration_HTML.html#351,351,1536,746,1536,864,8-30-2022,8-57-9,124,depth_duration_stimuli/001516_2014-06-20_16-25-09_260595134347_rgbf000076-resize_2/001516_2014-06-20_16-25-09_260595134347_rgbf000076-resize_2-target.png,1000,1.7445,2.0,3284,1004,meters,jsons/v1_VE1000_randls_65.json,897811,1335540,69,Man
124,215522,DepthScenes,duration_manipulation_targetAtFixation,jsons/v1_VE1000_randls_65.json,http://54.235.29.9/FacialAge/BNav_EC2/DepthDuration/v2_depth_duration_MTurk/v2_DepthDuration_HTML.html#351,351,1536,746,1536,864,8-30-2022,8-57-9,125,depth_duration_stimuli/000739_2014-06-08_18-45-58_260595134347_rgbf000068-resize_1/000739_2014-06-08_18-45-58_260595134347_rgbf000068-resize_1-target.png,1000,3.534,3.5,7171,1010,meters,jsons/v1_VE1000_randls_65.json,897811,1335540,69,Man
125,215522,DepthScenes,duration_manipulation_targetAtFixation,jsons/v1_VE1000_randls_65.json,http://54.235.29.9/FacialAge/BNav_EC2/DepthDuration/v2_depth_duration_MTurk/v2_DepthDuration_HTML.html#351,351,1536,746,1536,864,8-30-2022,8-57-9,126,depth_duration_stimuli/000734_2014-06-08_17-39-11_260595134347_rgbf000128-resize_2/000734_2014-06-08_17-39-11_260595134347_rgbf000128-resize_2-target.png,1000,4.098,0.5,6392,1002,meters,jsons/v1_VE1000_randls_65.json,897811,1335540,69,Man
126,215522,DepthScenes,duration_manipulation_targetAtFixation,jsons/v1_VE1000_randls_65.json,http://54.235.29.9/FacialAge/BNav_EC2/DepthDuration/v2_depth_duration_MTurk/v2_DepthDuration_HTML.html#351,351,1536,746,1536,864,8-30-2022,8-57-9,127,depth_duration_stimuli/000692_2014-06-08_13-09-42_260595134347_rgbf000199-resize_2/000692_2014-06-08_13-09-42_260595134347_rgbf000199-resize_2-target.png,1000,3.661,1.0,3660,996,meters,jsons/v1_VE1000_randls_65.json,897811,1335540,69,Man
127,215522,DepthScenes,duration_manipulation_targetAtFixation,jsons/v1_VE1000_randls_65.json,http://54.235.29.9/FacialAge/BNav_EC2/DepthDuration/v2_depth_duration_MTurk/v2_DepthDuration_HTML.html#351,351,1536,746,1536,864,8-30-2022,8-57-9,128,depth_duration_stimuli/001094_2014-06-15_17-36-00_260595134347_rgbf000205-resize_0/001094_2014-06-15_17-36-00_260595134347_rgbf000205-resize_0-target.png,1000,4.2175,2.0,3155,997,meters,jsons/v1_VE1000_randls_65.json,897811,1335540,69,Man
128,215522,DepthScenes,duration_manipulation_targetAtFixation,jsons/v1_VE1000_randls_65.json,http://54.235.29.9/FacialAge/BNav_EC2/DepthDuration/v2_depth_duration_MTurk/v2_DepthDuration_HTML.html#351,351,1536,746,1536,864,8-30-2022,8-57-9,129,depth_duration_stimuli/000436_2014-06-09_22-25-11_260595134347_rgbf000137-resize_1/000436_2014-06-09_22-25-11_260595134347_rgbf000137-resize_1-target.png,1000,4.0705,2.0,3649,998,meters,jsons/v1_VE1000_randls_65.json,897811,1335540,69,Man
129,215522,DepthScenes,duration_manipulation_targetAtFixation,jsons/v1_VE1000_randls_65.json,http://54.235.29.9/FacialAge/BNav_EC2/DepthDuration/v2_depth_duration_MTurk/v2_DepthDuration_HTML.html#351,351,1536,746,1536,864,8-30-2022,8-57-9,130,depth_duration_stimuli/002444_2014-06-28_20-32-08_260595134347_rgbf000027-resize_0/002444_2014-06-28_20-32-08_260595134347_rgbf000027-resize_0-target.png,1000,4.388999999999999,2.0,3347,991,meters,jsons/v1_VE1000_randls_65.json,897811,1335540,69,Man
130,215522,DepthScenes,duration_manipulation_targetAtFixation,jsons/v1_VE1000_randls_65.json,http://54.235.29.9/FacialAge/BNav_EC2/DepthDuration/v2_depth_duration_MTurk/v2_DepthDuration_HTML.html#351,351,1536,746,1536,864,8-30-2022,8-57-9,131,depth_duration_stimuli/000486_2014-06-09_20-47-20_260595134347_rgbf000143-resize_2/000486_2014-06-09_20-47-20_260595134347_rgbf000143-resize_2-target.png,1000,4.8325,3.0,3216,986,meters,jsons/v1_VE1000_randls_65.json,897811,1335540,69,Man
131,215522,DepthScenes,duration_manipulation_targetAtFixation,jsons/v1_VE1000_randls_65.json,http://54.235.29.9/FacialAge/BNav_EC2/DepthDuration/v2_depth_duration_MTurk/v2_DepthDuration_HTML.html#351,351,1536,746,1536,864,8-30-2022,8-57-9,132,depth_duration_stimuli/003083_2014-06-15_15-21-03_094959634447_rgbf000063-resize_1/003083_2014-06-15_15-21-03_094959634447_rgbf000063-resize_1-target.png,1000,4.1405,3.0,3005,995,meters,jsons/v1_VE1000_randls_65.json,897811,1335540,69,Man
132,215522,DepthScenes,duration_manipulation_targetAtFixation,jsons/v1_VE1000_randls_65.json,http://54.235.29.9/FacialAge/BNav_EC2/DepthDuration/v2_depth_duration_MTurk/v2_DepthDuration_HTML.html#351,351,1536,746,1536,864,8-30-2022,8-57-9,133,depth_duration_stimuli/002549_2014-06-24_13-41-39_094959634447_rgbf000022-resize_3/002549_2014-06-24_13-41-39_094959634447_rgbf000022-resize_3-target.png,1000,1.476,2.0,3935,1000,meters,jsons/v1_VE1000_randls_65.json,897811,1335540,69,Man
133,215522,DepthScenes,duration_manipulation_targetAtFixation,jsons/v1_VE1000_randls_65.json,http://54.235.29.9/FacialAge/BNav_EC2/DepthDuration/v2_depth_duration_MTurk/v2_DepthDuration_HTML.html#351,351,1536,746,1536,864,8-30-2022,8-57-9,134,depth_duration_stimuli/002750_2014-06-22_19-08-03_094959634447_rgbf000094-resize_4/002750_2014-06-22_19-08-03_094959634447_rgbf000094-resize_4-target.png,1000,2.354,2.0,4829,985,meters,jsons/v1_VE1000_randls_65.json,897811,1335540,69,Man
134,215522,DepthScenes,duration_manipulation_targetAtFixation,jsons/v1_VE1000_randls_65.json,http://54.235.29.9/FacialAge/BNav_EC2/DepthDuration/v2_depth_duration_MTurk/v2_DepthDuration_HTML.html#351,351,1536,746,1536,864,8-30-2022,8-57-9,135,depth_duration_stimuli/002072_2014-06-24_21-48-06_260595134347_rgbf000115-resize_0/002072_2014-06-24_21-48-06_260595134347_rgbf000115-resize-original.jpg,1000,4.702,0.0,4306,999,meters,jsons/v1_VE1000_randls_65.json,897811,1335540,69,Man
135,215522,DepthScenes,duration_manipulation_targetAtFixation,jsons/v1_VE1000_randls_65.json,http://54.235.29.9/FacialAge/BNav_EC2/DepthDuration/v2_depth_duration_MTurk/v2_DepthDuration_HTML.html#351,351,1536,746,1536,864,8-30-2022,8-57-9,136,depth_duration_stimuli/002989_2014-06-15_12-25-03_094959634447_rgbf000150-resize_3/002989_2014-06-15_12-25-03_094959634447_rgbf000150-resize_3-target.png,1000,4.1975,2.0,3885,1004,meters,jsons/v1_VE1000_randls_65.json,897811,1335540,69,Man
136,215522,DepthScenes,duration_manipulation_targetAtFixation,jsons/v1_VE1000_randls_65.json,http://54.235.29.9/FacialAge/BNav_EC2/DepthDuration/v2_depth_duration_MTurk/v2_DepthDuration_HTML.html#351,351,1536,746,1536,864,8-30-2022,8-57-9,137,depth_duration_stimuli/000866_2014-06-09_20-45-42_260595134347_rgbf000139-resize_1/000866_2014-06-09_20-45-42_260595134347_rgbf000139-resize_1-target.png,1000,3.2155,2.0,3595,993,meters,jsons/v1_VE1000_randls_65.json,897811,1335540,69,Man
137,215522,DepthScenes,duration_manipulation_targetAtFixation,jsons/v1_VE1000_randls_65.json,http://54.235.29.9/FacialAge/BNav_EC2/DepthDuration/v2_depth_duration_MTurk/v2_DepthDuration_HTML.html#351,351,1536,746,1536,864,8-30-2022,8-57-9,138,depth_duration_stimuli/000788_2014-06-08_22-34-36_260595134347_rgbf000131-resize_1/000788_2014-06-08_22-34-36_260595134347_rgbf000131-resize_1-target.png,1000,3.359,3.0,3426,1000,meters,jsons/v1_VE1000_randls_65.json,897811,1335540,69,Man
138,215522,DepthScenes,duration_manipulation_targetAtFixation,jsons/v1_VE1000_randls_65.json,http://54.235.29.9/FacialAge/BNav_EC2/DepthDuration/v2_depth_duration_MTurk/v2_DepthDuration_HTML.html#351,351,1536,746,1536,864,8-30-2022,8-57-9,139,depth_duration_stimuli/001235_2014-06-17_16-37-36_260595134347_rgbf000084-resize_4/001235_2014-06-17_16-37-36_260595134347_rgbf000084-resize_4-target.png,1000,3.6605,3.0,3346,991,meters,jsons/v1_VE1000_randls_65.json,897811,1335540,69,Man
139,215522,DepthScenes,duration_manipulation_targetAtFixation,jsons/v1_VE1000_randls_65.json,http://54.235.29.9/FacialAge/BNav_EC2/DepthDuration/v2_depth_duration_MTurk/v2_DepthDuration_HTML.html#351,351,1536,746,1536,864,8-30-2022,8-57-9,140,depth_duration_stimuli/002445_2014-06-28_20-32-16_260595134347_rgbf000029-resize_4/002445_2014-06-28_20-32-16_260595134347_rgbf000029-resize_4-target.png,1000,2.5315,1.0,3202,989,meters,jsons/v1_VE1000_randls_65.json,897811,1335540,69,Man
140,215522,DepthScenes,duration_manipulation_targetAtFixation,jsons/v1_VE1000_randls_65.json,http://54.235.29.9/FacialAge/BNav_EC2/DepthDuration/v2_depth_duration_MTurk/v2_DepthDuration_HTML.html#351,351,1536,746,1536,864,8-30-2022,8-57-9,141,depth_duration_stimuli/000780_2014-06-08_22-28-29_260595134347_rgbf000126-resize_1/000780_2014-06-08_22-28-29_260595134347_rgbf000126-resize_1-target.png,1000,3.3825,2.0,3487,1003,meters,jsons/v1_VE1000_randls_65.json,897811,1335540,69,Man
141,215522,DepthScenes,duration_manipulation_targetAtFixation,jsons/v1_VE1000_randls_65.json,http://54.235.29.9/FacialAge/BNav_EC2/DepthDuration/v2_depth_duration_MTurk/v2_DepthDuration_HTML.html#351,351,1536,746,1536,864,8-30-2022,8-57-9,142,depth_duration_stimuli/002905_2014-06-03_18-04-43_094959634447_rgbf000151-resize_2/002905_2014-06-03_18-04-43_094959634447_rgbf000151-resize_2-target.png,1000,2.0295,2.0,3120,990,meters,jsons/v1_VE1000_randls_65.json,897811,1335540,69,Man
142,215522,DepthScenes,duration_manipulation_targetAtFixation,jsons/v1_VE1000_randls_65.json,http://54.235.29.9/FacialAge/BNav_EC2/DepthDuration/v2_depth_duration_MTurk/v2_DepthDuration_HTML.html#351,351,1536,746,1536,864,8-30-2022,8-57-9,143,depth_duration_stimuli/003423_2014-05-21_10-23-26_094959634447_rgbf002665-resize_2/003423_2014-05-21_10-23-26_094959634447_rgbf002665-resize_2-target.png,1000,3.2575,1.0,4026,999,meters,jsons/v1_VE1000_randls_65.json,897811,1335540,69,Man
143,215522,DepthScenes,duration_manipulation_targetAtFixation,jsons/v1_VE1000_randls_65.json,http://54.235.29.9/FacialAge/BNav_EC2/DepthDuration/v2_depth_duration_MTurk/v2_DepthDuration_HTML.html#351,351,1536,746,1536,864,8-30-2022,8-57-9,144,depth_duration_stimuli/000469_2014-06-09_19-42-10_260595134347_rgbf000081-resize_1/000469_2014-06-09_19-42-10_260595134347_rgbf000081-resize_1-target.png,1000,1.652,2.0,3686,995,meters,jsons/v1_VE1000_randls_65.json,897811,1335540,69,Man
144,215522,DepthScenes,duration_manipulation_targetAtFixation,jsons/v1_VE1000_randls_65.json,http://54.235.29.9/FacialAge/BNav_EC2/DepthDuration/v2_depth_duration_MTurk/v2_DepthDuration_HTML.html#351,351,1536,746,1536,864,8-30-2022,8-57-9,145,depth_duration_stimuli/000483_2014-06-09_20-41-45_260595134347_rgbf000116-resize_4/000483_2014-06-09_20-41-45_260595134347_rgbf000116-resize_4-target.png,1000,1.337,2.0,3159,1001,meters,jsons/v1_VE1000_randls_65.json,897811,1335540,69,Man
145,215522,DepthScenes,duration_manipulation_targetAtFixation,jsons/v1_VE1000_randls_65.json,http://54.235.29.9/FacialAge/BNav_EC2/DepthDuration/v2_depth_duration_MTurk/v2_DepthDuration_HTML.html#351,351,1536,746,1536,864,8-30-2022,8-57-9,146,depth_duration_stimuli/001498_2014-06-19_17-45-14_260595134347_rgbf000129-resize_4/001498_2014-06-19_17-45-14_260595134347_rgbf000129-resize-original.jpg,1000,1.4075,0.0,4231,1008,meters,jsons/v1_VE1000_randls_65.json,897811,1335540,69,Man
146,215522,DepthScenes,duration_manipulation_targetAtFixation,jsons/v1_VE1000_randls_65.json,http://54.235.29.9/FacialAge/BNav_EC2/DepthDuration/v2_depth_duration_MTurk/v2_DepthDuration_HTML.html#351,351,1536,746,1536,864,8-30-2022,8-57-9,147,depth_duration_stimuli/001110_2014-06-15_17-25-28_260595134347_rgbf000150-resize_1/001110_2014-06-15_17-25-28_260595134347_rgbf000150-resize_1-target.png,1000,1.7115,2.0,3793,995,meters,jsons/v1_VE1000_randls_65.json,897811,1335540,69,Man
147,215522,DepthScenes,duration_manipulation_targetAtFixation,jsons/v1_VE1000_randls_65.json,http://54.235.29.9/FacialAge/BNav_EC2/DepthDuration/v2_depth_duration_MTurk/v2_DepthDuration_HTML.html#351,351,1536,746,1536,864,8-30-2022,8-57-9,148,depth_duration_stimuli/000927_2014-06-09_16-32-30_260595134347_rgbf000123-resize_3/000927_2014-06-09_16-32-30_260595134347_rgbf000123-resize_3-target.png,1000,2.6785,2.0,3505,1008,meters,jsons/v1_VE1000_randls_65.json,897811,1335540,69,Man
148,215522,DepthScenes,duration_manipulation_targetAtFixation,jsons/v1_VE1000_randls_65.json,http://54.235.29.9/FacialAge/BNav_EC2/DepthDuration/v2_depth_duration_MTurk/v2_DepthDuration_HTML.html#351,351,1536,746,1536,864,8-30-2022,8-57-9,149,depth_duration_stimuli/000470_2014-06-09_19-42-40_260595134347_rgbf000094-resize_1/000470_2014-06-09_19-42-40_260595134347_rgbf000094-resize_1-target.png,1000,1.831,2.0,3087,999,meters,jsons/v1_VE1000_randls_65.json,897811,1335540,69,Man
149,215522,DepthScenes,duration_manipulation_targetAtFixation,jsons/v1_VE1000_randls_65.json,http://54.235.29.9/FacialAge/BNav_EC2/DepthDuration/v2_depth_duration_MTurk/v2_DepthDuration_HTML.html#351,351,1536,746,1536,864,8-30-2022,8-57-9,150,depth_duration_stimuli/000109_2014-05-14_23-41-52_260595134347_rgbf000035-resize_9/000109_2014-05-14_23-41-52_260595134347_rgbf000035-resize_9-target.png,1000,1.3545,2.0,3259,990,meters,jsons/v1_VE1000_randls_65.json,897811,1335540,69,Man
150,215522,DepthScenes,duration_manipulation_targetAtFixation,jsons/v1_VE1000_randls_65.json,http://54.235.29.9/FacialAge/BNav_EC2/DepthDuration/v2_depth_duration_MTurk/v2_DepthDuration_HTML.html#351,351,1536,746,1536,864,8-30-2022,8-57-9,151,depth_duration_stimuli/001808_2014-06-26_20-50-58_260595134347_rgbf000029-resize_1/001808_2014-06-26_20-50-58_260595134347_rgbf000029-resize_1-target.png,1000,4.249,2.0,3292,994,meters,jsons/v1_VE1000_randls_65.json,897811,1335540,69,Man
151,215522,DepthScenes,duration_manipulation_targetAtFixation,jsons/v1_VE1000_randls_65.json,http://54.235.29.9/FacialAge/BNav_EC2/DepthDuration/v2_depth_duration_MTurk/v2_DepthDuration_HTML.html#351,351,1536,746,1536,864,8-30-2022,8-57-9,152,depth_duration_stimuli/001815_2014-06-26_20-52-55_260595134347_rgbf000020-resize_0/001815_2014-06-26_20-52-55_260595134347_rgbf000020-resize_0-target.png,1000,3.3865,3.0,3084,998,meters,jsons/v1_VE1000_randls_65.json,897811,1335540,69,Man
152,215522,DepthScenes,duration_manipulation_targetAtFixation,jsons/v1_VE1000_randls_65.json,http://54.235.29.9/FacialAge/BNav_EC2/DepthDuration/v2_depth_duration_MTurk/v2_DepthDuration_HTML.html#351,351,1536,746,1536,864,8-30-2022,8-57-9,153,depth_duration_stimuli/002763_2014-06-22_19-13-10_094959634447_rgbf000075-resize_4/002763_2014-06-22_19-13-10_094959634447_rgbf000075-resize_4-target.png,1000,1.68375,1.0,3692,1011,meters,jsons/v1_VE1000_randls_65.json,897811,1335540,69,Man
153,215522,DepthScenes,duration_manipulation_targetAtFixation,jsons/v1_VE1000_randls_65.json,http://54.235.29.9/FacialAge/BNav_EC2/DepthDuration/v2_depth_duration_MTurk/v2_DepthDuration_HTML.html#351,351,1536,746,1536,864,8-30-2022,8-57-9,154,depth_duration_stimuli/002209_2014-06-28_18-36-10_260595134347_rgbf000051-resize_1/002209_2014-06-28_18-36-10_260595134347_rgbf000051-resize_1-target.png,1000,2.057,1.5,6846,991,meters,jsons/v1_VE1000_randls_65.json,897811,1335540,69,Man
154,215522,DepthScenes,duration_manipulation_targetAtFixation,jsons/v1_VE1000_randls_65.json,http://54.235.29.9/FacialAge/BNav_EC2/DepthDuration/v2_depth_duration_MTurk/v2_DepthDuration_HTML.html#351,351,1536,746,1536,864,8-30-2022,8-57-9,155,depth_duration_stimuli/002725_2014-06-22_11-47-51_094959634447_rgbf000070-resize_1/002725_2014-06-22_11-47-51_094959634447_rgbf000070-resize_1-target.png,1000,2.195,2.5,6296,991,meters,jsons/v1_VE1000_randls_65.json,897811,1335540,69,Man
155,215522,DepthScenes,duration_manipulation_targetAtFixation,jsons/v1_VE1000_randls_65.json,http://54.235.29.9/FacialAge/BNav_EC2/DepthDuration/v2_depth_duration_MTurk/v2_DepthDuration_HTML.html#351,351,1536,746,1536,864,8-30-2022,8-57-9,156,depth_duration_stimuli/002344_2014-06-28_20-06-29_260595134347_rgbf000030-resize_1/002344_2014-06-28_20-06-29_260595134347_rgbf000030-resize_1-target.png,1000,1.5795,2.5,6629,993,meters,jsons/v1_VE1000_randls_65.json,897811,1335540,69,Man
156,215522,DepthScenes,duration_manipulation_targetAtFixation,jsons/v1_VE1000_randls_65.json,http://54.235.29.9/FacialAge/BNav_EC2/DepthDuration/v2_depth_duration_MTurk/v2_DepthDuration_HTML.html#351,351,1536,746,1536,864,8-30-2022,8-57-9,157,depth_duration_stimuli/000682_2014-06-08_23-14-58_260595134347_rgbf000041-resize_5/000682_2014-06-08_23-14-58_260595134347_rgbf000041-resize_5-target.png,1000,2.7239999999999998,3.0,3541,1003,meters,jsons/v1_VE1000_randls_65.json,897811,1335540,69,Man
157,215522,DepthScenes,duration_manipulation_targetAtFixation,jsons/v1_VE1000_randls_65.json,http://54.235.29.9/FacialAge/BNav_EC2/DepthDuration/v2_depth_duration_MTurk/v2_DepthDuration_HTML.html#351,351,1536,746,1536,864,8-30-2022,8-57-9,158,depth_duration_stimuli/001650_2014-06-20_12-09-00_260595134347_rgbf000087-resize_3/001650_2014-06-20_12-09-00_260595134347_rgbf000087-resize_3-target.png,1000,1.9505,2.0,3782,996,meters,jsons/v1_VE1000_randls_65.json,897811,1335540,69,Man
158,215522,DepthScenes,duration_manipulation_targetAtFixation,jsons/v1_VE1000_randls_65.json,http://54.235.29.9/FacialAge/BNav_EC2/DepthDuration/v2_depth_duration_MTurk/v2_DepthDuration_HTML.html#351,351,1536,746,1536,864,8-30-2022,8-57-9,159,depth_duration_stimuli/000522_2014-06-08_13-35-06_260595134347_rgbf000244-resize_1/000522_2014-06-08_13-35-06_260595134347_rgbf000244-resize_1-target.png,1000,2.3715,3.5,6581,1002,meters,jsons/v1_VE1000_randls_65.json,897811,1335540,69,Man
159,215522,DepthScenes,duration_manipulation_targetAtFixation,jsons/v1_VE1000_randls_65.json,http://54.235.29.9/FacialAge/BNav_EC2/DepthDuration/v2_depth_duration_MTurk/v2_DepthDuration_HTML.html#351,351,1536,746,1536,864,8-30-2022,8-57-9,160,depth_duration_stimuli/002949_2014-06-26_15-57-42_094959634447_rgbf000079-resize_1/002949_2014-06-26_15-57-42_094959634447_rgbf000079-resize_1-target.png,1000,1.8915,1.0,3678,988,meters,jsons/v1_VE1000_randls_65.json,897811,1335540,69,Man
160,215522,DepthScenes,duration_manipulation_targetAtFixation,jsons/v1_VE1000_randls_65.json,http://54.235.29.9/FacialAge/BNav_EC2/DepthDuration/v2_depth_duration_MTurk/v2_DepthDuration_HTML.html#351,351,1536,746,1536,864,8-30-2022,8-57-9,161,depth_duration_stimuli/002375_2014-06-28_20-13-44_260595134347_rgbf000032-resize_1/002375_2014-06-28_20-13-44_260595134347_rgbf000032-resize_1-target.png,1000,4.0175,2.0,3580,999,meters,jsons/v1_VE1000_randls_65.json,897811,1335540,69,Man
161,215522,DepthScenes,duration_manipulation_targetAtFixation,jsons/v1_VE1000_randls_65.json,http://54.235.29.9/FacialAge/BNav_EC2/DepthDuration/v2_depth_duration_MTurk/v2_DepthDuration_HTML.html#351,351,1536,746,1536,864,8-30-2022,8-57-9,162,depth_duration_stimuli/002657_2014-06-13_15-29-54_094959634447_rgbf000150-resize_1/002657_2014-06-13_15-29-54_094959634447_rgbf000150-resize_1-target.png,1000,4.919,2.0,3232,996,meters,jsons/v1_VE1000_randls_65.json,897811,1335540,69,Man
162,215522,DepthScenes,duration_manipulation_targetAtFixation,jsons/v1_VE1000_randls_65.json,http://54.235.29.9/FacialAge/BNav_EC2/DepthDuration/v2_depth_duration_MTurk/v2_DepthDuration_HTML.html#351,351,1536,746,1536,864,8-30-2022,8-57-9,163,depth_duration_stimuli/003492_2014-05-21_15-50-55_094959634447_rgbf000828-resize_1/003492_2014-05-21_15-50-55_094959634447_rgbf000828-resize_1-target.png,1000,4.06875,2.0,3831,998,meters,jsons/v1_VE1000_randls_65.json,897811,1335540,69,Man
163,215522,DepthScenes,duration_manipulation_targetAtFixation,jsons/v1_VE1000_randls_65.json,http://54.235.29.9/FacialAge/BNav_EC2/DepthDuration/v2_depth_duration_MTurk/v2_DepthDuration_HTML.html#351,351,1536,746,1536,864,8-30-2022,8-57-9,164,depth_duration_stimuli/002568_2014-06-24_13-59-21_094959634447_rgbf000062-resize_4/002568_2014-06-24_13-59-21_094959634447_rgbf000062-resize_4-target.png,1000,3.015,3.0,4939,994,meters,jsons/v1_VE1000_randls_65.json,897811,1335540,69,Man
