,subjID,experimentName,versionName,sequenceName,url,selected_row,windowWidth,windowHeight,screenWidth,screenHeight,startDate,startTime,trial,stimulus,duration,actual_depth,depth_estimate,trial_RT,log_sceneDuration,unitSelection,seq_filepath,experimentTime,totalTime,age,gender
0,216496,DepthScenes,duration_manipulation_targetAtFixation,jsons/v1_VE250_randls_14_rotated.json,http://54.235.29.9/FacialAge/BNav_EC2/DepthDuration/v2_depth_duration_MTurk/v2_DepthDuration_HTML.html#115,115,1280,629,1920,1080,8-29-2022,11-29-10,1,depth_duration_stimuli/002340_2014-06-28_20-05-46_260595134347_rgbf000113-resize_0/002340_2014-06-28_20-05-46_260595134347_rgbf000113-resize_0-target.png,250,2.4735,3,3532,249,feet,jsons/v1_VE250_randls_14_rotated.json,463207,821100,32,Woman
1,216496,DepthScenes,duration_manipulation_targetAtFixation,jsons/v1_VE250_randls_14_rotated.json,http://54.235.29.9/FacialAge/BNav_EC2/DepthDuration/v2_depth_duration_MTurk/v2_DepthDuration_HTML.html#115,115,1280,629,1920,1080,8-29-2022,11-29-10,2,depth_duration_stimuli/001016_2014-06-09_16-16-10_260595134347_rgbf000112-resize_5/001016_2014-06-09_16-16-10_260595134347_rgbf000112-resize_5-target.png,250,1.6565,2,1938,253,feet,jsons/v1_VE250_randls_14_rotated.json,463207,821100,32,Woman
2,216496,DepthScenes,duration_manipulation_targetAtFixation,jsons/v1_VE250_randls_14_rotated.json,http://54.235.29.9/FacialAge/BNav_EC2/DepthDuration/v2_depth_duration_MTurk/v2_DepthDuration_HTML.html#115,115,1280,629,1920,1080,8-29-2022,11-29-10,3,depth_duration_stimuli/001447_2014-06-19_17-00-32_260595134347_rgbf000082-resize_5/001447_2014-06-19_17-00-32_260595134347_rgbf000082-resize_5-target.png,250,4.13775,0,3100,254,feet,jsons/v1_VE250_randls_14_rotated.json,463207,821100,32,Woman
3,216496,DepthScenes,duration_manipulation_targetAtFixation,jsons/v1_VE250_randls_14_rotated.json,http://54.235.29.9/FacialAge/BNav_EC2/DepthDuration/v2_depth_duration_MTurk/v2_DepthDuration_HTML.html#115,115,1280,629,1920,1080,8-29-2022,11-29-10,4,depth_duration_stimuli/000447_2014-06-08_16-15-46_260595134347_rgbf000130-resize_1/000447_2014-06-08_16-15-46_260595134347_rgbf000130-resize_1-target.png,250,4.479,4,2281,248,feet,jsons/v1_VE250_randls_14_rotated.json,463207,821100,32,Woman
4,216496,DepthScenes,duration_manipulation_targetAtFixation,jsons/v1_VE250_randls_14_rotated.json,http://54.235.29.9/FacialAge/BNav_EC2/DepthDuration/v2_depth_duration_MTurk/v2_DepthDuration_HTML.html#115,115,1280,629,1920,1080,8-29-2022,11-29-10,5,depth_duration_stimuli/002344_2014-06-28_20-06-29_260595134347_rgbf000030-resize_1/002344_2014-06-28_20-06-29_260595134347_rgbf000030-resize_1-target.png,250,1.5795,1,2176,249,feet,jsons/v1_VE250_randls_14_rotated.json,463207,821100,32,Woman
5,216496,DepthScenes,duration_manipulation_targetAtFixation,jsons/v1_VE250_randls_14_rotated.json,http://54.235.29.9/FacialAge/BNav_EC2/DepthDuration/v2_depth_duration_MTurk/v2_DepthDuration_HTML.html#115,115,1280,629,1920,1080,8-29-2022,11-29-10,6,depth_duration_stimuli/002725_2014-06-22_11-47-51_094959634447_rgbf000070-resize_1/002725_2014-06-22_11-47-51_094959634447_rgbf000070-resize_1-target.png,250,2.195,2,2231,249,feet,jsons/v1_VE250_randls_14_rotated.json,463207,821100,32,Woman
6,216496,DepthScenes,duration_manipulation_targetAtFixation,jsons/v1_VE250_randls_14_rotated.json,http://54.235.29.9/FacialAge/BNav_EC2/DepthDuration/v2_depth_duration_MTurk/v2_DepthDuration_HTML.html#115,115,1280,629,1920,1080,8-29-2022,11-29-10,7,depth_duration_stimuli/001516_2014-06-20_16-25-09_260595134347_rgbf000076-resize_2/001516_2014-06-20_16-25-09_260595134347_rgbf000076-resize_2-target.png,250,1.7445,3,3198,249,feet,jsons/v1_VE250_randls_14_rotated.json,463207,821100,32,Woman
7,216496,DepthScenes,duration_manipulation_targetAtFixation,jsons/v1_VE250_randls_14_rotated.json,http://54.235.29.9/FacialAge/BNav_EC2/DepthDuration/v2_depth_duration_MTurk/v2_DepthDuration_HTML.html#115,115,1280,629,1920,1080,8-29-2022,11-29-10,8,depth_duration_stimuli/002118_2014-06-25_20-32-08_260595134347_rgbf000078-resize_1/002118_2014-06-25_20-32-08_260595134347_rgbf000078-resize_1-target.png,250,2.6460000000000004,4,2263,246,feet,jsons/v1_VE250_randls_14_rotated.json,463207,821100,32,Woman
8,216496,DepthScenes,duration_manipulation_targetAtFixation,jsons/v1_VE250_randls_14_rotated.json,http://54.235.29.9/FacialAge/BNav_EC2/DepthDuration/v2_depth_duration_MTurk/v2_DepthDuration_HTML.html#115,115,1280,629,1920,1080,8-29-2022,11-29-10,9,depth_duration_stimuli/002467_2014-06-28_20-38-07_260595134347_rgbf000026-resize_2/002467_2014-06-28_20-38-07_260595134347_rgbf000026-resize_2-target.png,250,4.742,5,1915,250,feet,jsons/v1_VE250_randls_14_rotated.json,463207,821100,32,Woman
9,216496,DepthScenes,duration_manipulation_targetAtFixation,jsons/v1_VE250_randls_14_rotated.json,http://54.235.29.9/FacialAge/BNav_EC2/DepthDuration/v2_depth_duration_MTurk/v2_DepthDuration_HTML.html#115,115,1280,629,1920,1080,8-29-2022,11-29-10,10,depth_duration_stimuli/002570_2014-06-24_13-59-54_094959634447_rgbf000059-resize_0/002570_2014-06-24_13-59-54_094959634447_rgbf000059-resize_0-target.png,250,4.037,5,2686,249,feet,jsons/v1_VE250_randls_14_rotated.json,463207,821100,32,Woman
10,216496,DepthScenes,duration_manipulation_targetAtFixation,jsons/v1_VE250_randls_14_rotated.json,http://54.235.29.9/FacialAge/BNav_EC2/DepthDuration/v2_depth_duration_MTurk/v2_DepthDuration_HTML.html#115,115,1280,629,1920,1080,8-29-2022,11-29-10,11,depth_duration_stimuli/000742_2014-06-08_18-48-09_260595134347_rgbf000164-resize_4/000742_2014-06-08_18-48-09_260595134347_rgbf000164-resize_4-target.png,250,4.632,6,1785,249,feet,jsons/v1_VE250_randls_14_rotated.json,463207,821100,32,Woman
11,216496,DepthScenes,duration_manipulation_targetAtFixation,jsons/v1_VE250_randls_14_rotated.json,http://54.235.29.9/FacialAge/BNav_EC2/DepthDuration/v2_depth_duration_MTurk/v2_DepthDuration_HTML.html#115,115,1280,629,1920,1080,8-29-2022,11-29-10,12,depth_duration_stimuli/001066_2014-06-08_22-03-20_260595134347_rgbf000066-resize_4/001066_2014-06-08_22-03-20_260595134347_rgbf000066-resize_4-target.png,250,4.2330000000000005,6,2341,249,feet,jsons/v1_VE250_randls_14_rotated.json,463207,821100,32,Woman
12,216496,DepthScenes,duration_manipulation_targetAtFixation,jsons/v1_VE250_randls_14_rotated.json,http://54.235.29.9/FacialAge/BNav_EC2/DepthDuration/v2_depth_duration_MTurk/v2_DepthDuration_HTML.html#115,115,1280,629,1920,1080,8-29-2022,11-29-10,13,depth_duration_stimuli/003083_2014-06-15_15-21-03_094959634447_rgbf000063-resize_1/003083_2014-06-15_15-21-03_094959634447_rgbf000063-resize_1-target.png,250,4.1405,7,2370,252,feet,jsons/v1_VE250_randls_14_rotated.json,463207,821100,32,Woman
13,216496,DepthScenes,duration_manipulation_targetAtFixation,jsons/v1_VE250_randls_14_rotated.json,http://54.235.29.9/FacialAge/BNav_EC2/DepthDuration/v2_depth_duration_MTurk/v2_DepthDuration_HTML.html#115,115,1280,629,1920,1080,8-29-2022,11-29-10,14,depth_duration_stimuli/000486_2014-06-09_20-47-20_260595134347_rgbf000143-resize_2/000486_2014-06-09_20-47-20_260595134347_rgbf000143-resize_2-target.png,250,4.8325,3,2203,249,feet,jsons/v1_VE250_randls_14_rotated.json,463207,821100,32,Woman
14,216496,DepthScenes,duration_manipulation_targetAtFixation,jsons/v1_VE250_randls_14_rotated.json,http://54.235.29.9/FacialAge/BNav_EC2/DepthDuration/v2_depth_duration_MTurk/v2_DepthDuration_HTML.html#115,115,1280,629,1920,1080,8-29-2022,11-29-10,15,depth_duration_stimuli/000483_2014-06-09_20-41-45_260595134347_rgbf000116-resize_4/000483_2014-06-09_20-41-45_260595134347_rgbf000116-resize_4-target.png,250,1.337,2,1685,249,feet,jsons/v1_VE250_randls_14_rotated.json,463207,821100,32,Woman
15,216496,DepthScenes,duration_manipulation_targetAtFixation,jsons/v1_VE250_randls_14_rotated.json,http://54.235.29.9/FacialAge/BNav_EC2/DepthDuration/v2_depth_duration_MTurk/v2_DepthDuration_HTML.html#115,115,1280,629,1920,1080,8-29-2022,11-29-10,16,depth_duration_stimuli/000469_2014-06-09_19-42-10_260595134347_rgbf000081-resize_1/000469_2014-06-09_19-42-10_260595134347_rgbf000081-resize_1-target.png,250,1.652,1,1726,247,feet,jsons/v1_VE250_randls_14_rotated.json,463207,821100,32,Woman
16,216496,DepthScenes,duration_manipulation_targetAtFixation,jsons/v1_VE250_randls_14_rotated.json,http://54.235.29.9/FacialAge/BNav_EC2/DepthDuration/v2_depth_duration_MTurk/v2_DepthDuration_HTML.html#115,115,1280,629,1920,1080,8-29-2022,11-29-10,17,depth_duration_stimuli/001235_2014-06-17_16-37-36_260595134347_rgbf000084-resize_4/001235_2014-06-17_16-37-36_260595134347_rgbf000084-resize_4-target.png,250,3.6605,3,1703,250,feet,jsons/v1_VE250_randls_14_rotated.json,463207,821100,32,Woman
17,216496,DepthScenes,duration_manipulation_targetAtFixation,jsons/v1_VE250_randls_14_rotated.json,http://54.235.29.9/FacialAge/BNav_EC2/DepthDuration/v2_depth_duration_MTurk/v2_DepthDuration_HTML.html#115,115,1280,629,1920,1080,8-29-2022,11-29-10,18,depth_duration_stimuli/000788_2014-06-08_22-34-36_260595134347_rgbf000131-resize_1/000788_2014-06-08_22-34-36_260595134347_rgbf000131-resize_1-target.png,250,3.359,3,2337,253,feet,jsons/v1_VE250_randls_14_rotated.json,463207,821100,32,Woman
18,216496,DepthScenes,duration_manipulation_targetAtFixation,jsons/v1_VE250_randls_14_rotated.json,http://54.235.29.9/FacialAge/BNav_EC2/DepthDuration/v2_depth_duration_MTurk/v2_DepthDuration_HTML.html#115,115,1280,629,1920,1080,8-29-2022,11-29-10,19,depth_duration_stimuli/001498_2014-06-19_17-45-14_260595134347_rgbf000129-resize_4/001498_2014-06-19_17-45-14_260595134347_rgbf000129-resize-original.jpg,250,1.4075,0,2292,248,feet,jsons/v1_VE250_randls_14_rotated.json,463207,821100,32,Woman
19,216496,DepthScenes,duration_manipulation_targetAtFixation,jsons/v1_VE250_randls_14_rotated.json,http://54.235.29.9/FacialAge/BNav_EC2/DepthDuration/v2_depth_duration_MTurk/v2_DepthDuration_HTML.html#115,115,1280,629,1920,1080,8-29-2022,11-29-10,20,depth_duration_stimuli/002750_2014-06-22_19-08-03_094959634447_rgbf000094-resize_4/002750_2014-06-22_19-08-03_094959634447_rgbf000094-resize_4-target.png,250,2.354,2,1770,248,feet,jsons/v1_VE250_randls_14_rotated.json,463207,821100,32,Woman
20,216496,DepthScenes,duration_manipulation_targetAtFixation,jsons/v1_VE250_randls_14_rotated.json,http://54.235.29.9/FacialAge/BNav_EC2/DepthDuration/v2_depth_duration_MTurk/v2_DepthDuration_HTML.html#115,115,1280,629,1920,1080,8-29-2022,11-29-10,21,depth_duration_stimuli/002549_2014-06-24_13-41-39_094959634447_rgbf000022-resize_3/002549_2014-06-24_13-41-39_094959634447_rgbf000022-resize_3-target.png,250,1.476,2,1690,253,feet,jsons/v1_VE250_randls_14_rotated.json,463207,821100,32,Woman
21,216496,DepthScenes,duration_manipulation_targetAtFixation,jsons/v1_VE250_randls_14_rotated.json,http://54.235.29.9/FacialAge/BNav_EC2/DepthDuration/v2_depth_duration_MTurk/v2_DepthDuration_HTML.html#115,115,1280,629,1920,1080,8-29-2022,11-29-10,22,depth_duration_stimuli/001815_2014-06-26_20-52-55_260595134347_rgbf000020-resize_0/001815_2014-06-26_20-52-55_260595134347_rgbf000020-resize_0-target.png,250,3.3865,3,1865,250,feet,jsons/v1_VE250_randls_14_rotated.json,463207,821100,32,Woman
22,216496,DepthScenes,duration_manipulation_targetAtFixation,jsons/v1_VE250_randls_14_rotated.json,http://54.235.29.9/FacialAge/BNav_EC2/DepthDuration/v2_depth_duration_MTurk/v2_DepthDuration_HTML.html#115,115,1280,629,1920,1080,8-29-2022,11-29-10,23,depth_duration_stimuli/001808_2014-06-26_20-50-58_260595134347_rgbf000029-resize_1/001808_2014-06-26_20-50-58_260595134347_rgbf000029-resize_1-target.png,250,4.249,4,1686,249,feet,jsons/v1_VE250_randls_14_rotated.json,463207,821100,32,Woman
23,216496,DepthScenes,duration_manipulation_targetAtFixation,jsons/v1_VE250_randls_14_rotated.json,http://54.235.29.9/FacialAge/BNav_EC2/DepthDuration/v2_depth_duration_MTurk/v2_DepthDuration_HTML.html#115,115,1280,629,1920,1080,8-29-2022,11-29-10,24,depth_duration_stimuli/000191_2014-05-12_17-07-38_260595134347_rgbf000199-resize_0/000191_2014-05-12_17-07-38_260595134347_rgbf000199-resize_0-target.png,250,3.7995,4,1733,248,feet,jsons/v1_VE250_randls_14_rotated.json,463207,821100,32,Woman
24,216496,DepthScenes,duration_manipulation_targetAtFixation,jsons/v1_VE250_randls_14_rotated.json,http://54.235.29.9/FacialAge/BNav_EC2/DepthDuration/v2_depth_duration_MTurk/v2_DepthDuration_HTML.html#115,115,1280,629,1920,1080,8-29-2022,11-29-10,25,depth_duration_stimuli/000493_2014-06-09_21-01-18_260595134347_rgbf000196-resize_3/000493_2014-06-09_21-01-18_260595134347_rgbf000196-resize_3-target.png,250,3.44,4,1690,251,feet,jsons/v1_VE250_randls_14_rotated.json,463207,821100,32,Woman
25,216496,DepthScenes,duration_manipulation_targetAtFixation,jsons/v1_VE250_randls_14_rotated.json,http://54.235.29.9/FacialAge/BNav_EC2/DepthDuration/v2_depth_duration_MTurk/v2_DepthDuration_HTML.html#115,115,1280,629,1920,1080,8-29-2022,11-29-10,26,depth_duration_stimuli/002995_2014-06-15_12-31-26_094959634447_rgbf000150-resize_1/002995_2014-06-15_12-31-26_094959634447_rgbf000150-resize_1-target.png,250,3.8360000000000003,5,3521,248,feet,jsons/v1_VE250_randls_14_rotated.json,463207,821100,32,Woman
26,216496,DepthScenes,duration_manipulation_targetAtFixation,jsons/v1_VE250_randls_14_rotated.json,http://54.235.29.9/FacialAge/BNav_EC2/DepthDuration/v2_depth_duration_MTurk/v2_DepthDuration_HTML.html#115,115,1280,629,1920,1080,8-29-2022,11-29-10,27,depth_duration_stimuli/002748_2014-06-22_19-07-22_094959634447_rgbf000078-resize_1/002748_2014-06-22_19-07-22_094959634447_rgbf000078-resize_1-target.png,250,4.6705,6,2078,254,feet,jsons/v1_VE250_randls_14_rotated.json,463207,821100,32,Woman
27,216496,DepthScenes,duration_manipulation_targetAtFixation,jsons/v1_VE250_randls_14_rotated.json,http://54.235.29.9/FacialAge/BNav_EC2/DepthDuration/v2_depth_duration_MTurk/v2_DepthDuration_HTML.html#115,115,1280,629,1920,1080,8-29-2022,11-29-10,28,depth_duration_stimuli/000549_2014-06-08_22-10-24_260595134347_rgbf000247-resize_3/000549_2014-06-08_22-10-24_260595134347_rgbf000247-resize_3-target.png,250,1.841,2,1831,253,feet,jsons/v1_VE250_randls_14_rotated.json,463207,821100,32,Woman
28,216496,DepthScenes,duration_manipulation_targetAtFixation,jsons/v1_VE250_randls_14_rotated.json,http://54.235.29.9/FacialAge/BNav_EC2/DepthDuration/v2_depth_duration_MTurk/v2_DepthDuration_HTML.html#115,115,1280,629,1920,1080,8-29-2022,11-29-10,29,depth_duration_stimuli/001055_2014-06-08_18-45-35_260595134347_rgbf000111-resize_4/001055_2014-06-08_18-45-35_260595134347_rgbf000111-resize_4-target.png,250,2.4290000000000003,3,1986,252,feet,jsons/v1_VE250_randls_14_rotated.json,463207,821100,32,Woman
29,216496,DepthScenes,duration_manipulation_targetAtFixation,jsons/v1_VE250_randls_14_rotated.json,http://54.235.29.9/FacialAge/BNav_EC2/DepthDuration/v2_depth_duration_MTurk/v2_DepthDuration_HTML.html#115,115,1280,629,1920,1080,8-29-2022,11-29-10,30,depth_duration_stimuli/002072_2014-06-24_21-48-06_260595134347_rgbf000115-resize_0/002072_2014-06-24_21-48-06_260595134347_rgbf000115-resize-original.jpg,250,4.702,0,1816,245,feet,jsons/v1_VE250_randls_14_rotated.json,463207,821100,32,Woman
30,216496,DepthScenes,duration_manipulation_targetAtFixation,jsons/v1_VE250_randls_14_rotated.json,http://54.235.29.9/FacialAge/BNav_EC2/DepthDuration/v2_depth_duration_MTurk/v2_DepthDuration_HTML.html#115,115,1280,629,1920,1080,8-29-2022,11-29-10,31,depth_duration_stimuli/003010_2014-06-15_12-54-35_094959634447_rgbf000112-resize_0/003010_2014-06-15_12-54-35_094959634447_rgbf000112-resize_0-target.png,250,3.1185,5,2130,254,feet,jsons/v1_VE250_randls_14_rotated.json,463207,821100,32,Woman
31,216496,DepthScenes,duration_manipulation_targetAtFixation,jsons/v1_VE250_randls_14_rotated.json,http://54.235.29.9/FacialAge/BNav_EC2/DepthDuration/v2_depth_duration_MTurk/v2_DepthDuration_HTML.html#115,115,1280,629,1920,1080,8-29-2022,11-29-10,32,depth_duration_stimuli/001810_2014-06-26_20-51-35_260595134347_rgbf000040-resize_3/001810_2014-06-26_20-51-35_260595134347_rgbf000040-resize_3-target.png,250,2.2525,2,1560,251,feet,jsons/v1_VE250_randls_14_rotated.json,463207,821100,32,Woman
32,216496,DepthScenes,duration_manipulation_targetAtFixation,jsons/v1_VE250_randls_14_rotated.json,http://54.235.29.9/FacialAge/BNav_EC2/DepthDuration/v2_depth_duration_MTurk/v2_DepthDuration_HTML.html#115,115,1280,629,1920,1080,8-29-2022,11-29-10,33,depth_duration_stimuli/002425_2014-06-28_20-27-29_260595134347_rgbf000031-resize_8/002425_2014-06-28_20-27-29_260595134347_rgbf000031-resize_8-target.png,250,3.8960000000000004,4,2583,246,feet,jsons/v1_VE250_randls_14_rotated.json,463207,821100,32,Woman
33,216496,DepthScenes,duration_manipulation_targetAtFixation,jsons/v1_VE250_randls_14_rotated.json,http://54.235.29.9/FacialAge/BNav_EC2/DepthDuration/v2_depth_duration_MTurk/v2_DepthDuration_HTML.html#115,115,1280,629,1920,1080,8-29-2022,11-29-10,34,depth_duration_stimuli/000642_2014-06-08_16-59-25_260595134347_rgbf000098-resize_2/000642_2014-06-08_16-59-25_260595134347_rgbf000098-resize_2-target.png,250,2.8815,2,1823,251,feet,jsons/v1_VE250_randls_14_rotated.json,463207,821100,32,Woman
34,216496,DepthScenes,duration_manipulation_targetAtFixation,jsons/v1_VE250_randls_14_rotated.json,http://54.235.29.9/FacialAge/BNav_EC2/DepthDuration/v2_depth_duration_MTurk/v2_DepthDuration_HTML.html#115,115,1280,629,1920,1080,8-29-2022,11-29-10,35,depth_duration_stimuli/002568_2014-06-24_13-59-21_094959634447_rgbf000062-resize_4/002568_2014-06-24_13-59-21_094959634447_rgbf000062-resize_4-target.png,250,3.015,3,2215,251,feet,jsons/v1_VE250_randls_14_rotated.json,463207,821100,32,Woman
35,216496,DepthScenes,duration_manipulation_targetAtFixation,jsons/v1_VE250_randls_14_rotated.json,http://54.235.29.9/FacialAge/BNav_EC2/DepthDuration/v2_depth_duration_MTurk/v2_DepthDuration_HTML.html#115,115,1280,629,1920,1080,8-29-2022,11-29-10,36,depth_duration_stimuli/003492_2014-05-21_15-50-55_094959634447_rgbf000828-resize_1/003492_2014-05-21_15-50-55_094959634447_rgbf000828-resize_1-target.png,250,4.06875,5,2529,247,feet,jsons/v1_VE250_randls_14_rotated.json,463207,821100,32,Woman
36,216496,DepthScenes,duration_manipulation_targetAtFixation,jsons/v1_VE250_randls_14_rotated.json,http://54.235.29.9/FacialAge/BNav_EC2/DepthDuration/v2_depth_duration_MTurk/v2_DepthDuration_HTML.html#115,115,1280,629,1920,1080,8-29-2022,11-29-10,37,depth_duration_stimuli/002103_2014-06-25_20-00-40_260595134347_rgbf000049-resize_0/002103_2014-06-25_20-00-40_260595134347_rgbf000049-resize_0-target.png,250,4.105,4,1887,245,feet,jsons/v1_VE250_randls_14_rotated.json,463207,821100,32,Woman
37,216496,DepthScenes,duration_manipulation_targetAtFixation,jsons/v1_VE250_randls_14_rotated.json,http://54.235.29.9/FacialAge/BNav_EC2/DepthDuration/v2_depth_duration_MTurk/v2_DepthDuration_HTML.html#115,115,1280,629,1920,1080,8-29-2022,11-29-10,38,depth_duration_stimuli/002039_2014-06-24_20-22-38_260595134347_rgbf000084-resize_1/002039_2014-06-24_20-22-38_260595134347_rgbf000084-resize_1-target.png,250,4.408,6,2353,250,feet,jsons/v1_VE250_randls_14_rotated.json,463207,821100,32,Woman
38,216496,DepthScenes,duration_manipulation_targetAtFixation,jsons/v1_VE250_randls_14_rotated.json,http://54.235.29.9/FacialAge/BNav_EC2/DepthDuration/v2_depth_duration_MTurk/v2_DepthDuration_HTML.html#115,115,1280,629,1920,1080,8-29-2022,11-29-10,39,depth_duration_stimuli/001214_2014-06-17_16-13-55_260595134347_rgbf000111-resize_0/001214_2014-06-17_16-13-55_260595134347_rgbf000111-resize_0-target.png,250,2.6505,4,2898,245,feet,jsons/v1_VE250_randls_14_rotated.json,463207,821100,32,Woman
39,216496,DepthScenes,duration_manipulation_targetAtFixation,jsons/v1_VE250_randls_14_rotated.json,http://54.235.29.9/FacialAge/BNav_EC2/DepthDuration/v2_depth_duration_MTurk/v2_DepthDuration_HTML.html#115,115,1280,629,1920,1080,8-29-2022,11-29-10,40,depth_duration_stimuli/000810_2014-06-08_17-20-01_260595134347_rgbf000105-resize_0/000810_2014-06-08_17-20-01_260595134347_rgbf000105-resize_0-target.png,250,1.4865,3,2061,246,feet,jsons/v1_VE250_randls_14_rotated.json,463207,821100,32,Woman
40,216496,DepthScenes,duration_manipulation_targetAtFixation,jsons/v1_VE250_randls_14_rotated.json,http://54.235.29.9/FacialAge/BNav_EC2/DepthDuration/v2_depth_duration_MTurk/v2_DepthDuration_HTML.html#115,115,1280,629,1920,1080,8-29-2022,11-29-10,41,depth_duration_stimuli/000780_2014-06-08_22-28-29_260595134347_rgbf000126-resize_1/000780_2014-06-08_22-28-29_260595134347_rgbf000126-resize_1-target.png,250,3.3825,5,1929,252,feet,jsons/v1_VE250_randls_14_rotated.json,463207,821100,32,Woman
41,216496,DepthScenes,duration_manipulation_targetAtFixation,jsons/v1_VE250_randls_14_rotated.json,http://54.235.29.9/FacialAge/BNav_EC2/DepthDuration/v2_depth_duration_MTurk/v2_DepthDuration_HTML.html#115,115,1280,629,1920,1080,8-29-2022,11-29-10,42,depth_duration_stimuli/002445_2014-06-28_20-32-16_260595134347_rgbf000029-resize_4/002445_2014-06-28_20-32-16_260595134347_rgbf000029-resize_4-target.png,250,2.5315,3,1759,247,feet,jsons/v1_VE250_randls_14_rotated.json,463207,821100,32,Woman
42,216496,DepthScenes,duration_manipulation_targetAtFixation,jsons/v1_VE250_randls_14_rotated.json,http://54.235.29.9/FacialAge/BNav_EC2/DepthDuration/v2_depth_duration_MTurk/v2_DepthDuration_HTML.html#115,115,1280,629,1920,1080,8-29-2022,11-29-10,43,depth_duration_stimuli/001617_2014-06-20_11-35-32_260595134347_rgbf000066-resize_1/001617_2014-06-20_11-35-32_260595134347_rgbf000066-resize_1-target.png,250,3.7910000000000004,4,2335,250,feet,jsons/v1_VE250_randls_14_rotated.json,463207,821100,32,Woman
43,216496,DepthScenes,duration_manipulation_targetAtFixation,jsons/v1_VE250_randls_14_rotated.json,http://54.235.29.9/FacialAge/BNav_EC2/DepthDuration/v2_depth_duration_MTurk/v2_DepthDuration_HTML.html#115,115,1280,629,1920,1080,8-29-2022,11-29-10,44,depth_duration_stimuli/001806_2014-06-26_20-50-20_260595134347_rgbf000091-resize_1/001806_2014-06-26_20-50-20_260595134347_rgbf000091-resize_1-target.png,250,2.7305,5,2198,250,feet,jsons/v1_VE250_randls_14_rotated.json,463207,821100,32,Woman
44,216496,DepthScenes,duration_manipulation_targetAtFixation,jsons/v1_VE250_randls_14_rotated.json,http://54.235.29.9/FacialAge/BNav_EC2/DepthDuration/v2_depth_duration_MTurk/v2_DepthDuration_HTML.html#115,115,1280,629,1920,1080,8-29-2022,11-29-10,45,depth_duration_stimuli/003081_2014-06-15_15-19-16_094959634447_rgbf000150-resize_1/003081_2014-06-15_15-19-16_094959634447_rgbf000150-resize_1-target.png,250,3.9125,7,1820,253,feet,jsons/v1_VE250_randls_14_rotated.json,463207,821100,32,Woman
45,216496,DepthScenes,duration_manipulation_targetAtFixation,jsons/v1_VE250_randls_14_rotated.json,http://54.235.29.9/FacialAge/BNav_EC2/DepthDuration/v2_depth_duration_MTurk/v2_DepthDuration_HTML.html#115,115,1280,629,1920,1080,8-29-2022,11-29-10,46,depth_duration_stimuli/001417_2014-06-19_16-25-36_260595134347_rgbf000115-resize_5/001417_2014-06-19_16-25-36_260595134347_rgbf000115-resize_5-target.png,250,4.6255,7,1570,250,feet,jsons/v1_VE250_randls_14_rotated.json,463207,821100,32,Woman
46,216496,DepthScenes,duration_manipulation_targetAtFixation,jsons/v1_VE250_randls_14_rotated.json,http://54.235.29.9/FacialAge/BNav_EC2/DepthDuration/v2_depth_duration_MTurk/v2_DepthDuration_HTML.html#115,115,1280,629,1920,1080,8-29-2022,11-29-10,47,depth_duration_stimuli/003587_2014-05-23_16-48-02_094959634447_rgbf002384-resize_2/003587_2014-05-23_16-48-02_094959634447_rgbf002384-resize_2-target.png,250,1.357,2,2473,251,feet,jsons/v1_VE250_randls_14_rotated.json,463207,821100,32,Woman
47,216496,DepthScenes,duration_manipulation_targetAtFixation,jsons/v1_VE250_randls_14_rotated.json,http://54.235.29.9/FacialAge/BNav_EC2/DepthDuration/v2_depth_duration_MTurk/v2_DepthDuration_HTML.html#115,115,1280,629,1920,1080,8-29-2022,11-29-10,48,depth_duration_stimuli/001167_2014-06-17_15-38-07_260595134347_rgbf000108-resize_0/001167_2014-06-17_15-38-07_260595134347_rgbf000108-resize_0-target.png,250,1.8505,2,1697,253,feet,jsons/v1_VE250_randls_14_rotated.json,463207,821100,32,Woman
48,216496,DepthScenes,duration_manipulation_targetAtFixation,jsons/v1_VE250_randls_14_rotated.json,http://54.235.29.9/FacialAge/BNav_EC2/DepthDuration/v2_depth_duration_MTurk/v2_DepthDuration_HTML.html#115,115,1280,629,1920,1080,8-29-2022,11-29-10,49,depth_duration_stimuli/001170_2014-06-17_15-43-44_260595134347_rgbf000096-resize_6/001170_2014-06-17_15-43-44_260595134347_rgbf000096-resize-original.jpg,250,1.1909999999999998,0,1749,254,feet,jsons/v1_VE250_randls_14_rotated.json,463207,821100,32,Woman
49,216496,DepthScenes,duration_manipulation_targetAtFixation,jsons/v1_VE250_randls_14_rotated.json,http://54.235.29.9/FacialAge/BNav_EC2/DepthDuration/v2_depth_duration_MTurk/v2_DepthDuration_HTML.html#115,115,1280,629,1920,1080,8-29-2022,11-29-10,50,depth_duration_stimuli/001650_2014-06-20_12-09-00_260595134347_rgbf000087-resize_3/001650_2014-06-20_12-09-00_260595134347_rgbf000087-resize_3-target.png,250,1.9505,2,2594,254,feet,jsons/v1_VE250_randls_14_rotated.json,463207,821100,32,Woman
50,216496,DepthScenes,duration_manipulation_targetAtFixation,jsons/v1_VE250_randls_14_rotated.json,http://54.235.29.9/FacialAge/BNav_EC2/DepthDuration/v2_depth_duration_MTurk/v2_DepthDuration_HTML.html#115,115,1280,629,1920,1080,8-29-2022,11-29-10,51,depth_duration_stimuli/000682_2014-06-08_23-14-58_260595134347_rgbf000041-resize_5/000682_2014-06-08_23-14-58_260595134347_rgbf000041-resize_5-target.png,250,2.7239999999999998,3,1847,250,feet,jsons/v1_VE250_randls_14_rotated.json,463207,821100,32,Woman
51,216496,DepthScenes,duration_manipulation_targetAtFixation,jsons/v1_VE250_randls_14_rotated.json,http://54.235.29.9/FacialAge/BNav_EC2/DepthDuration/v2_depth_duration_MTurk/v2_DepthDuration_HTML.html#115,115,1280,629,1920,1080,8-29-2022,11-29-10,52,depth_duration_stimuli/002949_2014-06-26_15-57-42_094959634447_rgbf000079-resize_1/002949_2014-06-26_15-57-42_094959634447_rgbf000079-resize_1-target.png,250,1.8915,4,4343,249,feet,jsons/v1_VE250_randls_14_rotated.json,463207,821100,32,Woman
52,216496,DepthScenes,duration_manipulation_targetAtFixation,jsons/v1_VE250_randls_14_rotated.json,http://54.235.29.9/FacialAge/BNav_EC2/DepthDuration/v2_depth_duration_MTurk/v2_DepthDuration_HTML.html#115,115,1280,629,1920,1080,8-29-2022,11-29-10,53,depth_duration_stimuli/000522_2014-06-08_13-35-06_260595134347_rgbf000244-resize_1/000522_2014-06-08_13-35-06_260595134347_rgbf000244-resize_1-target.png,250,2.3715,0,1757,247,feet,jsons/v1_VE250_randls_14_rotated.json,463207,821100,32,Woman
53,216496,DepthScenes,duration_manipulation_targetAtFixation,jsons/v1_VE250_randls_14_rotated.json,http://54.235.29.9/FacialAge/BNav_EC2/DepthDuration/v2_depth_duration_MTurk/v2_DepthDuration_HTML.html#115,115,1280,629,1920,1080,8-29-2022,11-29-10,54,depth_duration_stimuli/000866_2014-06-09_20-45-42_260595134347_rgbf000139-resize_1/000866_2014-06-09_20-45-42_260595134347_rgbf000139-resize_1-target.png,250,3.2155,4,1801,250,feet,jsons/v1_VE250_randls_14_rotated.json,463207,821100,32,Woman
54,216496,DepthScenes,duration_manipulation_targetAtFixation,jsons/v1_VE250_randls_14_rotated.json,http://54.235.29.9/FacialAge/BNav_EC2/DepthDuration/v2_depth_duration_MTurk/v2_DepthDuration_HTML.html#115,115,1280,629,1920,1080,8-29-2022,11-29-10,55,depth_duration_stimuli/002989_2014-06-15_12-25-03_094959634447_rgbf000150-resize_3/002989_2014-06-15_12-25-03_094959634447_rgbf000150-resize_3-target.png,250,4.1975,6,1846,246,feet,jsons/v1_VE250_randls_14_rotated.json,463207,821100,32,Woman
55,216496,DepthScenes,duration_manipulation_targetAtFixation,jsons/v1_VE250_randls_14_rotated.json,http://54.235.29.9/FacialAge/BNav_EC2/DepthDuration/v2_depth_duration_MTurk/v2_DepthDuration_HTML.html#115,115,1280,629,1920,1080,8-29-2022,11-29-10,56,depth_duration_stimuli/002657_2014-06-13_15-29-54_094959634447_rgbf000150-resize_1/002657_2014-06-13_15-29-54_094959634447_rgbf000150-resize_1-target.png,250,4.919,5,1988,254,feet,jsons/v1_VE250_randls_14_rotated.json,463207,821100,32,Woman
56,216496,DepthScenes,duration_manipulation_targetAtFixation,jsons/v1_VE250_randls_14_rotated.json,http://54.235.29.9/FacialAge/BNav_EC2/DepthDuration/v2_depth_duration_MTurk/v2_DepthDuration_HTML.html#115,115,1280,629,1920,1080,8-29-2022,11-29-10,57,depth_duration_stimuli/002375_2014-06-28_20-13-44_260595134347_rgbf000032-resize_1/002375_2014-06-28_20-13-44_260595134347_rgbf000032-resize_1-target.png,250,4.0175,5,1743,250,feet,jsons/v1_VE250_randls_14_rotated.json,463207,821100,32,Woman
57,216496,DepthScenes,duration_manipulation_targetAtFixation,jsons/v1_VE250_randls_14_rotated.json,http://54.235.29.9/FacialAge/BNav_EC2/DepthDuration/v2_depth_duration_MTurk/v2_DepthDuration_HTML.html#115,115,1280,629,1920,1080,8-29-2022,11-29-10,58,depth_duration_stimuli/002323_2014-06-28_20-01-54_260595134347_rgbf000051-resize_4/002323_2014-06-28_20-01-54_260595134347_rgbf000051-resize_4-target.png,250,3.7310000000000003,7,1889,252,feet,jsons/v1_VE250_randls_14_rotated.json,463207,821100,32,Woman
58,216496,DepthScenes,duration_manipulation_targetAtFixation,jsons/v1_VE250_randls_14_rotated.json,http://54.235.29.9/FacialAge/BNav_EC2/DepthDuration/v2_depth_duration_MTurk/v2_DepthDuration_HTML.html#115,115,1280,629,1920,1080,8-29-2022,11-29-10,59,depth_duration_stimuli/000917_2014-06-09_22-45-29_260595134347_rgbf000149-resize_3/000917_2014-06-09_22-45-29_260595134347_rgbf000149-resize_3-target.png,250,4.1865,7,1846,248,feet,jsons/v1_VE250_randls_14_rotated.json,463207,821100,32,Woman
59,216496,DepthScenes,duration_manipulation_targetAtFixation,jsons/v1_VE250_randls_14_rotated.json,http://54.235.29.9/FacialAge/BNav_EC2/DepthDuration/v2_depth_duration_MTurk/v2_DepthDuration_HTML.html#115,115,1280,629,1920,1080,8-29-2022,11-29-10,60,depth_duration_stimuli/000854_2014-06-09_19-43-13_260595134347_rgbf000066-resize_0/000854_2014-06-09_19-43-13_260595134347_rgbf000066-resize_0-target.png,250,3.068,4,2463,253,feet,jsons/v1_VE250_randls_14_rotated.json,463207,821100,32,Woman
60,216496,DepthScenes,duration_manipulation_targetAtFixation,jsons/v1_VE250_randls_14_rotated.json,http://54.235.29.9/FacialAge/BNav_EC2/DepthDuration/v2_depth_duration_MTurk/v2_DepthDuration_HTML.html#115,115,1280,629,1920,1080,8-29-2022,11-29-10,61,depth_duration_stimuli/000758_2014-06-08_22-05-08_260595134347_rgbf000085-resize_0/000758_2014-06-08_22-05-08_260595134347_rgbf000085-resize_0-target.png,250,3.3810000000000002,5,1905,245,feet,jsons/v1_VE250_randls_14_rotated.json,463207,821100,32,Woman
61,216496,DepthScenes,duration_manipulation_targetAtFixation,jsons/v1_VE250_randls_14_rotated.json,http://54.235.29.9/FacialAge/BNav_EC2/DepthDuration/v2_depth_duration_MTurk/v2_DepthDuration_HTML.html#115,115,1280,629,1920,1080,8-29-2022,11-29-10,62,depth_duration_stimuli/000665_2014-06-09_20-42-35_260595134347_rgbf000110-resize_1/000665_2014-06-09_20-42-35_260595134347_rgbf000110-resize_1-target.png,250,3.057,4,1678,249,feet,jsons/v1_VE250_randls_14_rotated.json,463207,821100,32,Woman
62,216496,DepthScenes,duration_manipulation_targetAtFixation,jsons/v1_VE250_randls_14_rotated.json,http://54.235.29.9/FacialAge/BNav_EC2/DepthDuration/v2_depth_duration_MTurk/v2_DepthDuration_HTML.html#115,115,1280,629,1920,1080,8-29-2022,11-29-10,63,depth_duration_stimuli/001150_2014-06-17_15-27-34_260595134347_rgbf000108-resize_2/001150_2014-06-17_15-27-34_260595134347_rgbf000108-resize_2-target.png,250,4.0325,5,1923,248,feet,jsons/v1_VE250_randls_14_rotated.json,463207,821100,32,Woman
63,216496,DepthScenes,duration_manipulation_targetAtFixation,jsons/v1_VE250_randls_14_rotated.json,http://54.235.29.9/FacialAge/BNav_EC2/DepthDuration/v2_depth_duration_MTurk/v2_DepthDuration_HTML.html#115,115,1280,629,1920,1080,8-29-2022,11-29-10,64,depth_duration_stimuli/000137_2014-05-20_17-04-49_260595134347_rgbf000120-resize_1/000137_2014-05-20_17-04-49_260595134347_rgbf000120-resize_1-target.png,250,3.786,4,2138,253,feet,jsons/v1_VE250_randls_14_rotated.json,463207,821100,32,Woman
64,216496,DepthScenes,duration_manipulation_targetAtFixation,jsons/v1_VE250_randls_14_rotated.json,http://54.235.29.9/FacialAge/BNav_EC2/DepthDuration/v2_depth_duration_MTurk/v2_DepthDuration_HTML.html#115,115,1280,629,1920,1080,8-29-2022,11-29-10,65,depth_duration_stimuli/000736_2014-06-08_18-24-15_260595134347_rgbf000206-resize_3/000736_2014-06-08_18-24-15_260595134347_rgbf000206-resize_3-target.png,250,3.515,3,2177,250,feet,jsons/v1_VE250_randls_14_rotated.json,463207,821100,32,Woman
65,216496,DepthScenes,duration_manipulation_targetAtFixation,jsons/v1_VE250_randls_14_rotated.json,http://54.235.29.9/FacialAge/BNav_EC2/DepthDuration/v2_depth_duration_MTurk/v2_DepthDuration_HTML.html#115,115,1280,629,1920,1080,8-29-2022,11-29-10,66,depth_duration_stimuli/001540_2014-06-20_17-01-05_260595134347_rgbf000086-resize_2/001540_2014-06-20_17-01-05_260595134347_rgbf000086-resize-original.jpg,250,1.459,0,2192,248,feet,jsons/v1_VE250_randls_14_rotated.json,463207,821100,32,Woman
66,216496,DepthScenes,duration_manipulation_targetAtFixation,jsons/v1_VE250_randls_14_rotated.json,http://54.235.29.9/FacialAge/BNav_EC2/DepthDuration/v2_depth_duration_MTurk/v2_DepthDuration_HTML.html#115,115,1280,629,1920,1080,8-29-2022,11-29-10,67,depth_duration_stimuli/002637_2014-06-24_14-51-13_094959634447_rgbf000066-resize_4/002637_2014-06-24_14-51-13_094959634447_rgbf000066-resize_4-target.png,250,1.9955,3,2138,250,feet,jsons/v1_VE250_randls_14_rotated.json,463207,821100,32,Woman
67,216496,DepthScenes,duration_manipulation_targetAtFixation,jsons/v1_VE250_randls_14_rotated.json,http://54.235.29.9/FacialAge/BNav_EC2/DepthDuration/v2_depth_duration_MTurk/v2_DepthDuration_HTML.html#115,115,1280,629,1920,1080,8-29-2022,11-29-10,68,depth_duration_stimuli/003534_2014-05-22_15-06-10_094959634447_rgbf000102-resize_4/003534_2014-05-22_15-06-10_094959634447_rgbf000102-resize_4-target.png,250,1.426,2,1583,250,feet,jsons/v1_VE250_randls_14_rotated.json,463207,821100,32,Woman
68,216496,DepthScenes,duration_manipulation_targetAtFixation,jsons/v1_VE250_randls_14_rotated.json,http://54.235.29.9/FacialAge/BNav_EC2/DepthDuration/v2_depth_duration_MTurk/v2_DepthDuration_HTML.html#115,115,1280,629,1920,1080,8-29-2022,11-29-10,69,depth_duration_stimuli/001052_2014-06-08_18-24-54_260595134347_rgbf000130-resize_1/001052_2014-06-08_18-24-54_260595134347_rgbf000130-resize_1-target.png,250,4.1045,4,2059,252,feet,jsons/v1_VE250_randls_14_rotated.json,463207,821100,32,Woman
69,216496,DepthScenes,duration_manipulation_targetAtFixation,jsons/v1_VE250_randls_14_rotated.json,http://54.235.29.9/FacialAge/BNav_EC2/DepthDuration/v2_depth_duration_MTurk/v2_DepthDuration_HTML.html#115,115,1280,629,1920,1080,8-29-2022,11-29-10,70,depth_duration_stimuli/002988_2014-06-15_12-24-20_094959634447_rgbf000150-resize_1/002988_2014-06-15_12-24-20_094959634447_rgbf000150-resize_1-target.png,250,4.7669999999999995,7,2118,250,feet,jsons/v1_VE250_randls_14_rotated.json,463207,821100,32,Woman
70,216496,DepthScenes,duration_manipulation_targetAtFixation,jsons/v1_VE250_randls_14_rotated.json,http://54.235.29.9/FacialAge/BNav_EC2/DepthDuration/v2_depth_duration_MTurk/v2_DepthDuration_HTML.html#115,115,1280,629,1920,1080,8-29-2022,11-29-10,71,depth_duration_stimuli/000677_2014-06-08_23-10-32_260595134347_rgbf000158-resize_6/000677_2014-06-08_23-10-32_260595134347_rgbf000158-resize_6-target.png,250,3.556,3,1857,254,feet,jsons/v1_VE250_randls_14_rotated.json,463207,821100,32,Woman
71,216496,DepthScenes,duration_manipulation_targetAtFixation,jsons/v1_VE250_randls_14_rotated.json,http://54.235.29.9/FacialAge/BNav_EC2/DepthDuration/v2_depth_duration_MTurk/v2_DepthDuration_HTML.html#115,115,1280,629,1920,1080,8-29-2022,11-29-10,72,depth_duration_stimuli/001029_2014-06-08_13-17-57_260595134347_rgbf000065-resize_1/001029_2014-06-08_13-17-57_260595134347_rgbf000065-resize_1-target.png,250,3.0835,3,1921,252,feet,jsons/v1_VE250_randls_14_rotated.json,463207,821100,32,Woman
72,216496,DepthScenes,duration_manipulation_targetAtFixation,jsons/v1_VE250_randls_14_rotated.json,http://54.235.29.9/FacialAge/BNav_EC2/DepthDuration/v2_depth_duration_MTurk/v2_DepthDuration_HTML.html#115,115,1280,629,1920,1080,8-29-2022,11-29-10,73,depth_duration_stimuli/000457_2014-06-08_16-52-43_260595134347_rgbf000199-resize_1/000457_2014-06-08_16-52-43_260595134347_rgbf000199-resize_1-target.png,250,3.6489999999999996,3,2155,254,feet,jsons/v1_VE250_randls_14_rotated.json,463207,821100,32,Woman
73,216496,DepthScenes,duration_manipulation_targetAtFixation,jsons/v1_VE250_randls_14_rotated.json,http://54.235.29.9/FacialAge/BNav_EC2/DepthDuration/v2_depth_duration_MTurk/v2_DepthDuration_HTML.html#115,115,1280,629,1920,1080,8-29-2022,11-29-10,74,depth_duration_stimuli/000929_2014-06-09_16-33-19_260595134347_rgbf000139-resize_0/000929_2014-06-09_16-33-19_260595134347_rgbf000139-resize_0-target.png,250,2.8680000000000003,4,2239,249,feet,jsons/v1_VE250_randls_14_rotated.json,463207,821100,32,Woman
74,216496,DepthScenes,duration_manipulation_targetAtFixation,jsons/v1_VE250_randls_14_rotated.json,http://54.235.29.9/FacialAge/BNav_EC2/DepthDuration/v2_depth_duration_MTurk/v2_DepthDuration_HTML.html#115,115,1280,629,1920,1080,8-29-2022,11-29-10,75,depth_duration_stimuli/002678_2014-06-13_16-15-32_094959634447_rgbf000151-resize_6/002678_2014-06-13_16-15-32_094959634447_rgbf000151-resize_6-target.png,250,2.1830000000000003,3,1818,254,feet,jsons/v1_VE250_randls_14_rotated.json,463207,821100,32,Woman
75,216496,DepthScenes,duration_manipulation_targetAtFixation,jsons/v1_VE250_randls_14_rotated.json,http://54.235.29.9/FacialAge/BNav_EC2/DepthDuration/v2_depth_duration_MTurk/v2_DepthDuration_HTML.html#115,115,1280,629,1920,1080,8-29-2022,11-29-10,76,depth_duration_stimuli/000368_2014-06-09_15-53-01_260595134347_rgbf000155-resize_2/000368_2014-06-09_15-53-01_260595134347_rgbf000155-resize_2-target.png,250,2.4859999999999998,2,1655,245,feet,jsons/v1_VE250_randls_14_rotated.json,463207,821100,32,Woman
76,216496,DepthScenes,duration_manipulation_targetAtFixation,jsons/v1_VE250_randls_14_rotated.json,http://54.235.29.9/FacialAge/BNav_EC2/DepthDuration/v2_depth_duration_MTurk/v2_DepthDuration_HTML.html#115,115,1280,629,1920,1080,8-29-2022,11-29-10,77,depth_duration_stimuli/000556_2014-06-09_22-42-56_260595134347_rgbf000214-resize_1/000556_2014-06-09_22-42-56_260595134347_rgbf000214-resize_1-target.png,250,4.8415,5,1840,246,feet,jsons/v1_VE250_randls_14_rotated.json,463207,821100,32,Woman
77,216496,DepthScenes,duration_manipulation_targetAtFixation,jsons/v1_VE250_randls_14_rotated.json,http://54.235.29.9/FacialAge/BNav_EC2/DepthDuration/v2_depth_duration_MTurk/v2_DepthDuration_HTML.html#115,115,1280,629,1920,1080,8-29-2022,11-29-10,78,depth_duration_stimuli/001158_2014-06-17_15-32-16_260595134347_rgbf000138-resize_2/001158_2014-06-17_15-32-16_260595134347_rgbf000138-resize_2-target.png,250,4.5315,7,2673,254,feet,jsons/v1_VE250_randls_14_rotated.json,463207,821100,32,Woman
78,216496,DepthScenes,duration_manipulation_targetAtFixation,jsons/v1_VE250_randls_14_rotated.json,http://54.235.29.9/FacialAge/BNav_EC2/DepthDuration/v2_depth_duration_MTurk/v2_DepthDuration_HTML.html#115,115,1280,629,1920,1080,8-29-2022,11-29-10,79,depth_duration_stimuli/001136_2014-06-17_15-19-41_260595134347_rgbf000076-resize_3/001136_2014-06-17_15-19-41_260595134347_rgbf000076-resize_3-target.png,250,1.8655,4,2006,244,feet,jsons/v1_VE250_randls_14_rotated.json,463207,821100,32,Woman
79,216496,DepthScenes,duration_manipulation_targetAtFixation,jsons/v1_VE250_randls_14_rotated.json,http://54.235.29.9/FacialAge/BNav_EC2/DepthDuration/v2_depth_duration_MTurk/v2_DepthDuration_HTML.html#115,115,1280,629,1920,1080,8-29-2022,11-29-10,80,depth_duration_stimuli/001164_2014-06-17_15-35-46_260595134347_rgbf000085-resize_3/001164_2014-06-17_15-35-46_260595134347_rgbf000085-resize_3-target.png,250,2.354,7,2349,249,feet,jsons/v1_VE250_randls_14_rotated.json,463207,821100,32,Woman
80,216496,DepthScenes,duration_manipulation_targetAtFixation,jsons/v1_VE250_randls_14_rotated.json,http://54.235.29.9/FacialAge/BNav_EC2/DepthDuration/v2_depth_duration_MTurk/v2_DepthDuration_HTML.html#115,115,1280,629,1920,1080,8-29-2022,11-29-10,81,depth_duration_stimuli/003129_2014-05-12_10-48-10_094959634447_rgbf000100-resize_0/003129_2014-05-12_10-48-10_094959634447_rgbf000100-resize_0-target.png,250,4.9305,7,2091,254,feet,jsons/v1_VE250_randls_14_rotated.json,463207,821100,32,Woman
81,216496,DepthScenes,duration_manipulation_targetAtFixation,jsons/v1_VE250_randls_14_rotated.json,http://54.235.29.9/FacialAge/BNav_EC2/DepthDuration/v2_depth_duration_MTurk/v2_DepthDuration_HTML.html#115,115,1280,629,1920,1080,8-29-2022,11-29-10,82,depth_duration_stimuli/000414_2014-06-04_19-49-13_260595134347_rgbf000044-resize_0/000414_2014-06-04_19-49-13_260595134347_rgbf000044-resize_0-target.png,250,4.329,8,1906,251,feet,jsons/v1_VE250_randls_14_rotated.json,463207,821100,32,Woman
82,216496,DepthScenes,duration_manipulation_targetAtFixation,jsons/v1_VE250_randls_14_rotated.json,http://54.235.29.9/FacialAge/BNav_EC2/DepthDuration/v2_depth_duration_MTurk/v2_DepthDuration_HTML.html#115,115,1280,629,1920,1080,8-29-2022,11-29-10,83,depth_duration_stimuli/000943_2014-06-09_19-31-07_260595134347_rgbf000128-resize_1/000943_2014-06-09_19-31-07_260595134347_rgbf000128-resize_1-target.png,250,1.9765,3,2052,254,feet,jsons/v1_VE250_randls_14_rotated.json,463207,821100,32,Woman
83,216496,DepthScenes,duration_manipulation_targetAtFixation,jsons/v1_VE250_randls_14_rotated.json,http://54.235.29.9/FacialAge/BNav_EC2/DepthDuration/v2_depth_duration_MTurk/v2_DepthDuration_HTML.html#115,115,1280,629,1920,1080,8-29-2022,11-29-10,84,depth_duration_stimuli/003070_2014-06-15_14-58-27_094959634447_rgbf000150-resize_3/003070_2014-06-15_14-58-27_094959634447_rgbf000150-resize_3-target.png,250,2.9415,4,1794,253,feet,jsons/v1_VE250_randls_14_rotated.json,463207,821100,32,Woman
84,216496,DepthScenes,duration_manipulation_targetAtFixation,jsons/v1_VE250_randls_14_rotated.json,http://54.235.29.9/FacialAge/BNav_EC2/DepthDuration/v2_depth_duration_MTurk/v2_DepthDuration_HTML.html#115,115,1280,629,1920,1080,8-29-2022,11-29-10,85,depth_duration_stimuli/003079_2014-06-15_15-18-20_094959634447_rgbf000152-resize_8/003079_2014-06-15_15-18-20_094959634447_rgbf000152-resize_8-target.png,250,2.8775,4,2338,254,feet,jsons/v1_VE250_randls_14_rotated.json,463207,821100,32,Woman
85,216496,DepthScenes,duration_manipulation_targetAtFixation,jsons/v1_VE250_randls_14_rotated.json,http://54.235.29.9/FacialAge/BNav_EC2/DepthDuration/v2_depth_duration_MTurk/v2_DepthDuration_HTML.html#115,115,1280,629,1920,1080,8-29-2022,11-29-10,86,depth_duration_stimuli/000506_2014-06-08_23-21-00_260595134347_rgbf000070-resize_7/000506_2014-06-08_23-21-00_260595134347_rgbf000070-resize_7-target.png,250,4.0585,4,1809,248,feet,jsons/v1_VE250_randls_14_rotated.json,463207,821100,32,Woman
86,216496,DepthScenes,duration_manipulation_targetAtFixation,jsons/v1_VE250_randls_14_rotated.json,http://54.235.29.9/FacialAge/BNav_EC2/DepthDuration/v2_depth_duration_MTurk/v2_DepthDuration_HTML.html#115,115,1280,629,1920,1080,8-29-2022,11-29-10,87,depth_duration_stimuli/001392_2014-06-19_16-07-59_260595134347_rgbf000046-resize_1/001392_2014-06-19_16-07-59_260595134347_rgbf000046-resize_1-target.png,250,4.135,5,1950,246,feet,jsons/v1_VE250_randls_14_rotated.json,463207,821100,32,Woman
87,216496,DepthScenes,duration_manipulation_targetAtFixation,jsons/v1_VE250_randls_14_rotated.json,http://54.235.29.9/FacialAge/BNav_EC2/DepthDuration/v2_depth_duration_MTurk/v2_DepthDuration_HTML.html#115,115,1280,629,1920,1080,8-29-2022,11-29-10,88,depth_duration_stimuli/001570_2014-06-20_17-21-09_260595134347_rgbf000135-resize_4/001570_2014-06-20_17-21-09_260595134347_rgbf000135-resize_4-target.png,250,4.467,5,4065,249,feet,jsons/v1_VE250_randls_14_rotated.json,463207,821100,32,Woman
88,216496,DepthScenes,duration_manipulation_targetAtFixation,jsons/v1_VE250_randls_14_rotated.json,http://54.235.29.9/FacialAge/BNav_EC2/DepthDuration/v2_depth_duration_MTurk/v2_DepthDuration_HTML.html#115,115,1280,629,1920,1080,8-29-2022,11-29-10,89,depth_duration_stimuli/002639_2014-06-24_14-51-37_094959634447_rgbf000074-resize_4/002639_2014-06-24_14-51-37_094959634447_rgbf000074-resize_4-target.png,250,4.0375,8,2267,247,feet,jsons/v1_VE250_randls_14_rotated.json,463207,821100,32,Woman
89,216496,DepthScenes,duration_manipulation_targetAtFixation,jsons/v1_VE250_randls_14_rotated.json,http://54.235.29.9/FacialAge/BNav_EC2/DepthDuration/v2_depth_duration_MTurk/v2_DepthDuration_HTML.html#115,115,1280,629,1920,1080,8-29-2022,11-29-10,90,depth_duration_stimuli/003292_2014-05-14_21-53-49_094959634447_rgbf000100-resize_2/003292_2014-05-14_21-53-49_094959634447_rgbf000100-resize_2-target.png,250,3.4815,4,3395,253,feet,jsons/v1_VE250_randls_14_rotated.json,463207,821100,32,Woman
90,216496,DepthScenes,duration_manipulation_targetAtFixation,jsons/v1_VE250_randls_14_rotated.json,http://54.235.29.9/FacialAge/BNav_EC2/DepthDuration/v2_depth_duration_MTurk/v2_DepthDuration_HTML.html#115,115,1280,629,1920,1080,8-29-2022,11-29-10,91,depth_duration_stimuli/000749_2014-06-08_21-55-06_260595134347_rgbf000070-resize_2/000749_2014-06-08_21-55-06_260595134347_rgbf000070-resize_2-target.png,250,2.331,4,2190,247,feet,jsons/v1_VE250_randls_14_rotated.json,463207,821100,32,Woman
91,216496,DepthScenes,duration_manipulation_targetAtFixation,jsons/v1_VE250_randls_14_rotated.json,http://54.235.29.9/FacialAge/BNav_EC2/DepthDuration/v2_depth_duration_MTurk/v2_DepthDuration_HTML.html#115,115,1280,629,1920,1080,8-29-2022,11-29-10,92,depth_duration_stimuli/002788_2014-06-22_19-36-03_094959634447_rgbf000088-resize_2/002788_2014-06-22_19-36-03_094959634447_rgbf000088-resize_2-target.png,250,1.6465,5,1762,249,feet,jsons/v1_VE250_randls_14_rotated.json,463207,821100,32,Woman
92,216496,DepthScenes,duration_manipulation_targetAtFixation,jsons/v1_VE250_randls_14_rotated.json,http://54.235.29.9/FacialAge/BNav_EC2/DepthDuration/v2_depth_duration_MTurk/v2_DepthDuration_HTML.html#115,115,1280,629,1920,1080,8-29-2022,11-29-10,93,depth_duration_stimuli/001094_2014-06-15_17-36-00_260595134347_rgbf000205-resize_0/001094_2014-06-15_17-36-00_260595134347_rgbf000205-resize_0-target.png,250,4.2175,4,1848,247,feet,jsons/v1_VE250_randls_14_rotated.json,463207,821100,32,Woman
93,216496,DepthScenes,duration_manipulation_targetAtFixation,jsons/v1_VE250_randls_14_rotated.json,http://54.235.29.9/FacialAge/BNav_EC2/DepthDuration/v2_depth_duration_MTurk/v2_DepthDuration_HTML.html#115,115,1280,629,1920,1080,8-29-2022,11-29-10,94,depth_duration_stimuli/000692_2014-06-08_13-09-42_260595134347_rgbf000199-resize_2/000692_2014-06-08_13-09-42_260595134347_rgbf000199-resize_2-target.png,250,3.661,8,1704,245,feet,jsons/v1_VE250_randls_14_rotated.json,463207,821100,32,Woman
94,216496,DepthScenes,duration_manipulation_targetAtFixation,jsons/v1_VE250_randls_14_rotated.json,http://54.235.29.9/FacialAge/BNav_EC2/DepthDuration/v2_depth_duration_MTurk/v2_DepthDuration_HTML.html#115,115,1280,629,1920,1080,8-29-2022,11-29-10,95,depth_duration_stimuli/002199_2014-06-28_18-33-56_260595134347_rgbf000074-resize_0/002199_2014-06-28_18-33-56_260595134347_rgbf000074-resize_0-target.png,250,1.996,2,1620,245,feet,jsons/v1_VE250_randls_14_rotated.json,463207,821100,32,Woman
95,216496,DepthScenes,duration_manipulation_targetAtFixation,jsons/v1_VE250_randls_14_rotated.json,http://54.235.29.9/FacialAge/BNav_EC2/DepthDuration/v2_depth_duration_MTurk/v2_DepthDuration_HTML.html#115,115,1280,629,1920,1080,8-29-2022,11-29-10,96,depth_duration_stimuli/001056_2014-06-08_18-46-44_260595134347_rgbf000068-resize_0/001056_2014-06-08_18-46-44_260595134347_rgbf000068-resize_0-target.png,250,2.6625,3,1909,250,feet,jsons/v1_VE250_randls_14_rotated.json,463207,821100,32,Woman
96,216496,DepthScenes,duration_manipulation_targetAtFixation,jsons/v1_VE250_randls_14_rotated.json,http://54.235.29.9/FacialAge/BNav_EC2/DepthDuration/v2_depth_duration_MTurk/v2_DepthDuration_HTML.html#115,115,1280,629,1920,1080,8-29-2022,11-29-10,97,depth_duration_stimuli/003338_2014-05-20_11-01-23_094959634447_rgbf000051-resize_6/003338_2014-05-20_11-01-23_094959634447_rgbf000051-resize_6-target.png,250,1.693,2,1907,246,feet,jsons/v1_VE250_randls_14_rotated.json,463207,821100,32,Woman
97,216496,DepthScenes,duration_manipulation_targetAtFixation,jsons/v1_VE250_randls_14_rotated.json,http://54.235.29.9/FacialAge/BNav_EC2/DepthDuration/v2_depth_duration_MTurk/v2_DepthDuration_HTML.html#115,115,1280,629,1920,1080,8-29-2022,11-29-10,98,depth_duration_stimuli/002509_2014-06-24_13-19-22_094959634447_rgbf000077-resize_0/002509_2014-06-24_13-19-22_094959634447_rgbf000077-resize_0-target.png,250,1.3065,1,1595,250,feet,jsons/v1_VE250_randls_14_rotated.json,463207,821100,32,Woman
98,216496,DepthScenes,duration_manipulation_targetAtFixation,jsons/v1_VE250_randls_14_rotated.json,http://54.235.29.9/FacialAge/BNav_EC2/DepthDuration/v2_depth_duration_MTurk/v2_DepthDuration_HTML.html#115,115,1280,629,1920,1080,8-29-2022,11-29-10,99,depth_duration_stimuli/001222_2014-06-17_16-24-06_260595134347_rgbf000073-resize_0/001222_2014-06-17_16-24-06_260595134347_rgbf000073-resize-original.jpg,250,1.4385,0,2063,246,feet,jsons/v1_VE250_randls_14_rotated.json,463207,821100,32,Woman
99,216496,DepthScenes,duration_manipulation_targetAtFixation,jsons/v1_VE250_randls_14_rotated.json,http://54.235.29.9/FacialAge/BNav_EC2/DepthDuration/v2_depth_duration_MTurk/v2_DepthDuration_HTML.html#115,115,1280,629,1920,1080,8-29-2022,11-29-10,100,depth_duration_stimuli/000109_2014-05-14_23-41-52_260595134347_rgbf000035-resize_9/000109_2014-05-14_23-41-52_260595134347_rgbf000035-resize_9-target.png,250,1.3545,2,1737,248,feet,jsons/v1_VE250_randls_14_rotated.json,463207,821100,32,Woman
100,216496,DepthScenes,duration_manipulation_targetAtFixation,jsons/v1_VE250_randls_14_rotated.json,http://54.235.29.9/FacialAge/BNav_EC2/DepthDuration/v2_depth_duration_MTurk/v2_DepthDuration_HTML.html#115,115,1280,629,1920,1080,8-29-2022,11-29-10,101,depth_duration_stimuli/000470_2014-06-09_19-42-40_260595134347_rgbf000094-resize_1/000470_2014-06-09_19-42-40_260595134347_rgbf000094-resize_1-target.png,250,1.831,2,1760,252,feet,jsons/v1_VE250_randls_14_rotated.json,463207,821100,32,Woman
101,216496,DepthScenes,duration_manipulation_targetAtFixation,jsons/v1_VE250_randls_14_rotated.json,http://54.235.29.9/FacialAge/BNav_EC2/DepthDuration/v2_depth_duration_MTurk/v2_DepthDuration_HTML.html#115,115,1280,629,1920,1080,8-29-2022,11-29-10,102,depth_duration_stimuli/002805_2014-06-22_19-54-03_094959634447_rgbf000079-resize_1/002805_2014-06-22_19-54-03_094959634447_rgbf000079-resize_1-target.png,250,3.1439999999999997,4,1767,250,feet,jsons/v1_VE250_randls_14_rotated.json,463207,821100,32,Woman
102,216496,DepthScenes,duration_manipulation_targetAtFixation,jsons/v1_VE250_randls_14_rotated.json,http://54.235.29.9/FacialAge/BNav_EC2/DepthDuration/v2_depth_duration_MTurk/v2_DepthDuration_HTML.html#115,115,1280,629,1920,1080,8-29-2022,11-29-10,103,depth_duration_stimuli/000906_2014-06-08_13-35-43_260595134347_rgbf000155-resize_1/000906_2014-06-08_13-35-43_260595134347_rgbf000155-resize_1-target.png,250,2.8489999999999998,5,2001,254,feet,jsons/v1_VE250_randls_14_rotated.json,463207,821100,32,Woman
103,216496,DepthScenes,duration_manipulation_targetAtFixation,jsons/v1_VE250_randls_14_rotated.json,http://54.235.29.9/FacialAge/BNav_EC2/DepthDuration/v2_depth_duration_MTurk/v2_DepthDuration_HTML.html#115,115,1280,629,1920,1080,8-29-2022,11-29-10,104,depth_duration_stimuli/000709_2014-06-08_13-51-55_260595134347_rgbf000068-resize_3/000709_2014-06-08_13-51-55_260595134347_rgbf000068-resize_3-target.png,250,1.8030000000000002,2,2064,246,feet,jsons/v1_VE250_randls_14_rotated.json,463207,821100,32,Woman
104,216496,DepthScenes,duration_manipulation_targetAtFixation,jsons/v1_VE250_randls_14_rotated.json,http://54.235.29.9/FacialAge/BNav_EC2/DepthDuration/v2_depth_duration_MTurk/v2_DepthDuration_HTML.html#115,115,1280,629,1920,1080,8-29-2022,11-29-10,105,depth_duration_stimuli/002057_2014-06-24_21-00-13_260595134347_rgbf000120-resize_1/002057_2014-06-24_21-00-13_260595134347_rgbf000120-resize_1-target.png,250,2.967,0,2649,250,feet,jsons/v1_VE250_randls_14_rotated.json,463207,821100,32,Woman
105,216496,DepthScenes,duration_manipulation_targetAtFixation,jsons/v1_VE250_randls_14_rotated.json,http://54.235.29.9/FacialAge/BNav_EC2/DepthDuration/v2_depth_duration_MTurk/v2_DepthDuration_HTML.html#115,115,1280,629,1920,1080,8-29-2022,11-29-10,106,depth_duration_stimuli/003228_2014-05-14_13-42-35_094959634447_rgbf000101-resize_1/003228_2014-05-14_13-42-35_094959634447_rgbf000101-resize_1-target.png,250,1.9680000000000002,1,1801,252,feet,jsons/v1_VE250_randls_14_rotated.json,463207,821100,32,Woman
106,216496,DepthScenes,duration_manipulation_targetAtFixation,jsons/v1_VE250_randls_14_rotated.json,http://54.235.29.9/FacialAge/BNav_EC2/DepthDuration/v2_depth_duration_MTurk/v2_DepthDuration_HTML.html#115,115,1280,629,1920,1080,8-29-2022,11-29-10,107,depth_duration_stimuli/002600_2014-06-24_14-27-04_094959634447_rgbf000074-resize_2/002600_2014-06-24_14-27-04_094959634447_rgbf000074-resize_2-target.png,250,2.7575,4,1985,253,feet,jsons/v1_VE250_randls_14_rotated.json,463207,821100,32,Woman
107,216496,DepthScenes,duration_manipulation_targetAtFixation,jsons/v1_VE250_randls_14_rotated.json,http://54.235.29.9/FacialAge/BNav_EC2/DepthDuration/v2_depth_duration_MTurk/v2_DepthDuration_HTML.html#115,115,1280,629,1920,1080,8-29-2022,11-29-10,108,depth_duration_stimuli/003423_2014-05-21_10-23-26_094959634447_rgbf002665-resize_2/003423_2014-05-21_10-23-26_094959634447_rgbf002665-resize_2-target.png,250,3.2575,5,1750,249,feet,jsons/v1_VE250_randls_14_rotated.json,463207,821100,32,Woman
108,216496,DepthScenes,duration_manipulation_targetAtFixation,jsons/v1_VE250_randls_14_rotated.json,http://54.235.29.9/FacialAge/BNav_EC2/DepthDuration/v2_depth_duration_MTurk/v2_DepthDuration_HTML.html#115,115,1280,629,1920,1080,8-29-2022,11-29-10,109,depth_duration_stimuli/002905_2014-06-03_18-04-43_094959634447_rgbf000151-resize_2/002905_2014-06-03_18-04-43_094959634447_rgbf000151-resize_2-target.png,250,2.0295,3,1729,249,feet,jsons/v1_VE250_randls_14_rotated.json,463207,821100,32,Woman
109,216496,DepthScenes,duration_manipulation_targetAtFixation,jsons/v1_VE250_randls_14_rotated.json,http://54.235.29.9/FacialAge/BNav_EC2/DepthDuration/v2_depth_duration_MTurk/v2_DepthDuration_HTML.html#115,115,1280,629,1920,1080,8-29-2022,11-29-10,110,depth_duration_stimuli/001571_2014-06-20_17-21-32_260595134347_rgbf000089-resize_1/001571_2014-06-20_17-21-32_260595134347_rgbf000089-resize_1-target.png,250,1.86,3,2271,252,feet,jsons/v1_VE250_randls_14_rotated.json,463207,821100,32,Woman
110,216496,DepthScenes,duration_manipulation_targetAtFixation,jsons/v1_VE250_randls_14_rotated.json,http://54.235.29.9/FacialAge/BNav_EC2/DepthDuration/v2_depth_duration_MTurk/v2_DepthDuration_HTML.html#115,115,1280,629,1920,1080,8-29-2022,11-29-10,111,depth_duration_stimuli/002272_2014-06-28_18-53-56_260595134347_rgbf000067-resize_2/002272_2014-06-28_18-53-56_260595134347_rgbf000067-resize_2-target.png,250,1.138,2,1573,253,feet,jsons/v1_VE250_randls_14_rotated.json,463207,821100,32,Woman
111,216496,DepthScenes,duration_manipulation_targetAtFixation,jsons/v1_VE250_randls_14_rotated.json,http://54.235.29.9/FacialAge/BNav_EC2/DepthDuration/v2_depth_duration_MTurk/v2_DepthDuration_HTML.html#115,115,1280,629,1920,1080,8-29-2022,11-29-10,112,depth_duration_stimuli/001828_2014-06-26_21-40-03_260595134347_rgbf000024-resize_0/001828_2014-06-26_21-40-03_260595134347_rgbf000024-resize_0-target.png,250,4.8260000000000005,8,2246,246,feet,jsons/v1_VE250_randls_14_rotated.json,463207,821100,32,Woman
112,216496,DepthScenes,duration_manipulation_targetAtFixation,jsons/v1_VE250_randls_14_rotated.json,http://54.235.29.9/FacialAge/BNav_EC2/DepthDuration/v2_depth_duration_MTurk/v2_DepthDuration_HTML.html#115,115,1280,629,1920,1080,8-29-2022,11-29-10,113,depth_duration_stimuli/000009_2014-05-26_14-32-05_260595134347_rgbf000034-resize_3/000009_2014-05-26_14-32-05_260595134347_rgbf000034-resize_3-target.png,250,3.8715,7,1934,246,feet,jsons/v1_VE250_randls_14_rotated.json,463207,821100,32,Woman
113,216496,DepthScenes,duration_manipulation_targetAtFixation,jsons/v1_VE250_randls_14_rotated.json,http://54.235.29.9/FacialAge/BNav_EC2/DepthDuration/v2_depth_duration_MTurk/v2_DepthDuration_HTML.html#115,115,1280,629,1920,1080,8-29-2022,11-29-10,114,depth_duration_stimuli/002414_2014-06-28_20-24-58_260595134347_rgbf000067-resize_4/002414_2014-06-28_20-24-58_260595134347_rgbf000067-resize_4-target.png,250,4.363,5,2288,251,feet,jsons/v1_VE250_randls_14_rotated.json,463207,821100,32,Woman
114,216496,DepthScenes,duration_manipulation_targetAtFixation,jsons/v1_VE250_randls_14_rotated.json,http://54.235.29.9/FacialAge/BNav_EC2/DepthDuration/v2_depth_duration_MTurk/v2_DepthDuration_HTML.html#115,115,1280,629,1920,1080,8-29-2022,11-29-10,115,depth_duration_stimuli/000773_2014-06-08_22-24-54_260595134347_rgbf000093-resize_1/000773_2014-06-08_22-24-54_260595134347_rgbf000093-resize_1-target.png,250,4.973,6,2031,250,feet,jsons/v1_VE250_randls_14_rotated.json,463207,821100,32,Woman
115,216496,DepthScenes,duration_manipulation_targetAtFixation,jsons/v1_VE250_randls_14_rotated.json,http://54.235.29.9/FacialAge/BNav_EC2/DepthDuration/v2_depth_duration_MTurk/v2_DepthDuration_HTML.html#115,115,1280,629,1920,1080,8-29-2022,11-29-10,116,depth_duration_stimuli/001100_2014-06-15_17-46-26_260595134347_rgbf000225-resize_2/001100_2014-06-15_17-46-26_260595134347_rgbf000225-resize_2-target.png,250,2.24,2,1674,249,feet,jsons/v1_VE250_randls_14_rotated.json,463207,821100,32,Woman
116,216496,DepthScenes,duration_manipulation_targetAtFixation,jsons/v1_VE250_randls_14_rotated.json,http://54.235.29.9/FacialAge/BNav_EC2/DepthDuration/v2_depth_duration_MTurk/v2_DepthDuration_HTML.html#115,115,1280,629,1920,1080,8-29-2022,11-29-10,117,depth_duration_stimuli/002784_2014-06-22_19-26-30_094959634447_rgbf000083-resize_3/002784_2014-06-22_19-26-30_094959634447_rgbf000083-resize_3-target.png,250,1.8046666666667,1,1879,252,feet,jsons/v1_VE250_randls_14_rotated.json,463207,821100,32,Woman
117,216496,DepthScenes,duration_manipulation_targetAtFixation,jsons/v1_VE250_randls_14_rotated.json,http://54.235.29.9/FacialAge/BNav_EC2/DepthDuration/v2_depth_duration_MTurk/v2_DepthDuration_HTML.html#115,115,1280,629,1920,1080,8-29-2022,11-29-10,118,depth_duration_stimuli/000635_2014-06-08_16-38-42_260595134347_rgbf000106-resize_1/000635_2014-06-08_16-38-42_260595134347_rgbf000106-resize_1-target.png,250,2.074,3,2335,249,feet,jsons/v1_VE250_randls_14_rotated.json,463207,821100,32,Woman
118,216496,DepthScenes,duration_manipulation_targetAtFixation,jsons/v1_VE250_randls_14_rotated.json,http://54.235.29.9/FacialAge/BNav_EC2/DepthDuration/v2_depth_duration_MTurk/v2_DepthDuration_HTML.html#115,115,1280,629,1920,1080,8-29-2022,11-29-10,119,depth_duration_stimuli/002279_2014-06-28_18-55-32_260595134347_rgbf000040-resize_5/002279_2014-06-28_18-55-32_260595134347_rgbf000040-resize_5-target.png,250,1.5043333333333,2,1597,245,feet,jsons/v1_VE250_randls_14_rotated.json,463207,821100,32,Woman
119,216496,DepthScenes,duration_manipulation_targetAtFixation,jsons/v1_VE250_randls_14_rotated.json,http://54.235.29.9/FacialAge/BNav_EC2/DepthDuration/v2_depth_duration_MTurk/v2_DepthDuration_HTML.html#115,115,1280,629,1920,1080,8-29-2022,11-29-10,120,depth_duration_stimuli/000787_2014-06-08_22-33-53_260595134347_rgbf000175-resize_1/000787_2014-06-08_22-33-53_260595134347_rgbf000175-resize-original.jpg,250,4.784,0,1726,248,feet,jsons/v1_VE250_randls_14_rotated.json,463207,821100,32,Woman
120,216496,DepthScenes,duration_manipulation_targetAtFixation,jsons/v1_VE250_randls_14_rotated.json,http://54.235.29.9/FacialAge/BNav_EC2/DepthDuration/v2_depth_duration_MTurk/v2_DepthDuration_HTML.html#115,115,1280,629,1920,1080,8-29-2022,11-29-10,121,depth_duration_stimuli/002758_2014-06-22_19-11-20_094959634447_rgbf000128-resize_1/002758_2014-06-22_19-11-20_094959634447_rgbf000128-resize_1-target.png,250,2.555,2,1761,247,feet,jsons/v1_VE250_randls_14_rotated.json,463207,821100,32,Woman
121,216496,DepthScenes,duration_manipulation_targetAtFixation,jsons/v1_VE250_randls_14_rotated.json,http://54.235.29.9/FacialAge/BNav_EC2/DepthDuration/v2_depth_duration_MTurk/v2_DepthDuration_HTML.html#115,115,1280,629,1920,1080,8-29-2022,11-29-10,122,depth_duration_stimuli/002630_2014-06-24_14-47-50_094959634447_rgbf000055-resize_1/002630_2014-06-24_14-47-50_094959634447_rgbf000055-resize_1-target.png,250,3.0095,0,2913,253,feet,jsons/v1_VE250_randls_14_rotated.json,463207,821100,32,Woman
122,216496,DepthScenes,duration_manipulation_targetAtFixation,jsons/v1_VE250_randls_14_rotated.json,http://54.235.29.9/FacialAge/BNav_EC2/DepthDuration/v2_depth_duration_MTurk/v2_DepthDuration_HTML.html#115,115,1280,629,1920,1080,8-29-2022,11-29-10,123,depth_duration_stimuli/003495_2014-05-21_16-01-51_094959634447_rgbf000100-resize_3/003495_2014-05-21_16-01-51_094959634447_rgbf000100-resize_3-target.png,250,1.6255,2,15709,246,feet,jsons/v1_VE250_randls_14_rotated.json,463207,821100,32,Woman
123,216496,DepthScenes,duration_manipulation_targetAtFixation,jsons/v1_VE250_randls_14_rotated.json,http://54.235.29.9/FacialAge/BNav_EC2/DepthDuration/v2_depth_duration_MTurk/v2_DepthDuration_HTML.html#115,115,1280,629,1920,1080,8-29-2022,11-29-10,124,depth_duration_stimuli/001244_2014-06-17_16-47-45_260595134347_rgbf000030-resize_4/001244_2014-06-17_16-47-45_260595134347_rgbf000030-resize_4-target.png,250,2.0425,2,5227,254,feet,jsons/v1_VE250_randls_14_rotated.json,463207,821100,32,Woman
124,216496,DepthScenes,duration_manipulation_targetAtFixation,jsons/v1_VE250_randls_14_rotated.json,http://54.235.29.9/FacialAge/BNav_EC2/DepthDuration/v2_depth_duration_MTurk/v2_DepthDuration_HTML.html#115,115,1280,629,1920,1080,8-29-2022,11-29-10,125,depth_duration_stimuli/000927_2014-06-09_16-32-30_260595134347_rgbf000123-resize_3/000927_2014-06-09_16-32-30_260595134347_rgbf000123-resize_3-target.png,250,2.6785,6,5343,249,feet,jsons/v1_VE250_randls_14_rotated.json,463207,821100,32,Woman
125,216496,DepthScenes,duration_manipulation_targetAtFixation,jsons/v1_VE250_randls_14_rotated.json,http://54.235.29.9/FacialAge/BNav_EC2/DepthDuration/v2_depth_duration_MTurk/v2_DepthDuration_HTML.html#115,115,1280,629,1920,1080,8-29-2022,11-29-10,126,depth_duration_stimuli/001110_2014-06-15_17-25-28_260595134347_rgbf000150-resize_1/001110_2014-06-15_17-25-28_260595134347_rgbf000150-resize_1-target.png,250,1.7115,4,4326,250,feet,jsons/v1_VE250_randls_14_rotated.json,463207,821100,32,Woman
126,216496,DepthScenes,duration_manipulation_targetAtFixation,jsons/v1_VE250_randls_14_rotated.json,http://54.235.29.9/FacialAge/BNav_EC2/DepthDuration/v2_depth_duration_MTurk/v2_DepthDuration_HTML.html#115,115,1280,629,1920,1080,8-29-2022,11-29-10,127,depth_duration_stimuli/002444_2014-06-28_20-32-08_260595134347_rgbf000027-resize_0/002444_2014-06-28_20-32-08_260595134347_rgbf000027-resize_0-target.png,250,4.388999999999999,6,2079,249,feet,jsons/v1_VE250_randls_14_rotated.json,463207,821100,32,Woman
127,216496,DepthScenes,duration_manipulation_targetAtFixation,jsons/v1_VE250_randls_14_rotated.json,http://54.235.29.9/FacialAge/BNav_EC2/DepthDuration/v2_depth_duration_MTurk/v2_DepthDuration_HTML.html#115,115,1280,629,1920,1080,8-29-2022,11-29-10,128,depth_duration_stimuli/000436_2014-06-09_22-25-11_260595134347_rgbf000137-resize_1/000436_2014-06-09_22-25-11_260595134347_rgbf000137-resize_1-target.png,250,4.0705,7,2547,254,feet,jsons/v1_VE250_randls_14_rotated.json,463207,821100,32,Woman
128,216496,DepthScenes,duration_manipulation_targetAtFixation,jsons/v1_VE250_randls_14_rotated.json,http://54.235.29.9/FacialAge/BNav_EC2/DepthDuration/v2_depth_duration_MTurk/v2_DepthDuration_HTML.html#115,115,1280,629,1920,1080,8-29-2022,11-29-10,129,depth_duration_stimuli/000103_2014-05-14_22-01-17_260595134347_rgbf000152-resize_5/000103_2014-05-14_22-01-17_260595134347_rgbf000152-resize_5-target.png,250,1.993,7,3566,249,feet,jsons/v1_VE250_randls_14_rotated.json,463207,821100,32,Woman
129,216496,DepthScenes,duration_manipulation_targetAtFixation,jsons/v1_VE250_randls_14_rotated.json,http://54.235.29.9/FacialAge/BNav_EC2/DepthDuration/v2_depth_duration_MTurk/v2_DepthDuration_HTML.html#115,115,1280,629,1920,1080,8-29-2022,11-29-10,130,depth_duration_stimuli/001555_2014-06-20_17-12-10_260595134347_rgbf000065-resize_4/001555_2014-06-20_17-12-10_260595134347_rgbf000065-resize_4-target.png,250,1.633,2,1872,249,feet,jsons/v1_VE250_randls_14_rotated.json,463207,821100,32,Woman
130,216496,DepthScenes,duration_manipulation_targetAtFixation,jsons/v1_VE250_randls_14_rotated.json,http://54.235.29.9/FacialAge/BNav_EC2/DepthDuration/v2_depth_duration_MTurk/v2_DepthDuration_HTML.html#115,115,1280,629,1920,1080,8-29-2022,11-29-10,131,depth_duration_stimuli/001032_2014-06-08_13-23-17_260595134347_rgbf000021-resize_3/001032_2014-06-08_13-23-17_260595134347_rgbf000021-resize_3-target.png,250,3.2725,3,2678,245,feet,jsons/v1_VE250_randls_14_rotated.json,463207,821100,32,Woman
131,216496,DepthScenes,duration_manipulation_targetAtFixation,jsons/v1_VE250_randls_14_rotated.json,http://54.235.29.9/FacialAge/BNav_EC2/DepthDuration/v2_depth_duration_MTurk/v2_DepthDuration_HTML.html#115,115,1280,629,1920,1080,8-29-2022,11-29-10,132,depth_duration_stimuli/001059_2014-06-08_21-53-27_260595134347_rgbf000061-resize_4/001059_2014-06-08_21-53-27_260595134347_rgbf000061-resize_4-target.png,250,2.4185,4,3018,254,feet,jsons/v1_VE250_randls_14_rotated.json,463207,821100,32,Woman
132,216496,DepthScenes,duration_manipulation_targetAtFixation,jsons/v1_VE250_randls_14_rotated.json,http://54.235.29.9/FacialAge/BNav_EC2/DepthDuration/v2_depth_duration_MTurk/v2_DepthDuration_HTML.html#115,115,1280,629,1920,1080,8-29-2022,11-29-10,133,depth_duration_stimuli/002209_2014-06-28_18-36-10_260595134347_rgbf000051-resize_1/002209_2014-06-28_18-36-10_260595134347_rgbf000051-resize_1-target.png,250,2.057,0,2367,249,feet,jsons/v1_VE250_randls_14_rotated.json,463207,821100,32,Woman
133,216496,DepthScenes,duration_manipulation_targetAtFixation,jsons/v1_VE250_randls_14_rotated.json,http://54.235.29.9/FacialAge/BNav_EC2/DepthDuration/v2_depth_duration_MTurk/v2_DepthDuration_HTML.html#115,115,1280,629,1920,1080,8-29-2022,11-29-10,134,depth_duration_stimuli/002763_2014-06-22_19-13-10_094959634447_rgbf000075-resize_4/002763_2014-06-22_19-13-10_094959634447_rgbf000075-resize_4-target.png,250,1.68375,4,8285,252,feet,jsons/v1_VE250_randls_14_rotated.json,463207,821100,32,Woman
134,216496,DepthScenes,duration_manipulation_targetAtFixation,jsons/v1_VE250_randls_14_rotated.json,http://54.235.29.9/FacialAge/BNav_EC2/DepthDuration/v2_depth_duration_MTurk/v2_DepthDuration_HTML.html#115,115,1280,629,1920,1080,8-29-2022,11-29-10,135,depth_duration_stimuli/000375_2014-06-08_11-17-29_260595134347_rgbf000133-resize_2/000375_2014-06-08_11-17-29_260595134347_rgbf000133-resize-original.jpg,250,4.718,0,2007,248,feet,jsons/v1_VE250_randls_14_rotated.json,463207,821100,32,Woman
135,216496,DepthScenes,duration_manipulation_targetAtFixation,jsons/v1_VE250_randls_14_rotated.json,http://54.235.29.9/FacialAge/BNav_EC2/DepthDuration/v2_depth_duration_MTurk/v2_DepthDuration_HTML.html#115,115,1280,629,1920,1080,8-29-2022,11-29-10,136,depth_duration_stimuli/002875_2014-06-01_15-19-00_094959634447_rgbf000151-resize_1/002875_2014-06-01_15-19-00_094959634447_rgbf000151-resize_1-target.png,250,1.9675,4,2743,244,feet,jsons/v1_VE250_randls_14_rotated.json,463207,821100,32,Woman
136,216496,DepthScenes,duration_manipulation_targetAtFixation,jsons/v1_VE250_randls_14_rotated.json,http://54.235.29.9/FacialAge/BNav_EC2/DepthDuration/v2_depth_duration_MTurk/v2_DepthDuration_HTML.html#115,115,1280,629,1920,1080,8-29-2022,11-29-10,137,depth_duration_stimuli/001011_2014-06-08_23-18-54_260595134347_rgbf000044-resize_4/001011_2014-06-08_23-18-54_260595134347_rgbf000044-resize_4-target.png,250,2.4730000000000003,3,3120,250,feet,jsons/v1_VE250_randls_14_rotated.json,463207,821100,32,Woman
137,216496,DepthScenes,duration_manipulation_targetAtFixation,jsons/v1_VE250_randls_14_rotated.json,http://54.235.29.9/FacialAge/BNav_EC2/DepthDuration/v2_depth_duration_MTurk/v2_DepthDuration_HTML.html#115,115,1280,629,1920,1080,8-29-2022,11-29-10,138,depth_duration_stimuli/002660_2014-06-13_15-44-18_094959634447_rgbf001878-resize_2/002660_2014-06-13_15-44-18_094959634447_rgbf001878-resize_2-target.png,250,3.576,4,1766,245,feet,jsons/v1_VE250_randls_14_rotated.json,463207,821100,32,Woman
138,216496,DepthScenes,duration_manipulation_targetAtFixation,jsons/v1_VE250_randls_14_rotated.json,http://54.235.29.9/FacialAge/BNav_EC2/DepthDuration/v2_depth_duration_MTurk/v2_DepthDuration_HTML.html#115,115,1280,629,1920,1080,8-29-2022,11-29-10,139,depth_duration_stimuli/002153_2014-06-25_21-27-18_260595134347_rgbf000038-resize_5/002153_2014-06-25_21-27-18_260595134347_rgbf000038-resize_5-target.png,250,2.505,2,1664,247,feet,jsons/v1_VE250_randls_14_rotated.json,463207,821100,32,Woman
139,216496,DepthScenes,duration_manipulation_targetAtFixation,jsons/v1_VE250_randls_14_rotated.json,http://54.235.29.9/FacialAge/BNav_EC2/DepthDuration/v2_depth_duration_MTurk/v2_DepthDuration_HTML.html#115,115,1280,629,1920,1080,8-29-2022,11-29-10,140,depth_duration_stimuli/002136_2014-06-25_21-18-03_260595134347_rgbf000109-resize_3/002136_2014-06-25_21-18-03_260595134347_rgbf000109-resize_3-target.png,250,1.9569999999999999,2,1659,250,feet,jsons/v1_VE250_randls_14_rotated.json,463207,821100,32,Woman
140,216496,DepthScenes,duration_manipulation_targetAtFixation,jsons/v1_VE250_randls_14_rotated.json,http://54.235.29.9/FacialAge/BNav_EC2/DepthDuration/v2_depth_duration_MTurk/v2_DepthDuration_HTML.html#115,115,1280,629,1920,1080,8-29-2022,11-29-10,141,depth_duration_stimuli/002964_2014-06-08_17-46-11_094959634447_rgbf000091-resize_4/002964_2014-06-08_17-46-11_094959634447_rgbf000091-resize_4-target.png,250,1.6909999999999998,1,1594,252,feet,jsons/v1_VE250_randls_14_rotated.json,463207,821100,32,Woman
141,216496,DepthScenes,duration_manipulation_targetAtFixation,jsons/v1_VE250_randls_14_rotated.json,http://54.235.29.9/FacialAge/BNav_EC2/DepthDuration/v2_depth_duration_MTurk/v2_DepthDuration_HTML.html#115,115,1280,629,1920,1080,8-29-2022,11-29-10,142,depth_duration_stimuli/002953_2014-06-08_17-32-18_094959634447_rgbf000059-resize_5/002953_2014-06-08_17-32-18_094959634447_rgbf000059-resize_5-target.png,250,1.551,2,1576,252,feet,jsons/v1_VE250_randls_14_rotated.json,463207,821100,32,Woman
142,216496,DepthScenes,duration_manipulation_targetAtFixation,jsons/v1_VE250_randls_14_rotated.json,http://54.235.29.9/FacialAge/BNav_EC2/DepthDuration/v2_depth_duration_MTurk/v2_DepthDuration_HTML.html#115,115,1280,629,1920,1080,8-29-2022,11-29-10,143,depth_duration_stimuli/000878_2014-06-08_22-52-45_260595134347_rgbf000045-resize_2/000878_2014-06-08_22-52-45_260595134347_rgbf000045-resize_2-target.png,250,2.092,4,2207,245,feet,jsons/v1_VE250_randls_14_rotated.json,463207,821100,32,Woman
143,216496,DepthScenes,duration_manipulation_targetAtFixation,jsons/v1_VE250_randls_14_rotated.json,http://54.235.29.9/FacialAge/BNav_EC2/DepthDuration/v2_depth_duration_MTurk/v2_DepthDuration_HTML.html#115,115,1280,629,1920,1080,8-29-2022,11-29-10,144,depth_duration_stimuli/001132_2014-06-17_14-48-54_260595134347_rgbf000100-resize_2/001132_2014-06-17_14-48-54_260595134347_rgbf000100-resize_2-target.png,250,3.753,7,4052,246,feet,jsons/v1_VE250_randls_14_rotated.json,463207,821100,32,Woman
144,216496,DepthScenes,duration_manipulation_targetAtFixation,jsons/v1_VE250_randls_14_rotated.json,http://54.235.29.9/FacialAge/BNav_EC2/DepthDuration/v2_depth_duration_MTurk/v2_DepthDuration_HTML.html#115,115,1280,629,1920,1080,8-29-2022,11-29-10,145,depth_duration_stimuli/001133_2014-06-17_14-49-16_260595134347_rgbf000100-resize_0/001133_2014-06-17_14-49-16_260595134347_rgbf000100-resize_0-target.png,250,4.2115,7,1721,248,feet,jsons/v1_VE250_randls_14_rotated.json,463207,821100,32,Woman
145,216496,DepthScenes,duration_manipulation_targetAtFixation,jsons/v1_VE250_randls_14_rotated.json,http://54.235.29.9/FacialAge/BNav_EC2/DepthDuration/v2_depth_duration_MTurk/v2_DepthDuration_HTML.html#115,115,1280,629,1920,1080,8-29-2022,11-29-10,146,depth_duration_stimuli/002545_2014-06-24_13-38-53_094959634447_rgbf000080-resize_4/002545_2014-06-24_13-38-53_094959634447_rgbf000080-resize_4-target.png,250,1.9205,6,2185,252,feet,jsons/v1_VE250_randls_14_rotated.json,463207,821100,32,Woman
146,216496,DepthScenes,duration_manipulation_targetAtFixation,jsons/v1_VE250_randls_14_rotated.json,http://54.235.29.9/FacialAge/BNav_EC2/DepthDuration/v2_depth_duration_MTurk/v2_DepthDuration_HTML.html#115,115,1280,629,1920,1080,8-29-2022,11-29-10,147,depth_duration_stimuli/001092_2014-06-15_17-34-58_260595134347_rgbf000171-resize_3/001092_2014-06-15_17-34-58_260595134347_rgbf000171-resize_3-target.png,250,2.6935,3,1790,250,feet,jsons/v1_VE250_randls_14_rotated.json,463207,821100,32,Woman
147,216496,DepthScenes,duration_manipulation_targetAtFixation,jsons/v1_VE250_randls_14_rotated.json,http://54.235.29.9/FacialAge/BNav_EC2/DepthDuration/v2_depth_duration_MTurk/v2_DepthDuration_HTML.html#115,115,1280,629,1920,1080,8-29-2022,11-29-10,148,depth_duration_stimuli/000409_2014-06-04_19-23-33_260595134347_rgbf000067-resize_0/000409_2014-06-04_19-23-33_260595134347_rgbf000067-resize_0-target.png,250,3.7335,4,2421,249,feet,jsons/v1_VE250_randls_14_rotated.json,463207,821100,32,Woman
148,216496,DepthScenes,duration_manipulation_targetAtFixation,jsons/v1_VE250_randls_14_rotated.json,http://54.235.29.9/FacialAge/BNav_EC2/DepthDuration/v2_depth_duration_MTurk/v2_DepthDuration_HTML.html#115,115,1280,629,1920,1080,8-29-2022,11-29-10,149,depth_duration_stimuli/002663_2014-06-13_15-50-26_094959634447_rgbf000075-resize_1/002663_2014-06-13_15-50-26_094959634447_rgbf000075-resize_1-target.png,250,4.7495,6,4760,250,feet,jsons/v1_VE250_randls_14_rotated.json,463207,821100,32,Woman
149,216496,DepthScenes,duration_manipulation_targetAtFixation,jsons/v1_VE250_randls_14_rotated.json,http://54.235.29.9/FacialAge/BNav_EC2/DepthDuration/v2_depth_duration_MTurk/v2_DepthDuration_HTML.html#115,115,1280,629,1920,1080,8-29-2022,11-29-10,150,depth_duration_stimuli/000691_2014-06-08_13-08-50_260595134347_rgbf000132-resize_3/000691_2014-06-08_13-08-50_260595134347_rgbf000132-resize_3-target.png,250,4.1530000000000005,7,1671,252,feet,jsons/v1_VE250_randls_14_rotated.json,463207,821100,32,Woman
150,216496,DepthScenes,duration_manipulation_targetAtFixation,jsons/v1_VE250_randls_14_rotated.json,http://54.235.29.9/FacialAge/BNav_EC2/DepthDuration/v2_depth_duration_MTurk/v2_DepthDuration_HTML.html#115,115,1280,629,1920,1080,8-29-2022,11-29-10,151,depth_duration_stimuli/002213_2014-06-28_18-37-58_260595134347_rgbf000055-resize_1/002213_2014-06-28_18-37-58_260595134347_rgbf000055-resize_1-target.png,250,3.62,8,2037,255,feet,jsons/v1_VE250_randls_14_rotated.json,463207,821100,32,Woman
151,216496,DepthScenes,duration_manipulation_targetAtFixation,jsons/v1_VE250_randls_14_rotated.json,http://54.235.29.9/FacialAge/BNav_EC2/DepthDuration/v2_depth_duration_MTurk/v2_DepthDuration_HTML.html#115,115,1280,629,1920,1080,8-29-2022,11-29-10,152,depth_duration_stimuli/000569_2014-06-09_22-51-47_260595134347_rgbf000141-resize_3/000569_2014-06-09_22-51-47_260595134347_rgbf000141-resize-original.jpg,250,4.512,0,1917,245,feet,jsons/v1_VE250_randls_14_rotated.json,463207,821100,32,Woman
152,216496,DepthScenes,duration_manipulation_targetAtFixation,jsons/v1_VE250_randls_14_rotated.json,http://54.235.29.9/FacialAge/BNav_EC2/DepthDuration/v2_depth_duration_MTurk/v2_DepthDuration_HTML.html#115,115,1280,629,1920,1080,8-29-2022,11-29-10,153,depth_duration_stimuli/003048_2014-06-15_13-49-43_094959634447_rgbf000150-resize_1/003048_2014-06-15_13-49-43_094959634447_rgbf000150-resize_1-target.png,250,4.0035,7,2273,253,feet,jsons/v1_VE250_randls_14_rotated.json,463207,821100,32,Woman
153,216496,DepthScenes,duration_manipulation_targetAtFixation,jsons/v1_VE250_randls_14_rotated.json,http://54.235.29.9/FacialAge/BNav_EC2/DepthDuration/v2_depth_duration_MTurk/v2_DepthDuration_HTML.html#115,115,1280,629,1920,1080,8-29-2022,11-29-10,154,depth_duration_stimuli/002043_2014-06-24_20-29-38_260595134347_rgbf000039-resize_4/002043_2014-06-24_20-29-38_260595134347_rgbf000039-resize_4-target.png,250,2.8435,4,1772,252,feet,jsons/v1_VE250_randls_14_rotated.json,463207,821100,32,Woman
154,216496,DepthScenes,duration_manipulation_targetAtFixation,jsons/v1_VE250_randls_14_rotated.json,http://54.235.29.9/FacialAge/BNav_EC2/DepthDuration/v2_depth_duration_MTurk/v2_DepthDuration_HTML.html#115,115,1280,629,1920,1080,8-29-2022,11-29-10,155,depth_duration_stimuli/003490_2014-05-21_15-50-11_094959634447_rgbf000101-resize_3/003490_2014-05-21_15-50-11_094959634447_rgbf000101-resize_3-target.png,250,3.6445,7,1735,249,feet,jsons/v1_VE250_randls_14_rotated.json,463207,821100,32,Woman
155,216496,DepthScenes,duration_manipulation_targetAtFixation,jsons/v1_VE250_randls_14_rotated.json,http://54.235.29.9/FacialAge/BNav_EC2/DepthDuration/v2_depth_duration_MTurk/v2_DepthDuration_HTML.html#115,115,1280,629,1920,1080,8-29-2022,11-29-10,156,depth_duration_stimuli/001175_2014-06-17_15-45-55_260595134347_rgbf000129-resize_4/001175_2014-06-17_15-45-55_260595134347_rgbf000129-resize_4-target.png,250,4.255,7,1810,254,feet,jsons/v1_VE250_randls_14_rotated.json,463207,821100,32,Woman
156,216496,DepthScenes,duration_manipulation_targetAtFixation,jsons/v1_VE250_randls_14_rotated.json,http://54.235.29.9/FacialAge/BNav_EC2/DepthDuration/v2_depth_duration_MTurk/v2_DepthDuration_HTML.html#115,115,1280,629,1920,1080,8-29-2022,11-29-10,157,depth_duration_stimuli/000502_2014-06-08_23-02-32_260595134347_rgbf000063-resize_4/000502_2014-06-08_23-02-32_260595134347_rgbf000063-resize_4-target.png,250,2.431,3,2959,246,feet,jsons/v1_VE250_randls_14_rotated.json,463207,821100,32,Woman
157,216496,DepthScenes,duration_manipulation_targetAtFixation,jsons/v1_VE250_randls_14_rotated.json,http://54.235.29.9/FacialAge/BNav_EC2/DepthDuration/v2_depth_duration_MTurk/v2_DepthDuration_HTML.html#115,115,1280,629,1920,1080,8-29-2022,11-29-10,158,depth_duration_stimuli/001199_2014-06-17_16-03-48_260595134347_rgbf000077-resize_0/001199_2014-06-17_16-03-48_260595134347_rgbf000077-resize_0-target.png,250,3.4375,8,2092,245,feet,jsons/v1_VE250_randls_14_rotated.json,463207,821100,32,Woman
158,216496,DepthScenes,duration_manipulation_targetAtFixation,jsons/v1_VE250_randls_14_rotated.json,http://54.235.29.9/FacialAge/BNav_EC2/DepthDuration/v2_depth_duration_MTurk/v2_DepthDuration_HTML.html#115,115,1280,629,1920,1080,8-29-2022,11-29-10,159,depth_duration_stimuli/000734_2014-06-08_17-39-11_260595134347_rgbf000128-resize_2/000734_2014-06-08_17-39-11_260595134347_rgbf000128-resize_2-target.png,250,4.098,7,2047,249,feet,jsons/v1_VE250_randls_14_rotated.json,463207,821100,32,Woman
159,216496,DepthScenes,duration_manipulation_targetAtFixation,jsons/v1_VE250_randls_14_rotated.json,http://54.235.29.9/FacialAge/BNav_EC2/DepthDuration/v2_depth_duration_MTurk/v2_DepthDuration_HTML.html#115,115,1280,629,1920,1080,8-29-2022,11-29-10,160,depth_duration_stimuli/000739_2014-06-08_18-45-58_260595134347_rgbf000068-resize_1/000739_2014-06-08_18-45-58_260595134347_rgbf000068-resize_1-target.png,250,3.534,6,3699,250,feet,jsons/v1_VE250_randls_14_rotated.json,463207,821100,32,Woman
160,216496,DepthScenes,duration_manipulation_targetAtFixation,jsons/v1_VE250_randls_14_rotated.json,http://54.235.29.9/FacialAge/BNav_EC2/DepthDuration/v2_depth_duration_MTurk/v2_DepthDuration_HTML.html#115,115,1280,629,1920,1080,8-29-2022,11-29-10,161,depth_duration_stimuli/001450_2014-06-19_17-02-03_260595134347_rgbf000203-resize_4/001450_2014-06-19_17-02-03_260595134347_rgbf000203-resize_4-target.png,250,4.0106666666667,7,2039,249,feet,jsons/v1_VE250_randls_14_rotated.json,463207,821100,32,Woman
161,216496,DepthScenes,duration_manipulation_targetAtFixation,jsons/v1_VE250_randls_14_rotated.json,http://54.235.29.9/FacialAge/BNav_EC2/DepthDuration/v2_depth_duration_MTurk/v2_DepthDuration_HTML.html#115,115,1280,629,1920,1080,8-29-2022,11-29-10,162,depth_duration_stimuli/001449_2014-06-19_17-01-27_260595134347_rgbf000116-resize_2/001449_2014-06-19_17-01-27_260595134347_rgbf000116-resize_2-target.png,250,3.452,6,2499,253,feet,jsons/v1_VE250_randls_14_rotated.json,463207,821100,32,Woman
162,216496,DepthScenes,duration_manipulation_targetAtFixation,jsons/v1_VE250_randls_14_rotated.json,http://54.235.29.9/FacialAge/BNav_EC2/DepthDuration/v2_depth_duration_MTurk/v2_DepthDuration_HTML.html#115,115,1280,629,1920,1080,8-29-2022,11-29-10,163,depth_duration_stimuli/001584_2014-06-20_11-07-43_260595134347_rgbf000002-resize_1/001584_2014-06-20_11-07-43_260595134347_rgbf000002-resize_1-target.png,250,3.53,5,2221,247,feet,jsons/v1_VE250_randls_14_rotated.json,463207,821100,32,Woman
163,216496,DepthScenes,duration_manipulation_targetAtFixation,jsons/v1_VE250_randls_14_rotated.json,http://54.235.29.9/FacialAge/BNav_EC2/DepthDuration/v2_depth_duration_MTurk/v2_DepthDuration_HTML.html#115,115,1280,629,1920,1080,8-29-2022,11-29-10,164,depth_duration_stimuli/003621_2014-05-23_18-06-08_094959634447_rgbf000101-resize_1/003621_2014-05-23_18-06-08_094959634447_rgbf000101-resize_1-target.png,250,3.9835,0,2267,253,feet,jsons/v1_VE250_randls_14_rotated.json,463207,821100,32,Woman
