,subjID,experimentName,versionName,sequenceName,url,selected_row,windowWidth,windowHeight,screenWidth,screenHeight,startDate,startTime,trial,stimulus,duration,actual_depth,depth_estimate,trial_RT,log_sceneDuration,unitSelection,seq_filepath,experimentTime,totalTime,age,gender
0,217858,DepthScenes,duration_manipulation_targetAtFixation,jsons/VE125_randls_5_rotated.json,http://54.235.29.9/FacialAge/BNav_EC2/DepthDuration/v2_depth_duration_MTurk/v2_DepthDuration_HTML.html#36,36,1881,888,1920,1080,8-29-2022,11-27-8,1,depth_duration_stimuli/000483_2014-06-09_20-41-45_260595134347_rgbf000116-resize_4/000483_2014-06-09_20-41-45_260595134347_rgbf000116-resize_4-target.png,125,1.337,3,2595,125,feet,jsons/VE125_randls_5_rotated.json,599405,854139,37,Woman
1,217858,DepthScenes,duration_manipulation_targetAtFixation,jsons/VE125_randls_5_rotated.json,http://54.235.29.9/FacialAge/BNav_EC2/DepthDuration/v2_depth_duration_MTurk/v2_DepthDuration_HTML.html#36,36,1881,888,1920,1080,8-29-2022,11-27-8,2,depth_duration_stimuli/000469_2014-06-09_19-42-10_260595134347_rgbf000081-resize_1/000469_2014-06-09_19-42-10_260595134347_rgbf000081-resize_1-target.png,125,1.652,2,68521,124,feet,jsons/VE125_randls_5_rotated.json,599405,854139,37,Woman
2,217858,DepthScenes,duration_manipulation_targetAtFixation,jsons/VE125_randls_5_rotated.json,http://54.235.29.9/FacialAge/BNav_EC2/DepthDuration/v2_depth_duration_MTurk/v2_DepthDuration_HTML.html#36,36,1881,888,1920,1080,8-29-2022,11-27-8,3,depth_duration_stimuli/001136_2014-06-17_15-19-41_260595134347_rgbf000076-resize_3/001136_2014-06-17_15-19-41_260595134347_rgbf000076-resize_3-target.png,125,1.8655,1,3467,125,feet,jsons/VE125_randls_5_rotated.json,599405,854139,37,Woman
3,217858,DepthScenes,duration_manipulation_targetAtFixation,jsons/VE125_randls_5_rotated.json,http://54.235.29.9/FacialAge/BNav_EC2/DepthDuration/v2_depth_duration_MTurk/v2_DepthDuration_HTML.html#36,36,1881,888,1920,1080,8-29-2022,11-27-8,4,depth_duration_stimuli/001164_2014-06-17_15-35-46_260595134347_rgbf000085-resize_3/001164_2014-06-17_15-35-46_260595134347_rgbf000085-resize_3-target.png,125,2.354,2,2129,123,feet,jsons/VE125_randls_5_rotated.json,599405,854139,37,Woman
4,217858,DepthScenes,duration_manipulation_targetAtFixation,jsons/VE125_randls_5_rotated.json,http://54.235.29.9/FacialAge/BNav_EC2/DepthDuration/v2_depth_duration_MTurk/v2_DepthDuration_HTML.html#36,36,1881,888,1920,1080,8-29-2022,11-27-8,5,depth_duration_stimuli/002953_2014-06-08_17-32-18_094959634447_rgbf000059-resize_5/002953_2014-06-08_17-32-18_094959634447_rgbf000059-resize_5-target.png,125,1.551,2,1981,119,feet,jsons/VE125_randls_5_rotated.json,599405,854139,37,Woman
5,217858,DepthScenes,duration_manipulation_targetAtFixation,jsons/VE125_randls_5_rotated.json,http://54.235.29.9/FacialAge/BNav_EC2/DepthDuration/v2_depth_duration_MTurk/v2_DepthDuration_HTML.html#36,36,1881,888,1920,1080,8-29-2022,11-27-8,6,depth_duration_stimuli/000878_2014-06-08_22-52-45_260595134347_rgbf000045-resize_2/000878_2014-06-08_22-52-45_260595134347_rgbf000045-resize_2-target.png,125,2.092,3,4361,127,feet,jsons/VE125_randls_5_rotated.json,599405,854139,37,Woman
6,217858,DepthScenes,duration_manipulation_targetAtFixation,jsons/VE125_randls_5_rotated.json,http://54.235.29.9/FacialAge/BNav_EC2/DepthDuration/v2_depth_duration_MTurk/v2_DepthDuration_HTML.html#36,36,1881,888,1920,1080,8-29-2022,11-27-8,7,depth_duration_stimuli/001828_2014-06-26_21-40-03_260595134347_rgbf000024-resize_0/001828_2014-06-26_21-40-03_260595134347_rgbf000024-resize_0-target.png,125,4.8260000000000005,3,3298,121,feet,jsons/VE125_randls_5_rotated.json,599405,854139,37,Woman
7,217858,DepthScenes,duration_manipulation_targetAtFixation,jsons/VE125_randls_5_rotated.json,http://54.235.29.9/FacialAge/BNav_EC2/DepthDuration/v2_depth_duration_MTurk/v2_DepthDuration_HTML.html#36,36,1881,888,1920,1080,8-29-2022,11-27-8,8,depth_duration_stimuli/000009_2014-05-26_14-32-05_260595134347_rgbf000034-resize_3/000009_2014-05-26_14-32-05_260595134347_rgbf000034-resize_3-target.png,125,3.8715,4,4456,126,feet,jsons/VE125_randls_5_rotated.json,599405,854139,37,Woman
8,217858,DepthScenes,duration_manipulation_targetAtFixation,jsons/VE125_randls_5_rotated.json,http://54.235.29.9/FacialAge/BNav_EC2/DepthDuration/v2_depth_duration_MTurk/v2_DepthDuration_HTML.html#36,36,1881,888,1920,1080,8-29-2022,11-27-8,9,depth_duration_stimuli/000409_2014-06-04_19-23-33_260595134347_rgbf000067-resize_0/000409_2014-06-04_19-23-33_260595134347_rgbf000067-resize_0-target.png,125,3.7335,5,4420,126,feet,jsons/VE125_randls_5_rotated.json,599405,854139,37,Woman
9,217858,DepthScenes,duration_manipulation_targetAtFixation,jsons/VE125_randls_5_rotated.json,http://54.235.29.9/FacialAge/BNav_EC2/DepthDuration/v2_depth_duration_MTurk/v2_DepthDuration_HTML.html#36,36,1881,888,1920,1080,8-29-2022,11-27-8,10,depth_duration_stimuli/002663_2014-06-13_15-50-26_094959634447_rgbf000075-resize_1/002663_2014-06-13_15-50-26_094959634447_rgbf000075-resize_1-target.png,125,4.7495,3,4293,117,feet,jsons/VE125_randls_5_rotated.json,599405,854139,37,Woman
10,217858,DepthScenes,duration_manipulation_targetAtFixation,jsons/VE125_randls_5_rotated.json,http://54.235.29.9/FacialAge/BNav_EC2/DepthDuration/v2_depth_duration_MTurk/v2_DepthDuration_HTML.html#36,36,1881,888,1920,1080,8-29-2022,11-27-8,11,depth_duration_stimuli/001052_2014-06-08_18-24-54_260595134347_rgbf000130-resize_1/001052_2014-06-08_18-24-54_260595134347_rgbf000130-resize_1-target.png,125,4.1045,4,3660,125,feet,jsons/VE125_randls_5_rotated.json,599405,854139,37,Woman
11,217858,DepthScenes,duration_manipulation_targetAtFixation,jsons/VE125_randls_5_rotated.json,http://54.235.29.9/FacialAge/BNav_EC2/DepthDuration/v2_depth_duration_MTurk/v2_DepthDuration_HTML.html#36,36,1881,888,1920,1080,8-29-2022,11-27-8,12,depth_duration_stimuli/002988_2014-06-15_12-24-20_094959634447_rgbf000150-resize_1/002988_2014-06-15_12-24-20_094959634447_rgbf000150-resize_1-target.png,125,4.7669999999999995,5,3395,125,feet,jsons/VE125_randls_5_rotated.json,599405,854139,37,Woman
12,217858,DepthScenes,duration_manipulation_targetAtFixation,jsons/VE125_randls_5_rotated.json,http://54.235.29.9/FacialAge/BNav_EC2/DepthDuration/v2_depth_duration_MTurk/v2_DepthDuration_HTML.html#36,36,1881,888,1920,1080,8-29-2022,11-27-8,13,depth_duration_stimuli/003048_2014-06-15_13-49-43_094959634447_rgbf000150-resize_1/003048_2014-06-15_13-49-43_094959634447_rgbf000150-resize_1-target.png,125,4.0035,4,2096,125,feet,jsons/VE125_randls_5_rotated.json,599405,854139,37,Woman
13,217858,DepthScenes,duration_manipulation_targetAtFixation,jsons/VE125_randls_5_rotated.json,http://54.235.29.9/FacialAge/BNav_EC2/DepthDuration/v2_depth_duration_MTurk/v2_DepthDuration_HTML.html#36,36,1881,888,1920,1080,8-29-2022,11-27-8,14,depth_duration_stimuli/002043_2014-06-24_20-29-38_260595134347_rgbf000039-resize_4/002043_2014-06-24_20-29-38_260595134347_rgbf000039-resize_4-target.png,125,2.8435,3,2502,110,feet,jsons/VE125_randls_5_rotated.json,599405,854139,37,Woman
14,217858,DepthScenes,duration_manipulation_targetAtFixation,jsons/VE125_randls_5_rotated.json,http://54.235.29.9/FacialAge/BNav_EC2/DepthDuration/v2_depth_duration_MTurk/v2_DepthDuration_HTML.html#36,36,1881,888,1920,1080,8-29-2022,11-27-8,15,depth_duration_stimuli/000665_2014-06-09_20-42-35_260595134347_rgbf000110-resize_1/000665_2014-06-09_20-42-35_260595134347_rgbf000110-resize_1-target.png,125,3.057,4,3122,111,feet,jsons/VE125_randls_5_rotated.json,599405,854139,37,Woman
15,217858,DepthScenes,duration_manipulation_targetAtFixation,jsons/VE125_randls_5_rotated.json,http://54.235.29.9/FacialAge/BNav_EC2/DepthDuration/v2_depth_duration_MTurk/v2_DepthDuration_HTML.html#36,36,1881,888,1920,1080,8-29-2022,11-27-8,16,depth_duration_stimuli/001150_2014-06-17_15-27-34_260595134347_rgbf000108-resize_2/001150_2014-06-17_15-27-34_260595134347_rgbf000108-resize_2-target.png,125,4.0325,4,2446,125,feet,jsons/VE125_randls_5_rotated.json,599405,854139,37,Woman
16,217858,DepthScenes,duration_manipulation_targetAtFixation,jsons/VE125_randls_5_rotated.json,http://54.235.29.9/FacialAge/BNav_EC2/DepthDuration/v2_depth_duration_MTurk/v2_DepthDuration_HTML.html#36,36,1881,888,1920,1080,8-29-2022,11-27-8,17,depth_duration_stimuli/002875_2014-06-01_15-19-00_094959634447_rgbf000151-resize_1/002875_2014-06-01_15-19-00_094959634447_rgbf000151-resize_1-target.png,125,1.9675,3,2604,126,feet,jsons/VE125_randls_5_rotated.json,599405,854139,37,Woman
17,217858,DepthScenes,duration_manipulation_targetAtFixation,jsons/VE125_randls_5_rotated.json,http://54.235.29.9/FacialAge/BNav_EC2/DepthDuration/v2_depth_duration_MTurk/v2_DepthDuration_HTML.html#36,36,1881,888,1920,1080,8-29-2022,11-27-8,18,depth_duration_stimuli/001011_2014-06-08_23-18-54_260595134347_rgbf000044-resize_4/001011_2014-06-08_23-18-54_260595134347_rgbf000044-resize_4-target.png,125,2.4730000000000003,4,3465,124,feet,jsons/VE125_randls_5_rotated.json,599405,854139,37,Woman
18,217858,DepthScenes,duration_manipulation_targetAtFixation,jsons/VE125_randls_5_rotated.json,http://54.235.29.9/FacialAge/BNav_EC2/DepthDuration/v2_depth_duration_MTurk/v2_DepthDuration_HTML.html#36,36,1881,888,1920,1080,8-29-2022,11-27-8,19,depth_duration_stimuli/001498_2014-06-19_17-45-14_260595134347_rgbf000129-resize_4/001498_2014-06-19_17-45-14_260595134347_rgbf000129-resize-original.jpg,125,1.4075,0,3161,125,feet,jsons/VE125_randls_5_rotated.json,599405,854139,37,Woman
19,217858,DepthScenes,duration_manipulation_targetAtFixation,jsons/VE125_randls_5_rotated.json,http://54.235.29.9/FacialAge/BNav_EC2/DepthDuration/v2_depth_duration_MTurk/v2_DepthDuration_HTML.html#36,36,1881,888,1920,1080,8-29-2022,11-27-8,20,depth_duration_stimuli/000927_2014-06-09_16-32-30_260595134347_rgbf000123-resize_3/000927_2014-06-09_16-32-30_260595134347_rgbf000123-resize_3-target.png,125,2.6785,2,2186,129,feet,jsons/VE125_randls_5_rotated.json,599405,854139,37,Woman
20,217858,DepthScenes,duration_manipulation_targetAtFixation,jsons/VE125_randls_5_rotated.json,http://54.235.29.9/FacialAge/BNav_EC2/DepthDuration/v2_depth_duration_MTurk/v2_DepthDuration_HTML.html#36,36,1881,888,1920,1080,8-29-2022,11-27-8,21,depth_duration_stimuli/001110_2014-06-15_17-25-28_260595134347_rgbf000150-resize_1/001110_2014-06-15_17-25-28_260595134347_rgbf000150-resize_1-target.png,125,1.7115,3,1737,113,feet,jsons/VE125_randls_5_rotated.json,599405,854139,37,Woman
21,217858,DepthScenes,duration_manipulation_targetAtFixation,jsons/VE125_randls_5_rotated.json,http://54.235.29.9/FacialAge/BNav_EC2/DepthDuration/v2_depth_duration_MTurk/v2_DepthDuration_HTML.html#36,36,1881,888,1920,1080,8-29-2022,11-27-8,22,depth_duration_stimuli/003338_2014-05-20_11-01-23_094959634447_rgbf000051-resize_6/003338_2014-05-20_11-01-23_094959634447_rgbf000051-resize_6-target.png,125,1.693,2,1849,110,feet,jsons/VE125_randls_5_rotated.json,599405,854139,37,Woman
22,217858,DepthScenes,duration_manipulation_targetAtFixation,jsons/VE125_randls_5_rotated.json,http://54.235.29.9/FacialAge/BNav_EC2/DepthDuration/v2_depth_duration_MTurk/v2_DepthDuration_HTML.html#36,36,1881,888,1920,1080,8-29-2022,11-27-8,23,depth_duration_stimuli/002509_2014-06-24_13-19-22_094959634447_rgbf000077-resize_0/002509_2014-06-24_13-19-22_094959634447_rgbf000077-resize_0-target.png,125,1.3065,2,1987,119,feet,jsons/VE125_randls_5_rotated.json,599405,854139,37,Woman
23,217858,DepthScenes,duration_manipulation_targetAtFixation,jsons/VE125_randls_5_rotated.json,http://54.235.29.9/FacialAge/BNav_EC2/DepthDuration/v2_depth_duration_MTurk/v2_DepthDuration_HTML.html#36,36,1881,888,1920,1080,8-29-2022,11-27-8,24,depth_duration_stimuli/002103_2014-06-25_20-00-40_260595134347_rgbf000049-resize_0/002103_2014-06-25_20-00-40_260595134347_rgbf000049-resize_0-target.png,125,4.105,3,2127,123,feet,jsons/VE125_randls_5_rotated.json,599405,854139,37,Woman
24,217858,DepthScenes,duration_manipulation_targetAtFixation,jsons/VE125_randls_5_rotated.json,http://54.235.29.9/FacialAge/BNav_EC2/DepthDuration/v2_depth_duration_MTurk/v2_DepthDuration_HTML.html#36,36,1881,888,1920,1080,8-29-2022,11-27-8,25,depth_duration_stimuli/002039_2014-06-24_20-22-38_260595134347_rgbf000084-resize_1/002039_2014-06-24_20-22-38_260595134347_rgbf000084-resize_1-target.png,125,4.408,5,1921,117,feet,jsons/VE125_randls_5_rotated.json,599405,854139,37,Woman
25,217858,DepthScenes,duration_manipulation_targetAtFixation,jsons/VE125_randls_5_rotated.json,http://54.235.29.9/FacialAge/BNav_EC2/DepthDuration/v2_depth_duration_MTurk/v2_DepthDuration_HTML.html#36,36,1881,888,1920,1080,8-29-2022,11-27-8,26,depth_duration_stimuli/002750_2014-06-22_19-08-03_094959634447_rgbf000094-resize_4/002750_2014-06-22_19-08-03_094959634447_rgbf000094-resize_4-target.png,125,2.354,3,4707,124,feet,jsons/VE125_randls_5_rotated.json,599405,854139,37,Woman
26,217858,DepthScenes,duration_manipulation_targetAtFixation,jsons/VE125_randls_5_rotated.json,http://54.235.29.9/FacialAge/BNav_EC2/DepthDuration/v2_depth_duration_MTurk/v2_DepthDuration_HTML.html#36,36,1881,888,1920,1080,8-29-2022,11-27-8,27,depth_duration_stimuli/002549_2014-06-24_13-41-39_094959634447_rgbf000022-resize_3/002549_2014-06-24_13-41-39_094959634447_rgbf000022-resize_3-target.png,125,1.476,2,2184,113,feet,jsons/VE125_randls_5_rotated.json,599405,854139,37,Woman
27,217858,DepthScenes,duration_manipulation_targetAtFixation,jsons/VE125_randls_5_rotated.json,http://54.235.29.9/FacialAge/BNav_EC2/DepthDuration/v2_depth_duration_MTurk/v2_DepthDuration_HTML.html#36,36,1881,888,1920,1080,8-29-2022,11-27-8,28,depth_duration_stimuli/000677_2014-06-08_23-10-32_260595134347_rgbf000158-resize_6/000677_2014-06-08_23-10-32_260595134347_rgbf000158-resize_6-target.png,125,3.556,3,1835,123,feet,jsons/VE125_randls_5_rotated.json,599405,854139,37,Woman
28,217858,DepthScenes,duration_manipulation_targetAtFixation,jsons/VE125_randls_5_rotated.json,http://54.235.29.9/FacialAge/BNav_EC2/DepthDuration/v2_depth_duration_MTurk/v2_DepthDuration_HTML.html#36,36,1881,888,1920,1080,8-29-2022,11-27-8,29,depth_duration_stimuli/001029_2014-06-08_13-17-57_260595134347_rgbf000065-resize_1/001029_2014-06-08_13-17-57_260595134347_rgbf000065-resize_1-target.png,125,3.0835,3,1852,115,feet,jsons/VE125_randls_5_rotated.json,599405,854139,37,Woman
29,217858,DepthScenes,duration_manipulation_targetAtFixation,jsons/VE125_randls_5_rotated.json,http://54.235.29.9/FacialAge/BNav_EC2/DepthDuration/v2_depth_duration_MTurk/v2_DepthDuration_HTML.html#36,36,1881,888,1920,1080,8-29-2022,11-27-8,30,depth_duration_stimuli/002072_2014-06-24_21-48-06_260595134347_rgbf000115-resize_0/002072_2014-06-24_21-48-06_260595134347_rgbf000115-resize-original.jpg,125,4.702,0,2869,125,feet,jsons/VE125_randls_5_rotated.json,599405,854139,37,Woman
30,217858,DepthScenes,duration_manipulation_targetAtFixation,jsons/VE125_randls_5_rotated.json,http://54.235.29.9/FacialAge/BNav_EC2/DepthDuration/v2_depth_duration_MTurk/v2_DepthDuration_HTML.html#36,36,1881,888,1920,1080,8-29-2022,11-27-8,31,depth_duration_stimuli/001100_2014-06-15_17-46-26_260595134347_rgbf000225-resize_2/001100_2014-06-15_17-46-26_260595134347_rgbf000225-resize_2-target.png,125,2.24,3,2606,111,feet,jsons/VE125_randls_5_rotated.json,599405,854139,37,Woman
31,217858,DepthScenes,duration_manipulation_targetAtFixation,jsons/VE125_randls_5_rotated.json,http://54.235.29.9/FacialAge/BNav_EC2/DepthDuration/v2_depth_duration_MTurk/v2_DepthDuration_HTML.html#36,36,1881,888,1920,1080,8-29-2022,11-27-8,32,depth_duration_stimuli/002784_2014-06-22_19-26-30_094959634447_rgbf000083-resize_3/002784_2014-06-22_19-26-30_094959634447_rgbf000083-resize_3-target.png,125,1.8046666666667,2,1828,109,feet,jsons/VE125_randls_5_rotated.json,599405,854139,37,Woman
32,217858,DepthScenes,duration_manipulation_targetAtFixation,jsons/VE125_randls_5_rotated.json,http://54.235.29.9/FacialAge/BNav_EC2/DepthDuration/v2_depth_duration_MTurk/v2_DepthDuration_HTML.html#36,36,1881,888,1920,1080,8-29-2022,11-27-8,33,depth_duration_stimuli/000742_2014-06-08_18-48-09_260595134347_rgbf000164-resize_4/000742_2014-06-08_18-48-09_260595134347_rgbf000164-resize_4-target.png,125,4.632,4,2237,123,feet,jsons/VE125_randls_5_rotated.json,599405,854139,37,Woman
33,217858,DepthScenes,duration_manipulation_targetAtFixation,jsons/VE125_randls_5_rotated.json,http://54.235.29.9/FacialAge/BNav_EC2/DepthDuration/v2_depth_duration_MTurk/v2_DepthDuration_HTML.html#36,36,1881,888,1920,1080,8-29-2022,11-27-8,34,depth_duration_stimuli/001066_2014-06-08_22-03-20_260595134347_rgbf000066-resize_4/001066_2014-06-08_22-03-20_260595134347_rgbf000066-resize_4-target.png,125,4.2330000000000005,5,1974,139,feet,jsons/VE125_randls_5_rotated.json,599405,854139,37,Woman
34,217858,DepthScenes,duration_manipulation_targetAtFixation,jsons/VE125_randls_5_rotated.json,http://54.235.29.9/FacialAge/BNav_EC2/DepthDuration/v2_depth_duration_MTurk/v2_DepthDuration_HTML.html#36,36,1881,888,1920,1080,8-29-2022,11-27-8,35,depth_duration_stimuli/002995_2014-06-15_12-31-26_094959634447_rgbf000150-resize_1/002995_2014-06-15_12-31-26_094959634447_rgbf000150-resize_1-target.png,125,3.8360000000000003,4,1871,124,feet,jsons/VE125_randls_5_rotated.json,599405,854139,37,Woman
35,217858,DepthScenes,duration_manipulation_targetAtFixation,jsons/VE125_randls_5_rotated.json,http://54.235.29.9/FacialAge/BNav_EC2/DepthDuration/v2_depth_duration_MTurk/v2_DepthDuration_HTML.html#36,36,1881,888,1920,1080,8-29-2022,11-27-8,36,depth_duration_stimuli/002748_2014-06-22_19-07-22_094959634447_rgbf000078-resize_1/002748_2014-06-22_19-07-22_094959634447_rgbf000078-resize_1-target.png,125,4.6705,6,2037,123,feet,jsons/VE125_randls_5_rotated.json,599405,854139,37,Woman
36,217858,DepthScenes,duration_manipulation_targetAtFixation,jsons/VE125_randls_5_rotated.json,http://54.235.29.9/FacialAge/BNav_EC2/DepthDuration/v2_depth_duration_MTurk/v2_DepthDuration_HTML.html#36,36,1881,888,1920,1080,8-29-2022,11-27-8,37,depth_duration_stimuli/000943_2014-06-09_19-31-07_260595134347_rgbf000128-resize_1/000943_2014-06-09_19-31-07_260595134347_rgbf000128-resize_1-target.png,125,1.9765,3,1838,118,feet,jsons/VE125_randls_5_rotated.json,599405,854139,37,Woman
37,217858,DepthScenes,duration_manipulation_targetAtFixation,jsons/VE125_randls_5_rotated.json,http://54.235.29.9/FacialAge/BNav_EC2/DepthDuration/v2_depth_duration_MTurk/v2_DepthDuration_HTML.html#36,36,1881,888,1920,1080,8-29-2022,11-27-8,38,depth_duration_stimuli/003070_2014-06-15_14-58-27_094959634447_rgbf000150-resize_3/003070_2014-06-15_14-58-27_094959634447_rgbf000150-resize_3-target.png,125,2.9415,4,1983,111,feet,jsons/VE125_randls_5_rotated.json,599405,854139,37,Woman
38,217858,DepthScenes,duration_manipulation_targetAtFixation,jsons/VE125_randls_5_rotated.json,http://54.235.29.9/FacialAge/BNav_EC2/DepthDuration/v2_depth_duration_MTurk/v2_DepthDuration_HTML.html#36,36,1881,888,1920,1080,8-29-2022,11-27-8,39,depth_duration_stimuli/000780_2014-06-08_22-28-29_260595134347_rgbf000126-resize_1/000780_2014-06-08_22-28-29_260595134347_rgbf000126-resize_1-target.png,125,3.3825,4,2068,110,feet,jsons/VE125_randls_5_rotated.json,599405,854139,37,Woman
39,217858,DepthScenes,duration_manipulation_targetAtFixation,jsons/VE125_randls_5_rotated.json,http://54.235.29.9/FacialAge/BNav_EC2/DepthDuration/v2_depth_duration_MTurk/v2_DepthDuration_HTML.html#36,36,1881,888,1920,1080,8-29-2022,11-27-8,40,depth_duration_stimuli/002445_2014-06-28_20-32-16_260595134347_rgbf000029-resize_4/002445_2014-06-28_20-32-16_260595134347_rgbf000029-resize_4-target.png,125,2.5315,3,1998,124,feet,jsons/VE125_randls_5_rotated.json,599405,854139,37,Woman
40,217858,DepthScenes,duration_manipulation_targetAtFixation,jsons/VE125_randls_5_rotated.json,http://54.235.29.9/FacialAge/BNav_EC2/DepthDuration/v2_depth_duration_MTurk/v2_DepthDuration_HTML.html#36,36,1881,888,1920,1080,8-29-2022,11-27-8,41,depth_duration_stimuli/002949_2014-06-26_15-57-42_094959634447_rgbf000079-resize_1/002949_2014-06-26_15-57-42_094959634447_rgbf000079-resize_1-target.png,125,1.8915,2,2012,125,feet,jsons/VE125_randls_5_rotated.json,599405,854139,37,Woman
41,217858,DepthScenes,duration_manipulation_targetAtFixation,jsons/VE125_randls_5_rotated.json,http://54.235.29.9/FacialAge/BNav_EC2/DepthDuration/v2_depth_duration_MTurk/v2_DepthDuration_HTML.html#36,36,1881,888,1920,1080,8-29-2022,11-27-8,42,depth_duration_stimuli/000522_2014-06-08_13-35-06_260595134347_rgbf000244-resize_1/000522_2014-06-08_13-35-06_260595134347_rgbf000244-resize_1-target.png,125,2.3715,3,3373,132,feet,jsons/VE125_randls_5_rotated.json,599405,854139,37,Woman
42,217858,DepthScenes,duration_manipulation_targetAtFixation,jsons/VE125_randls_5_rotated.json,http://54.235.29.9/FacialAge/BNav_EC2/DepthDuration/v2_depth_duration_MTurk/v2_DepthDuration_HTML.html#36,36,1881,888,1920,1080,8-29-2022,11-27-8,43,depth_duration_stimuli/000866_2014-06-09_20-45-42_260595134347_rgbf000139-resize_1/000866_2014-06-09_20-45-42_260595134347_rgbf000139-resize_1-target.png,125,3.2155,3,1900,124,feet,jsons/VE125_randls_5_rotated.json,599405,854139,37,Woman
43,217858,DepthScenes,duration_manipulation_targetAtFixation,jsons/VE125_randls_5_rotated.json,http://54.235.29.9/FacialAge/BNav_EC2/DepthDuration/v2_depth_duration_MTurk/v2_DepthDuration_HTML.html#36,36,1881,888,1920,1080,8-29-2022,11-27-8,44,depth_duration_stimuli/002989_2014-06-15_12-25-03_094959634447_rgbf000150-resize_3/002989_2014-06-15_12-25-03_094959634447_rgbf000150-resize_3-target.png,125,4.1975,4,1867,125,feet,jsons/VE125_randls_5_rotated.json,599405,854139,37,Woman
44,217858,DepthScenes,duration_manipulation_targetAtFixation,jsons/VE125_randls_5_rotated.json,http://54.235.29.9/FacialAge/BNav_EC2/DepthDuration/v2_depth_duration_MTurk/v2_DepthDuration_HTML.html#36,36,1881,888,1920,1080,8-29-2022,11-27-8,45,depth_duration_stimuli/002414_2014-06-28_20-24-58_260595134347_rgbf000067-resize_4/002414_2014-06-28_20-24-58_260595134347_rgbf000067-resize_4-target.png,125,4.363,5,3720,119,feet,jsons/VE125_randls_5_rotated.json,599405,854139,37,Woman
45,217858,DepthScenes,duration_manipulation_targetAtFixation,jsons/VE125_randls_5_rotated.json,http://54.235.29.9/FacialAge/BNav_EC2/DepthDuration/v2_depth_duration_MTurk/v2_DepthDuration_HTML.html#36,36,1881,888,1920,1080,8-29-2022,11-27-8,46,depth_duration_stimuli/000773_2014-06-08_22-24-54_260595134347_rgbf000093-resize_1/000773_2014-06-08_22-24-54_260595134347_rgbf000093-resize_1-target.png,125,4.973,4,1912,113,feet,jsons/VE125_randls_5_rotated.json,599405,854139,37,Woman
46,217858,DepthScenes,duration_manipulation_targetAtFixation,jsons/VE125_randls_5_rotated.json,http://54.235.29.9/FacialAge/BNav_EC2/DepthDuration/v2_depth_duration_MTurk/v2_DepthDuration_HTML.html#36,36,1881,888,1920,1080,8-29-2022,11-27-8,47,depth_duration_stimuli/000749_2014-06-08_21-55-06_260595134347_rgbf000070-resize_2/000749_2014-06-08_21-55-06_260595134347_rgbf000070-resize_2-target.png,125,2.331,5,2167,124,feet,jsons/VE125_randls_5_rotated.json,599405,854139,37,Woman
47,217858,DepthScenes,duration_manipulation_targetAtFixation,jsons/VE125_randls_5_rotated.json,http://54.235.29.9/FacialAge/BNav_EC2/DepthDuration/v2_depth_duration_MTurk/v2_DepthDuration_HTML.html#36,36,1881,888,1920,1080,8-29-2022,11-27-8,48,depth_duration_stimuli/002788_2014-06-22_19-36-03_094959634447_rgbf000088-resize_2/002788_2014-06-22_19-36-03_094959634447_rgbf000088-resize_2-target.png,125,1.6465,3,1744,110,feet,jsons/VE125_randls_5_rotated.json,599405,854139,37,Woman
48,217858,DepthScenes,duration_manipulation_targetAtFixation,jsons/VE125_randls_5_rotated.json,http://54.235.29.9/FacialAge/BNav_EC2/DepthDuration/v2_depth_duration_MTurk/v2_DepthDuration_HTML.html#36,36,1881,888,1920,1080,8-29-2022,11-27-8,49,depth_duration_stimuli/001170_2014-06-17_15-43-44_260595134347_rgbf000096-resize_6/001170_2014-06-17_15-43-44_260595134347_rgbf000096-resize-original.jpg,125,1.1909999999999998,0,3173,124,feet,jsons/VE125_randls_5_rotated.json,599405,854139,37,Woman
49,217858,DepthScenes,duration_manipulation_targetAtFixation,jsons/VE125_randls_5_rotated.json,http://54.235.29.9/FacialAge/BNav_EC2/DepthDuration/v2_depth_duration_MTurk/v2_DepthDuration_HTML.html#36,36,1881,888,1920,1080,8-29-2022,11-27-8,50,depth_duration_stimuli/002209_2014-06-28_18-36-10_260595134347_rgbf000051-resize_1/002209_2014-06-28_18-36-10_260595134347_rgbf000051-resize_1-target.png,125,2.057,3,1966,124,feet,jsons/VE125_randls_5_rotated.json,599405,854139,37,Woman
50,217858,DepthScenes,duration_manipulation_targetAtFixation,jsons/VE125_randls_5_rotated.json,http://54.235.29.9/FacialAge/BNav_EC2/DepthDuration/v2_depth_duration_MTurk/v2_DepthDuration_HTML.html#36,36,1881,888,1920,1080,8-29-2022,11-27-8,51,depth_duration_stimuli/002763_2014-06-22_19-13-10_094959634447_rgbf000075-resize_4/002763_2014-06-22_19-13-10_094959634447_rgbf000075-resize_4-target.png,125,1.68375,3,1716,125,feet,jsons/VE125_randls_5_rotated.json,599405,854139,37,Woman
51,217858,DepthScenes,duration_manipulation_targetAtFixation,jsons/VE125_randls_5_rotated.json,http://54.235.29.9/FacialAge/BNav_EC2/DepthDuration/v2_depth_duration_MTurk/v2_DepthDuration_HTML.html#36,36,1881,888,1920,1080,8-29-2022,11-27-8,52,depth_duration_stimuli/002657_2014-06-13_15-29-54_094959634447_rgbf000150-resize_1/002657_2014-06-13_15-29-54_094959634447_rgbf000150-resize_1-target.png,125,4.919,4,1852,125,feet,jsons/VE125_randls_5_rotated.json,599405,854139,37,Woman
52,217858,DepthScenes,duration_manipulation_targetAtFixation,jsons/VE125_randls_5_rotated.json,http://54.235.29.9/FacialAge/BNav_EC2/DepthDuration/v2_depth_duration_MTurk/v2_DepthDuration_HTML.html#36,36,1881,888,1920,1080,8-29-2022,11-27-8,53,depth_duration_stimuli/002375_2014-06-28_20-13-44_260595134347_rgbf000032-resize_1/002375_2014-06-28_20-13-44_260595134347_rgbf000032-resize_1-target.png,125,4.0175,3,1751,125,feet,jsons/VE125_randls_5_rotated.json,599405,854139,37,Woman
53,217858,DepthScenes,duration_manipulation_targetAtFixation,jsons/VE125_randls_5_rotated.json,http://54.235.29.9/FacialAge/BNav_EC2/DepthDuration/v2_depth_duration_MTurk/v2_DepthDuration_HTML.html#36,36,1881,888,1920,1080,8-29-2022,11-27-8,54,depth_duration_stimuli/000191_2014-05-12_17-07-38_260595134347_rgbf000199-resize_0/000191_2014-05-12_17-07-38_260595134347_rgbf000199-resize_0-target.png,125,3.7995,4,2199,117,feet,jsons/VE125_randls_5_rotated.json,599405,854139,37,Woman
54,217858,DepthScenes,duration_manipulation_targetAtFixation,jsons/VE125_randls_5_rotated.json,http://54.235.29.9/FacialAge/BNav_EC2/DepthDuration/v2_depth_duration_MTurk/v2_DepthDuration_HTML.html#36,36,1881,888,1920,1080,8-29-2022,11-27-8,55,depth_duration_stimuli/000493_2014-06-09_21-01-18_260595134347_rgbf000196-resize_3/000493_2014-06-09_21-01-18_260595134347_rgbf000196-resize_3-target.png,125,3.44,3,2010,119,feet,jsons/VE125_randls_5_rotated.json,599405,854139,37,Woman
55,217858,DepthScenes,duration_manipulation_targetAtFixation,jsons/VE125_randls_5_rotated.json,http://54.235.29.9/FacialAge/BNav_EC2/DepthDuration/v2_depth_duration_MTurk/v2_DepthDuration_HTML.html#36,36,1881,888,1920,1080,8-29-2022,11-27-8,56,depth_duration_stimuli/003129_2014-05-12_10-48-10_094959634447_rgbf000100-resize_0/003129_2014-05-12_10-48-10_094959634447_rgbf000100-resize_0-target.png,125,4.9305,5,1868,122,feet,jsons/VE125_randls_5_rotated.json,599405,854139,37,Woman
56,217858,DepthScenes,duration_manipulation_targetAtFixation,jsons/VE125_randls_5_rotated.json,http://54.235.29.9/FacialAge/BNav_EC2/DepthDuration/v2_depth_duration_MTurk/v2_DepthDuration_HTML.html#36,36,1881,888,1920,1080,8-29-2022,11-27-8,57,depth_duration_stimuli/000414_2014-06-04_19-49-13_260595134347_rgbf000044-resize_0/000414_2014-06-04_19-49-13_260595134347_rgbf000044-resize_0-target.png,125,4.329,4,2024,123,feet,jsons/VE125_randls_5_rotated.json,599405,854139,37,Woman
57,217858,DepthScenes,duration_manipulation_targetAtFixation,jsons/VE125_randls_5_rotated.json,http://54.235.29.9/FacialAge/BNav_EC2/DepthDuration/v2_depth_duration_MTurk/v2_DepthDuration_HTML.html#36,36,1881,888,1920,1080,8-29-2022,11-27-8,58,depth_duration_stimuli/002444_2014-06-28_20-32-08_260595134347_rgbf000027-resize_0/002444_2014-06-28_20-32-08_260595134347_rgbf000027-resize_0-target.png,125,4.388999999999999,5,1812,110,feet,jsons/VE125_randls_5_rotated.json,599405,854139,37,Woman
58,217858,DepthScenes,duration_manipulation_targetAtFixation,jsons/VE125_randls_5_rotated.json,http://54.235.29.9/FacialAge/BNav_EC2/DepthDuration/v2_depth_duration_MTurk/v2_DepthDuration_HTML.html#36,36,1881,888,1920,1080,8-29-2022,11-27-8,59,depth_duration_stimuli/000436_2014-06-09_22-25-11_260595134347_rgbf000137-resize_1/000436_2014-06-09_22-25-11_260595134347_rgbf000137-resize_1-target.png,125,4.0705,4,2008,124,feet,jsons/VE125_randls_5_rotated.json,599405,854139,37,Woman
59,217858,DepthScenes,duration_manipulation_targetAtFixation,jsons/VE125_randls_5_rotated.json,http://54.235.29.9/FacialAge/BNav_EC2/DepthDuration/v2_depth_duration_MTurk/v2_DepthDuration_HTML.html#36,36,1881,888,1920,1080,8-29-2022,11-27-8,60,depth_duration_stimuli/002678_2014-06-13_16-15-32_094959634447_rgbf000151-resize_6/002678_2014-06-13_16-15-32_094959634447_rgbf000151-resize_6-target.png,125,2.1830000000000003,6,4116,116,feet,jsons/VE125_randls_5_rotated.json,599405,854139,37,Woman
60,217858,DepthScenes,duration_manipulation_targetAtFixation,jsons/VE125_randls_5_rotated.json,http://54.235.29.9/FacialAge/BNav_EC2/DepthDuration/v2_depth_duration_MTurk/v2_DepthDuration_HTML.html#36,36,1881,888,1920,1080,8-29-2022,11-27-8,61,depth_duration_stimuli/000368_2014-06-09_15-53-01_260595134347_rgbf000155-resize_2/000368_2014-06-09_15-53-01_260595134347_rgbf000155-resize_2-target.png,125,2.4859999999999998,3,1750,121,feet,jsons/VE125_randls_5_rotated.json,599405,854139,37,Woman
61,217858,DepthScenes,duration_manipulation_targetAtFixation,jsons/VE125_randls_5_rotated.json,http://54.235.29.9/FacialAge/BNav_EC2/DepthDuration/v2_depth_duration_MTurk/v2_DepthDuration_HTML.html#36,36,1881,888,1920,1080,8-29-2022,11-27-8,62,depth_duration_stimuli/002545_2014-06-24_13-38-53_094959634447_rgbf000080-resize_4/002545_2014-06-24_13-38-53_094959634447_rgbf000080-resize_4-target.png,125,1.9205,4,3687,113,feet,jsons/VE125_randls_5_rotated.json,599405,854139,37,Woman
62,217858,DepthScenes,duration_manipulation_targetAtFixation,jsons/VE125_randls_5_rotated.json,http://54.235.29.9/FacialAge/BNav_EC2/DepthDuration/v2_depth_duration_MTurk/v2_DepthDuration_HTML.html#36,36,1881,888,1920,1080,8-29-2022,11-27-8,63,depth_duration_stimuli/001092_2014-06-15_17-34-58_260595134347_rgbf000171-resize_3/001092_2014-06-15_17-34-58_260595134347_rgbf000171-resize_3-target.png,125,2.6935,3,1777,111,feet,jsons/VE125_randls_5_rotated.json,599405,854139,37,Woman
63,217858,DepthScenes,duration_manipulation_targetAtFixation,jsons/VE125_randls_5_rotated.json,http://54.235.29.9/FacialAge/BNav_EC2/DepthDuration/v2_depth_duration_MTurk/v2_DepthDuration_HTML.html#36,36,1881,888,1920,1080,8-29-2022,11-27-8,64,depth_duration_stimuli/002805_2014-06-22_19-54-03_094959634447_rgbf000079-resize_1/002805_2014-06-22_19-54-03_094959634447_rgbf000079-resize_1-target.png,125,3.1439999999999997,4,2134,125,feet,jsons/VE125_randls_5_rotated.json,599405,854139,37,Woman
64,217858,DepthScenes,duration_manipulation_targetAtFixation,jsons/VE125_randls_5_rotated.json,http://54.235.29.9/FacialAge/BNav_EC2/DepthDuration/v2_depth_duration_MTurk/v2_DepthDuration_HTML.html#36,36,1881,888,1920,1080,8-29-2022,11-27-8,65,depth_duration_stimuli/000906_2014-06-08_13-35-43_260595134347_rgbf000155-resize_1/000906_2014-06-08_13-35-43_260595134347_rgbf000155-resize_1-target.png,125,2.8489999999999998,3,1681,123,feet,jsons/VE125_randls_5_rotated.json,599405,854139,37,Woman
65,217858,DepthScenes,duration_manipulation_targetAtFixation,jsons/VE125_randls_5_rotated.json,http://54.235.29.9/FacialAge/BNav_EC2/DepthDuration/v2_depth_duration_MTurk/v2_DepthDuration_HTML.html#36,36,1881,888,1920,1080,8-29-2022,11-27-8,66,depth_duration_stimuli/001540_2014-06-20_17-01-05_260595134347_rgbf000086-resize_2/001540_2014-06-20_17-01-05_260595134347_rgbf000086-resize-original.jpg,125,1.459,0,2003,118,feet,jsons/VE125_randls_5_rotated.json,599405,854139,37,Woman
66,217858,DepthScenes,duration_manipulation_targetAtFixation,jsons/VE125_randls_5_rotated.json,http://54.235.29.9/FacialAge/BNav_EC2/DepthDuration/v2_depth_duration_MTurk/v2_DepthDuration_HTML.html#36,36,1881,888,1920,1080,8-29-2022,11-27-8,67,depth_duration_stimuli/001571_2014-06-20_17-21-32_260595134347_rgbf000089-resize_1/001571_2014-06-20_17-21-32_260595134347_rgbf000089-resize_1-target.png,125,1.86,3,1941,124,feet,jsons/VE125_randls_5_rotated.json,599405,854139,37,Woman
67,217858,DepthScenes,duration_manipulation_targetAtFixation,jsons/VE125_randls_5_rotated.json,http://54.235.29.9/FacialAge/BNav_EC2/DepthDuration/v2_depth_duration_MTurk/v2_DepthDuration_HTML.html#36,36,1881,888,1920,1080,8-29-2022,11-27-8,68,depth_duration_stimuli/002272_2014-06-28_18-53-56_260595134347_rgbf000067-resize_2/002272_2014-06-28_18-53-56_260595134347_rgbf000067-resize_2-target.png,125,1.138,2,2239,110,feet,jsons/VE125_randls_5_rotated.json,599405,854139,37,Woman
68,217858,DepthScenes,duration_manipulation_targetAtFixation,jsons/VE125_randls_5_rotated.json,http://54.235.29.9/FacialAge/BNav_EC2/DepthDuration/v2_depth_duration_MTurk/v2_DepthDuration_HTML.html#36,36,1881,888,1920,1080,8-29-2022,11-27-8,69,depth_duration_stimuli/002758_2014-06-22_19-11-20_094959634447_rgbf000128-resize_1/002758_2014-06-22_19-11-20_094959634447_rgbf000128-resize_1-target.png,125,2.555,2,1823,124,feet,jsons/VE125_randls_5_rotated.json,599405,854139,37,Woman
69,217858,DepthScenes,duration_manipulation_targetAtFixation,jsons/VE125_randls_5_rotated.json,http://54.235.29.9/FacialAge/BNav_EC2/DepthDuration/v2_depth_duration_MTurk/v2_DepthDuration_HTML.html#36,36,1881,888,1920,1080,8-29-2022,11-27-8,70,depth_duration_stimuli/002630_2014-06-24_14-47-50_094959634447_rgbf000055-resize_1/002630_2014-06-24_14-47-50_094959634447_rgbf000055-resize_1-target.png,125,3.0095,4,2159,119,feet,jsons/VE125_randls_5_rotated.json,599405,854139,37,Woman
70,217858,DepthScenes,duration_manipulation_targetAtFixation,jsons/VE125_randls_5_rotated.json,http://54.235.29.9/FacialAge/BNav_EC2/DepthDuration/v2_depth_duration_MTurk/v2_DepthDuration_HTML.html#36,36,1881,888,1920,1080,8-29-2022,11-27-8,71,depth_duration_stimuli/003081_2014-06-15_15-19-16_094959634447_rgbf000150-resize_1/003081_2014-06-15_15-19-16_094959634447_rgbf000150-resize_1-target.png,125,3.9125,4,1847,110,feet,jsons/VE125_randls_5_rotated.json,599405,854139,37,Woman
71,217858,DepthScenes,duration_manipulation_targetAtFixation,jsons/VE125_randls_5_rotated.json,http://54.235.29.9/FacialAge/BNav_EC2/DepthDuration/v2_depth_duration_MTurk/v2_DepthDuration_HTML.html#36,36,1881,888,1920,1080,8-29-2022,11-27-8,72,depth_duration_stimuli/001417_2014-06-19_16-25-36_260595134347_rgbf000115-resize_5/001417_2014-06-19_16-25-36_260595134347_rgbf000115-resize_5-target.png,125,4.6255,5,1768,112,feet,jsons/VE125_randls_5_rotated.json,599405,854139,37,Woman
72,217858,DepthScenes,duration_manipulation_targetAtFixation,jsons/VE125_randls_5_rotated.json,http://54.235.29.9/FacialAge/BNav_EC2/DepthDuration/v2_depth_duration_MTurk/v2_DepthDuration_HTML.html#36,36,1881,888,1920,1080,8-29-2022,11-27-8,73,depth_duration_stimuli/002467_2014-06-28_20-38-07_260595134347_rgbf000026-resize_2/002467_2014-06-28_20-38-07_260595134347_rgbf000026-resize_2-target.png,125,4.742,4,2976,124,feet,jsons/VE125_randls_5_rotated.json,599405,854139,37,Woman
73,217858,DepthScenes,duration_manipulation_targetAtFixation,jsons/VE125_randls_5_rotated.json,http://54.235.29.9/FacialAge/BNav_EC2/DepthDuration/v2_depth_duration_MTurk/v2_DepthDuration_HTML.html#36,36,1881,888,1920,1080,8-29-2022,11-27-8,74,depth_duration_stimuli/002570_2014-06-24_13-59-54_094959634447_rgbf000059-resize_0/002570_2014-06-24_13-59-54_094959634447_rgbf000059-resize_0-target.png,125,4.037,6,1997,124,feet,jsons/VE125_randls_5_rotated.json,599405,854139,37,Woman
74,217858,DepthScenes,duration_manipulation_targetAtFixation,jsons/VE125_randls_5_rotated.json,http://54.235.29.9/FacialAge/BNav_EC2/DepthDuration/v2_depth_duration_MTurk/v2_DepthDuration_HTML.html#36,36,1881,888,1920,1080,8-29-2022,11-27-8,75,depth_duration_stimuli/000457_2014-06-08_16-52-43_260595134347_rgbf000199-resize_1/000457_2014-06-08_16-52-43_260595134347_rgbf000199-resize_1-target.png,125,3.6489999999999996,4,2122,126,feet,jsons/VE125_randls_5_rotated.json,599405,854139,37,Woman
75,217858,DepthScenes,duration_manipulation_targetAtFixation,jsons/VE125_randls_5_rotated.json,http://54.235.29.9/FacialAge/BNav_EC2/DepthDuration/v2_depth_duration_MTurk/v2_DepthDuration_HTML.html#36,36,1881,888,1920,1080,8-29-2022,11-27-8,76,depth_duration_stimuli/000929_2014-06-09_16-33-19_260595134347_rgbf000139-resize_0/000929_2014-06-09_16-33-19_260595134347_rgbf000139-resize_0-target.png,125,2.8680000000000003,5,1952,122,feet,jsons/VE125_randls_5_rotated.json,599405,854139,37,Woman
76,217858,DepthScenes,duration_manipulation_targetAtFixation,jsons/VE125_randls_5_rotated.json,http://54.235.29.9/FacialAge/BNav_EC2/DepthDuration/v2_depth_duration_MTurk/v2_DepthDuration_HTML.html#36,36,1881,888,1920,1080,8-29-2022,11-27-8,77,depth_duration_stimuli/002639_2014-06-24_14-51-37_094959634447_rgbf000074-resize_4/002639_2014-06-24_14-51-37_094959634447_rgbf000074-resize_4-target.png,125,4.0375,6,1883,125,feet,jsons/VE125_randls_5_rotated.json,599405,854139,37,Woman
77,217858,DepthScenes,duration_manipulation_targetAtFixation,jsons/VE125_randls_5_rotated.json,http://54.235.29.9/FacialAge/BNav_EC2/DepthDuration/v2_depth_duration_MTurk/v2_DepthDuration_HTML.html#36,36,1881,888,1920,1080,8-29-2022,11-27-8,78,depth_duration_stimuli/003292_2014-05-14_21-53-49_094959634447_rgbf000100-resize_2/003292_2014-05-14_21-53-49_094959634447_rgbf000100-resize_2-target.png,125,3.4815,5,2280,124,feet,jsons/VE125_randls_5_rotated.json,599405,854139,37,Woman
78,217858,DepthScenes,duration_manipulation_targetAtFixation,jsons/VE125_randls_5_rotated.json,http://54.235.29.9/FacialAge/BNav_EC2/DepthDuration/v2_depth_duration_MTurk/v2_DepthDuration_HTML.html#36,36,1881,888,1920,1080,8-29-2022,11-27-8,79,depth_duration_stimuli/002637_2014-06-24_14-51-13_094959634447_rgbf000066-resize_4/002637_2014-06-24_14-51-13_094959634447_rgbf000066-resize_4-target.png,125,1.9955,4,1821,125,feet,jsons/VE125_randls_5_rotated.json,599405,854139,37,Woman
79,217858,DepthScenes,duration_manipulation_targetAtFixation,jsons/VE125_randls_5_rotated.json,http://54.235.29.9/FacialAge/BNav_EC2/DepthDuration/v2_depth_duration_MTurk/v2_DepthDuration_HTML.html#36,36,1881,888,1920,1080,8-29-2022,11-27-8,80,depth_duration_stimuli/003534_2014-05-22_15-06-10_094959634447_rgbf000102-resize_4/003534_2014-05-22_15-06-10_094959634447_rgbf000102-resize_4-target.png,125,1.426,2,1928,113,feet,jsons/VE125_randls_5_rotated.json,599405,854139,37,Woman
80,217858,DepthScenes,duration_manipulation_targetAtFixation,jsons/VE125_randls_5_rotated.json,http://54.235.29.9/FacialAge/BNav_EC2/DepthDuration/v2_depth_duration_MTurk/v2_DepthDuration_HTML.html#36,36,1881,888,1920,1080,8-29-2022,11-27-8,81,depth_duration_stimuli/000137_2014-05-20_17-04-49_260595134347_rgbf000120-resize_1/000137_2014-05-20_17-04-49_260595134347_rgbf000120-resize_1-target.png,125,3.786,3,2454,111,feet,jsons/VE125_randls_5_rotated.json,599405,854139,37,Woman
81,217858,DepthScenes,duration_manipulation_targetAtFixation,jsons/VE125_randls_5_rotated.json,http://54.235.29.9/FacialAge/BNav_EC2/DepthDuration/v2_depth_duration_MTurk/v2_DepthDuration_HTML.html#36,36,1881,888,1920,1080,8-29-2022,11-27-8,82,depth_duration_stimuli/000736_2014-06-08_18-24-15_260595134347_rgbf000206-resize_3/000736_2014-06-08_18-24-15_260595134347_rgbf000206-resize_3-target.png,125,3.515,3,3346,120,feet,jsons/VE125_randls_5_rotated.json,599405,854139,37,Woman
82,217858,DepthScenes,duration_manipulation_targetAtFixation,jsons/VE125_randls_5_rotated.json,http://54.235.29.9/FacialAge/BNav_EC2/DepthDuration/v2_depth_duration_MTurk/v2_DepthDuration_HTML.html#36,36,1881,888,1920,1080,8-29-2022,11-27-8,83,depth_duration_stimuli/002199_2014-06-28_18-33-56_260595134347_rgbf000074-resize_0/002199_2014-06-28_18-33-56_260595134347_rgbf000074-resize_0-target.png,125,1.996,1,1736,125,feet,jsons/VE125_randls_5_rotated.json,599405,854139,37,Woman
83,217858,DepthScenes,duration_manipulation_targetAtFixation,jsons/VE125_randls_5_rotated.json,http://54.235.29.9/FacialAge/BNav_EC2/DepthDuration/v2_depth_duration_MTurk/v2_DepthDuration_HTML.html#36,36,1881,888,1920,1080,8-29-2022,11-27-8,84,depth_duration_stimuli/001056_2014-06-08_18-46-44_260595134347_rgbf000068-resize_0/001056_2014-06-08_18-46-44_260595134347_rgbf000068-resize_0-target.png,125,2.6625,5,1966,124,feet,jsons/VE125_randls_5_rotated.json,599405,854139,37,Woman
84,217858,DepthScenes,duration_manipulation_targetAtFixation,jsons/VE125_randls_5_rotated.json,http://54.235.29.9/FacialAge/BNav_EC2/DepthDuration/v2_depth_duration_MTurk/v2_DepthDuration_HTML.html#36,36,1881,888,1920,1080,8-29-2022,11-27-8,85,depth_duration_stimuli/001032_2014-06-08_13-23-17_260595134347_rgbf000021-resize_3/001032_2014-06-08_13-23-17_260595134347_rgbf000021-resize_3-target.png,125,3.2725,4,3758,127,feet,jsons/VE125_randls_5_rotated.json,599405,854139,37,Woman
85,217858,DepthScenes,duration_manipulation_targetAtFixation,jsons/VE125_randls_5_rotated.json,http://54.235.29.9/FacialAge/BNav_EC2/DepthDuration/v2_depth_duration_MTurk/v2_DepthDuration_HTML.html#36,36,1881,888,1920,1080,8-29-2022,11-27-8,86,depth_duration_stimuli/001059_2014-06-08_21-53-27_260595134347_rgbf000061-resize_4/001059_2014-06-08_21-53-27_260595134347_rgbf000061-resize_4-target.png,125,2.4185,3,2063,123,feet,jsons/VE125_randls_5_rotated.json,599405,854139,37,Woman
86,217858,DepthScenes,duration_manipulation_targetAtFixation,jsons/VE125_randls_5_rotated.json,http://54.235.29.9/FacialAge/BNav_EC2/DepthDuration/v2_depth_duration_MTurk/v2_DepthDuration_HTML.html#36,36,1881,888,1920,1080,8-29-2022,11-27-8,87,depth_duration_stimuli/001815_2014-06-26_20-52-55_260595134347_rgbf000020-resize_0/001815_2014-06-26_20-52-55_260595134347_rgbf000020-resize_0-target.png,125,3.3865,5,3149,112,feet,jsons/VE125_randls_5_rotated.json,599405,854139,37,Woman
87,217858,DepthScenes,duration_manipulation_targetAtFixation,jsons/VE125_randls_5_rotated.json,http://54.235.29.9/FacialAge/BNav_EC2/DepthDuration/v2_depth_duration_MTurk/v2_DepthDuration_HTML.html#36,36,1881,888,1920,1080,8-29-2022,11-27-8,88,depth_duration_stimuli/001808_2014-06-26_20-50-58_260595134347_rgbf000029-resize_1/001808_2014-06-26_20-50-58_260595134347_rgbf000029-resize_1-target.png,125,4.249,5,4531,112,feet,jsons/VE125_randls_5_rotated.json,599405,854139,37,Woman
88,217858,DepthScenes,duration_manipulation_targetAtFixation,jsons/VE125_randls_5_rotated.json,http://54.235.29.9/FacialAge/BNav_EC2/DepthDuration/v2_depth_duration_MTurk/v2_DepthDuration_HTML.html#36,36,1881,888,1920,1080,8-29-2022,11-27-8,89,depth_duration_stimuli/002136_2014-06-25_21-18-03_260595134347_rgbf000109-resize_3/002136_2014-06-25_21-18-03_260595134347_rgbf000109-resize_3-target.png,125,1.9569999999999999,2,13901,112,feet,jsons/VE125_randls_5_rotated.json,599405,854139,37,Woman
89,217858,DepthScenes,duration_manipulation_targetAtFixation,jsons/VE125_randls_5_rotated.json,http://54.235.29.9/FacialAge/BNav_EC2/DepthDuration/v2_depth_duration_MTurk/v2_DepthDuration_HTML.html#36,36,1881,888,1920,1080,8-29-2022,11-27-8,90,depth_duration_stimuli/002964_2014-06-08_17-46-11_094959634447_rgbf000091-resize_4/002964_2014-06-08_17-46-11_094959634447_rgbf000091-resize_4-target.png,125,1.6909999999999998,2,4688,125,feet,jsons/VE125_randls_5_rotated.json,599405,854139,37,Woman
90,217858,DepthScenes,duration_manipulation_targetAtFixation,jsons/VE125_randls_5_rotated.json,http://54.235.29.9/FacialAge/BNav_EC2/DepthDuration/v2_depth_duration_MTurk/v2_DepthDuration_HTML.html#36,36,1881,888,1920,1080,8-29-2022,11-27-8,91,depth_duration_stimuli/000691_2014-06-08_13-08-50_260595134347_rgbf000132-resize_3/000691_2014-06-08_13-08-50_260595134347_rgbf000132-resize_3-target.png,125,4.1530000000000005,3,3358,109,feet,jsons/VE125_randls_5_rotated.json,599405,854139,37,Woman
91,217858,DepthScenes,duration_manipulation_targetAtFixation,jsons/VE125_randls_5_rotated.json,http://54.235.29.9/FacialAge/BNav_EC2/DepthDuration/v2_depth_duration_MTurk/v2_DepthDuration_HTML.html#36,36,1881,888,1920,1080,8-29-2022,11-27-8,92,depth_duration_stimuli/002213_2014-06-28_18-37-58_260595134347_rgbf000055-resize_1/002213_2014-06-28_18-37-58_260595134347_rgbf000055-resize_1-target.png,125,3.62,5,3425,115,feet,jsons/VE125_randls_5_rotated.json,599405,854139,37,Woman
92,217858,DepthScenes,duration_manipulation_targetAtFixation,jsons/VE125_randls_5_rotated.json,http://54.235.29.9/FacialAge/BNav_EC2/DepthDuration/v2_depth_duration_MTurk/v2_DepthDuration_HTML.html#36,36,1881,888,1920,1080,8-29-2022,11-27-8,93,depth_duration_stimuli/002344_2014-06-28_20-06-29_260595134347_rgbf000030-resize_1/002344_2014-06-28_20-06-29_260595134347_rgbf000030-resize_1-target.png,125,1.5795,4,3043,118,feet,jsons/VE125_randls_5_rotated.json,599405,854139,37,Woman
93,217858,DepthScenes,duration_manipulation_targetAtFixation,jsons/VE125_randls_5_rotated.json,http://54.235.29.9/FacialAge/BNav_EC2/DepthDuration/v2_depth_duration_MTurk/v2_DepthDuration_HTML.html#36,36,1881,888,1920,1080,8-29-2022,11-27-8,94,depth_duration_stimuli/002725_2014-06-22_11-47-51_094959634447_rgbf000070-resize_1/002725_2014-06-22_11-47-51_094959634447_rgbf000070-resize_1-target.png,125,2.195,3,2209,127,feet,jsons/VE125_randls_5_rotated.json,599405,854139,37,Woman
94,217858,DepthScenes,duration_manipulation_targetAtFixation,jsons/VE125_randls_5_rotated.json,http://54.235.29.9/FacialAge/BNav_EC2/DepthDuration/v2_depth_duration_MTurk/v2_DepthDuration_HTML.html#36,36,1881,888,1920,1080,8-29-2022,11-27-8,95,depth_duration_stimuli/002660_2014-06-13_15-44-18_094959634447_rgbf001878-resize_2/002660_2014-06-13_15-44-18_094959634447_rgbf001878-resize_2-target.png,125,3.576,3,1875,114,feet,jsons/VE125_randls_5_rotated.json,599405,854139,37,Woman
95,217858,DepthScenes,duration_manipulation_targetAtFixation,jsons/VE125_randls_5_rotated.json,http://54.235.29.9/FacialAge/BNav_EC2/DepthDuration/v2_depth_duration_MTurk/v2_DepthDuration_HTML.html#36,36,1881,888,1920,1080,8-29-2022,11-27-8,96,depth_duration_stimuli/002153_2014-06-25_21-27-18_260595134347_rgbf000038-resize_5/002153_2014-06-25_21-27-18_260595134347_rgbf000038-resize_5-target.png,125,2.505,4,2140,124,feet,jsons/VE125_randls_5_rotated.json,599405,854139,37,Woman
96,217858,DepthScenes,duration_manipulation_targetAtFixation,jsons/VE125_randls_5_rotated.json,http://54.235.29.9/FacialAge/BNav_EC2/DepthDuration/v2_depth_duration_MTurk/v2_DepthDuration_HTML.html#36,36,1881,888,1920,1080,8-29-2022,11-27-8,97,depth_duration_stimuli/000854_2014-06-09_19-43-13_260595134347_rgbf000066-resize_0/000854_2014-06-09_19-43-13_260595134347_rgbf000066-resize_0-target.png,125,3.068,2,2402,124,feet,jsons/VE125_randls_5_rotated.json,599405,854139,37,Woman
97,217858,DepthScenes,duration_manipulation_targetAtFixation,jsons/VE125_randls_5_rotated.json,http://54.235.29.9/FacialAge/BNav_EC2/DepthDuration/v2_depth_duration_MTurk/v2_DepthDuration_HTML.html#36,36,1881,888,1920,1080,8-29-2022,11-27-8,98,depth_duration_stimuli/000758_2014-06-08_22-05-08_260595134347_rgbf000085-resize_0/000758_2014-06-08_22-05-08_260595134347_rgbf000085-resize_0-target.png,125,3.3810000000000002,4,2031,124,feet,jsons/VE125_randls_5_rotated.json,599405,854139,37,Woman
98,217858,DepthScenes,duration_manipulation_targetAtFixation,jsons/VE125_randls_5_rotated.json,http://54.235.29.9/FacialAge/BNav_EC2/DepthDuration/v2_depth_duration_MTurk/v2_DepthDuration_HTML.html#36,36,1881,888,1920,1080,8-29-2022,11-27-8,99,depth_duration_stimuli/001222_2014-06-17_16-24-06_260595134347_rgbf000073-resize_0/001222_2014-06-17_16-24-06_260595134347_rgbf000073-resize-original.jpg,125,1.4385,0,4140,124,feet,jsons/VE125_randls_5_rotated.json,599405,854139,37,Woman
99,217858,DepthScenes,duration_manipulation_targetAtFixation,jsons/VE125_randls_5_rotated.json,http://54.235.29.9/FacialAge/BNav_EC2/DepthDuration/v2_depth_duration_MTurk/v2_DepthDuration_HTML.html#36,36,1881,888,1920,1080,8-29-2022,11-27-8,100,depth_duration_stimuli/001450_2014-06-19_17-02-03_260595134347_rgbf000203-resize_4/001450_2014-06-19_17-02-03_260595134347_rgbf000203-resize_4-target.png,125,4.0106666666667,5,1687,123,feet,jsons/VE125_randls_5_rotated.json,599405,854139,37,Woman
100,217858,DepthScenes,duration_manipulation_targetAtFixation,jsons/VE125_randls_5_rotated.json,http://54.235.29.9/FacialAge/BNav_EC2/DepthDuration/v2_depth_duration_MTurk/v2_DepthDuration_HTML.html#36,36,1881,888,1920,1080,8-29-2022,11-27-8,101,depth_duration_stimuli/001449_2014-06-19_17-01-27_260595134347_rgbf000116-resize_2/001449_2014-06-19_17-01-27_260595134347_rgbf000116-resize_2-target.png,125,3.452,3,1886,138,feet,jsons/VE125_randls_5_rotated.json,599405,854139,37,Woman
101,217858,DepthScenes,duration_manipulation_targetAtFixation,jsons/VE125_randls_5_rotated.json,http://54.235.29.9/FacialAge/BNav_EC2/DepthDuration/v2_depth_duration_MTurk/v2_DepthDuration_HTML.html#36,36,1881,888,1920,1080,8-29-2022,11-27-8,102,depth_duration_stimuli/001214_2014-06-17_16-13-55_260595134347_rgbf000111-resize_0/001214_2014-06-17_16-13-55_260595134347_rgbf000111-resize_0-target.png,125,2.6505,4,1630,113,feet,jsons/VE125_randls_5_rotated.json,599405,854139,37,Woman
102,217858,DepthScenes,duration_manipulation_targetAtFixation,jsons/VE125_randls_5_rotated.json,http://54.235.29.9/FacialAge/BNav_EC2/DepthDuration/v2_depth_duration_MTurk/v2_DepthDuration_HTML.html#36,36,1881,888,1920,1080,8-29-2022,11-27-8,103,depth_duration_stimuli/000810_2014-06-08_17-20-01_260595134347_rgbf000105-resize_0/000810_2014-06-08_17-20-01_260595134347_rgbf000105-resize_0-target.png,125,1.4865,2,2216,117,feet,jsons/VE125_randls_5_rotated.json,599405,854139,37,Woman
103,217858,DepthScenes,duration_manipulation_targetAtFixation,jsons/VE125_randls_5_rotated.json,http://54.235.29.9/FacialAge/BNav_EC2/DepthDuration/v2_depth_duration_MTurk/v2_DepthDuration_HTML.html#36,36,1881,888,1920,1080,8-29-2022,11-27-8,104,depth_duration_stimuli/001447_2014-06-19_17-00-32_260595134347_rgbf000082-resize_5/001447_2014-06-19_17-00-32_260595134347_rgbf000082-resize_5-target.png,125,4.13775,4,2532,123,feet,jsons/VE125_randls_5_rotated.json,599405,854139,37,Woman
104,217858,DepthScenes,duration_manipulation_targetAtFixation,jsons/VE125_randls_5_rotated.json,http://54.235.29.9/FacialAge/BNav_EC2/DepthDuration/v2_depth_duration_MTurk/v2_DepthDuration_HTML.html#36,36,1881,888,1920,1080,8-29-2022,11-27-8,105,depth_duration_stimuli/000447_2014-06-08_16-15-46_260595134347_rgbf000130-resize_1/000447_2014-06-08_16-15-46_260595134347_rgbf000130-resize_1-target.png,125,4.479,5,1976,125,feet,jsons/VE125_randls_5_rotated.json,599405,854139,37,Woman
105,217858,DepthScenes,duration_manipulation_targetAtFixation,jsons/VE125_randls_5_rotated.json,http://54.235.29.9/FacialAge/BNav_EC2/DepthDuration/v2_depth_duration_MTurk/v2_DepthDuration_HTML.html#36,36,1881,888,1920,1080,8-29-2022,11-27-8,106,depth_duration_stimuli/000635_2014-06-08_16-38-42_260595134347_rgbf000106-resize_1/000635_2014-06-08_16-38-42_260595134347_rgbf000106-resize_1-target.png,125,2.074,3,2213,140,feet,jsons/VE125_randls_5_rotated.json,599405,854139,37,Woman
106,217858,DepthScenes,duration_manipulation_targetAtFixation,jsons/VE125_randls_5_rotated.json,http://54.235.29.9/FacialAge/BNav_EC2/DepthDuration/v2_depth_duration_MTurk/v2_DepthDuration_HTML.html#36,36,1881,888,1920,1080,8-29-2022,11-27-8,107,depth_duration_stimuli/002279_2014-06-28_18-55-32_260595134347_rgbf000040-resize_5/002279_2014-06-28_18-55-32_260595134347_rgbf000040-resize_5-target.png,125,1.5043333333333,2,1609,126,feet,jsons/VE125_randls_5_rotated.json,599405,854139,37,Woman
107,217858,DepthScenes,duration_manipulation_targetAtFixation,jsons/VE125_randls_5_rotated.json,http://54.235.29.9/FacialAge/BNav_EC2/DepthDuration/v2_depth_duration_MTurk/v2_DepthDuration_HTML.html#36,36,1881,888,1920,1080,8-29-2022,11-27-8,108,depth_duration_stimuli/000502_2014-06-08_23-02-32_260595134347_rgbf000063-resize_4/000502_2014-06-08_23-02-32_260595134347_rgbf000063-resize_4-target.png,125,2.431,3,3229,116,feet,jsons/VE125_randls_5_rotated.json,599405,854139,37,Woman
108,217858,DepthScenes,duration_manipulation_targetAtFixation,jsons/VE125_randls_5_rotated.json,http://54.235.29.9/FacialAge/BNav_EC2/DepthDuration/v2_depth_duration_MTurk/v2_DepthDuration_HTML.html#36,36,1881,888,1920,1080,8-29-2022,11-27-8,109,depth_duration_stimuli/001199_2014-06-17_16-03-48_260595134347_rgbf000077-resize_0/001199_2014-06-17_16-03-48_260595134347_rgbf000077-resize_0-target.png,125,3.4375,4,2022,124,feet,jsons/VE125_randls_5_rotated.json,599405,854139,37,Woman
109,217858,DepthScenes,duration_manipulation_targetAtFixation,jsons/VE125_randls_5_rotated.json,http://54.235.29.9/FacialAge/BNav_EC2/DepthDuration/v2_depth_duration_MTurk/v2_DepthDuration_HTML.html#36,36,1881,888,1920,1080,8-29-2022,11-27-8,110,depth_duration_stimuli/001392_2014-06-19_16-07-59_260595134347_rgbf000046-resize_1/001392_2014-06-19_16-07-59_260595134347_rgbf000046-resize_1-target.png,125,4.135,4,1693,127,feet,jsons/VE125_randls_5_rotated.json,599405,854139,37,Woman
110,217858,DepthScenes,duration_manipulation_targetAtFixation,jsons/VE125_randls_5_rotated.json,http://54.235.29.9/FacialAge/BNav_EC2/DepthDuration/v2_depth_duration_MTurk/v2_DepthDuration_HTML.html#36,36,1881,888,1920,1080,8-29-2022,11-27-8,111,depth_duration_stimuli/001570_2014-06-20_17-21-09_260595134347_rgbf000135-resize_4/001570_2014-06-20_17-21-09_260595134347_rgbf000135-resize_4-target.png,125,4.467,5,1851,126,feet,jsons/VE125_randls_5_rotated.json,599405,854139,37,Woman
111,217858,DepthScenes,duration_manipulation_targetAtFixation,jsons/VE125_randls_5_rotated.json,http://54.235.29.9/FacialAge/BNav_EC2/DepthDuration/v2_depth_duration_MTurk/v2_DepthDuration_HTML.html#36,36,1881,888,1920,1080,8-29-2022,11-27-8,112,depth_duration_stimuli/003083_2014-06-15_15-21-03_094959634447_rgbf000063-resize_1/003083_2014-06-15_15-21-03_094959634447_rgbf000063-resize_1-target.png,125,4.1405,3,2152,125,feet,jsons/VE125_randls_5_rotated.json,599405,854139,37,Woman
112,217858,DepthScenes,duration_manipulation_targetAtFixation,jsons/VE125_randls_5_rotated.json,http://54.235.29.9/FacialAge/BNav_EC2/DepthDuration/v2_depth_duration_MTurk/v2_DepthDuration_HTML.html#36,36,1881,888,1920,1080,8-29-2022,11-27-8,113,depth_duration_stimuli/000486_2014-06-09_20-47-20_260595134347_rgbf000143-resize_2/000486_2014-06-09_20-47-20_260595134347_rgbf000143-resize_2-target.png,125,4.8325,3,1649,110,feet,jsons/VE125_randls_5_rotated.json,599405,854139,37,Woman
113,217858,DepthScenes,duration_manipulation_targetAtFixation,jsons/VE125_randls_5_rotated.json,http://54.235.29.9/FacialAge/BNav_EC2/DepthDuration/v2_depth_duration_MTurk/v2_DepthDuration_HTML.html#36,36,1881,888,1920,1080,8-29-2022,11-27-8,114,depth_duration_stimuli/003490_2014-05-21_15-50-11_094959634447_rgbf000101-resize_3/003490_2014-05-21_15-50-11_094959634447_rgbf000101-resize_3-target.png,125,3.6445,4,1601,126,feet,jsons/VE125_randls_5_rotated.json,599405,854139,37,Woman
114,217858,DepthScenes,duration_manipulation_targetAtFixation,jsons/VE125_randls_5_rotated.json,http://54.235.29.9/FacialAge/BNav_EC2/DepthDuration/v2_depth_duration_MTurk/v2_DepthDuration_HTML.html#36,36,1881,888,1920,1080,8-29-2022,11-27-8,115,depth_duration_stimuli/001175_2014-06-17_15-45-55_260595134347_rgbf000129-resize_4/001175_2014-06-17_15-45-55_260595134347_rgbf000129-resize_4-target.png,125,4.255,5,1817,124,feet,jsons/VE125_randls_5_rotated.json,599405,854139,37,Woman
115,217858,DepthScenes,duration_manipulation_targetAtFixation,jsons/VE125_randls_5_rotated.json,http://54.235.29.9/FacialAge/BNav_EC2/DepthDuration/v2_depth_duration_MTurk/v2_DepthDuration_HTML.html#36,36,1881,888,1920,1080,8-29-2022,11-27-8,116,depth_duration_stimuli/000556_2014-06-09_22-42-56_260595134347_rgbf000214-resize_1/000556_2014-06-09_22-42-56_260595134347_rgbf000214-resize_1-target.png,125,4.8415,6,2406,123,feet,jsons/VE125_randls_5_rotated.json,599405,854139,37,Woman
116,217858,DepthScenes,duration_manipulation_targetAtFixation,jsons/VE125_randls_5_rotated.json,http://54.235.29.9/FacialAge/BNav_EC2/DepthDuration/v2_depth_duration_MTurk/v2_DepthDuration_HTML.html#36,36,1881,888,1920,1080,8-29-2022,11-27-8,117,depth_duration_stimuli/001158_2014-06-17_15-32-16_260595134347_rgbf000138-resize_2/001158_2014-06-17_15-32-16_260595134347_rgbf000138-resize_2-target.png,125,4.5315,4,2199,110,feet,jsons/VE125_randls_5_rotated.json,599405,854139,37,Woman
117,217858,DepthScenes,duration_manipulation_targetAtFixation,jsons/VE125_randls_5_rotated.json,http://54.235.29.9/FacialAge/BNav_EC2/DepthDuration/v2_depth_duration_MTurk/v2_DepthDuration_HTML.html#36,36,1881,888,1920,1080,8-29-2022,11-27-8,118,depth_duration_stimuli/001617_2014-06-20_11-35-32_260595134347_rgbf000066-resize_1/001617_2014-06-20_11-35-32_260595134347_rgbf000066-resize_1-target.png,125,3.7910000000000004,4,1420,118,feet,jsons/VE125_randls_5_rotated.json,599405,854139,37,Woman
118,217858,DepthScenes,duration_manipulation_targetAtFixation,jsons/VE125_randls_5_rotated.json,http://54.235.29.9/FacialAge/BNav_EC2/DepthDuration/v2_depth_duration_MTurk/v2_DepthDuration_HTML.html#36,36,1881,888,1920,1080,8-29-2022,11-27-8,119,depth_duration_stimuli/001806_2014-06-26_20-50-20_260595134347_rgbf000091-resize_1/001806_2014-06-26_20-50-20_260595134347_rgbf000091-resize_1-target.png,125,2.7305,2,3419,111,feet,jsons/VE125_randls_5_rotated.json,599405,854139,37,Woman
119,217858,DepthScenes,duration_manipulation_targetAtFixation,jsons/VE125_randls_5_rotated.json,http://54.235.29.9/FacialAge/BNav_EC2/DepthDuration/v2_depth_duration_MTurk/v2_DepthDuration_HTML.html#36,36,1881,888,1920,1080,8-29-2022,11-27-8,120,depth_duration_stimuli/000787_2014-06-08_22-33-53_260595134347_rgbf000175-resize_1/000787_2014-06-08_22-33-53_260595134347_rgbf000175-resize-original.jpg,125,4.784,0,2908,119,feet,jsons/VE125_randls_5_rotated.json,599405,854139,37,Woman
120,217858,DepthScenes,duration_manipulation_targetAtFixation,jsons/VE125_randls_5_rotated.json,http://54.235.29.9/FacialAge/BNav_EC2/DepthDuration/v2_depth_duration_MTurk/v2_DepthDuration_HTML.html#36,36,1881,888,1920,1080,8-29-2022,11-27-8,121,depth_duration_stimuli/001650_2014-06-20_12-09-00_260595134347_rgbf000087-resize_3/001650_2014-06-20_12-09-00_260595134347_rgbf000087-resize_3-target.png,125,1.9505,2,2365,125,feet,jsons/VE125_randls_5_rotated.json,599405,854139,37,Woman
121,217858,DepthScenes,duration_manipulation_targetAtFixation,jsons/VE125_randls_5_rotated.json,http://54.235.29.9/FacialAge/BNav_EC2/DepthDuration/v2_depth_duration_MTurk/v2_DepthDuration_HTML.html#36,36,1881,888,1920,1080,8-29-2022,11-27-8,122,depth_duration_stimuli/000682_2014-06-08_23-14-58_260595134347_rgbf000041-resize_5/000682_2014-06-08_23-14-58_260595134347_rgbf000041-resize_5-target.png,125,2.7239999999999998,2,1954,124,feet,jsons/VE125_randls_5_rotated.json,599405,854139,37,Woman
122,217858,DepthScenes,duration_manipulation_targetAtFixation,jsons/VE125_randls_5_rotated.json,http://54.235.29.9/FacialAge/BNav_EC2/DepthDuration/v2_depth_duration_MTurk/v2_DepthDuration_HTML.html#36,36,1881,888,1920,1080,8-29-2022,11-27-8,123,depth_duration_stimuli/001132_2014-06-17_14-48-54_260595134347_rgbf000100-resize_2/001132_2014-06-17_14-48-54_260595134347_rgbf000100-resize_2-target.png,125,3.753,4,1887,124,feet,jsons/VE125_randls_5_rotated.json,599405,854139,37,Woman
123,217858,DepthScenes,duration_manipulation_targetAtFixation,jsons/VE125_randls_5_rotated.json,http://54.235.29.9/FacialAge/BNav_EC2/DepthDuration/v2_depth_duration_MTurk/v2_DepthDuration_HTML.html#36,36,1881,888,1920,1080,8-29-2022,11-27-8,124,depth_duration_stimuli/001133_2014-06-17_14-49-16_260595134347_rgbf000100-resize_0/001133_2014-06-17_14-49-16_260595134347_rgbf000100-resize_0-target.png,125,4.2115,4,2076,125,feet,jsons/VE125_randls_5_rotated.json,599405,854139,37,Woman
124,217858,DepthScenes,duration_manipulation_targetAtFixation,jsons/VE125_randls_5_rotated.json,http://54.235.29.9/FacialAge/BNav_EC2/DepthDuration/v2_depth_duration_MTurk/v2_DepthDuration_HTML.html#36,36,1881,888,1920,1080,8-29-2022,11-27-8,125,depth_duration_stimuli/001584_2014-06-20_11-07-43_260595134347_rgbf000002-resize_1/001584_2014-06-20_11-07-43_260595134347_rgbf000002-resize_1-target.png,125,3.53,2,2401,126,feet,jsons/VE125_randls_5_rotated.json,599405,854139,37,Woman
125,217858,DepthScenes,duration_manipulation_targetAtFixation,jsons/VE125_randls_5_rotated.json,http://54.235.29.9/FacialAge/BNav_EC2/DepthDuration/v2_depth_duration_MTurk/v2_DepthDuration_HTML.html#36,36,1881,888,1920,1080,8-29-2022,11-27-8,126,depth_duration_stimuli/003621_2014-05-23_18-06-08_094959634447_rgbf000101-resize_1/003621_2014-05-23_18-06-08_094959634447_rgbf000101-resize_1-target.png,125,3.9835,3,1845,121,feet,jsons/VE125_randls_5_rotated.json,599405,854139,37,Woman
126,217858,DepthScenes,duration_manipulation_targetAtFixation,jsons/VE125_randls_5_rotated.json,http://54.235.29.9/FacialAge/BNav_EC2/DepthDuration/v2_depth_duration_MTurk/v2_DepthDuration_HTML.html#36,36,1881,888,1920,1080,8-29-2022,11-27-8,127,depth_duration_stimuli/002340_2014-06-28_20-05-46_260595134347_rgbf000113-resize_0/002340_2014-06-28_20-05-46_260595134347_rgbf000113-resize_0-target.png,125,2.4735,4,1900,110,feet,jsons/VE125_randls_5_rotated.json,599405,854139,37,Woman
127,217858,DepthScenes,duration_manipulation_targetAtFixation,jsons/VE125_randls_5_rotated.json,http://54.235.29.9/FacialAge/BNav_EC2/DepthDuration/v2_depth_duration_MTurk/v2_DepthDuration_HTML.html#36,36,1881,888,1920,1080,8-29-2022,11-27-8,128,depth_duration_stimuli/001016_2014-06-09_16-16-10_260595134347_rgbf000112-resize_5/001016_2014-06-09_16-16-10_260595134347_rgbf000112-resize_5-target.png,125,1.6565,2,1688,122,feet,jsons/VE125_randls_5_rotated.json,599405,854139,37,Woman
128,217858,DepthScenes,duration_manipulation_targetAtFixation,jsons/VE125_randls_5_rotated.json,http://54.235.29.9/FacialAge/BNav_EC2/DepthDuration/v2_depth_duration_MTurk/v2_DepthDuration_HTML.html#36,36,1881,888,1920,1080,8-29-2022,11-27-8,129,depth_duration_stimuli/003010_2014-06-15_12-54-35_094959634447_rgbf000112-resize_0/003010_2014-06-15_12-54-35_094959634447_rgbf000112-resize_0-target.png,125,3.1185,3,1892,112,feet,jsons/VE125_randls_5_rotated.json,599405,854139,37,Woman
129,217858,DepthScenes,duration_manipulation_targetAtFixation,jsons/VE125_randls_5_rotated.json,http://54.235.29.9/FacialAge/BNav_EC2/DepthDuration/v2_depth_duration_MTurk/v2_DepthDuration_HTML.html#36,36,1881,888,1920,1080,8-29-2022,11-27-8,130,depth_duration_stimuli/001810_2014-06-26_20-51-35_260595134347_rgbf000040-resize_3/001810_2014-06-26_20-51-35_260595134347_rgbf000040-resize_3-target.png,125,2.2525,3,1811,138,feet,jsons/VE125_randls_5_rotated.json,599405,854139,37,Woman
130,217858,DepthScenes,duration_manipulation_targetAtFixation,jsons/VE125_randls_5_rotated.json,http://54.235.29.9/FacialAge/BNav_EC2/DepthDuration/v2_depth_duration_MTurk/v2_DepthDuration_HTML.html#36,36,1881,888,1920,1080,8-29-2022,11-27-8,131,depth_duration_stimuli/002425_2014-06-28_20-27-29_260595134347_rgbf000031-resize_8/002425_2014-06-28_20-27-29_260595134347_rgbf000031-resize_8-target.png,125,3.8960000000000004,4,2059,123,feet,jsons/VE125_randls_5_rotated.json,599405,854139,37,Woman
131,217858,DepthScenes,duration_manipulation_targetAtFixation,jsons/VE125_randls_5_rotated.json,http://54.235.29.9/FacialAge/BNav_EC2/DepthDuration/v2_depth_duration_MTurk/v2_DepthDuration_HTML.html#36,36,1881,888,1920,1080,8-29-2022,11-27-8,132,depth_duration_stimuli/000642_2014-06-08_16-59-25_260595134347_rgbf000098-resize_2/000642_2014-06-08_16-59-25_260595134347_rgbf000098-resize_2-target.png,125,2.8815,3,1940,118,feet,jsons/VE125_randls_5_rotated.json,599405,854139,37,Woman
132,217858,DepthScenes,duration_manipulation_targetAtFixation,jsons/VE125_randls_5_rotated.json,http://54.235.29.9/FacialAge/BNav_EC2/DepthDuration/v2_depth_duration_MTurk/v2_DepthDuration_HTML.html#36,36,1881,888,1920,1080,8-29-2022,11-27-8,133,depth_duration_stimuli/000734_2014-06-08_17-39-11_260595134347_rgbf000128-resize_2/000734_2014-06-08_17-39-11_260595134347_rgbf000128-resize_2-target.png,125,4.098,3,1732,125,feet,jsons/VE125_randls_5_rotated.json,599405,854139,37,Woman
133,217858,DepthScenes,duration_manipulation_targetAtFixation,jsons/VE125_randls_5_rotated.json,http://54.235.29.9/FacialAge/BNav_EC2/DepthDuration/v2_depth_duration_MTurk/v2_DepthDuration_HTML.html#36,36,1881,888,1920,1080,8-29-2022,11-27-8,134,depth_duration_stimuli/000739_2014-06-08_18-45-58_260595134347_rgbf000068-resize_1/000739_2014-06-08_18-45-58_260595134347_rgbf000068-resize_1-target.png,125,3.534,4,1859,123,feet,jsons/VE125_randls_5_rotated.json,599405,854139,37,Woman
134,217858,DepthScenes,duration_manipulation_targetAtFixation,jsons/VE125_randls_5_rotated.json,http://54.235.29.9/FacialAge/BNav_EC2/DepthDuration/v2_depth_duration_MTurk/v2_DepthDuration_HTML.html#36,36,1881,888,1920,1080,8-29-2022,11-27-8,135,depth_duration_stimuli/000375_2014-06-08_11-17-29_260595134347_rgbf000133-resize_2/000375_2014-06-08_11-17-29_260595134347_rgbf000133-resize-original.jpg,125,4.718,0,1789,123,feet,jsons/VE125_randls_5_rotated.json,599405,854139,37,Woman
135,217858,DepthScenes,duration_manipulation_targetAtFixation,jsons/VE125_randls_5_rotated.json,http://54.235.29.9/FacialAge/BNav_EC2/DepthDuration/v2_depth_duration_MTurk/v2_DepthDuration_HTML.html#36,36,1881,888,1920,1080,8-29-2022,11-27-8,136,depth_duration_stimuli/000549_2014-06-08_22-10-24_260595134347_rgbf000247-resize_3/000549_2014-06-08_22-10-24_260595134347_rgbf000247-resize_3-target.png,125,1.841,1,1822,124,feet,jsons/VE125_randls_5_rotated.json,599405,854139,37,Woman
136,217858,DepthScenes,duration_manipulation_targetAtFixation,jsons/VE125_randls_5_rotated.json,http://54.235.29.9/FacialAge/BNav_EC2/DepthDuration/v2_depth_duration_MTurk/v2_DepthDuration_HTML.html#36,36,1881,888,1920,1080,8-29-2022,11-27-8,137,depth_duration_stimuli/001055_2014-06-08_18-45-35_260595134347_rgbf000111-resize_4/001055_2014-06-08_18-45-35_260595134347_rgbf000111-resize_4-target.png,125,2.4290000000000003,3,1730,127,feet,jsons/VE125_randls_5_rotated.json,599405,854139,37,Woman
137,217858,DepthScenes,duration_manipulation_targetAtFixation,jsons/VE125_randls_5_rotated.json,http://54.235.29.9/FacialAge/BNav_EC2/DepthDuration/v2_depth_duration_MTurk/v2_DepthDuration_HTML.html#36,36,1881,888,1920,1080,8-29-2022,11-27-8,138,depth_duration_stimuli/003587_2014-05-23_16-48-02_094959634447_rgbf002384-resize_2/003587_2014-05-23_16-48-02_094959634447_rgbf002384-resize_2-target.png,125,1.357,1,1894,110,feet,jsons/VE125_randls_5_rotated.json,599405,854139,37,Woman
138,217858,DepthScenes,duration_manipulation_targetAtFixation,jsons/VE125_randls_5_rotated.json,http://54.235.29.9/FacialAge/BNav_EC2/DepthDuration/v2_depth_duration_MTurk/v2_DepthDuration_HTML.html#36,36,1881,888,1920,1080,8-29-2022,11-27-8,139,depth_duration_stimuli/001167_2014-06-17_15-38-07_260595134347_rgbf000108-resize_0/001167_2014-06-17_15-38-07_260595134347_rgbf000108-resize_0-target.png,125,1.8505,2,1641,120,feet,jsons/VE125_randls_5_rotated.json,599405,854139,37,Woman
139,217858,DepthScenes,duration_manipulation_targetAtFixation,jsons/VE125_randls_5_rotated.json,http://54.235.29.9/FacialAge/BNav_EC2/DepthDuration/v2_depth_duration_MTurk/v2_DepthDuration_HTML.html#36,36,1881,888,1920,1080,8-29-2022,11-27-8,140,depth_duration_stimuli/003079_2014-06-15_15-18-20_094959634447_rgbf000152-resize_8/003079_2014-06-15_15-18-20_094959634447_rgbf000152-resize_8-target.png,125,2.8775,3,2931,121,feet,jsons/VE125_randls_5_rotated.json,599405,854139,37,Woman
140,217858,DepthScenes,duration_manipulation_targetAtFixation,jsons/VE125_randls_5_rotated.json,http://54.235.29.9/FacialAge/BNav_EC2/DepthDuration/v2_depth_duration_MTurk/v2_DepthDuration_HTML.html#36,36,1881,888,1920,1080,8-29-2022,11-27-8,141,depth_duration_stimuli/000506_2014-06-08_23-21-00_260595134347_rgbf000070-resize_7/000506_2014-06-08_23-21-00_260595134347_rgbf000070-resize_7-target.png,125,4.0585,3,1807,121,feet,jsons/VE125_randls_5_rotated.json,599405,854139,37,Woman
141,217858,DepthScenes,duration_manipulation_targetAtFixation,jsons/VE125_randls_5_rotated.json,http://54.235.29.9/FacialAge/BNav_EC2/DepthDuration/v2_depth_duration_MTurk/v2_DepthDuration_HTML.html#36,36,1881,888,1920,1080,8-29-2022,11-27-8,142,depth_duration_stimuli/000109_2014-05-14_23-41-52_260595134347_rgbf000035-resize_9/000109_2014-05-14_23-41-52_260595134347_rgbf000035-resize_9-target.png,125,1.3545,2,1754,126,feet,jsons/VE125_randls_5_rotated.json,599405,854139,37,Woman
142,217858,DepthScenes,duration_manipulation_targetAtFixation,jsons/VE125_randls_5_rotated.json,http://54.235.29.9/FacialAge/BNav_EC2/DepthDuration/v2_depth_duration_MTurk/v2_DepthDuration_HTML.html#36,36,1881,888,1920,1080,8-29-2022,11-27-8,143,depth_duration_stimuli/000470_2014-06-09_19-42-40_260595134347_rgbf000094-resize_1/000470_2014-06-09_19-42-40_260595134347_rgbf000094-resize_1-target.png,125,1.831,2,1515,120,feet,jsons/VE125_randls_5_rotated.json,599405,854139,37,Woman
143,217858,DepthScenes,duration_manipulation_targetAtFixation,jsons/VE125_randls_5_rotated.json,http://54.235.29.9/FacialAge/BNav_EC2/DepthDuration/v2_depth_duration_MTurk/v2_DepthDuration_HTML.html#36,36,1881,888,1920,1080,8-29-2022,11-27-8,144,depth_duration_stimuli/003228_2014-05-14_13-42-35_094959634447_rgbf000101-resize_1/003228_2014-05-14_13-42-35_094959634447_rgbf000101-resize_1-target.png,125,1.9680000000000002,3,1596,121,feet,jsons/VE125_randls_5_rotated.json,599405,854139,37,Woman
144,217858,DepthScenes,duration_manipulation_targetAtFixation,jsons/VE125_randls_5_rotated.json,http://54.235.29.9/FacialAge/BNav_EC2/DepthDuration/v2_depth_duration_MTurk/v2_DepthDuration_HTML.html#36,36,1881,888,1920,1080,8-29-2022,11-27-8,145,depth_duration_stimuli/002600_2014-06-24_14-27-04_094959634447_rgbf000074-resize_2/002600_2014-06-24_14-27-04_094959634447_rgbf000074-resize_2-target.png,125,2.7575,4,3246,126,feet,jsons/VE125_randls_5_rotated.json,599405,854139,37,Woman
145,217858,DepthScenes,duration_manipulation_targetAtFixation,jsons/VE125_randls_5_rotated.json,http://54.235.29.9/FacialAge/BNav_EC2/DepthDuration/v2_depth_duration_MTurk/v2_DepthDuration_HTML.html#36,36,1881,888,1920,1080,8-29-2022,11-27-8,146,depth_duration_stimuli/001516_2014-06-20_16-25-09_260595134347_rgbf000076-resize_2/001516_2014-06-20_16-25-09_260595134347_rgbf000076-resize_2-target.png,125,1.7445,2,1729,116,feet,jsons/VE125_randls_5_rotated.json,599405,854139,37,Woman
146,217858,DepthScenes,duration_manipulation_targetAtFixation,jsons/VE125_randls_5_rotated.json,http://54.235.29.9/FacialAge/BNav_EC2/DepthDuration/v2_depth_duration_MTurk/v2_DepthDuration_HTML.html#36,36,1881,888,1920,1080,8-29-2022,11-27-8,147,depth_duration_stimuli/002118_2014-06-25_20-32-08_260595134347_rgbf000078-resize_1/002118_2014-06-25_20-32-08_260595134347_rgbf000078-resize_1-target.png,125,2.6460000000000004,3,3765,124,feet,jsons/VE125_randls_5_rotated.json,599405,854139,37,Woman
147,217858,DepthScenes,duration_manipulation_targetAtFixation,jsons/VE125_randls_5_rotated.json,http://54.235.29.9/FacialAge/BNav_EC2/DepthDuration/v2_depth_duration_MTurk/v2_DepthDuration_HTML.html#36,36,1881,888,1920,1080,8-29-2022,11-27-8,148,depth_duration_stimuli/002323_2014-06-28_20-01-54_260595134347_rgbf000051-resize_4/002323_2014-06-28_20-01-54_260595134347_rgbf000051-resize_4-target.png,125,3.7310000000000003,4,1836,116,feet,jsons/VE125_randls_5_rotated.json,599405,854139,37,Woman
148,217858,DepthScenes,duration_manipulation_targetAtFixation,jsons/VE125_randls_5_rotated.json,http://54.235.29.9/FacialAge/BNav_EC2/DepthDuration/v2_depth_duration_MTurk/v2_DepthDuration_HTML.html#36,36,1881,888,1920,1080,8-29-2022,11-27-8,149,depth_duration_stimuli/000917_2014-06-09_22-45-29_260595134347_rgbf000149-resize_3/000917_2014-06-09_22-45-29_260595134347_rgbf000149-resize_3-target.png,125,4.1865,4,3919,113,feet,jsons/VE125_randls_5_rotated.json,599405,854139,37,Woman
149,217858,DepthScenes,duration_manipulation_targetAtFixation,jsons/VE125_randls_5_rotated.json,http://54.235.29.9/FacialAge/BNav_EC2/DepthDuration/v2_depth_duration_MTurk/v2_DepthDuration_HTML.html#36,36,1881,888,1920,1080,8-29-2022,11-27-8,150,depth_duration_stimuli/003423_2014-05-21_10-23-26_094959634447_rgbf002665-resize_2/003423_2014-05-21_10-23-26_094959634447_rgbf002665-resize_2-target.png,125,3.2575,58,3184,126,feet,jsons/VE125_randls_5_rotated.json,599405,854139,37,Woman
150,217858,DepthScenes,duration_manipulation_targetAtFixation,jsons/VE125_randls_5_rotated.json,http://54.235.29.9/FacialAge/BNav_EC2/DepthDuration/v2_depth_duration_MTurk/v2_DepthDuration_HTML.html#36,36,1881,888,1920,1080,8-29-2022,11-27-8,151,depth_duration_stimuli/002905_2014-06-03_18-04-43_094959634447_rgbf000151-resize_2/002905_2014-06-03_18-04-43_094959634447_rgbf000151-resize_2-target.png,125,2.0295,5,2586,112,feet,jsons/VE125_randls_5_rotated.json,599405,854139,37,Woman
151,217858,DepthScenes,duration_manipulation_targetAtFixation,jsons/VE125_randls_5_rotated.json,http://54.235.29.9/FacialAge/BNav_EC2/DepthDuration/v2_depth_duration_MTurk/v2_DepthDuration_HTML.html#36,36,1881,888,1920,1080,8-29-2022,11-27-8,152,depth_duration_stimuli/000569_2014-06-09_22-51-47_260595134347_rgbf000141-resize_3/000569_2014-06-09_22-51-47_260595134347_rgbf000141-resize-original.jpg,125,4.512,0,2979,114,feet,jsons/VE125_randls_5_rotated.json,599405,854139,37,Woman
152,217858,DepthScenes,duration_manipulation_targetAtFixation,jsons/VE125_randls_5_rotated.json,http://54.235.29.9/FacialAge/BNav_EC2/DepthDuration/v2_depth_duration_MTurk/v2_DepthDuration_HTML.html#36,36,1881,888,1920,1080,8-29-2022,11-27-8,153,depth_duration_stimuli/000103_2014-05-14_22-01-17_260595134347_rgbf000152-resize_5/000103_2014-05-14_22-01-17_260595134347_rgbf000152-resize_5-target.png,125,1.993,4,38412,126,feet,jsons/VE125_randls_5_rotated.json,599405,854139,37,Woman
153,217858,DepthScenes,duration_manipulation_targetAtFixation,jsons/VE125_randls_5_rotated.json,http://54.235.29.9/FacialAge/BNav_EC2/DepthDuration/v2_depth_duration_MTurk/v2_DepthDuration_HTML.html#36,36,1881,888,1920,1080,8-29-2022,11-27-8,154,depth_duration_stimuli/001555_2014-06-20_17-12-10_260595134347_rgbf000065-resize_4/001555_2014-06-20_17-12-10_260595134347_rgbf000065-resize_4-target.png,125,1.633,2,2728,125,feet,jsons/VE125_randls_5_rotated.json,599405,854139,37,Woman
154,217858,DepthScenes,duration_manipulation_targetAtFixation,jsons/VE125_randls_5_rotated.json,http://54.235.29.9/FacialAge/BNav_EC2/DepthDuration/v2_depth_duration_MTurk/v2_DepthDuration_HTML.html#36,36,1881,888,1920,1080,8-29-2022,11-27-8,155,depth_duration_stimuli/002568_2014-06-24_13-59-21_094959634447_rgbf000062-resize_4/002568_2014-06-24_13-59-21_094959634447_rgbf000062-resize_4-target.png,125,3.015,3,1650,123,feet,jsons/VE125_randls_5_rotated.json,599405,854139,37,Woman
155,217858,DepthScenes,duration_manipulation_targetAtFixation,jsons/VE125_randls_5_rotated.json,http://54.235.29.9/FacialAge/BNav_EC2/DepthDuration/v2_depth_duration_MTurk/v2_DepthDuration_HTML.html#36,36,1881,888,1920,1080,8-29-2022,11-27-8,156,depth_duration_stimuli/003492_2014-05-21_15-50-55_094959634447_rgbf000828-resize_1/003492_2014-05-21_15-50-55_094959634447_rgbf000828-resize_1-target.png,125,4.06875,3,1757,125,feet,jsons/VE125_randls_5_rotated.json,599405,854139,37,Woman
156,217858,DepthScenes,duration_manipulation_targetAtFixation,jsons/VE125_randls_5_rotated.json,http://54.235.29.9/FacialAge/BNav_EC2/DepthDuration/v2_depth_duration_MTurk/v2_DepthDuration_HTML.html#36,36,1881,888,1920,1080,8-29-2022,11-27-8,157,depth_duration_stimuli/003495_2014-05-21_16-01-51_094959634447_rgbf000100-resize_3/003495_2014-05-21_16-01-51_094959634447_rgbf000100-resize_3-target.png,125,1.6255,2,1725,123,feet,jsons/VE125_randls_5_rotated.json,599405,854139,37,Woman
157,217858,DepthScenes,duration_manipulation_targetAtFixation,jsons/VE125_randls_5_rotated.json,http://54.235.29.9/FacialAge/BNav_EC2/DepthDuration/v2_depth_duration_MTurk/v2_DepthDuration_HTML.html#36,36,1881,888,1920,1080,8-29-2022,11-27-8,158,depth_duration_stimuli/001244_2014-06-17_16-47-45_260595134347_rgbf000030-resize_4/001244_2014-06-17_16-47-45_260595134347_rgbf000030-resize_4-target.png,125,2.0425,3,2374,118,feet,jsons/VE125_randls_5_rotated.json,599405,854139,37,Woman
158,217858,DepthScenes,duration_manipulation_targetAtFixation,jsons/VE125_randls_5_rotated.json,http://54.235.29.9/FacialAge/BNav_EC2/DepthDuration/v2_depth_duration_MTurk/v2_DepthDuration_HTML.html#36,36,1881,888,1920,1080,8-29-2022,11-27-8,159,depth_duration_stimuli/001235_2014-06-17_16-37-36_260595134347_rgbf000084-resize_4/001235_2014-06-17_16-37-36_260595134347_rgbf000084-resize_4-target.png,125,3.6605,3,1684,121,feet,jsons/VE125_randls_5_rotated.json,599405,854139,37,Woman
159,217858,DepthScenes,duration_manipulation_targetAtFixation,jsons/VE125_randls_5_rotated.json,http://54.235.29.9/FacialAge/BNav_EC2/DepthDuration/v2_depth_duration_MTurk/v2_DepthDuration_HTML.html#36,36,1881,888,1920,1080,8-29-2022,11-27-8,160,depth_duration_stimuli/000788_2014-06-08_22-34-36_260595134347_rgbf000131-resize_1/000788_2014-06-08_22-34-36_260595134347_rgbf000131-resize_1-target.png,125,3.359,3,3017,116,feet,jsons/VE125_randls_5_rotated.json,599405,854139,37,Woman
160,217858,DepthScenes,duration_manipulation_targetAtFixation,jsons/VE125_randls_5_rotated.json,http://54.235.29.9/FacialAge/BNav_EC2/DepthDuration/v2_depth_duration_MTurk/v2_DepthDuration_HTML.html#36,36,1881,888,1920,1080,8-29-2022,11-27-8,161,depth_duration_stimuli/001094_2014-06-15_17-36-00_260595134347_rgbf000205-resize_0/001094_2014-06-15_17-36-00_260595134347_rgbf000205-resize_0-target.png,125,4.2175,4,1835,110,feet,jsons/VE125_randls_5_rotated.json,599405,854139,37,Woman
161,217858,DepthScenes,duration_manipulation_targetAtFixation,jsons/VE125_randls_5_rotated.json,http://54.235.29.9/FacialAge/BNav_EC2/DepthDuration/v2_depth_duration_MTurk/v2_DepthDuration_HTML.html#36,36,1881,888,1920,1080,8-29-2022,11-27-8,162,depth_duration_stimuli/000692_2014-06-08_13-09-42_260595134347_rgbf000199-resize_2/000692_2014-06-08_13-09-42_260595134347_rgbf000199-resize_2-target.png,125,3.661,4,1704,118,feet,jsons/VE125_randls_5_rotated.json,599405,854139,37,Woman
162,217858,DepthScenes,duration_manipulation_targetAtFixation,jsons/VE125_randls_5_rotated.json,http://54.235.29.9/FacialAge/BNav_EC2/DepthDuration/v2_depth_duration_MTurk/v2_DepthDuration_HTML.html#36,36,1881,888,1920,1080,8-29-2022,11-27-8,163,depth_duration_stimuli/000709_2014-06-08_13-51-55_260595134347_rgbf000068-resize_3/000709_2014-06-08_13-51-55_260595134347_rgbf000068-resize_3-target.png,125,1.8030000000000002,2,3060,115,feet,jsons/VE125_randls_5_rotated.json,599405,854139,37,Woman
163,217858,DepthScenes,duration_manipulation_targetAtFixation,jsons/VE125_randls_5_rotated.json,http://54.235.29.9/FacialAge/BNav_EC2/DepthDuration/v2_depth_duration_MTurk/v2_DepthDuration_HTML.html#36,36,1300,853,1920,1080,8-29-2022,11-27-8,164,depth_duration_stimuli/002057_2014-06-24_21-00-13_260595134347_rgbf000120-resize_1/002057_2014-06-24_21-00-13_260595134347_rgbf000120-resize_1-target.png,125,2.967,3,17904,117,feet,jsons/VE125_randls_5_rotated.json,599405,854139,37,Woman
