,subjID,experimentName,versionName,sequenceName,url,selected_row,windowWidth,windowHeight,screenWidth,screenHeight,startDate,startTime,trial,stimulus,duration,actual_depth,depth_estimate,trial_RT,log_sceneDuration,unitSelection,seq_filepath,experimentTime,totalTime,age,gender
0,218627,DepthScenes,duration_manipulation_targetAtFixation,jsons/v1_VE1000_randls_33.json,http://54.235.29.9/FacialAge/BNav_EC2/DepthDuration/v2_depth_duration_MTurk/v2_DepthDuration_HTML.html#84,84,1366,768,1366,768,8-22-2022,8-3-12,1,depth_duration_stimuli/003492_2014-05-21_15-50-55_094959634447_rgbf000828-resize_1/003492_2014-05-21_15-50-55_094959634447_rgbf000828-resize_1-target.png,1000,4.06875,2,4156,989,meters,jsons/v1_VE1000_randls_33.json,865211,1039190,56,Woman
1,218627,DepthScenes,duration_manipulation_targetAtFixation,jsons/v1_VE1000_randls_33.json,http://54.235.29.9/FacialAge/BNav_EC2/DepthDuration/v2_depth_duration_MTurk/v2_DepthDuration_HTML.html#84,84,1366,768,1366,768,8-22-2022,8-3-12,2,depth_duration_stimuli/002568_2014-06-24_13-59-21_094959634447_rgbf000062-resize_4/002568_2014-06-24_13-59-21_094959634447_rgbf000062-resize_4-target.png,1000,3.015,3,4423,984,meters,jsons/v1_VE1000_randls_33.json,865211,1039190,56,Woman
2,218627,DepthScenes,duration_manipulation_targetAtFixation,jsons/v1_VE1000_randls_33.json,http://54.235.29.9/FacialAge/BNav_EC2/DepthDuration/v2_depth_duration_MTurk/v2_DepthDuration_HTML.html#84,84,1366,768,1366,768,8-22-2022,8-3-12,3,depth_duration_stimuli/001417_2014-06-19_16-25-36_260595134347_rgbf000115-resize_5/001417_2014-06-19_16-25-36_260595134347_rgbf000115-resize_5-target.png,1000,4.6255,4,4261,997,meters,jsons/v1_VE1000_randls_33.json,865211,1039190,56,Woman
3,218627,DepthScenes,duration_manipulation_targetAtFixation,jsons/v1_VE1000_randls_33.json,http://54.235.29.9/FacialAge/BNav_EC2/DepthDuration/v2_depth_duration_MTurk/v2_DepthDuration_HTML.html#84,84,1366,768,1366,768,8-22-2022,8-3-12,4,depth_duration_stimuli/003081_2014-06-15_15-19-16_094959634447_rgbf000150-resize_1/003081_2014-06-15_15-19-16_094959634447_rgbf000150-resize_1-target.png,1000,3.9125,2,16625,1007,meters,jsons/v1_VE1000_randls_33.json,865211,1039190,56,Woman
4,218627,DepthScenes,duration_manipulation_targetAtFixation,jsons/v1_VE1000_randls_33.json,http://54.235.29.9/FacialAge/BNav_EC2/DepthDuration/v2_depth_duration_MTurk/v2_DepthDuration_HTML.html#84,84,1366,768,1366,768,8-22-2022,8-3-12,5,depth_duration_stimuli/002272_2014-06-28_18-53-56_260595134347_rgbf000067-resize_2/002272_2014-06-28_18-53-56_260595134347_rgbf000067-resize_2-target.png,1000,1.138,1,5127,995,meters,jsons/v1_VE1000_randls_33.json,865211,1039190,56,Woman
5,218627,DepthScenes,duration_manipulation_targetAtFixation,jsons/v1_VE1000_randls_33.json,http://54.235.29.9/FacialAge/BNav_EC2/DepthDuration/v2_depth_duration_MTurk/v2_DepthDuration_HTML.html#84,84,1366,768,1366,768,8-22-2022,8-3-12,6,depth_duration_stimuli/001571_2014-06-20_17-21-32_260595134347_rgbf000089-resize_1/001571_2014-06-20_17-21-32_260595134347_rgbf000089-resize_1-target.png,1000,1.86,3,5716,982,meters,jsons/v1_VE1000_randls_33.json,865211,1039190,56,Woman
6,218627,DepthScenes,duration_manipulation_targetAtFixation,jsons/v1_VE1000_randls_33.json,http://54.235.29.9/FacialAge/BNav_EC2/DepthDuration/v2_depth_duration_MTurk/v2_DepthDuration_HTML.html#84,84,1366,768,1366,768,8-22-2022,8-3-12,7,depth_duration_stimuli/001133_2014-06-17_14-49-16_260595134347_rgbf000100-resize_0/001133_2014-06-17_14-49-16_260595134347_rgbf000100-resize_0-target.png,1000,4.2115,3,4373,1034,meters,jsons/v1_VE1000_randls_33.json,865211,1039190,56,Woman
7,218627,DepthScenes,duration_manipulation_targetAtFixation,jsons/v1_VE1000_randls_33.json,http://54.235.29.9/FacialAge/BNav_EC2/DepthDuration/v2_depth_duration_MTurk/v2_DepthDuration_HTML.html#84,84,1366,768,1366,768,8-22-2022,8-3-12,8,depth_duration_stimuli/001132_2014-06-17_14-48-54_260595134347_rgbf000100-resize_2/001132_2014-06-17_14-48-54_260595134347_rgbf000100-resize_2-target.png,1000,3.753,4,4328,986,meters,jsons/v1_VE1000_randls_33.json,865211,1039190,56,Woman
8,218627,DepthScenes,duration_manipulation_targetAtFixation,jsons/v1_VE1000_randls_33.json,http://54.235.29.9/FacialAge/BNav_EC2/DepthDuration/v2_depth_duration_MTurk/v2_DepthDuration_HTML.html#84,84,1366,768,1366,768,8-22-2022,8-3-12,9,depth_duration_stimuli/001244_2014-06-17_16-47-45_260595134347_rgbf000030-resize_4/001244_2014-06-17_16-47-45_260595134347_rgbf000030-resize_4-target.png,1000,2.0425,2,4787,1002,meters,jsons/v1_VE1000_randls_33.json,865211,1039190,56,Woman
9,218627,DepthScenes,duration_manipulation_targetAtFixation,jsons/v1_VE1000_randls_33.json,http://54.235.29.9/FacialAge/BNav_EC2/DepthDuration/v2_depth_duration_MTurk/v2_DepthDuration_HTML.html#84,84,1366,768,1366,768,8-22-2022,8-3-12,10,depth_duration_stimuli/003495_2014-05-21_16-01-51_094959634447_rgbf000100-resize_3/003495_2014-05-21_16-01-51_094959634447_rgbf000100-resize_3-target.png,1000,1.6255,2,4277,996,meters,jsons/v1_VE1000_randls_33.json,865211,1039190,56,Woman
10,218627,DepthScenes,duration_manipulation_targetAtFixation,jsons/v1_VE1000_randls_33.json,http://54.235.29.9/FacialAge/BNav_EC2/DepthDuration/v2_depth_duration_MTurk/v2_DepthDuration_HTML.html#84,84,1366,768,1366,768,8-22-2022,8-3-12,11,depth_duration_stimuli/000470_2014-06-09_19-42-40_260595134347_rgbf000094-resize_1/000470_2014-06-09_19-42-40_260595134347_rgbf000094-resize_1-target.png,1000,1.831,3,3994,990,meters,jsons/v1_VE1000_randls_33.json,865211,1039190,56,Woman
11,218627,DepthScenes,duration_manipulation_targetAtFixation,jsons/v1_VE1000_randls_33.json,http://54.235.29.9/FacialAge/BNav_EC2/DepthDuration/v2_depth_duration_MTurk/v2_DepthDuration_HTML.html#84,84,1366,768,1366,768,8-22-2022,8-3-12,12,depth_duration_stimuli/000109_2014-05-14_23-41-52_260595134347_rgbf000035-resize_9/000109_2014-05-14_23-41-52_260595134347_rgbf000035-resize_9-target.png,1000,1.3545,4,4147,988,meters,jsons/v1_VE1000_randls_33.json,865211,1039190,56,Woman
12,218627,DepthScenes,duration_manipulation_targetAtFixation,jsons/v1_VE1000_randls_33.json,http://54.235.29.9/FacialAge/BNav_EC2/DepthDuration/v2_depth_duration_MTurk/v2_DepthDuration_HTML.html#84,84,1366,768,1366,768,8-22-2022,8-3-12,13,depth_duration_stimuli/000569_2014-06-09_22-51-47_260595134347_rgbf000141-resize_3/000569_2014-06-09_22-51-47_260595134347_rgbf000141-resize-original.jpg,1000,4.512,0,4100,1003,meters,jsons/v1_VE1000_randls_33.json,865211,1039190,56,Woman
13,218627,DepthScenes,duration_manipulation_targetAtFixation,jsons/v1_VE1000_randls_33.json,http://54.235.29.9/FacialAge/BNav_EC2/DepthDuration/v2_depth_duration_MTurk/v2_DepthDuration_HTML.html#84,84,1366,768,1366,768,8-22-2022,8-3-12,14,depth_duration_stimuli/002989_2014-06-15_12-25-03_094959634447_rgbf000150-resize_3/002989_2014-06-15_12-25-03_094959634447_rgbf000150-resize_3-target.png,1000,4.1975,4,4623,971,meters,jsons/v1_VE1000_randls_33.json,865211,1039190,56,Woman
14,218627,DepthScenes,duration_manipulation_targetAtFixation,jsons/v1_VE1000_randls_33.json,http://54.235.29.9/FacialAge/BNav_EC2/DepthDuration/v2_depth_duration_MTurk/v2_DepthDuration_HTML.html#84,84,1366,768,1366,768,8-22-2022,8-3-12,15,depth_duration_stimuli/000866_2014-06-09_20-45-42_260595134347_rgbf000139-resize_1/000866_2014-06-09_20-45-42_260595134347_rgbf000139-resize_1-target.png,1000,3.2155,2,4305,996,meters,jsons/v1_VE1000_randls_33.json,865211,1039190,56,Woman
15,218627,DepthScenes,duration_manipulation_targetAtFixation,jsons/v1_VE1000_randls_33.json,http://54.235.29.9/FacialAge/BNav_EC2/DepthDuration/v2_depth_duration_MTurk/v2_DepthDuration_HTML.html#84,84,1366,768,1366,768,8-22-2022,8-3-12,16,depth_duration_stimuli/000906_2014-06-08_13-35-43_260595134347_rgbf000155-resize_1/000906_2014-06-08_13-35-43_260595134347_rgbf000155-resize_1-target.png,1000,2.8489999999999998,4,4114,1001,meters,jsons/v1_VE1000_randls_33.json,865211,1039190,56,Woman
16,218627,DepthScenes,duration_manipulation_targetAtFixation,jsons/v1_VE1000_randls_33.json,http://54.235.29.9/FacialAge/BNav_EC2/DepthDuration/v2_depth_duration_MTurk/v2_DepthDuration_HTML.html#84,84,1366,768,1366,768,8-22-2022,8-3-12,17,depth_duration_stimuli/002805_2014-06-22_19-54-03_094959634447_rgbf000079-resize_1/002805_2014-06-22_19-54-03_094959634447_rgbf000079-resize_1-target.png,1000,3.1439999999999997,2,4155,985,meters,jsons/v1_VE1000_randls_33.json,865211,1039190,56,Woman
17,218627,DepthScenes,duration_manipulation_targetAtFixation,jsons/v1_VE1000_randls_33.json,http://54.235.29.9/FacialAge/BNav_EC2/DepthDuration/v2_depth_duration_MTurk/v2_DepthDuration_HTML.html#84,84,1366,768,1366,768,8-22-2022,8-3-12,18,depth_duration_stimuli/000736_2014-06-08_18-24-15_260595134347_rgbf000206-resize_3/000736_2014-06-08_18-24-15_260595134347_rgbf000206-resize_3-target.png,1000,3.515,2,5899,989,meters,jsons/v1_VE1000_randls_33.json,865211,1039190,56,Woman
18,218627,DepthScenes,duration_manipulation_targetAtFixation,jsons/v1_VE1000_randls_33.json,http://54.235.29.9/FacialAge/BNav_EC2/DepthDuration/v2_depth_duration_MTurk/v2_DepthDuration_HTML.html#84,84,1366,768,1366,768,8-22-2022,8-3-12,19,depth_duration_stimuli/000137_2014-05-20_17-04-49_260595134347_rgbf000120-resize_1/000137_2014-05-20_17-04-49_260595134347_rgbf000120-resize_1-target.png,1000,3.786,4,4492,997,meters,jsons/v1_VE1000_randls_33.json,865211,1039190,56,Woman
19,218627,DepthScenes,duration_manipulation_targetAtFixation,jsons/v1_VE1000_randls_33.json,http://54.235.29.9/FacialAge/BNav_EC2/DepthDuration/v2_depth_duration_MTurk/v2_DepthDuration_HTML.html#84,84,1366,768,1366,768,8-22-2022,8-3-12,20,depth_duration_stimuli/002663_2014-06-13_15-50-26_094959634447_rgbf000075-resize_1/002663_2014-06-13_15-50-26_094959634447_rgbf000075-resize_1-target.png,1000,4.7495,2,4680,1013,meters,jsons/v1_VE1000_randls_33.json,865211,1039190,56,Woman
20,218627,DepthScenes,duration_manipulation_targetAtFixation,jsons/v1_VE1000_randls_33.json,http://54.235.29.9/FacialAge/BNav_EC2/DepthDuration/v2_depth_duration_MTurk/v2_DepthDuration_HTML.html#84,84,1366,768,1366,768,8-22-2022,8-3-12,21,depth_duration_stimuli/000409_2014-06-04_19-23-33_260595134347_rgbf000067-resize_0/000409_2014-06-04_19-23-33_260595134347_rgbf000067-resize_0-target.png,1000,3.7335,4,4029,980,meters,jsons/v1_VE1000_randls_33.json,865211,1039190,56,Woman
21,218627,DepthScenes,duration_manipulation_targetAtFixation,jsons/v1_VE1000_randls_33.json,http://54.235.29.9/FacialAge/BNav_EC2/DepthDuration/v2_depth_duration_MTurk/v2_DepthDuration_HTML.html#84,84,1366,768,1366,768,8-22-2022,8-3-12,22,depth_duration_stimuli/000506_2014-06-08_23-21-00_260595134347_rgbf000070-resize_7/000506_2014-06-08_23-21-00_260595134347_rgbf000070-resize_7-target.png,1000,4.0585,2,4001,1002,meters,jsons/v1_VE1000_randls_33.json,865211,1039190,56,Woman
22,218627,DepthScenes,duration_manipulation_targetAtFixation,jsons/v1_VE1000_randls_33.json,http://54.235.29.9/FacialAge/BNav_EC2/DepthDuration/v2_depth_duration_MTurk/v2_DepthDuration_HTML.html#84,84,1366,768,1366,768,8-22-2022,8-3-12,23,depth_duration_stimuli/003079_2014-06-15_15-18-20_094959634447_rgbf000152-resize_8/003079_2014-06-15_15-18-20_094959634447_rgbf000152-resize_8-target.png,1000,2.8775,1,5622,997,meters,jsons/v1_VE1000_randls_33.json,865211,1039190,56,Woman
23,218627,DepthScenes,duration_manipulation_targetAtFixation,jsons/v1_VE1000_randls_33.json,http://54.235.29.9/FacialAge/BNav_EC2/DepthDuration/v2_depth_duration_MTurk/v2_DepthDuration_HTML.html#84,84,1366,768,1366,768,8-22-2022,8-3-12,24,depth_duration_stimuli/002630_2014-06-24_14-47-50_094959634447_rgbf000055-resize_1/002630_2014-06-24_14-47-50_094959634447_rgbf000055-resize_1-target.png,1000,3.0095,2,5527,629,meters,jsons/v1_VE1000_randls_33.json,865211,1039190,56,Woman
24,218627,DepthScenes,duration_manipulation_targetAtFixation,jsons/v1_VE1000_randls_33.json,http://54.235.29.9/FacialAge/BNav_EC2/DepthDuration/v2_depth_duration_MTurk/v2_DepthDuration_HTML.html#84,84,1366,768,1366,768,8-22-2022,8-3-12,25,depth_duration_stimuli/002758_2014-06-22_19-11-20_094959634447_rgbf000128-resize_1/002758_2014-06-22_19-11-20_094959634447_rgbf000128-resize_1-target.png,1000,2.555,3,4335,1002,meters,jsons/v1_VE1000_randls_33.json,865211,1039190,56,Woman
25,218627,DepthScenes,duration_manipulation_targetAtFixation,jsons/v1_VE1000_randls_33.json,http://54.235.29.9/FacialAge/BNav_EC2/DepthDuration/v2_depth_duration_MTurk/v2_DepthDuration_HTML.html#84,84,1366,768,1366,768,8-22-2022,8-3-12,26,depth_duration_stimuli/002570_2014-06-24_13-59-54_094959634447_rgbf000059-resize_0/002570_2014-06-24_13-59-54_094959634447_rgbf000059-resize_0-target.png,1000,4.037,2,3772,1002,meters,jsons/v1_VE1000_randls_33.json,865211,1039190,56,Woman
26,218627,DepthScenes,duration_manipulation_targetAtFixation,jsons/v1_VE1000_randls_33.json,http://54.235.29.9/FacialAge/BNav_EC2/DepthDuration/v2_depth_duration_MTurk/v2_DepthDuration_HTML.html#84,84,1366,768,1366,768,8-22-2022,8-3-12,27,depth_duration_stimuli/002467_2014-06-28_20-38-07_260595134347_rgbf000026-resize_2/002467_2014-06-28_20-38-07_260595134347_rgbf000026-resize_2-target.png,1000,4.742,4,4228,1004,meters,jsons/v1_VE1000_randls_33.json,865211,1039190,56,Woman
27,218627,DepthScenes,duration_manipulation_targetAtFixation,jsons/v1_VE1000_randls_33.json,http://54.235.29.9/FacialAge/BNav_EC2/DepthDuration/v2_depth_duration_MTurk/v2_DepthDuration_HTML.html#84,84,1366,768,1366,768,8-22-2022,8-3-12,28,depth_duration_stimuli/001810_2014-06-26_20-51-35_260595134347_rgbf000040-resize_3/001810_2014-06-26_20-51-35_260595134347_rgbf000040-resize_3-target.png,1000,2.2525,2,3973,1013,meters,jsons/v1_VE1000_randls_33.json,865211,1039190,56,Woman
28,218627,DepthScenes,duration_manipulation_targetAtFixation,jsons/v1_VE1000_randls_33.json,http://54.235.29.9/FacialAge/BNav_EC2/DepthDuration/v2_depth_duration_MTurk/v2_DepthDuration_HTML.html#84,84,1366,768,1366,768,8-22-2022,8-3-12,29,depth_duration_stimuli/003010_2014-06-15_12-54-35_094959634447_rgbf000112-resize_0/003010_2014-06-15_12-54-35_094959634447_rgbf000112-resize_0-target.png,1000,3.1185,4,3910,992,meters,jsons/v1_VE1000_randls_33.json,865211,1039190,56,Woman
29,218627,DepthScenes,duration_manipulation_targetAtFixation,jsons/v1_VE1000_randls_33.json,http://54.235.29.9/FacialAge/BNav_EC2/DepthDuration/v2_depth_duration_MTurk/v2_DepthDuration_HTML.html#84,84,1366,768,1366,768,8-22-2022,8-3-12,30,depth_duration_stimuli/000375_2014-06-08_11-17-29_260595134347_rgbf000133-resize_2/000375_2014-06-08_11-17-29_260595134347_rgbf000133-resize-original.jpg,1000,4.718,0,3766,993,meters,jsons/v1_VE1000_randls_33.json,865211,1039190,56,Woman
30,218627,DepthScenes,duration_manipulation_targetAtFixation,jsons/v1_VE1000_randls_33.json,http://54.235.29.9/FacialAge/BNav_EC2/DepthDuration/v2_depth_duration_MTurk/v2_DepthDuration_HTML.html#84,84,1366,768,1366,768,8-22-2022,8-3-12,31,depth_duration_stimuli/002039_2014-06-24_20-22-38_260595134347_rgbf000084-resize_1/002039_2014-06-24_20-22-38_260595134347_rgbf000084-resize_1-target.png,1000,4.408,4,3771,1000,meters,jsons/v1_VE1000_randls_33.json,865211,1039190,56,Woman
31,218627,DepthScenes,duration_manipulation_targetAtFixation,jsons/v1_VE1000_randls_33.json,http://54.235.29.9/FacialAge/BNav_EC2/DepthDuration/v2_depth_duration_MTurk/v2_DepthDuration_HTML.html#84,84,1366,768,1366,768,8-22-2022,8-3-12,32,depth_duration_stimuli/002103_2014-06-25_20-00-40_260595134347_rgbf000049-resize_0/002103_2014-06-25_20-00-40_260595134347_rgbf000049-resize_0-target.png,1000,4.105,2,4246,1003,meters,jsons/v1_VE1000_randls_33.json,865211,1039190,56,Woman
32,218627,DepthScenes,duration_manipulation_targetAtFixation,jsons/v1_VE1000_randls_33.json,http://54.235.29.9/FacialAge/BNav_EC2/DepthDuration/v2_depth_duration_MTurk/v2_DepthDuration_HTML.html#84,84,1366,768,1366,768,8-22-2022,8-3-12,33,depth_duration_stimuli/001016_2014-06-09_16-16-10_260595134347_rgbf000112-resize_5/001016_2014-06-09_16-16-10_260595134347_rgbf000112-resize_5-target.png,1000,1.6565,3,4059,998,meters,jsons/v1_VE1000_randls_33.json,865211,1039190,56,Woman
33,218627,DepthScenes,duration_manipulation_targetAtFixation,jsons/v1_VE1000_randls_33.json,http://54.235.29.9/FacialAge/BNav_EC2/DepthDuration/v2_depth_duration_MTurk/v2_DepthDuration_HTML.html#84,84,1366,768,1366,768,8-22-2022,8-3-12,34,depth_duration_stimuli/002340_2014-06-28_20-05-46_260595134347_rgbf000113-resize_0/002340_2014-06-28_20-05-46_260595134347_rgbf000113-resize_0-target.png,1000,2.4735,4,4092,995,meters,jsons/v1_VE1000_randls_33.json,865211,1039190,56,Woman
34,218627,DepthScenes,duration_manipulation_targetAtFixation,jsons/v1_VE1000_randls_33.json,http://54.235.29.9/FacialAge/BNav_EC2/DepthDuration/v2_depth_duration_MTurk/v2_DepthDuration_HTML.html#84,84,1366,768,1366,768,8-22-2022,8-3-12,35,depth_duration_stimuli/000682_2014-06-08_23-14-58_260595134347_rgbf000041-resize_5/000682_2014-06-08_23-14-58_260595134347_rgbf000041-resize_5-target.png,1000,2.7239999999999998,2,3560,999,meters,jsons/v1_VE1000_randls_33.json,865211,1039190,56,Woman
35,218627,DepthScenes,duration_manipulation_targetAtFixation,jsons/v1_VE1000_randls_33.json,http://54.235.29.9/FacialAge/BNav_EC2/DepthDuration/v2_depth_duration_MTurk/v2_DepthDuration_HTML.html#84,84,1366,768,1366,768,8-22-2022,8-3-12,36,depth_duration_stimuli/001650_2014-06-20_12-09-00_260595134347_rgbf000087-resize_3/001650_2014-06-20_12-09-00_260595134347_rgbf000087-resize_3-target.png,1000,1.9505,4,4073,999,meters,jsons/v1_VE1000_randls_33.json,865211,1039190,56,Woman
36,218627,DepthScenes,duration_manipulation_targetAtFixation,jsons/v1_VE1000_randls_33.json,http://54.235.29.9/FacialAge/BNav_EC2/DepthDuration/v2_depth_duration_MTurk/v2_DepthDuration_HTML.html#84,84,1366,768,1366,768,8-22-2022,8-3-12,37,depth_duration_stimuli/003534_2014-05-22_15-06-10_094959634447_rgbf000102-resize_4/003534_2014-05-22_15-06-10_094959634447_rgbf000102-resize_4-target.png,1000,1.426,2,3423,992,meters,jsons/v1_VE1000_randls_33.json,865211,1039190,56,Woman
37,218627,DepthScenes,duration_manipulation_targetAtFixation,jsons/v1_VE1000_randls_33.json,http://54.235.29.9/FacialAge/BNav_EC2/DepthDuration/v2_depth_duration_MTurk/v2_DepthDuration_HTML.html#84,84,1366,768,1366,768,8-22-2022,8-3-12,38,depth_duration_stimuli/002637_2014-06-24_14-51-13_094959634447_rgbf000066-resize_4/002637_2014-06-24_14-51-13_094959634447_rgbf000066-resize_4-target.png,1000,1.9955,3,4006,973,meters,jsons/v1_VE1000_randls_33.json,865211,1039190,56,Woman
38,218627,DepthScenes,duration_manipulation_targetAtFixation,jsons/v1_VE1000_randls_33.json,http://54.235.29.9/FacialAge/BNav_EC2/DepthDuration/v2_depth_duration_MTurk/v2_DepthDuration_HTML.html#84,84,1366,768,1366,768,8-22-2022,8-3-12,39,depth_duration_stimuli/001092_2014-06-15_17-34-58_260595134347_rgbf000171-resize_3/001092_2014-06-15_17-34-58_260595134347_rgbf000171-resize_3-target.png,1000,2.6935,2,3894,983,meters,jsons/v1_VE1000_randls_33.json,865211,1039190,56,Woman
39,218627,DepthScenes,duration_manipulation_targetAtFixation,jsons/v1_VE1000_randls_33.json,http://54.235.29.9/FacialAge/BNav_EC2/DepthDuration/v2_depth_duration_MTurk/v2_DepthDuration_HTML.html#84,84,1366,768,1366,768,8-22-2022,8-3-12,40,depth_duration_stimuli/002545_2014-06-24_13-38-53_094959634447_rgbf000080-resize_4/002545_2014-06-24_13-38-53_094959634447_rgbf000080-resize_4-target.png,1000,1.9205,4,3848,1013,meters,jsons/v1_VE1000_randls_33.json,865211,1039190,56,Woman
40,218627,DepthScenes,duration_manipulation_targetAtFixation,jsons/v1_VE1000_randls_33.json,http://54.235.29.9/FacialAge/BNav_EC2/DepthDuration/v2_depth_duration_MTurk/v2_DepthDuration_HTML.html#84,84,1366,768,1366,768,8-22-2022,8-3-12,41,depth_duration_stimuli/000493_2014-06-09_21-01-18_260595134347_rgbf000196-resize_3/000493_2014-06-09_21-01-18_260595134347_rgbf000196-resize_3-target.png,1000,3.44,2,4018,993,meters,jsons/v1_VE1000_randls_33.json,865211,1039190,56,Woman
41,218627,DepthScenes,duration_manipulation_targetAtFixation,jsons/v1_VE1000_randls_33.json,http://54.235.29.9/FacialAge/BNav_EC2/DepthDuration/v2_depth_duration_MTurk/v2_DepthDuration_HTML.html#84,84,1366,768,1366,768,8-22-2022,8-3-12,42,depth_duration_stimuli/000191_2014-05-12_17-07-38_260595134347_rgbf000199-resize_0/000191_2014-05-12_17-07-38_260595134347_rgbf000199-resize_0-target.png,1000,3.7995,2,4940,992,meters,jsons/v1_VE1000_randls_33.json,865211,1039190,56,Woman
42,218627,DepthScenes,duration_manipulation_targetAtFixation,jsons/v1_VE1000_randls_33.json,http://54.235.29.9/FacialAge/BNav_EC2/DepthDuration/v2_depth_duration_MTurk/v2_DepthDuration_HTML.html#84,84,1366,768,1366,768,8-22-2022,8-3-12,43,depth_duration_stimuli/001059_2014-06-08_21-53-27_260595134347_rgbf000061-resize_4/001059_2014-06-08_21-53-27_260595134347_rgbf000061-resize_4-target.png,1000,2.4185,2,4309,1001,meters,jsons/v1_VE1000_randls_33.json,865211,1039190,56,Woman
43,218627,DepthScenes,duration_manipulation_targetAtFixation,jsons/v1_VE1000_randls_33.json,http://54.235.29.9/FacialAge/BNav_EC2/DepthDuration/v2_depth_duration_MTurk/v2_DepthDuration_HTML.html#84,84,1366,768,1366,768,8-22-2022,8-3-12,44,depth_duration_stimuli/001032_2014-06-08_13-23-17_260595134347_rgbf000021-resize_3/001032_2014-06-08_13-23-17_260595134347_rgbf000021-resize_3-target.png,1000,3.2725,2,5965,993,meters,jsons/v1_VE1000_randls_33.json,865211,1039190,56,Woman
44,218627,DepthScenes,duration_manipulation_targetAtFixation,jsons/v1_VE1000_randls_33.json,http://54.235.29.9/FacialAge/BNav_EC2/DepthDuration/v2_depth_duration_MTurk/v2_DepthDuration_HTML.html#84,84,1366,768,1366,768,8-22-2022,8-3-12,45,depth_duration_stimuli/000787_2014-06-08_22-33-53_260595134347_rgbf000175-resize_1/000787_2014-06-08_22-33-53_260595134347_rgbf000175-resize-original.jpg,1000,4.784,0,4038,998,meters,jsons/v1_VE1000_randls_33.json,865211,1039190,56,Woman
45,218627,DepthScenes,duration_manipulation_targetAtFixation,jsons/v1_VE1000_randls_33.json,http://54.235.29.9/FacialAge/BNav_EC2/DepthDuration/v2_depth_duration_MTurk/v2_DepthDuration_HTML.html#84,84,1366,768,1366,768,8-22-2022,8-3-12,46,depth_duration_stimuli/000486_2014-06-09_20-47-20_260595134347_rgbf000143-resize_2/000486_2014-06-09_20-47-20_260595134347_rgbf000143-resize_2-target.png,1000,4.8325,1,5431,922,meters,jsons/v1_VE1000_randls_33.json,865211,1039190,56,Woman
46,218627,DepthScenes,duration_manipulation_targetAtFixation,jsons/v1_VE1000_randls_33.json,http://54.235.29.9/FacialAge/BNav_EC2/DepthDuration/v2_depth_duration_MTurk/v2_DepthDuration_HTML.html#84,84,1366,768,1366,768,8-22-2022,8-3-12,47,depth_duration_stimuli/003083_2014-06-15_15-21-03_094959634447_rgbf000063-resize_1/003083_2014-06-15_15-21-03_094959634447_rgbf000063-resize_1-target.png,1000,4.1405,3,4439,1049,meters,jsons/v1_VE1000_randls_33.json,865211,1039190,56,Woman
47,218627,DepthScenes,duration_manipulation_targetAtFixation,jsons/v1_VE1000_randls_33.json,http://54.235.29.9/FacialAge/BNav_EC2/DepthDuration/v2_depth_duration_MTurk/v2_DepthDuration_HTML.html#84,84,1366,768,1366,768,8-22-2022,8-3-12,48,depth_duration_stimuli/002763_2014-06-22_19-13-10_094959634447_rgbf000075-resize_4/002763_2014-06-22_19-13-10_094959634447_rgbf000075-resize_4-target.png,1000,1.68375,2,3789,992,meters,jsons/v1_VE1000_randls_33.json,865211,1039190,56,Woman
48,218627,DepthScenes,duration_manipulation_targetAtFixation,jsons/v1_VE1000_randls_33.json,http://54.235.29.9/FacialAge/BNav_EC2/DepthDuration/v2_depth_duration_MTurk/v2_DepthDuration_HTML.html#84,84,1366,768,1366,768,8-22-2022,8-3-12,49,depth_duration_stimuli/002209_2014-06-28_18-36-10_260595134347_rgbf000051-resize_1/002209_2014-06-28_18-36-10_260595134347_rgbf000051-resize_1-target.png,1000,2.057,4,3757,993,meters,jsons/v1_VE1000_randls_33.json,865211,1039190,56,Woman
49,218627,DepthScenes,duration_manipulation_targetAtFixation,jsons/v1_VE1000_randls_33.json,http://54.235.29.9/FacialAge/BNav_EC2/DepthDuration/v2_depth_duration_MTurk/v2_DepthDuration_HTML.html#84,84,1366,768,1366,768,8-22-2022,8-3-12,50,depth_duration_stimuli/001199_2014-06-17_16-03-48_260595134347_rgbf000077-resize_0/001199_2014-06-17_16-03-48_260595134347_rgbf000077-resize_0-target.png,1000,3.4375,3,4029,994,meters,jsons/v1_VE1000_randls_33.json,865211,1039190,56,Woman
50,218627,DepthScenes,duration_manipulation_targetAtFixation,jsons/v1_VE1000_randls_33.json,http://54.235.29.9/FacialAge/BNav_EC2/DepthDuration/v2_depth_duration_MTurk/v2_DepthDuration_HTML.html#84,84,1366,768,1366,768,8-22-2022,8-3-12,51,depth_duration_stimuli/000502_2014-06-08_23-02-32_260595134347_rgbf000063-resize_4/000502_2014-06-08_23-02-32_260595134347_rgbf000063-resize_4-target.png,1000,2.431,2,4044,999,meters,jsons/v1_VE1000_randls_33.json,865211,1039190,56,Woman
51,218627,DepthScenes,duration_manipulation_targetAtFixation,jsons/v1_VE1000_randls_33.json,http://54.235.29.9/FacialAge/BNav_EC2/DepthDuration/v2_depth_duration_MTurk/v2_DepthDuration_HTML.html#84,84,1366,768,1366,768,8-22-2022,8-3-12,52,depth_duration_stimuli/002905_2014-06-03_18-04-43_094959634447_rgbf000151-resize_2/002905_2014-06-03_18-04-43_094959634447_rgbf000151-resize_2-target.png,1000,2.0295,2,4531,997,meters,jsons/v1_VE1000_randls_33.json,865211,1039190,56,Woman
52,218627,DepthScenes,duration_manipulation_targetAtFixation,jsons/v1_VE1000_randls_33.json,http://54.235.29.9/FacialAge/BNav_EC2/DepthDuration/v2_depth_duration_MTurk/v2_DepthDuration_HTML.html#84,84,1366,768,1366,768,8-22-2022,8-3-12,53,depth_duration_stimuli/003423_2014-05-21_10-23-26_094959634447_rgbf002665-resize_2/003423_2014-05-21_10-23-26_094959634447_rgbf002665-resize_2-target.png,1000,3.2575,2,3718,987,meters,jsons/v1_VE1000_randls_33.json,865211,1039190,56,Woman
53,218627,DepthScenes,duration_manipulation_targetAtFixation,jsons/v1_VE1000_randls_33.json,http://54.235.29.9/FacialAge/BNav_EC2/DepthDuration/v2_depth_duration_MTurk/v2_DepthDuration_HTML.html#84,84,1366,768,1366,768,8-22-2022,8-3-12,54,depth_duration_stimuli/002043_2014-06-24_20-29-38_260595134347_rgbf000039-resize_4/002043_2014-06-24_20-29-38_260595134347_rgbf000039-resize_4-target.png,1000,2.8435,4,4076,983,meters,jsons/v1_VE1000_randls_33.json,865211,1039190,56,Woman
54,218627,DepthScenes,duration_manipulation_targetAtFixation,jsons/v1_VE1000_randls_33.json,http://54.235.29.9/FacialAge/BNav_EC2/DepthDuration/v2_depth_duration_MTurk/v2_DepthDuration_HTML.html#84,84,1366,768,1366,768,8-22-2022,8-3-12,55,depth_duration_stimuli/003048_2014-06-15_13-49-43_094959634447_rgbf000150-resize_1/003048_2014-06-15_13-49-43_094959634447_rgbf000150-resize_1-target.png,1000,4.0035,4,4083,1019,meters,jsons/v1_VE1000_randls_33.json,865211,1039190,56,Woman
55,218627,DepthScenes,duration_manipulation_targetAtFixation,jsons/v1_VE1000_randls_33.json,http://54.235.29.9/FacialAge/BNav_EC2/DepthDuration/v2_depth_duration_MTurk/v2_DepthDuration_HTML.html#84,84,1366,768,1366,768,8-22-2022,8-3-12,56,depth_duration_stimuli/000368_2014-06-09_15-53-01_260595134347_rgbf000155-resize_2/000368_2014-06-09_15-53-01_260595134347_rgbf000155-resize_2-target.png,1000,2.4859999999999998,2,4002,996,meters,jsons/v1_VE1000_randls_33.json,865211,1039190,56,Woman
56,218627,DepthScenes,duration_manipulation_targetAtFixation,jsons/v1_VE1000_randls_33.json,http://54.235.29.9/FacialAge/BNav_EC2/DepthDuration/v2_depth_duration_MTurk/v2_DepthDuration_HTML.html#84,84,1366,768,1366,768,8-22-2022,8-3-12,57,depth_duration_stimuli/002678_2014-06-13_16-15-32_094959634447_rgbf000151-resize_6/002678_2014-06-13_16-15-32_094959634447_rgbf000151-resize_6-target.png,1000,2.1830000000000003,4,3822,994,meters,jsons/v1_VE1000_randls_33.json,865211,1039190,56,Woman
57,218627,DepthScenes,duration_manipulation_targetAtFixation,jsons/v1_VE1000_randls_33.json,http://54.235.29.9/FacialAge/BNav_EC2/DepthDuration/v2_depth_duration_MTurk/v2_DepthDuration_HTML.html#84,84,1366,768,1366,768,8-22-2022,8-3-12,58,depth_duration_stimuli/002375_2014-06-28_20-13-44_260595134347_rgbf000032-resize_1/002375_2014-06-28_20-13-44_260595134347_rgbf000032-resize_1-target.png,1000,4.0175,2,3987,986,meters,jsons/v1_VE1000_randls_33.json,865211,1039190,56,Woman
58,218627,DepthScenes,duration_manipulation_targetAtFixation,jsons/v1_VE1000_randls_33.json,http://54.235.29.9/FacialAge/BNav_EC2/DepthDuration/v2_depth_duration_MTurk/v2_DepthDuration_HTML.html#84,84,1366,768,1366,768,8-22-2022,8-3-12,59,depth_duration_stimuli/002657_2014-06-13_15-29-54_094959634447_rgbf000150-resize_1/002657_2014-06-13_15-29-54_094959634447_rgbf000150-resize_1-target.png,1000,4.919,2,4733,989,meters,jsons/v1_VE1000_randls_33.json,865211,1039190,56,Woman
59,218627,DepthScenes,duration_manipulation_targetAtFixation,jsons/v1_VE1000_randls_33.json,http://54.235.29.9/FacialAge/BNav_EC2/DepthDuration/v2_depth_duration_MTurk/v2_DepthDuration_HTML.html#84,84,1366,768,1366,768,8-22-2022,8-3-12,60,depth_duration_stimuli/000692_2014-06-08_13-09-42_260595134347_rgbf000199-resize_2/000692_2014-06-08_13-09-42_260595134347_rgbf000199-resize_2-target.png,1000,3.661,3,4868,1085,meters,jsons/v1_VE1000_randls_33.json,865211,1039190,56,Woman
60,218627,DepthScenes,duration_manipulation_targetAtFixation,jsons/v1_VE1000_randls_33.json,http://54.235.29.9/FacialAge/BNav_EC2/DepthDuration/v2_depth_duration_MTurk/v2_DepthDuration_HTML.html#84,84,1366,768,1366,768,8-22-2022,8-3-12,61,depth_duration_stimuli/001094_2014-06-15_17-36-00_260595134347_rgbf000205-resize_0/001094_2014-06-15_17-36-00_260595134347_rgbf000205-resize_0-target.png,1000,4.2175,1,4048,984,meters,jsons/v1_VE1000_randls_33.json,865211,1039190,56,Woman
61,218627,DepthScenes,duration_manipulation_targetAtFixation,jsons/v1_VE1000_randls_33.json,http://54.235.29.9/FacialAge/BNav_EC2/DepthDuration/v2_depth_duration_MTurk/v2_DepthDuration_HTML.html#84,84,1366,768,1366,768,8-22-2022,8-3-12,62,depth_duration_stimuli/003070_2014-06-15_14-58-27_094959634447_rgbf000150-resize_3/003070_2014-06-15_14-58-27_094959634447_rgbf000150-resize_3-target.png,1000,2.9415,2,4520,1015,meters,jsons/v1_VE1000_randls_33.json,865211,1039190,56,Woman
62,218627,DepthScenes,duration_manipulation_targetAtFixation,jsons/v1_VE1000_randls_33.json,http://54.235.29.9/FacialAge/BNav_EC2/DepthDuration/v2_depth_duration_MTurk/v2_DepthDuration_HTML.html#84,84,1366,768,1366,768,8-22-2022,8-3-12,63,depth_duration_stimuli/000943_2014-06-09_19-31-07_260595134347_rgbf000128-resize_1/000943_2014-06-09_19-31-07_260595134347_rgbf000128-resize_1-target.png,1000,1.9765,2,4291,980,meters,jsons/v1_VE1000_randls_33.json,865211,1039190,56,Woman
63,218627,DepthScenes,duration_manipulation_targetAtFixation,jsons/v1_VE1000_randls_33.json,http://54.235.29.9/FacialAge/BNav_EC2/DepthDuration/v2_depth_duration_MTurk/v2_DepthDuration_HTML.html#84,84,1366,768,1366,768,8-22-2022,8-3-12,64,depth_duration_stimuli/002279_2014-06-28_18-55-32_260595134347_rgbf000040-resize_5/002279_2014-06-28_18-55-32_260595134347_rgbf000040-resize_5-target.png,1000,1.5043333333333,3,4163,1005,meters,jsons/v1_VE1000_randls_33.json,865211,1039190,56,Woman
64,218627,DepthScenes,duration_manipulation_targetAtFixation,jsons/v1_VE1000_randls_33.json,http://54.235.29.9/FacialAge/BNav_EC2/DepthDuration/v2_depth_duration_MTurk/v2_DepthDuration_HTML.html#84,84,1366,768,1366,768,8-22-2022,8-3-12,65,depth_duration_stimuli/000635_2014-06-08_16-38-42_260595134347_rgbf000106-resize_1/000635_2014-06-08_16-38-42_260595134347_rgbf000106-resize_1-target.png,1000,2.074,2,4284,995,meters,jsons/v1_VE1000_randls_33.json,865211,1039190,56,Woman
65,218627,DepthScenes,duration_manipulation_targetAtFixation,jsons/v1_VE1000_randls_33.json,http://54.235.29.9/FacialAge/BNav_EC2/DepthDuration/v2_depth_duration_MTurk/v2_DepthDuration_HTML.html#84,84,1366,768,1366,768,8-22-2022,8-3-12,66,depth_duration_stimuli/001222_2014-06-17_16-24-06_260595134347_rgbf000073-resize_0/001222_2014-06-17_16-24-06_260595134347_rgbf000073-resize-original.jpg,1000,1.4385,0,5388,1103,meters,jsons/v1_VE1000_randls_33.json,865211,1039190,56,Woman
66,218627,DepthScenes,duration_manipulation_targetAtFixation,jsons/v1_VE1000_randls_33.json,http://54.235.29.9/FacialAge/BNav_EC2/DepthDuration/v2_depth_duration_MTurk/v2_DepthDuration_HTML.html#84,84,1366,768,1366,768,8-22-2022,8-3-12,67,depth_duration_stimuli/000009_2014-05-26_14-32-05_260595134347_rgbf000034-resize_3/000009_2014-05-26_14-32-05_260595134347_rgbf000034-resize_3-target.png,1000,3.8715,4,4607,1142,meters,jsons/v1_VE1000_randls_33.json,865211,1039190,56,Woman
67,218627,DepthScenes,duration_manipulation_targetAtFixation,jsons/v1_VE1000_randls_33.json,http://54.235.29.9/FacialAge/BNav_EC2/DepthDuration/v2_depth_duration_MTurk/v2_DepthDuration_HTML.html#84,84,1366,768,1366,768,8-22-2022,8-3-12,68,depth_duration_stimuli/001828_2014-06-26_21-40-03_260595134347_rgbf000024-resize_0/001828_2014-06-26_21-40-03_260595134347_rgbf000024-resize_0-target.png,1000,4.8260000000000005,5,4876,1008,meters,jsons/v1_VE1000_randls_33.json,865211,1039190,56,Woman
68,218627,DepthScenes,duration_manipulation_targetAtFixation,jsons/v1_VE1000_randls_33.json,http://54.235.29.9/FacialAge/BNav_EC2/DepthDuration/v2_depth_duration_MTurk/v2_DepthDuration_HTML.html#84,84,1366,768,1366,768,8-22-2022,8-3-12,69,depth_duration_stimuli/002964_2014-06-08_17-46-11_094959634447_rgbf000091-resize_4/002964_2014-06-08_17-46-11_094959634447_rgbf000091-resize_4-target.png,1000,1.6909999999999998,2,6721,996,meters,jsons/v1_VE1000_randls_33.json,865211,1039190,56,Woman
69,218627,DepthScenes,duration_manipulation_targetAtFixation,jsons/v1_VE1000_randls_33.json,http://54.235.29.9/FacialAge/BNav_EC2/DepthDuration/v2_depth_duration_MTurk/v2_DepthDuration_HTML.html#84,84,1366,768,1366,768,8-22-2022,8-3-12,70,depth_duration_stimuli/002136_2014-06-25_21-18-03_260595134347_rgbf000109-resize_3/002136_2014-06-25_21-18-03_260595134347_rgbf000109-resize_3-target.png,1000,1.9569999999999999,2,6152,997,meters,jsons/v1_VE1000_randls_33.json,865211,1039190,56,Woman
70,218627,DepthScenes,duration_manipulation_targetAtFixation,jsons/v1_VE1000_randls_33.json,http://54.235.29.9/FacialAge/BNav_EC2/DepthDuration/v2_depth_duration_MTurk/v2_DepthDuration_HTML.html#84,84,1366,768,1366,768,8-22-2022,8-3-12,71,depth_duration_stimuli/000878_2014-06-08_22-52-45_260595134347_rgbf000045-resize_2/000878_2014-06-08_22-52-45_260595134347_rgbf000045-resize_2-target.png,1000,2.092,1,4239,995,meters,jsons/v1_VE1000_randls_33.json,865211,1039190,56,Woman
71,218627,DepthScenes,duration_manipulation_targetAtFixation,jsons/v1_VE1000_randls_33.json,http://54.235.29.9/FacialAge/BNav_EC2/DepthDuration/v2_depth_duration_MTurk/v2_DepthDuration_HTML.html#84,84,1366,768,1366,768,8-22-2022,8-3-12,72,depth_duration_stimuli/002953_2014-06-08_17-32-18_094959634447_rgbf000059-resize_5/002953_2014-06-08_17-32-18_094959634447_rgbf000059-resize_5-target.png,1000,1.551,2,5015,1001,meters,jsons/v1_VE1000_randls_33.json,865211,1039190,56,Woman
72,218627,DepthScenes,duration_manipulation_targetAtFixation,jsons/v1_VE1000_randls_33.json,http://54.235.29.9/FacialAge/BNav_EC2/DepthDuration/v2_depth_duration_MTurk/v2_DepthDuration_HTML.html#84,84,1366,768,1366,768,8-22-2022,8-3-12,73,depth_duration_stimuli/001110_2014-06-15_17-25-28_260595134347_rgbf000150-resize_1/001110_2014-06-15_17-25-28_260595134347_rgbf000150-resize_1-target.png,1000,1.7115,2,4392,995,meters,jsons/v1_VE1000_randls_33.json,865211,1039190,56,Woman
73,218627,DepthScenes,duration_manipulation_targetAtFixation,jsons/v1_VE1000_randls_33.json,http://54.235.29.9/FacialAge/BNav_EC2/DepthDuration/v2_depth_duration_MTurk/v2_DepthDuration_HTML.html#84,84,1366,768,1366,768,8-22-2022,8-3-12,74,depth_duration_stimuli/000927_2014-06-09_16-32-30_260595134347_rgbf000123-resize_3/000927_2014-06-09_16-32-30_260595134347_rgbf000123-resize_3-target.png,1000,2.6785,3,4139,985,meters,jsons/v1_VE1000_randls_33.json,865211,1039190,56,Woman
74,218627,DepthScenes,duration_manipulation_targetAtFixation,jsons/v1_VE1000_randls_33.json,http://54.235.29.9/FacialAge/BNav_EC2/DepthDuration/v2_depth_duration_MTurk/v2_DepthDuration_HTML.html#84,84,1366,768,1366,768,8-22-2022,8-3-12,75,depth_duration_stimuli/001066_2014-06-08_22-03-20_260595134347_rgbf000066-resize_4/001066_2014-06-08_22-03-20_260595134347_rgbf000066-resize_4-target.png,1000,4.2330000000000005,2,5451,985,meters,jsons/v1_VE1000_randls_33.json,865211,1039190,56,Woman
75,218627,DepthScenes,duration_manipulation_targetAtFixation,jsons/v1_VE1000_randls_33.json,http://54.235.29.9/FacialAge/BNav_EC2/DepthDuration/v2_depth_duration_MTurk/v2_DepthDuration_HTML.html#84,84,1366,768,1366,768,8-22-2022,8-3-12,76,depth_duration_stimuli/000742_2014-06-08_18-48-09_260595134347_rgbf000164-resize_4/000742_2014-06-08_18-48-09_260595134347_rgbf000164-resize_4-target.png,1000,4.632,2,6317,1001,meters,jsons/v1_VE1000_randls_33.json,865211,1039190,56,Woman
76,218627,DepthScenes,duration_manipulation_targetAtFixation,jsons/v1_VE1000_randls_33.json,http://54.235.29.9/FacialAge/BNav_EC2/DepthDuration/v2_depth_duration_MTurk/v2_DepthDuration_HTML.html#84,84,1366,768,1366,768,8-22-2022,8-3-12,77,depth_duration_stimuli/001806_2014-06-26_20-50-20_260595134347_rgbf000091-resize_1/001806_2014-06-26_20-50-20_260595134347_rgbf000091-resize_1-target.png,1000,2.7305,2,5519,1012,meters,jsons/v1_VE1000_randls_33.json,865211,1039190,56,Woman
77,218627,DepthScenes,duration_manipulation_targetAtFixation,jsons/v1_VE1000_randls_33.json,http://54.235.29.9/FacialAge/BNav_EC2/DepthDuration/v2_depth_duration_MTurk/v2_DepthDuration_HTML.html#84,84,1366,768,1366,768,8-22-2022,8-3-12,78,depth_duration_stimuli/001617_2014-06-20_11-35-32_260595134347_rgbf000066-resize_1/001617_2014-06-20_11-35-32_260595134347_rgbf000066-resize_1-target.png,1000,3.7910000000000004,3,4558,999,meters,jsons/v1_VE1000_randls_33.json,865211,1039190,56,Woman
78,218627,DepthScenes,duration_manipulation_targetAtFixation,jsons/v1_VE1000_randls_33.json,http://54.235.29.9/FacialAge/BNav_EC2/DepthDuration/v2_depth_duration_MTurk/v2_DepthDuration_HTML.html#84,84,1366,768,1366,768,8-22-2022,8-3-12,79,depth_duration_stimuli/001150_2014-06-17_15-27-34_260595134347_rgbf000108-resize_2/001150_2014-06-17_15-27-34_260595134347_rgbf000108-resize_2-target.png,1000,4.0325,2,4915,983,meters,jsons/v1_VE1000_randls_33.json,865211,1039190,56,Woman
79,218627,DepthScenes,duration_manipulation_targetAtFixation,jsons/v1_VE1000_randls_33.json,http://54.235.29.9/FacialAge/BNav_EC2/DepthDuration/v2_depth_duration_MTurk/v2_DepthDuration_HTML.html#84,84,1366,768,1366,768,8-22-2022,8-3-12,80,depth_duration_stimuli/000665_2014-06-09_20-42-35_260595134347_rgbf000110-resize_1/000665_2014-06-09_20-42-35_260595134347_rgbf000110-resize_1-target.png,1000,3.057,2,4575,986,meters,jsons/v1_VE1000_randls_33.json,865211,1039190,56,Woman
80,218627,DepthScenes,duration_manipulation_targetAtFixation,jsons/v1_VE1000_randls_33.json,http://54.235.29.9/FacialAge/BNav_EC2/DepthDuration/v2_depth_duration_MTurk/v2_DepthDuration_HTML.html#84,84,1366,768,1366,768,8-22-2022,8-3-12,81,depth_duration_stimuli/002509_2014-06-24_13-19-22_094959634447_rgbf000077-resize_0/002509_2014-06-24_13-19-22_094959634447_rgbf000077-resize_0-target.png,1000,1.3065,4,5250,991,meters,jsons/v1_VE1000_randls_33.json,865211,1039190,56,Woman
81,218627,DepthScenes,duration_manipulation_targetAtFixation,jsons/v1_VE1000_randls_33.json,http://54.235.29.9/FacialAge/BNav_EC2/DepthDuration/v2_depth_duration_MTurk/v2_DepthDuration_HTML.html#84,84,1366,768,1366,768,8-22-2022,8-3-12,82,depth_duration_stimuli/003338_2014-05-20_11-01-23_094959634447_rgbf000051-resize_6/003338_2014-05-20_11-01-23_094959634447_rgbf000051-resize_6-target.png,1000,1.693,2,5024,1012,meters,jsons/v1_VE1000_randls_33.json,865211,1039190,56,Woman
82,218627,DepthScenes,duration_manipulation_targetAtFixation,jsons/v1_VE1000_randls_33.json,http://54.235.29.9/FacialAge/BNav_EC2/DepthDuration/v2_depth_duration_MTurk/v2_DepthDuration_HTML.html#84,84,1366,768,1366,768,8-22-2022,8-3-12,83,depth_duration_stimuli/001158_2014-06-17_15-32-16_260595134347_rgbf000138-resize_2/001158_2014-06-17_15-32-16_260595134347_rgbf000138-resize_2-target.png,1000,4.5315,5,4591,934,meters,jsons/v1_VE1000_randls_33.json,865211,1039190,56,Woman
83,218627,DepthScenes,duration_manipulation_targetAtFixation,jsons/v1_VE1000_randls_33.json,http://54.235.29.9/FacialAge/BNav_EC2/DepthDuration/v2_depth_duration_MTurk/v2_DepthDuration_HTML.html#84,84,1366,768,1366,768,8-22-2022,8-3-12,84,depth_duration_stimuli/000556_2014-06-09_22-42-56_260595134347_rgbf000214-resize_1/000556_2014-06-09_22-42-56_260595134347_rgbf000214-resize_1-target.png,1000,4.8415,5,3794,988,meters,jsons/v1_VE1000_randls_33.json,865211,1039190,56,Woman
84,218627,DepthScenes,duration_manipulation_targetAtFixation,jsons/v1_VE1000_randls_33.json,http://54.235.29.9/FacialAge/BNav_EC2/DepthDuration/v2_depth_duration_MTurk/v2_DepthDuration_HTML.html#84,84,1366,768,1366,768,8-22-2022,8-3-12,85,depth_duration_stimuli/001055_2014-06-08_18-45-35_260595134347_rgbf000111-resize_4/001055_2014-06-08_18-45-35_260595134347_rgbf000111-resize_4-target.png,1000,2.4290000000000003,5,4365,986,meters,jsons/v1_VE1000_randls_33.json,865211,1039190,56,Woman
85,218627,DepthScenes,duration_manipulation_targetAtFixation,jsons/v1_VE1000_randls_33.json,http://54.235.29.9/FacialAge/BNav_EC2/DepthDuration/v2_depth_duration_MTurk/v2_DepthDuration_HTML.html#84,84,1366,768,1366,768,8-22-2022,8-3-12,86,depth_duration_stimuli/000549_2014-06-08_22-10-24_260595134347_rgbf000247-resize_3/000549_2014-06-08_22-10-24_260595134347_rgbf000247-resize_3-target.png,1000,1.841,4,4040,992,meters,jsons/v1_VE1000_randls_33.json,865211,1039190,56,Woman
86,218627,DepthScenes,duration_manipulation_targetAtFixation,jsons/v1_VE1000_randls_33.json,http://54.235.29.9/FacialAge/BNav_EC2/DepthDuration/v2_depth_duration_MTurk/v2_DepthDuration_HTML.html#84,84,1366,768,1366,768,8-22-2022,8-3-12,87,depth_duration_stimuli/000758_2014-06-08_22-05-08_260595134347_rgbf000085-resize_0/000758_2014-06-08_22-05-08_260595134347_rgbf000085-resize_0-target.png,1000,3.3810000000000002,4,3862,951,meters,jsons/v1_VE1000_randls_33.json,865211,1039190,56,Woman
87,218627,DepthScenes,duration_manipulation_targetAtFixation,jsons/v1_VE1000_randls_33.json,http://54.235.29.9/FacialAge/BNav_EC2/DepthDuration/v2_depth_duration_MTurk/v2_DepthDuration_HTML.html#84,84,1366,768,1366,768,8-22-2022,8-3-12,88,depth_duration_stimuli/000854_2014-06-09_19-43-13_260595134347_rgbf000066-resize_0/000854_2014-06-09_19-43-13_260595134347_rgbf000066-resize_0-target.png,1000,3.068,4,4421,1005,meters,jsons/v1_VE1000_randls_33.json,865211,1039190,56,Woman
88,218627,DepthScenes,duration_manipulation_targetAtFixation,jsons/v1_VE1000_randls_33.json,http://54.235.29.9/FacialAge/BNav_EC2/DepthDuration/v2_depth_duration_MTurk/v2_DepthDuration_HTML.html#84,84,1366,768,1366,768,8-22-2022,8-3-12,89,depth_duration_stimuli/001570_2014-06-20_17-21-09_260595134347_rgbf000135-resize_4/001570_2014-06-20_17-21-09_260595134347_rgbf000135-resize_4-target.png,1000,4.467,5,4071,996,meters,jsons/v1_VE1000_randls_33.json,865211,1039190,56,Woman
89,218627,DepthScenes,duration_manipulation_targetAtFixation,jsons/v1_VE1000_randls_33.json,http://54.235.29.9/FacialAge/BNav_EC2/DepthDuration/v2_depth_duration_MTurk/v2_DepthDuration_HTML.html#84,84,1366,768,1366,768,8-22-2022,8-3-12,90,depth_duration_stimuli/001392_2014-06-19_16-07-59_260595134347_rgbf000046-resize_1/001392_2014-06-19_16-07-59_260595134347_rgbf000046-resize_1-target.png,1000,4.135,5,4081,999,meters,jsons/v1_VE1000_randls_33.json,865211,1039190,56,Woman
90,218627,DepthScenes,duration_manipulation_targetAtFixation,jsons/v1_VE1000_randls_33.json,http://54.235.29.9/FacialAge/BNav_EC2/DepthDuration/v2_depth_duration_MTurk/v2_DepthDuration_HTML.html#84,84,1366,768,1366,768,8-22-2022,8-3-12,91,depth_duration_stimuli/001175_2014-06-17_15-45-55_260595134347_rgbf000129-resize_4/001175_2014-06-17_15-45-55_260595134347_rgbf000129-resize_4-target.png,1000,4.255,6,4368,996,meters,jsons/v1_VE1000_randls_33.json,865211,1039190,56,Woman
91,218627,DepthScenes,duration_manipulation_targetAtFixation,jsons/v1_VE1000_randls_33.json,http://54.235.29.9/FacialAge/BNav_EC2/DepthDuration/v2_depth_duration_MTurk/v2_DepthDuration_HTML.html#84,84,1366,768,1366,768,8-22-2022,8-3-12,92,depth_duration_stimuli/003490_2014-05-21_15-50-11_094959634447_rgbf000101-resize_3/003490_2014-05-21_15-50-11_094959634447_rgbf000101-resize_3-target.png,1000,3.6445,1,4206,991,meters,jsons/v1_VE1000_randls_33.json,865211,1039190,56,Woman
92,218627,DepthScenes,duration_manipulation_targetAtFixation,jsons/v1_VE1000_randls_33.json,http://54.235.29.9/FacialAge/BNav_EC2/DepthDuration/v2_depth_duration_MTurk/v2_DepthDuration_HTML.html#84,84,1366,768,1366,768,8-22-2022,8-3-12,93,depth_duration_stimuli/002725_2014-06-22_11-47-51_094959634447_rgbf000070-resize_1/002725_2014-06-22_11-47-51_094959634447_rgbf000070-resize_1-target.png,1000,2.195,5,3982,1001,meters,jsons/v1_VE1000_randls_33.json,865211,1039190,56,Woman
93,218627,DepthScenes,duration_manipulation_targetAtFixation,jsons/v1_VE1000_randls_33.json,http://54.235.29.9/FacialAge/BNav_EC2/DepthDuration/v2_depth_duration_MTurk/v2_DepthDuration_HTML.html#84,84,1366,768,1366,768,8-22-2022,8-3-12,94,depth_duration_stimuli/002344_2014-06-28_20-06-29_260595134347_rgbf000030-resize_1/002344_2014-06-28_20-06-29_260595134347_rgbf000030-resize_1-target.png,1000,1.5795,4,3813,976,meters,jsons/v1_VE1000_randls_33.json,865211,1039190,56,Woman
94,218627,DepthScenes,duration_manipulation_targetAtFixation,jsons/v1_VE1000_randls_33.json,http://54.235.29.9/FacialAge/BNav_EC2/DepthDuration/v2_depth_duration_MTurk/v2_DepthDuration_HTML.html#84,84,1366,768,1366,768,8-22-2022,8-3-12,95,depth_duration_stimuli/002549_2014-06-24_13-41-39_094959634447_rgbf000022-resize_3/002549_2014-06-24_13-41-39_094959634447_rgbf000022-resize_3-target.png,1000,1.476,2,3931,984,meters,jsons/v1_VE1000_randls_33.json,865211,1039190,56,Woman
95,218627,DepthScenes,duration_manipulation_targetAtFixation,jsons/v1_VE1000_randls_33.json,http://54.235.29.9/FacialAge/BNav_EC2/DepthDuration/v2_depth_duration_MTurk/v2_DepthDuration_HTML.html#84,84,1366,768,1366,768,8-22-2022,8-3-12,96,depth_duration_stimuli/002750_2014-06-22_19-08-03_094959634447_rgbf000094-resize_4/002750_2014-06-22_19-08-03_094959634447_rgbf000094-resize_4-target.png,1000,2.354,4,3917,990,meters,jsons/v1_VE1000_randls_33.json,865211,1039190,56,Woman
96,218627,DepthScenes,duration_manipulation_targetAtFixation,jsons/v1_VE1000_randls_33.json,http://54.235.29.9/FacialAge/BNav_EC2/DepthDuration/v2_depth_duration_MTurk/v2_DepthDuration_HTML.html#84,84,1366,768,1366,768,8-22-2022,8-3-12,97,depth_duration_stimuli/002445_2014-06-28_20-32-16_260595134347_rgbf000029-resize_4/002445_2014-06-28_20-32-16_260595134347_rgbf000029-resize_4-target.png,1000,2.5315,4,4107,996,meters,jsons/v1_VE1000_randls_33.json,865211,1039190,56,Woman
97,218627,DepthScenes,duration_manipulation_targetAtFixation,jsons/v1_VE1000_randls_33.json,http://54.235.29.9/FacialAge/BNav_EC2/DepthDuration/v2_depth_duration_MTurk/v2_DepthDuration_HTML.html#84,84,1366,768,1366,768,8-22-2022,8-3-12,98,depth_duration_stimuli/000780_2014-06-08_22-28-29_260595134347_rgbf000126-resize_1/000780_2014-06-08_22-28-29_260595134347_rgbf000126-resize_1-target.png,1000,3.3825,5,3957,946,meters,jsons/v1_VE1000_randls_33.json,865211,1039190,56,Woman
98,218627,DepthScenes,duration_manipulation_targetAtFixation,jsons/v1_VE1000_randls_33.json,http://54.235.29.9/FacialAge/BNav_EC2/DepthDuration/v2_depth_duration_MTurk/v2_DepthDuration_HTML.html#84,84,1366,768,1366,768,8-22-2022,8-3-12,99,depth_duration_stimuli/001540_2014-06-20_17-01-05_260595134347_rgbf000086-resize_2/001540_2014-06-20_17-01-05_260595134347_rgbf000086-resize-original.jpg,1000,1.459,0,3569,991,meters,jsons/v1_VE1000_randls_33.json,865211,1039190,56,Woman
99,218627,DepthScenes,duration_manipulation_targetAtFixation,jsons/v1_VE1000_randls_33.json,http://54.235.29.9/FacialAge/BNav_EC2/DepthDuration/v2_depth_duration_MTurk/v2_DepthDuration_HTML.html#84,84,1366,768,1366,768,8-22-2022,8-3-12,100,depth_duration_stimuli/000447_2014-06-08_16-15-46_260595134347_rgbf000130-resize_1/000447_2014-06-08_16-15-46_260595134347_rgbf000130-resize_1-target.png,1000,4.479,5,4066,999,meters,jsons/v1_VE1000_randls_33.json,865211,1039190,56,Woman
100,218627,DepthScenes,duration_manipulation_targetAtFixation,jsons/v1_VE1000_randls_33.json,http://54.235.29.9/FacialAge/BNav_EC2/DepthDuration/v2_depth_duration_MTurk/v2_DepthDuration_HTML.html#84,84,1366,768,1366,768,8-22-2022,8-3-12,101,depth_duration_stimuli/001447_2014-06-19_17-00-32_260595134347_rgbf000082-resize_5/001447_2014-06-19_17-00-32_260595134347_rgbf000082-resize_5-target.png,1000,4.13775,4,4277,987,meters,jsons/v1_VE1000_randls_33.json,865211,1039190,56,Woman
101,218627,DepthScenes,duration_manipulation_targetAtFixation,jsons/v1_VE1000_randls_33.json,http://54.235.29.9/FacialAge/BNav_EC2/DepthDuration/v2_depth_duration_MTurk/v2_DepthDuration_HTML.html#84,84,1366,768,1366,768,8-22-2022,8-3-12,102,depth_duration_stimuli/001167_2014-06-17_15-38-07_260595134347_rgbf000108-resize_0/001167_2014-06-17_15-38-07_260595134347_rgbf000108-resize_0-target.png,1000,1.8505,4,3967,904,meters,jsons/v1_VE1000_randls_33.json,865211,1039190,56,Woman
102,218627,DepthScenes,duration_manipulation_targetAtFixation,jsons/v1_VE1000_randls_33.json,http://54.235.29.9/FacialAge/BNav_EC2/DepthDuration/v2_depth_duration_MTurk/v2_DepthDuration_HTML.html#84,84,1366,768,1366,768,8-22-2022,8-3-12,103,depth_duration_stimuli/003587_2014-05-23_16-48-02_094959634447_rgbf002384-resize_2/003587_2014-05-23_16-48-02_094959634447_rgbf002384-resize_2-target.png,1000,1.357,2,4982,993,meters,jsons/v1_VE1000_randls_33.json,865211,1039190,56,Woman
103,218627,DepthScenes,duration_manipulation_targetAtFixation,jsons/v1_VE1000_randls_33.json,http://54.235.29.9/FacialAge/BNav_EC2/DepthDuration/v2_depth_duration_MTurk/v2_DepthDuration_HTML.html#84,84,1366,768,1366,768,8-22-2022,8-3-12,104,depth_duration_stimuli/002057_2014-06-24_21-00-13_260595134347_rgbf000120-resize_1/002057_2014-06-24_21-00-13_260595134347_rgbf000120-resize_1-target.png,1000,2.967,5,4297,989,meters,jsons/v1_VE1000_randls_33.json,865211,1039190,56,Woman
104,218627,DepthScenes,duration_manipulation_targetAtFixation,jsons/v1_VE1000_randls_33.json,http://54.235.29.9/FacialAge/BNav_EC2/DepthDuration/v2_depth_duration_MTurk/v2_DepthDuration_HTML.html#84,84,1366,768,1366,768,8-22-2022,8-3-12,105,depth_duration_stimuli/000709_2014-06-08_13-51-55_260595134347_rgbf000068-resize_3/000709_2014-06-08_13-51-55_260595134347_rgbf000068-resize_3-target.png,1000,1.8030000000000002,5,5061,992,meters,jsons/v1_VE1000_randls_33.json,865211,1039190,56,Woman
105,218627,DepthScenes,duration_manipulation_targetAtFixation,jsons/v1_VE1000_randls_33.json,http://54.235.29.9/FacialAge/BNav_EC2/DepthDuration/v2_depth_duration_MTurk/v2_DepthDuration_HTML.html#84,84,1366,768,1366,768,8-22-2022,8-3-12,106,depth_duration_stimuli/002988_2014-06-15_12-24-20_094959634447_rgbf000150-resize_1/002988_2014-06-15_12-24-20_094959634447_rgbf000150-resize_1-target.png,1000,4.7669999999999995,5,3974,1005,meters,jsons/v1_VE1000_randls_33.json,865211,1039190,56,Woman
106,218627,DepthScenes,duration_manipulation_targetAtFixation,jsons/v1_VE1000_randls_33.json,http://54.235.29.9/FacialAge/BNav_EC2/DepthDuration/v2_depth_duration_MTurk/v2_DepthDuration_HTML.html#84,84,1366,768,1366,768,8-22-2022,8-3-12,107,depth_duration_stimuli/001052_2014-06-08_18-24-54_260595134347_rgbf000130-resize_1/001052_2014-06-08_18-24-54_260595134347_rgbf000130-resize_1-target.png,1000,4.1045,5,3882,1009,meters,jsons/v1_VE1000_randls_33.json,865211,1039190,56,Woman
107,218627,DepthScenes,duration_manipulation_targetAtFixation,jsons/v1_VE1000_randls_33.json,http://54.235.29.9/FacialAge/BNav_EC2/DepthDuration/v2_depth_duration_MTurk/v2_DepthDuration_HTML.html#84,84,1366,768,1366,768,8-22-2022,8-3-12,108,depth_duration_stimuli/000436_2014-06-09_22-25-11_260595134347_rgbf000137-resize_1/000436_2014-06-09_22-25-11_260595134347_rgbf000137-resize_1-target.png,1000,4.0705,4,3867,998,meters,jsons/v1_VE1000_randls_33.json,865211,1039190,56,Woman
108,218627,DepthScenes,duration_manipulation_targetAtFixation,jsons/v1_VE1000_randls_33.json,http://54.235.29.9/FacialAge/BNav_EC2/DepthDuration/v2_depth_duration_MTurk/v2_DepthDuration_HTML.html#84,84,1366,768,1366,768,8-22-2022,8-3-12,109,depth_duration_stimuli/002444_2014-06-28_20-32-08_260595134347_rgbf000027-resize_0/002444_2014-06-28_20-32-08_260595134347_rgbf000027-resize_0-target.png,1000,4.388999999999999,5,3945,999,meters,jsons/v1_VE1000_randls_33.json,865211,1039190,56,Woman
109,218627,DepthScenes,duration_manipulation_targetAtFixation,jsons/v1_VE1000_randls_33.json,http://54.235.29.9/FacialAge/BNav_EC2/DepthDuration/v2_depth_duration_MTurk/v2_DepthDuration_HTML.html#84,84,1366,768,1366,768,8-22-2022,8-3-12,110,depth_duration_stimuli/000522_2014-06-08_13-35-06_260595134347_rgbf000244-resize_1/000522_2014-06-08_13-35-06_260595134347_rgbf000244-resize_1-target.png,1000,2.3715,2,3892,1000,meters,jsons/v1_VE1000_randls_33.json,865211,1039190,56,Woman
110,218627,DepthScenes,duration_manipulation_targetAtFixation,jsons/v1_VE1000_randls_33.json,http://54.235.29.9/FacialAge/BNav_EC2/DepthDuration/v2_depth_duration_MTurk/v2_DepthDuration_HTML.html#84,84,1366,768,1366,768,8-22-2022,8-3-12,111,depth_duration_stimuli/002949_2014-06-26_15-57-42_094959634447_rgbf000079-resize_1/002949_2014-06-26_15-57-42_094959634447_rgbf000079-resize_1-target.png,1000,1.8915,2,3709,993,meters,jsons/v1_VE1000_randls_33.json,865211,1039190,56,Woman
111,218627,DepthScenes,duration_manipulation_targetAtFixation,jsons/v1_VE1000_randls_33.json,http://54.235.29.9/FacialAge/BNav_EC2/DepthDuration/v2_depth_duration_MTurk/v2_DepthDuration_HTML.html#84,84,1366,768,1366,768,8-22-2022,8-3-12,112,depth_duration_stimuli/001164_2014-06-17_15-35-46_260595134347_rgbf000085-resize_3/001164_2014-06-17_15-35-46_260595134347_rgbf000085-resize_3-target.png,1000,2.354,1,4055,958,meters,jsons/v1_VE1000_randls_33.json,865211,1039190,56,Woman
112,218627,DepthScenes,duration_manipulation_targetAtFixation,jsons/v1_VE1000_randls_33.json,http://54.235.29.9/FacialAge/BNav_EC2/DepthDuration/v2_depth_duration_MTurk/v2_DepthDuration_HTML.html#84,84,1366,768,1366,768,8-22-2022,8-3-12,113,depth_duration_stimuli/001136_2014-06-17_15-19-41_260595134347_rgbf000076-resize_3/001136_2014-06-17_15-19-41_260595134347_rgbf000076-resize_3-target.png,1000,1.8655,3,4292,999,meters,jsons/v1_VE1000_randls_33.json,865211,1039190,56,Woman
113,218627,DepthScenes,duration_manipulation_targetAtFixation,jsons/v1_VE1000_randls_33.json,http://54.235.29.9/FacialAge/BNav_EC2/DepthDuration/v2_depth_duration_MTurk/v2_DepthDuration_HTML.html#84,84,1366,768,1366,768,8-22-2022,8-3-12,114,depth_duration_stimuli/002213_2014-06-28_18-37-58_260595134347_rgbf000055-resize_1/002213_2014-06-28_18-37-58_260595134347_rgbf000055-resize_1-target.png,1000,3.62,4,4654,874,meters,jsons/v1_VE1000_randls_33.json,865211,1039190,56,Woman
114,218627,DepthScenes,duration_manipulation_targetAtFixation,jsons/v1_VE1000_randls_33.json,http://54.235.29.9/FacialAge/BNav_EC2/DepthDuration/v2_depth_duration_MTurk/v2_DepthDuration_HTML.html#84,84,1366,768,1366,768,8-22-2022,8-3-12,115,depth_duration_stimuli/000691_2014-06-08_13-08-50_260595134347_rgbf000132-resize_3/000691_2014-06-08_13-08-50_260595134347_rgbf000132-resize_3-target.png,1000,4.1530000000000005,2,18087,1000,meters,jsons/v1_VE1000_randls_33.json,865211,1039190,56,Woman
115,218627,DepthScenes,duration_manipulation_targetAtFixation,jsons/v1_VE1000_randls_33.json,http://54.235.29.9/FacialAge/BNav_EC2/DepthDuration/v2_depth_duration_MTurk/v2_DepthDuration_HTML.html#84,84,1366,768,1366,768,8-22-2022,8-3-12,116,depth_duration_stimuli/001170_2014-06-17_15-43-44_260595134347_rgbf000096-resize_6/001170_2014-06-17_15-43-44_260595134347_rgbf000096-resize-original.jpg,1000,1.1909999999999998,0,5156,996,meters,jsons/v1_VE1000_randls_33.json,865211,1039190,56,Woman
116,218627,DepthScenes,duration_manipulation_targetAtFixation,jsons/v1_VE1000_randls_33.json,http://54.235.29.9/FacialAge/BNav_EC2/DepthDuration/v2_depth_duration_MTurk/v2_DepthDuration_HTML.html#84,84,1366,768,1366,768,8-22-2022,8-3-12,117,depth_duration_stimuli/001808_2014-06-26_20-50-58_260595134347_rgbf000029-resize_1/001808_2014-06-26_20-50-58_260595134347_rgbf000029-resize_1-target.png,1000,4.249,2,10494,989,meters,jsons/v1_VE1000_randls_33.json,865211,1039190,56,Woman
117,218627,DepthScenes,duration_manipulation_targetAtFixation,jsons/v1_VE1000_randls_33.json,http://54.235.29.9/FacialAge/BNav_EC2/DepthDuration/v2_depth_duration_MTurk/v2_DepthDuration_HTML.html#84,84,1366,768,1366,768,8-22-2022,8-3-12,118,depth_duration_stimuli/001815_2014-06-26_20-52-55_260595134347_rgbf000020-resize_0/001815_2014-06-26_20-52-55_260595134347_rgbf000020-resize_0-target.png,1000,3.3865,4,7395,994,meters,jsons/v1_VE1000_randls_33.json,865211,1039190,56,Woman
118,218627,DepthScenes,duration_manipulation_targetAtFixation,jsons/v1_VE1000_randls_33.json,http://54.235.29.9/FacialAge/BNav_EC2/DepthDuration/v2_depth_duration_MTurk/v2_DepthDuration_HTML.html#84,84,1366,768,1366,768,8-22-2022,8-3-12,119,depth_duration_stimuli/000414_2014-06-04_19-49-13_260595134347_rgbf000044-resize_0/000414_2014-06-04_19-49-13_260595134347_rgbf000044-resize_0-target.png,1000,4.329,5,4573,1002,meters,jsons/v1_VE1000_randls_33.json,865211,1039190,56,Woman
119,218627,DepthScenes,duration_manipulation_targetAtFixation,jsons/v1_VE1000_randls_33.json,http://54.235.29.9/FacialAge/BNav_EC2/DepthDuration/v2_depth_duration_MTurk/v2_DepthDuration_HTML.html#84,84,1366,768,1366,768,8-22-2022,8-3-12,120,depth_duration_stimuli/003129_2014-05-12_10-48-10_094959634447_rgbf000100-resize_0/003129_2014-05-12_10-48-10_094959634447_rgbf000100-resize_0-target.png,1000,4.9305,5,3807,1001,meters,jsons/v1_VE1000_randls_33.json,865211,1039190,56,Woman
120,218627,DepthScenes,duration_manipulation_targetAtFixation,jsons/v1_VE1000_randls_33.json,http://54.235.29.9/FacialAge/BNav_EC2/DepthDuration/v2_depth_duration_MTurk/v2_DepthDuration_HTML.html#84,84,1366,768,1366,768,8-22-2022,8-3-12,121,depth_duration_stimuli/001449_2014-06-19_17-01-27_260595134347_rgbf000116-resize_2/001449_2014-06-19_17-01-27_260595134347_rgbf000116-resize_2-target.png,1000,3.452,5,4192,981,meters,jsons/v1_VE1000_randls_33.json,865211,1039190,56,Woman
121,218627,DepthScenes,duration_manipulation_targetAtFixation,jsons/v1_VE1000_randls_33.json,http://54.235.29.9/FacialAge/BNav_EC2/DepthDuration/v2_depth_duration_MTurk/v2_DepthDuration_HTML.html#84,84,1366,768,1366,768,8-22-2022,8-3-12,122,depth_duration_stimuli/001450_2014-06-19_17-02-03_260595134347_rgbf000203-resize_4/001450_2014-06-19_17-02-03_260595134347_rgbf000203-resize_4-target.png,1000,4.0106666666667,5,4443,980,meters,jsons/v1_VE1000_randls_33.json,865211,1039190,56,Woman
122,218627,DepthScenes,duration_manipulation_targetAtFixation,jsons/v1_VE1000_randls_33.json,http://54.235.29.9/FacialAge/BNav_EC2/DepthDuration/v2_depth_duration_MTurk/v2_DepthDuration_HTML.html#84,84,1366,768,1366,768,8-22-2022,8-3-12,123,depth_duration_stimuli/002600_2014-06-24_14-27-04_094959634447_rgbf000074-resize_2/002600_2014-06-24_14-27-04_094959634447_rgbf000074-resize_2-target.png,1000,2.7575,3,3994,993,meters,jsons/v1_VE1000_randls_33.json,865211,1039190,56,Woman
123,218627,DepthScenes,duration_manipulation_targetAtFixation,jsons/v1_VE1000_randls_33.json,http://54.235.29.9/FacialAge/BNav_EC2/DepthDuration/v2_depth_duration_MTurk/v2_DepthDuration_HTML.html#84,84,1366,768,1366,768,8-22-2022,8-3-12,124,depth_duration_stimuli/003228_2014-05-14_13-42-35_094959634447_rgbf000101-resize_1/003228_2014-05-14_13-42-35_094959634447_rgbf000101-resize_1-target.png,1000,1.9680000000000002,2,4032,920,meters,jsons/v1_VE1000_randls_33.json,865211,1039190,56,Woman
124,218627,DepthScenes,duration_manipulation_targetAtFixation,jsons/v1_VE1000_randls_33.json,http://54.235.29.9/FacialAge/BNav_EC2/DepthDuration/v2_depth_duration_MTurk/v2_DepthDuration_HTML.html#84,84,1366,768,1366,768,8-22-2022,8-3-12,125,depth_duration_stimuli/000917_2014-06-09_22-45-29_260595134347_rgbf000149-resize_3/000917_2014-06-09_22-45-29_260595134347_rgbf000149-resize_3-target.png,1000,4.1865,4,4141,1048,meters,jsons/v1_VE1000_randls_33.json,865211,1039190,56,Woman
125,218627,DepthScenes,duration_manipulation_targetAtFixation,jsons/v1_VE1000_randls_33.json,http://54.235.29.9/FacialAge/BNav_EC2/DepthDuration/v2_depth_duration_MTurk/v2_DepthDuration_HTML.html#84,84,1366,768,1366,768,8-22-2022,8-3-12,126,depth_duration_stimuli/002323_2014-06-28_20-01-54_260595134347_rgbf000051-resize_4/002323_2014-06-28_20-01-54_260595134347_rgbf000051-resize_4-target.png,1000,3.7310000000000003,5,4281,994,meters,jsons/v1_VE1000_randls_33.json,865211,1039190,56,Woman
126,218627,DepthScenes,duration_manipulation_targetAtFixation,jsons/v1_VE1000_randls_33.json,http://54.235.29.9/FacialAge/BNav_EC2/DepthDuration/v2_depth_duration_MTurk/v2_DepthDuration_HTML.html#84,84,1366,768,1366,768,8-22-2022,8-3-12,127,depth_duration_stimuli/000929_2014-06-09_16-33-19_260595134347_rgbf000139-resize_0/000929_2014-06-09_16-33-19_260595134347_rgbf000139-resize_0-target.png,1000,2.8680000000000003,4,3496,983,meters,jsons/v1_VE1000_randls_33.json,865211,1039190,56,Woman
127,218627,DepthScenes,duration_manipulation_targetAtFixation,jsons/v1_VE1000_randls_33.json,http://54.235.29.9/FacialAge/BNav_EC2/DepthDuration/v2_depth_duration_MTurk/v2_DepthDuration_HTML.html#84,84,1366,768,1366,768,8-22-2022,8-3-12,128,depth_duration_stimuli/000457_2014-06-08_16-52-43_260595134347_rgbf000199-resize_1/000457_2014-06-08_16-52-43_260595134347_rgbf000199-resize_1-target.png,1000,3.6489999999999996,5,3513,876,meters,jsons/v1_VE1000_randls_33.json,865211,1039190,56,Woman
128,218627,DepthScenes,duration_manipulation_targetAtFixation,jsons/v1_VE1000_randls_33.json,http://54.235.29.9/FacialAge/BNav_EC2/DepthDuration/v2_depth_duration_MTurk/v2_DepthDuration_HTML.html#84,84,1366,768,1366,768,8-22-2022,8-3-12,129,depth_duration_stimuli/000739_2014-06-08_18-45-58_260595134347_rgbf000068-resize_1/000739_2014-06-08_18-45-58_260595134347_rgbf000068-resize_1-target.png,1000,3.534,4,3515,986,meters,jsons/v1_VE1000_randls_33.json,865211,1039190,56,Woman
129,218627,DepthScenes,duration_manipulation_targetAtFixation,jsons/v1_VE1000_randls_33.json,http://54.235.29.9/FacialAge/BNav_EC2/DepthDuration/v2_depth_duration_MTurk/v2_DepthDuration_HTML.html#84,84,1366,768,1366,768,8-22-2022,8-3-12,130,depth_duration_stimuli/000734_2014-06-08_17-39-11_260595134347_rgbf000128-resize_2/000734_2014-06-08_17-39-11_260595134347_rgbf000128-resize_2-target.png,1000,4.098,1,4315,906,meters,jsons/v1_VE1000_randls_33.json,865211,1039190,56,Woman
130,218627,DepthScenes,duration_manipulation_targetAtFixation,jsons/v1_VE1000_randls_33.json,http://54.235.29.9/FacialAge/BNav_EC2/DepthDuration/v2_depth_duration_MTurk/v2_DepthDuration_HTML.html#84,84,1366,768,1366,768,8-22-2022,8-3-12,131,depth_duration_stimuli/000469_2014-06-09_19-42-10_260595134347_rgbf000081-resize_1/000469_2014-06-09_19-42-10_260595134347_rgbf000081-resize_1-target.png,1000,1.652,2,5161,1030,meters,jsons/v1_VE1000_randls_33.json,865211,1039190,56,Woman
131,218627,DepthScenes,duration_manipulation_targetAtFixation,jsons/v1_VE1000_randls_33.json,http://54.235.29.9/FacialAge/BNav_EC2/DepthDuration/v2_depth_duration_MTurk/v2_DepthDuration_HTML.html#84,84,1366,768,1366,768,8-22-2022,8-3-12,132,depth_duration_stimuli/000483_2014-06-09_20-41-45_260595134347_rgbf000116-resize_4/000483_2014-06-09_20-41-45_260595134347_rgbf000116-resize_4-target.png,1000,1.337,4,3794,993,meters,jsons/v1_VE1000_randls_33.json,865211,1039190,56,Woman
132,218627,DepthScenes,duration_manipulation_targetAtFixation,jsons/v1_VE1000_randls_33.json,http://54.235.29.9/FacialAge/BNav_EC2/DepthDuration/v2_depth_duration_MTurk/v2_DepthDuration_HTML.html#84,84,1366,768,1366,768,8-22-2022,8-3-12,133,depth_duration_stimuli/002748_2014-06-22_19-07-22_094959634447_rgbf000078-resize_1/002748_2014-06-22_19-07-22_094959634447_rgbf000078-resize_1-target.png,1000,4.6705,5,5042,981,meters,jsons/v1_VE1000_randls_33.json,865211,1039190,56,Woman
133,218627,DepthScenes,duration_manipulation_targetAtFixation,jsons/v1_VE1000_randls_33.json,http://54.235.29.9/FacialAge/BNav_EC2/DepthDuration/v2_depth_duration_MTurk/v2_DepthDuration_HTML.html#84,84,1366,768,1366,768,8-22-2022,8-3-12,134,depth_duration_stimuli/002995_2014-06-15_12-31-26_094959634447_rgbf000150-resize_1/002995_2014-06-15_12-31-26_094959634447_rgbf000150-resize_1-target.png,1000,3.8360000000000003,4,4355,985,meters,jsons/v1_VE1000_randls_33.json,865211,1039190,56,Woman
134,218627,DepthScenes,duration_manipulation_targetAtFixation,jsons/v1_VE1000_randls_33.json,http://54.235.29.9/FacialAge/BNav_EC2/DepthDuration/v2_depth_duration_MTurk/v2_DepthDuration_HTML.html#84,84,1366,768,1366,768,8-22-2022,8-3-12,135,depth_duration_stimuli/002072_2014-06-24_21-48-06_260595134347_rgbf000115-resize_0/002072_2014-06-24_21-48-06_260595134347_rgbf000115-resize-original.jpg,1000,4.702,3,4849,1043,meters,jsons/v1_VE1000_randls_33.json,865211,1039190,56,Woman
135,218627,DepthScenes,duration_manipulation_targetAtFixation,jsons/v1_VE1000_randls_33.json,http://54.235.29.9/FacialAge/BNav_EC2/DepthDuration/v2_depth_duration_MTurk/v2_DepthDuration_HTML.html#84,84,1366,768,1366,768,8-22-2022,8-3-12,136,depth_duration_stimuli/003292_2014-05-14_21-53-49_094959634447_rgbf000100-resize_2/003292_2014-05-14_21-53-49_094959634447_rgbf000100-resize_2-target.png,1000,3.4815,1,5925,994,meters,jsons/v1_VE1000_randls_33.json,865211,1039190,56,Woman
136,218627,DepthScenes,duration_manipulation_targetAtFixation,jsons/v1_VE1000_randls_33.json,http://54.235.29.9/FacialAge/BNav_EC2/DepthDuration/v2_depth_duration_MTurk/v2_DepthDuration_HTML.html#84,84,1366,768,1366,768,8-22-2022,8-3-12,137,depth_duration_stimuli/002639_2014-06-24_14-51-37_094959634447_rgbf000074-resize_4/002639_2014-06-24_14-51-37_094959634447_rgbf000074-resize_4-target.png,1000,4.0375,3,4459,985,meters,jsons/v1_VE1000_randls_33.json,865211,1039190,56,Woman
137,218627,DepthScenes,duration_manipulation_targetAtFixation,jsons/v1_VE1000_randls_33.json,http://54.235.29.9/FacialAge/BNav_EC2/DepthDuration/v2_depth_duration_MTurk/v2_DepthDuration_HTML.html#84,84,1366,768,1366,768,8-22-2022,8-3-12,138,depth_duration_stimuli/003621_2014-05-23_18-06-08_094959634447_rgbf000101-resize_1/003621_2014-05-23_18-06-08_094959634447_rgbf000101-resize_1-target.png,1000,3.9835,4,4261,982,meters,jsons/v1_VE1000_randls_33.json,865211,1039190,56,Woman
138,218627,DepthScenes,duration_manipulation_targetAtFixation,jsons/v1_VE1000_randls_33.json,http://54.235.29.9/FacialAge/BNav_EC2/DepthDuration/v2_depth_duration_MTurk/v2_DepthDuration_HTML.html#84,84,1366,768,1366,768,8-22-2022,8-3-12,139,depth_duration_stimuli/001584_2014-06-20_11-07-43_260595134347_rgbf000002-resize_1/001584_2014-06-20_11-07-43_260595134347_rgbf000002-resize_1-target.png,1000,3.53,4,3806,993,meters,jsons/v1_VE1000_randls_33.json,865211,1039190,56,Woman
139,218627,DepthScenes,duration_manipulation_targetAtFixation,jsons/v1_VE1000_randls_33.json,http://54.235.29.9/FacialAge/BNav_EC2/DepthDuration/v2_depth_duration_MTurk/v2_DepthDuration_HTML.html#84,84,1366,768,1366,768,8-22-2022,8-3-12,140,depth_duration_stimuli/001029_2014-06-08_13-17-57_260595134347_rgbf000065-resize_1/001029_2014-06-08_13-17-57_260595134347_rgbf000065-resize_1-target.png,1000,3.0835,2,7808,995,meters,jsons/v1_VE1000_randls_33.json,865211,1039190,56,Woman
140,218627,DepthScenes,duration_manipulation_targetAtFixation,jsons/v1_VE1000_randls_33.json,http://54.235.29.9/FacialAge/BNav_EC2/DepthDuration/v2_depth_duration_MTurk/v2_DepthDuration_HTML.html#84,84,1366,768,1366,768,8-22-2022,8-3-12,141,depth_duration_stimuli/000677_2014-06-08_23-10-32_260595134347_rgbf000158-resize_6/000677_2014-06-08_23-10-32_260595134347_rgbf000158-resize_6-target.png,1000,3.556,2,5277,997,meters,jsons/v1_VE1000_randls_33.json,865211,1039190,56,Woman
141,218627,DepthScenes,duration_manipulation_targetAtFixation,jsons/v1_VE1000_randls_33.json,http://54.235.29.9/FacialAge/BNav_EC2/DepthDuration/v2_depth_duration_MTurk/v2_DepthDuration_HTML.html#84,84,1366,768,1366,768,8-22-2022,8-3-12,142,depth_duration_stimuli/002788_2014-06-22_19-36-03_094959634447_rgbf000088-resize_2/002788_2014-06-22_19-36-03_094959634447_rgbf000088-resize_2-target.png,1000,1.6465,2,4650,1002,meters,jsons/v1_VE1000_randls_33.json,865211,1039190,56,Woman
142,218627,DepthScenes,duration_manipulation_targetAtFixation,jsons/v1_VE1000_randls_33.json,http://54.235.29.9/FacialAge/BNav_EC2/DepthDuration/v2_depth_duration_MTurk/v2_DepthDuration_HTML.html#84,84,1366,768,1366,768,8-22-2022,8-3-12,143,depth_duration_stimuli/000749_2014-06-08_21-55-06_260595134347_rgbf000070-resize_2/000749_2014-06-08_21-55-06_260595134347_rgbf000070-resize_2-target.png,1000,2.331,3,4475,980,meters,jsons/v1_VE1000_randls_33.json,865211,1039190,56,Woman
143,218627,DepthScenes,duration_manipulation_targetAtFixation,jsons/v1_VE1000_randls_33.json,http://54.235.29.9/FacialAge/BNav_EC2/DepthDuration/v2_depth_duration_MTurk/v2_DepthDuration_HTML.html#84,84,1366,768,1366,768,8-22-2022,8-3-12,144,depth_duration_stimuli/002118_2014-06-25_20-32-08_260595134347_rgbf000078-resize_1/002118_2014-06-25_20-32-08_260595134347_rgbf000078-resize_1-target.png,1000,2.6460000000000004,4,4885,994,meters,jsons/v1_VE1000_randls_33.json,865211,1039190,56,Woman
144,218627,DepthScenes,duration_manipulation_targetAtFixation,jsons/v1_VE1000_randls_33.json,http://54.235.29.9/FacialAge/BNav_EC2/DepthDuration/v2_depth_duration_MTurk/v2_DepthDuration_HTML.html#84,84,1366,768,1366,768,8-22-2022,8-3-12,145,depth_duration_stimuli/001516_2014-06-20_16-25-09_260595134347_rgbf000076-resize_2/001516_2014-06-20_16-25-09_260595134347_rgbf000076-resize_2-target.png,1000,1.7445,4,4524,986,meters,jsons/v1_VE1000_randls_33.json,865211,1039190,56,Woman
145,218627,DepthScenes,duration_manipulation_targetAtFixation,jsons/v1_VE1000_randls_33.json,http://54.235.29.9/FacialAge/BNav_EC2/DepthDuration/v2_depth_duration_MTurk/v2_DepthDuration_HTML.html#84,84,1366,768,1366,768,8-22-2022,8-3-12,146,depth_duration_stimuli/001498_2014-06-19_17-45-14_260595134347_rgbf000129-resize_4/001498_2014-06-19_17-45-14_260595134347_rgbf000129-resize-original.jpg,1000,1.4075,0,4147,992,meters,jsons/v1_VE1000_randls_33.json,865211,1039190,56,Woman
146,218627,DepthScenes,duration_manipulation_targetAtFixation,jsons/v1_VE1000_randls_33.json,http://54.235.29.9/FacialAge/BNav_EC2/DepthDuration/v2_depth_duration_MTurk/v2_DepthDuration_HTML.html#84,84,1366,768,1366,768,8-22-2022,8-3-12,147,depth_duration_stimuli/000642_2014-06-08_16-59-25_260595134347_rgbf000098-resize_2/000642_2014-06-08_16-59-25_260595134347_rgbf000098-resize_2-target.png,1000,2.8815,3,4407,995,meters,jsons/v1_VE1000_randls_33.json,865211,1039190,56,Woman
147,218627,DepthScenes,duration_manipulation_targetAtFixation,jsons/v1_VE1000_randls_33.json,http://54.235.29.9/FacialAge/BNav_EC2/DepthDuration/v2_depth_duration_MTurk/v2_DepthDuration_HTML.html#84,84,1366,768,1366,768,8-22-2022,8-3-12,148,depth_duration_stimuli/002425_2014-06-28_20-27-29_260595134347_rgbf000031-resize_8/002425_2014-06-28_20-27-29_260595134347_rgbf000031-resize_8-target.png,1000,3.8960000000000004,4,4137,989,meters,jsons/v1_VE1000_randls_33.json,865211,1039190,56,Woman
148,218627,DepthScenes,duration_manipulation_targetAtFixation,jsons/v1_VE1000_randls_33.json,http://54.235.29.9/FacialAge/BNav_EC2/DepthDuration/v2_depth_duration_MTurk/v2_DepthDuration_HTML.html#84,84,1366,768,1366,768,8-22-2022,8-3-12,149,depth_duration_stimuli/002153_2014-06-25_21-27-18_260595134347_rgbf000038-resize_5/002153_2014-06-25_21-27-18_260595134347_rgbf000038-resize_5-target.png,1000,2.505,2,5108,987,meters,jsons/v1_VE1000_randls_33.json,865211,1039190,56,Woman
149,218627,DepthScenes,duration_manipulation_targetAtFixation,jsons/v1_VE1000_randls_33.json,http://54.235.29.9/FacialAge/BNav_EC2/DepthDuration/v2_depth_duration_MTurk/v2_DepthDuration_HTML.html#84,84,1366,768,1366,768,8-22-2022,8-3-12,150,depth_duration_stimuli/002660_2014-06-13_15-44-18_094959634447_rgbf001878-resize_2/002660_2014-06-13_15-44-18_094959634447_rgbf001878-resize_2-target.png,1000,3.576,2,5252,885,meters,jsons/v1_VE1000_randls_33.json,865211,1039190,56,Woman
150,218627,DepthScenes,duration_manipulation_targetAtFixation,jsons/v1_VE1000_randls_33.json,http://54.235.29.9/FacialAge/BNav_EC2/DepthDuration/v2_depth_duration_MTurk/v2_DepthDuration_HTML.html#84,84,1366,768,1366,768,8-22-2022,8-3-12,151,depth_duration_stimuli/001056_2014-06-08_18-46-44_260595134347_rgbf000068-resize_0/001056_2014-06-08_18-46-44_260595134347_rgbf000068-resize_0-target.png,1000,2.6625,1,14639,927,meters,jsons/v1_VE1000_randls_33.json,865211,1039190,56,Woman
151,218627,DepthScenes,duration_manipulation_targetAtFixation,jsons/v1_VE1000_randls_33.json,http://54.235.29.9/FacialAge/BNav_EC2/DepthDuration/v2_depth_duration_MTurk/v2_DepthDuration_HTML.html#84,84,1366,768,1366,768,8-22-2022,8-3-12,152,depth_duration_stimuli/002199_2014-06-28_18-33-56_260595134347_rgbf000074-resize_0/002199_2014-06-28_18-33-56_260595134347_rgbf000074-resize_0-target.png,1000,1.996,2,9641,981,meters,jsons/v1_VE1000_randls_33.json,865211,1039190,56,Woman
152,218627,DepthScenes,duration_manipulation_targetAtFixation,jsons/v1_VE1000_randls_33.json,http://54.235.29.9/FacialAge/BNav_EC2/DepthDuration/v2_depth_duration_MTurk/v2_DepthDuration_HTML.html#84,84,1366,768,1366,768,8-22-2022,8-3-12,153,depth_duration_stimuli/000810_2014-06-08_17-20-01_260595134347_rgbf000105-resize_0/000810_2014-06-08_17-20-01_260595134347_rgbf000105-resize_0-target.png,1000,1.4865,4,4055,1230,meters,jsons/v1_VE1000_randls_33.json,865211,1039190,56,Woman
153,218627,DepthScenes,duration_manipulation_targetAtFixation,jsons/v1_VE1000_randls_33.json,http://54.235.29.9/FacialAge/BNav_EC2/DepthDuration/v2_depth_duration_MTurk/v2_DepthDuration_HTML.html#84,84,1366,768,1366,768,8-22-2022,8-3-12,154,depth_duration_stimuli/001214_2014-06-17_16-13-55_260595134347_rgbf000111-resize_0/001214_2014-06-17_16-13-55_260595134347_rgbf000111-resize_0-target.png,1000,2.6505,3,4774,973,meters,jsons/v1_VE1000_randls_33.json,865211,1039190,56,Woman
154,218627,DepthScenes,duration_manipulation_targetAtFixation,jsons/v1_VE1000_randls_33.json,http://54.235.29.9/FacialAge/BNav_EC2/DepthDuration/v2_depth_duration_MTurk/v2_DepthDuration_HTML.html#84,84,1366,768,1366,768,8-22-2022,8-3-12,155,depth_duration_stimuli/002784_2014-06-22_19-26-30_094959634447_rgbf000083-resize_3/002784_2014-06-22_19-26-30_094959634447_rgbf000083-resize_3-target.png,1000,1.8046666666667,2,14541,998,meters,jsons/v1_VE1000_randls_33.json,865211,1039190,56,Woman
155,218627,DepthScenes,duration_manipulation_targetAtFixation,jsons/v1_VE1000_randls_33.json,http://54.235.29.9/FacialAge/BNav_EC2/DepthDuration/v2_depth_duration_MTurk/v2_DepthDuration_HTML.html#84,84,1366,768,1366,768,8-22-2022,8-3-12,156,depth_duration_stimuli/001100_2014-06-15_17-46-26_260595134347_rgbf000225-resize_2/001100_2014-06-15_17-46-26_260595134347_rgbf000225-resize_2-target.png,1000,2.24,1,4360,996,meters,jsons/v1_VE1000_randls_33.json,865211,1039190,56,Woman
156,218627,DepthScenes,duration_manipulation_targetAtFixation,jsons/v1_VE1000_randls_33.json,http://54.235.29.9/FacialAge/BNav_EC2/DepthDuration/v2_depth_duration_MTurk/v2_DepthDuration_HTML.html#84,84,1366,768,1366,768,8-22-2022,8-3-12,157,depth_duration_stimuli/001555_2014-06-20_17-12-10_260595134347_rgbf000065-resize_4/001555_2014-06-20_17-12-10_260595134347_rgbf000065-resize_4-target.png,1000,1.633,2,3882,994,meters,jsons/v1_VE1000_randls_33.json,865211,1039190,56,Woman
157,218627,DepthScenes,duration_manipulation_targetAtFixation,jsons/v1_VE1000_randls_33.json,http://54.235.29.9/FacialAge/BNav_EC2/DepthDuration/v2_depth_duration_MTurk/v2_DepthDuration_HTML.html#84,84,1366,768,1366,768,8-22-2022,8-3-12,158,depth_duration_stimuli/000103_2014-05-14_22-01-17_260595134347_rgbf000152-resize_5/000103_2014-05-14_22-01-17_260595134347_rgbf000152-resize_5-target.png,1000,1.993,1,3751,999,meters,jsons/v1_VE1000_randls_33.json,865211,1039190,56,Woman
158,218627,DepthScenes,duration_manipulation_targetAtFixation,jsons/v1_VE1000_randls_33.json,http://54.235.29.9/FacialAge/BNav_EC2/DepthDuration/v2_depth_duration_MTurk/v2_DepthDuration_HTML.html#84,84,1366,768,1366,768,8-22-2022,8-3-12,159,depth_duration_stimuli/000788_2014-06-08_22-34-36_260595134347_rgbf000131-resize_1/000788_2014-06-08_22-34-36_260595134347_rgbf000131-resize_1-target.png,1000,3.359,4,4638,1009,meters,jsons/v1_VE1000_randls_33.json,865211,1039190,56,Woman
159,218627,DepthScenes,duration_manipulation_targetAtFixation,jsons/v1_VE1000_randls_33.json,http://54.235.29.9/FacialAge/BNav_EC2/DepthDuration/v2_depth_duration_MTurk/v2_DepthDuration_HTML.html#84,84,1366,768,1366,768,8-22-2022,8-3-12,160,depth_duration_stimuli/001235_2014-06-17_16-37-36_260595134347_rgbf000084-resize_4/001235_2014-06-17_16-37-36_260595134347_rgbf000084-resize_4-target.png,1000,3.6605,3,3779,928,meters,jsons/v1_VE1000_randls_33.json,865211,1039190,56,Woman
160,218627,DepthScenes,duration_manipulation_targetAtFixation,jsons/v1_VE1000_randls_33.json,http://54.235.29.9/FacialAge/BNav_EC2/DepthDuration/v2_depth_duration_MTurk/v2_DepthDuration_HTML.html#84,84,1366,768,1366,768,8-22-2022,8-3-12,161,depth_duration_stimuli/001011_2014-06-08_23-18-54_260595134347_rgbf000044-resize_4/001011_2014-06-08_23-18-54_260595134347_rgbf000044-resize_4-target.png,1000,2.4730000000000003,4,3174,1002,meters,jsons/v1_VE1000_randls_33.json,865211,1039190,56,Woman
161,218627,DepthScenes,duration_manipulation_targetAtFixation,jsons/v1_VE1000_randls_33.json,http://54.235.29.9/FacialAge/BNav_EC2/DepthDuration/v2_depth_duration_MTurk/v2_DepthDuration_HTML.html#84,84,1366,768,1366,768,8-22-2022,8-3-12,162,depth_duration_stimuli/002875_2014-06-01_15-19-00_094959634447_rgbf000151-resize_1/002875_2014-06-01_15-19-00_094959634447_rgbf000151-resize_1-target.png,1000,1.9675,2,4021,999,meters,jsons/v1_VE1000_randls_33.json,865211,1039190,56,Woman
162,218627,DepthScenes,duration_manipulation_targetAtFixation,jsons/v1_VE1000_randls_33.json,http://54.235.29.9/FacialAge/BNav_EC2/DepthDuration/v2_depth_duration_MTurk/v2_DepthDuration_HTML.html#84,84,1366,768,1366,768,8-22-2022,8-3-12,163,depth_duration_stimuli/000773_2014-06-08_22-24-54_260595134347_rgbf000093-resize_1/000773_2014-06-08_22-24-54_260595134347_rgbf000093-resize_1-target.png,1000,4.973,4,3954,999,meters,jsons/v1_VE1000_randls_33.json,865211,1039190,56,Woman
163,218627,DepthScenes,duration_manipulation_targetAtFixation,jsons/v1_VE1000_randls_33.json,http://54.235.29.9/FacialAge/BNav_EC2/DepthDuration/v2_depth_duration_MTurk/v2_DepthDuration_HTML.html#84,84,1366,768,1366,768,8-22-2022,8-3-12,164,depth_duration_stimuli/002414_2014-06-28_20-24-58_260595134347_rgbf000067-resize_4/002414_2014-06-28_20-24-58_260595134347_rgbf000067-resize_4-target.png,1000,4.363,1,3874,997,meters,jsons/v1_VE1000_randls_33.json,865211,1039190,56,Woman
