,subjID,experimentName,versionName,sequenceName,url,selected_row,windowWidth,windowHeight,screenWidth,screenHeight,startDate,startTime,trial,stimulus,duration,actual_depth,depth_estimate,trial_RT,log_sceneDuration,unitSelection,seq_filepath,experimentTime,totalTime,age,gender
0,219566,DepthScenes,duration_manipulation_targetAtFixation,jsons/v1_VE250_randls_20.json,http://54.235.29.9/FacialAge/BNav_EC2/DepthDuration/v2_depth_duration_MTurk/v2_DepthDuration_HTML.html#111,111,2560,1329,2560,1440,8-20-2022,11-14-33,1,depth_duration_stimuli/001164_2014-06-17_15-35-46_260595134347_rgbf000085-resize_3/001164_2014-06-17_15-35-46_260595134347_rgbf000085-resize_3-target.png,250,2.354,3,4398,249,meters,jsons/v1_VE250_randls_20.json,588060,771308,41,Man
1,219566,DepthScenes,duration_manipulation_targetAtFixation,jsons/v1_VE250_randls_20.json,http://54.235.29.9/FacialAge/BNav_EC2/DepthDuration/v2_depth_duration_MTurk/v2_DepthDuration_HTML.html#111,111,2560,1329,2560,1440,8-20-2022,11-14-33,2,depth_duration_stimuli/001136_2014-06-17_15-19-41_260595134347_rgbf000076-resize_3/001136_2014-06-17_15-19-41_260595134347_rgbf000076-resize_3-target.png,250,1.8655,3,2361,255,meters,jsons/v1_VE250_randls_20.json,588060,771308,41,Man
2,219566,DepthScenes,duration_manipulation_targetAtFixation,jsons/v1_VE250_randls_20.json,http://54.235.29.9/FacialAge/BNav_EC2/DepthDuration/v2_depth_duration_MTurk/v2_DepthDuration_HTML.html#111,111,2560,1329,2560,1440,8-20-2022,11-14-33,3,depth_duration_stimuli/002043_2014-06-24_20-29-38_260595134347_rgbf000039-resize_4/002043_2014-06-24_20-29-38_260595134347_rgbf000039-resize_4-target.png,250,2.8435,3,2624,256,meters,jsons/v1_VE250_randls_20.json,588060,771308,41,Man
3,219566,DepthScenes,duration_manipulation_targetAtFixation,jsons/v1_VE250_randls_20.json,http://54.235.29.9/FacialAge/BNav_EC2/DepthDuration/v2_depth_duration_MTurk/v2_DepthDuration_HTML.html#111,111,2560,1329,2560,1440,8-20-2022,11-14-33,4,depth_duration_stimuli/003048_2014-06-15_13-49-43_094959634447_rgbf000150-resize_1/003048_2014-06-15_13-49-43_094959634447_rgbf000150-resize_1-target.png,250,4.0035,3,2968,256,meters,jsons/v1_VE250_randls_20.json,588060,771308,41,Man
4,219566,DepthScenes,duration_manipulation_targetAtFixation,jsons/v1_VE250_randls_20.json,http://54.235.29.9/FacialAge/BNav_EC2/DepthDuration/v2_depth_duration_MTurk/v2_DepthDuration_HTML.html#111,111,2560,1329,2560,1440,8-20-2022,11-14-33,5,depth_duration_stimuli/002630_2014-06-24_14-47-50_094959634447_rgbf000055-resize_1/002630_2014-06-24_14-47-50_094959634447_rgbf000055-resize_1-target.png,250,3.0095,2,3252,242,meters,jsons/v1_VE250_randls_20.json,588060,771308,41,Man
5,219566,DepthScenes,duration_manipulation_targetAtFixation,jsons/v1_VE250_randls_20.json,http://54.235.29.9/FacialAge/BNav_EC2/DepthDuration/v2_depth_duration_MTurk/v2_DepthDuration_HTML.html#111,111,2560,1329,2560,1440,8-20-2022,11-14-33,6,depth_duration_stimuli/002758_2014-06-22_19-11-20_094959634447_rgbf000128-resize_1/002758_2014-06-22_19-11-20_094959634447_rgbf000128-resize_1-target.png,250,2.555,2,2982,249,meters,jsons/v1_VE250_randls_20.json,588060,771308,41,Man
6,219566,DepthScenes,duration_manipulation_targetAtFixation,jsons/v1_VE250_randls_20.json,http://54.235.29.9/FacialAge/BNav_EC2/DepthDuration/v2_depth_duration_MTurk/v2_DepthDuration_HTML.html#111,111,2560,1329,2560,1440,8-20-2022,11-14-33,7,depth_duration_stimuli/000522_2014-06-08_13-35-06_260595134347_rgbf000244-resize_1/000522_2014-06-08_13-35-06_260595134347_rgbf000244-resize_1-target.png,250,2.3715,1,3278,256,meters,jsons/v1_VE250_randls_20.json,588060,771308,41,Man
7,219566,DepthScenes,duration_manipulation_targetAtFixation,jsons/v1_VE250_randls_20.json,http://54.235.29.9/FacialAge/BNav_EC2/DepthDuration/v2_depth_duration_MTurk/v2_DepthDuration_HTML.html#111,111,2560,1329,2560,1440,8-20-2022,11-14-33,8,depth_duration_stimuli/002949_2014-06-26_15-57-42_094959634447_rgbf000079-resize_1/002949_2014-06-26_15-57-42_094959634447_rgbf000079-resize_1-target.png,250,1.8915,2,4093,256,meters,jsons/v1_VE250_randls_20.json,588060,771308,41,Man
8,219566,DepthScenes,duration_manipulation_targetAtFixation,jsons/v1_VE250_randls_20.json,http://54.235.29.9/FacialAge/BNav_EC2/DepthDuration/v2_depth_duration_MTurk/v2_DepthDuration_HTML.html#111,111,2560,1329,2560,1440,8-20-2022,11-14-33,9,depth_duration_stimuli/001167_2014-06-17_15-38-07_260595134347_rgbf000108-resize_0/001167_2014-06-17_15-38-07_260595134347_rgbf000108-resize_0-target.png,250,1.8505,2,2478,239,meters,jsons/v1_VE250_randls_20.json,588060,771308,41,Man
9,219566,DepthScenes,duration_manipulation_targetAtFixation,jsons/v1_VE250_randls_20.json,http://54.235.29.9/FacialAge/BNav_EC2/DepthDuration/v2_depth_duration_MTurk/v2_DepthDuration_HTML.html#111,111,2560,1329,2560,1440,8-20-2022,11-14-33,10,depth_duration_stimuli/003587_2014-05-23_16-48-02_094959634447_rgbf002384-resize_2/003587_2014-05-23_16-48-02_094959634447_rgbf002384-resize_2-target.png,250,1.357,1,3934,249,meters,jsons/v1_VE250_randls_20.json,588060,771308,41,Man
10,219566,DepthScenes,duration_manipulation_targetAtFixation,jsons/v1_VE250_randls_20.json,http://54.235.29.9/FacialAge/BNav_EC2/DepthDuration/v2_depth_duration_MTurk/v2_DepthDuration_HTML.html#111,111,2560,1329,2560,1440,8-20-2022,11-14-33,11,depth_duration_stimuli/002784_2014-06-22_19-26-30_094959634447_rgbf000083-resize_3/002784_2014-06-22_19-26-30_094959634447_rgbf000083-resize_3-target.png,250,1.8046666666667,2,2683,255,meters,jsons/v1_VE250_randls_20.json,588060,771308,41,Man
11,219566,DepthScenes,duration_manipulation_targetAtFixation,jsons/v1_VE250_randls_20.json,http://54.235.29.9/FacialAge/BNav_EC2/DepthDuration/v2_depth_duration_MTurk/v2_DepthDuration_HTML.html#111,111,2560,1329,2560,1440,8-20-2022,11-14-33,12,depth_duration_stimuli/001100_2014-06-15_17-46-26_260595134347_rgbf000225-resize_2/001100_2014-06-15_17-46-26_260595134347_rgbf000225-resize_2-target.png,250,2.24,1,3728,255,meters,jsons/v1_VE250_randls_20.json,588060,771308,41,Man
12,219566,DepthScenes,duration_manipulation_targetAtFixation,jsons/v1_VE250_randls_20.json,http://54.235.29.9/FacialAge/BNav_EC2/DepthDuration/v2_depth_duration_MTurk/v2_DepthDuration_HTML.html#111,111,2560,1329,2560,1440,8-20-2022,11-14-33,13,depth_duration_stimuli/000569_2014-06-09_22-51-47_260595134347_rgbf000141-resize_3/000569_2014-06-09_22-51-47_260595134347_rgbf000141-resize-original.jpg,250,4.512,0,3598,239,meters,jsons/v1_VE250_randls_20.json,588060,771308,41,Man
13,219566,DepthScenes,duration_manipulation_targetAtFixation,jsons/v1_VE250_randls_20.json,http://54.235.29.9/FacialAge/BNav_EC2/DepthDuration/v2_depth_duration_MTurk/v2_DepthDuration_HTML.html#111,111,2560,1329,2560,1440,8-20-2022,11-14-33,14,depth_duration_stimuli/002118_2014-06-25_20-32-08_260595134347_rgbf000078-resize_1/002118_2014-06-25_20-32-08_260595134347_rgbf000078-resize_1-target.png,250,2.6460000000000004,3,3285,253,meters,jsons/v1_VE250_randls_20.json,588060,771308,41,Man
14,219566,DepthScenes,duration_manipulation_targetAtFixation,jsons/v1_VE250_randls_20.json,http://54.235.29.9/FacialAge/BNav_EC2/DepthDuration/v2_depth_duration_MTurk/v2_DepthDuration_HTML.html#111,111,2560,1329,2560,1440,8-20-2022,11-14-33,15,depth_duration_stimuli/001516_2014-06-20_16-25-09_260595134347_rgbf000076-resize_2/001516_2014-06-20_16-25-09_260595134347_rgbf000076-resize_2-target.png,250,1.7445,3,5430,254,meters,jsons/v1_VE250_randls_20.json,588060,771308,41,Man
15,219566,DepthScenes,duration_manipulation_targetAtFixation,jsons/v1_VE250_randls_20.json,http://54.235.29.9/FacialAge/BNav_EC2/DepthDuration/v2_depth_duration_MTurk/v2_DepthDuration_HTML.html#111,111,2560,1329,2560,1440,8-20-2022,11-14-33,16,depth_duration_stimuli/001199_2014-06-17_16-03-48_260595134347_rgbf000077-resize_0/001199_2014-06-17_16-03-48_260595134347_rgbf000077-resize_0-target.png,250,3.4375,4,3188,256,meters,jsons/v1_VE250_randls_20.json,588060,771308,41,Man
16,219566,DepthScenes,duration_manipulation_targetAtFixation,jsons/v1_VE250_randls_20.json,http://54.235.29.9/FacialAge/BNav_EC2/DepthDuration/v2_depth_duration_MTurk/v2_DepthDuration_HTML.html#111,111,2560,1329,2560,1440,8-20-2022,11-14-33,17,depth_duration_stimuli/000502_2014-06-08_23-02-32_260595134347_rgbf000063-resize_4/000502_2014-06-08_23-02-32_260595134347_rgbf000063-resize_4-target.png,250,2.431,3,2655,251,meters,jsons/v1_VE250_randls_20.json,588060,771308,41,Man
17,219566,DepthScenes,duration_manipulation_targetAtFixation,jsons/v1_VE250_randls_20.json,http://54.235.29.9/FacialAge/BNav_EC2/DepthDuration/v2_depth_duration_MTurk/v2_DepthDuration_HTML.html#111,111,2560,1329,2560,1440,8-20-2022,11-14-33,18,depth_duration_stimuli/001059_2014-06-08_21-53-27_260595134347_rgbf000061-resize_4/001059_2014-06-08_21-53-27_260595134347_rgbf000061-resize_4-target.png,250,2.4185,3,3014,256,meters,jsons/v1_VE250_randls_20.json,588060,771308,41,Man
18,219566,DepthScenes,duration_manipulation_targetAtFixation,jsons/v1_VE250_randls_20.json,http://54.235.29.9/FacialAge/BNav_EC2/DepthDuration/v2_depth_duration_MTurk/v2_DepthDuration_HTML.html#111,111,2560,1329,2560,1440,8-20-2022,11-14-33,19,depth_duration_stimuli/001032_2014-06-08_13-23-17_260595134347_rgbf000021-resize_3/001032_2014-06-08_13-23-17_260595134347_rgbf000021-resize_3-target.png,250,3.2725,3,2653,240,meters,jsons/v1_VE250_randls_20.json,588060,771308,41,Man
19,219566,DepthScenes,duration_manipulation_targetAtFixation,jsons/v1_VE250_randls_20.json,http://54.235.29.9/FacialAge/BNav_EC2/DepthDuration/v2_depth_duration_MTurk/v2_DepthDuration_HTML.html#111,111,2560,1329,2560,1440,8-20-2022,11-14-33,20,depth_duration_stimuli/001056_2014-06-08_18-46-44_260595134347_rgbf000068-resize_0/001056_2014-06-08_18-46-44_260595134347_rgbf000068-resize_0-target.png,250,2.6625,4,2397,251,meters,jsons/v1_VE250_randls_20.json,588060,771308,41,Man
20,219566,DepthScenes,duration_manipulation_targetAtFixation,jsons/v1_VE250_randls_20.json,http://54.235.29.9/FacialAge/BNav_EC2/DepthDuration/v2_depth_duration_MTurk/v2_DepthDuration_HTML.html#111,111,2560,1329,2560,1440,8-20-2022,11-14-33,21,depth_duration_stimuli/002199_2014-06-28_18-33-56_260595134347_rgbf000074-resize_0/002199_2014-06-28_18-33-56_260595134347_rgbf000074-resize_0-target.png,250,1.996,2,7923,252,meters,jsons/v1_VE250_randls_20.json,588060,771308,41,Man
21,219566,DepthScenes,duration_manipulation_targetAtFixation,jsons/v1_VE250_randls_20.json,http://54.235.29.9/FacialAge/BNav_EC2/DepthDuration/v2_depth_duration_MTurk/v2_DepthDuration_HTML.html#111,111,2560,1329,2560,1440,8-20-2022,11-14-33,22,depth_duration_stimuli/001092_2014-06-15_17-34-58_260595134347_rgbf000171-resize_3/001092_2014-06-15_17-34-58_260595134347_rgbf000171-resize_3-target.png,250,2.6935,3,2660,253,meters,jsons/v1_VE250_randls_20.json,588060,771308,41,Man
22,219566,DepthScenes,duration_manipulation_targetAtFixation,jsons/v1_VE250_randls_20.json,http://54.235.29.9/FacialAge/BNav_EC2/DepthDuration/v2_depth_duration_MTurk/v2_DepthDuration_HTML.html#111,111,2560,1329,2560,1440,8-20-2022,11-14-33,23,depth_duration_stimuli/002545_2014-06-24_13-38-53_094959634447_rgbf000080-resize_4/002545_2014-06-24_13-38-53_094959634447_rgbf000080-resize_4-target.png,250,1.9205,4,2729,256,meters,jsons/v1_VE250_randls_20.json,588060,771308,41,Man
23,219566,DepthScenes,duration_manipulation_targetAtFixation,jsons/v1_VE250_randls_20.json,http://54.235.29.9/FacialAge/BNav_EC2/DepthDuration/v2_depth_duration_MTurk/v2_DepthDuration_HTML.html#111,111,2560,1329,2560,1440,8-20-2022,11-14-33,24,depth_duration_stimuli/001055_2014-06-08_18-45-35_260595134347_rgbf000111-resize_4/001055_2014-06-08_18-45-35_260595134347_rgbf000111-resize_4-target.png,250,2.4290000000000003,4,1946,256,meters,jsons/v1_VE250_randls_20.json,588060,771308,41,Man
24,219566,DepthScenes,duration_manipulation_targetAtFixation,jsons/v1_VE250_randls_20.json,http://54.235.29.9/FacialAge/BNav_EC2/DepthDuration/v2_depth_duration_MTurk/v2_DepthDuration_HTML.html#111,111,2560,1329,2560,1440,8-20-2022,11-14-33,25,depth_duration_stimuli/000549_2014-06-08_22-10-24_260595134347_rgbf000247-resize_3/000549_2014-06-08_22-10-24_260595134347_rgbf000247-resize_3-target.png,250,1.841,2,2341,255,meters,jsons/v1_VE250_randls_20.json,588060,771308,41,Man
25,219566,DepthScenes,duration_manipulation_targetAtFixation,jsons/v1_VE250_randls_20.json,http://54.235.29.9/FacialAge/BNav_EC2/DepthDuration/v2_depth_duration_MTurk/v2_DepthDuration_HTML.html#111,111,2560,1329,2560,1440,8-20-2022,11-14-33,26,depth_duration_stimuli/000692_2014-06-08_13-09-42_260595134347_rgbf000199-resize_2/000692_2014-06-08_13-09-42_260595134347_rgbf000199-resize_2-target.png,250,3.661,5,5036,239,meters,jsons/v1_VE250_randls_20.json,588060,771308,41,Man
26,219566,DepthScenes,duration_manipulation_targetAtFixation,jsons/v1_VE250_randls_20.json,http://54.235.29.9/FacialAge/BNav_EC2/DepthDuration/v2_depth_duration_MTurk/v2_DepthDuration_HTML.html#111,111,2560,1329,2560,1440,8-20-2022,11-14-33,27,depth_duration_stimuli/001094_2014-06-15_17-36-00_260595134347_rgbf000205-resize_0/001094_2014-06-15_17-36-00_260595134347_rgbf000205-resize_0-target.png,250,4.2175,5,3174,255,meters,jsons/v1_VE250_randls_20.json,588060,771308,41,Man
27,219566,DepthScenes,duration_manipulation_targetAtFixation,jsons/v1_VE250_randls_20.json,http://54.235.29.9/FacialAge/BNav_EC2/DepthDuration/v2_depth_duration_MTurk/v2_DepthDuration_HTML.html#111,111,2560,1329,2560,1440,8-20-2022,11-14-33,28,depth_duration_stimuli/000506_2014-06-08_23-21-00_260595134347_rgbf000070-resize_7/000506_2014-06-08_23-21-00_260595134347_rgbf000070-resize_7-target.png,250,4.0585,4,2327,239,meters,jsons/v1_VE250_randls_20.json,588060,771308,41,Man
28,219566,DepthScenes,duration_manipulation_targetAtFixation,jsons/v1_VE250_randls_20.json,http://54.235.29.9/FacialAge/BNav_EC2/DepthDuration/v2_depth_duration_MTurk/v2_DepthDuration_HTML.html#111,111,2560,1329,2560,1440,8-20-2022,11-14-33,29,depth_duration_stimuli/003079_2014-06-15_15-18-20_094959634447_rgbf000152-resize_8/003079_2014-06-15_15-18-20_094959634447_rgbf000152-resize_8-target.png,250,2.8775,5,2661,255,meters,jsons/v1_VE250_randls_20.json,588060,771308,41,Man
29,219566,DepthScenes,duration_manipulation_targetAtFixation,jsons/v1_VE250_randls_20.json,http://54.235.29.9/FacialAge/BNav_EC2/DepthDuration/v2_depth_duration_MTurk/v2_DepthDuration_HTML.html#111,111,2560,1329,2560,1440,8-20-2022,11-14-33,30,depth_duration_stimuli/000375_2014-06-08_11-17-29_260595134347_rgbf000133-resize_2/000375_2014-06-08_11-17-29_260595134347_rgbf000133-resize-original.jpg,250,4.718,0,4260,255,meters,jsons/v1_VE250_randls_20.json,588060,771308,41,Man
30,219566,DepthScenes,duration_manipulation_targetAtFixation,jsons/v1_VE250_randls_20.json,http://54.235.29.9/FacialAge/BNav_EC2/DepthDuration/v2_depth_duration_MTurk/v2_DepthDuration_HTML.html#111,111,2560,1329,2560,1440,8-20-2022,11-14-33,31,depth_duration_stimuli/000469_2014-06-09_19-42-10_260595134347_rgbf000081-resize_1/000469_2014-06-09_19-42-10_260595134347_rgbf000081-resize_1-target.png,250,1.652,3,3376,248,meters,jsons/v1_VE250_randls_20.json,588060,771308,41,Man
31,219566,DepthScenes,duration_manipulation_targetAtFixation,jsons/v1_VE250_randls_20.json,http://54.235.29.9/FacialAge/BNav_EC2/DepthDuration/v2_depth_duration_MTurk/v2_DepthDuration_HTML.html#111,111,2560,1329,2560,1440,8-20-2022,11-14-33,32,depth_duration_stimuli/000483_2014-06-09_20-41-45_260595134347_rgbf000116-resize_4/000483_2014-06-09_20-41-45_260595134347_rgbf000116-resize_4-target.png,250,1.337,2,3260,248,meters,jsons/v1_VE250_randls_20.json,588060,771308,41,Man
32,219566,DepthScenes,duration_manipulation_targetAtFixation,jsons/v1_VE250_randls_20.json,http://54.235.29.9/FacialAge/BNav_EC2/DepthDuration/v2_depth_duration_MTurk/v2_DepthDuration_HTML.html#111,111,2560,1329,2560,1440,8-20-2022,11-14-33,33,depth_duration_stimuli/001810_2014-06-26_20-51-35_260595134347_rgbf000040-resize_3/001810_2014-06-26_20-51-35_260595134347_rgbf000040-resize_3-target.png,250,2.2525,2,2373,255,meters,jsons/v1_VE250_randls_20.json,588060,771308,41,Man
33,219566,DepthScenes,duration_manipulation_targetAtFixation,jsons/v1_VE250_randls_20.json,http://54.235.29.9/FacialAge/BNav_EC2/DepthDuration/v2_depth_duration_MTurk/v2_DepthDuration_HTML.html#111,111,2560,1329,2560,1440,8-20-2022,11-14-33,34,depth_duration_stimuli/003010_2014-06-15_12-54-35_094959634447_rgbf000112-resize_0/003010_2014-06-15_12-54-35_094959634447_rgbf000112-resize_0-target.png,250,3.1185,6,5958,242,meters,jsons/v1_VE250_randls_20.json,588060,771308,41,Man
34,219566,DepthScenes,duration_manipulation_targetAtFixation,jsons/v1_VE250_randls_20.json,http://54.235.29.9/FacialAge/BNav_EC2/DepthDuration/v2_depth_duration_MTurk/v2_DepthDuration_HTML.html#111,111,2560,1329,2560,1440,8-20-2022,11-14-33,35,depth_duration_stimuli/000739_2014-06-08_18-45-58_260595134347_rgbf000068-resize_1/000739_2014-06-08_18-45-58_260595134347_rgbf000068-resize_1-target.png,250,3.534,4,3261,250,meters,jsons/v1_VE250_randls_20.json,588060,771308,41,Man
35,219566,DepthScenes,duration_manipulation_targetAtFixation,jsons/v1_VE250_randls_20.json,http://54.235.29.9/FacialAge/BNav_EC2/DepthDuration/v2_depth_duration_MTurk/v2_DepthDuration_HTML.html#111,111,2560,1329,2560,1440,8-20-2022,11-14-33,36,depth_duration_stimuli/000734_2014-06-08_17-39-11_260595134347_rgbf000128-resize_2/000734_2014-06-08_17-39-11_260595134347_rgbf000128-resize_2-target.png,250,4.098,4,2162,255,meters,jsons/v1_VE250_randls_20.json,588060,771308,41,Man
36,219566,DepthScenes,duration_manipulation_targetAtFixation,jsons/v1_VE250_randls_20.json,http://54.235.29.9/FacialAge/BNav_EC2/DepthDuration/v2_depth_duration_MTurk/v2_DepthDuration_HTML.html#111,111,2560,1329,2560,1440,8-20-2022,11-14-33,37,depth_duration_stimuli/000736_2014-06-08_18-24-15_260595134347_rgbf000206-resize_3/000736_2014-06-08_18-24-15_260595134347_rgbf000206-resize_3-target.png,250,3.515,3,2735,255,meters,jsons/v1_VE250_randls_20.json,588060,771308,41,Man
37,219566,DepthScenes,duration_manipulation_targetAtFixation,jsons/v1_VE250_randls_20.json,http://54.235.29.9/FacialAge/BNav_EC2/DepthDuration/v2_depth_duration_MTurk/v2_DepthDuration_HTML.html#111,111,2560,1329,2560,1440,8-20-2022,11-14-33,38,depth_duration_stimuli/000137_2014-05-20_17-04-49_260595134347_rgbf000120-resize_1/000137_2014-05-20_17-04-49_260595134347_rgbf000120-resize_1-target.png,250,3.786,4,2193,256,meters,jsons/v1_VE250_randls_20.json,588060,771308,41,Man
38,219566,DepthScenes,duration_manipulation_targetAtFixation,jsons/v1_VE250_randls_20.json,http://54.235.29.9/FacialAge/BNav_EC2/DepthDuration/v2_depth_duration_MTurk/v2_DepthDuration_HTML.html#111,111,2560,1329,2560,1440,8-20-2022,11-14-33,39,depth_duration_stimuli/003534_2014-05-22_15-06-10_094959634447_rgbf000102-resize_4/003534_2014-05-22_15-06-10_094959634447_rgbf000102-resize_4-target.png,250,1.426,3,2806,250,meters,jsons/v1_VE250_randls_20.json,588060,771308,41,Man
39,219566,DepthScenes,duration_manipulation_targetAtFixation,jsons/v1_VE250_randls_20.json,http://54.235.29.9/FacialAge/BNav_EC2/DepthDuration/v2_depth_duration_MTurk/v2_DepthDuration_HTML.html#111,111,2560,1329,2560,1440,8-20-2022,11-14-33,40,depth_duration_stimuli/002637_2014-06-24_14-51-13_094959634447_rgbf000066-resize_4/002637_2014-06-24_14-51-13_094959634447_rgbf000066-resize_4-target.png,250,1.9955,3,2023,255,meters,jsons/v1_VE250_randls_20.json,588060,771308,41,Man
40,219566,DepthScenes,duration_manipulation_targetAtFixation,jsons/v1_VE250_randls_20.json,http://54.235.29.9/FacialAge/BNav_EC2/DepthDuration/v2_depth_duration_MTurk/v2_DepthDuration_HTML.html#111,111,2560,1329,2560,1440,8-20-2022,11-14-33,41,depth_duration_stimuli/002375_2014-06-28_20-13-44_260595134347_rgbf000032-resize_1/002375_2014-06-28_20-13-44_260595134347_rgbf000032-resize_1-target.png,250,4.0175,4,3359,256,meters,jsons/v1_VE250_randls_20.json,588060,771308,41,Man
41,219566,DepthScenes,duration_manipulation_targetAtFixation,jsons/v1_VE250_randls_20.json,http://54.235.29.9/FacialAge/BNav_EC2/DepthDuration/v2_depth_duration_MTurk/v2_DepthDuration_HTML.html#111,111,2560,1329,2560,1440,8-20-2022,11-14-33,42,depth_duration_stimuli/002657_2014-06-13_15-29-54_094959634447_rgbf000150-resize_1/002657_2014-06-13_15-29-54_094959634447_rgbf000150-resize_1-target.png,250,4.919,5,2829,246,meters,jsons/v1_VE250_randls_20.json,588060,771308,41,Man
42,219566,DepthScenes,duration_manipulation_targetAtFixation,jsons/v1_VE250_randls_20.json,http://54.235.29.9/FacialAge/BNav_EC2/DepthDuration/v2_depth_duration_MTurk/v2_DepthDuration_HTML.html#111,111,2560,1329,2560,1440,8-20-2022,11-14-33,43,depth_duration_stimuli/001555_2014-06-20_17-12-10_260595134347_rgbf000065-resize_4/001555_2014-06-20_17-12-10_260595134347_rgbf000065-resize_4-target.png,250,1.633,3,2812,251,meters,jsons/v1_VE250_randls_20.json,588060,771308,41,Man
43,219566,DepthScenes,duration_manipulation_targetAtFixation,jsons/v1_VE250_randls_20.json,http://54.235.29.9/FacialAge/BNav_EC2/DepthDuration/v2_depth_duration_MTurk/v2_DepthDuration_HTML.html#111,111,2560,1329,2560,1440,8-20-2022,11-14-33,44,depth_duration_stimuli/000103_2014-05-14_22-01-17_260595134347_rgbf000152-resize_5/000103_2014-05-14_22-01-17_260595134347_rgbf000152-resize_5-target.png,250,1.993,5,3207,240,meters,jsons/v1_VE250_randls_20.json,588060,771308,41,Man
44,219566,DepthScenes,duration_manipulation_targetAtFixation,jsons/v1_VE250_randls_20.json,http://54.235.29.9/FacialAge/BNav_EC2/DepthDuration/v2_depth_duration_MTurk/v2_DepthDuration_HTML.html#111,111,2560,1329,2560,1440,8-20-2022,11-14-33,45,depth_duration_stimuli/000787_2014-06-08_22-33-53_260595134347_rgbf000175-resize_1/000787_2014-06-08_22-33-53_260595134347_rgbf000175-resize-original.jpg,250,4.784,0,4282,256,meters,jsons/v1_VE250_randls_20.json,588060,771308,41,Man
45,219566,DepthScenes,duration_manipulation_targetAtFixation,jsons/v1_VE250_randls_20.json,http://54.235.29.9/FacialAge/BNav_EC2/DepthDuration/v2_depth_duration_MTurk/v2_DepthDuration_HTML.html#111,111,2560,1329,2560,1440,8-20-2022,11-14-33,46,depth_duration_stimuli/002213_2014-06-28_18-37-58_260595134347_rgbf000055-resize_1/002213_2014-06-28_18-37-58_260595134347_rgbf000055-resize_1-target.png,250,3.62,5,2615,255,meters,jsons/v1_VE250_randls_20.json,588060,771308,41,Man
46,219566,DepthScenes,duration_manipulation_targetAtFixation,jsons/v1_VE250_randls_20.json,http://54.235.29.9/FacialAge/BNav_EC2/DepthDuration/v2_depth_duration_MTurk/v2_DepthDuration_HTML.html#111,111,2560,1329,2560,1440,8-20-2022,11-14-33,47,depth_duration_stimuli/000691_2014-06-08_13-08-50_260595134347_rgbf000132-resize_3/000691_2014-06-08_13-08-50_260595134347_rgbf000132-resize_3-target.png,250,4.1530000000000005,6,4439,238,meters,jsons/v1_VE250_randls_20.json,588060,771308,41,Man
47,219566,DepthScenes,duration_manipulation_targetAtFixation,jsons/v1_VE250_randls_20.json,http://54.235.29.9/FacialAge/BNav_EC2/DepthDuration/v2_depth_duration_MTurk/v2_DepthDuration_HTML.html#111,111,2560,1329,2560,1440,8-20-2022,11-14-33,48,depth_duration_stimuli/001449_2014-06-19_17-01-27_260595134347_rgbf000116-resize_2/001449_2014-06-19_17-01-27_260595134347_rgbf000116-resize_2-target.png,250,3.452,5,2694,256,meters,jsons/v1_VE250_randls_20.json,588060,771308,41,Man
48,219566,DepthScenes,duration_manipulation_targetAtFixation,jsons/v1_VE250_randls_20.json,http://54.235.29.9/FacialAge/BNav_EC2/DepthDuration/v2_depth_duration_MTurk/v2_DepthDuration_HTML.html#111,111,2560,1329,2560,1440,8-20-2022,11-14-33,49,depth_duration_stimuli/001450_2014-06-19_17-02-03_260595134347_rgbf000203-resize_4/001450_2014-06-19_17-02-03_260595134347_rgbf000203-resize_4-target.png,250,4.0106666666667,7,4139,255,meters,jsons/v1_VE250_randls_20.json,588060,771308,41,Man
49,219566,DepthScenes,duration_manipulation_targetAtFixation,jsons/v1_VE250_randls_20.json,http://54.235.29.9/FacialAge/BNav_EC2/DepthDuration/v2_depth_duration_MTurk/v2_DepthDuration_HTML.html#111,111,2560,1329,2560,1440,8-20-2022,11-14-33,50,depth_duration_stimuli/001011_2014-06-08_23-18-54_260595134347_rgbf000044-resize_4/001011_2014-06-08_23-18-54_260595134347_rgbf000044-resize_4-target.png,250,2.4730000000000003,5,2627,256,meters,jsons/v1_VE250_randls_20.json,588060,771308,41,Man
50,219566,DepthScenes,duration_manipulation_targetAtFixation,jsons/v1_VE250_randls_20.json,http://54.235.29.9/FacialAge/BNav_EC2/DepthDuration/v2_depth_duration_MTurk/v2_DepthDuration_HTML.html#111,111,2560,1329,2560,1440,8-20-2022,11-14-33,51,depth_duration_stimuli/002875_2014-06-01_15-19-00_094959634447_rgbf000151-resize_1/002875_2014-06-01_15-19-00_094959634447_rgbf000151-resize_1-target.png,250,1.9675,5,3425,250,meters,jsons/v1_VE250_randls_20.json,588060,771308,41,Man
51,219566,DepthScenes,duration_manipulation_targetAtFixation,jsons/v1_VE250_randls_20.json,http://54.235.29.9/FacialAge/BNav_EC2/DepthDuration/v2_depth_duration_MTurk/v2_DepthDuration_HTML.html#111,111,2560,1329,2560,1440,8-20-2022,11-14-33,52,depth_duration_stimuli/002039_2014-06-24_20-22-38_260595134347_rgbf000084-resize_1/002039_2014-06-24_20-22-38_260595134347_rgbf000084-resize_1-target.png,250,4.408,6,2896,239,meters,jsons/v1_VE250_randls_20.json,588060,771308,41,Man
52,219566,DepthScenes,duration_manipulation_targetAtFixation,jsons/v1_VE250_randls_20.json,http://54.235.29.9/FacialAge/BNav_EC2/DepthDuration/v2_depth_duration_MTurk/v2_DepthDuration_HTML.html#111,111,2560,1329,2560,1440,8-20-2022,11-14-33,53,depth_duration_stimuli/002103_2014-06-25_20-00-40_260595134347_rgbf000049-resize_0/002103_2014-06-25_20-00-40_260595134347_rgbf000049-resize_0-target.png,250,4.105,6,3310,256,meters,jsons/v1_VE250_randls_20.json,588060,771308,41,Man
53,219566,DepthScenes,duration_manipulation_targetAtFixation,jsons/v1_VE250_randls_20.json,http://54.235.29.9/FacialAge/BNav_EC2/DepthDuration/v2_depth_duration_MTurk/v2_DepthDuration_HTML.html#111,111,2560,1329,2560,1440,8-20-2022,11-14-33,54,depth_duration_stimuli/002989_2014-06-15_12-25-03_094959634447_rgbf000150-resize_3/002989_2014-06-15_12-25-03_094959634447_rgbf000150-resize_3-target.png,250,4.1975,7,5355,239,meters,jsons/v1_VE250_randls_20.json,588060,771308,41,Man
54,219566,DepthScenes,duration_manipulation_targetAtFixation,jsons/v1_VE250_randls_20.json,http://54.235.29.9/FacialAge/BNav_EC2/DepthDuration/v2_depth_duration_MTurk/v2_DepthDuration_HTML.html#111,111,2560,1329,2560,1440,8-20-2022,11-14-33,55,depth_duration_stimuli/000866_2014-06-09_20-45-42_260595134347_rgbf000139-resize_1/000866_2014-06-09_20-45-42_260595134347_rgbf000139-resize_1-target.png,250,3.2155,5,2489,250,meters,jsons/v1_VE250_randls_20.json,588060,771308,41,Man
55,219566,DepthScenes,duration_manipulation_targetAtFixation,jsons/v1_VE250_randls_20.json,http://54.235.29.9/FacialAge/BNav_EC2/DepthDuration/v2_depth_duration_MTurk/v2_DepthDuration_HTML.html#111,111,2560,1329,2560,1440,8-20-2022,11-14-33,56,depth_duration_stimuli/002279_2014-06-28_18-55-32_260595134347_rgbf000040-resize_5/002279_2014-06-28_18-55-32_260595134347_rgbf000040-resize_5-target.png,250,1.5043333333333,2,5270,254,meters,jsons/v1_VE250_randls_20.json,588060,771308,41,Man
56,219566,DepthScenes,duration_manipulation_targetAtFixation,jsons/v1_VE250_randls_20.json,http://54.235.29.9/FacialAge/BNav_EC2/DepthDuration/v2_depth_duration_MTurk/v2_DepthDuration_HTML.html#111,111,2560,1329,2560,1440,8-20-2022,11-14-33,57,depth_duration_stimuli/000635_2014-06-08_16-38-42_260595134347_rgbf000106-resize_1/000635_2014-06-08_16-38-42_260595134347_rgbf000106-resize_1-target.png,250,2.074,3,2820,261,meters,jsons/v1_VE250_randls_20.json,588060,771308,41,Man
57,219566,DepthScenes,duration_manipulation_targetAtFixation,jsons/v1_VE250_randls_20.json,http://54.235.29.9/FacialAge/BNav_EC2/DepthDuration/v2_depth_duration_MTurk/v2_DepthDuration_HTML.html#111,111,2560,1329,2560,1440,8-20-2022,11-14-33,58,depth_duration_stimuli/002549_2014-06-24_13-41-39_094959634447_rgbf000022-resize_3/002549_2014-06-24_13-41-39_094959634447_rgbf000022-resize_3-target.png,250,1.476,2,4812,255,meters,jsons/v1_VE250_randls_20.json,588060,771308,41,Man
58,219566,DepthScenes,duration_manipulation_targetAtFixation,jsons/v1_VE250_randls_20.json,http://54.235.29.9/FacialAge/BNav_EC2/DepthDuration/v2_depth_duration_MTurk/v2_DepthDuration_HTML.html#111,111,2560,1329,2560,1440,8-20-2022,11-14-33,59,depth_duration_stimuli/002750_2014-06-22_19-08-03_094959634447_rgbf000094-resize_4/002750_2014-06-22_19-08-03_094959634447_rgbf000094-resize_4-target.png,250,2.354,4,2736,249,meters,jsons/v1_VE250_randls_20.json,588060,771308,41,Man
59,219566,DepthScenes,duration_manipulation_targetAtFixation,jsons/v1_VE250_randls_20.json,http://54.235.29.9/FacialAge/BNav_EC2/DepthDuration/v2_depth_duration_MTurk/v2_DepthDuration_HTML.html#111,111,2560,1329,2560,1440,8-20-2022,11-14-33,60,depth_duration_stimuli/002600_2014-06-24_14-27-04_094959634447_rgbf000074-resize_2/002600_2014-06-24_14-27-04_094959634447_rgbf000074-resize_2-target.png,250,2.7575,5,3171,249,meters,jsons/v1_VE250_randls_20.json,588060,771308,41,Man
60,219566,DepthScenes,duration_manipulation_targetAtFixation,jsons/v1_VE250_randls_20.json,http://54.235.29.9/FacialAge/BNav_EC2/DepthDuration/v2_depth_duration_MTurk/v2_DepthDuration_HTML.html#111,111,2560,1329,2560,1440,8-20-2022,11-14-33,61,depth_duration_stimuli/003228_2014-05-14_13-42-35_094959634447_rgbf000101-resize_1/003228_2014-05-14_13-42-35_094959634447_rgbf000101-resize_1-target.png,250,1.9680000000000002,4,3277,240,meters,jsons/v1_VE250_randls_20.json,588060,771308,41,Man
61,219566,DepthScenes,duration_manipulation_targetAtFixation,jsons/v1_VE250_randls_20.json,http://54.235.29.9/FacialAge/BNav_EC2/DepthDuration/v2_depth_duration_MTurk/v2_DepthDuration_HTML.html#111,111,2560,1329,2560,1440,8-20-2022,11-14-33,62,depth_duration_stimuli/002153_2014-06-25_21-27-18_260595134347_rgbf000038-resize_5/002153_2014-06-25_21-27-18_260595134347_rgbf000038-resize_5-target.png,250,2.505,5,2650,250,meters,jsons/v1_VE250_randls_20.json,588060,771308,41,Man
62,219566,DepthScenes,duration_manipulation_targetAtFixation,jsons/v1_VE250_randls_20.json,http://54.235.29.9/FacialAge/BNav_EC2/DepthDuration/v2_depth_duration_MTurk/v2_DepthDuration_HTML.html#111,111,2560,1329,2560,1440,8-20-2022,11-14-33,63,depth_duration_stimuli/002660_2014-06-13_15-44-18_094959634447_rgbf001878-resize_2/002660_2014-06-13_15-44-18_094959634447_rgbf001878-resize_2-target.png,250,3.576,5,3000,250,meters,jsons/v1_VE250_randls_20.json,588060,771308,41,Man
63,219566,DepthScenes,duration_manipulation_targetAtFixation,jsons/v1_VE250_randls_20.json,http://54.235.29.9/FacialAge/BNav_EC2/DepthDuration/v2_depth_duration_MTurk/v2_DepthDuration_HTML.html#111,111,2560,1329,2560,1440,8-20-2022,11-14-33,64,depth_duration_stimuli/002057_2014-06-24_21-00-13_260595134347_rgbf000120-resize_1/002057_2014-06-24_21-00-13_260595134347_rgbf000120-resize_1-target.png,250,2.967,6,3560,254,meters,jsons/v1_VE250_randls_20.json,588060,771308,41,Man
64,219566,DepthScenes,duration_manipulation_targetAtFixation,jsons/v1_VE250_randls_20.json,http://54.235.29.9/FacialAge/BNav_EC2/DepthDuration/v2_depth_duration_MTurk/v2_DepthDuration_HTML.html#111,111,2560,1329,2560,1440,8-20-2022,11-14-33,65,depth_duration_stimuli/000709_2014-06-08_13-51-55_260595134347_rgbf000068-resize_3/000709_2014-06-08_13-51-55_260595134347_rgbf000068-resize_3-target.png,250,1.8030000000000002,2,2987,250,meters,jsons/v1_VE250_randls_20.json,588060,771308,41,Man
65,219566,DepthScenes,duration_manipulation_targetAtFixation,jsons/v1_VE250_randls_20.json,http://54.235.29.9/FacialAge/BNav_EC2/DepthDuration/v2_depth_duration_MTurk/v2_DepthDuration_HTML.html#111,111,2560,1329,2560,1440,8-20-2022,11-14-33,66,depth_duration_stimuli/001222_2014-06-17_16-24-06_260595134347_rgbf000073-resize_0/001222_2014-06-17_16-24-06_260595134347_rgbf000073-resize-original.jpg,250,1.4385,0,3846,240,meters,jsons/v1_VE250_randls_20.json,588060,771308,41,Man
66,219566,DepthScenes,duration_manipulation_targetAtFixation,jsons/v1_VE250_randls_20.json,http://54.235.29.9/FacialAge/BNav_EC2/DepthDuration/v2_depth_duration_MTurk/v2_DepthDuration_HTML.html#111,111,2560,1329,2560,1440,8-20-2022,11-14-33,67,depth_duration_stimuli/000682_2014-06-08_23-14-58_260595134347_rgbf000041-resize_5/000682_2014-06-08_23-14-58_260595134347_rgbf000041-resize_5-target.png,250,2.7239999999999998,5,3231,252,meters,jsons/v1_VE250_randls_20.json,588060,771308,41,Man
67,219566,DepthScenes,duration_manipulation_targetAtFixation,jsons/v1_VE250_randls_20.json,http://54.235.29.9/FacialAge/BNav_EC2/DepthDuration/v2_depth_duration_MTurk/v2_DepthDuration_HTML.html#111,111,2560,1329,2560,1440,8-20-2022,11-14-33,68,depth_duration_stimuli/001650_2014-06-20_12-09-00_260595134347_rgbf000087-resize_3/001650_2014-06-20_12-09-00_260595134347_rgbf000087-resize_3-target.png,250,1.9505,1,3620,245,meters,jsons/v1_VE250_randls_20.json,588060,771308,41,Man
68,219566,DepthScenes,duration_manipulation_targetAtFixation,jsons/v1_VE250_randls_20.json,http://54.235.29.9/FacialAge/BNav_EC2/DepthDuration/v2_depth_duration_MTurk/v2_DepthDuration_HTML.html#111,111,2560,1329,2560,1440,8-20-2022,11-14-33,69,depth_duration_stimuli/000493_2014-06-09_21-01-18_260595134347_rgbf000196-resize_3/000493_2014-06-09_21-01-18_260595134347_rgbf000196-resize_3-target.png,250,3.44,3,3498,248,meters,jsons/v1_VE250_randls_20.json,588060,771308,41,Man
69,219566,DepthScenes,duration_manipulation_targetAtFixation,jsons/v1_VE250_randls_20.json,http://54.235.29.9/FacialAge/BNav_EC2/DepthDuration/v2_depth_duration_MTurk/v2_DepthDuration_HTML.html#111,111,2560,1329,2560,1440,8-20-2022,11-14-33,70,depth_duration_stimuli/000191_2014-05-12_17-07-38_260595134347_rgbf000199-resize_0/000191_2014-05-12_17-07-38_260595134347_rgbf000199-resize_0-target.png,250,3.7995,5,2736,256,meters,jsons/v1_VE250_randls_20.json,588060,771308,41,Man
70,219566,DepthScenes,duration_manipulation_targetAtFixation,jsons/v1_VE250_randls_20.json,http://54.235.29.9/FacialAge/BNav_EC2/DepthDuration/v2_depth_duration_MTurk/v2_DepthDuration_HTML.html#111,111,2560,1329,2560,1440,8-20-2022,11-14-33,71,depth_duration_stimuli/002748_2014-06-22_19-07-22_094959634447_rgbf000078-resize_1/002748_2014-06-22_19-07-22_094959634447_rgbf000078-resize_1-target.png,250,4.6705,7,3670,250,meters,jsons/v1_VE250_randls_20.json,588060,771308,41,Man
71,219566,DepthScenes,duration_manipulation_targetAtFixation,jsons/v1_VE250_randls_20.json,http://54.235.29.9/FacialAge/BNav_EC2/DepthDuration/v2_depth_duration_MTurk/v2_DepthDuration_HTML.html#111,111,2560,1329,2560,1440,8-20-2022,11-14-33,72,depth_duration_stimuli/002995_2014-06-15_12-31-26_094959634447_rgbf000150-resize_1/002995_2014-06-15_12-31-26_094959634447_rgbf000150-resize_1-target.png,250,3.8360000000000003,4,4322,256,meters,jsons/v1_VE250_randls_20.json,588060,771308,41,Man
72,219566,DepthScenes,duration_manipulation_targetAtFixation,jsons/v1_VE250_randls_20.json,http://54.235.29.9/FacialAge/BNav_EC2/DepthDuration/v2_depth_duration_MTurk/v2_DepthDuration_HTML.html#111,111,2560,1329,2560,1440,8-20-2022,11-14-33,73,depth_duration_stimuli/001806_2014-06-26_20-50-20_260595134347_rgbf000091-resize_1/001806_2014-06-26_20-50-20_260595134347_rgbf000091-resize_1-target.png,250,2.7305,2,6468,250,meters,jsons/v1_VE250_randls_20.json,588060,771308,41,Man
73,219566,DepthScenes,duration_manipulation_targetAtFixation,jsons/v1_VE250_randls_20.json,http://54.235.29.9/FacialAge/BNav_EC2/DepthDuration/v2_depth_duration_MTurk/v2_DepthDuration_HTML.html#111,111,2560,1329,2560,1440,8-20-2022,11-14-33,74,depth_duration_stimuli/001617_2014-06-20_11-35-32_260595134347_rgbf000066-resize_1/001617_2014-06-20_11-35-32_260595134347_rgbf000066-resize_1-target.png,250,3.7910000000000004,4,2701,240,meters,jsons/v1_VE250_randls_20.json,588060,771308,41,Man
74,219566,DepthScenes,duration_manipulation_targetAtFixation,jsons/v1_VE250_randls_20.json,http://54.235.29.9/FacialAge/BNav_EC2/DepthDuration/v2_depth_duration_MTurk/v2_DepthDuration_HTML.html#111,111,2560,1329,2560,1440,8-20-2022,11-14-33,75,depth_duration_stimuli/003070_2014-06-15_14-58-27_094959634447_rgbf000150-resize_3/003070_2014-06-15_14-58-27_094959634447_rgbf000150-resize_3-target.png,250,2.9415,4,2344,241,meters,jsons/v1_VE250_randls_20.json,588060,771308,41,Man
75,219566,DepthScenes,duration_manipulation_targetAtFixation,jsons/v1_VE250_randls_20.json,http://54.235.29.9/FacialAge/BNav_EC2/DepthDuration/v2_depth_duration_MTurk/v2_DepthDuration_HTML.html#111,111,2560,1329,2560,1440,8-20-2022,11-14-33,76,depth_duration_stimuli/000943_2014-06-09_19-31-07_260595134347_rgbf000128-resize_1/000943_2014-06-09_19-31-07_260595134347_rgbf000128-resize_1-target.png,250,1.9765,2,2983,251,meters,jsons/v1_VE250_randls_20.json,588060,771308,41,Man
76,219566,DepthScenes,duration_manipulation_targetAtFixation,jsons/v1_VE250_randls_20.json,http://54.235.29.9/FacialAge/BNav_EC2/DepthDuration/v2_depth_duration_MTurk/v2_DepthDuration_HTML.html#111,111,2560,1329,2560,1440,8-20-2022,11-14-33,77,depth_duration_stimuli/000810_2014-06-08_17-20-01_260595134347_rgbf000105-resize_0/000810_2014-06-08_17-20-01_260595134347_rgbf000105-resize_0-target.png,250,1.4865,3,5856,242,meters,jsons/v1_VE250_randls_20.json,588060,771308,41,Man
77,219566,DepthScenes,duration_manipulation_targetAtFixation,jsons/v1_VE250_randls_20.json,http://54.235.29.9/FacialAge/BNav_EC2/DepthDuration/v2_depth_duration_MTurk/v2_DepthDuration_HTML.html#111,111,2560,1329,2560,1440,8-20-2022,11-14-33,78,depth_duration_stimuli/001214_2014-06-17_16-13-55_260595134347_rgbf000111-resize_0/001214_2014-06-17_16-13-55_260595134347_rgbf000111-resize_0-target.png,250,2.6505,4,3060,252,meters,jsons/v1_VE250_randls_20.json,588060,771308,41,Man
78,219566,DepthScenes,duration_manipulation_targetAtFixation,jsons/v1_VE250_randls_20.json,http://54.235.29.9/FacialAge/BNav_EC2/DepthDuration/v2_depth_duration_MTurk/v2_DepthDuration_HTML.html#111,111,2560,1329,2560,1440,8-20-2022,11-14-33,79,depth_duration_stimuli/001808_2014-06-26_20-50-58_260595134347_rgbf000029-resize_1/001808_2014-06-26_20-50-58_260595134347_rgbf000029-resize_1-target.png,250,4.249,5,2963,256,meters,jsons/v1_VE250_randls_20.json,588060,771308,41,Man
79,219566,DepthScenes,duration_manipulation_targetAtFixation,jsons/v1_VE250_randls_20.json,http://54.235.29.9/FacialAge/BNav_EC2/DepthDuration/v2_depth_duration_MTurk/v2_DepthDuration_HTML.html#111,111,2560,1329,2560,1440,8-20-2022,11-14-33,80,depth_duration_stimuli/001815_2014-06-26_20-52-55_260595134347_rgbf000020-resize_0/001815_2014-06-26_20-52-55_260595134347_rgbf000020-resize_0-target.png,250,3.3865,6,2398,245,meters,jsons/v1_VE250_randls_20.json,588060,771308,41,Man
80,219566,DepthScenes,duration_manipulation_targetAtFixation,jsons/v1_VE250_randls_20.json,http://54.235.29.9/FacialAge/BNav_EC2/DepthDuration/v2_depth_duration_MTurk/v2_DepthDuration_HTML.html#111,111,2560,1329,2560,1440,8-20-2022,11-14-33,81,depth_duration_stimuli/001029_2014-06-08_13-17-57_260595134347_rgbf000065-resize_1/001029_2014-06-08_13-17-57_260595134347_rgbf000065-resize_1-target.png,250,3.0835,3,2508,253,meters,jsons/v1_VE250_randls_20.json,588060,771308,41,Man
81,219566,DepthScenes,duration_manipulation_targetAtFixation,jsons/v1_VE250_randls_20.json,http://54.235.29.9/FacialAge/BNav_EC2/DepthDuration/v2_depth_duration_MTurk/v2_DepthDuration_HTML.html#111,111,2560,1329,2560,1440,8-20-2022,11-14-33,82,depth_duration_stimuli/000677_2014-06-08_23-10-32_260595134347_rgbf000158-resize_6/000677_2014-06-08_23-10-32_260595134347_rgbf000158-resize_6-target.png,250,3.556,3,2725,255,meters,jsons/v1_VE250_randls_20.json,588060,771308,41,Man
82,219566,DepthScenes,duration_manipulation_targetAtFixation,jsons/v1_VE250_randls_20.json,http://54.235.29.9/FacialAge/BNav_EC2/DepthDuration/v2_depth_duration_MTurk/v2_DepthDuration_HTML.html#111,111,2560,1329,2560,1440,8-20-2022,11-14-33,83,depth_duration_stimuli/002788_2014-06-22_19-36-03_094959634447_rgbf000088-resize_2/002788_2014-06-22_19-36-03_094959634447_rgbf000088-resize_2-target.png,250,1.6465,4,2619,249,meters,jsons/v1_VE250_randls_20.json,588060,771308,41,Man
83,219566,DepthScenes,duration_manipulation_targetAtFixation,jsons/v1_VE250_randls_20.json,http://54.235.29.9/FacialAge/BNav_EC2/DepthDuration/v2_depth_duration_MTurk/v2_DepthDuration_HTML.html#111,111,2560,1329,2560,1440,8-20-2022,11-14-33,84,depth_duration_stimuli/000749_2014-06-08_21-55-06_260595134347_rgbf000070-resize_2/000749_2014-06-08_21-55-06_260595134347_rgbf000070-resize_2-target.png,250,2.331,3,2231,255,meters,jsons/v1_VE250_randls_20.json,588060,771308,41,Man
84,219566,DepthScenes,duration_manipulation_targetAtFixation,jsons/v1_VE250_randls_20.json,http://54.235.29.9/FacialAge/BNav_EC2/DepthDuration/v2_depth_duration_MTurk/v2_DepthDuration_HTML.html#111,111,2560,1329,2560,1440,8-20-2022,11-14-33,85,depth_duration_stimuli/001066_2014-06-08_22-03-20_260595134347_rgbf000066-resize_4/001066_2014-06-08_22-03-20_260595134347_rgbf000066-resize_4-target.png,250,4.2330000000000005,5,2334,238,meters,jsons/v1_VE250_randls_20.json,588060,771308,41,Man
85,219566,DepthScenes,duration_manipulation_targetAtFixation,jsons/v1_VE250_randls_20.json,http://54.235.29.9/FacialAge/BNav_EC2/DepthDuration/v2_depth_duration_MTurk/v2_DepthDuration_HTML.html#111,111,2560,1329,2560,1440,8-20-2022,11-14-33,86,depth_duration_stimuli/000742_2014-06-08_18-48-09_260595134347_rgbf000164-resize_4/000742_2014-06-08_18-48-09_260595134347_rgbf000164-resize_4-target.png,250,4.632,4,3432,241,meters,jsons/v1_VE250_randls_20.json,588060,771308,41,Man
86,219566,DepthScenes,duration_manipulation_targetAtFixation,jsons/v1_VE250_randls_20.json,http://54.235.29.9/FacialAge/BNav_EC2/DepthDuration/v2_depth_duration_MTurk/v2_DepthDuration_HTML.html#111,111,2560,1329,2560,1440,8-20-2022,11-14-33,87,depth_duration_stimuli/002964_2014-06-08_17-46-11_094959634447_rgbf000091-resize_4/002964_2014-06-08_17-46-11_094959634447_rgbf000091-resize_4-target.png,250,1.6909999999999998,2,3168,256,meters,jsons/v1_VE250_randls_20.json,588060,771308,41,Man
87,219566,DepthScenes,duration_manipulation_targetAtFixation,jsons/v1_VE250_randls_20.json,http://54.235.29.9/FacialAge/BNav_EC2/DepthDuration/v2_depth_duration_MTurk/v2_DepthDuration_HTML.html#111,111,2560,1329,2560,1440,8-20-2022,11-14-33,88,depth_duration_stimuli/002136_2014-06-25_21-18-03_260595134347_rgbf000109-resize_3/002136_2014-06-25_21-18-03_260595134347_rgbf000109-resize_3-target.png,250,1.9569999999999999,2,2336,252,meters,jsons/v1_VE250_randls_20.json,588060,771308,41,Man
88,219566,DepthScenes,duration_manipulation_targetAtFixation,jsons/v1_VE250_randls_20.json,http://54.235.29.9/FacialAge/BNav_EC2/DepthDuration/v2_depth_duration_MTurk/v2_DepthDuration_HTML.html#111,111,2560,1329,2560,1440,8-20-2022,11-14-33,89,depth_duration_stimuli/000414_2014-06-04_19-49-13_260595134347_rgbf000044-resize_0/000414_2014-06-04_19-49-13_260595134347_rgbf000044-resize_0-target.png,250,4.329,5,3271,240,meters,jsons/v1_VE250_randls_20.json,588060,771308,41,Man
89,219566,DepthScenes,duration_manipulation_targetAtFixation,jsons/v1_VE250_randls_20.json,http://54.235.29.9/FacialAge/BNav_EC2/DepthDuration/v2_depth_duration_MTurk/v2_DepthDuration_HTML.html#111,111,2560,1329,2560,1440,8-20-2022,11-14-33,90,depth_duration_stimuli/003129_2014-05-12_10-48-10_094959634447_rgbf000100-resize_0/003129_2014-05-12_10-48-10_094959634447_rgbf000100-resize_0-target.png,250,4.9305,6,2768,237,meters,jsons/v1_VE250_randls_20.json,588060,771308,41,Man
90,219566,DepthScenes,duration_manipulation_targetAtFixation,jsons/v1_VE250_randls_20.json,http://54.235.29.9/FacialAge/BNav_EC2/DepthDuration/v2_depth_duration_MTurk/v2_DepthDuration_HTML.html#111,111,2560,1329,2560,1440,8-20-2022,11-14-33,91,depth_duration_stimuli/000486_2014-06-09_20-47-20_260595134347_rgbf000143-resize_2/000486_2014-06-09_20-47-20_260595134347_rgbf000143-resize_2-target.png,250,4.8325,5,2439,247,meters,jsons/v1_VE250_randls_20.json,588060,771308,41,Man
91,219566,DepthScenes,duration_manipulation_targetAtFixation,jsons/v1_VE250_randls_20.json,http://54.235.29.9/FacialAge/BNav_EC2/DepthDuration/v2_depth_duration_MTurk/v2_DepthDuration_HTML.html#111,111,2560,1329,2560,1440,8-20-2022,11-14-33,92,depth_duration_stimuli/003083_2014-06-15_15-21-03_094959634447_rgbf000063-resize_1/003083_2014-06-15_15-21-03_094959634447_rgbf000063-resize_1-target.png,250,4.1405,7,3069,239,meters,jsons/v1_VE250_randls_20.json,588060,771308,41,Man
92,219566,DepthScenes,duration_manipulation_targetAtFixation,jsons/v1_VE250_randls_20.json,http://54.235.29.9/FacialAge/BNav_EC2/DepthDuration/v2_depth_duration_MTurk/v2_DepthDuration_HTML.html#111,111,2560,1329,2560,1440,8-20-2022,11-14-33,93,depth_duration_stimuli/000773_2014-06-08_22-24-54_260595134347_rgbf000093-resize_1/000773_2014-06-08_22-24-54_260595134347_rgbf000093-resize_1-target.png,250,4.973,5,2256,250,meters,jsons/v1_VE250_randls_20.json,588060,771308,41,Man
93,219566,DepthScenes,duration_manipulation_targetAtFixation,jsons/v1_VE250_randls_20.json,http://54.235.29.9/FacialAge/BNav_EC2/DepthDuration/v2_depth_duration_MTurk/v2_DepthDuration_HTML.html#111,111,2560,1329,2560,1440,8-20-2022,11-14-33,94,depth_duration_stimuli/002414_2014-06-28_20-24-58_260595134347_rgbf000067-resize_4/002414_2014-06-28_20-24-58_260595134347_rgbf000067-resize_4-target.png,250,4.363,5,2116,244,meters,jsons/v1_VE250_randls_20.json,588060,771308,41,Man
94,219566,DepthScenes,duration_manipulation_targetAtFixation,jsons/v1_VE250_randls_20.json,http://54.235.29.9/FacialAge/BNav_EC2/DepthDuration/v2_depth_duration_MTurk/v2_DepthDuration_HTML.html#111,111,2560,1329,2560,1440,8-20-2022,11-14-33,95,depth_duration_stimuli/000906_2014-06-08_13-35-43_260595134347_rgbf000155-resize_1/000906_2014-06-08_13-35-43_260595134347_rgbf000155-resize_1-target.png,250,2.8489999999999998,6,2428,256,meters,jsons/v1_VE250_randls_20.json,588060,771308,41,Man
95,219566,DepthScenes,duration_manipulation_targetAtFixation,jsons/v1_VE250_randls_20.json,http://54.235.29.9/FacialAge/BNav_EC2/DepthDuration/v2_depth_duration_MTurk/v2_DepthDuration_HTML.html#111,111,2560,1329,2560,1440,8-20-2022,11-14-33,96,depth_duration_stimuli/002805_2014-06-22_19-54-03_094959634447_rgbf000079-resize_1/002805_2014-06-22_19-54-03_094959634447_rgbf000079-resize_1-target.png,250,3.1439999999999997,6,2451,255,meters,jsons/v1_VE250_randls_20.json,588060,771308,41,Man
96,219566,DepthScenes,duration_manipulation_targetAtFixation,jsons/v1_VE250_randls_20.json,http://54.235.29.9/FacialAge/BNav_EC2/DepthDuration/v2_depth_duration_MTurk/v2_DepthDuration_HTML.html#111,111,2560,1329,2560,1440,8-20-2022,11-14-33,97,depth_duration_stimuli/000470_2014-06-09_19-42-40_260595134347_rgbf000094-resize_1/000470_2014-06-09_19-42-40_260595134347_rgbf000094-resize_1-target.png,250,1.831,2,2888,250,meters,jsons/v1_VE250_randls_20.json,588060,771308,41,Man
97,219566,DepthScenes,duration_manipulation_targetAtFixation,jsons/v1_VE250_randls_20.json,http://54.235.29.9/FacialAge/BNav_EC2/DepthDuration/v2_depth_duration_MTurk/v2_DepthDuration_HTML.html#111,111,2560,1329,2560,1440,8-20-2022,11-14-33,98,depth_duration_stimuli/000109_2014-05-14_23-41-52_260595134347_rgbf000035-resize_9/000109_2014-05-14_23-41-52_260595134347_rgbf000035-resize_9-target.png,250,1.3545,2,2068,256,meters,jsons/v1_VE250_randls_20.json,588060,771308,41,Man
98,219566,DepthScenes,duration_manipulation_targetAtFixation,jsons/v1_VE250_randls_20.json,http://54.235.29.9/FacialAge/BNav_EC2/DepthDuration/v2_depth_duration_MTurk/v2_DepthDuration_HTML.html#111,111,2560,1329,2560,1440,8-20-2022,11-14-33,99,depth_duration_stimuli/001540_2014-06-20_17-01-05_260595134347_rgbf000086-resize_2/001540_2014-06-20_17-01-05_260595134347_rgbf000086-resize-original.jpg,250,1.459,0,5112,240,meters,jsons/v1_VE250_randls_20.json,588060,771308,41,Man
99,219566,DepthScenes,duration_manipulation_targetAtFixation,jsons/v1_VE250_randls_20.json,http://54.235.29.9/FacialAge/BNav_EC2/DepthDuration/v2_depth_duration_MTurk/v2_DepthDuration_HTML.html#111,111,2560,1329,2560,1440,8-20-2022,11-14-33,100,depth_duration_stimuli/001110_2014-06-15_17-25-28_260595134347_rgbf000150-resize_1/001110_2014-06-15_17-25-28_260595134347_rgbf000150-resize_1-target.png,250,1.7115,2,2587,256,meters,jsons/v1_VE250_randls_20.json,588060,771308,41,Man
100,219566,DepthScenes,duration_manipulation_targetAtFixation,jsons/v1_VE250_randls_20.json,http://54.235.29.9/FacialAge/BNav_EC2/DepthDuration/v2_depth_duration_MTurk/v2_DepthDuration_HTML.html#111,111,2560,1329,2560,1440,8-20-2022,11-14-33,101,depth_duration_stimuli/000927_2014-06-09_16-32-30_260595134347_rgbf000123-resize_3/000927_2014-06-09_16-32-30_260595134347_rgbf000123-resize_3-target.png,250,2.6785,4,2781,255,meters,jsons/v1_VE250_randls_20.json,588060,771308,41,Man
101,219566,DepthScenes,duration_manipulation_targetAtFixation,jsons/v1_VE250_randls_20.json,http://54.235.29.9/FacialAge/BNav_EC2/DepthDuration/v2_depth_duration_MTurk/v2_DepthDuration_HTML.html#111,111,2560,1329,2560,1440,8-20-2022,11-14-33,102,depth_duration_stimuli/000878_2014-06-08_22-52-45_260595134347_rgbf000045-resize_2/000878_2014-06-08_22-52-45_260595134347_rgbf000045-resize_2-target.png,250,2.092,4,2288,240,meters,jsons/v1_VE250_randls_20.json,588060,771308,41,Man
102,219566,DepthScenes,duration_manipulation_targetAtFixation,jsons/v1_VE250_randls_20.json,http://54.235.29.9/FacialAge/BNav_EC2/DepthDuration/v2_depth_duration_MTurk/v2_DepthDuration_HTML.html#111,111,2560,1329,2560,1440,8-20-2022,11-14-33,103,depth_duration_stimuli/002953_2014-06-08_17-32-18_094959634447_rgbf000059-resize_5/002953_2014-06-08_17-32-18_094959634447_rgbf000059-resize_5-target.png,250,1.551,1,2309,256,meters,jsons/v1_VE250_randls_20.json,588060,771308,41,Man
103,219566,DepthScenes,duration_manipulation_targetAtFixation,jsons/v1_VE250_randls_20.json,http://54.235.29.9/FacialAge/BNav_EC2/DepthDuration/v2_depth_duration_MTurk/v2_DepthDuration_HTML.html#111,111,2560,1329,2560,1440,8-20-2022,11-14-33,104,depth_duration_stimuli/001150_2014-06-17_15-27-34_260595134347_rgbf000108-resize_2/001150_2014-06-17_15-27-34_260595134347_rgbf000108-resize_2-target.png,250,4.0325,3,3152,249,meters,jsons/v1_VE250_randls_20.json,588060,771308,41,Man
104,219566,DepthScenes,duration_manipulation_targetAtFixation,jsons/v1_VE250_randls_20.json,http://54.235.29.9/FacialAge/BNav_EC2/DepthDuration/v2_depth_duration_MTurk/v2_DepthDuration_HTML.html#111,111,2560,1329,2560,1440,8-20-2022,11-14-33,105,depth_duration_stimuli/000665_2014-06-09_20-42-35_260595134347_rgbf000110-resize_1/000665_2014-06-09_20-42-35_260595134347_rgbf000110-resize_1-target.png,250,3.057,4,2571,254,meters,jsons/v1_VE250_randls_20.json,588060,771308,41,Man
105,219566,DepthScenes,duration_manipulation_targetAtFixation,jsons/v1_VE250_randls_20.json,http://54.235.29.9/FacialAge/BNav_EC2/DepthDuration/v2_depth_duration_MTurk/v2_DepthDuration_HTML.html#111,111,2560,1329,2560,1440,8-20-2022,11-14-33,106,depth_duration_stimuli/002763_2014-06-22_19-13-10_094959634447_rgbf000075-resize_4/002763_2014-06-22_19-13-10_094959634447_rgbf000075-resize_4-target.png,250,1.68375,2,2157,255,meters,jsons/v1_VE250_randls_20.json,588060,771308,41,Man
106,219566,DepthScenes,duration_manipulation_targetAtFixation,jsons/v1_VE250_randls_20.json,http://54.235.29.9/FacialAge/BNav_EC2/DepthDuration/v2_depth_duration_MTurk/v2_DepthDuration_HTML.html#111,111,2560,1329,2560,1440,8-20-2022,11-14-33,107,depth_duration_stimuli/002209_2014-06-28_18-36-10_260595134347_rgbf000051-resize_1/002209_2014-06-28_18-36-10_260595134347_rgbf000051-resize_1-target.png,250,2.057,2,2067,239,meters,jsons/v1_VE250_randls_20.json,588060,771308,41,Man
107,219566,DepthScenes,duration_manipulation_targetAtFixation,jsons/v1_VE250_randls_20.json,http://54.235.29.9/FacialAge/BNav_EC2/DepthDuration/v2_depth_duration_MTurk/v2_DepthDuration_HTML.html#111,111,2560,1329,2560,1440,8-20-2022,11-14-33,108,depth_duration_stimuli/003492_2014-05-21_15-50-55_094959634447_rgbf000828-resize_1/003492_2014-05-21_15-50-55_094959634447_rgbf000828-resize_1-target.png,250,4.06875,5,3672,250,meters,jsons/v1_VE250_randls_20.json,588060,771308,41,Man
108,219566,DepthScenes,duration_manipulation_targetAtFixation,jsons/v1_VE250_randls_20.json,http://54.235.29.9/FacialAge/BNav_EC2/DepthDuration/v2_depth_duration_MTurk/v2_DepthDuration_HTML.html#111,111,2560,1329,2560,1440,8-20-2022,11-14-33,109,depth_duration_stimuli/002568_2014-06-24_13-59-21_094959634447_rgbf000062-resize_4/002568_2014-06-24_13-59-21_094959634447_rgbf000062-resize_4-target.png,250,3.015,5,2074,254,meters,jsons/v1_VE250_randls_20.json,588060,771308,41,Man
109,219566,DepthScenes,duration_manipulation_targetAtFixation,jsons/v1_VE250_randls_20.json,http://54.235.29.9/FacialAge/BNav_EC2/DepthDuration/v2_depth_duration_MTurk/v2_DepthDuration_HTML.html#111,111,2560,1329,2560,1440,8-20-2022,11-14-33,110,depth_duration_stimuli/002663_2014-06-13_15-50-26_094959634447_rgbf000075-resize_1/002663_2014-06-13_15-50-26_094959634447_rgbf000075-resize_1-target.png,250,4.7495,4,2576,239,meters,jsons/v1_VE250_randls_20.json,588060,771308,41,Man
110,219566,DepthScenes,duration_manipulation_targetAtFixation,jsons/v1_VE250_randls_20.json,http://54.235.29.9/FacialAge/BNav_EC2/DepthDuration/v2_depth_duration_MTurk/v2_DepthDuration_HTML.html#111,111,2560,1329,2560,1440,8-20-2022,11-14-33,111,depth_duration_stimuli/000409_2014-06-04_19-23-33_260595134347_rgbf000067-resize_0/000409_2014-06-04_19-23-33_260595134347_rgbf000067-resize_0-target.png,250,3.7335,6,2799,235,meters,jsons/v1_VE250_randls_20.json,588060,771308,41,Man
111,219566,DepthScenes,duration_manipulation_targetAtFixation,jsons/v1_VE250_randls_20.json,http://54.235.29.9/FacialAge/BNav_EC2/DepthDuration/v2_depth_duration_MTurk/v2_DepthDuration_HTML.html#111,111,2560,1329,2560,1440,8-20-2022,11-14-33,112,depth_duration_stimuli/003292_2014-05-14_21-53-49_094959634447_rgbf000100-resize_2/003292_2014-05-14_21-53-49_094959634447_rgbf000100-resize_2-target.png,250,3.4815,5,2064,248,meters,jsons/v1_VE250_randls_20.json,588060,771308,41,Man
112,219566,DepthScenes,duration_manipulation_targetAtFixation,jsons/v1_VE250_randls_20.json,http://54.235.29.9/FacialAge/BNav_EC2/DepthDuration/v2_depth_duration_MTurk/v2_DepthDuration_HTML.html#111,111,2560,1329,2560,1440,8-20-2022,11-14-33,113,depth_duration_stimuli/002639_2014-06-24_14-51-37_094959634447_rgbf000074-resize_4/002639_2014-06-24_14-51-37_094959634447_rgbf000074-resize_4-target.png,250,4.0375,6,2324,254,meters,jsons/v1_VE250_randls_20.json,588060,771308,41,Man
113,219566,DepthScenes,duration_manipulation_targetAtFixation,jsons/v1_VE250_randls_20.json,http://54.235.29.9/FacialAge/BNav_EC2/DepthDuration/v2_depth_duration_MTurk/v2_DepthDuration_HTML.html#111,111,2560,1329,2560,1440,8-20-2022,11-14-33,114,depth_duration_stimuli/000929_2014-06-09_16-33-19_260595134347_rgbf000139-resize_0/000929_2014-06-09_16-33-19_260595134347_rgbf000139-resize_0-target.png,250,2.8680000000000003,4,3248,251,meters,jsons/v1_VE250_randls_20.json,588060,771308,41,Man
114,219566,DepthScenes,duration_manipulation_targetAtFixation,jsons/v1_VE250_randls_20.json,http://54.235.29.9/FacialAge/BNav_EC2/DepthDuration/v2_depth_duration_MTurk/v2_DepthDuration_HTML.html#111,111,2560,1329,2560,1440,8-20-2022,11-14-33,115,depth_duration_stimuli/000457_2014-06-08_16-52-43_260595134347_rgbf000199-resize_1/000457_2014-06-08_16-52-43_260595134347_rgbf000199-resize_1-target.png,250,3.6489999999999996,4,2142,253,meters,jsons/v1_VE250_randls_20.json,588060,771308,41,Man
115,219566,DepthScenes,duration_manipulation_targetAtFixation,jsons/v1_VE250_randls_20.json,http://54.235.29.9/FacialAge/BNav_EC2/DepthDuration/v2_depth_duration_MTurk/v2_DepthDuration_HTML.html#111,111,2560,1329,2560,1440,8-20-2022,11-14-33,116,depth_duration_stimuli/001170_2014-06-17_15-43-44_260595134347_rgbf000096-resize_6/001170_2014-06-17_15-43-44_260595134347_rgbf000096-resize-original.jpg,250,1.1909999999999998,0,4184,256,meters,jsons/v1_VE250_randls_20.json,588060,771308,41,Man
116,219566,DepthScenes,duration_manipulation_targetAtFixation,jsons/v1_VE250_randls_20.json,http://54.235.29.9/FacialAge/BNav_EC2/DepthDuration/v2_depth_duration_MTurk/v2_DepthDuration_HTML.html#111,111,2560,1329,2560,1440,8-20-2022,11-14-33,117,depth_duration_stimuli/000436_2014-06-09_22-25-11_260595134347_rgbf000137-resize_1/000436_2014-06-09_22-25-11_260595134347_rgbf000137-resize_1-target.png,250,4.0705,6,2666,255,meters,jsons/v1_VE250_randls_20.json,588060,771308,41,Man
117,219566,DepthScenes,duration_manipulation_targetAtFixation,jsons/v1_VE250_randls_20.json,http://54.235.29.9/FacialAge/BNav_EC2/DepthDuration/v2_depth_duration_MTurk/v2_DepthDuration_HTML.html#111,111,2560,1329,2560,1440,8-20-2022,11-14-33,118,depth_duration_stimuli/002444_2014-06-28_20-32-08_260595134347_rgbf000027-resize_0/002444_2014-06-28_20-32-08_260595134347_rgbf000027-resize_0-target.png,250,4.388999999999999,5,2313,254,meters,jsons/v1_VE250_randls_20.json,588060,771308,41,Man
118,219566,DepthScenes,duration_manipulation_targetAtFixation,jsons/v1_VE250_randls_20.json,http://54.235.29.9/FacialAge/BNav_EC2/DepthDuration/v2_depth_duration_MTurk/v2_DepthDuration_HTML.html#111,111,2560,1329,2560,1440,8-20-2022,11-14-33,119,depth_duration_stimuli/001244_2014-06-17_16-47-45_260595134347_rgbf000030-resize_4/001244_2014-06-17_16-47-45_260595134347_rgbf000030-resize_4-target.png,250,2.0425,3,2216,239,meters,jsons/v1_VE250_randls_20.json,588060,771308,41,Man
119,219566,DepthScenes,duration_manipulation_targetAtFixation,jsons/v1_VE250_randls_20.json,http://54.235.29.9/FacialAge/BNav_EC2/DepthDuration/v2_depth_duration_MTurk/v2_DepthDuration_HTML.html#111,111,2560,1329,2560,1440,8-20-2022,11-14-33,120,depth_duration_stimuli/003495_2014-05-21_16-01-51_094959634447_rgbf000100-resize_3/003495_2014-05-21_16-01-51_094959634447_rgbf000100-resize_3-target.png,250,1.6255,2,2625,256,meters,jsons/v1_VE250_randls_20.json,588060,771308,41,Man
120,219566,DepthScenes,duration_manipulation_targetAtFixation,jsons/v1_VE250_randls_20.json,http://54.235.29.9/FacialAge/BNav_EC2/DepthDuration/v2_depth_duration_MTurk/v2_DepthDuration_HTML.html#111,111,2560,1329,2560,1440,8-20-2022,11-14-33,121,depth_duration_stimuli/002905_2014-06-03_18-04-43_094959634447_rgbf000151-resize_2/002905_2014-06-03_18-04-43_094959634447_rgbf000151-resize_2-target.png,250,2.0295,3,5822,254,meters,jsons/v1_VE250_randls_20.json,588060,771308,41,Man
121,219566,DepthScenes,duration_manipulation_targetAtFixation,jsons/v1_VE250_randls_20.json,http://54.235.29.9/FacialAge/BNav_EC2/DepthDuration/v2_depth_duration_MTurk/v2_DepthDuration_HTML.html#111,111,2560,1329,2560,1440,8-20-2022,11-14-33,122,depth_duration_stimuli/003423_2014-05-21_10-23-26_094959634447_rgbf002665-resize_2/003423_2014-05-21_10-23-26_094959634447_rgbf002665-resize_2-target.png,250,3.2575,6,3470,253,meters,jsons/v1_VE250_randls_20.json,588060,771308,41,Man
122,219566,DepthScenes,duration_manipulation_targetAtFixation,jsons/v1_VE250_randls_20.json,http://54.235.29.9/FacialAge/BNav_EC2/DepthDuration/v2_depth_duration_MTurk/v2_DepthDuration_HTML.html#111,111,2560,1329,2560,1440,8-20-2022,11-14-33,123,depth_duration_stimuli/001133_2014-06-17_14-49-16_260595134347_rgbf000100-resize_0/001133_2014-06-17_14-49-16_260595134347_rgbf000100-resize_0-target.png,250,4.2115,4,3524,255,meters,jsons/v1_VE250_randls_20.json,588060,771308,41,Man
123,219566,DepthScenes,duration_manipulation_targetAtFixation,jsons/v1_VE250_randls_20.json,http://54.235.29.9/FacialAge/BNav_EC2/DepthDuration/v2_depth_duration_MTurk/v2_DepthDuration_HTML.html#111,111,2560,1329,2560,1440,8-20-2022,11-14-33,124,depth_duration_stimuli/001132_2014-06-17_14-48-54_260595134347_rgbf000100-resize_2/001132_2014-06-17_14-48-54_260595134347_rgbf000100-resize_2-target.png,250,3.753,5,2296,240,meters,jsons/v1_VE250_randls_20.json,588060,771308,41,Man
124,219566,DepthScenes,duration_manipulation_targetAtFixation,jsons/v1_VE250_randls_20.json,http://54.235.29.9/FacialAge/BNav_EC2/DepthDuration/v2_depth_duration_MTurk/v2_DepthDuration_HTML.html#111,111,2560,1329,2560,1440,8-20-2022,11-14-33,125,depth_duration_stimuli/000758_2014-06-08_22-05-08_260595134347_rgbf000085-resize_0/000758_2014-06-08_22-05-08_260595134347_rgbf000085-resize_0-target.png,250,3.3810000000000002,5,2252,241,meters,jsons/v1_VE250_randls_20.json,588060,771308,41,Man
125,219566,DepthScenes,duration_manipulation_targetAtFixation,jsons/v1_VE250_randls_20.json,http://54.235.29.9/FacialAge/BNav_EC2/DepthDuration/v2_depth_duration_MTurk/v2_DepthDuration_HTML.html#111,111,2560,1329,2560,1440,8-20-2022,11-14-33,126,depth_duration_stimuli/000854_2014-06-09_19-43-13_260595134347_rgbf000066-resize_0/000854_2014-06-09_19-43-13_260595134347_rgbf000066-resize_0-target.png,250,3.068,3,2282,259,meters,jsons/v1_VE250_randls_20.json,588060,771308,41,Man
126,219566,DepthScenes,duration_manipulation_targetAtFixation,jsons/v1_VE250_randls_20.json,http://54.235.29.9/FacialAge/BNav_EC2/DepthDuration/v2_depth_duration_MTurk/v2_DepthDuration_HTML.html#111,111,2560,1329,2560,1440,8-20-2022,11-14-33,127,depth_duration_stimuli/001016_2014-06-09_16-16-10_260595134347_rgbf000112-resize_5/001016_2014-06-09_16-16-10_260595134347_rgbf000112-resize_5-target.png,250,1.6565,3,4573,239,meters,jsons/v1_VE250_randls_20.json,588060,771308,41,Man
127,219566,DepthScenes,duration_manipulation_targetAtFixation,jsons/v1_VE250_randls_20.json,http://54.235.29.9/FacialAge/BNav_EC2/DepthDuration/v2_depth_duration_MTurk/v2_DepthDuration_HTML.html#111,111,2560,1329,2560,1440,8-20-2022,11-14-33,128,depth_duration_stimuli/002340_2014-06-28_20-05-46_260595134347_rgbf000113-resize_0/002340_2014-06-28_20-05-46_260595134347_rgbf000113-resize_0-target.png,250,2.4735,4,3065,238,meters,jsons/v1_VE250_randls_20.json,588060,771308,41,Man
128,219566,DepthScenes,duration_manipulation_targetAtFixation,jsons/v1_VE250_randls_20.json,http://54.235.29.9/FacialAge/BNav_EC2/DepthDuration/v2_depth_duration_MTurk/v2_DepthDuration_HTML.html#111,111,2560,1329,2560,1440,8-20-2022,11-14-33,129,depth_duration_stimuli/002445_2014-06-28_20-32-16_260595134347_rgbf000029-resize_4/002445_2014-06-28_20-32-16_260595134347_rgbf000029-resize_4-target.png,250,2.5315,3,3340,240,meters,jsons/v1_VE250_randls_20.json,588060,771308,41,Man
129,219566,DepthScenes,duration_manipulation_targetAtFixation,jsons/v1_VE250_randls_20.json,http://54.235.29.9/FacialAge/BNav_EC2/DepthDuration/v2_depth_duration_MTurk/v2_DepthDuration_HTML.html#111,111,2560,1329,2560,1440,8-20-2022,11-14-33,130,depth_duration_stimuli/000780_2014-06-08_22-28-29_260595134347_rgbf000126-resize_1/000780_2014-06-08_22-28-29_260595134347_rgbf000126-resize_1-target.png,250,3.3825,5,2961,250,meters,jsons/v1_VE250_randls_20.json,588060,771308,41,Man
130,219566,DepthScenes,duration_manipulation_targetAtFixation,jsons/v1_VE250_randls_20.json,http://54.235.29.9/FacialAge/BNav_EC2/DepthDuration/v2_depth_duration_MTurk/v2_DepthDuration_HTML.html#111,111,2560,1329,2560,1440,8-20-2022,11-14-33,131,depth_duration_stimuli/002509_2014-06-24_13-19-22_094959634447_rgbf000077-resize_0/002509_2014-06-24_13-19-22_094959634447_rgbf000077-resize_0-target.png,250,1.3065,2,3027,255,meters,jsons/v1_VE250_randls_20.json,588060,771308,41,Man
131,219566,DepthScenes,duration_manipulation_targetAtFixation,jsons/v1_VE250_randls_20.json,http://54.235.29.9/FacialAge/BNav_EC2/DepthDuration/v2_depth_duration_MTurk/v2_DepthDuration_HTML.html#111,111,2560,1329,2560,1440,8-20-2022,11-14-33,132,depth_duration_stimuli/003338_2014-05-20_11-01-23_094959634447_rgbf000051-resize_6/003338_2014-05-20_11-01-23_094959634447_rgbf000051-resize_6-target.png,250,1.693,2,2315,265,meters,jsons/v1_VE250_randls_20.json,588060,771308,41,Man
132,219566,DepthScenes,duration_manipulation_targetAtFixation,jsons/v1_VE250_randls_20.json,http://54.235.29.9/FacialAge/BNav_EC2/DepthDuration/v2_depth_duration_MTurk/v2_DepthDuration_HTML.html#111,111,2560,1329,2560,1440,8-20-2022,11-14-33,133,depth_duration_stimuli/002272_2014-06-28_18-53-56_260595134347_rgbf000067-resize_2/002272_2014-06-28_18-53-56_260595134347_rgbf000067-resize_2-target.png,250,1.138,2,2170,254,meters,jsons/v1_VE250_randls_20.json,588060,771308,41,Man
133,219566,DepthScenes,duration_manipulation_targetAtFixation,jsons/v1_VE250_randls_20.json,http://54.235.29.9/FacialAge/BNav_EC2/DepthDuration/v2_depth_duration_MTurk/v2_DepthDuration_HTML.html#111,111,2560,1329,2560,1440,8-20-2022,11-14-33,134,depth_duration_stimuli/001571_2014-06-20_17-21-32_260595134347_rgbf000089-resize_1/001571_2014-06-20_17-21-32_260595134347_rgbf000089-resize_1-target.png,250,1.86,2,2013,256,meters,jsons/v1_VE250_randls_20.json,588060,771308,41,Man
134,219566,DepthScenes,duration_manipulation_targetAtFixation,jsons/v1_VE250_randls_20.json,http://54.235.29.9/FacialAge/BNav_EC2/DepthDuration/v2_depth_duration_MTurk/v2_DepthDuration_HTML.html#111,111,2560,1329,2560,1440,8-20-2022,11-14-33,135,depth_duration_stimuli/002072_2014-06-24_21-48-06_260595134347_rgbf000115-resize_0/002072_2014-06-24_21-48-06_260595134347_rgbf000115-resize-original.jpg,250,4.702,0,4420,255,meters,jsons/v1_VE250_randls_20.json,588060,771308,41,Man
135,219566,DepthScenes,duration_manipulation_targetAtFixation,jsons/v1_VE250_randls_20.json,http://54.235.29.9/FacialAge/BNav_EC2/DepthDuration/v2_depth_duration_MTurk/v2_DepthDuration_HTML.html#111,111,2560,1329,2560,1440,8-20-2022,11-14-33,136,depth_duration_stimuli/000447_2014-06-08_16-15-46_260595134347_rgbf000130-resize_1/000447_2014-06-08_16-15-46_260595134347_rgbf000130-resize_1-target.png,250,4.479,6,2347,236,meters,jsons/v1_VE250_randls_20.json,588060,771308,41,Man
136,219566,DepthScenes,duration_manipulation_targetAtFixation,jsons/v1_VE250_randls_20.json,http://54.235.29.9/FacialAge/BNav_EC2/DepthDuration/v2_depth_duration_MTurk/v2_DepthDuration_HTML.html#111,111,2560,1329,2560,1440,8-20-2022,11-14-33,137,depth_duration_stimuli/001447_2014-06-19_17-00-32_260595134347_rgbf000082-resize_5/001447_2014-06-19_17-00-32_260595134347_rgbf000082-resize_5-target.png,250,4.13775,5,2084,252,meters,jsons/v1_VE250_randls_20.json,588060,771308,41,Man
137,219566,DepthScenes,duration_manipulation_targetAtFixation,jsons/v1_VE250_randls_20.json,http://54.235.29.9/FacialAge/BNav_EC2/DepthDuration/v2_depth_duration_MTurk/v2_DepthDuration_HTML.html#111,111,2560,1329,2560,1440,8-20-2022,11-14-33,138,depth_duration_stimuli/000009_2014-05-26_14-32-05_260595134347_rgbf000034-resize_3/000009_2014-05-26_14-32-05_260595134347_rgbf000034-resize_3-target.png,250,3.8715,8,4386,256,meters,jsons/v1_VE250_randls_20.json,588060,771308,41,Man
138,219566,DepthScenes,duration_manipulation_targetAtFixation,jsons/v1_VE250_randls_20.json,http://54.235.29.9/FacialAge/BNav_EC2/DepthDuration/v2_depth_duration_MTurk/v2_DepthDuration_HTML.html#111,111,2560,1329,2560,1440,8-20-2022,11-14-33,139,depth_duration_stimuli/001828_2014-06-26_21-40-03_260595134347_rgbf000024-resize_0/001828_2014-06-26_21-40-03_260595134347_rgbf000024-resize_0-target.png,250,4.8260000000000005,5,2464,239,meters,jsons/v1_VE250_randls_20.json,588060,771308,41,Man
139,219566,DepthScenes,duration_manipulation_targetAtFixation,jsons/v1_VE250_randls_20.json,http://54.235.29.9/FacialAge/BNav_EC2/DepthDuration/v2_depth_duration_MTurk/v2_DepthDuration_HTML.html#111,111,2560,1329,2560,1440,8-20-2022,11-14-33,140,depth_duration_stimuli/000368_2014-06-09_15-53-01_260595134347_rgbf000155-resize_2/000368_2014-06-09_15-53-01_260595134347_rgbf000155-resize_2-target.png,250,2.4859999999999998,4,2734,255,meters,jsons/v1_VE250_randls_20.json,588060,771308,41,Man
140,219566,DepthScenes,duration_manipulation_targetAtFixation,jsons/v1_VE250_randls_20.json,http://54.235.29.9/FacialAge/BNav_EC2/DepthDuration/v2_depth_duration_MTurk/v2_DepthDuration_HTML.html#111,111,2560,1329,2560,1440,8-20-2022,11-14-33,141,depth_duration_stimuli/002678_2014-06-13_16-15-32_094959634447_rgbf000151-resize_6/002678_2014-06-13_16-15-32_094959634447_rgbf000151-resize_6-target.png,250,2.1830000000000003,4,2276,250,meters,jsons/v1_VE250_randls_20.json,588060,771308,41,Man
141,219566,DepthScenes,duration_manipulation_targetAtFixation,jsons/v1_VE250_randls_20.json,http://54.235.29.9/FacialAge/BNav_EC2/DepthDuration/v2_depth_duration_MTurk/v2_DepthDuration_HTML.html#111,111,2560,1329,2560,1440,8-20-2022,11-14-33,142,depth_duration_stimuli/001175_2014-06-17_15-45-55_260595134347_rgbf000129-resize_4/001175_2014-06-17_15-45-55_260595134347_rgbf000129-resize_4-target.png,250,4.255,8,3928,254,meters,jsons/v1_VE250_randls_20.json,588060,771308,41,Man
142,219566,DepthScenes,duration_manipulation_targetAtFixation,jsons/v1_VE250_randls_20.json,http://54.235.29.9/FacialAge/BNav_EC2/DepthDuration/v2_depth_duration_MTurk/v2_DepthDuration_HTML.html#111,111,2560,1329,2560,1440,8-20-2022,11-14-33,143,depth_duration_stimuli/003490_2014-05-21_15-50-11_094959634447_rgbf000101-resize_3/003490_2014-05-21_15-50-11_094959634447_rgbf000101-resize_3-target.png,250,3.6445,6,2839,245,meters,jsons/v1_VE250_randls_20.json,588060,771308,41,Man
143,219566,DepthScenes,duration_manipulation_targetAtFixation,jsons/v1_VE250_randls_20.json,http://54.235.29.9/FacialAge/BNav_EC2/DepthDuration/v2_depth_duration_MTurk/v2_DepthDuration_HTML.html#111,111,2560,1329,2560,1440,8-20-2022,11-14-33,144,depth_duration_stimuli/001158_2014-06-17_15-32-16_260595134347_rgbf000138-resize_2/001158_2014-06-17_15-32-16_260595134347_rgbf000138-resize_2-target.png,250,4.5315,8,3893,240,meters,jsons/v1_VE250_randls_20.json,588060,771308,41,Man
144,219566,DepthScenes,duration_manipulation_targetAtFixation,jsons/v1_VE250_randls_20.json,http://54.235.29.9/FacialAge/BNav_EC2/DepthDuration/v2_depth_duration_MTurk/v2_DepthDuration_HTML.html#111,111,2560,1329,2560,1440,8-20-2022,11-14-33,145,depth_duration_stimuli/000556_2014-06-09_22-42-56_260595134347_rgbf000214-resize_1/000556_2014-06-09_22-42-56_260595134347_rgbf000214-resize_1-target.png,250,4.8415,5,2489,256,meters,jsons/v1_VE250_randls_20.json,588060,771308,41,Man
145,219566,DepthScenes,duration_manipulation_targetAtFixation,jsons/v1_VE250_randls_20.json,http://54.235.29.9/FacialAge/BNav_EC2/DepthDuration/v2_depth_duration_MTurk/v2_DepthDuration_HTML.html#111,111,2560,1329,2560,1440,8-20-2022,11-14-33,146,depth_duration_stimuli/001498_2014-06-19_17-45-14_260595134347_rgbf000129-resize_4/001498_2014-06-19_17-45-14_260595134347_rgbf000129-resize-original.jpg,250,1.4075,0,4158,239,meters,jsons/v1_VE250_randls_20.json,588060,771308,41,Man
146,219566,DepthScenes,duration_manipulation_targetAtFixation,jsons/v1_VE250_randls_20.json,http://54.235.29.9/FacialAge/BNav_EC2/DepthDuration/v2_depth_duration_MTurk/v2_DepthDuration_HTML.html#111,111,2560,1329,2560,1440,8-20-2022,11-14-33,147,depth_duration_stimuli/002725_2014-06-22_11-47-51_094959634447_rgbf000070-resize_1/002725_2014-06-22_11-47-51_094959634447_rgbf000070-resize_1-target.png,250,2.195,6,3436,240,meters,jsons/v1_VE250_randls_20.json,588060,771308,41,Man
147,219566,DepthScenes,duration_manipulation_targetAtFixation,jsons/v1_VE250_randls_20.json,http://54.235.29.9/FacialAge/BNav_EC2/DepthDuration/v2_depth_duration_MTurk/v2_DepthDuration_HTML.html#111,111,2560,1329,2560,1440,8-20-2022,11-14-33,148,depth_duration_stimuli/002344_2014-06-28_20-06-29_260595134347_rgbf000030-resize_1/002344_2014-06-28_20-06-29_260595134347_rgbf000030-resize_1-target.png,250,1.5795,2,2390,256,meters,jsons/v1_VE250_randls_20.json,588060,771308,41,Man
148,219566,DepthScenes,duration_manipulation_targetAtFixation,jsons/v1_VE250_randls_20.json,http://54.235.29.9/FacialAge/BNav_EC2/DepthDuration/v2_depth_duration_MTurk/v2_DepthDuration_HTML.html#111,111,2560,1329,2560,1440,8-20-2022,11-14-33,149,depth_duration_stimuli/002570_2014-06-24_13-59-54_094959634447_rgbf000059-resize_0/002570_2014-06-24_13-59-54_094959634447_rgbf000059-resize_0-target.png,250,4.037,3,2505,256,meters,jsons/v1_VE250_randls_20.json,588060,771308,41,Man
149,219566,DepthScenes,duration_manipulation_targetAtFixation,jsons/v1_VE250_randls_20.json,http://54.235.29.9/FacialAge/BNav_EC2/DepthDuration/v2_depth_duration_MTurk/v2_DepthDuration_HTML.html#111,111,2560,1329,2560,1440,8-20-2022,11-14-33,150,depth_duration_stimuli/002467_2014-06-28_20-38-07_260595134347_rgbf000026-resize_2/002467_2014-06-28_20-38-07_260595134347_rgbf000026-resize_2-target.png,250,4.742,7,3545,256,meters,jsons/v1_VE250_randls_20.json,588060,771308,41,Man
150,219566,DepthScenes,duration_manipulation_targetAtFixation,jsons/v1_VE250_randls_20.json,http://54.235.29.9/FacialAge/BNav_EC2/DepthDuration/v2_depth_duration_MTurk/v2_DepthDuration_HTML.html#111,111,2560,1329,2560,1440,8-20-2022,11-14-33,151,depth_duration_stimuli/001570_2014-06-20_17-21-09_260595134347_rgbf000135-resize_4/001570_2014-06-20_17-21-09_260595134347_rgbf000135-resize_4-target.png,250,4.467,5,2818,241,meters,jsons/v1_VE250_randls_20.json,588060,771308,41,Man
151,219566,DepthScenes,duration_manipulation_targetAtFixation,jsons/v1_VE250_randls_20.json,http://54.235.29.9/FacialAge/BNav_EC2/DepthDuration/v2_depth_duration_MTurk/v2_DepthDuration_HTML.html#111,111,2560,1329,2560,1440,8-20-2022,11-14-33,152,depth_duration_stimuli/001392_2014-06-19_16-07-59_260595134347_rgbf000046-resize_1/001392_2014-06-19_16-07-59_260595134347_rgbf000046-resize_1-target.png,250,4.135,6,3079,248,meters,jsons/v1_VE250_randls_20.json,588060,771308,41,Man
152,219566,DepthScenes,duration_manipulation_targetAtFixation,jsons/v1_VE250_randls_20.json,http://54.235.29.9/FacialAge/BNav_EC2/DepthDuration/v2_depth_duration_MTurk/v2_DepthDuration_HTML.html#111,111,2560,1329,2560,1440,8-20-2022,11-14-33,153,depth_duration_stimuli/000788_2014-06-08_22-34-36_260595134347_rgbf000131-resize_1/000788_2014-06-08_22-34-36_260595134347_rgbf000131-resize_1-target.png,250,3.359,5,2222,256,meters,jsons/v1_VE250_randls_20.json,588060,771308,41,Man
153,219566,DepthScenes,duration_manipulation_targetAtFixation,jsons/v1_VE250_randls_20.json,http://54.235.29.9/FacialAge/BNav_EC2/DepthDuration/v2_depth_duration_MTurk/v2_DepthDuration_HTML.html#111,111,2560,1329,2560,1440,8-20-2022,11-14-33,154,depth_duration_stimuli/001235_2014-06-17_16-37-36_260595134347_rgbf000084-resize_4/001235_2014-06-17_16-37-36_260595134347_rgbf000084-resize_4-target.png,250,3.6605,5,1965,242,meters,jsons/v1_VE250_randls_20.json,588060,771308,41,Man
154,219566,DepthScenes,duration_manipulation_targetAtFixation,jsons/v1_VE250_randls_20.json,http://54.235.29.9/FacialAge/BNav_EC2/DepthDuration/v2_depth_duration_MTurk/v2_DepthDuration_HTML.html#111,111,2560,1329,2560,1440,8-20-2022,11-14-33,155,depth_duration_stimuli/001417_2014-06-19_16-25-36_260595134347_rgbf000115-resize_5/001417_2014-06-19_16-25-36_260595134347_rgbf000115-resize_5-target.png,250,4.6255,5,1900,256,meters,jsons/v1_VE250_randls_20.json,588060,771308,41,Man
155,219566,DepthScenes,duration_manipulation_targetAtFixation,jsons/v1_VE250_randls_20.json,http://54.235.29.9/FacialAge/BNav_EC2/DepthDuration/v2_depth_duration_MTurk/v2_DepthDuration_HTML.html#111,111,2560,1329,2560,1440,8-20-2022,11-14-33,156,depth_duration_stimuli/003081_2014-06-15_15-19-16_094959634447_rgbf000150-resize_1/003081_2014-06-15_15-19-16_094959634447_rgbf000150-resize_1-target.png,250,3.9125,5,1799,252,meters,jsons/v1_VE250_randls_20.json,588060,771308,41,Man
156,219566,DepthScenes,duration_manipulation_targetAtFixation,jsons/v1_VE250_randls_20.json,http://54.235.29.9/FacialAge/BNav_EC2/DepthDuration/v2_depth_duration_MTurk/v2_DepthDuration_HTML.html#111,111,2560,1329,2560,1440,8-20-2022,11-14-33,157,depth_duration_stimuli/000642_2014-06-08_16-59-25_260595134347_rgbf000098-resize_2/000642_2014-06-08_16-59-25_260595134347_rgbf000098-resize_2-target.png,250,2.8815,4,2598,239,meters,jsons/v1_VE250_randls_20.json,588060,771308,41,Man
157,219566,DepthScenes,duration_manipulation_targetAtFixation,jsons/v1_VE250_randls_20.json,http://54.235.29.9/FacialAge/BNav_EC2/DepthDuration/v2_depth_duration_MTurk/v2_DepthDuration_HTML.html#111,111,2560,1329,2560,1440,8-20-2022,11-14-33,158,depth_duration_stimuli/002425_2014-06-28_20-27-29_260595134347_rgbf000031-resize_8/002425_2014-06-28_20-27-29_260595134347_rgbf000031-resize_8-target.png,250,3.8960000000000004,5,2402,239,meters,jsons/v1_VE250_randls_20.json,588060,771308,41,Man
158,219566,DepthScenes,duration_manipulation_targetAtFixation,jsons/v1_VE250_randls_20.json,http://54.235.29.9/FacialAge/BNav_EC2/DepthDuration/v2_depth_duration_MTurk/v2_DepthDuration_HTML.html#111,111,2560,1329,2560,1440,8-20-2022,11-14-33,159,depth_duration_stimuli/000917_2014-06-09_22-45-29_260595134347_rgbf000149-resize_3/000917_2014-06-09_22-45-29_260595134347_rgbf000149-resize_3-target.png,250,4.1865,6,2242,255,meters,jsons/v1_VE250_randls_20.json,588060,771308,41,Man
159,219566,DepthScenes,duration_manipulation_targetAtFixation,jsons/v1_VE250_randls_20.json,http://54.235.29.9/FacialAge/BNav_EC2/DepthDuration/v2_depth_duration_MTurk/v2_DepthDuration_HTML.html#111,111,2560,1329,2560,1440,8-20-2022,11-14-33,160,depth_duration_stimuli/002323_2014-06-28_20-01-54_260595134347_rgbf000051-resize_4/002323_2014-06-28_20-01-54_260595134347_rgbf000051-resize_4-target.png,250,3.7310000000000003,5,2261,252,meters,jsons/v1_VE250_randls_20.json,588060,771308,41,Man
160,219566,DepthScenes,duration_manipulation_targetAtFixation,jsons/v1_VE250_randls_20.json,http://54.235.29.9/FacialAge/BNav_EC2/DepthDuration/v2_depth_duration_MTurk/v2_DepthDuration_HTML.html#111,111,2560,1329,2560,1440,8-20-2022,11-14-33,161,depth_duration_stimuli/002988_2014-06-15_12-24-20_094959634447_rgbf000150-resize_1/002988_2014-06-15_12-24-20_094959634447_rgbf000150-resize_1-target.png,250,4.7669999999999995,8,3219,240,meters,jsons/v1_VE250_randls_20.json,588060,771308,41,Man
161,219566,DepthScenes,duration_manipulation_targetAtFixation,jsons/v1_VE250_randls_20.json,http://54.235.29.9/FacialAge/BNav_EC2/DepthDuration/v2_depth_duration_MTurk/v2_DepthDuration_HTML.html#111,111,2560,1329,2560,1440,8-20-2022,11-14-33,162,depth_duration_stimuli/001052_2014-06-08_18-24-54_260595134347_rgbf000130-resize_1/001052_2014-06-08_18-24-54_260595134347_rgbf000130-resize_1-target.png,250,4.1045,5,2643,255,meters,jsons/v1_VE250_randls_20.json,588060,771308,41,Man
162,219566,DepthScenes,duration_manipulation_targetAtFixation,jsons/v1_VE250_randls_20.json,http://54.235.29.9/FacialAge/BNav_EC2/DepthDuration/v2_depth_duration_MTurk/v2_DepthDuration_HTML.html#111,111,2560,1329,2560,1440,8-20-2022,11-14-33,163,depth_duration_stimuli/003621_2014-05-23_18-06-08_094959634447_rgbf000101-resize_1/003621_2014-05-23_18-06-08_094959634447_rgbf000101-resize_1-target.png,250,3.9835,6,2044,256,meters,jsons/v1_VE250_randls_20.json,588060,771308,41,Man
163,219566,DepthScenes,duration_manipulation_targetAtFixation,jsons/v1_VE250_randls_20.json,http://54.235.29.9/FacialAge/BNav_EC2/DepthDuration/v2_depth_duration_MTurk/v2_DepthDuration_HTML.html#111,111,2560,1329,2560,1440,8-20-2022,11-14-33,164,depth_duration_stimuli/001584_2014-06-20_11-07-43_260595134347_rgbf000002-resize_1/001584_2014-06-20_11-07-43_260595134347_rgbf000002-resize_1-target.png,250,3.53,5,5100,253,meters,jsons/v1_VE250_randls_20.json,588060,771308,41,Man
