,subjID,experimentName,versionName,sequenceName,url,selected_row,windowWidth,windowHeight,screenWidth,screenHeight,startDate,startTime,trial,stimulus,duration,actual_depth,depth_estimate,trial_RT,log_sceneDuration,unitSelection,seq_filepath,experimentTime,totalTime,age,gender
0,219617,DepthScenes,duration_manipulation_targetAtFixation,jsons/v1_VE1000_randls_4_rotated.json,http://54.235.29.9/FacialAge/BNav_EC2/DepthDuration/v2_depth_duration_MTurk/v2_DepthDuration_HTML.html#139,139,1280,1024,1280,1024,8-29-2022,14-46-32,1,depth_duration_stimuli/001450_2014-06-19_17-02-03_260595134347_rgbf000203-resize_4/001450_2014-06-19_17-02-03_260595134347_rgbf000203-resize_4-target.png,1000,4.0106666666667,10.0,5328,1006,feet,jsons/v1_VE1000_randls_4_rotated.json,1294188,1594699,52,Man
1,219617,DepthScenes,duration_manipulation_targetAtFixation,jsons/v1_VE1000_randls_4_rotated.json,http://54.235.29.9/FacialAge/BNav_EC2/DepthDuration/v2_depth_duration_MTurk/v2_DepthDuration_HTML.html#139,139,1280,1024,1280,1024,8-29-2022,14-46-32,2,depth_duration_stimuli/001449_2014-06-19_17-01-27_260595134347_rgbf000116-resize_2/001449_2014-06-19_17-01-27_260595134347_rgbf000116-resize_2-target.png,1000,3.452,6.0,4585,1010,feet,jsons/v1_VE1000_randls_4_rotated.json,1294188,1594699,52,Man
2,219617,DepthScenes,duration_manipulation_targetAtFixation,jsons/v1_VE1000_randls_4_rotated.json,http://54.235.29.9/FacialAge/BNav_EC2/DepthDuration/v2_depth_duration_MTurk/v2_DepthDuration_HTML.html#139,139,1280,1024,1280,1024,8-29-2022,14-46-32,3,depth_duration_stimuli/002750_2014-06-22_19-08-03_094959634447_rgbf000094-resize_4/002750_2014-06-22_19-08-03_094959634447_rgbf000094-resize_4-target.png,1000,2.354,7.0,6995,1001,feet,jsons/v1_VE1000_randls_4_rotated.json,1294188,1594699,52,Man
3,219617,DepthScenes,duration_manipulation_targetAtFixation,jsons/v1_VE1000_randls_4_rotated.json,http://54.235.29.9/FacialAge/BNav_EC2/DepthDuration/v2_depth_duration_MTurk/v2_DepthDuration_HTML.html#139,139,1280,1024,1280,1024,8-29-2022,14-46-32,4,depth_duration_stimuli/002549_2014-06-24_13-41-39_094959634447_rgbf000022-resize_3/002549_2014-06-24_13-41-39_094959634447_rgbf000022-resize_3-target.png,1000,1.476,2.5,5833,997,feet,jsons/v1_VE1000_randls_4_rotated.json,1294188,1594699,52,Man
4,219617,DepthScenes,duration_manipulation_targetAtFixation,jsons/v1_VE1000_randls_4_rotated.json,http://54.235.29.9/FacialAge/BNav_EC2/DepthDuration/v2_depth_duration_MTurk/v2_DepthDuration_HTML.html#139,139,1280,1024,1280,1024,8-29-2022,14-46-32,5,depth_duration_stimuli/000191_2014-05-12_17-07-38_260595134347_rgbf000199-resize_0/000191_2014-05-12_17-07-38_260595134347_rgbf000199-resize_0-target.png,1000,3.7995,12.0,4726,992,feet,jsons/v1_VE1000_randls_4_rotated.json,1294188,1594699,52,Man
5,219617,DepthScenes,duration_manipulation_targetAtFixation,jsons/v1_VE1000_randls_4_rotated.json,http://54.235.29.9/FacialAge/BNav_EC2/DepthDuration/v2_depth_duration_MTurk/v2_DepthDuration_HTML.html#139,139,1280,1024,1280,1024,8-29-2022,14-46-32,6,depth_duration_stimuli/000493_2014-06-09_21-01-18_260595134347_rgbf000196-resize_3/000493_2014-06-09_21-01-18_260595134347_rgbf000196-resize_3-target.png,1000,3.44,6.5,6897,1006,feet,jsons/v1_VE1000_randls_4_rotated.json,1294188,1594699,52,Man
6,219617,DepthScenes,duration_manipulation_targetAtFixation,jsons/v1_VE1000_randls_4_rotated.json,http://54.235.29.9/FacialAge/BNav_EC2/DepthDuration/v2_depth_duration_MTurk/v2_DepthDuration_HTML.html#139,139,1280,1024,1280,1024,8-29-2022,14-46-32,7,depth_duration_stimuli/003048_2014-06-15_13-49-43_094959634447_rgbf000150-resize_1/003048_2014-06-15_13-49-43_094959634447_rgbf000150-resize_1-target.png,1000,4.0035,11.0,38807,1011,feet,jsons/v1_VE1000_randls_4_rotated.json,1294188,1594699,52,Man
7,219617,DepthScenes,duration_manipulation_targetAtFixation,jsons/v1_VE1000_randls_4_rotated.json,http://54.235.29.9/FacialAge/BNav_EC2/DepthDuration/v2_depth_duration_MTurk/v2_DepthDuration_HTML.html#139,139,1280,1024,1280,1024,8-29-2022,14-46-32,8,depth_duration_stimuli/002043_2014-06-24_20-29-38_260595134347_rgbf000039-resize_4/002043_2014-06-24_20-29-38_260595134347_rgbf000039-resize_4-target.png,1000,2.8435,9.0,4719,1009,feet,jsons/v1_VE1000_randls_4_rotated.json,1294188,1594699,52,Man
8,219617,DepthScenes,duration_manipulation_targetAtFixation,jsons/v1_VE1000_randls_4_rotated.json,http://54.235.29.9/FacialAge/BNav_EC2/DepthDuration/v2_depth_duration_MTurk/v2_DepthDuration_HTML.html#139,139,1280,1024,1280,1024,8-29-2022,14-46-32,9,depth_duration_stimuli/002639_2014-06-24_14-51-37_094959634447_rgbf000074-resize_4/002639_2014-06-24_14-51-37_094959634447_rgbf000074-resize_4-target.png,1000,4.0375,7.5,15398,994,feet,jsons/v1_VE1000_randls_4_rotated.json,1294188,1594699,52,Man
9,219617,DepthScenes,duration_manipulation_targetAtFixation,jsons/v1_VE1000_randls_4_rotated.json,http://54.235.29.9/FacialAge/BNav_EC2/DepthDuration/v2_depth_duration_MTurk/v2_DepthDuration_HTML.html#139,139,1280,1024,1280,1024,8-29-2022,14-46-32,10,depth_duration_stimuli/003292_2014-05-14_21-53-49_094959634447_rgbf000100-resize_2/003292_2014-05-14_21-53-49_094959634447_rgbf000100-resize_2-target.png,1000,3.4815,4.9,5461,993,feet,jsons/v1_VE1000_randls_4_rotated.json,1294188,1594699,52,Man
10,219617,DepthScenes,duration_manipulation_targetAtFixation,jsons/v1_VE1000_randls_4_rotated.json,http://54.235.29.9/FacialAge/BNav_EC2/DepthDuration/v2_depth_duration_MTurk/v2_DepthDuration_HTML.html#139,139,1280,1024,1280,1024,8-29-2022,14-46-32,11,depth_duration_stimuli/000927_2014-06-09_16-32-30_260595134347_rgbf000123-resize_3/000927_2014-06-09_16-32-30_260595134347_rgbf000123-resize_3-target.png,1000,2.6785,5.5,6214,1011,feet,jsons/v1_VE1000_randls_4_rotated.json,1294188,1594699,52,Man
11,219617,DepthScenes,duration_manipulation_targetAtFixation,jsons/v1_VE1000_randls_4_rotated.json,http://54.235.29.9/FacialAge/BNav_EC2/DepthDuration/v2_depth_duration_MTurk/v2_DepthDuration_HTML.html#139,139,1280,1024,1280,1024,8-29-2022,14-46-32,12,depth_duration_stimuli/001110_2014-06-15_17-25-28_260595134347_rgbf000150-resize_1/001110_2014-06-15_17-25-28_260595134347_rgbf000150-resize_1-target.png,1000,1.7115,3.0,4587,1010,feet,jsons/v1_VE1000_randls_4_rotated.json,1294188,1594699,52,Man
12,219617,DepthScenes,duration_manipulation_targetAtFixation,jsons/v1_VE1000_randls_4_rotated.json,http://54.235.29.9/FacialAge/BNav_EC2/DepthDuration/v2_depth_duration_MTurk/v2_DepthDuration_HTML.html#139,139,1280,1024,1280,1024,8-29-2022,14-46-32,13,depth_duration_stimuli/000742_2014-06-08_18-48-09_260595134347_rgbf000164-resize_4/000742_2014-06-08_18-48-09_260595134347_rgbf000164-resize_4-target.png,1000,4.632,12.0,18165,1007,feet,jsons/v1_VE1000_randls_4_rotated.json,1294188,1594699,52,Man
13,219617,DepthScenes,duration_manipulation_targetAtFixation,jsons/v1_VE1000_randls_4_rotated.json,http://54.235.29.9/FacialAge/BNav_EC2/DepthDuration/v2_depth_duration_MTurk/v2_DepthDuration_HTML.html#139,139,1280,1024,1280,1024,8-29-2022,14-46-32,14,depth_duration_stimuli/001066_2014-06-08_22-03-20_260595134347_rgbf000066-resize_4/001066_2014-06-08_22-03-20_260595134347_rgbf000066-resize_4-target.png,1000,4.2330000000000005,14.0,6279,996,feet,jsons/v1_VE1000_randls_4_rotated.json,1294188,1594699,52,Man
14,219617,DepthScenes,duration_manipulation_targetAtFixation,jsons/v1_VE1000_randls_4_rotated.json,http://54.235.29.9/FacialAge/BNav_EC2/DepthDuration/v2_depth_duration_MTurk/v2_DepthDuration_HTML.html#139,139,1280,1024,1280,1024,8-29-2022,14-46-32,15,depth_duration_stimuli/000103_2014-05-14_22-01-17_260595134347_rgbf000152-resize_5/000103_2014-05-14_22-01-17_260595134347_rgbf000152-resize_5-target.png,1000,1.993,4.5,4778,1000,feet,jsons/v1_VE1000_randls_4_rotated.json,1294188,1594699,52,Man
15,219617,DepthScenes,duration_manipulation_targetAtFixation,jsons/v1_VE1000_randls_4_rotated.json,http://54.235.29.9/FacialAge/BNav_EC2/DepthDuration/v2_depth_duration_MTurk/v2_DepthDuration_HTML.html#139,139,1280,1024,1280,1024,8-29-2022,14-46-32,16,depth_duration_stimuli/001555_2014-06-20_17-12-10_260595134347_rgbf000065-resize_4/001555_2014-06-20_17-12-10_260595134347_rgbf000065-resize_4-target.png,1000,1.633,2.0,3970,1012,feet,jsons/v1_VE1000_randls_4_rotated.json,1294188,1594699,52,Man
16,219617,DepthScenes,duration_manipulation_targetAtFixation,jsons/v1_VE1000_randls_4_rotated.json,http://54.235.29.9/FacialAge/BNav_EC2/DepthDuration/v2_depth_duration_MTurk/v2_DepthDuration_HTML.html#139,139,1280,1024,1280,1024,8-29-2022,14-46-32,17,depth_duration_stimuli/002678_2014-06-13_16-15-32_094959634447_rgbf000151-resize_6/002678_2014-06-13_16-15-32_094959634447_rgbf000151-resize_6-target.png,1000,2.1830000000000003,5.0,5335,1010,feet,jsons/v1_VE1000_randls_4_rotated.json,1294188,1594699,52,Man
17,219617,DepthScenes,duration_manipulation_targetAtFixation,jsons/v1_VE1000_randls_4_rotated.json,http://54.235.29.9/FacialAge/BNav_EC2/DepthDuration/v2_depth_duration_MTurk/v2_DepthDuration_HTML.html#139,139,1280,1024,1280,1024,8-29-2022,14-46-32,18,depth_duration_stimuli/000368_2014-06-09_15-53-01_260595134347_rgbf000155-resize_2/000368_2014-06-09_15-53-01_260595134347_rgbf000155-resize_2-target.png,1000,2.4859999999999998,3.5,4935,1002,feet,jsons/v1_VE1000_randls_4_rotated.json,1294188,1594699,52,Man
18,219617,DepthScenes,duration_manipulation_targetAtFixation,jsons/v1_VE1000_randls_4_rotated.json,http://54.235.29.9/FacialAge/BNav_EC2/DepthDuration/v2_depth_duration_MTurk/v2_DepthDuration_HTML.html#139,139,1280,1024,1280,1024,8-29-2022,14-46-32,19,depth_duration_stimuli/001498_2014-06-19_17-45-14_260595134347_rgbf000129-resize_4/001498_2014-06-19_17-45-14_260595134347_rgbf000129-resize-original.jpg,1000,1.4075,0.0,4279,999,feet,jsons/v1_VE1000_randls_4_rotated.json,1294188,1594699,52,Man
19,219617,DepthScenes,duration_manipulation_targetAtFixation,jsons/v1_VE1000_randls_4_rotated.json,http://54.235.29.9/FacialAge/BNav_EC2/DepthDuration/v2_depth_duration_MTurk/v2_DepthDuration_HTML.html#139,139,1280,1024,1280,1024,8-29-2022,14-46-32,20,depth_duration_stimuli/001032_2014-06-08_13-23-17_260595134347_rgbf000021-resize_3/001032_2014-06-08_13-23-17_260595134347_rgbf000021-resize_3-target.png,1000,3.2725,5.5,26240,995,feet,jsons/v1_VE1000_randls_4_rotated.json,1294188,1594699,52,Man
20,219617,DepthScenes,duration_manipulation_targetAtFixation,jsons/v1_VE1000_randls_4_rotated.json,http://54.235.29.9/FacialAge/BNav_EC2/DepthDuration/v2_depth_duration_MTurk/v2_DepthDuration_HTML.html#139,139,1280,1024,1280,1024,8-29-2022,14-46-32,21,depth_duration_stimuli/001059_2014-06-08_21-53-27_260595134347_rgbf000061-resize_4/001059_2014-06-08_21-53-27_260595134347_rgbf000061-resize_4-target.png,1000,2.4185,4.5,4619,1003,feet,jsons/v1_VE1000_randls_4_rotated.json,1294188,1594699,52,Man
21,219617,DepthScenes,duration_manipulation_targetAtFixation,jsons/v1_VE1000_randls_4_rotated.json,http://54.235.29.9/FacialAge/BNav_EC2/DepthDuration/v2_depth_duration_MTurk/v2_DepthDuration_HTML.html#139,139,1280,1024,1280,1024,8-29-2022,14-46-32,22,depth_duration_stimuli/003010_2014-06-15_12-54-35_094959634447_rgbf000112-resize_0/003010_2014-06-15_12-54-35_094959634447_rgbf000112-resize_0-target.png,1000,3.1185,10.5,7129,1009,feet,jsons/v1_VE1000_randls_4_rotated.json,1294188,1594699,52,Man
22,219617,DepthScenes,duration_manipulation_targetAtFixation,jsons/v1_VE1000_randls_4_rotated.json,http://54.235.29.9/FacialAge/BNav_EC2/DepthDuration/v2_depth_duration_MTurk/v2_DepthDuration_HTML.html#139,139,1280,1024,1280,1024,8-29-2022,14-46-32,23,depth_duration_stimuli/001810_2014-06-26_20-51-35_260595134347_rgbf000040-resize_3/001810_2014-06-26_20-51-35_260595134347_rgbf000040-resize_3-target.png,1000,2.2525,3.5,5138,997,feet,jsons/v1_VE1000_randls_4_rotated.json,1294188,1594699,52,Man
23,219617,DepthScenes,duration_manipulation_targetAtFixation,jsons/v1_VE1000_randls_4_rotated.json,http://54.235.29.9/FacialAge/BNav_EC2/DepthDuration/v2_depth_duration_MTurk/v2_DepthDuration_HTML.html#139,139,1280,1024,1280,1024,8-29-2022,14-46-32,24,depth_duration_stimuli/001100_2014-06-15_17-46-26_260595134347_rgbf000225-resize_2/001100_2014-06-15_17-46-26_260595134347_rgbf000225-resize_2-target.png,1000,2.24,2.5,4677,997,feet,jsons/v1_VE1000_randls_4_rotated.json,1294188,1594699,52,Man
24,219617,DepthScenes,duration_manipulation_targetAtFixation,jsons/v1_VE1000_randls_4_rotated.json,http://54.235.29.9/FacialAge/BNav_EC2/DepthDuration/v2_depth_duration_MTurk/v2_DepthDuration_HTML.html#139,139,1280,1024,1280,1024,8-29-2022,14-46-32,25,depth_duration_stimuli/002784_2014-06-22_19-26-30_094959634447_rgbf000083-resize_3/002784_2014-06-22_19-26-30_094959634447_rgbf000083-resize_3-target.png,1000,1.8046666666667,3.0,4362,1012,feet,jsons/v1_VE1000_randls_4_rotated.json,1294188,1594699,52,Man
25,219617,DepthScenes,duration_manipulation_targetAtFixation,jsons/v1_VE1000_randls_4_rotated.json,http://54.235.29.9/FacialAge/BNav_EC2/DepthDuration/v2_depth_duration_MTurk/v2_DepthDuration_HTML.html#139,139,1280,1024,1280,1024,8-29-2022,14-46-32,26,depth_duration_stimuli/002660_2014-06-13_15-44-18_094959634447_rgbf001878-resize_2/002660_2014-06-13_15-44-18_094959634447_rgbf001878-resize_2-target.png,1000,3.576,8.5,5196,1014,feet,jsons/v1_VE1000_randls_4_rotated.json,1294188,1594699,52,Man
26,219617,DepthScenes,duration_manipulation_targetAtFixation,jsons/v1_VE1000_randls_4_rotated.json,http://54.235.29.9/FacialAge/BNav_EC2/DepthDuration/v2_depth_duration_MTurk/v2_DepthDuration_HTML.html#139,139,1280,1024,1280,1024,8-29-2022,14-46-32,27,depth_duration_stimuli/002153_2014-06-25_21-27-18_260595134347_rgbf000038-resize_5/002153_2014-06-25_21-27-18_260595134347_rgbf000038-resize_5-target.png,1000,2.505,4.0,4406,996,feet,jsons/v1_VE1000_randls_4_rotated.json,1294188,1594699,52,Man
27,219617,DepthScenes,duration_manipulation_targetAtFixation,jsons/v1_VE1000_randls_4_rotated.json,http://54.235.29.9/FacialAge/BNav_EC2/DepthDuration/v2_depth_duration_MTurk/v2_DepthDuration_HTML.html#139,139,1280,1024,1280,1024,8-29-2022,14-46-32,28,depth_duration_stimuli/002568_2014-06-24_13-59-21_094959634447_rgbf000062-resize_4/002568_2014-06-24_13-59-21_094959634447_rgbf000062-resize_4-target.png,1000,3.015,6.5,4646,995,feet,jsons/v1_VE1000_randls_4_rotated.json,1294188,1594699,52,Man
28,219617,DepthScenes,duration_manipulation_targetAtFixation,jsons/v1_VE1000_randls_4_rotated.json,http://54.235.29.9/FacialAge/BNav_EC2/DepthDuration/v2_depth_duration_MTurk/v2_DepthDuration_HTML.html#139,139,1280,1024,1280,1024,8-29-2022,14-46-32,29,depth_duration_stimuli/003492_2014-05-21_15-50-55_094959634447_rgbf000828-resize_1/003492_2014-05-21_15-50-55_094959634447_rgbf000828-resize_1-target.png,1000,4.06875,11.0,4492,1005,feet,jsons/v1_VE1000_randls_4_rotated.json,1294188,1594699,52,Man
29,219617,DepthScenes,duration_manipulation_targetAtFixation,jsons/v1_VE1000_randls_4_rotated.json,http://54.235.29.9/FacialAge/BNav_EC2/DepthDuration/v2_depth_duration_MTurk/v2_DepthDuration_HTML.html#139,139,1280,1024,1280,1024,8-29-2022,14-46-32,30,depth_duration_stimuli/002072_2014-06-24_21-48-06_260595134347_rgbf000115-resize_0/002072_2014-06-24_21-48-06_260595134347_rgbf000115-resize-original.jpg,1000,4.702,0.0,16671,1014,feet,jsons/v1_VE1000_randls_4_rotated.json,1294188,1594699,52,Man
30,219617,DepthScenes,duration_manipulation_targetAtFixation,jsons/v1_VE1000_randls_4_rotated.json,http://54.235.29.9/FacialAge/BNav_EC2/DepthDuration/v2_depth_duration_MTurk/v2_DepthDuration_HTML.html#139,139,1280,1024,1280,1024,8-29-2022,14-46-32,31,depth_duration_stimuli/002949_2014-06-26_15-57-42_094959634447_rgbf000079-resize_1/002949_2014-06-26_15-57-42_094959634447_rgbf000079-resize_1-target.png,1000,1.8915,3.5,4462,1007,feet,jsons/v1_VE1000_randls_4_rotated.json,1294188,1594699,52,Man
31,219617,DepthScenes,duration_manipulation_targetAtFixation,jsons/v1_VE1000_randls_4_rotated.json,http://54.235.29.9/FacialAge/BNav_EC2/DepthDuration/v2_depth_duration_MTurk/v2_DepthDuration_HTML.html#139,139,1280,1024,1280,1024,8-29-2022,14-46-32,32,depth_duration_stimuli/000522_2014-06-08_13-35-06_260595134347_rgbf000244-resize_1/000522_2014-06-08_13-35-06_260595134347_rgbf000244-resize_1-target.png,1000,2.3715,1.5,4558,994,feet,jsons/v1_VE1000_randls_4_rotated.json,1294188,1594699,52,Man
32,219617,DepthScenes,duration_manipulation_targetAtFixation,jsons/v1_VE1000_randls_4_rotated.json,http://54.235.29.9/FacialAge/BNav_EC2/DepthDuration/v2_depth_duration_MTurk/v2_DepthDuration_HTML.html#139,139,1280,1024,1280,1024,8-29-2022,14-46-32,33,depth_duration_stimuli/002103_2014-06-25_20-00-40_260595134347_rgbf000049-resize_0/002103_2014-06-25_20-00-40_260595134347_rgbf000049-resize_0-target.png,1000,4.105,5.0,4761,1006,feet,jsons/v1_VE1000_randls_4_rotated.json,1294188,1594699,52,Man
33,219617,DepthScenes,duration_manipulation_targetAtFixation,jsons/v1_VE1000_randls_4_rotated.json,http://54.235.29.9/FacialAge/BNav_EC2/DepthDuration/v2_depth_duration_MTurk/v2_DepthDuration_HTML.html#139,139,1280,1024,1280,1024,8-29-2022,14-46-32,34,depth_duration_stimuli/002039_2014-06-24_20-22-38_260595134347_rgbf000084-resize_1/002039_2014-06-24_20-22-38_260595134347_rgbf000084-resize_1-target.png,1000,4.408,12.0,4925,990,feet,jsons/v1_VE1000_randls_4_rotated.json,1294188,1594699,52,Man
34,219617,DepthScenes,duration_manipulation_targetAtFixation,jsons/v1_VE1000_randls_4_rotated.json,http://54.235.29.9/FacialAge/BNav_EC2/DepthDuration/v2_depth_duration_MTurk/v2_DepthDuration_HTML.html#139,139,1280,1024,1280,1024,8-29-2022,14-46-32,35,depth_duration_stimuli/002467_2014-06-28_20-38-07_260595134347_rgbf000026-resize_2/002467_2014-06-28_20-38-07_260595134347_rgbf000026-resize_2-target.png,1000,4.742,11.5,5648,1014,feet,jsons/v1_VE1000_randls_4_rotated.json,1294188,1594699,52,Man
35,219617,DepthScenes,duration_manipulation_targetAtFixation,jsons/v1_VE1000_randls_4_rotated.json,http://54.235.29.9/FacialAge/BNav_EC2/DepthDuration/v2_depth_duration_MTurk/v2_DepthDuration_HTML.html#139,139,1280,1024,1280,1024,8-29-2022,14-46-32,36,depth_duration_stimuli/002570_2014-06-24_13-59-54_094959634447_rgbf000059-resize_0/002570_2014-06-24_13-59-54_094959634447_rgbf000059-resize_0-target.png,1000,4.037,10.0,4646,998,feet,jsons/v1_VE1000_randls_4_rotated.json,1294188,1594699,52,Man
36,219617,DepthScenes,duration_manipulation_targetAtFixation,jsons/v1_VE1000_randls_4_rotated.json,http://54.235.29.9/FacialAge/BNav_EC2/DepthDuration/v2_depth_duration_MTurk/v2_DepthDuration_HTML.html#139,139,1280,1024,1280,1024,8-29-2022,14-46-32,37,depth_duration_stimuli/000109_2014-05-14_23-41-52_260595134347_rgbf000035-resize_9/000109_2014-05-14_23-41-52_260595134347_rgbf000035-resize_9-target.png,1000,1.3545,2.0,4789,993,feet,jsons/v1_VE1000_randls_4_rotated.json,1294188,1594699,52,Man
37,219617,DepthScenes,duration_manipulation_targetAtFixation,jsons/v1_VE1000_randls_4_rotated.json,http://54.235.29.9/FacialAge/BNav_EC2/DepthDuration/v2_depth_duration_MTurk/v2_DepthDuration_HTML.html#139,139,1280,1024,1280,1024,8-29-2022,14-46-32,38,depth_duration_stimuli/000470_2014-06-09_19-42-40_260595134347_rgbf000094-resize_1/000470_2014-06-09_19-42-40_260595134347_rgbf000094-resize_1-target.png,1000,1.831,3.0,5253,1001,feet,jsons/v1_VE1000_randls_4_rotated.json,1294188,1594699,52,Man
38,219617,DepthScenes,duration_manipulation_targetAtFixation,jsons/v1_VE1000_randls_4_rotated.json,http://54.235.29.9/FacialAge/BNav_EC2/DepthDuration/v2_depth_duration_MTurk/v2_DepthDuration_HTML.html#139,139,1280,1024,1280,1024,8-29-2022,14-46-32,39,depth_duration_stimuli/000749_2014-06-08_21-55-06_260595134347_rgbf000070-resize_2/000749_2014-06-08_21-55-06_260595134347_rgbf000070-resize_2-target.png,1000,2.331,5.0,4218,1010,feet,jsons/v1_VE1000_randls_4_rotated.json,1294188,1594699,52,Man
39,219617,DepthScenes,duration_manipulation_targetAtFixation,jsons/v1_VE1000_randls_4_rotated.json,http://54.235.29.9/FacialAge/BNav_EC2/DepthDuration/v2_depth_duration_MTurk/v2_DepthDuration_HTML.html#139,139,1280,1024,1280,1024,8-29-2022,14-46-32,40,depth_duration_stimuli/002788_2014-06-22_19-36-03_094959634447_rgbf000088-resize_2/002788_2014-06-22_19-36-03_094959634447_rgbf000088-resize_2-target.png,1000,1.6465,4.5,5094,995,feet,jsons/v1_VE1000_randls_4_rotated.json,1294188,1594699,52,Man
40,219617,DepthScenes,duration_manipulation_targetAtFixation,jsons/v1_VE1000_randls_4_rotated.json,http://54.235.29.9/FacialAge/BNav_EC2/DepthDuration/v2_depth_duration_MTurk/v2_DepthDuration_HTML.html#139,139,1280,1024,1280,1024,8-29-2022,14-46-32,41,depth_duration_stimuli/002414_2014-06-28_20-24-58_260595134347_rgbf000067-resize_4/002414_2014-06-28_20-24-58_260595134347_rgbf000067-resize_4-target.png,1000,4.363,14.0,5808,999,feet,jsons/v1_VE1000_randls_4_rotated.json,1294188,1594699,52,Man
41,219617,DepthScenes,duration_manipulation_targetAtFixation,jsons/v1_VE1000_randls_4_rotated.json,http://54.235.29.9/FacialAge/BNav_EC2/DepthDuration/v2_depth_duration_MTurk/v2_DepthDuration_HTML.html#139,139,1280,1024,1280,1024,8-29-2022,14-46-32,42,depth_duration_stimuli/000773_2014-06-08_22-24-54_260595134347_rgbf000093-resize_1/000773_2014-06-08_22-24-54_260595134347_rgbf000093-resize_1-target.png,1000,4.973,11.0,13106,999,feet,jsons/v1_VE1000_randls_4_rotated.json,1294188,1594699,52,Man
42,219617,DepthScenes,duration_manipulation_targetAtFixation,jsons/v1_VE1000_randls_4_rotated.json,http://54.235.29.9/FacialAge/BNav_EC2/DepthDuration/v2_depth_duration_MTurk/v2_DepthDuration_HTML.html#139,139,1280,1024,1280,1024,8-29-2022,14-46-32,43,depth_duration_stimuli/000457_2014-06-08_16-52-43_260595134347_rgbf000199-resize_1/000457_2014-06-08_16-52-43_260595134347_rgbf000199-resize_1-target.png,1000,3.6489999999999996,7.0,6214,993,feet,jsons/v1_VE1000_randls_4_rotated.json,1294188,1594699,52,Man
43,219617,DepthScenes,duration_manipulation_targetAtFixation,jsons/v1_VE1000_randls_4_rotated.json,http://54.235.29.9/FacialAge/BNav_EC2/DepthDuration/v2_depth_duration_MTurk/v2_DepthDuration_HTML.html#139,139,1280,1024,1280,1024,8-29-2022,14-46-32,44,depth_duration_stimuli/000929_2014-06-09_16-33-19_260595134347_rgbf000139-resize_0/000929_2014-06-09_16-33-19_260595134347_rgbf000139-resize_0-target.png,1000,2.8680000000000003,5.5,4893,995,feet,jsons/v1_VE1000_randls_4_rotated.json,1294188,1594699,52,Man
44,219617,DepthScenes,duration_manipulation_targetAtFixation,jsons/v1_VE1000_randls_4_rotated.json,http://54.235.29.9/FacialAge/BNav_EC2/DepthDuration/v2_depth_duration_MTurk/v2_DepthDuration_HTML.html#139,139,1280,1024,1280,1024,8-29-2022,14-46-32,45,depth_duration_stimuli/001214_2014-06-17_16-13-55_260595134347_rgbf000111-resize_0/001214_2014-06-17_16-13-55_260595134347_rgbf000111-resize_0-target.png,1000,2.6505,5.0,3967,1010,feet,jsons/v1_VE1000_randls_4_rotated.json,1294188,1594699,52,Man
45,219617,DepthScenes,duration_manipulation_targetAtFixation,jsons/v1_VE1000_randls_4_rotated.json,http://54.235.29.9/FacialAge/BNav_EC2/DepthDuration/v2_depth_duration_MTurk/v2_DepthDuration_HTML.html#139,139,1280,1024,1280,1024,8-29-2022,14-46-32,46,depth_duration_stimuli/000810_2014-06-08_17-20-01_260595134347_rgbf000105-resize_0/000810_2014-06-08_17-20-01_260595134347_rgbf000105-resize_0-target.png,1000,1.4865,4.5,5187,994,feet,jsons/v1_VE1000_randls_4_rotated.json,1294188,1594699,52,Man
46,219617,DepthScenes,duration_manipulation_targetAtFixation,jsons/v1_VE1000_randls_4_rotated.json,http://54.235.29.9/FacialAge/BNav_EC2/DepthDuration/v2_depth_duration_MTurk/v2_DepthDuration_HTML.html#139,139,1280,1024,1280,1024,8-29-2022,14-46-32,47,depth_duration_stimuli/001052_2014-06-08_18-24-54_260595134347_rgbf000130-resize_1/001052_2014-06-08_18-24-54_260595134347_rgbf000130-resize_1-target.png,1000,4.1045,9.0,4252,1008,feet,jsons/v1_VE1000_randls_4_rotated.json,1294188,1594699,52,Man
47,219617,DepthScenes,duration_manipulation_targetAtFixation,jsons/v1_VE1000_randls_4_rotated.json,http://54.235.29.9/FacialAge/BNav_EC2/DepthDuration/v2_depth_duration_MTurk/v2_DepthDuration_HTML.html#139,139,1280,1024,1280,1024,8-29-2022,14-46-32,48,depth_duration_stimuli/002988_2014-06-15_12-24-20_094959634447_rgbf000150-resize_1/002988_2014-06-15_12-24-20_094959634447_rgbf000150-resize_1-target.png,1000,4.7669999999999995,11.0,4489,1012,feet,jsons/v1_VE1000_randls_4_rotated.json,1294188,1594699,52,Man
48,219617,DepthScenes,duration_manipulation_targetAtFixation,jsons/v1_VE1000_randls_4_rotated.json,http://54.235.29.9/FacialAge/BNav_EC2/DepthDuration/v2_depth_duration_MTurk/v2_DepthDuration_HTML.html#139,139,1280,1024,1280,1024,8-29-2022,14-46-32,49,depth_duration_stimuli/001170_2014-06-17_15-43-44_260595134347_rgbf000096-resize_6/001170_2014-06-17_15-43-44_260595134347_rgbf000096-resize-original.jpg,1000,1.1909999999999998,0.0,4011,1001,feet,jsons/v1_VE1000_randls_4_rotated.json,1294188,1594699,52,Man
49,219617,DepthScenes,duration_manipulation_targetAtFixation,jsons/v1_VE1000_randls_4_rotated.json,http://54.235.29.9/FacialAge/BNav_EC2/DepthDuration/v2_depth_duration_MTurk/v2_DepthDuration_HTML.html#139,139,1280,1024,1280,1024,8-29-2022,14-46-32,50,depth_duration_stimuli/002323_2014-06-28_20-01-54_260595134347_rgbf000051-resize_4/002323_2014-06-28_20-01-54_260595134347_rgbf000051-resize_4-target.png,1000,3.7310000000000003,10.0,3921,1009,feet,jsons/v1_VE1000_randls_4_rotated.json,1294188,1594699,52,Man
50,219617,DepthScenes,duration_manipulation_targetAtFixation,jsons/v1_VE1000_randls_4_rotated.json,http://54.235.29.9/FacialAge/BNav_EC2/DepthDuration/v2_depth_duration_MTurk/v2_DepthDuration_HTML.html#139,139,1280,1024,1280,1024,8-29-2022,14-46-32,51,depth_duration_stimuli/000917_2014-06-09_22-45-29_260595134347_rgbf000149-resize_3/000917_2014-06-09_22-45-29_260595134347_rgbf000149-resize_3-target.png,1000,4.1865,8.0,4439,1011,feet,jsons/v1_VE1000_randls_4_rotated.json,1294188,1594699,52,Man
51,219617,DepthScenes,duration_manipulation_targetAtFixation,jsons/v1_VE1000_randls_4_rotated.json,http://54.235.29.9/FacialAge/BNav_EC2/DepthDuration/v2_depth_duration_MTurk/v2_DepthDuration_HTML.html#139,139,1280,1024,1280,1024,8-29-2022,14-46-32,52,depth_duration_stimuli/003587_2014-05-23_16-48-02_094959634447_rgbf002384-resize_2/003587_2014-05-23_16-48-02_094959634447_rgbf002384-resize_2-target.png,1000,1.357,1.5,4731,996,feet,jsons/v1_VE1000_randls_4_rotated.json,1294188,1594699,52,Man
52,219617,DepthScenes,duration_manipulation_targetAtFixation,jsons/v1_VE1000_randls_4_rotated.json,http://54.235.29.9/FacialAge/BNav_EC2/DepthDuration/v2_depth_duration_MTurk/v2_DepthDuration_HTML.html#139,139,1280,1024,1280,1024,8-29-2022,14-46-32,53,depth_duration_stimuli/001167_2014-06-17_15-38-07_260595134347_rgbf000108-resize_0/001167_2014-06-17_15-38-07_260595134347_rgbf000108-resize_0-target.png,1000,1.8505,2.5,5218,990,feet,jsons/v1_VE1000_randls_4_rotated.json,1294188,1594699,52,Man
53,219617,DepthScenes,duration_manipulation_targetAtFixation,jsons/v1_VE1000_randls_4_rotated.json,http://54.235.29.9/FacialAge/BNav_EC2/DepthDuration/v2_depth_duration_MTurk/v2_DepthDuration_HTML.html#139,139,1280,1024,1280,1024,8-29-2022,14-46-32,54,depth_duration_stimuli/003490_2014-05-21_15-50-11_094959634447_rgbf000101-resize_3/003490_2014-05-21_15-50-11_094959634447_rgbf000101-resize_3-target.png,1000,3.6445,8.0,52314,988,feet,jsons/v1_VE1000_randls_4_rotated.json,1294188,1594699,52,Man
54,219617,DepthScenes,duration_manipulation_targetAtFixation,jsons/v1_VE1000_randls_4_rotated.json,http://54.235.29.9/FacialAge/BNav_EC2/DepthDuration/v2_depth_duration_MTurk/v2_DepthDuration_HTML.html#139,139,1280,1024,1280,1024,8-29-2022,14-46-32,55,depth_duration_stimuli/001175_2014-06-17_15-45-55_260595134347_rgbf000129-resize_4/001175_2014-06-17_15-45-55_260595134347_rgbf000129-resize_4-target.png,1000,4.255,12.0,4449,1000,feet,jsons/v1_VE1000_randls_4_rotated.json,1294188,1594699,52,Man
55,219617,DepthScenes,duration_manipulation_targetAtFixation,jsons/v1_VE1000_randls_4_rotated.json,http://54.235.29.9/FacialAge/BNav_EC2/DepthDuration/v2_depth_duration_MTurk/v2_DepthDuration_HTML.html#139,139,1280,1024,1280,1024,8-29-2022,14-46-32,56,depth_duration_stimuli/001617_2014-06-20_11-35-32_260595134347_rgbf000066-resize_1/001617_2014-06-20_11-35-32_260595134347_rgbf000066-resize_1-target.png,1000,3.7910000000000004,9.0,50858,989,feet,jsons/v1_VE1000_randls_4_rotated.json,1294188,1594699,52,Man
56,219617,DepthScenes,duration_manipulation_targetAtFixation,jsons/v1_VE1000_randls_4_rotated.json,http://54.235.29.9/FacialAge/BNav_EC2/DepthDuration/v2_depth_duration_MTurk/v2_DepthDuration_HTML.html#139,139,1280,1024,1280,1024,8-29-2022,14-46-32,57,depth_duration_stimuli/001806_2014-06-26_20-50-20_260595134347_rgbf000091-resize_1/001806_2014-06-26_20-50-20_260595134347_rgbf000091-resize_1-target.png,1000,2.7305,3.0,5321,993,feet,jsons/v1_VE1000_randls_4_rotated.json,1294188,1594699,52,Man
57,219617,DepthScenes,duration_manipulation_targetAtFixation,jsons/v1_VE1000_randls_4_rotated.json,http://54.235.29.9/FacialAge/BNav_EC2/DepthDuration/v2_depth_duration_MTurk/v2_DepthDuration_HTML.html#139,139,1280,1024,1280,1024,8-29-2022,14-46-32,58,depth_duration_stimuli/002545_2014-06-24_13-38-53_094959634447_rgbf000080-resize_4/002545_2014-06-24_13-38-53_094959634447_rgbf000080-resize_4-target.png,1000,1.9205,4.5,5338,993,feet,jsons/v1_VE1000_randls_4_rotated.json,1294188,1594699,52,Man
58,219617,DepthScenes,duration_manipulation_targetAtFixation,jsons/v1_VE1000_randls_4_rotated.json,http://54.235.29.9/FacialAge/BNav_EC2/DepthDuration/v2_depth_duration_MTurk/v2_DepthDuration_HTML.html#139,139,1280,1024,1280,1024,8-29-2022,14-46-32,59,depth_duration_stimuli/001092_2014-06-15_17-34-58_260595134347_rgbf000171-resize_3/001092_2014-06-15_17-34-58_260595134347_rgbf000171-resize_3-target.png,1000,2.6935,4.0,4707,1005,feet,jsons/v1_VE1000_randls_4_rotated.json,1294188,1594699,52,Man
59,219617,DepthScenes,duration_manipulation_targetAtFixation,jsons/v1_VE1000_randls_4_rotated.json,http://54.235.29.9/FacialAge/BNav_EC2/DepthDuration/v2_depth_duration_MTurk/v2_DepthDuration_HTML.html#139,139,1280,1024,1280,1024,8-29-2022,14-46-32,60,depth_duration_stimuli/001815_2014-06-26_20-52-55_260595134347_rgbf000020-resize_0/001815_2014-06-26_20-52-55_260595134347_rgbf000020-resize_0-target.png,1000,3.3865,13.0,5166,998,feet,jsons/v1_VE1000_randls_4_rotated.json,1294188,1594699,52,Man
60,219617,DepthScenes,duration_manipulation_targetAtFixation,jsons/v1_VE1000_randls_4_rotated.json,http://54.235.29.9/FacialAge/BNav_EC2/DepthDuration/v2_depth_duration_MTurk/v2_DepthDuration_HTML.html#139,139,1280,1024,1280,1024,8-29-2022,14-46-32,61,depth_duration_stimuli/001808_2014-06-26_20-50-58_260595134347_rgbf000029-resize_1/001808_2014-06-26_20-50-58_260595134347_rgbf000029-resize_1-target.png,1000,4.249,12.0,4255,1002,feet,jsons/v1_VE1000_randls_4_rotated.json,1294188,1594699,52,Man
61,219617,DepthScenes,duration_manipulation_targetAtFixation,jsons/v1_VE1000_randls_4_rotated.json,http://54.235.29.9/FacialAge/BNav_EC2/DepthDuration/v2_depth_duration_MTurk/v2_DepthDuration_HTML.html#139,139,1280,1024,1280,1024,8-29-2022,14-46-32,62,depth_duration_stimuli/000549_2014-06-08_22-10-24_260595134347_rgbf000247-resize_3/000549_2014-06-08_22-10-24_260595134347_rgbf000247-resize_3-target.png,1000,1.841,3.0,4202,1010,feet,jsons/v1_VE1000_randls_4_rotated.json,1294188,1594699,52,Man
62,219617,DepthScenes,duration_manipulation_targetAtFixation,jsons/v1_VE1000_randls_4_rotated.json,http://54.235.29.9/FacialAge/BNav_EC2/DepthDuration/v2_depth_duration_MTurk/v2_DepthDuration_HTML.html#139,139,1280,1024,1280,1024,8-29-2022,14-46-32,63,depth_duration_stimuli/001055_2014-06-08_18-45-35_260595134347_rgbf000111-resize_4/001055_2014-06-08_18-45-35_260595134347_rgbf000111-resize_4-target.png,1000,2.4290000000000003,5.5,5155,992,feet,jsons/v1_VE1000_randls_4_rotated.json,1294188,1594699,52,Man
63,219617,DepthScenes,duration_manipulation_targetAtFixation,jsons/v1_VE1000_randls_4_rotated.json,http://54.235.29.9/FacialAge/BNav_EC2/DepthDuration/v2_depth_duration_MTurk/v2_DepthDuration_HTML.html#139,139,1280,1024,1280,1024,8-29-2022,14-46-32,64,depth_duration_stimuli/000677_2014-06-08_23-10-32_260595134347_rgbf000158-resize_6/000677_2014-06-08_23-10-32_260595134347_rgbf000158-resize_6-target.png,1000,3.556,6.0,92272,992,feet,jsons/v1_VE1000_randls_4_rotated.json,1294188,1594699,52,Man
64,219617,DepthScenes,duration_manipulation_targetAtFixation,jsons/v1_VE1000_randls_4_rotated.json,http://54.235.29.9/FacialAge/BNav_EC2/DepthDuration/v2_depth_duration_MTurk/v2_DepthDuration_HTML.html#139,139,1280,881,1280,1024,8-29-2022,14-46-32,65,depth_duration_stimuli/001029_2014-06-08_13-17-57_260595134347_rgbf000065-resize_1/001029_2014-06-08_13-17-57_260595134347_rgbf000065-resize_1-target.png,1000,3.0835,5.5,15217,1013,feet,jsons/v1_VE1000_randls_4_rotated.json,1294188,1594699,52,Man
65,219617,DepthScenes,duration_manipulation_targetAtFixation,jsons/v1_VE1000_randls_4_rotated.json,http://54.235.29.9/FacialAge/BNav_EC2/DepthDuration/v2_depth_duration_MTurk/v2_DepthDuration_HTML.html#139,139,1280,881,1280,1024,8-29-2022,14-46-32,66,depth_duration_stimuli/001540_2014-06-20_17-01-05_260595134347_rgbf000086-resize_2/001540_2014-06-20_17-01-05_260595134347_rgbf000086-resize-original.jpg,1000,1.459,0.0,4001,1003,feet,jsons/v1_VE1000_randls_4_rotated.json,1294188,1594699,52,Man
66,219617,DepthScenes,duration_manipulation_targetAtFixation,jsons/v1_VE1000_randls_4_rotated.json,http://54.235.29.9/FacialAge/BNav_EC2/DepthDuration/v2_depth_duration_MTurk/v2_DepthDuration_HTML.html#139,139,1280,881,1280,1024,8-29-2022,14-46-32,67,depth_duration_stimuli/000409_2014-06-04_19-23-33_260595134347_rgbf000067-resize_0/000409_2014-06-04_19-23-33_260595134347_rgbf000067-resize_0-target.png,1000,3.7335,6.0,3801,1008,feet,jsons/v1_VE1000_randls_4_rotated.json,1294188,1594699,52,Man
67,219617,DepthScenes,duration_manipulation_targetAtFixation,jsons/v1_VE1000_randls_4_rotated.json,http://54.235.29.9/FacialAge/BNav_EC2/DepthDuration/v2_depth_duration_MTurk/v2_DepthDuration_HTML.html#139,139,1280,881,1280,1024,8-29-2022,14-46-32,68,depth_duration_stimuli/002663_2014-06-13_15-50-26_094959634447_rgbf000075-resize_1/002663_2014-06-13_15-50-26_094959634447_rgbf000075-resize_1-target.png,1000,4.7495,13.0,4720,997,feet,jsons/v1_VE1000_randls_4_rotated.json,1294188,1594699,52,Man
68,219617,DepthScenes,duration_manipulation_targetAtFixation,jsons/v1_VE1000_randls_4_rotated.json,http://54.235.29.9/FacialAge/BNav_EC2/DepthDuration/v2_depth_duration_MTurk/v2_DepthDuration_HTML.html#139,139,1280,881,1280,1024,8-29-2022,14-46-32,69,depth_duration_stimuli/003081_2014-06-15_15-19-16_094959634447_rgbf000150-resize_1/003081_2014-06-15_15-19-16_094959634447_rgbf000150-resize_1-target.png,1000,3.9125,10.0,4418,1000,feet,jsons/v1_VE1000_randls_4_rotated.json,1294188,1594699,52,Man
69,219617,DepthScenes,duration_manipulation_targetAtFixation,jsons/v1_VE1000_randls_4_rotated.json,http://54.235.29.9/FacialAge/BNav_EC2/DepthDuration/v2_depth_duration_MTurk/v2_DepthDuration_HTML.html#139,139,1280,881,1280,1024,8-29-2022,14-46-32,70,depth_duration_stimuli/001417_2014-06-19_16-25-36_260595134347_rgbf000115-resize_5/001417_2014-06-19_16-25-36_260595134347_rgbf000115-resize_5-target.png,1000,4.6255,8.0,3991,988,feet,jsons/v1_VE1000_randls_4_rotated.json,1294188,1594699,52,Man
70,219617,DepthScenes,duration_manipulation_targetAtFixation,jsons/v1_VE1000_randls_4_rotated.json,http://54.235.29.9/FacialAge/BNav_EC2/DepthDuration/v2_depth_duration_MTurk/v2_DepthDuration_HTML.html#139,139,1280,881,1280,1024,8-29-2022,14-46-32,71,depth_duration_stimuli/002425_2014-06-28_20-27-29_260595134347_rgbf000031-resize_8/002425_2014-06-28_20-27-29_260595134347_rgbf000031-resize_8-target.png,1000,3.8960000000000004,12.5,5027,1004,feet,jsons/v1_VE1000_randls_4_rotated.json,1294188,1594699,52,Man
71,219617,DepthScenes,duration_manipulation_targetAtFixation,jsons/v1_VE1000_randls_4_rotated.json,http://54.235.29.9/FacialAge/BNav_EC2/DepthDuration/v2_depth_duration_MTurk/v2_DepthDuration_HTML.html#139,139,1280,881,1280,1024,8-29-2022,14-46-32,72,depth_duration_stimuli/000642_2014-06-08_16-59-25_260595134347_rgbf000098-resize_2/000642_2014-06-08_16-59-25_260595134347_rgbf000098-resize_2-target.png,1000,2.8815,4.5,6383,1009,feet,jsons/v1_VE1000_randls_4_rotated.json,1294188,1594699,52,Man
72,219617,DepthScenes,duration_manipulation_targetAtFixation,jsons/v1_VE1000_randls_4_rotated.json,http://54.235.29.9/FacialAge/BNav_EC2/DepthDuration/v2_depth_duration_MTurk/v2_DepthDuration_HTML.html#139,139,1280,881,1280,1024,8-29-2022,14-46-32,73,depth_duration_stimuli/000502_2014-06-08_23-02-32_260595134347_rgbf000063-resize_4/000502_2014-06-08_23-02-32_260595134347_rgbf000063-resize_4-target.png,1000,2.431,5.0,4170,995,feet,jsons/v1_VE1000_randls_4_rotated.json,1294188,1594699,52,Man
73,219617,DepthScenes,duration_manipulation_targetAtFixation,jsons/v1_VE1000_randls_4_rotated.json,http://54.235.29.9/FacialAge/BNav_EC2/DepthDuration/v2_depth_duration_MTurk/v2_DepthDuration_HTML.html#139,139,1280,881,1280,1024,8-29-2022,14-46-32,74,depth_duration_stimuli/001199_2014-06-17_16-03-48_260595134347_rgbf000077-resize_0/001199_2014-06-17_16-03-48_260595134347_rgbf000077-resize_0-target.png,1000,3.4375,11.0,3789,993,feet,jsons/v1_VE1000_randls_4_rotated.json,1294188,1594699,52,Man
74,219617,DepthScenes,duration_manipulation_targetAtFixation,jsons/v1_VE1000_randls_4_rotated.json,http://54.235.29.9/FacialAge/BNav_EC2/DepthDuration/v2_depth_duration_MTurk/v2_DepthDuration_HTML.html#139,139,1280,881,1280,1024,8-29-2022,14-46-32,75,depth_duration_stimuli/000780_2014-06-08_22-28-29_260595134347_rgbf000126-resize_1/000780_2014-06-08_22-28-29_260595134347_rgbf000126-resize_1-target.png,1000,3.3825,9.0,4177,1009,feet,jsons/v1_VE1000_randls_4_rotated.json,1294188,1594699,52,Man
75,219617,DepthScenes,duration_manipulation_targetAtFixation,jsons/v1_VE1000_randls_4_rotated.json,http://54.235.29.9/FacialAge/BNav_EC2/DepthDuration/v2_depth_duration_MTurk/v2_DepthDuration_HTML.html#139,139,1280,881,1280,1024,8-29-2022,14-46-32,76,depth_duration_stimuli/002445_2014-06-28_20-32-16_260595134347_rgbf000029-resize_4/002445_2014-06-28_20-32-16_260595134347_rgbf000029-resize_4-target.png,1000,2.5315,5.5,4887,1005,feet,jsons/v1_VE1000_randls_4_rotated.json,1294188,1594699,52,Man
76,219617,DepthScenes,duration_manipulation_targetAtFixation,jsons/v1_VE1000_randls_4_rotated.json,http://54.235.29.9/FacialAge/BNav_EC2/DepthDuration/v2_depth_duration_MTurk/v2_DepthDuration_HTML.html#139,139,1280,881,1280,1024,8-29-2022,14-46-32,77,depth_duration_stimuli/002805_2014-06-22_19-54-03_094959634447_rgbf000079-resize_1/002805_2014-06-22_19-54-03_094959634447_rgbf000079-resize_1-target.png,1000,3.1439999999999997,10.0,3991,993,feet,jsons/v1_VE1000_randls_4_rotated.json,1294188,1594699,52,Man
77,219617,DepthScenes,duration_manipulation_targetAtFixation,jsons/v1_VE1000_randls_4_rotated.json,http://54.235.29.9/FacialAge/BNav_EC2/DepthDuration/v2_depth_duration_MTurk/v2_DepthDuration_HTML.html#139,139,1280,881,1280,1024,8-29-2022,14-46-32,78,depth_duration_stimuli/000906_2014-06-08_13-35-43_260595134347_rgbf000155-resize_1/000906_2014-06-08_13-35-43_260595134347_rgbf000155-resize_1-target.png,1000,2.8489999999999998,10.0,27540,995,feet,jsons/v1_VE1000_randls_4_rotated.json,1294188,1594699,52,Man
78,219617,DepthScenes,duration_manipulation_targetAtFixation,jsons/v1_VE1000_randls_4_rotated.json,http://54.235.29.9/FacialAge/BNav_EC2/DepthDuration/v2_depth_duration_MTurk/v2_DepthDuration_HTML.html#139,139,1280,881,1280,1024,8-29-2022,14-46-32,79,depth_duration_stimuli/002199_2014-06-28_18-33-56_260595134347_rgbf000074-resize_0/002199_2014-06-28_18-33-56_260595134347_rgbf000074-resize_0-target.png,1000,1.996,2.3,5100,985,feet,jsons/v1_VE1000_randls_4_rotated.json,1294188,1594699,52,Man
79,219617,DepthScenes,duration_manipulation_targetAtFixation,jsons/v1_VE1000_randls_4_rotated.json,http://54.235.29.9/FacialAge/BNav_EC2/DepthDuration/v2_depth_duration_MTurk/v2_DepthDuration_HTML.html#139,139,1280,881,1280,1024,8-29-2022,14-46-32,80,depth_duration_stimuli/001056_2014-06-08_18-46-44_260595134347_rgbf000068-resize_0/001056_2014-06-08_18-46-44_260595134347_rgbf000068-resize_0-target.png,1000,2.6625,5.5,4863,1008,feet,jsons/v1_VE1000_randls_4_rotated.json,1294188,1594699,52,Man
80,219617,DepthScenes,duration_manipulation_targetAtFixation,jsons/v1_VE1000_randls_4_rotated.json,http://54.235.29.9/FacialAge/BNav_EC2/DepthDuration/v2_depth_duration_MTurk/v2_DepthDuration_HTML.html#139,139,1280,881,1280,1024,8-29-2022,14-46-32,81,depth_duration_stimuli/000483_2014-06-09_20-41-45_260595134347_rgbf000116-resize_4/000483_2014-06-09_20-41-45_260595134347_rgbf000116-resize_4-target.png,1000,1.337,2.0,4469,1010,feet,jsons/v1_VE1000_randls_4_rotated.json,1294188,1594699,52,Man
81,219617,DepthScenes,duration_manipulation_targetAtFixation,jsons/v1_VE1000_randls_4_rotated.json,http://54.235.29.9/FacialAge/BNav_EC2/DepthDuration/v2_depth_duration_MTurk/v2_DepthDuration_HTML.html#139,139,1280,881,1280,1024,8-29-2022,14-46-32,82,depth_duration_stimuli/000469_2014-06-09_19-42-10_260595134347_rgbf000081-resize_1/000469_2014-06-09_19-42-10_260595134347_rgbf000081-resize_1-target.png,1000,1.652,2.5,4650,1002,feet,jsons/v1_VE1000_randls_4_rotated.json,1294188,1594699,52,Man
82,219617,DepthScenes,duration_manipulation_targetAtFixation,jsons/v1_VE1000_randls_4_rotated.json,http://54.235.29.9/FacialAge/BNav_EC2/DepthDuration/v2_depth_duration_MTurk/v2_DepthDuration_HTML.html#139,139,1280,881,1280,1024,8-29-2022,14-46-32,83,depth_duration_stimuli/003495_2014-05-21_16-01-51_094959634447_rgbf000100-resize_3/003495_2014-05-21_16-01-51_094959634447_rgbf000100-resize_3-target.png,1000,1.6255,2.0,4045,1014,feet,jsons/v1_VE1000_randls_4_rotated.json,1294188,1594699,52,Man
83,219617,DepthScenes,duration_manipulation_targetAtFixation,jsons/v1_VE1000_randls_4_rotated.json,http://54.235.29.9/FacialAge/BNav_EC2/DepthDuration/v2_depth_duration_MTurk/v2_DepthDuration_HTML.html#139,139,1280,881,1280,1024,8-29-2022,14-46-32,84,depth_duration_stimuli/001244_2014-06-17_16-47-45_260595134347_rgbf000030-resize_4/001244_2014-06-17_16-47-45_260595134347_rgbf000030-resize_4-target.png,1000,2.0425,4.0,4550,1009,feet,jsons/v1_VE1000_randls_4_rotated.json,1294188,1594699,52,Man
84,219617,DepthScenes,duration_manipulation_targetAtFixation,jsons/v1_VE1000_randls_4_rotated.json,http://54.235.29.9/FacialAge/BNav_EC2/DepthDuration/v2_depth_duration_MTurk/v2_DepthDuration_HTML.html#139,139,1280,881,1280,1024,8-29-2022,14-46-32,85,depth_duration_stimuli/000691_2014-06-08_13-08-50_260595134347_rgbf000132-resize_3/000691_2014-06-08_13-08-50_260595134347_rgbf000132-resize_3-target.png,1000,4.1530000000000005,9.0,4314,1000,feet,jsons/v1_VE1000_randls_4_rotated.json,1294188,1594699,52,Man
85,219617,DepthScenes,duration_manipulation_targetAtFixation,jsons/v1_VE1000_randls_4_rotated.json,http://54.235.29.9/FacialAge/BNav_EC2/DepthDuration/v2_depth_duration_MTurk/v2_DepthDuration_HTML.html#139,139,1280,881,1280,1024,8-29-2022,14-46-32,86,depth_duration_stimuli/002213_2014-06-28_18-37-58_260595134347_rgbf000055-resize_1/002213_2014-06-28_18-37-58_260595134347_rgbf000055-resize_1-target.png,1000,3.62,11.0,4531,1000,feet,jsons/v1_VE1000_randls_4_rotated.json,1294188,1594699,52,Man
86,219617,DepthScenes,duration_manipulation_targetAtFixation,jsons/v1_VE1000_randls_4_rotated.json,http://54.235.29.9/FacialAge/BNav_EC2/DepthDuration/v2_depth_duration_MTurk/v2_DepthDuration_HTML.html#139,139,1280,881,1280,1024,8-29-2022,14-46-32,87,depth_duration_stimuli/001447_2014-06-19_17-00-32_260595134347_rgbf000082-resize_5/001447_2014-06-19_17-00-32_260595134347_rgbf000082-resize_5-target.png,1000,4.13775,8.0,4771,1007,feet,jsons/v1_VE1000_randls_4_rotated.json,1294188,1594699,52,Man
87,219617,DepthScenes,duration_manipulation_targetAtFixation,jsons/v1_VE1000_randls_4_rotated.json,http://54.235.29.9/FacialAge/BNav_EC2/DepthDuration/v2_depth_duration_MTurk/v2_DepthDuration_HTML.html#139,139,1280,881,1280,1024,8-29-2022,14-46-32,88,depth_duration_stimuli/000447_2014-06-08_16-15-46_260595134347_rgbf000130-resize_1/000447_2014-06-08_16-15-46_260595134347_rgbf000130-resize_1-target.png,1000,4.479,12.0,4597,993,feet,jsons/v1_VE1000_randls_4_rotated.json,1294188,1594699,52,Man
88,219617,DepthScenes,duration_manipulation_targetAtFixation,jsons/v1_VE1000_randls_4_rotated.json,http://54.235.29.9/FacialAge/BNav_EC2/DepthDuration/v2_depth_duration_MTurk/v2_DepthDuration_HTML.html#139,139,1280,881,1280,1024,8-29-2022,14-46-32,89,depth_duration_stimuli/002209_2014-06-28_18-36-10_260595134347_rgbf000051-resize_1/002209_2014-06-28_18-36-10_260595134347_rgbf000051-resize_1-target.png,1000,2.057,4.0,3929,1013,feet,jsons/v1_VE1000_randls_4_rotated.json,1294188,1594699,52,Man
89,219617,DepthScenes,duration_manipulation_targetAtFixation,jsons/v1_VE1000_randls_4_rotated.json,http://54.235.29.9/FacialAge/BNav_EC2/DepthDuration/v2_depth_duration_MTurk/v2_DepthDuration_HTML.html#139,139,1280,881,1280,1024,8-29-2022,14-46-32,90,depth_duration_stimuli/002763_2014-06-22_19-13-10_094959634447_rgbf000075-resize_4/002763_2014-06-22_19-13-10_094959634447_rgbf000075-resize_4-target.png,1000,1.68375,4.0,5520,990,feet,jsons/v1_VE1000_randls_4_rotated.json,1294188,1594699,52,Man
90,219617,DepthScenes,duration_manipulation_targetAtFixation,jsons/v1_VE1000_randls_4_rotated.json,http://54.235.29.9/FacialAge/BNav_EC2/DepthDuration/v2_depth_duration_MTurk/v2_DepthDuration_HTML.html#139,139,1280,881,1280,1024,8-29-2022,14-46-32,91,depth_duration_stimuli/002637_2014-06-24_14-51-13_094959634447_rgbf000066-resize_4/002637_2014-06-24_14-51-13_094959634447_rgbf000066-resize_4-target.png,1000,1.9955,4.5,4593,995,feet,jsons/v1_VE1000_randls_4_rotated.json,1294188,1594699,52,Man
91,219617,DepthScenes,duration_manipulation_targetAtFixation,jsons/v1_VE1000_randls_4_rotated.json,http://54.235.29.9/FacialAge/BNav_EC2/DepthDuration/v2_depth_duration_MTurk/v2_DepthDuration_HTML.html#139,139,1280,881,1280,1024,8-29-2022,14-46-32,92,depth_duration_stimuli/003534_2014-05-22_15-06-10_094959634447_rgbf000102-resize_4/003534_2014-05-22_15-06-10_094959634447_rgbf000102-resize_4-target.png,1000,1.426,2.5,4459,999,feet,jsons/v1_VE1000_randls_4_rotated.json,1294188,1594699,52,Man
92,219617,DepthScenes,duration_manipulation_targetAtFixation,jsons/v1_VE1000_randls_4_rotated.json,http://54.235.29.9/FacialAge/BNav_EC2/DepthDuration/v2_depth_duration_MTurk/v2_DepthDuration_HTML.html#139,139,1280,881,1280,1024,8-29-2022,14-46-32,93,depth_duration_stimuli/001828_2014-06-26_21-40-03_260595134347_rgbf000024-resize_0/001828_2014-06-26_21-40-03_260595134347_rgbf000024-resize_0-target.png,1000,4.8260000000000005,11.0,4456,1000,feet,jsons/v1_VE1000_randls_4_rotated.json,1294188,1594699,52,Man
93,219617,DepthScenes,duration_manipulation_targetAtFixation,jsons/v1_VE1000_randls_4_rotated.json,http://54.235.29.9/FacialAge/BNav_EC2/DepthDuration/v2_depth_duration_MTurk/v2_DepthDuration_HTML.html#139,139,1280,881,1280,1024,8-29-2022,14-46-32,94,depth_duration_stimuli/000009_2014-05-26_14-32-05_260595134347_rgbf000034-resize_3/000009_2014-05-26_14-32-05_260595134347_rgbf000034-resize_3-target.png,1000,3.8715,14.0,4417,1013,feet,jsons/v1_VE1000_randls_4_rotated.json,1294188,1594699,52,Man
94,219617,DepthScenes,duration_manipulation_targetAtFixation,jsons/v1_VE1000_randls_4_rotated.json,http://54.235.29.9/FacialAge/BNav_EC2/DepthDuration/v2_depth_duration_MTurk/v2_DepthDuration_HTML.html#139,139,1280,881,1280,1024,8-29-2022,14-46-32,95,depth_duration_stimuli/000635_2014-06-08_16-38-42_260595134347_rgbf000106-resize_1/000635_2014-06-08_16-38-42_260595134347_rgbf000106-resize_1-target.png,1000,2.074,7.0,4076,1002,feet,jsons/v1_VE1000_randls_4_rotated.json,1294188,1594699,52,Man
95,219617,DepthScenes,duration_manipulation_targetAtFixation,jsons/v1_VE1000_randls_4_rotated.json,http://54.235.29.9/FacialAge/BNav_EC2/DepthDuration/v2_depth_duration_MTurk/v2_DepthDuration_HTML.html#139,139,1280,881,1280,1024,8-29-2022,14-46-32,96,depth_duration_stimuli/002279_2014-06-28_18-55-32_260595134347_rgbf000040-resize_5/002279_2014-06-28_18-55-32_260595134347_rgbf000040-resize_5-target.png,1000,1.5043333333333,3.0,3732,995,feet,jsons/v1_VE1000_randls_4_rotated.json,1294188,1594699,52,Man
96,219617,DepthScenes,duration_manipulation_targetAtFixation,jsons/v1_VE1000_randls_4_rotated.json,http://54.235.29.9/FacialAge/BNav_EC2/DepthDuration/v2_depth_duration_MTurk/v2_DepthDuration_HTML.html#139,139,1280,881,1280,1024,8-29-2022,14-46-32,97,depth_duration_stimuli/000943_2014-06-09_19-31-07_260595134347_rgbf000128-resize_1/000943_2014-06-09_19-31-07_260595134347_rgbf000128-resize_1-target.png,1000,1.9765,4.0,4196,1011,feet,jsons/v1_VE1000_randls_4_rotated.json,1294188,1594699,52,Man
97,219617,DepthScenes,duration_manipulation_targetAtFixation,jsons/v1_VE1000_randls_4_rotated.json,http://54.235.29.9/FacialAge/BNav_EC2/DepthDuration/v2_depth_duration_MTurk/v2_DepthDuration_HTML.html#139,139,1280,881,1280,1024,8-29-2022,14-46-32,98,depth_duration_stimuli/003070_2014-06-15_14-58-27_094959634447_rgbf000150-resize_3/003070_2014-06-15_14-58-27_094959634447_rgbf000150-resize_3-target.png,1000,2.9415,7.0,4586,1000,feet,jsons/v1_VE1000_randls_4_rotated.json,1294188,1594699,52,Man
98,219617,DepthScenes,duration_manipulation_targetAtFixation,jsons/v1_VE1000_randls_4_rotated.json,http://54.235.29.9/FacialAge/BNav_EC2/DepthDuration/v2_depth_duration_MTurk/v2_DepthDuration_HTML.html#139,139,1280,881,1280,1024,8-29-2022,14-46-32,99,depth_duration_stimuli/001222_2014-06-17_16-24-06_260595134347_rgbf000073-resize_0/001222_2014-06-17_16-24-06_260595134347_rgbf000073-resize-original.jpg,1000,1.4385,0.0,4638,1003,feet,jsons/v1_VE1000_randls_4_rotated.json,1294188,1594699,52,Man
99,219617,DepthScenes,duration_manipulation_targetAtFixation,jsons/v1_VE1000_randls_4_rotated.json,http://54.235.29.9/FacialAge/BNav_EC2/DepthDuration/v2_depth_duration_MTurk/v2_DepthDuration_HTML.html#139,139,1280,881,1280,1024,8-29-2022,14-46-32,100,depth_duration_stimuli/002444_2014-06-28_20-32-08_260595134347_rgbf000027-resize_0/002444_2014-06-28_20-32-08_260595134347_rgbf000027-resize_0-target.png,1000,4.388999999999999,12.0,4043,997,feet,jsons/v1_VE1000_randls_4_rotated.json,1294188,1594699,52,Man
100,219617,DepthScenes,duration_manipulation_targetAtFixation,jsons/v1_VE1000_randls_4_rotated.json,http://54.235.29.9/FacialAge/BNav_EC2/DepthDuration/v2_depth_duration_MTurk/v2_DepthDuration_HTML.html#139,139,1280,881,1280,1024,8-29-2022,14-46-32,101,depth_duration_stimuli/000436_2014-06-09_22-25-11_260595134347_rgbf000137-resize_1/000436_2014-06-09_22-25-11_260595134347_rgbf000137-resize_1-target.png,1000,4.0705,13.0,5489,999,feet,jsons/v1_VE1000_randls_4_rotated.json,1294188,1594699,52,Man
101,219617,DepthScenes,duration_manipulation_targetAtFixation,jsons/v1_VE1000_randls_4_rotated.json,http://54.235.29.9/FacialAge/BNav_EC2/DepthDuration/v2_depth_duration_MTurk/v2_DepthDuration_HTML.html#139,139,1280,881,1280,1024,8-29-2022,14-46-32,102,depth_duration_stimuli/003423_2014-05-21_10-23-26_094959634447_rgbf002665-resize_2/003423_2014-05-21_10-23-26_094959634447_rgbf002665-resize_2-target.png,1000,3.2575,14.0,5667,995,feet,jsons/v1_VE1000_randls_4_rotated.json,1294188,1594699,52,Man
102,219617,DepthScenes,duration_manipulation_targetAtFixation,jsons/v1_VE1000_randls_4_rotated.json,http://54.235.29.9/FacialAge/BNav_EC2/DepthDuration/v2_depth_duration_MTurk/v2_DepthDuration_HTML.html#139,139,1280,881,1280,1024,8-29-2022,14-46-32,103,depth_duration_stimuli/002905_2014-06-03_18-04-43_094959634447_rgbf000151-resize_2/002905_2014-06-03_18-04-43_094959634447_rgbf000151-resize_2-target.png,1000,2.0295,4.0,4301,989,feet,jsons/v1_VE1000_randls_4_rotated.json,1294188,1594699,52,Man
103,219617,DepthScenes,duration_manipulation_targetAtFixation,jsons/v1_VE1000_randls_4_rotated.json,http://54.235.29.9/FacialAge/BNav_EC2/DepthDuration/v2_depth_duration_MTurk/v2_DepthDuration_HTML.html#139,139,1280,881,1280,1024,8-29-2022,14-46-32,104,depth_duration_stimuli/002995_2014-06-15_12-31-26_094959634447_rgbf000150-resize_1/002995_2014-06-15_12-31-26_094959634447_rgbf000150-resize_1-target.png,1000,3.8360000000000003,15.0,6213,991,feet,jsons/v1_VE1000_randls_4_rotated.json,1294188,1594699,52,Man
104,219617,DepthScenes,duration_manipulation_targetAtFixation,jsons/v1_VE1000_randls_4_rotated.json,http://54.235.29.9/FacialAge/BNav_EC2/DepthDuration/v2_depth_duration_MTurk/v2_DepthDuration_HTML.html#139,139,1280,881,1280,1024,8-29-2022,14-46-32,105,depth_duration_stimuli/002748_2014-06-22_19-07-22_094959634447_rgbf000078-resize_1/002748_2014-06-22_19-07-22_094959634447_rgbf000078-resize_1-target.png,1000,4.6705,20.0,4041,1002,feet,jsons/v1_VE1000_randls_4_rotated.json,1294188,1594699,52,Man
105,219617,DepthScenes,duration_manipulation_targetAtFixation,jsons/v1_VE1000_randls_4_rotated.json,http://54.235.29.9/FacialAge/BNav_EC2/DepthDuration/v2_depth_duration_MTurk/v2_DepthDuration_HTML.html#139,139,1280,881,1280,1024,8-29-2022,14-46-32,106,depth_duration_stimuli/002953_2014-06-08_17-32-18_094959634447_rgbf000059-resize_5/002953_2014-06-08_17-32-18_094959634447_rgbf000059-resize_5-target.png,1000,1.551,3.0,4469,987,feet,jsons/v1_VE1000_randls_4_rotated.json,1294188,1594699,52,Man
106,219617,DepthScenes,duration_manipulation_targetAtFixation,jsons/v1_VE1000_randls_4_rotated.json,http://54.235.29.9/FacialAge/BNav_EC2/DepthDuration/v2_depth_duration_MTurk/v2_DepthDuration_HTML.html#139,139,1280,881,1280,1024,8-29-2022,14-46-32,107,depth_duration_stimuli/000878_2014-06-08_22-52-45_260595134347_rgbf000045-resize_2/000878_2014-06-08_22-52-45_260595134347_rgbf000045-resize_2-target.png,1000,2.092,6.0,4383,993,feet,jsons/v1_VE1000_randls_4_rotated.json,1294188,1594699,52,Man
107,219617,DepthScenes,duration_manipulation_targetAtFixation,jsons/v1_VE1000_randls_4_rotated.json,http://54.235.29.9/FacialAge/BNav_EC2/DepthDuration/v2_depth_duration_MTurk/v2_DepthDuration_HTML.html#139,139,1280,881,1280,1024,8-29-2022,14-46-32,108,depth_duration_stimuli/002344_2014-06-28_20-06-29_260595134347_rgbf000030-resize_1/002344_2014-06-28_20-06-29_260595134347_rgbf000030-resize_1-target.png,1000,1.5795,2.0,3957,995,feet,jsons/v1_VE1000_randls_4_rotated.json,1294188,1594699,52,Man
108,219617,DepthScenes,duration_manipulation_targetAtFixation,jsons/v1_VE1000_randls_4_rotated.json,http://54.235.29.9/FacialAge/BNav_EC2/DepthDuration/v2_depth_duration_MTurk/v2_DepthDuration_HTML.html#139,139,1280,881,1280,1024,8-29-2022,14-46-32,109,depth_duration_stimuli/002725_2014-06-22_11-47-51_094959634447_rgbf000070-resize_1/002725_2014-06-22_11-47-51_094959634447_rgbf000070-resize_1-target.png,1000,2.195,6.0,3885,999,feet,jsons/v1_VE1000_randls_4_rotated.json,1294188,1594699,52,Man
109,219617,DepthScenes,duration_manipulation_targetAtFixation,jsons/v1_VE1000_randls_4_rotated.json,http://54.235.29.9/FacialAge/BNav_EC2/DepthDuration/v2_depth_duration_MTurk/v2_DepthDuration_HTML.html#139,139,1280,881,1280,1024,8-29-2022,14-46-32,110,depth_duration_stimuli/001650_2014-06-20_12-09-00_260595134347_rgbf000087-resize_3/001650_2014-06-20_12-09-00_260595134347_rgbf000087-resize_3-target.png,1000,1.9505,2.0,16263,999,feet,jsons/v1_VE1000_randls_4_rotated.json,1294188,1594699,52,Man
110,219617,DepthScenes,duration_manipulation_targetAtFixation,jsons/v1_VE1000_randls_4_rotated.json,http://54.235.29.9/FacialAge/BNav_EC2/DepthDuration/v2_depth_duration_MTurk/v2_DepthDuration_HTML.html#139,139,1280,881,1280,1024,8-29-2022,14-46-32,111,depth_duration_stimuli/000682_2014-06-08_23-14-58_260595134347_rgbf000041-resize_5/000682_2014-06-08_23-14-58_260595134347_rgbf000041-resize_5-target.png,1000,2.7239999999999998,4.0,16557,1000,feet,jsons/v1_VE1000_randls_4_rotated.json,1294188,1594699,52,Man
111,219617,DepthScenes,duration_manipulation_targetAtFixation,jsons/v1_VE1000_randls_4_rotated.json,http://54.235.29.9/FacialAge/BNav_EC2/DepthDuration/v2_depth_duration_MTurk/v2_DepthDuration_HTML.html#139,139,1280,881,1280,1024,8-29-2022,14-46-32,112,depth_duration_stimuli/001571_2014-06-20_17-21-32_260595134347_rgbf000089-resize_1/001571_2014-06-20_17-21-32_260595134347_rgbf000089-resize_1-target.png,1000,1.86,3.0,4210,1006,feet,jsons/v1_VE1000_randls_4_rotated.json,1294188,1594699,52,Man
112,219617,DepthScenes,duration_manipulation_targetAtFixation,jsons/v1_VE1000_randls_4_rotated.json,http://54.235.29.9/FacialAge/BNav_EC2/DepthDuration/v2_depth_duration_MTurk/v2_DepthDuration_HTML.html#139,139,1280,881,1280,1024,8-29-2022,14-46-32,113,depth_duration_stimuli/002272_2014-06-28_18-53-56_260595134347_rgbf000067-resize_2/002272_2014-06-28_18-53-56_260595134347_rgbf000067-resize_2-target.png,1000,1.138,2.0,3679,1000,feet,jsons/v1_VE1000_randls_4_rotated.json,1294188,1594699,52,Man
113,219617,DepthScenes,duration_manipulation_targetAtFixation,jsons/v1_VE1000_randls_4_rotated.json,http://54.235.29.9/FacialAge/BNav_EC2/DepthDuration/v2_depth_duration_MTurk/v2_DepthDuration_HTML.html#139,139,1280,881,1280,1024,8-29-2022,14-46-32,114,depth_duration_stimuli/002657_2014-06-13_15-29-54_094959634447_rgbf000150-resize_1/002657_2014-06-13_15-29-54_094959634447_rgbf000150-resize_1-target.png,1000,4.919,10.0,14392,991,feet,jsons/v1_VE1000_randls_4_rotated.json,1294188,1594699,52,Man
114,219617,DepthScenes,duration_manipulation_targetAtFixation,jsons/v1_VE1000_randls_4_rotated.json,http://54.235.29.9/FacialAge/BNav_EC2/DepthDuration/v2_depth_duration_MTurk/v2_DepthDuration_HTML.html#139,139,1280,881,1280,1024,8-29-2022,14-46-32,115,depth_duration_stimuli/002375_2014-06-28_20-13-44_260595134347_rgbf000032-resize_1/002375_2014-06-28_20-13-44_260595134347_rgbf000032-resize_1-target.png,1000,4.0175,8.0,5155,1001,feet,jsons/v1_VE1000_randls_4_rotated.json,1294188,1594699,52,Man
115,219617,DepthScenes,duration_manipulation_targetAtFixation,jsons/v1_VE1000_randls_4_rotated.json,http://54.235.29.9/FacialAge/BNav_EC2/DepthDuration/v2_depth_duration_MTurk/v2_DepthDuration_HTML.html#139,139,1280,881,1280,1024,8-29-2022,14-46-32,116,depth_duration_stimuli/003079_2014-06-15_15-18-20_094959634447_rgbf000152-resize_8/003079_2014-06-15_15-18-20_094959634447_rgbf000152-resize_8-target.png,1000,2.8775,10.0,4241,1007,feet,jsons/v1_VE1000_randls_4_rotated.json,1294188,1594699,52,Man
116,219617,DepthScenes,duration_manipulation_targetAtFixation,jsons/v1_VE1000_randls_4_rotated.json,http://54.235.29.9/FacialAge/BNav_EC2/DepthDuration/v2_depth_duration_MTurk/v2_DepthDuration_HTML.html#139,139,1280,881,1280,1024,8-29-2022,14-46-32,117,depth_duration_stimuli/000506_2014-06-08_23-21-00_260595134347_rgbf000070-resize_7/000506_2014-06-08_23-21-00_260595134347_rgbf000070-resize_7-target.png,1000,4.0585,11.0,4253,999,feet,jsons/v1_VE1000_randls_4_rotated.json,1294188,1594699,52,Man
117,219617,DepthScenes,duration_manipulation_targetAtFixation,jsons/v1_VE1000_randls_4_rotated.json,http://54.235.29.9/FacialAge/BNav_EC2/DepthDuration/v2_depth_duration_MTurk/v2_DepthDuration_HTML.html#139,139,1280,881,1280,1024,8-29-2022,14-46-32,118,depth_duration_stimuli/001094_2014-06-15_17-36-00_260595134347_rgbf000205-resize_0/001094_2014-06-15_17-36-00_260595134347_rgbf000205-resize_0-target.png,1000,4.2175,12.0,4091,999,feet,jsons/v1_VE1000_randls_4_rotated.json,1294188,1594699,52,Man
118,219617,DepthScenes,duration_manipulation_targetAtFixation,jsons/v1_VE1000_randls_4_rotated.json,http://54.235.29.9/FacialAge/BNav_EC2/DepthDuration/v2_depth_duration_MTurk/v2_DepthDuration_HTML.html#139,139,1280,881,1280,1024,8-29-2022,14-46-32,119,depth_duration_stimuli/000692_2014-06-08_13-09-42_260595134347_rgbf000199-resize_2/000692_2014-06-08_13-09-42_260595134347_rgbf000199-resize_2-target.png,1000,3.661,10.0,4089,998,feet,jsons/v1_VE1000_randls_4_rotated.json,1294188,1594699,52,Man
119,219617,DepthScenes,duration_manipulation_targetAtFixation,jsons/v1_VE1000_randls_4_rotated.json,http://54.235.29.9/FacialAge/BNav_EC2/DepthDuration/v2_depth_duration_MTurk/v2_DepthDuration_HTML.html#139,139,1280,881,1280,1024,8-29-2022,14-46-32,120,depth_duration_stimuli/000787_2014-06-08_22-33-53_260595134347_rgbf000175-resize_1/000787_2014-06-08_22-33-53_260595134347_rgbf000175-resize-original.jpg,1000,4.784,0.0,4254,1002,feet,jsons/v1_VE1000_randls_4_rotated.json,1294188,1594699,52,Man
120,219617,DepthScenes,duration_manipulation_targetAtFixation,jsons/v1_VE1000_randls_4_rotated.json,http://54.235.29.9/FacialAge/BNav_EC2/DepthDuration/v2_depth_duration_MTurk/v2_DepthDuration_HTML.html#139,139,1280,881,1280,1024,8-29-2022,14-46-32,121,depth_duration_stimuli/001584_2014-06-20_11-07-43_260595134347_rgbf000002-resize_1/001584_2014-06-20_11-07-43_260595134347_rgbf000002-resize_1-target.png,1000,3.53,7.0,26720,1000,feet,jsons/v1_VE1000_randls_4_rotated.json,1294188,1594699,52,Man
121,219617,DepthScenes,duration_manipulation_targetAtFixation,jsons/v1_VE1000_randls_4_rotated.json,http://54.235.29.9/FacialAge/BNav_EC2/DepthDuration/v2_depth_duration_MTurk/v2_DepthDuration_HTML.html#139,139,1280,881,1280,1024,8-29-2022,14-46-32,122,depth_duration_stimuli/003621_2014-05-23_18-06-08_094959634447_rgbf000101-resize_1/003621_2014-05-23_18-06-08_094959634447_rgbf000101-resize_1-target.png,1000,3.9835,12.0,5205,1008,feet,jsons/v1_VE1000_randls_4_rotated.json,1294188,1594699,52,Man
122,219617,DepthScenes,duration_manipulation_targetAtFixation,jsons/v1_VE1000_randls_4_rotated.json,http://54.235.29.9/FacialAge/BNav_EC2/DepthDuration/v2_depth_duration_MTurk/v2_DepthDuration_HTML.html#139,139,1280,881,1280,1024,8-29-2022,14-46-32,123,depth_duration_stimuli/002340_2014-06-28_20-05-46_260595134347_rgbf000113-resize_0/002340_2014-06-28_20-05-46_260595134347_rgbf000113-resize_0-target.png,1000,2.4735,10.0,4560,1005,feet,jsons/v1_VE1000_randls_4_rotated.json,1294188,1594699,52,Man
123,219617,DepthScenes,duration_manipulation_targetAtFixation,jsons/v1_VE1000_randls_4_rotated.json,http://54.235.29.9/FacialAge/BNav_EC2/DepthDuration/v2_depth_duration_MTurk/v2_DepthDuration_HTML.html#139,139,1280,881,1280,1024,8-29-2022,14-46-32,124,depth_duration_stimuli/001016_2014-06-09_16-16-10_260595134347_rgbf000112-resize_5/001016_2014-06-09_16-16-10_260595134347_rgbf000112-resize_5-target.png,1000,1.6565,5.0,4296,1007,feet,jsons/v1_VE1000_randls_4_rotated.json,1294188,1594699,52,Man
124,219617,DepthScenes,duration_manipulation_targetAtFixation,jsons/v1_VE1000_randls_4_rotated.json,http://54.235.29.9/FacialAge/BNav_EC2/DepthDuration/v2_depth_duration_MTurk/v2_DepthDuration_HTML.html#139,139,1280,881,1280,1024,8-29-2022,14-46-32,125,depth_duration_stimuli/000854_2014-06-09_19-43-13_260595134347_rgbf000066-resize_0/000854_2014-06-09_19-43-13_260595134347_rgbf000066-resize_0-target.png,1000,3.068,6.0,3762,999,feet,jsons/v1_VE1000_randls_4_rotated.json,1294188,1594699,52,Man
125,219617,DepthScenes,duration_manipulation_targetAtFixation,jsons/v1_VE1000_randls_4_rotated.json,http://54.235.29.9/FacialAge/BNav_EC2/DepthDuration/v2_depth_duration_MTurk/v2_DepthDuration_HTML.html#139,139,1280,881,1280,1024,8-29-2022,14-46-32,126,depth_duration_stimuli/000758_2014-06-08_22-05-08_260595134347_rgbf000085-resize_0/000758_2014-06-08_22-05-08_260595134347_rgbf000085-resize_0-target.png,1000,3.3810000000000002,11.0,4407,994,feet,jsons/v1_VE1000_randls_4_rotated.json,1294188,1594699,52,Man
126,219617,DepthScenes,duration_manipulation_targetAtFixation,jsons/v1_VE1000_randls_4_rotated.json,http://54.235.29.9/FacialAge/BNav_EC2/DepthDuration/v2_depth_duration_MTurk/v2_DepthDuration_HTML.html#139,139,1280,881,1280,1024,8-29-2022,14-46-32,127,depth_duration_stimuli/001235_2014-06-17_16-37-36_260595134347_rgbf000084-resize_4/001235_2014-06-17_16-37-36_260595134347_rgbf000084-resize_4-target.png,1000,3.6605,8.0,4863,999,feet,jsons/v1_VE1000_randls_4_rotated.json,1294188,1594699,52,Man
127,219617,DepthScenes,duration_manipulation_targetAtFixation,jsons/v1_VE1000_randls_4_rotated.json,http://54.235.29.9/FacialAge/BNav_EC2/DepthDuration/v2_depth_duration_MTurk/v2_DepthDuration_HTML.html#139,139,1280,881,1280,1024,8-29-2022,14-46-32,128,depth_duration_stimuli/000788_2014-06-08_22-34-36_260595134347_rgbf000131-resize_1/000788_2014-06-08_22-34-36_260595134347_rgbf000131-resize_1-target.png,1000,3.359,7.0,3888,992,feet,jsons/v1_VE1000_randls_4_rotated.json,1294188,1594699,52,Man
128,219617,DepthScenes,duration_manipulation_targetAtFixation,jsons/v1_VE1000_randls_4_rotated.json,http://54.235.29.9/FacialAge/BNav_EC2/DepthDuration/v2_depth_duration_MTurk/v2_DepthDuration_HTML.html#139,139,1280,881,1280,1024,8-29-2022,14-46-32,129,depth_duration_stimuli/002758_2014-06-22_19-11-20_094959634447_rgbf000128-resize_1/002758_2014-06-22_19-11-20_094959634447_rgbf000128-resize_1-target.png,1000,2.555,5.0,4073,1000,feet,jsons/v1_VE1000_randls_4_rotated.json,1294188,1594699,52,Man
129,219617,DepthScenes,duration_manipulation_targetAtFixation,jsons/v1_VE1000_randls_4_rotated.json,http://54.235.29.9/FacialAge/BNav_EC2/DepthDuration/v2_depth_duration_MTurk/v2_DepthDuration_HTML.html#139,139,1280,881,1280,1024,8-29-2022,14-46-32,130,depth_duration_stimuli/002630_2014-06-24_14-47-50_094959634447_rgbf000055-resize_1/002630_2014-06-24_14-47-50_094959634447_rgbf000055-resize_1-target.png,1000,3.0095,12.0,3908,987,feet,jsons/v1_VE1000_randls_4_rotated.json,1294188,1594699,52,Man
130,219617,DepthScenes,duration_manipulation_targetAtFixation,jsons/v1_VE1000_randls_4_rotated.json,http://54.235.29.9/FacialAge/BNav_EC2/DepthDuration/v2_depth_duration_MTurk/v2_DepthDuration_HTML.html#139,139,1280,881,1280,1024,8-29-2022,14-46-32,131,depth_duration_stimuli/003338_2014-05-20_11-01-23_094959634447_rgbf000051-resize_6/003338_2014-05-20_11-01-23_094959634447_rgbf000051-resize_6-target.png,1000,1.693,6.0,16422,999,feet,jsons/v1_VE1000_randls_4_rotated.json,1294188,1594699,52,Man
131,219617,DepthScenes,duration_manipulation_targetAtFixation,jsons/v1_VE1000_randls_4_rotated.json,http://54.235.29.9/FacialAge/BNav_EC2/DepthDuration/v2_depth_duration_MTurk/v2_DepthDuration_HTML.html#139,139,1280,881,1280,1024,8-29-2022,14-46-32,132,depth_duration_stimuli/002509_2014-06-24_13-19-22_094959634447_rgbf000077-resize_0/002509_2014-06-24_13-19-22_094959634447_rgbf000077-resize_0-target.png,1000,1.3065,2.0,3624,999,feet,jsons/v1_VE1000_randls_4_rotated.json,1294188,1594699,52,Man
132,219617,DepthScenes,duration_manipulation_targetAtFixation,jsons/v1_VE1000_randls_4_rotated.json,http://54.235.29.9/FacialAge/BNav_EC2/DepthDuration/v2_depth_duration_MTurk/v2_DepthDuration_HTML.html#139,139,1280,881,1280,1024,8-29-2022,14-46-32,133,depth_duration_stimuli/000709_2014-06-08_13-51-55_260595134347_rgbf000068-resize_3/000709_2014-06-08_13-51-55_260595134347_rgbf000068-resize_3-target.png,1000,1.8030000000000002,4.5,6786,1003,feet,jsons/v1_VE1000_randls_4_rotated.json,1294188,1594699,52,Man
133,219617,DepthScenes,duration_manipulation_targetAtFixation,jsons/v1_VE1000_randls_4_rotated.json,http://54.235.29.9/FacialAge/BNav_EC2/DepthDuration/v2_depth_duration_MTurk/v2_DepthDuration_HTML.html#139,139,1280,881,1280,1024,8-29-2022,14-46-32,134,depth_duration_stimuli/002057_2014-06-24_21-00-13_260595134347_rgbf000120-resize_1/002057_2014-06-24_21-00-13_260595134347_rgbf000120-resize_1-target.png,1000,2.967,11.0,3763,1002,feet,jsons/v1_VE1000_randls_4_rotated.json,1294188,1594699,52,Man
134,219617,DepthScenes,duration_manipulation_targetAtFixation,jsons/v1_VE1000_randls_4_rotated.json,http://54.235.29.9/FacialAge/BNav_EC2/DepthDuration/v2_depth_duration_MTurk/v2_DepthDuration_HTML.html#139,139,1280,881,1280,1024,8-29-2022,14-46-32,135,depth_duration_stimuli/000375_2014-06-08_11-17-29_260595134347_rgbf000133-resize_2/000375_2014-06-08_11-17-29_260595134347_rgbf000133-resize-original.jpg,1000,4.718,0.0,3974,993,feet,jsons/v1_VE1000_randls_4_rotated.json,1294188,1594699,52,Man
135,219617,DepthScenes,duration_manipulation_targetAtFixation,jsons/v1_VE1000_randls_4_rotated.json,http://54.235.29.9/FacialAge/BNav_EC2/DepthDuration/v2_depth_duration_MTurk/v2_DepthDuration_HTML.html#139,139,1280,881,1280,1024,8-29-2022,14-46-32,136,depth_duration_stimuli/000665_2014-06-09_20-42-35_260595134347_rgbf000110-resize_1/000665_2014-06-09_20-42-35_260595134347_rgbf000110-resize_1-target.png,1000,3.057,8.0,3878,1000,feet,jsons/v1_VE1000_randls_4_rotated.json,1294188,1594699,52,Man
136,219617,DepthScenes,duration_manipulation_targetAtFixation,jsons/v1_VE1000_randls_4_rotated.json,http://54.235.29.9/FacialAge/BNav_EC2/DepthDuration/v2_depth_duration_MTurk/v2_DepthDuration_HTML.html#139,139,1280,881,1280,1024,8-29-2022,14-46-32,137,depth_duration_stimuli/001150_2014-06-17_15-27-34_260595134347_rgbf000108-resize_2/001150_2014-06-17_15-27-34_260595134347_rgbf000108-resize_2-target.png,1000,4.0325,10.0,4451,999,feet,jsons/v1_VE1000_randls_4_rotated.json,1294188,1594699,52,Man
137,219617,DepthScenes,duration_manipulation_targetAtFixation,jsons/v1_VE1000_randls_4_rotated.json,http://54.235.29.9/FacialAge/BNav_EC2/DepthDuration/v2_depth_duration_MTurk/v2_DepthDuration_HTML.html#139,139,1280,881,1280,1024,8-29-2022,14-46-32,138,depth_duration_stimuli/003083_2014-06-15_15-21-03_094959634447_rgbf000063-resize_1/003083_2014-06-15_15-21-03_094959634447_rgbf000063-resize_1-target.png,1000,4.1405,12.0,3994,998,feet,jsons/v1_VE1000_randls_4_rotated.json,1294188,1594699,52,Man
138,219617,DepthScenes,duration_manipulation_targetAtFixation,jsons/v1_VE1000_randls_4_rotated.json,http://54.235.29.9/FacialAge/BNav_EC2/DepthDuration/v2_depth_duration_MTurk/v2_DepthDuration_HTML.html#139,139,1280,881,1280,1024,8-29-2022,14-46-32,139,depth_duration_stimuli/000486_2014-06-09_20-47-20_260595134347_rgbf000143-resize_2/000486_2014-06-09_20-47-20_260595134347_rgbf000143-resize_2-target.png,1000,4.8325,11.0,4210,989,feet,jsons/v1_VE1000_randls_4_rotated.json,1294188,1594699,52,Man
139,219617,DepthScenes,duration_manipulation_targetAtFixation,jsons/v1_VE1000_randls_4_rotated.json,http://54.235.29.9/FacialAge/BNav_EC2/DepthDuration/v2_depth_duration_MTurk/v2_DepthDuration_HTML.html#139,139,1280,881,1280,1024,8-29-2022,14-46-32,140,depth_duration_stimuli/000556_2014-06-09_22-42-56_260595134347_rgbf000214-resize_1/000556_2014-06-09_22-42-56_260595134347_rgbf000214-resize_1-target.png,1000,4.8415,14.0,4390,1004,feet,jsons/v1_VE1000_randls_4_rotated.json,1294188,1594699,52,Man
140,219617,DepthScenes,duration_manipulation_targetAtFixation,jsons/v1_VE1000_randls_4_rotated.json,http://54.235.29.9/FacialAge/BNav_EC2/DepthDuration/v2_depth_duration_MTurk/v2_DepthDuration_HTML.html#139,139,1280,881,1280,1024,8-29-2022,14-46-32,141,depth_duration_stimuli/001158_2014-06-17_15-32-16_260595134347_rgbf000138-resize_2/001158_2014-06-17_15-32-16_260595134347_rgbf000138-resize_2-target.png,1000,4.5315,12.0,4698,1000,feet,jsons/v1_VE1000_randls_4_rotated.json,1294188,1594699,52,Man
141,219617,DepthScenes,duration_manipulation_targetAtFixation,jsons/v1_VE1000_randls_4_rotated.json,http://54.235.29.9/FacialAge/BNav_EC2/DepthDuration/v2_depth_duration_MTurk/v2_DepthDuration_HTML.html#139,139,1280,881,1280,1024,8-29-2022,14-46-32,142,depth_duration_stimuli/001516_2014-06-20_16-25-09_260595134347_rgbf000076-resize_2/001516_2014-06-20_16-25-09_260595134347_rgbf000076-resize_2-target.png,1000,1.7445,5.5,5348,994,feet,jsons/v1_VE1000_randls_4_rotated.json,1294188,1594699,52,Man
142,219617,DepthScenes,duration_manipulation_targetAtFixation,jsons/v1_VE1000_randls_4_rotated.json,http://54.235.29.9/FacialAge/BNav_EC2/DepthDuration/v2_depth_duration_MTurk/v2_DepthDuration_HTML.html#139,139,1280,881,1280,1024,8-29-2022,14-46-32,143,depth_duration_stimuli/002118_2014-06-25_20-32-08_260595134347_rgbf000078-resize_1/002118_2014-06-25_20-32-08_260595134347_rgbf000078-resize_1-target.png,1000,2.6460000000000004,5.0,3911,1001,feet,jsons/v1_VE1000_randls_4_rotated.json,1294188,1594699,52,Man
143,219617,DepthScenes,duration_manipulation_targetAtFixation,jsons/v1_VE1000_randls_4_rotated.json,http://54.235.29.9/FacialAge/BNav_EC2/DepthDuration/v2_depth_duration_MTurk/v2_DepthDuration_HTML.html#139,139,1280,881,1280,1024,8-29-2022,14-46-32,144,depth_duration_stimuli/002136_2014-06-25_21-18-03_260595134347_rgbf000109-resize_3/002136_2014-06-25_21-18-03_260595134347_rgbf000109-resize_3-target.png,1000,1.9569999999999999,5.5,4511,1000,feet,jsons/v1_VE1000_randls_4_rotated.json,1294188,1594699,52,Man
144,219617,DepthScenes,duration_manipulation_targetAtFixation,jsons/v1_VE1000_randls_4_rotated.json,http://54.235.29.9/FacialAge/BNav_EC2/DepthDuration/v2_depth_duration_MTurk/v2_DepthDuration_HTML.html#139,139,1280,881,1280,1024,8-29-2022,14-46-32,145,depth_duration_stimuli/002964_2014-06-08_17-46-11_094959634447_rgbf000091-resize_4/002964_2014-06-08_17-46-11_094959634447_rgbf000091-resize_4-target.png,1000,1.6909999999999998,4.0,26833,1012,feet,jsons/v1_VE1000_randls_4_rotated.json,1294188,1594699,52,Man
145,219617,DepthScenes,duration_manipulation_targetAtFixation,jsons/v1_VE1000_randls_4_rotated.json,http://54.235.29.9/FacialAge/BNav_EC2/DepthDuration/v2_depth_duration_MTurk/v2_DepthDuration_HTML.html#139,139,1280,881,1280,1024,8-29-2022,14-46-32,146,depth_duration_stimuli/001392_2014-06-19_16-07-59_260595134347_rgbf000046-resize_1/001392_2014-06-19_16-07-59_260595134347_rgbf000046-resize_1-target.png,1000,4.135,11.0,4408,1001,feet,jsons/v1_VE1000_randls_4_rotated.json,1294188,1594699,52,Man
146,219617,DepthScenes,duration_manipulation_targetAtFixation,jsons/v1_VE1000_randls_4_rotated.json,http://54.235.29.9/FacialAge/BNav_EC2/DepthDuration/v2_depth_duration_MTurk/v2_DepthDuration_HTML.html#139,139,1280,881,1280,1024,8-29-2022,14-46-32,147,depth_duration_stimuli/001570_2014-06-20_17-21-09_260595134347_rgbf000135-resize_4/001570_2014-06-20_17-21-09_260595134347_rgbf000135-resize_4-target.png,1000,4.467,12.0,7332,1002,feet,jsons/v1_VE1000_randls_4_rotated.json,1294188,1594699,52,Man
147,219617,DepthScenes,duration_manipulation_targetAtFixation,jsons/v1_VE1000_randls_4_rotated.json,http://54.235.29.9/FacialAge/BNav_EC2/DepthDuration/v2_depth_duration_MTurk/v2_DepthDuration_HTML.html#139,139,1280,881,1280,1024,8-29-2022,14-46-32,148,depth_duration_stimuli/001132_2014-06-17_14-48-54_260595134347_rgbf000100-resize_2/001132_2014-06-17_14-48-54_260595134347_rgbf000100-resize_2-target.png,1000,3.753,12.0,8921,999,feet,jsons/v1_VE1000_randls_4_rotated.json,1294188,1594699,52,Man
148,219617,DepthScenes,duration_manipulation_targetAtFixation,jsons/v1_VE1000_randls_4_rotated.json,http://54.235.29.9/FacialAge/BNav_EC2/DepthDuration/v2_depth_duration_MTurk/v2_DepthDuration_HTML.html#139,139,1280,881,1280,1024,8-29-2022,14-46-32,149,depth_duration_stimuli/001133_2014-06-17_14-49-16_260595134347_rgbf000100-resize_0/001133_2014-06-17_14-49-16_260595134347_rgbf000100-resize_0-target.png,1000,4.2115,14.0,4541,995,feet,jsons/v1_VE1000_randls_4_rotated.json,1294188,1594699,52,Man
149,219617,DepthScenes,duration_manipulation_targetAtFixation,jsons/v1_VE1000_randls_4_rotated.json,http://54.235.29.9/FacialAge/BNav_EC2/DepthDuration/v2_depth_duration_MTurk/v2_DepthDuration_HTML.html#139,139,1280,881,1280,1024,8-29-2022,14-46-32,150,depth_duration_stimuli/003129_2014-05-12_10-48-10_094959634447_rgbf000100-resize_0/003129_2014-05-12_10-48-10_094959634447_rgbf000100-resize_0-target.png,1000,4.9305,13.0,4441,1000,feet,jsons/v1_VE1000_randls_4_rotated.json,1294188,1594699,52,Man
150,219617,DepthScenes,duration_manipulation_targetAtFixation,jsons/v1_VE1000_randls_4_rotated.json,http://54.235.29.9/FacialAge/BNav_EC2/DepthDuration/v2_depth_duration_MTurk/v2_DepthDuration_HTML.html#139,139,1280,881,1280,1024,8-29-2022,14-46-32,151,depth_duration_stimuli/000414_2014-06-04_19-49-13_260595134347_rgbf000044-resize_0/000414_2014-06-04_19-49-13_260595134347_rgbf000044-resize_0-target.png,1000,4.329,16.0,4452,998,feet,jsons/v1_VE1000_randls_4_rotated.json,1294188,1594699,52,Man
151,219617,DepthScenes,duration_manipulation_targetAtFixation,jsons/v1_VE1000_randls_4_rotated.json,http://54.235.29.9/FacialAge/BNav_EC2/DepthDuration/v2_depth_duration_MTurk/v2_DepthDuration_HTML.html#139,139,1280,881,1280,1024,8-29-2022,14-46-32,152,depth_duration_stimuli/000569_2014-06-09_22-51-47_260595134347_rgbf000141-resize_3/000569_2014-06-09_22-51-47_260595134347_rgbf000141-resize-original.jpg,1000,4.512,0.0,4306,997,feet,jsons/v1_VE1000_randls_4_rotated.json,1294188,1594699,52,Man
152,219617,DepthScenes,duration_manipulation_targetAtFixation,jsons/v1_VE1000_randls_4_rotated.json,http://54.235.29.9/FacialAge/BNav_EC2/DepthDuration/v2_depth_duration_MTurk/v2_DepthDuration_HTML.html#139,139,1280,881,1280,1024,8-29-2022,14-46-32,153,depth_duration_stimuli/001136_2014-06-17_15-19-41_260595134347_rgbf000076-resize_3/001136_2014-06-17_15-19-41_260595134347_rgbf000076-resize_3-target.png,1000,1.8655,6.0,4415,997,feet,jsons/v1_VE1000_randls_4_rotated.json,1294188,1594699,52,Man
153,219617,DepthScenes,duration_manipulation_targetAtFixation,jsons/v1_VE1000_randls_4_rotated.json,http://54.235.29.9/FacialAge/BNav_EC2/DepthDuration/v2_depth_duration_MTurk/v2_DepthDuration_HTML.html#139,139,1280,881,1280,1024,8-29-2022,14-46-32,154,depth_duration_stimuli/001164_2014-06-17_15-35-46_260595134347_rgbf000085-resize_3/001164_2014-06-17_15-35-46_260595134347_rgbf000085-resize_3-target.png,1000,2.354,6.5,4967,1002,feet,jsons/v1_VE1000_randls_4_rotated.json,1294188,1594699,52,Man
154,219617,DepthScenes,duration_manipulation_targetAtFixation,jsons/v1_VE1000_randls_4_rotated.json,http://54.235.29.9/FacialAge/BNav_EC2/DepthDuration/v2_depth_duration_MTurk/v2_DepthDuration_HTML.html#139,139,1280,881,1280,1024,8-29-2022,14-46-32,155,depth_duration_stimuli/000734_2014-06-08_17-39-11_260595134347_rgbf000128-resize_2/000734_2014-06-08_17-39-11_260595134347_rgbf000128-resize_2-target.png,1000,4.098,7.0,35029,998,feet,jsons/v1_VE1000_randls_4_rotated.json,1294188,1594699,52,Man
155,219617,DepthScenes,duration_manipulation_targetAtFixation,jsons/v1_VE1000_randls_4_rotated.json,http://54.235.29.9/FacialAge/BNav_EC2/DepthDuration/v2_depth_duration_MTurk/v2_DepthDuration_HTML.html#139,139,1280,881,1280,1024,8-29-2022,14-46-32,156,depth_duration_stimuli/000739_2014-06-08_18-45-58_260595134347_rgbf000068-resize_1/000739_2014-06-08_18-45-58_260595134347_rgbf000068-resize_1-target.png,1000,3.534,8.0,4748,992,feet,jsons/v1_VE1000_randls_4_rotated.json,1294188,1594699,52,Man
156,219617,DepthScenes,duration_manipulation_targetAtFixation,jsons/v1_VE1000_randls_4_rotated.json,http://54.235.29.9/FacialAge/BNav_EC2/DepthDuration/v2_depth_duration_MTurk/v2_DepthDuration_HTML.html#139,139,1280,881,1280,1024,8-29-2022,14-46-32,157,depth_duration_stimuli/003228_2014-05-14_13-42-35_094959634447_rgbf000101-resize_1/003228_2014-05-14_13-42-35_094959634447_rgbf000101-resize_1-target.png,1000,1.9680000000000002,4.0,5998,996,feet,jsons/v1_VE1000_randls_4_rotated.json,1294188,1594699,52,Man
157,219617,DepthScenes,duration_manipulation_targetAtFixation,jsons/v1_VE1000_randls_4_rotated.json,http://54.235.29.9/FacialAge/BNav_EC2/DepthDuration/v2_depth_duration_MTurk/v2_DepthDuration_HTML.html#139,139,1280,881,1280,1024,8-29-2022,14-46-32,158,depth_duration_stimuli/002600_2014-06-24_14-27-04_094959634447_rgbf000074-resize_2/002600_2014-06-24_14-27-04_094959634447_rgbf000074-resize_2-target.png,1000,2.7575,7.0,3825,1015,feet,jsons/v1_VE1000_randls_4_rotated.json,1294188,1594699,52,Man
158,219617,DepthScenes,duration_manipulation_targetAtFixation,jsons/v1_VE1000_randls_4_rotated.json,http://54.235.29.9/FacialAge/BNav_EC2/DepthDuration/v2_depth_duration_MTurk/v2_DepthDuration_HTML.html#139,139,1280,881,1280,1024,8-29-2022,14-46-32,159,depth_duration_stimuli/000137_2014-05-20_17-04-49_260595134347_rgbf000120-resize_1/000137_2014-05-20_17-04-49_260595134347_rgbf000120-resize_1-target.png,1000,3.786,10.0,3857,997,feet,jsons/v1_VE1000_randls_4_rotated.json,1294188,1594699,52,Man
159,219617,DepthScenes,duration_manipulation_targetAtFixation,jsons/v1_VE1000_randls_4_rotated.json,http://54.235.29.9/FacialAge/BNav_EC2/DepthDuration/v2_depth_duration_MTurk/v2_DepthDuration_HTML.html#139,139,1280,881,1280,1024,8-29-2022,14-46-32,160,depth_duration_stimuli/000736_2014-06-08_18-24-15_260595134347_rgbf000206-resize_3/000736_2014-06-08_18-24-15_260595134347_rgbf000206-resize_3-target.png,1000,3.515,8.0,4272,998,feet,jsons/v1_VE1000_randls_4_rotated.json,1294188,1594699,52,Man
160,219617,DepthScenes,duration_manipulation_targetAtFixation,jsons/v1_VE1000_randls_4_rotated.json,http://54.235.29.9/FacialAge/BNav_EC2/DepthDuration/v2_depth_duration_MTurk/v2_DepthDuration_HTML.html#139,139,1280,881,1280,1024,8-29-2022,14-46-32,161,depth_duration_stimuli/002875_2014-06-01_15-19-00_094959634447_rgbf000151-resize_1/002875_2014-06-01_15-19-00_094959634447_rgbf000151-resize_1-target.png,1000,1.9675,4.0,3649,990,feet,jsons/v1_VE1000_randls_4_rotated.json,1294188,1594699,52,Man
161,219617,DepthScenes,duration_manipulation_targetAtFixation,jsons/v1_VE1000_randls_4_rotated.json,http://54.235.29.9/FacialAge/BNav_EC2/DepthDuration/v2_depth_duration_MTurk/v2_DepthDuration_HTML.html#139,139,1280,881,1280,1024,8-29-2022,14-46-32,162,depth_duration_stimuli/001011_2014-06-08_23-18-54_260595134347_rgbf000044-resize_4/001011_2014-06-08_23-18-54_260595134347_rgbf000044-resize_4-target.png,1000,2.4730000000000003,10.0,11900,1001,feet,jsons/v1_VE1000_randls_4_rotated.json,1294188,1594699,52,Man
162,219617,DepthScenes,duration_manipulation_targetAtFixation,jsons/v1_VE1000_randls_4_rotated.json,http://54.235.29.9/FacialAge/BNav_EC2/DepthDuration/v2_depth_duration_MTurk/v2_DepthDuration_HTML.html#139,139,1280,881,1280,1024,8-29-2022,14-46-32,163,depth_duration_stimuli/000866_2014-06-09_20-45-42_260595134347_rgbf000139-resize_1/000866_2014-06-09_20-45-42_260595134347_rgbf000139-resize_1-target.png,1000,3.2155,7.0,4069,999,feet,jsons/v1_VE1000_randls_4_rotated.json,1294188,1594699,52,Man
163,219617,DepthScenes,duration_manipulation_targetAtFixation,jsons/v1_VE1000_randls_4_rotated.json,http://54.235.29.9/FacialAge/BNav_EC2/DepthDuration/v2_depth_duration_MTurk/v2_DepthDuration_HTML.html#139,139,1280,881,1280,1024,8-29-2022,14-46-32,164,depth_duration_stimuli/002989_2014-06-15_12-25-03_094959634447_rgbf000150-resize_3/002989_2014-06-15_12-25-03_094959634447_rgbf000150-resize_3-target.png,1000,4.1975,12.0,3854,1010,feet,jsons/v1_VE1000_randls_4_rotated.json,1294188,1594699,52,Man
