,subjID,experimentName,versionName,sequenceName,url,selected_row,windowWidth,windowHeight,screenWidth,screenHeight,startDate,startTime,trial,stimulus,duration,actual_depth,depth_estimate,trial_RT,log_sceneDuration,unitSelection,seq_filepath,experimentTime,totalTime,age,gender
0,219796,DepthScenes,duration_manipulation_targetAtFixation,jsons/VE125_randls_76.json,http://54.235.29.9/FacialAge/BNav_EC2/DepthDuration/v2_depth_duration_MTurk/v2_DepthDuration_HTML.html#413,413,1366,625,1366,768,9-21-2022,15-28-24,1,depth_duration_stimuli/002905_2014-06-03_18-04-43_094959634447_rgbf000151-resize_2/002905_2014-06-03_18-04-43_094959634447_rgbf000151-resize_2-target.png,125,2.0295,2,6457,133,feet,jsons/VE125_randls_76.json,1272748,1612471,32,Man
1,219796,DepthScenes,duration_manipulation_targetAtFixation,jsons/VE125_randls_76.json,http://54.235.29.9/FacialAge/BNav_EC2/DepthDuration/v2_depth_duration_MTurk/v2_DepthDuration_HTML.html#413,413,1366,625,1366,768,9-21-2022,15-28-24,2,depth_duration_stimuli/003423_2014-05-21_10-23-26_094959634447_rgbf002665-resize_2/003423_2014-05-21_10-23-26_094959634447_rgbf002665-resize_2-target.png,125,3.2575,4,7558,107,feet,jsons/VE125_randls_76.json,1272748,1612471,32,Man
2,219796,DepthScenes,duration_manipulation_targetAtFixation,jsons/VE125_randls_76.json,http://54.235.29.9/FacialAge/BNav_EC2/DepthDuration/v2_depth_duration_MTurk/v2_DepthDuration_HTML.html#413,413,1366,625,1366,768,9-21-2022,15-28-24,3,depth_duration_stimuli/002989_2014-06-15_12-25-03_094959634447_rgbf000150-resize_3/002989_2014-06-15_12-25-03_094959634447_rgbf000150-resize_3-target.png,125,4.1975,5,4891,124,feet,jsons/VE125_randls_76.json,1272748,1612471,32,Man
3,219796,DepthScenes,duration_manipulation_targetAtFixation,jsons/VE125_randls_76.json,http://54.235.29.9/FacialAge/BNav_EC2/DepthDuration/v2_depth_duration_MTurk/v2_DepthDuration_HTML.html#413,413,1366,625,1366,768,9-21-2022,15-28-24,4,depth_duration_stimuli/000866_2014-06-09_20-45-42_260595134347_rgbf000139-resize_1/000866_2014-06-09_20-45-42_260595134347_rgbf000139-resize_1-target.png,125,3.2155,2,205671,123,feet,jsons/VE125_randls_76.json,1272748,1612471,32,Man
4,219796,DepthScenes,duration_manipulation_targetAtFixation,jsons/VE125_randls_76.json,http://54.235.29.9/FacialAge/BNav_EC2/DepthDuration/v2_depth_duration_MTurk/v2_DepthDuration_HTML.html#413,413,1366,625,1366,768,9-21-2022,15-28-24,5,depth_duration_stimuli/002725_2014-06-22_11-47-51_094959634447_rgbf000070-resize_1/002725_2014-06-22_11-47-51_094959634447_rgbf000070-resize_1-target.png,125,2.195,3,5618,115,feet,jsons/VE125_randls_76.json,1272748,1612471,32,Man
5,219796,DepthScenes,duration_manipulation_targetAtFixation,jsons/VE125_randls_76.json,http://54.235.29.9/FacialAge/BNav_EC2/DepthDuration/v2_depth_duration_MTurk/v2_DepthDuration_HTML.html#413,413,1366,625,1366,768,9-21-2022,15-28-24,6,depth_duration_stimuli/002344_2014-06-28_20-06-29_260595134347_rgbf000030-resize_1/002344_2014-06-28_20-06-29_260595134347_rgbf000030-resize_1-target.png,125,1.5795,1,4624,141,feet,jsons/VE125_randls_76.json,1272748,1612471,32,Man
6,219796,DepthScenes,duration_manipulation_targetAtFixation,jsons/VE125_randls_76.json,http://54.235.29.9/FacialAge/BNav_EC2/DepthDuration/v2_depth_duration_MTurk/v2_DepthDuration_HTML.html#413,413,1366,625,1366,768,9-21-2022,15-28-24,7,depth_duration_stimuli/001158_2014-06-17_15-32-16_260595134347_rgbf000138-resize_2/001158_2014-06-17_15-32-16_260595134347_rgbf000138-resize_2-target.png,125,4.5315,5,4715,124,feet,jsons/VE125_randls_76.json,1272748,1612471,32,Man
7,219796,DepthScenes,duration_manipulation_targetAtFixation,jsons/VE125_randls_76.json,http://54.235.29.9/FacialAge/BNav_EC2/DepthDuration/v2_depth_duration_MTurk/v2_DepthDuration_HTML.html#413,413,1366,625,1366,768,9-21-2022,15-28-24,8,depth_duration_stimuli/000556_2014-06-09_22-42-56_260595134347_rgbf000214-resize_1/000556_2014-06-09_22-42-56_260595134347_rgbf000214-resize_1-target.png,125,4.8415,3,4141,101,feet,jsons/VE125_randls_76.json,1272748,1612471,32,Man
8,219796,DepthScenes,duration_manipulation_targetAtFixation,jsons/VE125_randls_76.json,http://54.235.29.9/FacialAge/BNav_EC2/DepthDuration/v2_depth_duration_MTurk/v2_DepthDuration_HTML.html#413,413,1366,625,1366,768,9-21-2022,15-28-24,9,depth_duration_stimuli/000917_2014-06-09_22-45-29_260595134347_rgbf000149-resize_3/000917_2014-06-09_22-45-29_260595134347_rgbf000149-resize_3-target.png,125,4.1865,2,6530,124,feet,jsons/VE125_randls_76.json,1272748,1612471,32,Man
9,219796,DepthScenes,duration_manipulation_targetAtFixation,jsons/VE125_randls_76.json,http://54.235.29.9/FacialAge/BNav_EC2/DepthDuration/v2_depth_duration_MTurk/v2_DepthDuration_HTML.html#413,413,1366,625,1366,768,9-21-2022,15-28-24,10,depth_duration_stimuli/002323_2014-06-28_20-01-54_260595134347_rgbf000051-resize_4/002323_2014-06-28_20-01-54_260595134347_rgbf000051-resize_4-target.png,125,3.7310000000000003,5,6234,109,feet,jsons/VE125_randls_76.json,1272748,1612471,32,Man
10,219796,DepthScenes,duration_manipulation_targetAtFixation,jsons/VE125_randls_76.json,http://54.235.29.9/FacialAge/BNav_EC2/DepthDuration/v2_depth_duration_MTurk/v2_DepthDuration_HTML.html#413,413,1366,625,1366,768,9-21-2022,15-28-24,11,depth_duration_stimuli/000878_2014-06-08_22-52-45_260595134347_rgbf000045-resize_2/000878_2014-06-08_22-52-45_260595134347_rgbf000045-resize_2-target.png,125,2.092,3,8104,124,feet,jsons/VE125_randls_76.json,1272748,1612471,32,Man
11,219796,DepthScenes,duration_manipulation_targetAtFixation,jsons/VE125_randls_76.json,http://54.235.29.9/FacialAge/BNav_EC2/DepthDuration/v2_depth_duration_MTurk/v2_DepthDuration_HTML.html#413,413,1366,625,1366,768,9-21-2022,15-28-24,12,depth_duration_stimuli/002953_2014-06-08_17-32-18_094959634447_rgbf000059-resize_5/002953_2014-06-08_17-32-18_094959634447_rgbf000059-resize_5-target.png,125,1.551,2,6813,125,feet,jsons/VE125_randls_76.json,1272748,1612471,32,Man
12,219796,DepthScenes,duration_manipulation_targetAtFixation,jsons/VE125_randls_76.json,http://54.235.29.9/FacialAge/BNav_EC2/DepthDuration/v2_depth_duration_MTurk/v2_DepthDuration_HTML.html#413,413,1366,625,1366,768,9-21-2022,15-28-24,13,depth_duration_stimuli/000569_2014-06-09_22-51-47_260595134347_rgbf000141-resize_3/000569_2014-06-09_22-51-47_260595134347_rgbf000141-resize-original.jpg,125,4.512,3,5438,130,feet,jsons/VE125_randls_76.json,1272748,1612471,32,Man
13,219796,DepthScenes,duration_manipulation_targetAtFixation,jsons/VE125_randls_76.json,http://54.235.29.9/FacialAge/BNav_EC2/DepthDuration/v2_depth_duration_MTurk/v2_DepthDuration_HTML.html#413,413,1366,625,1366,768,9-21-2022,15-28-24,14,depth_duration_stimuli/001029_2014-06-08_13-17-57_260595134347_rgbf000065-resize_1/001029_2014-06-08_13-17-57_260595134347_rgbf000065-resize_1-target.png,125,3.0835,3,3703,138,feet,jsons/VE125_randls_76.json,1272748,1612471,32,Man
14,219796,DepthScenes,duration_manipulation_targetAtFixation,jsons/VE125_randls_76.json,http://54.235.29.9/FacialAge/BNav_EC2/DepthDuration/v2_depth_duration_MTurk/v2_DepthDuration_HTML.html#413,413,1366,625,1366,768,9-21-2022,15-28-24,15,depth_duration_stimuli/000677_2014-06-08_23-10-32_260595134347_rgbf000158-resize_6/000677_2014-06-08_23-10-32_260595134347_rgbf000158-resize_6-target.png,125,3.556,2,4950,124,feet,jsons/VE125_randls_76.json,1272748,1612471,32,Man
15,219796,DepthScenes,duration_manipulation_targetAtFixation,jsons/VE125_randls_76.json,http://54.235.29.9/FacialAge/BNav_EC2/DepthDuration/v2_depth_duration_MTurk/v2_DepthDuration_HTML.html#413,413,1366,625,1366,768,9-21-2022,15-28-24,16,depth_duration_stimuli/002043_2014-06-24_20-29-38_260595134347_rgbf000039-resize_4/002043_2014-06-24_20-29-38_260595134347_rgbf000039-resize_4-target.png,125,2.8435,3,4541,133,feet,jsons/VE125_randls_76.json,1272748,1612471,32,Man
16,219796,DepthScenes,duration_manipulation_targetAtFixation,jsons/VE125_randls_76.json,http://54.235.29.9/FacialAge/BNav_EC2/DepthDuration/v2_depth_duration_MTurk/v2_DepthDuration_HTML.html#413,413,1366,625,1366,768,9-21-2022,15-28-24,17,depth_duration_stimuli/003048_2014-06-15_13-49-43_094959634447_rgbf000150-resize_1/003048_2014-06-15_13-49-43_094959634447_rgbf000150-resize_1-target.png,125,4.0035,4,12283,124,feet,jsons/VE125_randls_76.json,1272748,1612471,32,Man
17,219796,DepthScenes,duration_manipulation_targetAtFixation,jsons/VE125_randls_76.json,http://54.235.29.9/FacialAge/BNav_EC2/DepthDuration/v2_depth_duration_MTurk/v2_DepthDuration_HTML.html#413,413,1366,625,1366,768,9-21-2022,15-28-24,18,depth_duration_stimuli/001066_2014-06-08_22-03-20_260595134347_rgbf000066-resize_4/001066_2014-06-08_22-03-20_260595134347_rgbf000066-resize_4-target.png,125,4.2330000000000005,4,5940,113,feet,jsons/VE125_randls_76.json,1272748,1612471,32,Man
18,219796,DepthScenes,duration_manipulation_targetAtFixation,jsons/VE125_randls_76.json,http://54.235.29.9/FacialAge/BNav_EC2/DepthDuration/v2_depth_duration_MTurk/v2_DepthDuration_HTML.html#413,413,1366,625,1366,768,9-21-2022,15-28-24,19,depth_duration_stimuli/000742_2014-06-08_18-48-09_260595134347_rgbf000164-resize_4/000742_2014-06-08_18-48-09_260595134347_rgbf000164-resize_4-target.png,125,4.632,5,4461,124,feet,jsons/VE125_randls_76.json,1272748,1612471,32,Man
19,219796,DepthScenes,duration_manipulation_targetAtFixation,jsons/VE125_randls_76.json,http://54.235.29.9/FacialAge/BNav_EC2/DepthDuration/v2_depth_duration_MTurk/v2_DepthDuration_HTML.html#413,413,1366,625,1366,768,9-21-2022,15-28-24,20,depth_duration_stimuli/000368_2014-06-09_15-53-01_260595134347_rgbf000155-resize_2/000368_2014-06-09_15-53-01_260595134347_rgbf000155-resize_2-target.png,125,2.4859999999999998,2,4404,123,feet,jsons/VE125_randls_76.json,1272748,1612471,32,Man
20,219796,DepthScenes,duration_manipulation_targetAtFixation,jsons/VE125_randls_76.json,http://54.235.29.9/FacialAge/BNav_EC2/DepthDuration/v2_depth_duration_MTurk/v2_DepthDuration_HTML.html#413,413,1366,625,1366,768,9-21-2022,15-28-24,21,depth_duration_stimuli/002678_2014-06-13_16-15-32_094959634447_rgbf000151-resize_6/002678_2014-06-13_16-15-32_094959634447_rgbf000151-resize_6-target.png,125,2.1830000000000003,4,8579,122,feet,jsons/VE125_randls_76.json,1272748,1612471,32,Man
21,219796,DepthScenes,duration_manipulation_targetAtFixation,jsons/VE125_randls_76.json,http://54.235.29.9/FacialAge/BNav_EC2/DepthDuration/v2_depth_duration_MTurk/v2_DepthDuration_HTML.html#413,413,1366,625,1366,768,9-21-2022,15-28-24,22,depth_duration_stimuli/002549_2014-06-24_13-41-39_094959634447_rgbf000022-resize_3/002549_2014-06-24_13-41-39_094959634447_rgbf000022-resize_3-target.png,125,1.476,2,14940,123,feet,jsons/VE125_randls_76.json,1272748,1612471,32,Man
22,219796,DepthScenes,duration_manipulation_targetAtFixation,jsons/VE125_randls_76.json,http://54.235.29.9/FacialAge/BNav_EC2/DepthDuration/v2_depth_duration_MTurk/v2_DepthDuration_HTML.html#413,413,1366,625,1366,768,9-21-2022,15-28-24,23,depth_duration_stimuli/002750_2014-06-22_19-08-03_094959634447_rgbf000094-resize_4/002750_2014-06-22_19-08-03_094959634447_rgbf000094-resize_4-target.png,125,2.354,3,5605,152,feet,jsons/VE125_randls_76.json,1272748,1612471,32,Man
23,219796,DepthScenes,duration_manipulation_targetAtFixation,jsons/VE125_randls_76.json,http://54.235.29.9/FacialAge/BNav_EC2/DepthDuration/v2_depth_duration_MTurk/v2_DepthDuration_HTML.html#413,413,1366,625,1366,768,9-21-2022,15-28-24,24,depth_duration_stimuli/003070_2014-06-15_14-58-27_094959634447_rgbf000150-resize_3/003070_2014-06-15_14-58-27_094959634447_rgbf000150-resize_3-target.png,125,2.9415,4,7966,109,feet,jsons/VE125_randls_76.json,1272748,1612471,32,Man
24,219796,DepthScenes,duration_manipulation_targetAtFixation,jsons/VE125_randls_76.json,http://54.235.29.9/FacialAge/BNav_EC2/DepthDuration/v2_depth_duration_MTurk/v2_DepthDuration_HTML.html#413,413,1366,625,1366,768,9-21-2022,15-28-24,25,depth_duration_stimuli/000943_2014-06-09_19-31-07_260595134347_rgbf000128-resize_1/000943_2014-06-09_19-31-07_260595134347_rgbf000128-resize_1-target.png,125,1.9765,2,4630,126,feet,jsons/VE125_randls_76.json,1272748,1612471,32,Man
25,219796,DepthScenes,duration_manipulation_targetAtFixation,jsons/VE125_randls_76.json,http://54.235.29.9/FacialAge/BNav_EC2/DepthDuration/v2_depth_duration_MTurk/v2_DepthDuration_HTML.html#413,413,1366,625,1366,768,9-21-2022,15-28-24,26,depth_duration_stimuli/000929_2014-06-09_16-33-19_260595134347_rgbf000139-resize_0/000929_2014-06-09_16-33-19_260595134347_rgbf000139-resize_0-target.png,125,2.8680000000000003,3,4293,124,feet,jsons/VE125_randls_76.json,1272748,1612471,32,Man
26,219796,DepthScenes,duration_manipulation_targetAtFixation,jsons/VE125_randls_76.json,http://54.235.29.9/FacialAge/BNav_EC2/DepthDuration/v2_depth_duration_MTurk/v2_DepthDuration_HTML.html#413,413,1366,625,1366,768,9-21-2022,15-28-24,27,depth_duration_stimuli/000457_2014-06-08_16-52-43_260595134347_rgbf000199-resize_1/000457_2014-06-08_16-52-43_260595134347_rgbf000199-resize_1-target.png,125,3.6489999999999996,2,4386,142,feet,jsons/VE125_randls_76.json,1272748,1612471,32,Man
27,219796,DepthScenes,duration_manipulation_targetAtFixation,jsons/VE125_randls_76.json,http://54.235.29.9/FacialAge/BNav_EC2/DepthDuration/v2_depth_duration_MTurk/v2_DepthDuration_HTML.html#413,413,1366,625,1366,768,9-21-2022,15-28-24,28,depth_duration_stimuli/002600_2014-06-24_14-27-04_094959634447_rgbf000074-resize_2/002600_2014-06-24_14-27-04_094959634447_rgbf000074-resize_2-target.png,125,2.7575,3,4328,101,feet,jsons/VE125_randls_76.json,1272748,1612471,32,Man
28,219796,DepthScenes,duration_manipulation_targetAtFixation,jsons/VE125_randls_76.json,http://54.235.29.9/FacialAge/BNav_EC2/DepthDuration/v2_depth_duration_MTurk/v2_DepthDuration_HTML.html#413,413,1366,625,1366,768,9-21-2022,15-28-24,29,depth_duration_stimuli/003228_2014-05-14_13-42-35_094959634447_rgbf000101-resize_1/003228_2014-05-14_13-42-35_094959634447_rgbf000101-resize_1-target.png,125,1.9680000000000002,2,3850,124,feet,jsons/VE125_randls_76.json,1272748,1612471,32,Man
29,219796,DepthScenes,duration_manipulation_targetAtFixation,jsons/VE125_randls_76.json,http://54.235.29.9/FacialAge/BNav_EC2/DepthDuration/v2_depth_duration_MTurk/v2_DepthDuration_HTML.html#413,413,1366,625,1366,768,9-21-2022,15-28-24,30,depth_duration_stimuli/000375_2014-06-08_11-17-29_260595134347_rgbf000133-resize_2/000375_2014-06-08_11-17-29_260595134347_rgbf000133-resize-original.jpg,125,4.718,0,5320,115,feet,jsons/VE125_randls_76.json,1272748,1612471,32,Man
30,219796,DepthScenes,duration_manipulation_targetAtFixation,jsons/VE125_randls_76.json,http://54.235.29.9/FacialAge/BNav_EC2/DepthDuration/v2_depth_duration_MTurk/v2_DepthDuration_HTML.html#413,413,1366,625,1366,768,9-21-2022,15-28-24,31,depth_duration_stimuli/001199_2014-06-17_16-03-48_260595134347_rgbf000077-resize_0/001199_2014-06-17_16-03-48_260595134347_rgbf000077-resize_0-target.png,125,3.4375,5,5014,126,feet,jsons/VE125_randls_76.json,1272748,1612471,32,Man
31,219796,DepthScenes,duration_manipulation_targetAtFixation,jsons/VE125_randls_76.json,http://54.235.29.9/FacialAge/BNav_EC2/DepthDuration/v2_depth_duration_MTurk/v2_DepthDuration_HTML.html#413,413,1366,625,1366,768,9-21-2022,15-28-24,32,depth_duration_stimuli/000502_2014-06-08_23-02-32_260595134347_rgbf000063-resize_4/000502_2014-06-08_23-02-32_260595134347_rgbf000063-resize_4-target.png,125,2.431,2,3326,114,feet,jsons/VE125_randls_76.json,1272748,1612471,32,Man
32,219796,DepthScenes,duration_manipulation_targetAtFixation,jsons/VE125_randls_76.json,http://54.235.29.9/FacialAge/BNav_EC2/DepthDuration/v2_depth_duration_MTurk/v2_DepthDuration_HTML.html#413,413,1366,625,1366,768,9-21-2022,15-28-24,33,depth_duration_stimuli/000486_2014-06-09_20-47-20_260595134347_rgbf000143-resize_2/000486_2014-06-09_20-47-20_260595134347_rgbf000143-resize_2-target.png,125,4.8325,3,15210,123,feet,jsons/VE125_randls_76.json,1272748,1612471,32,Man
33,219796,DepthScenes,duration_manipulation_targetAtFixation,jsons/VE125_randls_76.json,http://54.235.29.9/FacialAge/BNav_EC2/DepthDuration/v2_depth_duration_MTurk/v2_DepthDuration_HTML.html#413,413,1366,625,1366,768,9-21-2022,15-28-24,34,depth_duration_stimuli/003083_2014-06-15_15-21-03_094959634447_rgbf000063-resize_1/003083_2014-06-15_15-21-03_094959634447_rgbf000063-resize_1-target.png,125,4.1405,4,7578,148,feet,jsons/VE125_randls_76.json,1272748,1612471,32,Man
34,219796,DepthScenes,duration_manipulation_targetAtFixation,jsons/VE125_randls_76.json,http://54.235.29.9/FacialAge/BNav_EC2/DepthDuration/v2_depth_duration_MTurk/v2_DepthDuration_HTML.html#413,413,1366,625,1366,768,9-21-2022,15-28-24,35,depth_duration_stimuli/001167_2014-06-17_15-38-07_260595134347_rgbf000108-resize_0/001167_2014-06-17_15-38-07_260595134347_rgbf000108-resize_0-target.png,125,1.8505,3,5363,130,feet,jsons/VE125_randls_76.json,1272748,1612471,32,Man
35,219796,DepthScenes,duration_manipulation_targetAtFixation,jsons/VE125_randls_76.json,http://54.235.29.9/FacialAge/BNav_EC2/DepthDuration/v2_depth_duration_MTurk/v2_DepthDuration_HTML.html#413,413,1366,625,1366,768,9-21-2022,15-28-24,36,depth_duration_stimuli/003587_2014-05-23_16-48-02_094959634447_rgbf002384-resize_2/003587_2014-05-23_16-48-02_094959634447_rgbf002384-resize_2-target.png,125,1.357,1,5932,139,feet,jsons/VE125_randls_76.json,1272748,1612471,32,Man
36,219796,DepthScenes,duration_manipulation_targetAtFixation,jsons/VE125_randls_76.json,http://54.235.29.9/FacialAge/BNav_EC2/DepthDuration/v2_depth_duration_MTurk/v2_DepthDuration_HTML.html#413,413,1366,625,1366,768,9-21-2022,15-28-24,37,depth_duration_stimuli/000773_2014-06-08_22-24-54_260595134347_rgbf000093-resize_1/000773_2014-06-08_22-24-54_260595134347_rgbf000093-resize_1-target.png,125,4.973,3,4321,126,feet,jsons/VE125_randls_76.json,1272748,1612471,32,Man
37,219796,DepthScenes,duration_manipulation_targetAtFixation,jsons/VE125_randls_76.json,http://54.235.29.9/FacialAge/BNav_EC2/DepthDuration/v2_depth_duration_MTurk/v2_DepthDuration_HTML.html#413,413,1366,625,1366,768,9-21-2022,15-28-24,38,depth_duration_stimuli/002414_2014-06-28_20-24-58_260595134347_rgbf000067-resize_4/002414_2014-06-28_20-24-58_260595134347_rgbf000067-resize_4-target.png,125,4.363,2,7073,123,feet,jsons/VE125_randls_76.json,1272748,1612471,32,Man
38,219796,DepthScenes,duration_manipulation_targetAtFixation,jsons/VE125_randls_76.json,http://54.235.29.9/FacialAge/BNav_EC2/DepthDuration/v2_depth_duration_MTurk/v2_DepthDuration_HTML.html#413,413,1366,625,1366,768,9-21-2022,15-28-24,39,depth_duration_stimuli/000447_2014-06-08_16-15-46_260595134347_rgbf000130-resize_1/000447_2014-06-08_16-15-46_260595134347_rgbf000130-resize_1-target.png,125,4.479,1,6393,140,feet,jsons/VE125_randls_76.json,1272748,1612471,32,Man
39,219796,DepthScenes,duration_manipulation_targetAtFixation,jsons/VE125_randls_76.json,http://54.235.29.9/FacialAge/BNav_EC2/DepthDuration/v2_depth_duration_MTurk/v2_DepthDuration_HTML.html#413,413,1366,625,1366,768,9-21-2022,15-28-24,40,depth_duration_stimuli/001447_2014-06-19_17-00-32_260595134347_rgbf000082-resize_5/001447_2014-06-19_17-00-32_260595134347_rgbf000082-resize_5-target.png,125,4.13775,2,4200,136,feet,jsons/VE125_randls_76.json,1272748,1612471,32,Man
40,219796,DepthScenes,duration_manipulation_targetAtFixation,jsons/VE125_randls_76.json,http://54.235.29.9/FacialAge/BNav_EC2/DepthDuration/v2_depth_duration_MTurk/v2_DepthDuration_HTML.html#413,413,1366,625,1366,768,9-21-2022,15-28-24,41,depth_duration_stimuli/002272_2014-06-28_18-53-56_260595134347_rgbf000067-resize_2/002272_2014-06-28_18-53-56_260595134347_rgbf000067-resize_2-target.png,125,1.138,1,3913,124,feet,jsons/VE125_randls_76.json,1272748,1612471,32,Man
41,219796,DepthScenes,duration_manipulation_targetAtFixation,jsons/VE125_randls_76.json,http://54.235.29.9/FacialAge/BNav_EC2/DepthDuration/v2_depth_duration_MTurk/v2_DepthDuration_HTML.html#413,413,1366,625,1366,768,9-21-2022,15-28-24,42,depth_duration_stimuli/001571_2014-06-20_17-21-32_260595134347_rgbf000089-resize_1/001571_2014-06-20_17-21-32_260595134347_rgbf000089-resize_1-target.png,125,1.86,2,4196,139,feet,jsons/VE125_randls_76.json,1272748,1612471,32,Man
42,219796,DepthScenes,duration_manipulation_targetAtFixation,jsons/VE125_randls_76.json,http://54.235.29.9/FacialAge/BNav_EC2/DepthDuration/v2_depth_duration_MTurk/v2_DepthDuration_HTML.html#413,413,1366,625,1366,768,9-21-2022,15-28-24,43,depth_duration_stimuli/001056_2014-06-08_18-46-44_260595134347_rgbf000068-resize_0/001056_2014-06-08_18-46-44_260595134347_rgbf000068-resize_0-target.png,125,2.6625,3,3989,125,feet,jsons/VE125_randls_76.json,1272748,1612471,32,Man
43,219796,DepthScenes,duration_manipulation_targetAtFixation,jsons/VE125_randls_76.json,http://54.235.29.9/FacialAge/BNav_EC2/DepthDuration/v2_depth_duration_MTurk/v2_DepthDuration_HTML.html#413,413,1366,625,1366,768,9-21-2022,15-28-24,44,depth_duration_stimuli/002199_2014-06-28_18-33-56_260595134347_rgbf000074-resize_0/002199_2014-06-28_18-33-56_260595134347_rgbf000074-resize_0-target.png,125,1.996,1,4898,134,feet,jsons/VE125_randls_76.json,1272748,1612471,32,Man
44,219796,DepthScenes,duration_manipulation_targetAtFixation,jsons/VE125_randls_76.json,http://54.235.29.9/FacialAge/BNav_EC2/DepthDuration/v2_depth_duration_MTurk/v2_DepthDuration_HTML.html#413,413,1366,625,1366,768,9-21-2022,15-28-24,45,depth_duration_stimuli/000787_2014-06-08_22-33-53_260595134347_rgbf000175-resize_1/000787_2014-06-08_22-33-53_260595134347_rgbf000175-resize-original.jpg,125,4.784,2,6888,123,feet,jsons/VE125_randls_76.json,1272748,1612471,32,Man
45,219796,DepthScenes,duration_manipulation_targetAtFixation,jsons/VE125_randls_76.json,http://54.235.29.9/FacialAge/BNav_EC2/DepthDuration/v2_depth_duration_MTurk/v2_DepthDuration_HTML.html#413,413,1366,625,1366,768,9-21-2022,15-28-24,46,depth_duration_stimuli/000642_2014-06-08_16-59-25_260595134347_rgbf000098-resize_2/000642_2014-06-08_16-59-25_260595134347_rgbf000098-resize_2-target.png,125,2.8815,3,4618,124,feet,jsons/VE125_randls_76.json,1272748,1612471,32,Man
46,219796,DepthScenes,duration_manipulation_targetAtFixation,jsons/VE125_randls_76.json,http://54.235.29.9/FacialAge/BNav_EC2/DepthDuration/v2_depth_duration_MTurk/v2_DepthDuration_HTML.html#413,413,1366,625,1366,768,9-21-2022,15-28-24,47,depth_duration_stimuli/002425_2014-06-28_20-27-29_260595134347_rgbf000031-resize_8/002425_2014-06-28_20-27-29_260595134347_rgbf000031-resize_8-target.png,125,3.8960000000000004,5,5474,123,feet,jsons/VE125_randls_76.json,1272748,1612471,32,Man
47,219796,DepthScenes,duration_manipulation_targetAtFixation,jsons/VE125_randls_76.json,http://54.235.29.9/FacialAge/BNav_EC2/DepthDuration/v2_depth_duration_MTurk/v2_DepthDuration_HTML.html#413,413,1366,625,1366,768,9-21-2022,15-28-24,48,depth_duration_stimuli/000682_2014-06-08_23-14-58_260595134347_rgbf000041-resize_5/000682_2014-06-08_23-14-58_260595134347_rgbf000041-resize_5-target.png,125,2.7239999999999998,4,4033,125,feet,jsons/VE125_randls_76.json,1272748,1612471,32,Man
48,219796,DepthScenes,duration_manipulation_targetAtFixation,jsons/VE125_randls_76.json,http://54.235.29.9/FacialAge/BNav_EC2/DepthDuration/v2_depth_duration_MTurk/v2_DepthDuration_HTML.html#413,413,1366,625,1366,768,9-21-2022,15-28-24,49,depth_duration_stimuli/001650_2014-06-20_12-09-00_260595134347_rgbf000087-resize_3/001650_2014-06-20_12-09-00_260595134347_rgbf000087-resize_3-target.png,125,1.9505,2,3836,124,feet,jsons/VE125_randls_76.json,1272748,1612471,32,Man
49,219796,DepthScenes,duration_manipulation_targetAtFixation,jsons/VE125_randls_76.json,http://54.235.29.9/FacialAge/BNav_EC2/DepthDuration/v2_depth_duration_MTurk/v2_DepthDuration_HTML.html#413,413,1366,625,1366,768,9-21-2022,15-28-24,50,depth_duration_stimuli/002763_2014-06-22_19-13-10_094959634447_rgbf000075-resize_4/002763_2014-06-22_19-13-10_094959634447_rgbf000075-resize_4-target.png,125,1.68375,4,7459,118,feet,jsons/VE125_randls_76.json,1272748,1612471,32,Man
50,219796,DepthScenes,duration_manipulation_targetAtFixation,jsons/VE125_randls_76.json,http://54.235.29.9/FacialAge/BNav_EC2/DepthDuration/v2_depth_duration_MTurk/v2_DepthDuration_HTML.html#413,413,1366,625,1366,768,9-21-2022,15-28-24,51,depth_duration_stimuli/002209_2014-06-28_18-36-10_260595134347_rgbf000051-resize_1/002209_2014-06-28_18-36-10_260595134347_rgbf000051-resize_1-target.png,125,2.057,2,8116,120,feet,jsons/VE125_randls_76.json,1272748,1612471,32,Man
51,219796,DepthScenes,duration_manipulation_targetAtFixation,jsons/VE125_randls_76.json,http://54.235.29.9/FacialAge/BNav_EC2/DepthDuration/v2_depth_duration_MTurk/v2_DepthDuration_HTML.html#413,413,1366,625,1366,768,9-21-2022,15-28-24,52,depth_duration_stimuli/000470_2014-06-09_19-42-40_260595134347_rgbf000094-resize_1/000470_2014-06-09_19-42-40_260595134347_rgbf000094-resize_1-target.png,125,1.831,2,7901,124,feet,jsons/VE125_randls_76.json,1272748,1612471,32,Man
52,219796,DepthScenes,duration_manipulation_targetAtFixation,jsons/VE125_randls_76.json,http://54.235.29.9/FacialAge/BNav_EC2/DepthDuration/v2_depth_duration_MTurk/v2_DepthDuration_HTML.html#413,413,1366,625,1366,768,9-21-2022,15-28-24,53,depth_duration_stimuli/000109_2014-05-14_23-41-52_260595134347_rgbf000035-resize_9/000109_2014-05-14_23-41-52_260595134347_rgbf000035-resize_9-target.png,125,1.3545,2,5363,124,feet,jsons/VE125_randls_76.json,1272748,1612471,32,Man
53,219796,DepthScenes,duration_manipulation_targetAtFixation,jsons/VE125_randls_76.json,http://54.235.29.9/FacialAge/BNav_EC2/DepthDuration/v2_depth_duration_MTurk/v2_DepthDuration_HTML.html#413,413,1366,625,1366,768,9-21-2022,15-28-24,54,depth_duration_stimuli/002988_2014-06-15_12-24-20_094959634447_rgbf000150-resize_1/002988_2014-06-15_12-24-20_094959634447_rgbf000150-resize_1-target.png,125,4.7669999999999995,4,4199,124,feet,jsons/VE125_randls_76.json,1272748,1612471,32,Man
54,219796,DepthScenes,duration_manipulation_targetAtFixation,jsons/VE125_randls_76.json,http://54.235.29.9/FacialAge/BNav_EC2/DepthDuration/v2_depth_duration_MTurk/v2_DepthDuration_HTML.html#413,413,1366,625,1366,768,9-21-2022,15-28-24,55,depth_duration_stimuli/001052_2014-06-08_18-24-54_260595134347_rgbf000130-resize_1/001052_2014-06-08_18-24-54_260595134347_rgbf000130-resize_1-target.png,125,4.1045,4,4392,124,feet,jsons/VE125_randls_76.json,1272748,1612471,32,Man
55,219796,DepthScenes,duration_manipulation_targetAtFixation,jsons/VE125_randls_76.json,http://54.235.29.9/FacialAge/BNav_EC2/DepthDuration/v2_depth_duration_MTurk/v2_DepthDuration_HTML.html#413,413,1366,625,1366,768,9-21-2022,15-28-24,56,depth_duration_stimuli/000522_2014-06-08_13-35-06_260595134347_rgbf000244-resize_1/000522_2014-06-08_13-35-06_260595134347_rgbf000244-resize_1-target.png,125,2.3715,2,5182,139,feet,jsons/VE125_randls_76.json,1272748,1612471,32,Man
56,219796,DepthScenes,duration_manipulation_targetAtFixation,jsons/VE125_randls_76.json,http://54.235.29.9/FacialAge/BNav_EC2/DepthDuration/v2_depth_duration_MTurk/v2_DepthDuration_HTML.html#413,413,1366,625,1366,768,9-21-2022,15-28-24,57,depth_duration_stimuli/002949_2014-06-26_15-57-42_094959634447_rgbf000079-resize_1/002949_2014-06-26_15-57-42_094959634447_rgbf000079-resize_1-target.png,125,1.8915,2,4494,139,feet,jsons/VE125_randls_76.json,1272748,1612471,32,Man
57,219796,DepthScenes,duration_manipulation_targetAtFixation,jsons/VE125_randls_76.json,http://54.235.29.9/FacialAge/BNav_EC2/DepthDuration/v2_depth_duration_MTurk/v2_DepthDuration_HTML.html#413,413,1366,625,1366,768,9-21-2022,15-28-24,58,depth_duration_stimuli/002509_2014-06-24_13-19-22_094959634447_rgbf000077-resize_0/002509_2014-06-24_13-19-22_094959634447_rgbf000077-resize_0-target.png,125,1.3065,2,4281,139,feet,jsons/VE125_randls_76.json,1272748,1612471,32,Man
58,219796,DepthScenes,duration_manipulation_targetAtFixation,jsons/VE125_randls_76.json,http://54.235.29.9/FacialAge/BNav_EC2/DepthDuration/v2_depth_duration_MTurk/v2_DepthDuration_HTML.html#413,413,1366,625,1366,768,9-21-2022,15-28-24,59,depth_duration_stimuli/003338_2014-05-20_11-01-23_094959634447_rgbf000051-resize_6/003338_2014-05-20_11-01-23_094959634447_rgbf000051-resize_6-target.png,125,1.693,3,9210,123,feet,jsons/VE125_randls_76.json,1272748,1612471,32,Man
59,219796,DepthScenes,duration_manipulation_targetAtFixation,jsons/VE125_randls_76.json,http://54.235.29.9/FacialAge/BNav_EC2/DepthDuration/v2_depth_duration_MTurk/v2_DepthDuration_HTML.html#413,413,1366,625,1366,768,9-21-2022,15-28-24,60,depth_duration_stimuli/000436_2014-06-09_22-25-11_260595134347_rgbf000137-resize_1/000436_2014-06-09_22-25-11_260595134347_rgbf000137-resize_1-target.png,125,4.0705,4,6619,132,feet,jsons/VE125_randls_76.json,1272748,1612471,32,Man
60,219796,DepthScenes,duration_manipulation_targetAtFixation,jsons/VE125_randls_76.json,http://54.235.29.9/FacialAge/BNav_EC2/DepthDuration/v2_depth_duration_MTurk/v2_DepthDuration_HTML.html#413,413,1366,625,1366,768,9-21-2022,15-28-24,61,depth_duration_stimuli/002444_2014-06-28_20-32-08_260595134347_rgbf000027-resize_0/002444_2014-06-28_20-32-08_260595134347_rgbf000027-resize_0-target.png,125,4.388999999999999,3,7484,125,feet,jsons/VE125_randls_76.json,1272748,1612471,32,Man
61,219796,DepthScenes,duration_manipulation_targetAtFixation,jsons/VE125_randls_76.json,http://54.235.29.9/FacialAge/BNav_EC2/DepthDuration/v2_depth_duration_MTurk/v2_DepthDuration_HTML.html#413,413,1366,625,1366,768,9-21-2022,15-28-24,62,depth_duration_stimuli/003621_2014-05-23_18-06-08_094959634447_rgbf000101-resize_1/003621_2014-05-23_18-06-08_094959634447_rgbf000101-resize_1-target.png,125,3.9835,4,4620,109,feet,jsons/VE125_randls_76.json,1272748,1612471,32,Man
62,219796,DepthScenes,duration_manipulation_targetAtFixation,jsons/VE125_randls_76.json,http://54.235.29.9/FacialAge/BNav_EC2/DepthDuration/v2_depth_duration_MTurk/v2_DepthDuration_HTML.html#413,413,1366,625,1366,768,9-21-2022,15-28-24,63,depth_duration_stimuli/001584_2014-06-20_11-07-43_260595134347_rgbf000002-resize_1/001584_2014-06-20_11-07-43_260595134347_rgbf000002-resize_1-target.png,125,3.53,2,29004,125,feet,jsons/VE125_randls_76.json,1272748,1612471,32,Man
63,219796,DepthScenes,duration_manipulation_targetAtFixation,jsons/VE125_randls_76.json,http://54.235.29.9/FacialAge/BNav_EC2/DepthDuration/v2_depth_duration_MTurk/v2_DepthDuration_HTML.html#413,413,1366,625,1366,768,9-21-2022,15-28-24,64,depth_duration_stimuli/001055_2014-06-08_18-45-35_260595134347_rgbf000111-resize_4/001055_2014-06-08_18-45-35_260595134347_rgbf000111-resize_4-target.png,125,2.4290000000000003,1,4323,125,feet,jsons/VE125_randls_76.json,1272748,1612471,32,Man
64,219796,DepthScenes,duration_manipulation_targetAtFixation,jsons/VE125_randls_76.json,http://54.235.29.9/FacialAge/BNav_EC2/DepthDuration/v2_depth_duration_MTurk/v2_DepthDuration_HTML.html#413,413,1366,625,1366,768,9-21-2022,15-28-24,65,depth_duration_stimuli/000549_2014-06-08_22-10-24_260595134347_rgbf000247-resize_3/000549_2014-06-08_22-10-24_260595134347_rgbf000247-resize_3-target.png,125,1.841,2,4176,144,feet,jsons/VE125_randls_76.json,1272748,1612471,32,Man
65,219796,DepthScenes,duration_manipulation_targetAtFixation,jsons/VE125_randls_76.json,http://54.235.29.9/FacialAge/BNav_EC2/DepthDuration/v2_depth_duration_MTurk/v2_DepthDuration_HTML.html#413,413,1366,625,1366,768,9-21-2022,15-28-24,66,depth_duration_stimuli/001222_2014-06-17_16-24-06_260595134347_rgbf000073-resize_0/001222_2014-06-17_16-24-06_260595134347_rgbf000073-resize-original.jpg,125,1.4385,0,4202,128,feet,jsons/VE125_randls_76.json,1272748,1612471,32,Man
66,219796,DepthScenes,duration_manipulation_targetAtFixation,jsons/VE125_randls_76.json,http://54.235.29.9/FacialAge/BNav_EC2/DepthDuration/v2_depth_duration_MTurk/v2_DepthDuration_HTML.html#413,413,1366,625,1366,768,9-21-2022,15-28-24,67,depth_duration_stimuli/000810_2014-06-08_17-20-01_260595134347_rgbf000105-resize_0/000810_2014-06-08_17-20-01_260595134347_rgbf000105-resize_0-target.png,125,1.4865,3,4376,124,feet,jsons/VE125_randls_76.json,1272748,1612471,32,Man
67,219796,DepthScenes,duration_manipulation_targetAtFixation,jsons/VE125_randls_76.json,http://54.235.29.9/FacialAge/BNav_EC2/DepthDuration/v2_depth_duration_MTurk/v2_DepthDuration_HTML.html#413,413,1366,625,1366,768,9-21-2022,15-28-24,68,depth_duration_stimuli/001214_2014-06-17_16-13-55_260595134347_rgbf000111-resize_0/001214_2014-06-17_16-13-55_260595134347_rgbf000111-resize_0-target.png,125,2.6505,2,4394,104,feet,jsons/VE125_randls_76.json,1272748,1612471,32,Man
68,219796,DepthScenes,duration_manipulation_targetAtFixation,jsons/VE125_randls_76.json,http://54.235.29.9/FacialAge/BNav_EC2/DepthDuration/v2_depth_duration_MTurk/v2_DepthDuration_HTML.html#413,413,1366,625,1366,768,9-21-2022,15-28-24,69,depth_duration_stimuli/002039_2014-06-24_20-22-38_260595134347_rgbf000084-resize_1/002039_2014-06-24_20-22-38_260595134347_rgbf000084-resize_1-target.png,125,4.408,3,6083,138,feet,jsons/VE125_randls_76.json,1272748,1612471,32,Man
69,219796,DepthScenes,duration_manipulation_targetAtFixation,jsons/VE125_randls_76.json,http://54.235.29.9/FacialAge/BNav_EC2/DepthDuration/v2_depth_duration_MTurk/v2_DepthDuration_HTML.html#413,413,1366,625,1366,768,9-21-2022,15-28-24,70,depth_duration_stimuli/002103_2014-06-25_20-00-40_260595134347_rgbf000049-resize_0/002103_2014-06-25_20-00-40_260595134347_rgbf000049-resize_0-target.png,125,4.105,4,7948,114,feet,jsons/VE125_randls_76.json,1272748,1612471,32,Man
70,219796,DepthScenes,duration_manipulation_targetAtFixation,jsons/VE125_randls_76.json,http://54.235.29.9/FacialAge/BNav_EC2/DepthDuration/v2_depth_duration_MTurk/v2_DepthDuration_HTML.html#413,413,1366,625,1366,768,9-21-2022,15-28-24,71,depth_duration_stimuli/002375_2014-06-28_20-13-44_260595134347_rgbf000032-resize_1/002375_2014-06-28_20-13-44_260595134347_rgbf000032-resize_1-target.png,125,4.0175,3,9863,129,feet,jsons/VE125_randls_76.json,1272748,1612471,32,Man
71,219796,DepthScenes,duration_manipulation_targetAtFixation,jsons/VE125_randls_76.json,http://54.235.29.9/FacialAge/BNav_EC2/DepthDuration/v2_depth_duration_MTurk/v2_DepthDuration_HTML.html#413,413,1366,625,1366,768,9-21-2022,15-28-24,72,depth_duration_stimuli/002657_2014-06-13_15-29-54_094959634447_rgbf000150-resize_1/002657_2014-06-13_15-29-54_094959634447_rgbf000150-resize_1-target.png,125,4.919,3,4441,131,feet,jsons/VE125_randls_76.json,1272748,1612471,32,Man
72,219796,DepthScenes,duration_manipulation_targetAtFixation,jsons/VE125_randls_76.json,http://54.235.29.9/FacialAge/BNav_EC2/DepthDuration/v2_depth_duration_MTurk/v2_DepthDuration_HTML.html#413,413,1366,625,1366,768,9-21-2022,15-28-24,73,depth_duration_stimuli/002663_2014-06-13_15-50-26_094959634447_rgbf000075-resize_1/002663_2014-06-13_15-50-26_094959634447_rgbf000075-resize_1-target.png,125,4.7495,2,10485,124,feet,jsons/VE125_randls_76.json,1272748,1612471,32,Man
73,219796,DepthScenes,duration_manipulation_targetAtFixation,jsons/VE125_randls_76.json,http://54.235.29.9/FacialAge/BNav_EC2/DepthDuration/v2_depth_duration_MTurk/v2_DepthDuration_HTML.html#413,413,1366,625,1366,768,9-21-2022,15-28-24,74,depth_duration_stimuli/000409_2014-06-04_19-23-33_260595134347_rgbf000067-resize_0/000409_2014-06-04_19-23-33_260595134347_rgbf000067-resize_0-target.png,125,3.7335,3,6515,124,feet,jsons/VE125_randls_76.json,1272748,1612471,32,Man
74,219796,DepthScenes,duration_manipulation_targetAtFixation,jsons/VE125_randls_76.json,http://54.235.29.9/FacialAge/BNav_EC2/DepthDuration/v2_depth_duration_MTurk/v2_DepthDuration_HTML.html#413,413,1366,625,1366,768,9-21-2022,15-28-24,75,depth_duration_stimuli/002153_2014-06-25_21-27-18_260595134347_rgbf000038-resize_5/002153_2014-06-25_21-27-18_260595134347_rgbf000038-resize_5-target.png,125,2.505,2,5029,124,feet,jsons/VE125_randls_76.json,1272748,1612471,32,Man
75,219796,DepthScenes,duration_manipulation_targetAtFixation,jsons/VE125_randls_76.json,http://54.235.29.9/FacialAge/BNav_EC2/DepthDuration/v2_depth_duration_MTurk/v2_DepthDuration_HTML.html#413,413,1366,625,1366,768,9-21-2022,15-28-24,76,depth_duration_stimuli/002660_2014-06-13_15-44-18_094959634447_rgbf001878-resize_2/002660_2014-06-13_15-44-18_094959634447_rgbf001878-resize_2-target.png,125,3.576,2,9592,123,feet,jsons/VE125_randls_76.json,1272748,1612471,32,Man
76,219796,DepthScenes,duration_manipulation_targetAtFixation,jsons/VE125_randls_76.json,http://54.235.29.9/FacialAge/BNav_EC2/DepthDuration/v2_depth_duration_MTurk/v2_DepthDuration_HTML.html#413,413,1366,625,1366,768,9-21-2022,15-28-24,77,depth_duration_stimuli/001016_2014-06-09_16-16-10_260595134347_rgbf000112-resize_5/001016_2014-06-09_16-16-10_260595134347_rgbf000112-resize_5-target.png,125,1.6565,3,5167,125,feet,jsons/VE125_randls_76.json,1272748,1612471,32,Man
77,219796,DepthScenes,duration_manipulation_targetAtFixation,jsons/VE125_randls_76.json,http://54.235.29.9/FacialAge/BNav_EC2/DepthDuration/v2_depth_duration_MTurk/v2_DepthDuration_HTML.html#413,413,1366,625,1366,768,9-21-2022,15-28-24,78,depth_duration_stimuli/002340_2014-06-28_20-05-46_260595134347_rgbf000113-resize_0/002340_2014-06-28_20-05-46_260595134347_rgbf000113-resize_0-target.png,125,2.4735,0,4884,141,feet,jsons/VE125_randls_76.json,1272748,1612471,32,Man
78,219796,DepthScenes,duration_manipulation_targetAtFixation,jsons/VE125_randls_76.json,http://54.235.29.9/FacialAge/BNav_EC2/DepthDuration/v2_depth_duration_MTurk/v2_DepthDuration_HTML.html#413,413,1366,625,1366,768,9-21-2022,15-28-24,79,depth_duration_stimuli/000009_2014-05-26_14-32-05_260595134347_rgbf000034-resize_3/000009_2014-05-26_14-32-05_260595134347_rgbf000034-resize_3-target.png,125,3.8715,4,9903,129,feet,jsons/VE125_randls_76.json,1272748,1612471,32,Man
79,219796,DepthScenes,duration_manipulation_targetAtFixation,jsons/VE125_randls_76.json,http://54.235.29.9/FacialAge/BNav_EC2/DepthDuration/v2_depth_duration_MTurk/v2_DepthDuration_HTML.html#413,413,1366,625,1366,768,9-21-2022,15-28-24,80,depth_duration_stimuli/001828_2014-06-26_21-40-03_260595134347_rgbf000024-resize_0/001828_2014-06-26_21-40-03_260595134347_rgbf000024-resize_0-target.png,125,4.8260000000000005,3,5940,131,feet,jsons/VE125_randls_76.json,1272748,1612471,32,Man
80,219796,DepthScenes,duration_manipulation_targetAtFixation,jsons/VE125_randls_76.json,http://54.235.29.9/FacialAge/BNav_EC2/DepthDuration/v2_depth_duration_MTurk/v2_DepthDuration_HTML.html#413,413,1366,625,1366,768,9-21-2022,15-28-24,81,depth_duration_stimuli/001570_2014-06-20_17-21-09_260595134347_rgbf000135-resize_4/001570_2014-06-20_17-21-09_260595134347_rgbf000135-resize_4-target.png,125,4.467,3,9768,117,feet,jsons/VE125_randls_76.json,1272748,1612471,32,Man
81,219796,DepthScenes,duration_manipulation_targetAtFixation,jsons/VE125_randls_76.json,http://54.235.29.9/FacialAge/BNav_EC2/DepthDuration/v2_depth_duration_MTurk/v2_DepthDuration_HTML.html#413,413,1366,625,1366,768,9-21-2022,15-28-24,82,depth_duration_stimuli/001392_2014-06-19_16-07-59_260595134347_rgbf000046-resize_1/001392_2014-06-19_16-07-59_260595134347_rgbf000046-resize_1-target.png,125,4.135,2,10997,126,feet,jsons/VE125_randls_76.json,1272748,1612471,32,Man
82,219796,DepthScenes,duration_manipulation_targetAtFixation,jsons/VE125_randls_76.json,http://54.235.29.9/FacialAge/BNav_EC2/DepthDuration/v2_depth_duration_MTurk/v2_DepthDuration_HTML.html#413,413,1366,625,1366,768,9-21-2022,15-28-24,83,depth_duration_stimuli/002118_2014-06-25_20-32-08_260595134347_rgbf000078-resize_1/002118_2014-06-25_20-32-08_260595134347_rgbf000078-resize_1-target.png,125,2.6460000000000004,3,7503,124,feet,jsons/VE125_randls_76.json,1272748,1612471,32,Man
83,219796,DepthScenes,duration_manipulation_targetAtFixation,jsons/VE125_randls_76.json,http://54.235.29.9/FacialAge/BNav_EC2/DepthDuration/v2_depth_duration_MTurk/v2_DepthDuration_HTML.html#413,413,1366,625,1366,768,9-21-2022,15-28-24,84,depth_duration_stimuli/001516_2014-06-20_16-25-09_260595134347_rgbf000076-resize_2/001516_2014-06-20_16-25-09_260595134347_rgbf000076-resize_2-target.png,125,1.7445,2,4013,141,feet,jsons/VE125_randls_76.json,1272748,1612471,32,Man
84,219796,DepthScenes,duration_manipulation_targetAtFixation,jsons/VE125_randls_76.json,http://54.235.29.9/FacialAge/BNav_EC2/DepthDuration/v2_depth_duration_MTurk/v2_DepthDuration_HTML.html#413,413,1366,625,1366,768,9-21-2022,15-28-24,85,depth_duration_stimuli/000692_2014-06-08_13-09-42_260595134347_rgbf000199-resize_2/000692_2014-06-08_13-09-42_260595134347_rgbf000199-resize_2-target.png,125,3.661,5,10556,124,feet,jsons/VE125_randls_76.json,1272748,1612471,32,Man
85,219796,DepthScenes,duration_manipulation_targetAtFixation,jsons/VE125_randls_76.json,http://54.235.29.9/FacialAge/BNav_EC2/DepthDuration/v2_depth_duration_MTurk/v2_DepthDuration_HTML.html#413,413,1366,625,1366,768,9-21-2022,15-28-24,86,depth_duration_stimuli/001094_2014-06-15_17-36-00_260595134347_rgbf000205-resize_0/001094_2014-06-15_17-36-00_260595134347_rgbf000205-resize_0-target.png,125,4.2175,4,8382,118,feet,jsons/VE125_randls_76.json,1272748,1612471,32,Man
86,219796,DepthScenes,duration_manipulation_targetAtFixation,jsons/VE125_randls_76.json,http://54.235.29.9/FacialAge/BNav_EC2/DepthDuration/v2_depth_duration_MTurk/v2_DepthDuration_HTML.html#413,413,1366,625,1366,768,9-21-2022,15-28-24,87,depth_duration_stimuli/001417_2014-06-19_16-25-36_260595134347_rgbf000115-resize_5/001417_2014-06-19_16-25-36_260595134347_rgbf000115-resize_5-target.png,125,4.6255,5,6699,133,feet,jsons/VE125_randls_76.json,1272748,1612471,32,Man
87,219796,DepthScenes,duration_manipulation_targetAtFixation,jsons/VE125_randls_76.json,http://54.235.29.9/FacialAge/BNav_EC2/DepthDuration/v2_depth_duration_MTurk/v2_DepthDuration_HTML.html#413,413,1366,625,1366,768,9-21-2022,15-28-24,88,depth_duration_stimuli/003081_2014-06-15_15-19-16_094959634447_rgbf000150-resize_1/003081_2014-06-15_15-19-16_094959634447_rgbf000150-resize_1-target.png,125,3.9125,4,4663,124,feet,jsons/VE125_randls_76.json,1272748,1612471,32,Man
88,219796,DepthScenes,duration_manipulation_targetAtFixation,jsons/VE125_randls_76.json,http://54.235.29.9/FacialAge/BNav_EC2/DepthDuration/v2_depth_duration_MTurk/v2_DepthDuration_HTML.html#413,413,1366,625,1366,768,9-21-2022,15-28-24,89,depth_duration_stimuli/000758_2014-06-08_22-05-08_260595134347_rgbf000085-resize_0/000758_2014-06-08_22-05-08_260595134347_rgbf000085-resize_0-target.png,125,3.3810000000000002,5,5203,139,feet,jsons/VE125_randls_76.json,1272748,1612471,32,Man
89,219796,DepthScenes,duration_manipulation_targetAtFixation,jsons/VE125_randls_76.json,http://54.235.29.9/FacialAge/BNav_EC2/DepthDuration/v2_depth_duration_MTurk/v2_DepthDuration_HTML.html#413,413,1366,625,1366,768,9-21-2022,15-28-24,90,depth_duration_stimuli/000854_2014-06-09_19-43-13_260595134347_rgbf000066-resize_0/000854_2014-06-09_19-43-13_260595134347_rgbf000066-resize_0-target.png,125,3.068,2,4958,124,feet,jsons/VE125_randls_76.json,1272748,1612471,32,Man
90,219796,DepthScenes,duration_manipulation_targetAtFixation,jsons/VE125_randls_76.json,http://54.235.29.9/FacialAge/BNav_EC2/DepthDuration/v2_depth_duration_MTurk/v2_DepthDuration_HTML.html#413,413,1366,625,1366,768,9-21-2022,15-28-24,91,depth_duration_stimuli/002964_2014-06-08_17-46-11_094959634447_rgbf000091-resize_4/002964_2014-06-08_17-46-11_094959634447_rgbf000091-resize_4-target.png,125,1.6909999999999998,2,3930,115,feet,jsons/VE125_randls_76.json,1272748,1612471,32,Man
91,219796,DepthScenes,duration_manipulation_targetAtFixation,jsons/VE125_randls_76.json,http://54.235.29.9/FacialAge/BNav_EC2/DepthDuration/v2_depth_duration_MTurk/v2_DepthDuration_HTML.html#413,413,1366,625,1366,768,9-21-2022,15-28-24,92,depth_duration_stimuli/002136_2014-06-25_21-18-03_260595134347_rgbf000109-resize_3/002136_2014-06-25_21-18-03_260595134347_rgbf000109-resize_3-target.png,125,1.9569999999999999,3,3660,124,feet,jsons/VE125_randls_76.json,1272748,1612471,32,Man
92,219796,DepthScenes,duration_manipulation_targetAtFixation,jsons/VE125_randls_76.json,http://54.235.29.9/FacialAge/BNav_EC2/DepthDuration/v2_depth_duration_MTurk/v2_DepthDuration_HTML.html#413,413,1366,625,1366,768,9-21-2022,15-28-24,93,depth_duration_stimuli/003534_2014-05-22_15-06-10_094959634447_rgbf000102-resize_4/003534_2014-05-22_15-06-10_094959634447_rgbf000102-resize_4-target.png,125,1.426,2,3949,114,feet,jsons/VE125_randls_76.json,1272748,1612471,32,Man
93,219796,DepthScenes,duration_manipulation_targetAtFixation,jsons/VE125_randls_76.json,http://54.235.29.9/FacialAge/BNav_EC2/DepthDuration/v2_depth_duration_MTurk/v2_DepthDuration_HTML.html#413,413,1366,625,1366,768,9-21-2022,15-28-24,94,depth_duration_stimuli/002637_2014-06-24_14-51-13_094959634447_rgbf000066-resize_4/002637_2014-06-24_14-51-13_094959634447_rgbf000066-resize_4-target.png,125,1.9955,3,5415,139,feet,jsons/VE125_randls_76.json,1272748,1612471,32,Man
94,219796,DepthScenes,duration_manipulation_targetAtFixation,jsons/VE125_randls_76.json,http://54.235.29.9/FacialAge/BNav_EC2/DepthDuration/v2_depth_duration_MTurk/v2_DepthDuration_HTML.html#413,413,1366,625,1366,768,9-21-2022,15-28-24,95,depth_duration_stimuli/001164_2014-06-17_15-35-46_260595134347_rgbf000085-resize_3/001164_2014-06-17_15-35-46_260595134347_rgbf000085-resize_3-target.png,125,2.354,4,4452,140,feet,jsons/VE125_randls_76.json,1272748,1612471,32,Man
95,219796,DepthScenes,duration_manipulation_targetAtFixation,jsons/VE125_randls_76.json,http://54.235.29.9/FacialAge/BNav_EC2/DepthDuration/v2_depth_duration_MTurk/v2_DepthDuration_HTML.html#413,413,1366,625,1366,768,9-21-2022,15-28-24,96,depth_duration_stimuli/001136_2014-06-17_15-19-41_260595134347_rgbf000076-resize_3/001136_2014-06-17_15-19-41_260595134347_rgbf000076-resize_3-target.png,125,1.8655,3,3610,124,feet,jsons/VE125_randls_76.json,1272748,1612471,32,Man
96,219796,DepthScenes,duration_manipulation_targetAtFixation,jsons/VE125_randls_76.json,http://54.235.29.9/FacialAge/BNav_EC2/DepthDuration/v2_depth_duration_MTurk/v2_DepthDuration_HTML.html#413,413,1366,625,1366,768,9-21-2022,15-28-24,97,depth_duration_stimuli/002057_2014-06-24_21-00-13_260595134347_rgbf000120-resize_1/002057_2014-06-24_21-00-13_260595134347_rgbf000120-resize_1-target.png,125,2.967,6,8050,123,feet,jsons/VE125_randls_76.json,1272748,1612471,32,Man
97,219796,DepthScenes,duration_manipulation_targetAtFixation,jsons/VE125_randls_76.json,http://54.235.29.9/FacialAge/BNav_EC2/DepthDuration/v2_depth_duration_MTurk/v2_DepthDuration_HTML.html#413,413,1366,625,1366,768,9-21-2022,15-28-24,98,depth_duration_stimuli/000709_2014-06-08_13-51-55_260595134347_rgbf000068-resize_3/000709_2014-06-08_13-51-55_260595134347_rgbf000068-resize_3-target.png,125,1.8030000000000002,4,3884,125,feet,jsons/VE125_randls_76.json,1272748,1612471,32,Man
98,219796,DepthScenes,duration_manipulation_targetAtFixation,jsons/VE125_randls_76.json,http://54.235.29.9/FacialAge/BNav_EC2/DepthDuration/v2_depth_duration_MTurk/v2_DepthDuration_HTML.html#413,413,1366,625,1366,768,9-21-2022,15-28-24,99,depth_duration_stimuli/001540_2014-06-20_17-01-05_260595134347_rgbf000086-resize_2/001540_2014-06-20_17-01-05_260595134347_rgbf000086-resize-original.jpg,125,1.459,0,10850,123,feet,jsons/VE125_randls_76.json,1272748,1612471,32,Man
99,219796,DepthScenes,duration_manipulation_targetAtFixation,jsons/VE125_randls_76.json,http://54.235.29.9/FacialAge/BNav_EC2/DepthDuration/v2_depth_duration_MTurk/v2_DepthDuration_HTML.html#413,413,1366,625,1366,768,9-21-2022,15-28-24,100,depth_duration_stimuli/001555_2014-06-20_17-12-10_260595134347_rgbf000065-resize_4/001555_2014-06-20_17-12-10_260595134347_rgbf000065-resize_4-target.png,125,1.633,2,5041,113,feet,jsons/VE125_randls_76.json,1272748,1612471,32,Man
100,219796,DepthScenes,duration_manipulation_targetAtFixation,jsons/VE125_randls_76.json,http://54.235.29.9/FacialAge/BNav_EC2/DepthDuration/v2_depth_duration_MTurk/v2_DepthDuration_HTML.html#413,413,1366,625,1366,768,9-21-2022,15-28-24,101,depth_duration_stimuli/000103_2014-05-14_22-01-17_260595134347_rgbf000152-resize_5/000103_2014-05-14_22-01-17_260595134347_rgbf000152-resize_5-target.png,125,1.993,2,14043,130,feet,jsons/VE125_randls_76.json,1272748,1612471,32,Man
101,219796,DepthScenes,duration_manipulation_targetAtFixation,jsons/VE125_randls_76.json,http://54.235.29.9/FacialAge/BNav_EC2/DepthDuration/v2_depth_duration_MTurk/v2_DepthDuration_HTML.html#413,413,1366,625,1366,768,9-21-2022,15-28-24,102,depth_duration_stimuli/003292_2014-05-14_21-53-49_094959634447_rgbf000100-resize_2/003292_2014-05-14_21-53-49_094959634447_rgbf000100-resize_2-target.png,125,3.4815,2,14803,139,feet,jsons/VE125_randls_76.json,1272748,1612471,32,Man
102,219796,DepthScenes,duration_manipulation_targetAtFixation,jsons/VE125_randls_76.json,http://54.235.29.9/FacialAge/BNav_EC2/DepthDuration/v2_depth_duration_MTurk/v2_DepthDuration_HTML.html#413,413,1366,625,1366,768,9-21-2022,15-28-24,103,depth_duration_stimuli/002639_2014-06-24_14-51-37_094959634447_rgbf000074-resize_4/002639_2014-06-24_14-51-37_094959634447_rgbf000074-resize_4-target.png,125,4.0375,3,3998,110,feet,jsons/VE125_randls_76.json,1272748,1612471,32,Man
103,219796,DepthScenes,duration_manipulation_targetAtFixation,jsons/VE125_randls_76.json,http://54.235.29.9/FacialAge/BNav_EC2/DepthDuration/v2_depth_duration_MTurk/v2_DepthDuration_HTML.html#413,413,1366,625,1366,768,9-21-2022,15-28-24,104,depth_duration_stimuli/001059_2014-06-08_21-53-27_260595134347_rgbf000061-resize_4/001059_2014-06-08_21-53-27_260595134347_rgbf000061-resize_4-target.png,125,2.4185,3,13615,141,feet,jsons/VE125_randls_76.json,1272748,1612471,32,Man
104,219796,DepthScenes,duration_manipulation_targetAtFixation,jsons/VE125_randls_76.json,http://54.235.29.9/FacialAge/BNav_EC2/DepthDuration/v2_depth_duration_MTurk/v2_DepthDuration_HTML.html#413,413,1366,625,1366,768,9-21-2022,15-28-24,105,depth_duration_stimuli/001032_2014-06-08_13-23-17_260595134347_rgbf000021-resize_3/001032_2014-06-08_13-23-17_260595134347_rgbf000021-resize_3-target.png,125,3.2725,3,4466,135,feet,jsons/VE125_randls_76.json,1272748,1612471,32,Man
105,219796,DepthScenes,duration_manipulation_targetAtFixation,jsons/VE125_randls_76.json,http://54.235.29.9/FacialAge/BNav_EC2/DepthDuration/v2_depth_duration_MTurk/v2_DepthDuration_HTML.html#413,413,1366,625,1366,768,9-21-2022,15-28-24,106,depth_duration_stimuli/000906_2014-06-08_13-35-43_260595134347_rgbf000155-resize_1/000906_2014-06-08_13-35-43_260595134347_rgbf000155-resize_1-target.png,125,2.8489999999999998,4,7725,99,feet,jsons/VE125_randls_76.json,1272748,1612471,32,Man
106,219796,DepthScenes,duration_manipulation_targetAtFixation,jsons/VE125_randls_76.json,http://54.235.29.9/FacialAge/BNav_EC2/DepthDuration/v2_depth_duration_MTurk/v2_DepthDuration_HTML.html#413,413,1366,625,1366,768,9-21-2022,15-28-24,107,depth_duration_stimuli/002805_2014-06-22_19-54-03_094959634447_rgbf000079-resize_1/002805_2014-06-22_19-54-03_094959634447_rgbf000079-resize_1-target.png,125,3.1439999999999997,4,10018,116,feet,jsons/VE125_randls_76.json,1272748,1612471,32,Man
107,219796,DepthScenes,duration_manipulation_targetAtFixation,jsons/VE125_randls_76.json,http://54.235.29.9/FacialAge/BNav_EC2/DepthDuration/v2_depth_duration_MTurk/v2_DepthDuration_HTML.html#413,413,1366,625,1366,768,9-21-2022,15-28-24,108,depth_duration_stimuli/002213_2014-06-28_18-37-58_260595134347_rgbf000055-resize_1/002213_2014-06-28_18-37-58_260595134347_rgbf000055-resize_1-target.png,125,3.62,5,5288,124,feet,jsons/VE125_randls_76.json,1272748,1612471,32,Man
108,219796,DepthScenes,duration_manipulation_targetAtFixation,jsons/VE125_randls_76.json,http://54.235.29.9/FacialAge/BNav_EC2/DepthDuration/v2_depth_duration_MTurk/v2_DepthDuration_HTML.html#413,413,1366,625,1366,768,9-21-2022,15-28-24,109,depth_duration_stimuli/000691_2014-06-08_13-08-50_260595134347_rgbf000132-resize_3/000691_2014-06-08_13-08-50_260595134347_rgbf000132-resize_3-target.png,125,4.1530000000000005,4,4857,126,feet,jsons/VE125_randls_76.json,1272748,1612471,32,Man
109,219796,DepthScenes,duration_manipulation_targetAtFixation,jsons/VE125_randls_76.json,http://54.235.29.9/FacialAge/BNav_EC2/DepthDuration/v2_depth_duration_MTurk/v2_DepthDuration_HTML.html#413,413,1366,625,1366,768,9-21-2022,15-28-24,110,depth_duration_stimuli/001011_2014-06-08_23-18-54_260595134347_rgbf000044-resize_4/001011_2014-06-08_23-18-54_260595134347_rgbf000044-resize_4-target.png,125,2.4730000000000003,5,6079,125,feet,jsons/VE125_randls_76.json,1272748,1612471,32,Man
110,219796,DepthScenes,duration_manipulation_targetAtFixation,jsons/VE125_randls_76.json,http://54.235.29.9/FacialAge/BNav_EC2/DepthDuration/v2_depth_duration_MTurk/v2_DepthDuration_HTML.html#413,413,1366,625,1366,768,9-21-2022,15-28-24,111,depth_duration_stimuli/002875_2014-06-01_15-19-00_094959634447_rgbf000151-resize_1/002875_2014-06-01_15-19-00_094959634447_rgbf000151-resize_1-target.png,125,1.9675,3,5726,138,feet,jsons/VE125_randls_76.json,1272748,1612471,32,Man
111,219796,DepthScenes,duration_manipulation_targetAtFixation,jsons/VE125_randls_76.json,http://54.235.29.9/FacialAge/BNav_EC2/DepthDuration/v2_depth_duration_MTurk/v2_DepthDuration_HTML.html#413,413,1366,625,1366,768,9-21-2022,15-28-24,112,depth_duration_stimuli/002630_2014-06-24_14-47-50_094959634447_rgbf000055-resize_1/002630_2014-06-24_14-47-50_094959634447_rgbf000055-resize_1-target.png,125,3.0095,5,3612,125,feet,jsons/VE125_randls_76.json,1272748,1612471,32,Man
112,219796,DepthScenes,duration_manipulation_targetAtFixation,jsons/VE125_randls_76.json,http://54.235.29.9/FacialAge/BNav_EC2/DepthDuration/v2_depth_duration_MTurk/v2_DepthDuration_HTML.html#413,413,1366,625,1366,768,9-21-2022,15-28-24,113,depth_duration_stimuli/002758_2014-06-22_19-11-20_094959634447_rgbf000128-resize_1/002758_2014-06-22_19-11-20_094959634447_rgbf000128-resize_1-target.png,125,2.555,2,4209,124,feet,jsons/VE125_randls_76.json,1272748,1612471,32,Man
113,219796,DepthScenes,duration_manipulation_targetAtFixation,jsons/VE125_randls_76.json,http://54.235.29.9/FacialAge/BNav_EC2/DepthDuration/v2_depth_duration_MTurk/v2_DepthDuration_HTML.html#413,413,1366,625,1366,768,9-21-2022,15-28-24,114,depth_duration_stimuli/001110_2014-06-15_17-25-28_260595134347_rgbf000150-resize_1/001110_2014-06-15_17-25-28_260595134347_rgbf000150-resize_1-target.png,125,1.7115,3,3854,123,feet,jsons/VE125_randls_76.json,1272748,1612471,32,Man
114,219796,DepthScenes,duration_manipulation_targetAtFixation,jsons/VE125_randls_76.json,http://54.235.29.9/FacialAge/BNav_EC2/DepthDuration/v2_depth_duration_MTurk/v2_DepthDuration_HTML.html#413,413,1366,625,1366,768,9-21-2022,15-28-24,115,depth_duration_stimuli/000927_2014-06-09_16-32-30_260595134347_rgbf000123-resize_3/000927_2014-06-09_16-32-30_260595134347_rgbf000123-resize_3-target.png,125,2.6785,4,3633,141,feet,jsons/VE125_randls_76.json,1272748,1612471,32,Man
115,219796,DepthScenes,duration_manipulation_targetAtFixation,jsons/VE125_randls_76.json,http://54.235.29.9/FacialAge/BNav_EC2/DepthDuration/v2_depth_duration_MTurk/v2_DepthDuration_HTML.html#413,413,1366,625,1366,768,9-21-2022,15-28-24,116,depth_duration_stimuli/001170_2014-06-17_15-43-44_260595134347_rgbf000096-resize_6/001170_2014-06-17_15-43-44_260595134347_rgbf000096-resize-original.jpg,125,1.1909999999999998,0,5559,131,feet,jsons/VE125_randls_76.json,1272748,1612471,32,Man
116,219796,DepthScenes,duration_manipulation_targetAtFixation,jsons/VE125_randls_76.json,http://54.235.29.9/FacialAge/BNav_EC2/DepthDuration/v2_depth_duration_MTurk/v2_DepthDuration_HTML.html#413,413,1366,625,1366,768,9-21-2022,15-28-24,117,depth_duration_stimuli/001806_2014-06-26_20-50-20_260595134347_rgbf000091-resize_1/001806_2014-06-26_20-50-20_260595134347_rgbf000091-resize_1-target.png,125,2.7305,2,5077,124,feet,jsons/VE125_randls_76.json,1272748,1612471,32,Man
117,219796,DepthScenes,duration_manipulation_targetAtFixation,jsons/VE125_randls_76.json,http://54.235.29.9/FacialAge/BNav_EC2/DepthDuration/v2_depth_duration_MTurk/v2_DepthDuration_HTML.html#413,413,1366,625,1366,768,9-21-2022,15-28-24,118,depth_duration_stimuli/001617_2014-06-20_11-35-32_260595134347_rgbf000066-resize_1/001617_2014-06-20_11-35-32_260595134347_rgbf000066-resize_1-target.png,125,3.7910000000000004,3,7799,134,feet,jsons/VE125_randls_76.json,1272748,1612471,32,Man
118,219796,DepthScenes,duration_manipulation_targetAtFixation,jsons/VE125_randls_76.json,http://54.235.29.9/FacialAge/BNav_EC2/DepthDuration/v2_depth_duration_MTurk/v2_DepthDuration_HTML.html#413,413,1366,625,1366,768,9-21-2022,15-28-24,119,depth_duration_stimuli/002445_2014-06-28_20-32-16_260595134347_rgbf000029-resize_4/002445_2014-06-28_20-32-16_260595134347_rgbf000029-resize_4-target.png,125,2.5315,3,7983,123,feet,jsons/VE125_randls_76.json,1272748,1612471,32,Man
119,219796,DepthScenes,duration_manipulation_targetAtFixation,jsons/VE125_randls_76.json,http://54.235.29.9/FacialAge/BNav_EC2/DepthDuration/v2_depth_duration_MTurk/v2_DepthDuration_HTML.html#413,413,1366,625,1366,768,9-21-2022,15-28-24,120,depth_duration_stimuli/000780_2014-06-08_22-28-29_260595134347_rgbf000126-resize_1/000780_2014-06-08_22-28-29_260595134347_rgbf000126-resize_1-target.png,125,3.3825,4,5169,140,feet,jsons/VE125_randls_76.json,1272748,1612471,32,Man
120,219796,DepthScenes,duration_manipulation_targetAtFixation,jsons/VE125_randls_76.json,http://54.235.29.9/FacialAge/BNav_EC2/DepthDuration/v2_depth_duration_MTurk/v2_DepthDuration_HTML.html#413,413,1366,625,1366,768,9-21-2022,15-28-24,121,depth_duration_stimuli/001808_2014-06-26_20-50-58_260595134347_rgbf000029-resize_1/001808_2014-06-26_20-50-58_260595134347_rgbf000029-resize_1-target.png,125,4.249,5,5186,140,feet,jsons/VE125_randls_76.json,1272748,1612471,32,Man
121,219796,DepthScenes,duration_manipulation_targetAtFixation,jsons/VE125_randls_76.json,http://54.235.29.9/FacialAge/BNav_EC2/DepthDuration/v2_depth_duration_MTurk/v2_DepthDuration_HTML.html#413,413,1366,625,1366,768,9-21-2022,15-28-24,122,depth_duration_stimuli/001815_2014-06-26_20-52-55_260595134347_rgbf000020-resize_0/001815_2014-06-26_20-52-55_260595134347_rgbf000020-resize_0-target.png,125,3.3865,5,2912,125,feet,jsons/VE125_randls_76.json,1272748,1612471,32,Man
122,219796,DepthScenes,duration_manipulation_targetAtFixation,jsons/VE125_randls_76.json,http://54.235.29.9/FacialAge/BNav_EC2/DepthDuration/v2_depth_duration_MTurk/v2_DepthDuration_HTML.html#413,413,1366,625,1366,768,9-21-2022,15-28-24,123,depth_duration_stimuli/001810_2014-06-26_20-51-35_260595134347_rgbf000040-resize_3/001810_2014-06-26_20-51-35_260595134347_rgbf000040-resize_3-target.png,125,2.2525,3,5030,115,feet,jsons/VE125_randls_76.json,1272748,1612471,32,Man
123,219796,DepthScenes,duration_manipulation_targetAtFixation,jsons/VE125_randls_76.json,http://54.235.29.9/FacialAge/BNav_EC2/DepthDuration/v2_depth_duration_MTurk/v2_DepthDuration_HTML.html#413,413,1366,625,1366,768,9-21-2022,15-28-24,124,depth_duration_stimuli/003010_2014-06-15_12-54-35_094959634447_rgbf000112-resize_0/003010_2014-06-15_12-54-35_094959634447_rgbf000112-resize_0-target.png,125,3.1185,6,3551,124,feet,jsons/VE125_randls_76.json,1272748,1612471,32,Man
124,219796,DepthScenes,duration_manipulation_targetAtFixation,jsons/VE125_randls_76.json,http://54.235.29.9/FacialAge/BNav_EC2/DepthDuration/v2_depth_duration_MTurk/v2_DepthDuration_HTML.html#413,413,1366,625,1366,768,9-21-2022,15-28-24,125,depth_duration_stimuli/001175_2014-06-17_15-45-55_260595134347_rgbf000129-resize_4/001175_2014-06-17_15-45-55_260595134347_rgbf000129-resize_4-target.png,125,4.255,5,5410,113,feet,jsons/VE125_randls_76.json,1272748,1612471,32,Man
125,219796,DepthScenes,duration_manipulation_targetAtFixation,jsons/VE125_randls_76.json,http://54.235.29.9/FacialAge/BNav_EC2/DepthDuration/v2_depth_duration_MTurk/v2_DepthDuration_HTML.html#413,413,1366,625,1366,768,9-21-2022,15-28-24,126,depth_duration_stimuli/003490_2014-05-21_15-50-11_094959634447_rgbf000101-resize_3/003490_2014-05-21_15-50-11_094959634447_rgbf000101-resize_3-target.png,125,3.6445,6,4036,114,feet,jsons/VE125_randls_76.json,1272748,1612471,32,Man
126,219796,DepthScenes,duration_manipulation_targetAtFixation,jsons/VE125_randls_76.json,http://54.235.29.9/FacialAge/BNav_EC2/DepthDuration/v2_depth_duration_MTurk/v2_DepthDuration_HTML.html#413,413,1366,625,1366,768,9-21-2022,15-28-24,127,depth_duration_stimuli/000493_2014-06-09_21-01-18_260595134347_rgbf000196-resize_3/000493_2014-06-09_21-01-18_260595134347_rgbf000196-resize_3-target.png,125,3.44,5,3815,123,feet,jsons/VE125_randls_76.json,1272748,1612471,32,Man
127,219796,DepthScenes,duration_manipulation_targetAtFixation,jsons/VE125_randls_76.json,http://54.235.29.9/FacialAge/BNav_EC2/DepthDuration/v2_depth_duration_MTurk/v2_DepthDuration_HTML.html#413,413,1366,625,1366,768,9-21-2022,15-28-24,128,depth_duration_stimuli/000191_2014-05-12_17-07-38_260595134347_rgbf000199-resize_0/000191_2014-05-12_17-07-38_260595134347_rgbf000199-resize_0-target.png,125,3.7995,6,3655,141,feet,jsons/VE125_randls_76.json,1272748,1612471,32,Man
128,219796,DepthScenes,duration_manipulation_targetAtFixation,jsons/VE125_randls_76.json,http://54.235.29.9/FacialAge/BNav_EC2/DepthDuration/v2_depth_duration_MTurk/v2_DepthDuration_HTML.html#413,413,1366,625,1366,768,9-21-2022,15-28-24,129,depth_duration_stimuli/002279_2014-06-28_18-55-32_260595134347_rgbf000040-resize_5/002279_2014-06-28_18-55-32_260595134347_rgbf000040-resize_5-target.png,125,1.5043333333333,2,4010,124,feet,jsons/VE125_randls_76.json,1272748,1612471,32,Man
129,219796,DepthScenes,duration_manipulation_targetAtFixation,jsons/VE125_randls_76.json,http://54.235.29.9/FacialAge/BNav_EC2/DepthDuration/v2_depth_duration_MTurk/v2_DepthDuration_HTML.html#413,413,1366,625,1366,768,9-21-2022,15-28-24,130,depth_duration_stimuli/000635_2014-06-08_16-38-42_260595134347_rgbf000106-resize_1/000635_2014-06-08_16-38-42_260595134347_rgbf000106-resize_1-target.png,125,2.074,5,4736,125,feet,jsons/VE125_randls_76.json,1272748,1612471,32,Man
130,219796,DepthScenes,duration_manipulation_targetAtFixation,jsons/VE125_randls_76.json,http://54.235.29.9/FacialAge/BNav_EC2/DepthDuration/v2_depth_duration_MTurk/v2_DepthDuration_HTML.html#413,413,1366,625,1366,768,9-21-2022,15-28-24,131,depth_duration_stimuli/001092_2014-06-15_17-34-58_260595134347_rgbf000171-resize_3/001092_2014-06-15_17-34-58_260595134347_rgbf000171-resize_3-target.png,125,2.6935,3,3780,111,feet,jsons/VE125_randls_76.json,1272748,1612471,32,Man
131,219796,DepthScenes,duration_manipulation_targetAtFixation,jsons/VE125_randls_76.json,http://54.235.29.9/FacialAge/BNav_EC2/DepthDuration/v2_depth_duration_MTurk/v2_DepthDuration_HTML.html#413,413,1366,625,1366,768,9-21-2022,15-28-24,132,depth_duration_stimuli/002545_2014-06-24_13-38-53_094959634447_rgbf000080-resize_4/002545_2014-06-24_13-38-53_094959634447_rgbf000080-resize_4-target.png,125,1.9205,3,4281,139,feet,jsons/VE125_randls_76.json,1272748,1612471,32,Man
132,219796,DepthScenes,duration_manipulation_targetAtFixation,jsons/VE125_randls_76.json,http://54.235.29.9/FacialAge/BNav_EC2/DepthDuration/v2_depth_duration_MTurk/v2_DepthDuration_HTML.html#413,413,1366,625,1366,768,9-21-2022,15-28-24,133,depth_duration_stimuli/000469_2014-06-09_19-42-10_260595134347_rgbf000081-resize_1/000469_2014-06-09_19-42-10_260595134347_rgbf000081-resize_1-target.png,125,1.652,2,3891,125,feet,jsons/VE125_randls_76.json,1272748,1612471,32,Man
133,219796,DepthScenes,duration_manipulation_targetAtFixation,jsons/VE125_randls_76.json,http://54.235.29.9/FacialAge/BNav_EC2/DepthDuration/v2_depth_duration_MTurk/v2_DepthDuration_HTML.html#413,413,1366,625,1366,768,9-21-2022,15-28-24,134,depth_duration_stimuli/000483_2014-06-09_20-41-45_260595134347_rgbf000116-resize_4/000483_2014-06-09_20-41-45_260595134347_rgbf000116-resize_4-target.png,125,1.337,2,3846,139,feet,jsons/VE125_randls_76.json,1272748,1612471,32,Man
134,219796,DepthScenes,duration_manipulation_targetAtFixation,jsons/VE125_randls_76.json,http://54.235.29.9/FacialAge/BNav_EC2/DepthDuration/v2_depth_duration_MTurk/v2_DepthDuration_HTML.html#413,413,1366,625,1366,768,9-21-2022,15-28-24,135,depth_duration_stimuli/002072_2014-06-24_21-48-06_260595134347_rgbf000115-resize_0/002072_2014-06-24_21-48-06_260595134347_rgbf000115-resize-original.jpg,125,4.702,2,3234,81,feet,jsons/VE125_randls_76.json,1272748,1612471,32,Man
135,219796,DepthScenes,duration_manipulation_targetAtFixation,jsons/VE125_randls_76.json,http://54.235.29.9/FacialAge/BNav_EC2/DepthDuration/v2_depth_duration_MTurk/v2_DepthDuration_HTML.html#413,413,1366,625,1366,768,9-21-2022,15-28-24,136,depth_duration_stimuli/001449_2014-06-19_17-01-27_260595134347_rgbf000116-resize_2/001449_2014-06-19_17-01-27_260595134347_rgbf000116-resize_2-target.png,125,3.452,3,3675,123,feet,jsons/VE125_randls_76.json,1272748,1612471,32,Man
136,219796,DepthScenes,duration_manipulation_targetAtFixation,jsons/VE125_randls_76.json,http://54.235.29.9/FacialAge/BNav_EC2/DepthDuration/v2_depth_duration_MTurk/v2_DepthDuration_HTML.html#413,413,1366,625,1366,768,9-21-2022,15-28-24,137,depth_duration_stimuli/001450_2014-06-19_17-02-03_260595134347_rgbf000203-resize_4/001450_2014-06-19_17-02-03_260595134347_rgbf000203-resize_4-target.png,125,4.0106666666667,3,4382,135,feet,jsons/VE125_randls_76.json,1272748,1612471,32,Man
137,219796,DepthScenes,duration_manipulation_targetAtFixation,jsons/VE125_randls_76.json,http://54.235.29.9/FacialAge/BNav_EC2/DepthDuration/v2_depth_duration_MTurk/v2_DepthDuration_HTML.html#413,413,1366,625,1366,768,9-21-2022,15-28-24,138,depth_duration_stimuli/000736_2014-06-08_18-24-15_260595134347_rgbf000206-resize_3/000736_2014-06-08_18-24-15_260595134347_rgbf000206-resize_3-target.png,125,3.515,3,4527,106,feet,jsons/VE125_randls_76.json,1272748,1612471,32,Man
138,219796,DepthScenes,duration_manipulation_targetAtFixation,jsons/VE125_randls_76.json,http://54.235.29.9/FacialAge/BNav_EC2/DepthDuration/v2_depth_duration_MTurk/v2_DepthDuration_HTML.html#413,413,1366,625,1366,768,9-21-2022,15-28-24,139,depth_duration_stimuli/000137_2014-05-20_17-04-49_260595134347_rgbf000120-resize_1/000137_2014-05-20_17-04-49_260595134347_rgbf000120-resize_1-target.png,125,3.786,5,3523,139,feet,jsons/VE125_randls_76.json,1272748,1612471,32,Man
139,219796,DepthScenes,duration_manipulation_targetAtFixation,jsons/VE125_randls_76.json,http://54.235.29.9/FacialAge/BNav_EC2/DepthDuration/v2_depth_duration_MTurk/v2_DepthDuration_HTML.html#413,413,1366,625,1366,768,9-21-2022,15-28-24,140,depth_duration_stimuli/000739_2014-06-08_18-45-58_260595134347_rgbf000068-resize_1/000739_2014-06-08_18-45-58_260595134347_rgbf000068-resize_1-target.png,125,3.534,6,4335,125,feet,jsons/VE125_randls_76.json,1272748,1612471,32,Man
140,219796,DepthScenes,duration_manipulation_targetAtFixation,jsons/VE125_randls_76.json,http://54.235.29.9/FacialAge/BNav_EC2/DepthDuration/v2_depth_duration_MTurk/v2_DepthDuration_HTML.html#413,413,1366,625,1366,768,9-21-2022,15-28-24,141,depth_duration_stimuli/000734_2014-06-08_17-39-11_260595134347_rgbf000128-resize_2/000734_2014-06-08_17-39-11_260595134347_rgbf000128-resize_2-target.png,125,4.098,6,5313,117,feet,jsons/VE125_randls_76.json,1272748,1612471,32,Man
141,219796,DepthScenes,duration_manipulation_targetAtFixation,jsons/VE125_randls_76.json,http://54.235.29.9/FacialAge/BNav_EC2/DepthDuration/v2_depth_duration_MTurk/v2_DepthDuration_HTML.html#413,413,1366,625,1366,768,9-21-2022,15-28-24,142,depth_duration_stimuli/001244_2014-06-17_16-47-45_260595134347_rgbf000030-resize_4/001244_2014-06-17_16-47-45_260595134347_rgbf000030-resize_4-target.png,125,2.0425,1,4382,123,feet,jsons/VE125_randls_76.json,1272748,1612471,32,Man
142,219796,DepthScenes,duration_manipulation_targetAtFixation,jsons/VE125_randls_76.json,http://54.235.29.9/FacialAge/BNav_EC2/DepthDuration/v2_depth_duration_MTurk/v2_DepthDuration_HTML.html#413,413,1366,625,1366,768,9-21-2022,15-28-24,143,depth_duration_stimuli/003495_2014-05-21_16-01-51_094959634447_rgbf000100-resize_3/003495_2014-05-21_16-01-51_094959634447_rgbf000100-resize_3-target.png,125,1.6255,2,4747,140,feet,jsons/VE125_randls_76.json,1272748,1612471,32,Man
143,219796,DepthScenes,duration_manipulation_targetAtFixation,jsons/VE125_randls_76.json,http://54.235.29.9/FacialAge/BNav_EC2/DepthDuration/v2_depth_duration_MTurk/v2_DepthDuration_HTML.html#413,413,1366,625,1366,768,9-21-2022,15-28-24,144,depth_duration_stimuli/001150_2014-06-17_15-27-34_260595134347_rgbf000108-resize_2/001150_2014-06-17_15-27-34_260595134347_rgbf000108-resize_2-target.png,125,4.0325,3,5134,125,feet,jsons/VE125_randls_76.json,1272748,1612471,32,Man
144,219796,DepthScenes,duration_manipulation_targetAtFixation,jsons/VE125_randls_76.json,http://54.235.29.9/FacialAge/BNav_EC2/DepthDuration/v2_depth_duration_MTurk/v2_DepthDuration_HTML.html#413,413,1366,625,1366,768,9-21-2022,15-28-24,145,depth_duration_stimuli/000665_2014-06-09_20-42-35_260595134347_rgbf000110-resize_1/000665_2014-06-09_20-42-35_260595134347_rgbf000110-resize_1-target.png,125,3.057,3,4379,120,feet,jsons/VE125_randls_76.json,1272748,1612471,32,Man
145,219796,DepthScenes,duration_manipulation_targetAtFixation,jsons/VE125_randls_76.json,http://54.235.29.9/FacialAge/BNav_EC2/DepthDuration/v2_depth_duration_MTurk/v2_DepthDuration_HTML.html#413,413,1366,625,1366,768,9-21-2022,15-28-24,146,depth_duration_stimuli/001498_2014-06-19_17-45-14_260595134347_rgbf000129-resize_4/001498_2014-06-19_17-45-14_260595134347_rgbf000129-resize-original.jpg,125,1.4075,0,4210,151,feet,jsons/VE125_randls_76.json,1272748,1612471,32,Man
146,219796,DepthScenes,duration_manipulation_targetAtFixation,jsons/VE125_randls_76.json,http://54.235.29.9/FacialAge/BNav_EC2/DepthDuration/v2_depth_duration_MTurk/v2_DepthDuration_HTML.html#413,413,1366,625,1366,768,9-21-2022,15-28-24,147,depth_duration_stimuli/001133_2014-06-17_14-49-16_260595134347_rgbf000100-resize_0/001133_2014-06-17_14-49-16_260595134347_rgbf000100-resize_0-target.png,125,4.2115,3,5280,125,feet,jsons/VE125_randls_76.json,1272748,1612471,32,Man
147,219796,DepthScenes,duration_manipulation_targetAtFixation,jsons/VE125_randls_76.json,http://54.235.29.9/FacialAge/BNav_EC2/DepthDuration/v2_depth_duration_MTurk/v2_DepthDuration_HTML.html#413,413,1366,625,1366,768,9-21-2022,15-28-24,148,depth_duration_stimuli/001132_2014-06-17_14-48-54_260595134347_rgbf000100-resize_2/001132_2014-06-17_14-48-54_260595134347_rgbf000100-resize_2-target.png,125,3.753,5,4790,122,feet,jsons/VE125_randls_76.json,1272748,1612471,32,Man
148,219796,DepthScenes,duration_manipulation_targetAtFixation,jsons/VE125_randls_76.json,http://54.235.29.9/FacialAge/BNav_EC2/DepthDuration/v2_depth_duration_MTurk/v2_DepthDuration_HTML.html#413,413,1366,625,1366,768,9-21-2022,15-28-24,149,depth_duration_stimuli/000414_2014-06-04_19-49-13_260595134347_rgbf000044-resize_0/000414_2014-06-04_19-49-13_260595134347_rgbf000044-resize_0-target.png,125,4.329,6,4549,143,feet,jsons/VE125_randls_76.json,1272748,1612471,32,Man
149,219796,DepthScenes,duration_manipulation_targetAtFixation,jsons/VE125_randls_76.json,http://54.235.29.9/FacialAge/BNav_EC2/DepthDuration/v2_depth_duration_MTurk/v2_DepthDuration_HTML.html#413,413,1366,625,1366,768,9-21-2022,15-28-24,150,depth_duration_stimuli/003129_2014-05-12_10-48-10_094959634447_rgbf000100-resize_0/003129_2014-05-12_10-48-10_094959634447_rgbf000100-resize_0-target.png,125,4.9305,6,4008,121,feet,jsons/VE125_randls_76.json,1272748,1612471,32,Man
150,219796,DepthScenes,duration_manipulation_targetAtFixation,jsons/VE125_randls_76.json,http://54.235.29.9/FacialAge/BNav_EC2/DepthDuration/v2_depth_duration_MTurk/v2_DepthDuration_HTML.html#413,413,1366,625,1366,768,9-21-2022,15-28-24,151,depth_duration_stimuli/000788_2014-06-08_22-34-36_260595134347_rgbf000131-resize_1/000788_2014-06-08_22-34-36_260595134347_rgbf000131-resize_1-target.png,125,3.359,5,6513,140,feet,jsons/VE125_randls_76.json,1272748,1612471,32,Man
151,219796,DepthScenes,duration_manipulation_targetAtFixation,jsons/VE125_randls_76.json,http://54.235.29.9/FacialAge/BNav_EC2/DepthDuration/v2_depth_duration_MTurk/v2_DepthDuration_HTML.html#413,413,1366,625,1366,768,9-21-2022,15-28-24,152,depth_duration_stimuli/001235_2014-06-17_16-37-36_260595134347_rgbf000084-resize_4/001235_2014-06-17_16-37-36_260595134347_rgbf000084-resize_4-target.png,125,3.6605,5,3366,123,feet,jsons/VE125_randls_76.json,1272748,1612471,32,Man
152,219796,DepthScenes,duration_manipulation_targetAtFixation,jsons/VE125_randls_76.json,http://54.235.29.9/FacialAge/BNav_EC2/DepthDuration/v2_depth_duration_MTurk/v2_DepthDuration_HTML.html#413,413,1366,625,1366,768,9-21-2022,15-28-24,153,depth_duration_stimuli/003492_2014-05-21_15-50-55_094959634447_rgbf000828-resize_1/003492_2014-05-21_15-50-55_094959634447_rgbf000828-resize_1-target.png,125,4.06875,6,12971,125,feet,jsons/VE125_randls_76.json,1272748,1612471,32,Man
153,219796,DepthScenes,duration_manipulation_targetAtFixation,jsons/VE125_randls_76.json,http://54.235.29.9/FacialAge/BNav_EC2/DepthDuration/v2_depth_duration_MTurk/v2_DepthDuration_HTML.html#413,413,1366,625,1366,768,9-21-2022,15-28-24,154,depth_duration_stimuli/002568_2014-06-24_13-59-21_094959634447_rgbf000062-resize_4/002568_2014-06-24_13-59-21_094959634447_rgbf000062-resize_4-target.png,125,3.015,5,7905,117,feet,jsons/VE125_randls_76.json,1272748,1612471,32,Man
154,219796,DepthScenes,duration_manipulation_targetAtFixation,jsons/VE125_randls_76.json,http://54.235.29.9/FacialAge/BNav_EC2/DepthDuration/v2_depth_duration_MTurk/v2_DepthDuration_HTML.html#413,413,1366,625,1366,768,9-21-2022,15-28-24,155,depth_duration_stimuli/002748_2014-06-22_19-07-22_094959634447_rgbf000078-resize_1/002748_2014-06-22_19-07-22_094959634447_rgbf000078-resize_1-target.png,125,4.6705,6,4410,140,feet,jsons/VE125_randls_76.json,1272748,1612471,32,Man
155,219796,DepthScenes,duration_manipulation_targetAtFixation,jsons/VE125_randls_76.json,http://54.235.29.9/FacialAge/BNav_EC2/DepthDuration/v2_depth_duration_MTurk/v2_DepthDuration_HTML.html#413,413,1366,625,1366,768,9-21-2022,15-28-24,156,depth_duration_stimuli/002995_2014-06-15_12-31-26_094959634447_rgbf000150-resize_1/002995_2014-06-15_12-31-26_094959634447_rgbf000150-resize_1-target.png,125,3.8360000000000003,2,26120,125,feet,jsons/VE125_randls_76.json,1272748,1612471,32,Man
156,219796,DepthScenes,duration_manipulation_targetAtFixation,jsons/VE125_randls_76.json,http://54.235.29.9/FacialAge/BNav_EC2/DepthDuration/v2_depth_duration_MTurk/v2_DepthDuration_HTML.html#413,413,1366,625,1366,768,9-21-2022,15-28-24,157,depth_duration_stimuli/002788_2014-06-22_19-36-03_094959634447_rgbf000088-resize_2/002788_2014-06-22_19-36-03_094959634447_rgbf000088-resize_2-target.png,125,1.6465,5,3979,140,feet,jsons/VE125_randls_76.json,1272748,1612471,32,Man
157,219796,DepthScenes,duration_manipulation_targetAtFixation,jsons/VE125_randls_76.json,http://54.235.29.9/FacialAge/BNav_EC2/DepthDuration/v2_depth_duration_MTurk/v2_DepthDuration_HTML.html#413,413,1366,625,1366,768,9-21-2022,15-28-24,158,depth_duration_stimuli/000749_2014-06-08_21-55-06_260595134347_rgbf000070-resize_2/000749_2014-06-08_21-55-06_260595134347_rgbf000070-resize_2-target.png,125,2.331,3,3736,124,feet,jsons/VE125_randls_76.json,1272748,1612471,32,Man
158,219796,DepthScenes,duration_manipulation_targetAtFixation,jsons/VE125_randls_76.json,http://54.235.29.9/FacialAge/BNav_EC2/DepthDuration/v2_depth_duration_MTurk/v2_DepthDuration_HTML.html#413,413,1366,625,1366,768,9-21-2022,15-28-24,159,depth_duration_stimuli/000506_2014-06-08_23-21-00_260595134347_rgbf000070-resize_7/000506_2014-06-08_23-21-00_260595134347_rgbf000070-resize_7-target.png,125,4.0585,3,4222,124,feet,jsons/VE125_randls_76.json,1272748,1612471,32,Man
159,219796,DepthScenes,duration_manipulation_targetAtFixation,jsons/VE125_randls_76.json,http://54.235.29.9/FacialAge/BNav_EC2/DepthDuration/v2_depth_duration_MTurk/v2_DepthDuration_HTML.html#413,413,1366,625,1366,768,9-21-2022,15-28-24,160,depth_duration_stimuli/003079_2014-06-15_15-18-20_094959634447_rgbf000152-resize_8/003079_2014-06-15_15-18-20_094959634447_rgbf000152-resize_8-target.png,125,2.8775,6,3839,134,feet,jsons/VE125_randls_76.json,1272748,1612471,32,Man
160,219796,DepthScenes,duration_manipulation_targetAtFixation,jsons/VE125_randls_76.json,http://54.235.29.9/FacialAge/BNav_EC2/DepthDuration/v2_depth_duration_MTurk/v2_DepthDuration_HTML.html#413,413,1366,625,1366,768,9-21-2022,15-28-24,161,depth_duration_stimuli/002570_2014-06-24_13-59-54_094959634447_rgbf000059-resize_0/002570_2014-06-24_13-59-54_094959634447_rgbf000059-resize_0-target.png,125,4.037,1,4731,126,feet,jsons/VE125_randls_76.json,1272748,1612471,32,Man
161,219796,DepthScenes,duration_manipulation_targetAtFixation,jsons/VE125_randls_76.json,http://54.235.29.9/FacialAge/BNav_EC2/DepthDuration/v2_depth_duration_MTurk/v2_DepthDuration_HTML.html#413,413,1366,625,1366,768,9-21-2022,15-28-24,162,depth_duration_stimuli/002467_2014-06-28_20-38-07_260595134347_rgbf000026-resize_2/002467_2014-06-28_20-38-07_260595134347_rgbf000026-resize_2-target.png,125,4.742,3,4152,124,feet,jsons/VE125_randls_76.json,1272748,1612471,32,Man
162,219796,DepthScenes,duration_manipulation_targetAtFixation,jsons/VE125_randls_76.json,http://54.235.29.9/FacialAge/BNav_EC2/DepthDuration/v2_depth_duration_MTurk/v2_DepthDuration_HTML.html#413,413,1366,625,1366,768,9-21-2022,15-28-24,163,depth_duration_stimuli/002784_2014-06-22_19-26-30_094959634447_rgbf000083-resize_3/002784_2014-06-22_19-26-30_094959634447_rgbf000083-resize_3-target.png,125,1.8046666666667,2,4313,120,feet,jsons/VE125_randls_76.json,1272748,1612471,32,Man
163,219796,DepthScenes,duration_manipulation_targetAtFixation,jsons/VE125_randls_76.json,http://54.235.29.9/FacialAge/BNav_EC2/DepthDuration/v2_depth_duration_MTurk/v2_DepthDuration_HTML.html#413,413,1366,625,1366,768,9-21-2022,15-28-24,164,depth_duration_stimuli/001100_2014-06-15_17-46-26_260595134347_rgbf000225-resize_2/001100_2014-06-15_17-46-26_260595134347_rgbf000225-resize_2-target.png,125,2.24,1,4640,124,feet,jsons/VE125_randls_76.json,1272748,1612471,32,Man
