,subjID,experimentName,versionName,sequenceName,url,selected_row,windowWidth,windowHeight,screenWidth,screenHeight,startDate,startTime,trial,stimulus,duration,actual_depth,depth_estimate,trial_RT,log_sceneDuration,unitSelection,seq_filepath,experimentTime,totalTime,age,gender
0,222615,DepthScenes,duration_manipulation_targetAtFixation,jsons/VE125_randls_69.json,http://54.235.29.9/FacialAge/BNav_EC2/DepthDuration/v2_depth_duration_MTurk/v2_DepthDuration_HTML.html#74,74,1364,625,1364,768,8-21-2022,9-39-15,1,depth_duration_stimuli/000878_2014-06-08_22-52-45_260595134347_rgbf000045-resize_2/000878_2014-06-08_22-52-45_260595134347_rgbf000045-resize_2-target.png,125,2.092,6,15679,125,feet,jsons/VE125_randls_69.json,1842365,2347320,30,Woman
1,222615,DepthScenes,duration_manipulation_targetAtFixation,jsons/VE125_randls_69.json,http://54.235.29.9/FacialAge/BNav_EC2/DepthDuration/v2_depth_duration_MTurk/v2_DepthDuration_HTML.html#74,74,1364,625,1364,768,8-21-2022,9-39-15,2,depth_duration_stimuli/002953_2014-06-08_17-32-18_094959634447_rgbf000059-resize_5/002953_2014-06-08_17-32-18_094959634447_rgbf000059-resize_5-target.png,125,1.551,9,5770,127,feet,jsons/VE125_randls_69.json,1842365,2347320,30,Woman
2,222615,DepthScenes,duration_manipulation_targetAtFixation,jsons/VE125_randls_69.json,http://54.235.29.9/FacialAge/BNav_EC2/DepthDuration/v2_depth_duration_MTurk/v2_DepthDuration_HTML.html#74,74,1364,625,1364,768,8-21-2022,9-39-15,3,depth_duration_stimuli/002549_2014-06-24_13-41-39_094959634447_rgbf000022-resize_3/002549_2014-06-24_13-41-39_094959634447_rgbf000022-resize_3-target.png,125,1.476,6,11592,114,feet,jsons/VE125_randls_69.json,1842365,2347320,30,Woman
3,222615,DepthScenes,duration_manipulation_targetAtFixation,jsons/VE125_randls_69.json,http://54.235.29.9/FacialAge/BNav_EC2/DepthDuration/v2_depth_duration_MTurk/v2_DepthDuration_HTML.html#74,74,1364,625,1364,768,8-21-2022,9-39-15,4,depth_duration_stimuli/002750_2014-06-22_19-08-03_094959634447_rgbf000094-resize_4/002750_2014-06-22_19-08-03_094959634447_rgbf000094-resize_4-target.png,125,2.354,8,8982,127,feet,jsons/VE125_randls_69.json,1842365,2347320,30,Woman
4,222615,DepthScenes,duration_manipulation_targetAtFixation,jsons/VE125_randls_69.json,http://54.235.29.9/FacialAge/BNav_EC2/DepthDuration/v2_depth_duration_MTurk/v2_DepthDuration_HTML.html#74,74,1364,625,1364,768,8-21-2022,9-39-15,5,depth_duration_stimuli/001011_2014-06-08_23-18-54_260595134347_rgbf000044-resize_4/001011_2014-06-08_23-18-54_260595134347_rgbf000044-resize_4-target.png,125,2.4730000000000003,7,6890,141,feet,jsons/VE125_randls_69.json,1842365,2347320,30,Woman
5,222615,DepthScenes,duration_manipulation_targetAtFixation,jsons/VE125_randls_69.json,http://54.235.29.9/FacialAge/BNav_EC2/DepthDuration/v2_depth_duration_MTurk/v2_DepthDuration_HTML.html#74,74,1364,625,1364,768,8-21-2022,9-39-15,6,depth_duration_stimuli/002875_2014-06-01_15-19-00_094959634447_rgbf000151-resize_1/002875_2014-06-01_15-19-00_094959634447_rgbf000151-resize_1-target.png,125,1.9675,5,6342,136,feet,jsons/VE125_randls_69.json,1842365,2347320,30,Woman
6,222615,DepthScenes,duration_manipulation_targetAtFixation,jsons/VE125_randls_69.json,http://54.235.29.9/FacialAge/BNav_EC2/DepthDuration/v2_depth_duration_MTurk/v2_DepthDuration_HTML.html#74,74,1364,625,1364,768,8-21-2022,9-39-15,7,depth_duration_stimuli/001092_2014-06-15_17-34-58_260595134347_rgbf000171-resize_3/001092_2014-06-15_17-34-58_260595134347_rgbf000171-resize_3-target.png,125,2.6935,9,6001,124,feet,jsons/VE125_randls_69.json,1842365,2347320,30,Woman
7,222615,DepthScenes,duration_manipulation_targetAtFixation,jsons/VE125_randls_69.json,http://54.235.29.9/FacialAge/BNav_EC2/DepthDuration/v2_depth_duration_MTurk/v2_DepthDuration_HTML.html#74,74,1364,625,1364,768,8-21-2022,9-39-15,8,depth_duration_stimuli/002545_2014-06-24_13-38-53_094959634447_rgbf000080-resize_4/002545_2014-06-24_13-38-53_094959634447_rgbf000080-resize_4-target.png,125,1.9205,9,22292,123,feet,jsons/VE125_randls_69.json,1842365,2347320,30,Woman
8,222615,DepthScenes,duration_manipulation_targetAtFixation,jsons/VE125_randls_69.json,http://54.235.29.9/FacialAge/BNav_EC2/DepthDuration/v2_depth_duration_MTurk/v2_DepthDuration_HTML.html#74,74,1364,625,1364,768,8-21-2022,9-39-15,9,depth_duration_stimuli/001808_2014-06-26_20-50-58_260595134347_rgbf000029-resize_1/001808_2014-06-26_20-50-58_260595134347_rgbf000029-resize_1-target.png,125,4.249,6,4285,113,feet,jsons/VE125_randls_69.json,1842365,2347320,30,Woman
9,222615,DepthScenes,duration_manipulation_targetAtFixation,jsons/VE125_randls_69.json,http://54.235.29.9/FacialAge/BNav_EC2/DepthDuration/v2_depth_duration_MTurk/v2_DepthDuration_HTML.html#74,74,1364,625,1364,768,8-21-2022,9-39-15,10,depth_duration_stimuli/001815_2014-06-26_20-52-55_260595134347_rgbf000020-resize_0/001815_2014-06-26_20-52-55_260595134347_rgbf000020-resize_0-target.png,125,3.3865,6,9382,117,feet,jsons/VE125_randls_69.json,1842365,2347320,30,Woman
10,222615,DepthScenes,duration_manipulation_targetAtFixation,jsons/VE125_randls_69.json,http://54.235.29.9/FacialAge/BNav_EC2/DepthDuration/v2_depth_duration_MTurk/v2_DepthDuration_HTML.html#74,74,1364,625,1364,768,8-21-2022,9-39-15,11,depth_duration_stimuli/000009_2014-05-26_14-32-05_260595134347_rgbf000034-resize_3/000009_2014-05-26_14-32-05_260595134347_rgbf000034-resize_3-target.png,125,3.8715,6,7868,125,feet,jsons/VE125_randls_69.json,1842365,2347320,30,Woman
11,222615,DepthScenes,duration_manipulation_targetAtFixation,jsons/VE125_randls_69.json,http://54.235.29.9/FacialAge/BNav_EC2/DepthDuration/v2_depth_duration_MTurk/v2_DepthDuration_HTML.html#74,74,1364,625,1364,768,8-21-2022,9-39-15,12,depth_duration_stimuli/001828_2014-06-26_21-40-03_260595134347_rgbf000024-resize_0/001828_2014-06-26_21-40-03_260595134347_rgbf000024-resize_0-target.png,125,4.8260000000000005,10,7006,126,feet,jsons/VE125_randls_69.json,1842365,2347320,30,Woman
12,222615,DepthScenes,duration_manipulation_targetAtFixation,jsons/VE125_randls_69.json,http://54.235.29.9/FacialAge/BNav_EC2/DepthDuration/v2_depth_duration_MTurk/v2_DepthDuration_HTML.html#74,74,1364,625,1364,768,8-21-2022,9-39-15,13,depth_duration_stimuli/000569_2014-06-09_22-51-47_260595134347_rgbf000141-resize_3/000569_2014-06-09_22-51-47_260595134347_rgbf000141-resize-original.jpg,125,4.512,9,11795,123,feet,jsons/VE125_randls_69.json,1842365,2347320,30,Woman
13,222615,DepthScenes,duration_manipulation_targetAtFixation,jsons/VE125_randls_69.json,http://54.235.29.9/FacialAge/BNav_EC2/DepthDuration/v2_depth_duration_MTurk/v2_DepthDuration_HTML.html#74,74,1364,625,1364,768,8-21-2022,9-39-15,14,depth_duration_stimuli/000917_2014-06-09_22-45-29_260595134347_rgbf000149-resize_3/000917_2014-06-09_22-45-29_260595134347_rgbf000149-resize_3-target.png,125,4.1865,3,6011,123,feet,jsons/VE125_randls_69.json,1842365,2347320,30,Woman
14,222615,DepthScenes,duration_manipulation_targetAtFixation,jsons/VE125_randls_69.json,http://54.235.29.9/FacialAge/BNav_EC2/DepthDuration/v2_depth_duration_MTurk/v2_DepthDuration_HTML.html#74,74,1364,625,1364,768,8-21-2022,9-39-15,15,depth_duration_stimuli/002323_2014-06-28_20-01-54_260595134347_rgbf000051-resize_4/002323_2014-06-28_20-01-54_260595134347_rgbf000051-resize_4-target.png,125,3.7310000000000003,6,18680,132,feet,jsons/VE125_randls_69.json,1842365,2347320,30,Woman
15,222615,DepthScenes,duration_manipulation_targetAtFixation,jsons/VE125_randls_69.json,http://54.235.29.9/FacialAge/BNav_EC2/DepthDuration/v2_depth_duration_MTurk/v2_DepthDuration_HTML.html#74,74,1364,625,1364,768,8-21-2022,9-39-15,16,depth_duration_stimuli/001806_2014-06-26_20-50-20_260595134347_rgbf000091-resize_1/001806_2014-06-26_20-50-20_260595134347_rgbf000091-resize_1-target.png,125,2.7305,6,8487,158,feet,jsons/VE125_randls_69.json,1842365,2347320,30,Woman
16,222615,DepthScenes,duration_manipulation_targetAtFixation,jsons/VE125_randls_69.json,http://54.235.29.9/FacialAge/BNav_EC2/DepthDuration/v2_depth_duration_MTurk/v2_DepthDuration_HTML.html#74,74,1364,625,1364,768,8-21-2022,9-39-15,17,depth_duration_stimuli/001617_2014-06-20_11-35-32_260595134347_rgbf000066-resize_1/001617_2014-06-20_11-35-32_260595134347_rgbf000066-resize_1-target.png,125,3.7910000000000004,8,8264,124,feet,jsons/VE125_randls_69.json,1842365,2347320,30,Woman
17,222615,DepthScenes,duration_manipulation_targetAtFixation,jsons/VE125_randls_69.json,http://54.235.29.9/FacialAge/BNav_EC2/DepthDuration/v2_depth_duration_MTurk/v2_DepthDuration_HTML.html#74,74,1364,625,1364,768,8-21-2022,9-39-15,18,depth_duration_stimuli/002279_2014-06-28_18-55-32_260595134347_rgbf000040-resize_5/002279_2014-06-28_18-55-32_260595134347_rgbf000040-resize_5-target.png,125,1.5043333333333,7,7940,119,feet,jsons/VE125_randls_69.json,1842365,2347320,30,Woman
18,222615,DepthScenes,duration_manipulation_targetAtFixation,jsons/VE125_randls_69.json,http://54.235.29.9/FacialAge/BNav_EC2/DepthDuration/v2_depth_duration_MTurk/v2_DepthDuration_HTML.html#74,74,1364,625,1364,768,8-21-2022,9-39-15,19,depth_duration_stimuli/000635_2014-06-08_16-38-42_260595134347_rgbf000106-resize_1/000635_2014-06-08_16-38-42_260595134347_rgbf000106-resize_1-target.png,125,2.074,9,8800,120,feet,jsons/VE125_randls_69.json,1842365,2347320,30,Woman
19,222615,DepthScenes,duration_manipulation_targetAtFixation,jsons/VE125_randls_69.json,http://54.235.29.9/FacialAge/BNav_EC2/DepthDuration/v2_depth_duration_MTurk/v2_DepthDuration_HTML.html#74,74,1364,625,1364,768,8-21-2022,9-39-15,20,depth_duration_stimuli/001555_2014-06-20_17-12-10_260595134347_rgbf000065-resize_4/001555_2014-06-20_17-12-10_260595134347_rgbf000065-resize_4-target.png,125,1.633,6,6673,127,feet,jsons/VE125_randls_69.json,1842365,2347320,30,Woman
20,222615,DepthScenes,duration_manipulation_targetAtFixation,jsons/VE125_randls_69.json,http://54.235.29.9/FacialAge/BNav_EC2/DepthDuration/v2_depth_duration_MTurk/v2_DepthDuration_HTML.html#74,74,1364,625,1364,768,8-21-2022,9-39-15,21,depth_duration_stimuli/000103_2014-05-14_22-01-17_260595134347_rgbf000152-resize_5/000103_2014-05-14_22-01-17_260595134347_rgbf000152-resize_5-target.png,125,1.993,9,28458,104,feet,jsons/VE125_randls_69.json,1842365,2347320,30,Woman
21,222615,DepthScenes,duration_manipulation_targetAtFixation,jsons/VE125_randls_69.json,http://54.235.29.9/FacialAge/BNav_EC2/DepthDuration/v2_depth_duration_MTurk/v2_DepthDuration_HTML.html#74,74,1364,625,1364,768,8-21-2022,9-39-15,22,depth_duration_stimuli/002748_2014-06-22_19-07-22_094959634447_rgbf000078-resize_1/002748_2014-06-22_19-07-22_094959634447_rgbf000078-resize_1-target.png,125,4.6705,8,7644,119,feet,jsons/VE125_randls_69.json,1842365,2347320,30,Woman
22,222615,DepthScenes,duration_manipulation_targetAtFixation,jsons/VE125_randls_69.json,http://54.235.29.9/FacialAge/BNav_EC2/DepthDuration/v2_depth_duration_MTurk/v2_DepthDuration_HTML.html#74,74,1364,625,1364,768,8-21-2022,9-39-15,23,depth_duration_stimuli/002995_2014-06-15_12-31-26_094959634447_rgbf000150-resize_1/002995_2014-06-15_12-31-26_094959634447_rgbf000150-resize_1-target.png,125,3.8360000000000003,7,9299,121,feet,jsons/VE125_randls_69.json,1842365,2347320,30,Woman
23,222615,DepthScenes,duration_manipulation_targetAtFixation,jsons/VE125_randls_69.json,http://54.235.29.9/FacialAge/BNav_EC2/DepthDuration/v2_depth_duration_MTurk/v2_DepthDuration_HTML.html#74,74,1364,625,1364,768,8-21-2022,9-39-15,24,depth_duration_stimuli/002118_2014-06-25_20-32-08_260595134347_rgbf000078-resize_1/002118_2014-06-25_20-32-08_260595134347_rgbf000078-resize_1-target.png,125,2.6460000000000004,5,10717,117,feet,jsons/VE125_randls_69.json,1842365,2347320,30,Woman
24,222615,DepthScenes,duration_manipulation_targetAtFixation,jsons/VE125_randls_69.json,http://54.235.29.9/FacialAge/BNav_EC2/DepthDuration/v2_depth_duration_MTurk/v2_DepthDuration_HTML.html#74,74,1364,625,1364,768,8-21-2022,9-39-15,25,depth_duration_stimuli/001516_2014-06-20_16-25-09_260595134347_rgbf000076-resize_2/001516_2014-06-20_16-25-09_260595134347_rgbf000076-resize_2-target.png,125,1.7445,5,22744,130,feet,jsons/VE125_randls_69.json,1842365,2347320,30,Woman
25,222615,DepthScenes,duration_manipulation_targetAtFixation,jsons/VE125_randls_69.json,http://54.235.29.9/FacialAge/BNav_EC2/DepthDuration/v2_depth_duration_MTurk/v2_DepthDuration_HTML.html#74,74,1364,625,1364,768,8-21-2022,9-39-15,26,depth_duration_stimuli/001110_2014-06-15_17-25-28_260595134347_rgbf000150-resize_1/001110_2014-06-15_17-25-28_260595134347_rgbf000150-resize_1-target.png,125,1.7115,2,10430,124,feet,jsons/VE125_randls_69.json,1842365,2347320,30,Woman
26,222615,DepthScenes,duration_manipulation_targetAtFixation,jsons/VE125_randls_69.json,http://54.235.29.9/FacialAge/BNav_EC2/DepthDuration/v2_depth_duration_MTurk/v2_DepthDuration_HTML.html#74,74,1364,625,1364,768,8-21-2022,9-39-15,27,depth_duration_stimuli/000927_2014-06-09_16-32-30_260595134347_rgbf000123-resize_3/000927_2014-06-09_16-32-30_260595134347_rgbf000123-resize_3-target.png,125,2.6785,3,5981,129,feet,jsons/VE125_randls_69.json,1842365,2347320,30,Woman
27,222615,DepthScenes,duration_manipulation_targetAtFixation,jsons/VE125_randls_69.json,http://54.235.29.9/FacialAge/BNav_EC2/DepthDuration/v2_depth_duration_MTurk/v2_DepthDuration_HTML.html#74,74,1364,625,1364,768,8-21-2022,9-39-15,28,depth_duration_stimuli/002153_2014-06-25_21-27-18_260595134347_rgbf000038-resize_5/002153_2014-06-25_21-27-18_260595134347_rgbf000038-resize_5-target.png,125,2.505,5,16381,126,feet,jsons/VE125_randls_69.json,1842365,2347320,30,Woman
28,222615,DepthScenes,duration_manipulation_targetAtFixation,jsons/VE125_randls_69.json,http://54.235.29.9/FacialAge/BNav_EC2/DepthDuration/v2_depth_duration_MTurk/v2_DepthDuration_HTML.html#74,74,1364,625,1364,768,8-21-2022,9-39-15,29,depth_duration_stimuli/002660_2014-06-13_15-44-18_094959634447_rgbf001878-resize_2/002660_2014-06-13_15-44-18_094959634447_rgbf001878-resize_2-target.png,125,3.576,4,6030,122,feet,jsons/VE125_randls_69.json,1842365,2347320,30,Woman
29,222615,DepthScenes,duration_manipulation_targetAtFixation,jsons/VE125_randls_69.json,http://54.235.29.9/FacialAge/BNav_EC2/DepthDuration/v2_depth_duration_MTurk/v2_DepthDuration_HTML.html#74,74,1364,625,1364,768,8-21-2022,9-39-15,30,depth_duration_stimuli/000375_2014-06-08_11-17-29_260595134347_rgbf000133-resize_2/000375_2014-06-08_11-17-29_260595134347_rgbf000133-resize-original.jpg,125,4.718,3,7057,110,feet,jsons/VE125_randls_69.json,1842365,2347320,30,Woman
30,222615,DepthScenes,duration_manipulation_targetAtFixation,jsons/VE125_randls_69.json,http://54.235.29.9/FacialAge/BNav_EC2/DepthDuration/v2_depth_duration_MTurk/v2_DepthDuration_HTML.html#74,74,1364,625,1364,768,8-21-2022,9-39-15,31,depth_duration_stimuli/002964_2014-06-08_17-46-11_094959634447_rgbf000091-resize_4/002964_2014-06-08_17-46-11_094959634447_rgbf000091-resize_4-target.png,125,1.6909999999999998,2,21119,127,feet,jsons/VE125_randls_69.json,1842365,2347320,30,Woman
31,222615,DepthScenes,duration_manipulation_targetAtFixation,jsons/VE125_randls_69.json,http://54.235.29.9/FacialAge/BNav_EC2/DepthDuration/v2_depth_duration_MTurk/v2_DepthDuration_HTML.html#74,74,1364,625,1364,768,8-21-2022,9-39-15,32,depth_duration_stimuli/002136_2014-06-25_21-18-03_260595134347_rgbf000109-resize_3/002136_2014-06-25_21-18-03_260595134347_rgbf000109-resize_3-target.png,125,1.9569999999999999,5,6958,134,feet,jsons/VE125_randls_69.json,1842365,2347320,30,Woman
32,222615,DepthScenes,duration_manipulation_targetAtFixation,jsons/VE125_randls_69.json,http://54.235.29.9/FacialAge/BNav_EC2/DepthDuration/v2_depth_duration_MTurk/v2_DepthDuration_HTML.html#74,74,1364,625,1364,768,8-21-2022,9-39-15,33,depth_duration_stimuli/001244_2014-06-17_16-47-45_260595134347_rgbf000030-resize_4/001244_2014-06-17_16-47-45_260595134347_rgbf000030-resize_4-target.png,125,2.0425,2,6073,125,feet,jsons/VE125_randls_69.json,1842365,2347320,30,Woman
33,222615,DepthScenes,duration_manipulation_targetAtFixation,jsons/VE125_randls_69.json,http://54.235.29.9/FacialAge/BNav_EC2/DepthDuration/v2_depth_duration_MTurk/v2_DepthDuration_HTML.html#74,74,1364,625,1364,768,8-21-2022,9-39-15,34,depth_duration_stimuli/003495_2014-05-21_16-01-51_094959634447_rgbf000100-resize_3/003495_2014-05-21_16-01-51_094959634447_rgbf000100-resize_3-target.png,125,1.6255,3,5859,125,feet,jsons/VE125_randls_69.json,1842365,2347320,30,Woman
34,222615,DepthScenes,duration_manipulation_targetAtFixation,jsons/VE125_randls_69.json,http://54.235.29.9/FacialAge/BNav_EC2/DepthDuration/v2_depth_duration_MTurk/v2_DepthDuration_HTML.html#74,74,1364,625,1364,768,8-21-2022,9-39-15,35,depth_duration_stimuli/002988_2014-06-15_12-24-20_094959634447_rgbf000150-resize_1/002988_2014-06-15_12-24-20_094959634447_rgbf000150-resize_1-target.png,125,4.7669999999999995,2,5667,130,feet,jsons/VE125_randls_69.json,1842365,2347320,30,Woman
35,222615,DepthScenes,duration_manipulation_targetAtFixation,jsons/VE125_randls_69.json,http://54.235.29.9/FacialAge/BNav_EC2/DepthDuration/v2_depth_duration_MTurk/v2_DepthDuration_HTML.html#74,74,1364,625,1364,768,8-21-2022,9-39-15,36,depth_duration_stimuli/001052_2014-06-08_18-24-54_260595134347_rgbf000130-resize_1/001052_2014-06-08_18-24-54_260595134347_rgbf000130-resize_1-target.png,125,4.1045,3,6746,123,feet,jsons/VE125_randls_69.json,1842365,2347320,30,Woman
36,222615,DepthScenes,duration_manipulation_targetAtFixation,jsons/VE125_randls_69.json,http://54.235.29.9/FacialAge/BNav_EC2/DepthDuration/v2_depth_duration_MTurk/v2_DepthDuration_HTML.html#74,74,1364,625,1364,768,8-21-2022,9-39-15,37,depth_duration_stimuli/002989_2014-06-15_12-25-03_094959634447_rgbf000150-resize_3/002989_2014-06-15_12-25-03_094959634447_rgbf000150-resize_3-target.png,125,4.1975,5,20691,122,feet,jsons/VE125_randls_69.json,1842365,2347320,30,Woman
37,222615,DepthScenes,duration_manipulation_targetAtFixation,jsons/VE125_randls_69.json,http://54.235.29.9/FacialAge/BNav_EC2/DepthDuration/v2_depth_duration_MTurk/v2_DepthDuration_HTML.html#74,74,1364,625,1364,768,8-21-2022,9-39-15,38,depth_duration_stimuli/000866_2014-06-09_20-45-42_260595134347_rgbf000139-resize_1/000866_2014-06-09_20-45-42_260595134347_rgbf000139-resize_1-target.png,125,3.2155,4,5736,129,feet,jsons/VE125_randls_69.json,1842365,2347320,30,Woman
38,222615,DepthScenes,duration_manipulation_targetAtFixation,jsons/VE125_randls_69.json,http://54.235.29.9/FacialAge/BNav_EC2/DepthDuration/v2_depth_duration_MTurk/v2_DepthDuration_HTML.html#74,74,1364,625,1364,768,8-21-2022,9-39-15,39,depth_duration_stimuli/002272_2014-06-28_18-53-56_260595134347_rgbf000067-resize_2/002272_2014-06-28_18-53-56_260595134347_rgbf000067-resize_2-target.png,125,1.138,3,6512,125,feet,jsons/VE125_randls_69.json,1842365,2347320,30,Woman
39,222615,DepthScenes,duration_manipulation_targetAtFixation,jsons/VE125_randls_69.json,http://54.235.29.9/FacialAge/BNav_EC2/DepthDuration/v2_depth_duration_MTurk/v2_DepthDuration_HTML.html#74,74,1364,625,1364,768,8-21-2022,9-39-15,40,depth_duration_stimuli/001571_2014-06-20_17-21-32_260595134347_rgbf000089-resize_1/001571_2014-06-20_17-21-32_260595134347_rgbf000089-resize_1-target.png,125,1.86,3,6577,113,feet,jsons/VE125_randls_69.json,1842365,2347320,30,Woman
40,222615,DepthScenes,duration_manipulation_targetAtFixation,jsons/VE125_randls_69.json,http://54.235.29.9/FacialAge/BNav_EC2/DepthDuration/v2_depth_duration_MTurk/v2_DepthDuration_HTML.html#74,74,1364,625,1364,768,8-21-2022,9-39-15,41,depth_duration_stimuli/000906_2014-06-08_13-35-43_260595134347_rgbf000155-resize_1/000906_2014-06-08_13-35-43_260595134347_rgbf000155-resize_1-target.png,125,2.8489999999999998,3,4973,113,feet,jsons/VE125_randls_69.json,1842365,2347320,30,Woman
41,222615,DepthScenes,duration_manipulation_targetAtFixation,jsons/VE125_randls_69.json,http://54.235.29.9/FacialAge/BNav_EC2/DepthDuration/v2_depth_duration_MTurk/v2_DepthDuration_HTML.html#74,74,1364,625,1364,768,8-21-2022,9-39-15,42,depth_duration_stimuli/002805_2014-06-22_19-54-03_094959634447_rgbf000079-resize_1/002805_2014-06-22_19-54-03_094959634447_rgbf000079-resize_1-target.png,125,3.1439999999999997,3,13050,125,feet,jsons/VE125_randls_69.json,1842365,2347320,30,Woman
42,222615,DepthScenes,duration_manipulation_targetAtFixation,jsons/VE125_randls_69.json,http://54.235.29.9/FacialAge/BNav_EC2/DepthDuration/v2_depth_duration_MTurk/v2_DepthDuration_HTML.html#74,74,1364,625,1364,768,8-21-2022,9-39-15,43,depth_duration_stimuli/000486_2014-06-09_20-47-20_260595134347_rgbf000143-resize_2/000486_2014-06-09_20-47-20_260595134347_rgbf000143-resize_2-target.png,125,4.8325,3,20489,125,feet,jsons/VE125_randls_69.json,1842365,2347320,30,Woman
43,222615,DepthScenes,duration_manipulation_targetAtFixation,jsons/VE125_randls_69.json,http://54.235.29.9/FacialAge/BNav_EC2/DepthDuration/v2_depth_duration_MTurk/v2_DepthDuration_HTML.html#74,74,1364,625,1364,768,8-21-2022,9-39-15,44,depth_duration_stimuli/003083_2014-06-15_15-21-03_094959634447_rgbf000063-resize_1/003083_2014-06-15_15-21-03_094959634447_rgbf000063-resize_1-target.png,125,4.1405,2,5869,123,feet,jsons/VE125_randls_69.json,1842365,2347320,30,Woman
44,222615,DepthScenes,duration_manipulation_targetAtFixation,jsons/VE125_randls_69.json,http://54.235.29.9/FacialAge/BNav_EC2/DepthDuration/v2_depth_duration_MTurk/v2_DepthDuration_HTML.html#74,74,1364,625,1364,768,8-21-2022,9-39-15,45,depth_duration_stimuli/000787_2014-06-08_22-33-53_260595134347_rgbf000175-resize_1/000787_2014-06-08_22-33-53_260595134347_rgbf000175-resize-original.jpg,125,4.784,3,9172,125,feet,jsons/VE125_randls_69.json,1842365,2347320,30,Woman
45,222615,DepthScenes,duration_manipulation_targetAtFixation,jsons/VE125_randls_69.json,http://54.235.29.9/FacialAge/BNav_EC2/DepthDuration/v2_depth_duration_MTurk/v2_DepthDuration_HTML.html#74,74,1364,625,1364,768,8-21-2022,9-39-15,46,depth_duration_stimuli/002630_2014-06-24_14-47-50_094959634447_rgbf000055-resize_1/002630_2014-06-24_14-47-50_094959634447_rgbf000055-resize_1-target.png,125,3.0095,3,6496,127,feet,jsons/VE125_randls_69.json,1842365,2347320,30,Woman
46,222615,DepthScenes,duration_manipulation_targetAtFixation,jsons/VE125_randls_69.json,http://54.235.29.9/FacialAge/BNav_EC2/DepthDuration/v2_depth_duration_MTurk/v2_DepthDuration_HTML.html#74,74,1364,625,1364,768,8-21-2022,9-39-15,47,depth_duration_stimuli/002758_2014-06-22_19-11-20_094959634447_rgbf000128-resize_1/002758_2014-06-22_19-11-20_094959634447_rgbf000128-resize_1-target.png,125,2.555,3,7061,125,feet,jsons/VE125_randls_69.json,1842365,2347320,30,Woman
47,222615,DepthScenes,duration_manipulation_targetAtFixation,jsons/VE125_randls_69.json,http://54.235.29.9/FacialAge/BNav_EC2/DepthDuration/v2_depth_duration_MTurk/v2_DepthDuration_HTML.html#74,74,1364,625,1364,768,8-21-2022,9-39-15,48,depth_duration_stimuli/000692_2014-06-08_13-09-42_260595134347_rgbf000199-resize_2/000692_2014-06-08_13-09-42_260595134347_rgbf000199-resize_2-target.png,125,3.661,3,39060,86,feet,jsons/VE125_randls_69.json,1842365,2347320,30,Woman
48,222615,DepthScenes,duration_manipulation_targetAtFixation,jsons/VE125_randls_69.json,http://54.235.29.9/FacialAge/BNav_EC2/DepthDuration/v2_depth_duration_MTurk/v2_DepthDuration_HTML.html#74,74,1364,625,1364,768,8-21-2022,9-39-15,49,depth_duration_stimuli/001094_2014-06-15_17-36-00_260595134347_rgbf000205-resize_0/001094_2014-06-15_17-36-00_260595134347_rgbf000205-resize_0-target.png,125,4.2175,3,10780,123,feet,jsons/VE125_randls_69.json,1842365,2347320,30,Woman
49,222615,DepthScenes,duration_manipulation_targetAtFixation,jsons/VE125_randls_69.json,http://54.235.29.9/FacialAge/BNav_EC2/DepthDuration/v2_depth_duration_MTurk/v2_DepthDuration_HTML.html#74,74,1364,625,1364,768,8-21-2022,9-39-15,50,depth_duration_stimuli/002784_2014-06-22_19-26-30_094959634447_rgbf000083-resize_3/002784_2014-06-22_19-26-30_094959634447_rgbf000083-resize_3-target.png,125,1.8046666666667,2,6767,126,feet,jsons/VE125_randls_69.json,1842365,2347320,30,Woman
50,222615,DepthScenes,duration_manipulation_targetAtFixation,jsons/VE125_randls_69.json,http://54.235.29.9/FacialAge/BNav_EC2/DepthDuration/v2_depth_duration_MTurk/v2_DepthDuration_HTML.html#74,74,1364,625,1364,768,8-21-2022,9-39-15,51,depth_duration_stimuli/001100_2014-06-15_17-46-26_260595134347_rgbf000225-resize_2/001100_2014-06-15_17-46-26_260595134347_rgbf000225-resize_2-target.png,125,2.24,2,5906,125,feet,jsons/VE125_randls_69.json,1842365,2347320,30,Woman
51,222615,DepthScenes,duration_manipulation_targetAtFixation,jsons/VE125_randls_69.json,http://54.235.29.9/FacialAge/BNav_EC2/DepthDuration/v2_depth_duration_MTurk/v2_DepthDuration_HTML.html#74,74,1364,625,1364,768,8-21-2022,9-39-15,52,depth_duration_stimuli/002570_2014-06-24_13-59-54_094959634447_rgbf000059-resize_0/002570_2014-06-24_13-59-54_094959634447_rgbf000059-resize_0-target.png,125,4.037,6,5608,124,feet,jsons/VE125_randls_69.json,1842365,2347320,30,Woman
52,222615,DepthScenes,duration_manipulation_targetAtFixation,jsons/VE125_randls_69.json,http://54.235.29.9/FacialAge/BNav_EC2/DepthDuration/v2_depth_duration_MTurk/v2_DepthDuration_HTML.html#74,74,1364,625,1364,768,8-21-2022,9-39-15,53,depth_duration_stimuli/002467_2014-06-28_20-38-07_260595134347_rgbf000026-resize_2/002467_2014-06-28_20-38-07_260595134347_rgbf000026-resize_2-target.png,125,4.742,5,5700,123,feet,jsons/VE125_randls_69.json,1842365,2347320,30,Woman
53,222615,DepthScenes,duration_manipulation_targetAtFixation,jsons/VE125_randls_69.json,http://54.235.29.9/FacialAge/BNav_EC2/DepthDuration/v2_depth_duration_MTurk/v2_DepthDuration_HTML.html#74,74,1364,625,1364,768,8-21-2022,9-39-15,54,depth_duration_stimuli/003070_2014-06-15_14-58-27_094959634447_rgbf000150-resize_3/003070_2014-06-15_14-58-27_094959634447_rgbf000150-resize_3-target.png,125,2.9415,5,26350,136,feet,jsons/VE125_randls_69.json,1842365,2347320,30,Woman
54,222615,DepthScenes,duration_manipulation_targetAtFixation,jsons/VE125_randls_69.json,http://54.235.29.9/FacialAge/BNav_EC2/DepthDuration/v2_depth_duration_MTurk/v2_DepthDuration_HTML.html#74,74,1364,625,1364,768,8-21-2022,9-39-15,55,depth_duration_stimuli/000943_2014-06-09_19-31-07_260595134347_rgbf000128-resize_1/000943_2014-06-09_19-31-07_260595134347_rgbf000128-resize_1-target.png,125,1.9765,5,12443,118,feet,jsons/VE125_randls_69.json,1842365,2347320,30,Woman
55,222615,DepthScenes,duration_manipulation_targetAtFixation,jsons/VE125_randls_69.json,http://54.235.29.9/FacialAge/BNav_EC2/DepthDuration/v2_depth_duration_MTurk/v2_DepthDuration_HTML.html#74,74,1364,625,1364,768,8-21-2022,9-39-15,56,depth_duration_stimuli/003621_2014-05-23_18-06-08_094959634447_rgbf000101-resize_1/003621_2014-05-23_18-06-08_094959634447_rgbf000101-resize_1-target.png,125,3.9835,5,6400,120,feet,jsons/VE125_randls_69.json,1842365,2347320,30,Woman
56,222615,DepthScenes,duration_manipulation_targetAtFixation,jsons/VE125_randls_69.json,http://54.235.29.9/FacialAge/BNav_EC2/DepthDuration/v2_depth_duration_MTurk/v2_DepthDuration_HTML.html#74,74,1364,625,1364,768,8-21-2022,9-39-15,57,depth_duration_stimuli/001584_2014-06-20_11-07-43_260595134347_rgbf000002-resize_1/001584_2014-06-20_11-07-43_260595134347_rgbf000002-resize_1-target.png,125,3.53,5,5424,125,feet,jsons/VE125_randls_69.json,1842365,2347320,30,Woman
57,222615,DepthScenes,duration_manipulation_targetAtFixation,jsons/VE125_randls_69.json,http://54.235.29.9/FacialAge/BNav_EC2/DepthDuration/v2_depth_duration_MTurk/v2_DepthDuration_HTML.html#74,74,1364,625,1364,768,8-21-2022,9-39-15,58,depth_duration_stimuli/001029_2014-06-08_13-17-57_260595134347_rgbf000065-resize_1/001029_2014-06-08_13-17-57_260595134347_rgbf000065-resize_1-target.png,125,3.0835,5,7268,120,feet,jsons/VE125_randls_69.json,1842365,2347320,30,Woman
58,222615,DepthScenes,duration_manipulation_targetAtFixation,jsons/VE125_randls_69.json,http://54.235.29.9/FacialAge/BNav_EC2/DepthDuration/v2_depth_duration_MTurk/v2_DepthDuration_HTML.html#74,74,1364,625,1364,768,8-21-2022,9-39-15,59,depth_duration_stimuli/000677_2014-06-08_23-10-32_260595134347_rgbf000158-resize_6/000677_2014-06-08_23-10-32_260595134347_rgbf000158-resize_6-target.png,125,3.556,5,21401,137,feet,jsons/VE125_randls_69.json,1842365,2347320,30,Woman
59,222615,DepthScenes,duration_manipulation_targetAtFixation,jsons/VE125_randls_69.json,http://54.235.29.9/FacialAge/BNav_EC2/DepthDuration/v2_depth_duration_MTurk/v2_DepthDuration_HTML.html#74,74,1364,625,1364,768,8-21-2022,9-39-15,60,depth_duration_stimuli/001066_2014-06-08_22-03-20_260595134347_rgbf000066-resize_4/001066_2014-06-08_22-03-20_260595134347_rgbf000066-resize_4-target.png,125,4.2330000000000005,6,5268,120,feet,jsons/VE125_randls_69.json,1842365,2347320,30,Woman
60,222615,DepthScenes,duration_manipulation_targetAtFixation,jsons/VE125_randls_69.json,http://54.235.29.9/FacialAge/BNav_EC2/DepthDuration/v2_depth_duration_MTurk/v2_DepthDuration_HTML.html#74,74,1364,625,1364,768,8-21-2022,9-39-15,61,depth_duration_stimuli/000742_2014-06-08_18-48-09_260595134347_rgbf000164-resize_4/000742_2014-06-08_18-48-09_260595134347_rgbf000164-resize_4-target.png,125,4.632,5,5302,125,feet,jsons/VE125_randls_69.json,1842365,2347320,30,Woman
61,222615,DepthScenes,duration_manipulation_targetAtFixation,jsons/VE125_randls_69.json,http://54.235.29.9/FacialAge/BNav_EC2/DepthDuration/v2_depth_duration_MTurk/v2_DepthDuration_HTML.html#74,74,1364,625,1364,768,8-21-2022,9-39-15,62,depth_duration_stimuli/000493_2014-06-09_21-01-18_260595134347_rgbf000196-resize_3/000493_2014-06-09_21-01-18_260595134347_rgbf000196-resize_3-target.png,125,3.44,6,5771,120,feet,jsons/VE125_randls_69.json,1842365,2347320,30,Woman
62,222615,DepthScenes,duration_manipulation_targetAtFixation,jsons/VE125_randls_69.json,http://54.235.29.9/FacialAge/BNav_EC2/DepthDuration/v2_depth_duration_MTurk/v2_DepthDuration_HTML.html#74,74,1364,625,1364,768,8-21-2022,9-39-15,63,depth_duration_stimuli/000191_2014-05-12_17-07-38_260595134347_rgbf000199-resize_0/000191_2014-05-12_17-07-38_260595134347_rgbf000199-resize_0-target.png,125,3.7995,5,6402,128,feet,jsons/VE125_randls_69.json,1842365,2347320,30,Woman
63,222615,DepthScenes,duration_manipulation_targetAtFixation,jsons/VE125_randls_69.json,http://54.235.29.9/FacialAge/BNav_EC2/DepthDuration/v2_depth_duration_MTurk/v2_DepthDuration_HTML.html#74,74,1364,625,1364,768,8-21-2022,9-39-15,64,depth_duration_stimuli/000788_2014-06-08_22-34-36_260595134347_rgbf000131-resize_1/000788_2014-06-08_22-34-36_260595134347_rgbf000131-resize_1-target.png,125,3.359,6,5374,128,feet,jsons/VE125_randls_69.json,1842365,2347320,30,Woman
64,222615,DepthScenes,duration_manipulation_targetAtFixation,jsons/VE125_randls_69.json,http://54.235.29.9/FacialAge/BNav_EC2/DepthDuration/v2_depth_duration_MTurk/v2_DepthDuration_HTML.html#74,74,1364,625,1364,768,8-21-2022,9-39-15,65,depth_duration_stimuli/001235_2014-06-17_16-37-36_260595134347_rgbf000084-resize_4/001235_2014-06-17_16-37-36_260595134347_rgbf000084-resize_4-target.png,125,3.6605,4,21158,124,feet,jsons/VE125_randls_69.json,1842365,2347320,30,Woman
65,222615,DepthScenes,duration_manipulation_targetAtFixation,jsons/VE125_randls_69.json,http://54.235.29.9/FacialAge/BNav_EC2/DepthDuration/v2_depth_duration_MTurk/v2_DepthDuration_HTML.html#74,74,1364,625,1364,768,8-21-2022,9-39-15,66,depth_duration_stimuli/001222_2014-06-17_16-24-06_260595134347_rgbf000073-resize_0/001222_2014-06-17_16-24-06_260595134347_rgbf000073-resize-original.jpg,125,1.4385,4,8537,139,feet,jsons/VE125_randls_69.json,1842365,2347320,30,Woman
66,222615,DepthScenes,duration_manipulation_targetAtFixation,jsons/VE125_randls_69.json,http://54.235.29.9/FacialAge/BNav_EC2/DepthDuration/v2_depth_duration_MTurk/v2_DepthDuration_HTML.html#74,74,1364,625,1364,768,8-21-2022,9-39-15,67,depth_duration_stimuli/000522_2014-06-08_13-35-06_260595134347_rgbf000244-resize_1/000522_2014-06-08_13-35-06_260595134347_rgbf000244-resize_1-target.png,125,2.3715,6,6667,125,feet,jsons/VE125_randls_69.json,1842365,2347320,30,Woman
67,222615,DepthScenes,duration_manipulation_targetAtFixation,jsons/VE125_randls_69.json,http://54.235.29.9/FacialAge/BNav_EC2/DepthDuration/v2_depth_duration_MTurk/v2_DepthDuration_HTML.html#74,74,1364,625,1364,768,8-21-2022,9-39-15,68,depth_duration_stimuli/002949_2014-06-26_15-57-42_094959634447_rgbf000079-resize_1/002949_2014-06-26_15-57-42_094959634447_rgbf000079-resize_1-target.png,125,1.8915,4,5890,123,feet,jsons/VE125_randls_69.json,1842365,2347320,30,Woman
68,222615,DepthScenes,duration_manipulation_targetAtFixation,jsons/VE125_randls_69.json,http://54.235.29.9/FacialAge/BNav_EC2/DepthDuration/v2_depth_duration_MTurk/v2_DepthDuration_HTML.html#74,74,1364,625,1364,768,8-21-2022,9-39-15,69,depth_duration_stimuli/002057_2014-06-24_21-00-13_260595134347_rgbf000120-resize_1/002057_2014-06-24_21-00-13_260595134347_rgbf000120-resize_1-target.png,125,2.967,3,6131,135,feet,jsons/VE125_randls_69.json,1842365,2347320,30,Woman
69,222615,DepthScenes,duration_manipulation_targetAtFixation,jsons/VE125_randls_69.json,http://54.235.29.9/FacialAge/BNav_EC2/DepthDuration/v2_depth_duration_MTurk/v2_DepthDuration_HTML.html#74,74,1364,625,1364,768,8-21-2022,9-39-15,70,depth_duration_stimuli/000709_2014-06-08_13-51-55_260595134347_rgbf000068-resize_3/000709_2014-06-08_13-51-55_260595134347_rgbf000068-resize_3-target.png,125,1.8030000000000002,4,28136,124,feet,jsons/VE125_randls_69.json,1842365,2347320,30,Woman
70,222615,DepthScenes,duration_manipulation_targetAtFixation,jsons/VE125_randls_69.json,http://54.235.29.9/FacialAge/BNav_EC2/DepthDuration/v2_depth_duration_MTurk/v2_DepthDuration_HTML.html#74,74,1364,625,1364,768,8-21-2022,9-39-15,71,depth_duration_stimuli/001449_2014-06-19_17-01-27_260595134347_rgbf000116-resize_2/001449_2014-06-19_17-01-27_260595134347_rgbf000116-resize_2-target.png,125,3.452,5,7603,128,feet,jsons/VE125_randls_69.json,1842365,2347320,30,Woman
71,222615,DepthScenes,duration_manipulation_targetAtFixation,jsons/VE125_randls_69.json,http://54.235.29.9/FacialAge/BNav_EC2/DepthDuration/v2_depth_duration_MTurk/v2_DepthDuration_HTML.html#74,74,1364,625,1364,768,8-21-2022,9-39-15,72,depth_duration_stimuli/001450_2014-06-19_17-02-03_260595134347_rgbf000203-resize_4/001450_2014-06-19_17-02-03_260595134347_rgbf000203-resize_4-target.png,125,4.0106666666667,4,5643,127,feet,jsons/VE125_randls_69.json,1842365,2347320,30,Woman
72,222615,DepthScenes,duration_manipulation_targetAtFixation,jsons/VE125_randls_69.json,http://54.235.29.9/FacialAge/BNav_EC2/DepthDuration/v2_depth_duration_MTurk/v2_DepthDuration_HTML.html#74,74,1364,625,1364,768,8-21-2022,9-39-15,73,depth_duration_stimuli/000642_2014-06-08_16-59-25_260595134347_rgbf000098-resize_2/000642_2014-06-08_16-59-25_260595134347_rgbf000098-resize_2-target.png,125,2.8815,5,13001,117,feet,jsons/VE125_randls_69.json,1842365,2347320,30,Woman
73,222615,DepthScenes,duration_manipulation_targetAtFixation,jsons/VE125_randls_69.json,http://54.235.29.9/FacialAge/BNav_EC2/DepthDuration/v2_depth_duration_MTurk/v2_DepthDuration_HTML.html#74,74,1364,625,1364,768,8-21-2022,9-39-15,74,depth_duration_stimuli/002425_2014-06-28_20-27-29_260595134347_rgbf000031-resize_8/002425_2014-06-28_20-27-29_260595134347_rgbf000031-resize_8-target.png,125,3.8960000000000004,3,6261,124,feet,jsons/VE125_randls_69.json,1842365,2347320,30,Woman
74,222615,DepthScenes,duration_manipulation_targetAtFixation,jsons/VE125_randls_69.json,http://54.235.29.9/FacialAge/BNav_EC2/DepthDuration/v2_depth_duration_MTurk/v2_DepthDuration_HTML.html#74,74,1364,625,1364,768,8-21-2022,9-39-15,75,depth_duration_stimuli/002375_2014-06-28_20-13-44_260595134347_rgbf000032-resize_1/002375_2014-06-28_20-13-44_260595134347_rgbf000032-resize_1-target.png,125,4.0175,4,17348,111,feet,jsons/VE125_randls_69.json,1842365,2347320,30,Woman
75,222615,DepthScenes,duration_manipulation_targetAtFixation,jsons/VE125_randls_69.json,http://54.235.29.9/FacialAge/BNav_EC2/DepthDuration/v2_depth_duration_MTurk/v2_DepthDuration_HTML.html#74,74,1364,625,1364,768,8-21-2022,9-39-15,76,depth_duration_stimuli/002657_2014-06-13_15-29-54_094959634447_rgbf000150-resize_1/002657_2014-06-13_15-29-54_094959634447_rgbf000150-resize_1-target.png,125,4.919,4,5417,124,feet,jsons/VE125_randls_69.json,1842365,2347320,30,Woman
76,222615,DepthScenes,duration_manipulation_targetAtFixation,jsons/VE125_randls_69.json,http://54.235.29.9/FacialAge/BNav_EC2/DepthDuration/v2_depth_duration_MTurk/v2_DepthDuration_HTML.html#74,74,1364,625,1364,768,8-21-2022,9-39-15,77,depth_duration_stimuli/001175_2014-06-17_15-45-55_260595134347_rgbf000129-resize_4/001175_2014-06-17_15-45-55_260595134347_rgbf000129-resize_4-target.png,125,4.255,6,7189,105,feet,jsons/VE125_randls_69.json,1842365,2347320,30,Woman
77,222615,DepthScenes,duration_manipulation_targetAtFixation,jsons/VE125_randls_69.json,http://54.235.29.9/FacialAge/BNav_EC2/DepthDuration/v2_depth_duration_MTurk/v2_DepthDuration_HTML.html#74,74,1364,625,1364,768,8-21-2022,9-39-15,78,depth_duration_stimuli/003490_2014-05-21_15-50-11_094959634447_rgbf000101-resize_3/003490_2014-05-21_15-50-11_094959634447_rgbf000101-resize_3-target.png,125,3.6445,6,5771,123,feet,jsons/VE125_randls_69.json,1842365,2347320,30,Woman
78,222615,DepthScenes,duration_manipulation_targetAtFixation,jsons/VE125_randls_69.json,http://54.235.29.9/FacialAge/BNav_EC2/DepthDuration/v2_depth_duration_MTurk/v2_DepthDuration_HTML.html#74,74,1364,625,1364,768,8-21-2022,9-39-15,79,depth_duration_stimuli/001056_2014-06-08_18-46-44_260595134347_rgbf000068-resize_0/001056_2014-06-08_18-46-44_260595134347_rgbf000068-resize_0-target.png,125,2.6625,6,8380,121,feet,jsons/VE125_randls_69.json,1842365,2347320,30,Woman
79,222615,DepthScenes,duration_manipulation_targetAtFixation,jsons/VE125_randls_69.json,http://54.235.29.9/FacialAge/BNav_EC2/DepthDuration/v2_depth_duration_MTurk/v2_DepthDuration_HTML.html#74,74,1364,625,1364,768,8-21-2022,9-39-15,80,depth_duration_stimuli/002199_2014-06-28_18-33-56_260595134347_rgbf000074-resize_0/002199_2014-06-28_18-33-56_260595134347_rgbf000074-resize_0-target.png,125,1.996,4,22888,128,feet,jsons/VE125_randls_69.json,1842365,2347320,30,Woman
80,222615,DepthScenes,duration_manipulation_targetAtFixation,jsons/VE125_randls_69.json,http://54.235.29.9/FacialAge/BNav_EC2/DepthDuration/v2_depth_duration_MTurk/v2_DepthDuration_HTML.html#74,74,1364,625,1364,768,8-21-2022,9-39-15,81,depth_duration_stimuli/000739_2014-06-08_18-45-58_260595134347_rgbf000068-resize_1/000739_2014-06-08_18-45-58_260595134347_rgbf000068-resize_1-target.png,125,3.534,8,9548,122,feet,jsons/VE125_randls_69.json,1842365,2347320,30,Woman
81,222615,DepthScenes,duration_manipulation_targetAtFixation,jsons/VE125_randls_69.json,http://54.235.29.9/FacialAge/BNav_EC2/DepthDuration/v2_depth_duration_MTurk/v2_DepthDuration_HTML.html#74,74,1364,625,1364,768,8-21-2022,9-39-15,82,depth_duration_stimuli/000734_2014-06-08_17-39-11_260595134347_rgbf000128-resize_2/000734_2014-06-08_17-39-11_260595134347_rgbf000128-resize_2-target.png,125,4.098,5,6273,126,feet,jsons/VE125_randls_69.json,1842365,2347320,30,Woman
82,222615,DepthScenes,duration_manipulation_targetAtFixation,jsons/VE125_randls_69.json,http://54.235.29.9/FacialAge/BNav_EC2/DepthDuration/v2_depth_duration_MTurk/v2_DepthDuration_HTML.html#74,74,1364,625,1364,768,8-21-2022,9-39-15,83,depth_duration_stimuli/001059_2014-06-08_21-53-27_260595134347_rgbf000061-resize_4/001059_2014-06-08_21-53-27_260595134347_rgbf000061-resize_4-target.png,125,2.4185,7,7281,124,feet,jsons/VE125_randls_69.json,1842365,2347320,30,Woman
83,222615,DepthScenes,duration_manipulation_targetAtFixation,jsons/VE125_randls_69.json,http://54.235.29.9/FacialAge/BNav_EC2/DepthDuration/v2_depth_duration_MTurk/v2_DepthDuration_HTML.html#74,74,1364,625,1364,768,8-21-2022,9-39-15,84,depth_duration_stimuli/001032_2014-06-08_13-23-17_260595134347_rgbf000021-resize_3/001032_2014-06-08_13-23-17_260595134347_rgbf000021-resize_3-target.png,125,3.2725,5,7408,128,feet,jsons/VE125_randls_69.json,1842365,2347320,30,Woman
84,222615,DepthScenes,duration_manipulation_targetAtFixation,jsons/VE125_randls_69.json,http://54.235.29.9/FacialAge/BNav_EC2/DepthDuration/v2_depth_duration_MTurk/v2_DepthDuration_HTML.html#74,74,1364,625,1364,768,8-21-2022,9-39-15,85,depth_duration_stimuli/002763_2014-06-22_19-13-10_094959634447_rgbf000075-resize_4/002763_2014-06-22_19-13-10_094959634447_rgbf000075-resize_4-target.png,125,1.68375,5,18388,121,feet,jsons/VE125_randls_69.json,1842365,2347320,30,Woman
85,222615,DepthScenes,duration_manipulation_targetAtFixation,jsons/VE125_randls_69.json,http://54.235.29.9/FacialAge/BNav_EC2/DepthDuration/v2_depth_duration_MTurk/v2_DepthDuration_HTML.html#74,74,1364,625,1364,768,8-21-2022,9-39-15,86,depth_duration_stimuli/002209_2014-06-28_18-36-10_260595134347_rgbf000051-resize_1/002209_2014-06-28_18-36-10_260595134347_rgbf000051-resize_1-target.png,125,2.057,4,5036,148,feet,jsons/VE125_randls_69.json,1842365,2347320,30,Woman
86,222615,DepthScenes,duration_manipulation_targetAtFixation,jsons/VE125_randls_69.json,http://54.235.29.9/FacialAge/BNav_EC2/DepthDuration/v2_depth_duration_MTurk/v2_DepthDuration_HTML.html#74,74,1364,625,1364,768,8-21-2022,9-39-15,87,depth_duration_stimuli/001055_2014-06-08_18-45-35_260595134347_rgbf000111-resize_4/001055_2014-06-08_18-45-35_260595134347_rgbf000111-resize_4-target.png,125,2.4290000000000003,4,6247,117,feet,jsons/VE125_randls_69.json,1842365,2347320,30,Woman
87,222615,DepthScenes,duration_manipulation_targetAtFixation,jsons/VE125_randls_69.json,http://54.235.29.9/FacialAge/BNav_EC2/DepthDuration/v2_depth_duration_MTurk/v2_DepthDuration_HTML.html#74,74,1364,625,1364,768,8-21-2022,9-39-15,88,depth_duration_stimuli/000549_2014-06-08_22-10-24_260595134347_rgbf000247-resize_3/000549_2014-06-08_22-10-24_260595134347_rgbf000247-resize_3-target.png,125,1.841,5,5658,117,feet,jsons/VE125_randls_69.json,1842365,2347320,30,Woman
88,222615,DepthScenes,duration_manipulation_targetAtFixation,jsons/VE125_randls_69.json,http://54.235.29.9/FacialAge/BNav_EC2/DepthDuration/v2_depth_duration_MTurk/v2_DepthDuration_HTML.html#74,74,1364,625,1364,768,8-21-2022,9-39-15,89,depth_duration_stimuli/000682_2014-06-08_23-14-58_260595134347_rgbf000041-resize_5/000682_2014-06-08_23-14-58_260595134347_rgbf000041-resize_5-target.png,125,2.7239999999999998,4,6512,127,feet,jsons/VE125_randls_69.json,1842365,2347320,30,Woman
89,222615,DepthScenes,duration_manipulation_targetAtFixation,jsons/VE125_randls_69.json,http://54.235.29.9/FacialAge/BNav_EC2/DepthDuration/v2_depth_duration_MTurk/v2_DepthDuration_HTML.html#74,74,1364,625,1364,768,8-21-2022,9-39-15,90,depth_duration_stimuli/001650_2014-06-20_12-09-00_260595134347_rgbf000087-resize_3/001650_2014-06-20_12-09-00_260595134347_rgbf000087-resize_3-target.png,125,1.9505,4,5741,123,feet,jsons/VE125_randls_69.json,1842365,2347320,30,Woman
90,222615,DepthScenes,duration_manipulation_targetAtFixation,jsons/VE125_randls_69.json,http://54.235.29.9/FacialAge/BNav_EC2/DepthDuration/v2_depth_duration_MTurk/v2_DepthDuration_HTML.html#74,74,1364,625,1364,768,8-21-2022,9-39-15,91,depth_duration_stimuli/001164_2014-06-17_15-35-46_260595134347_rgbf000085-resize_3/001164_2014-06-17_15-35-46_260595134347_rgbf000085-resize_3-target.png,125,2.354,5,32666,127,feet,jsons/VE125_randls_69.json,1842365,2347320,30,Woman
91,222615,DepthScenes,duration_manipulation_targetAtFixation,jsons/VE125_randls_69.json,http://54.235.29.9/FacialAge/BNav_EC2/DepthDuration/v2_depth_duration_MTurk/v2_DepthDuration_HTML.html#74,74,1364,625,1364,768,8-21-2022,9-39-15,92,depth_duration_stimuli/001136_2014-06-17_15-19-41_260595134347_rgbf000076-resize_3/001136_2014-06-17_15-19-41_260595134347_rgbf000076-resize_3-target.png,125,1.8655,5,5713,124,feet,jsons/VE125_randls_69.json,1842365,2347320,30,Woman
92,222615,DepthScenes,duration_manipulation_targetAtFixation,jsons/VE125_randls_69.json,http://54.235.29.9/FacialAge/BNav_EC2/DepthDuration/v2_depth_duration_MTurk/v2_DepthDuration_HTML.html#74,74,1364,625,1364,768,8-21-2022,9-39-15,93,depth_duration_stimuli/000436_2014-06-09_22-25-11_260595134347_rgbf000137-resize_1/000436_2014-06-09_22-25-11_260595134347_rgbf000137-resize_1-target.png,125,4.0705,6,7939,125,feet,jsons/VE125_randls_69.json,1842365,2347320,30,Woman
93,222615,DepthScenes,duration_manipulation_targetAtFixation,jsons/VE125_randls_69.json,http://54.235.29.9/FacialAge/BNav_EC2/DepthDuration/v2_depth_duration_MTurk/v2_DepthDuration_HTML.html#74,74,1364,625,1364,768,8-21-2022,9-39-15,94,depth_duration_stimuli/002444_2014-06-28_20-32-08_260595134347_rgbf000027-resize_0/002444_2014-06-28_20-32-08_260595134347_rgbf000027-resize_0-target.png,125,4.388999999999999,4,6793,123,feet,jsons/VE125_randls_69.json,1842365,2347320,30,Woman
94,222615,DepthScenes,duration_manipulation_targetAtFixation,jsons/VE125_randls_69.json,http://54.235.29.9/FacialAge/BNav_EC2/DepthDuration/v2_depth_duration_MTurk/v2_DepthDuration_HTML.html#74,74,1364,625,1364,768,8-21-2022,9-39-15,95,depth_duration_stimuli/000470_2014-06-09_19-42-40_260595134347_rgbf000094-resize_1/000470_2014-06-09_19-42-40_260595134347_rgbf000094-resize_1-target.png,125,1.831,5,7880,135,feet,jsons/VE125_randls_69.json,1842365,2347320,30,Woman
95,222615,DepthScenes,duration_manipulation_targetAtFixation,jsons/VE125_randls_69.json,http://54.235.29.9/FacialAge/BNav_EC2/DepthDuration/v2_depth_duration_MTurk/v2_DepthDuration_HTML.html#74,74,1364,625,1364,768,8-21-2022,9-39-15,96,depth_duration_stimuli/000109_2014-05-14_23-41-52_260595134347_rgbf000035-resize_9/000109_2014-05-14_23-41-52_260595134347_rgbf000035-resize_9-target.png,125,1.3545,5,6869,121,feet,jsons/VE125_randls_69.json,1842365,2347320,30,Woman
96,222615,DepthScenes,duration_manipulation_targetAtFixation,jsons/VE125_randls_69.json,http://54.235.29.9/FacialAge/BNav_EC2/DepthDuration/v2_depth_duration_MTurk/v2_DepthDuration_HTML.html#74,74,1364,625,1364,768,8-21-2022,9-39-15,97,depth_duration_stimuli/000758_2014-06-08_22-05-08_260595134347_rgbf000085-resize_0/000758_2014-06-08_22-05-08_260595134347_rgbf000085-resize_0-target.png,125,3.3810000000000002,4,11686,126,feet,jsons/VE125_randls_69.json,1842365,2347320,30,Woman
97,222615,DepthScenes,duration_manipulation_targetAtFixation,jsons/VE125_randls_69.json,http://54.235.29.9/FacialAge/BNav_EC2/DepthDuration/v2_depth_duration_MTurk/v2_DepthDuration_HTML.html#74,74,1364,625,1364,768,8-21-2022,9-39-15,98,depth_duration_stimuli/000854_2014-06-09_19-43-13_260595134347_rgbf000066-resize_0/000854_2014-06-09_19-43-13_260595134347_rgbf000066-resize_0-target.png,125,3.068,5,12332,117,feet,jsons/VE125_randls_69.json,1842365,2347320,30,Woman
98,222615,DepthScenes,duration_manipulation_targetAtFixation,jsons/VE125_randls_69.json,http://54.235.29.9/FacialAge/BNav_EC2/DepthDuration/v2_depth_duration_MTurk/v2_DepthDuration_HTML.html#74,74,1364,625,1364,768,8-21-2022,9-39-15,99,depth_duration_stimuli/001540_2014-06-20_17-01-05_260595134347_rgbf000086-resize_2/001540_2014-06-20_17-01-05_260595134347_rgbf000086-resize-original.jpg,125,1.459,3,6667,135,feet,jsons/VE125_randls_69.json,1842365,2347320,30,Woman
99,222615,DepthScenes,duration_manipulation_targetAtFixation,jsons/VE125_randls_69.json,http://54.235.29.9/FacialAge/BNav_EC2/DepthDuration/v2_depth_duration_MTurk/v2_DepthDuration_HTML.html#74,74,1364,625,1364,768,8-21-2022,9-39-15,100,depth_duration_stimuli/003492_2014-05-21_15-50-55_094959634447_rgbf000828-resize_1/003492_2014-05-21_15-50-55_094959634447_rgbf000828-resize_1-target.png,125,4.06875,5,41982,124,feet,jsons/VE125_randls_69.json,1842365,2347320,30,Woman
100,222615,DepthScenes,duration_manipulation_targetAtFixation,jsons/VE125_randls_69.json,http://54.235.29.9/FacialAge/BNav_EC2/DepthDuration/v2_depth_duration_MTurk/v2_DepthDuration_HTML.html#74,74,1364,625,1364,768,8-21-2022,9-39-15,101,depth_duration_stimuli/002568_2014-06-24_13-59-21_094959634447_rgbf000062-resize_4/002568_2014-06-24_13-59-21_094959634447_rgbf000062-resize_4-target.png,125,3.015,6,5721,125,feet,jsons/VE125_randls_69.json,1842365,2347320,30,Woman
101,222615,DepthScenes,duration_manipulation_targetAtFixation,jsons/VE125_randls_69.json,http://54.235.29.9/FacialAge/BNav_EC2/DepthDuration/v2_depth_duration_MTurk/v2_DepthDuration_HTML.html#74,74,1364,625,1364,768,8-21-2022,9-39-15,102,depth_duration_stimuli/001810_2014-06-26_20-51-35_260595134347_rgbf000040-resize_3/001810_2014-06-26_20-51-35_260595134347_rgbf000040-resize_3-target.png,125,2.2525,6,6320,123,feet,jsons/VE125_randls_69.json,1842365,2347320,30,Woman
102,222615,DepthScenes,duration_manipulation_targetAtFixation,jsons/VE125_randls_69.json,http://54.235.29.9/FacialAge/BNav_EC2/DepthDuration/v2_depth_duration_MTurk/v2_DepthDuration_HTML.html#74,74,1364,625,1364,768,8-21-2022,9-39-15,103,depth_duration_stimuli/003010_2014-06-15_12-54-35_094959634447_rgbf000112-resize_0/003010_2014-06-15_12-54-35_094959634447_rgbf000112-resize_0-target.png,125,3.1185,3,5945,125,feet,jsons/VE125_randls_69.json,1842365,2347320,30,Woman
103,222615,DepthScenes,duration_manipulation_targetAtFixation,jsons/VE125_randls_69.json,http://54.235.29.9/FacialAge/BNav_EC2/DepthDuration/v2_depth_duration_MTurk/v2_DepthDuration_HTML.html#74,74,1364,625,1364,768,8-21-2022,9-39-15,104,depth_duration_stimuli/001158_2014-06-17_15-32-16_260595134347_rgbf000138-resize_2/001158_2014-06-17_15-32-16_260595134347_rgbf000138-resize_2-target.png,125,4.5315,4,23798,125,feet,jsons/VE125_randls_69.json,1842365,2347320,30,Woman
104,222615,DepthScenes,duration_manipulation_targetAtFixation,jsons/VE125_randls_69.json,http://54.235.29.9/FacialAge/BNav_EC2/DepthDuration/v2_depth_duration_MTurk/v2_DepthDuration_HTML.html#74,74,1364,625,1364,768,8-21-2022,9-39-15,105,depth_duration_stimuli/000556_2014-06-09_22-42-56_260595134347_rgbf000214-resize_1/000556_2014-06-09_22-42-56_260595134347_rgbf000214-resize_1-target.png,125,4.8415,4,8851,125,feet,jsons/VE125_randls_69.json,1842365,2347320,30,Woman
105,222615,DepthScenes,duration_manipulation_targetAtFixation,jsons/VE125_randls_69.json,http://54.235.29.9/FacialAge/BNav_EC2/DepthDuration/v2_depth_duration_MTurk/v2_DepthDuration_HTML.html#74,74,1364,625,1364,768,8-21-2022,9-39-15,106,depth_duration_stimuli/000810_2014-06-08_17-20-01_260595134347_rgbf000105-resize_0/000810_2014-06-08_17-20-01_260595134347_rgbf000105-resize_0-target.png,125,1.4865,2,9556,94,feet,jsons/VE125_randls_69.json,1842365,2347320,30,Woman
106,222615,DepthScenes,duration_manipulation_targetAtFixation,jsons/VE125_randls_69.json,http://54.235.29.9/FacialAge/BNav_EC2/DepthDuration/v2_depth_duration_MTurk/v2_DepthDuration_HTML.html#74,74,1364,625,1364,768,8-21-2022,9-39-15,107,depth_duration_stimuli/001214_2014-06-17_16-13-55_260595134347_rgbf000111-resize_0/001214_2014-06-17_16-13-55_260595134347_rgbf000111-resize_0-target.png,125,2.6505,4,5145,124,feet,jsons/VE125_randls_69.json,1842365,2347320,30,Woman
107,222615,DepthScenes,duration_manipulation_targetAtFixation,jsons/VE125_randls_69.json,http://54.235.29.9/FacialAge/BNav_EC2/DepthDuration/v2_depth_duration_MTurk/v2_DepthDuration_HTML.html#74,74,1364,625,1364,768,8-21-2022,9-39-15,108,depth_duration_stimuli/002600_2014-06-24_14-27-04_094959634447_rgbf000074-resize_2/002600_2014-06-24_14-27-04_094959634447_rgbf000074-resize_2-target.png,125,2.7575,3,7459,96,feet,jsons/VE125_randls_69.json,1842365,2347320,30,Woman
108,222615,DepthScenes,duration_manipulation_targetAtFixation,jsons/VE125_randls_69.json,http://54.235.29.9/FacialAge/BNav_EC2/DepthDuration/v2_depth_duration_MTurk/v2_DepthDuration_HTML.html#74,74,1364,625,1364,768,8-21-2022,9-39-15,109,depth_duration_stimuli/003228_2014-05-14_13-42-35_094959634447_rgbf000101-resize_1/003228_2014-05-14_13-42-35_094959634447_rgbf000101-resize_1-target.png,125,1.9680000000000002,4,24028,107,feet,jsons/VE125_randls_69.json,1842365,2347320,30,Woman
109,222615,DepthScenes,duration_manipulation_targetAtFixation,jsons/VE125_randls_69.json,http://54.235.29.9/FacialAge/BNav_EC2/DepthDuration/v2_depth_duration_MTurk/v2_DepthDuration_HTML.html#74,74,1364,625,1364,768,8-21-2022,9-39-15,110,depth_duration_stimuli/001570_2014-06-20_17-21-09_260595134347_rgbf000135-resize_4/001570_2014-06-20_17-21-09_260595134347_rgbf000135-resize_4-target.png,125,4.467,6,6300,125,feet,jsons/VE125_randls_69.json,1842365,2347320,30,Woman
110,222615,DepthScenes,duration_manipulation_targetAtFixation,jsons/VE125_randls_69.json,http://54.235.29.9/FacialAge/BNav_EC2/DepthDuration/v2_depth_duration_MTurk/v2_DepthDuration_HTML.html#74,74,1364,625,1364,768,8-21-2022,9-39-15,111,depth_duration_stimuli/001392_2014-06-19_16-07-59_260595134347_rgbf000046-resize_1/001392_2014-06-19_16-07-59_260595134347_rgbf000046-resize_1-target.png,125,4.135,5,5572,125,feet,jsons/VE125_randls_69.json,1842365,2347320,30,Woman
111,222615,DepthScenes,duration_manipulation_targetAtFixation,jsons/VE125_randls_69.json,http://54.235.29.9/FacialAge/BNav_EC2/DepthDuration/v2_depth_duration_MTurk/v2_DepthDuration_HTML.html#74,74,1364,625,1364,768,8-21-2022,9-39-15,112,depth_duration_stimuli/000368_2014-06-09_15-53-01_260595134347_rgbf000155-resize_2/000368_2014-06-09_15-53-01_260595134347_rgbf000155-resize_2-target.png,125,2.4859999999999998,6,6068,113,feet,jsons/VE125_randls_69.json,1842365,2347320,30,Woman
112,222615,DepthScenes,duration_manipulation_targetAtFixation,jsons/VE125_randls_69.json,http://54.235.29.9/FacialAge/BNav_EC2/DepthDuration/v2_depth_duration_MTurk/v2_DepthDuration_HTML.html#74,74,1364,625,1364,768,8-21-2022,9-39-15,113,depth_duration_stimuli/002678_2014-06-13_16-15-32_094959634447_rgbf000151-resize_6/002678_2014-06-13_16-15-32_094959634447_rgbf000151-resize_6-target.png,125,2.1830000000000003,3,8355,123,feet,jsons/VE125_randls_69.json,1842365,2347320,30,Woman
113,222615,DepthScenes,duration_manipulation_targetAtFixation,jsons/VE125_randls_69.json,http://54.235.29.9/FacialAge/BNav_EC2/DepthDuration/v2_depth_duration_MTurk/v2_DepthDuration_HTML.html#74,74,1364,625,1364,768,8-21-2022,9-39-15,114,depth_duration_stimuli/001150_2014-06-17_15-27-34_260595134347_rgbf000108-resize_2/001150_2014-06-17_15-27-34_260595134347_rgbf000108-resize_2-target.png,125,4.0325,4,5973,129,feet,jsons/VE125_randls_69.json,1842365,2347320,30,Woman
114,222615,DepthScenes,duration_manipulation_targetAtFixation,jsons/VE125_randls_69.json,http://54.235.29.9/FacialAge/BNav_EC2/DepthDuration/v2_depth_duration_MTurk/v2_DepthDuration_HTML.html#74,74,1364,625,1364,768,8-21-2022,9-39-15,115,depth_duration_stimuli/000665_2014-06-09_20-42-35_260595134347_rgbf000110-resize_1/000665_2014-06-09_20-42-35_260595134347_rgbf000110-resize_1-target.png,125,3.057,2,8062,122,feet,jsons/VE125_randls_69.json,1842365,2347320,30,Woman
115,222615,DepthScenes,duration_manipulation_targetAtFixation,jsons/VE125_randls_69.json,http://54.235.29.9/FacialAge/BNav_EC2/DepthDuration/v2_depth_duration_MTurk/v2_DepthDuration_HTML.html#74,74,1364,625,1364,768,8-21-2022,9-39-15,116,depth_duration_stimuli/001170_2014-06-17_15-43-44_260595134347_rgbf000096-resize_6/001170_2014-06-17_15-43-44_260595134347_rgbf000096-resize-original.jpg,125,1.1909999999999998,4,18449,135,feet,jsons/VE125_randls_69.json,1842365,2347320,30,Woman
116,222615,DepthScenes,duration_manipulation_targetAtFixation,jsons/VE125_randls_69.json,http://54.235.29.9/FacialAge/BNav_EC2/DepthDuration/v2_depth_duration_MTurk/v2_DepthDuration_HTML.html#74,74,1364,625,1364,768,8-21-2022,9-39-15,117,depth_duration_stimuli/002725_2014-06-22_11-47-51_094959634447_rgbf000070-resize_1/002725_2014-06-22_11-47-51_094959634447_rgbf000070-resize_1-target.png,125,2.195,2,8141,119,feet,jsons/VE125_randls_69.json,1842365,2347320,30,Woman
117,222615,DepthScenes,duration_manipulation_targetAtFixation,jsons/VE125_randls_69.json,http://54.235.29.9/FacialAge/BNav_EC2/DepthDuration/v2_depth_duration_MTurk/v2_DepthDuration_HTML.html#74,74,1364,625,1364,768,8-21-2022,9-39-15,118,depth_duration_stimuli/002344_2014-06-28_20-06-29_260595134347_rgbf000030-resize_1/002344_2014-06-28_20-06-29_260595134347_rgbf000030-resize_1-target.png,125,1.5795,2,6336,117,feet,jsons/VE125_randls_69.json,1842365,2347320,30,Woman
118,222615,DepthScenes,duration_manipulation_targetAtFixation,jsons/VE125_randls_69.json,http://54.235.29.9/FacialAge/BNav_EC2/DepthDuration/v2_depth_duration_MTurk/v2_DepthDuration_HTML.html#74,74,1364,625,1364,768,8-21-2022,9-39-15,119,depth_duration_stimuli/002509_2014-06-24_13-19-22_094959634447_rgbf000077-resize_0/002509_2014-06-24_13-19-22_094959634447_rgbf000077-resize_0-target.png,125,1.3065,1,8610,131,feet,jsons/VE125_randls_69.json,1842365,2347320,30,Woman
119,222615,DepthScenes,duration_manipulation_targetAtFixation,jsons/VE125_randls_69.json,http://54.235.29.9/FacialAge/BNav_EC2/DepthDuration/v2_depth_duration_MTurk/v2_DepthDuration_HTML.html#74,74,1364,625,1364,768,8-21-2022,9-39-15,120,depth_duration_stimuli/003338_2014-05-20_11-01-23_094959634447_rgbf000051-resize_6/003338_2014-05-20_11-01-23_094959634447_rgbf000051-resize_6-target.png,125,1.693,6,19491,116,feet,jsons/VE125_randls_69.json,1842365,2347320,30,Woman
120,222615,DepthScenes,duration_manipulation_targetAtFixation,jsons/VE125_randls_69.json,http://54.235.29.9/FacialAge/BNav_EC2/DepthDuration/v2_depth_duration_MTurk/v2_DepthDuration_HTML.html#74,74,1364,625,1364,768,8-21-2022,9-39-15,121,depth_duration_stimuli/002039_2014-06-24_20-22-38_260595134347_rgbf000084-resize_1/002039_2014-06-24_20-22-38_260595134347_rgbf000084-resize_1-target.png,125,4.408,5,5536,118,feet,jsons/VE125_randls_69.json,1842365,2347320,30,Woman
121,222615,DepthScenes,duration_manipulation_targetAtFixation,jsons/VE125_randls_69.json,http://54.235.29.9/FacialAge/BNav_EC2/DepthDuration/v2_depth_duration_MTurk/v2_DepthDuration_HTML.html#74,74,1364,625,1364,768,8-21-2022,9-39-15,122,depth_duration_stimuli/002103_2014-06-25_20-00-40_260595134347_rgbf000049-resize_0/002103_2014-06-25_20-00-40_260595134347_rgbf000049-resize_0-target.png,125,4.105,5,10203,157,feet,jsons/VE125_randls_69.json,1842365,2347320,30,Woman
122,222615,DepthScenes,duration_manipulation_targetAtFixation,jsons/VE125_randls_69.json,http://54.235.29.9/FacialAge/BNav_EC2/DepthDuration/v2_depth_duration_MTurk/v2_DepthDuration_HTML.html#74,74,1364,625,1364,768,8-21-2022,9-39-15,123,depth_duration_stimuli/000929_2014-06-09_16-33-19_260595134347_rgbf000139-resize_0/000929_2014-06-09_16-33-19_260595134347_rgbf000139-resize_0-target.png,125,2.8680000000000003,4,6156,122,feet,jsons/VE125_randls_69.json,1842365,2347320,30,Woman
123,222615,DepthScenes,duration_manipulation_targetAtFixation,jsons/VE125_randls_69.json,http://54.235.29.9/FacialAge/BNav_EC2/DepthDuration/v2_depth_duration_MTurk/v2_DepthDuration_HTML.html#74,74,1364,625,1364,768,8-21-2022,9-39-15,124,depth_duration_stimuli/000457_2014-06-08_16-52-43_260595134347_rgbf000199-resize_1/000457_2014-06-08_16-52-43_260595134347_rgbf000199-resize_1-target.png,125,3.6489999999999996,4,7190,127,feet,jsons/VE125_randls_69.json,1842365,2347320,30,Woman
124,222615,DepthScenes,duration_manipulation_targetAtFixation,jsons/VE125_randls_69.json,http://54.235.29.9/FacialAge/BNav_EC2/DepthDuration/v2_depth_duration_MTurk/v2_DepthDuration_HTML.html#74,74,1364,625,1364,768,8-21-2022,9-39-15,125,depth_duration_stimuli/000506_2014-06-08_23-21-00_260595134347_rgbf000070-resize_7/000506_2014-06-08_23-21-00_260595134347_rgbf000070-resize_7-target.png,125,4.0585,2,29554,115,feet,jsons/VE125_randls_69.json,1842365,2347320,30,Woman
125,222615,DepthScenes,duration_manipulation_targetAtFixation,jsons/VE125_randls_69.json,http://54.235.29.9/FacialAge/BNav_EC2/DepthDuration/v2_depth_duration_MTurk/v2_DepthDuration_HTML.html#74,74,1364,625,1364,768,8-21-2022,9-39-15,126,depth_duration_stimuli/003079_2014-06-15_15-18-20_094959634447_rgbf000152-resize_8/003079_2014-06-15_15-18-20_094959634447_rgbf000152-resize_8-target.png,125,2.8775,2,7475,122,feet,jsons/VE125_randls_69.json,1842365,2347320,30,Woman
126,222615,DepthScenes,duration_manipulation_targetAtFixation,jsons/VE125_randls_69.json,http://54.235.29.9/FacialAge/BNav_EC2/DepthDuration/v2_depth_duration_MTurk/v2_DepthDuration_HTML.html#74,74,1364,625,1364,768,8-21-2022,9-39-15,127,depth_duration_stimuli/000469_2014-06-09_19-42-10_260595134347_rgbf000081-resize_1/000469_2014-06-09_19-42-10_260595134347_rgbf000081-resize_1-target.png,125,1.652,5,7865,138,feet,jsons/VE125_randls_69.json,1842365,2347320,30,Woman
127,222615,DepthScenes,duration_manipulation_targetAtFixation,jsons/VE125_randls_69.json,http://54.235.29.9/FacialAge/BNav_EC2/DepthDuration/v2_depth_duration_MTurk/v2_DepthDuration_HTML.html#74,74,1364,625,1364,768,8-21-2022,9-39-15,128,depth_duration_stimuli/000483_2014-06-09_20-41-45_260595134347_rgbf000116-resize_4/000483_2014-06-09_20-41-45_260595134347_rgbf000116-resize_4-target.png,125,1.337,5,8004,119,feet,jsons/VE125_randls_69.json,1842365,2347320,30,Woman
128,222615,DepthScenes,duration_manipulation_targetAtFixation,jsons/VE125_randls_69.json,http://54.235.29.9/FacialAge/BNav_EC2/DepthDuration/v2_depth_duration_MTurk/v2_DepthDuration_HTML.html#74,74,1364,625,1364,768,8-21-2022,9-39-15,129,depth_duration_stimuli/000773_2014-06-08_22-24-54_260595134347_rgbf000093-resize_1/000773_2014-06-08_22-24-54_260595134347_rgbf000093-resize_1-target.png,125,4.973,6,5922,125,feet,jsons/VE125_randls_69.json,1842365,2347320,30,Woman
129,222615,DepthScenes,duration_manipulation_targetAtFixation,jsons/VE125_randls_69.json,http://54.235.29.9/FacialAge/BNav_EC2/DepthDuration/v2_depth_duration_MTurk/v2_DepthDuration_HTML.html#74,74,1364,625,1364,768,8-21-2022,9-39-15,130,depth_duration_stimuli/002414_2014-06-28_20-24-58_260595134347_rgbf000067-resize_4/002414_2014-06-28_20-24-58_260595134347_rgbf000067-resize_4-target.png,125,4.363,2,6785,120,feet,jsons/VE125_randls_69.json,1842365,2347320,30,Woman
130,222615,DepthScenes,duration_manipulation_targetAtFixation,jsons/VE125_randls_69.json,http://54.235.29.9/FacialAge/BNav_EC2/DepthDuration/v2_depth_duration_MTurk/v2_DepthDuration_HTML.html#74,74,1364,625,1364,768,8-21-2022,9-39-15,131,depth_duration_stimuli/001016_2014-06-09_16-16-10_260595134347_rgbf000112-resize_5/001016_2014-06-09_16-16-10_260595134347_rgbf000112-resize_5-target.png,125,1.6565,5,7260,123,feet,jsons/VE125_randls_69.json,1842365,2347320,30,Woman
131,222615,DepthScenes,duration_manipulation_targetAtFixation,jsons/VE125_randls_69.json,http://54.235.29.9/FacialAge/BNav_EC2/DepthDuration/v2_depth_duration_MTurk/v2_DepthDuration_HTML.html#74,74,1364,625,1364,768,8-21-2022,9-39-15,132,depth_duration_stimuli/002340_2014-06-28_20-05-46_260595134347_rgbf000113-resize_0/002340_2014-06-28_20-05-46_260595134347_rgbf000113-resize_0-target.png,125,2.4735,2,6710,147,feet,jsons/VE125_randls_69.json,1842365,2347320,30,Woman
132,222615,DepthScenes,duration_manipulation_targetAtFixation,jsons/VE125_randls_69.json,http://54.235.29.9/FacialAge/BNav_EC2/DepthDuration/v2_depth_duration_MTurk/v2_DepthDuration_HTML.html#74,74,1364,625,1364,768,8-21-2022,9-39-15,133,depth_duration_stimuli/002905_2014-06-03_18-04-43_094959634447_rgbf000151-resize_2/002905_2014-06-03_18-04-43_094959634447_rgbf000151-resize_2-target.png,125,2.0295,4,25232,128,feet,jsons/VE125_randls_69.json,1842365,2347320,30,Woman
133,222615,DepthScenes,duration_manipulation_targetAtFixation,jsons/VE125_randls_69.json,http://54.235.29.9/FacialAge/BNav_EC2/DepthDuration/v2_depth_duration_MTurk/v2_DepthDuration_HTML.html#74,74,1364,625,1364,768,8-21-2022,9-39-15,134,depth_duration_stimuli/003423_2014-05-21_10-23-26_094959634447_rgbf002665-resize_2/003423_2014-05-21_10-23-26_094959634447_rgbf002665-resize_2-target.png,125,3.2575,2,5586,124,feet,jsons/VE125_randls_69.json,1842365,2347320,30,Woman
134,222615,DepthScenes,duration_manipulation_targetAtFixation,jsons/VE125_randls_69.json,http://54.235.29.9/FacialAge/BNav_EC2/DepthDuration/v2_depth_duration_MTurk/v2_DepthDuration_HTML.html#74,74,1364,625,1364,768,8-21-2022,9-39-15,135,depth_duration_stimuli/002072_2014-06-24_21-48-06_260595134347_rgbf000115-resize_0/002072_2014-06-24_21-48-06_260595134347_rgbf000115-resize-original.jpg,125,4.702,2,8140,123,feet,jsons/VE125_randls_69.json,1842365,2347320,30,Woman
135,222615,DepthScenes,duration_manipulation_targetAtFixation,jsons/VE125_randls_69.json,http://54.235.29.9/FacialAge/BNav_EC2/DepthDuration/v2_depth_duration_MTurk/v2_DepthDuration_HTML.html#74,74,1364,625,1364,768,8-21-2022,9-39-15,136,depth_duration_stimuli/001417_2014-06-19_16-25-36_260595134347_rgbf000115-resize_5/001417_2014-06-19_16-25-36_260595134347_rgbf000115-resize_5-target.png,125,4.6255,3,11300,134,feet,jsons/VE125_randls_69.json,1842365,2347320,30,Woman
136,222615,DepthScenes,duration_manipulation_targetAtFixation,jsons/VE125_randls_69.json,http://54.235.29.9/FacialAge/BNav_EC2/DepthDuration/v2_depth_duration_MTurk/v2_DepthDuration_HTML.html#74,74,1364,625,1364,768,8-21-2022,9-39-15,137,depth_duration_stimuli/003081_2014-06-15_15-19-16_094959634447_rgbf000150-resize_1/003081_2014-06-15_15-19-16_094959634447_rgbf000150-resize_1-target.png,125,3.9125,2,5119,142,feet,jsons/VE125_randls_69.json,1842365,2347320,30,Woman
137,222615,DepthScenes,duration_manipulation_targetAtFixation,jsons/VE125_randls_69.json,http://54.235.29.9/FacialAge/BNav_EC2/DepthDuration/v2_depth_duration_MTurk/v2_DepthDuration_HTML.html#74,74,1364,625,1364,768,8-21-2022,9-39-15,138,depth_duration_stimuli/001133_2014-06-17_14-49-16_260595134347_rgbf000100-resize_0/001133_2014-06-17_14-49-16_260595134347_rgbf000100-resize_0-target.png,125,4.2115,6,25385,129,feet,jsons/VE125_randls_69.json,1842365,2347320,30,Woman
138,222615,DepthScenes,duration_manipulation_targetAtFixation,jsons/VE125_randls_69.json,http://54.235.29.9/FacialAge/BNav_EC2/DepthDuration/v2_depth_duration_MTurk/v2_DepthDuration_HTML.html#74,74,1364,768,1364,768,8-21-2022,9-39-15,139,depth_duration_stimuli/001132_2014-06-17_14-48-54_260595134347_rgbf000100-resize_2/001132_2014-06-17_14-48-54_260595134347_rgbf000100-resize_2-target.png,125,3.753,5,15341,120,feet,jsons/VE125_randls_69.json,1842365,2347320,30,Woman
139,222615,DepthScenes,duration_manipulation_targetAtFixation,jsons/VE125_randls_69.json,http://54.235.29.9/FacialAge/BNav_EC2/DepthDuration/v2_depth_duration_MTurk/v2_DepthDuration_HTML.html#74,74,1364,768,1364,768,8-21-2022,9-39-15,140,depth_duration_stimuli/003292_2014-05-14_21-53-49_094959634447_rgbf000100-resize_2/003292_2014-05-14_21-53-49_094959634447_rgbf000100-resize_2-target.png,125,3.4815,3,31828,130,feet,jsons/VE125_randls_69.json,1842365,2347320,30,Woman
140,222615,DepthScenes,duration_manipulation_targetAtFixation,jsons/VE125_randls_69.json,http://54.235.29.9/FacialAge/BNav_EC2/DepthDuration/v2_depth_duration_MTurk/v2_DepthDuration_HTML.html#74,74,1364,768,1364,768,8-21-2022,9-39-15,141,depth_duration_stimuli/002639_2014-06-24_14-51-37_094959634447_rgbf000074-resize_4/002639_2014-06-24_14-51-37_094959634447_rgbf000074-resize_4-target.png,125,4.0375,5,5213,125,feet,jsons/VE125_randls_69.json,1842365,2347320,30,Woman
141,222615,DepthScenes,duration_manipulation_targetAtFixation,jsons/VE125_randls_69.json,http://54.235.29.9/FacialAge/BNav_EC2/DepthDuration/v2_depth_duration_MTurk/v2_DepthDuration_HTML.html#74,74,1364,768,1364,768,8-21-2022,9-39-15,142,depth_duration_stimuli/000736_2014-06-08_18-24-15_260595134347_rgbf000206-resize_3/000736_2014-06-08_18-24-15_260595134347_rgbf000206-resize_3-target.png,125,3.515,3,7903,126,feet,jsons/VE125_randls_69.json,1842365,2347320,30,Woman
142,222615,DepthScenes,duration_manipulation_targetAtFixation,jsons/VE125_randls_69.json,http://54.235.29.9/FacialAge/BNav_EC2/DepthDuration/v2_depth_duration_MTurk/v2_DepthDuration_HTML.html#74,74,1364,768,1364,768,8-21-2022,9-39-15,143,depth_duration_stimuli/000137_2014-05-20_17-04-49_260595134347_rgbf000120-resize_1/000137_2014-05-20_17-04-49_260595134347_rgbf000120-resize_1-target.png,125,3.786,3,7233,125,feet,jsons/VE125_randls_69.json,1842365,2347320,30,Woman
143,222615,DepthScenes,duration_manipulation_targetAtFixation,jsons/VE125_randls_69.json,http://54.235.29.9/FacialAge/BNav_EC2/DepthDuration/v2_depth_duration_MTurk/v2_DepthDuration_HTML.html#74,74,1364,768,1364,768,8-21-2022,9-39-15,144,depth_duration_stimuli/002043_2014-06-24_20-29-38_260595134347_rgbf000039-resize_4/002043_2014-06-24_20-29-38_260595134347_rgbf000039-resize_4-target.png,125,2.8435,6,23977,125,feet,jsons/VE125_randls_69.json,1842365,2347320,30,Woman
144,222615,DepthScenes,duration_manipulation_targetAtFixation,jsons/VE125_randls_69.json,http://54.235.29.9/FacialAge/BNav_EC2/DepthDuration/v2_depth_duration_MTurk/v2_DepthDuration_HTML.html#74,74,1364,768,1364,768,8-21-2022,9-39-15,145,depth_duration_stimuli/003048_2014-06-15_13-49-43_094959634447_rgbf000150-resize_1/003048_2014-06-15_13-49-43_094959634447_rgbf000150-resize_1-target.png,125,4.0035,3,4718,125,feet,jsons/VE125_randls_69.json,1842365,2347320,30,Woman
145,222615,DepthScenes,duration_manipulation_targetAtFixation,jsons/VE125_randls_69.json,http://54.235.29.9/FacialAge/BNav_EC2/DepthDuration/v2_depth_duration_MTurk/v2_DepthDuration_HTML.html#74,74,1364,768,1364,768,8-21-2022,9-39-15,146,depth_duration_stimuli/001498_2014-06-19_17-45-14_260595134347_rgbf000129-resize_4/001498_2014-06-19_17-45-14_260595134347_rgbf000129-resize-original.jpg,125,1.4075,3,8497,137,feet,jsons/VE125_randls_69.json,1842365,2347320,30,Woman
146,222615,DepthScenes,duration_manipulation_targetAtFixation,jsons/VE125_randls_69.json,http://54.235.29.9/FacialAge/BNav_EC2/DepthDuration/v2_depth_duration_MTurk/v2_DepthDuration_HTML.html#74,74,1364,768,1364,768,8-21-2022,9-39-15,147,depth_duration_stimuli/002788_2014-06-22_19-36-03_094959634447_rgbf000088-resize_2/002788_2014-06-22_19-36-03_094959634447_rgbf000088-resize_2-target.png,125,1.6465,3,5945,124,feet,jsons/VE125_randls_69.json,1842365,2347320,30,Woman
147,222615,DepthScenes,duration_manipulation_targetAtFixation,jsons/VE125_randls_69.json,http://54.235.29.9/FacialAge/BNav_EC2/DepthDuration/v2_depth_duration_MTurk/v2_DepthDuration_HTML.html#74,74,1364,768,1364,768,8-21-2022,9-39-15,148,depth_duration_stimuli/000749_2014-06-08_21-55-06_260595134347_rgbf000070-resize_2/000749_2014-06-08_21-55-06_260595134347_rgbf000070-resize_2-target.png,125,2.331,4,9142,126,feet,jsons/VE125_randls_69.json,1842365,2347320,30,Woman
148,222615,DepthScenes,duration_manipulation_targetAtFixation,jsons/VE125_randls_69.json,http://54.235.29.9/FacialAge/BNav_EC2/DepthDuration/v2_depth_duration_MTurk/v2_DepthDuration_HTML.html#74,74,1364,768,1364,768,8-21-2022,9-39-15,149,depth_duration_stimuli/002663_2014-06-13_15-50-26_094959634447_rgbf000075-resize_1/002663_2014-06-13_15-50-26_094959634447_rgbf000075-resize_1-target.png,125,4.7495,3,10043,123,feet,jsons/VE125_randls_69.json,1842365,2347320,30,Woman
149,222615,DepthScenes,duration_manipulation_targetAtFixation,jsons/VE125_randls_69.json,http://54.235.29.9/FacialAge/BNav_EC2/DepthDuration/v2_depth_duration_MTurk/v2_DepthDuration_HTML.html#74,74,1364,768,1364,768,8-21-2022,9-39-15,150,depth_duration_stimuli/000409_2014-06-04_19-23-33_260595134347_rgbf000067-resize_0/000409_2014-06-04_19-23-33_260595134347_rgbf000067-resize_0-target.png,125,3.7335,2,5377,125,feet,jsons/VE125_randls_69.json,1842365,2347320,30,Woman
150,222615,DepthScenes,duration_manipulation_targetAtFixation,jsons/VE125_randls_69.json,http://54.235.29.9/FacialAge/BNav_EC2/DepthDuration/v2_depth_duration_MTurk/v2_DepthDuration_HTML.html#74,74,1364,768,1364,768,8-21-2022,9-39-15,151,depth_duration_stimuli/003534_2014-05-22_15-06-10_094959634447_rgbf000102-resize_4/003534_2014-05-22_15-06-10_094959634447_rgbf000102-resize_4-target.png,125,1.426,5,19175,123,feet,jsons/VE125_randls_69.json,1842365,2347320,30,Woman
151,222615,DepthScenes,duration_manipulation_targetAtFixation,jsons/VE125_randls_69.json,http://54.235.29.9/FacialAge/BNav_EC2/DepthDuration/v2_depth_duration_MTurk/v2_DepthDuration_HTML.html#74,74,1364,768,1364,768,8-21-2022,9-39-15,152,depth_duration_stimuli/002637_2014-06-24_14-51-13_094959634447_rgbf000066-resize_4/002637_2014-06-24_14-51-13_094959634447_rgbf000066-resize_4-target.png,125,1.9955,3,6039,122,feet,jsons/VE125_randls_69.json,1842365,2347320,30,Woman
152,222615,DepthScenes,duration_manipulation_targetAtFixation,jsons/VE125_randls_69.json,http://54.235.29.9/FacialAge/BNav_EC2/DepthDuration/v2_depth_duration_MTurk/v2_DepthDuration_HTML.html#74,74,1364,768,1364,768,8-21-2022,9-39-15,153,depth_duration_stimuli/001167_2014-06-17_15-38-07_260595134347_rgbf000108-resize_0/001167_2014-06-17_15-38-07_260595134347_rgbf000108-resize_0-target.png,125,1.8505,1,13008,122,feet,jsons/VE125_randls_69.json,1842365,2347320,30,Woman
153,222615,DepthScenes,duration_manipulation_targetAtFixation,jsons/VE125_randls_69.json,http://54.235.29.9/FacialAge/BNav_EC2/DepthDuration/v2_depth_duration_MTurk/v2_DepthDuration_HTML.html#74,74,1364,768,1364,768,8-21-2022,9-39-15,154,depth_duration_stimuli/003587_2014-05-23_16-48-02_094959634447_rgbf002384-resize_2/003587_2014-05-23_16-48-02_094959634447_rgbf002384-resize_2-target.png,125,1.357,3,7622,124,feet,jsons/VE125_randls_69.json,1842365,2347320,30,Woman
154,222615,DepthScenes,duration_manipulation_targetAtFixation,jsons/VE125_randls_69.json,http://54.235.29.9/FacialAge/BNav_EC2/DepthDuration/v2_depth_duration_MTurk/v2_DepthDuration_HTML.html#74,74,1364,768,1364,768,8-21-2022,9-39-15,155,depth_duration_stimuli/000414_2014-06-04_19-49-13_260595134347_rgbf000044-resize_0/000414_2014-06-04_19-49-13_260595134347_rgbf000044-resize_0-target.png,125,4.329,3,8061,123,feet,jsons/VE125_randls_69.json,1842365,2347320,30,Woman
155,222615,DepthScenes,duration_manipulation_targetAtFixation,jsons/VE125_randls_69.json,http://54.235.29.9/FacialAge/BNav_EC2/DepthDuration/v2_depth_duration_MTurk/v2_DepthDuration_HTML.html#74,74,1364,768,1364,768,8-21-2022,9-39-15,156,depth_duration_stimuli/003129_2014-05-12_10-48-10_094959634447_rgbf000100-resize_0/003129_2014-05-12_10-48-10_094959634447_rgbf000100-resize_0-target.png,125,4.9305,5,20587,137,feet,jsons/VE125_randls_69.json,1842365,2347320,30,Woman
156,222615,DepthScenes,duration_manipulation_targetAtFixation,jsons/VE125_randls_69.json,http://54.235.29.9/FacialAge/BNav_EC2/DepthDuration/v2_depth_duration_MTurk/v2_DepthDuration_HTML.html#74,74,1364,768,1364,768,8-21-2022,9-39-15,157,depth_duration_stimuli/001199_2014-06-17_16-03-48_260595134347_rgbf000077-resize_0/001199_2014-06-17_16-03-48_260595134347_rgbf000077-resize_0-target.png,125,3.4375,3,6187,127,feet,jsons/VE125_randls_69.json,1842365,2347320,30,Woman
157,222615,DepthScenes,duration_manipulation_targetAtFixation,jsons/VE125_randls_69.json,http://54.235.29.9/FacialAge/BNav_EC2/DepthDuration/v2_depth_duration_MTurk/v2_DepthDuration_HTML.html#74,74,1364,768,1364,768,8-21-2022,9-39-15,158,depth_duration_stimuli/000502_2014-06-08_23-02-32_260595134347_rgbf000063-resize_4/000502_2014-06-08_23-02-32_260595134347_rgbf000063-resize_4-target.png,125,2.431,4,6778,123,feet,jsons/VE125_randls_69.json,1842365,2347320,30,Woman
158,222615,DepthScenes,duration_manipulation_targetAtFixation,jsons/VE125_randls_69.json,http://54.235.29.9/FacialAge/BNav_EC2/DepthDuration/v2_depth_duration_MTurk/v2_DepthDuration_HTML.html#74,74,1364,768,1364,768,8-21-2022,9-39-15,159,depth_duration_stimuli/000447_2014-06-08_16-15-46_260595134347_rgbf000130-resize_1/000447_2014-06-08_16-15-46_260595134347_rgbf000130-resize_1-target.png,125,4.479,3,5544,124,feet,jsons/VE125_randls_69.json,1842365,2347320,30,Woman
159,222615,DepthScenes,duration_manipulation_targetAtFixation,jsons/VE125_randls_69.json,http://54.235.29.9/FacialAge/BNav_EC2/DepthDuration/v2_depth_duration_MTurk/v2_DepthDuration_HTML.html#74,74,1364,768,1364,768,8-21-2022,9-39-15,160,depth_duration_stimuli/001447_2014-06-19_17-00-32_260595134347_rgbf000082-resize_5/001447_2014-06-19_17-00-32_260595134347_rgbf000082-resize_5-target.png,125,4.13775,3,18482,123,feet,jsons/VE125_randls_69.json,1842365,2347320,30,Woman
160,222615,DepthScenes,duration_manipulation_targetAtFixation,jsons/VE125_randls_69.json,http://54.235.29.9/FacialAge/BNav_EC2/DepthDuration/v2_depth_duration_MTurk/v2_DepthDuration_HTML.html#74,74,1364,768,1364,768,8-21-2022,9-39-15,161,depth_duration_stimuli/002213_2014-06-28_18-37-58_260595134347_rgbf000055-resize_1/002213_2014-06-28_18-37-58_260595134347_rgbf000055-resize_1-target.png,125,3.62,2,39838,126,feet,jsons/VE125_randls_69.json,1842365,2347320,30,Woman
161,222615,DepthScenes,duration_manipulation_targetAtFixation,jsons/VE125_randls_69.json,http://54.235.29.9/FacialAge/BNav_EC2/DepthDuration/v2_depth_duration_MTurk/v2_DepthDuration_HTML.html#74,74,1364,768,1364,768,8-21-2022,9-39-15,162,depth_duration_stimuli/000691_2014-06-08_13-08-50_260595134347_rgbf000132-resize_3/000691_2014-06-08_13-08-50_260595134347_rgbf000132-resize_3-target.png,125,4.1530000000000005,3,4766,121,feet,jsons/VE125_randls_69.json,1842365,2347320,30,Woman
162,222615,DepthScenes,duration_manipulation_targetAtFixation,jsons/VE125_randls_69.json,http://54.235.29.9/FacialAge/BNav_EC2/DepthDuration/v2_depth_duration_MTurk/v2_DepthDuration_HTML.html#74,74,1364,768,1364,768,8-21-2022,9-39-15,163,depth_duration_stimuli/002445_2014-06-28_20-32-16_260595134347_rgbf000029-resize_4/002445_2014-06-28_20-32-16_260595134347_rgbf000029-resize_4-target.png,125,2.5315,2,19548,125,feet,jsons/VE125_randls_69.json,1842365,2347320,30,Woman
163,222615,DepthScenes,duration_manipulation_targetAtFixation,jsons/VE125_randls_69.json,http://54.235.29.9/FacialAge/BNav_EC2/DepthDuration/v2_depth_duration_MTurk/v2_DepthDuration_HTML.html#74,74,1364,768,1364,768,8-21-2022,9-39-15,164,depth_duration_stimuli/000780_2014-06-08_22-28-29_260595134347_rgbf000126-resize_1/000780_2014-06-08_22-28-29_260595134347_rgbf000126-resize_1-target.png,125,3.3825,3,12912,142,feet,jsons/VE125_randls_69.json,1842365,2347320,30,Woman
