,subjID,experimentName,versionName,sequenceName,url,selected_row,windowWidth,windowHeight,screenWidth,screenHeight,startDate,startTime,trial,stimulus,duration,actual_depth,depth_estimate,trial_RT,log_sceneDuration,unitSelection,seq_filepath,experimentTime,totalTime,age,gender
0,223311,DepthScenes,duration_manipulation_targetAtFixation,jsons/v1_VE1000_randls_4_rotated.json,http://54.235.29.9/FacialAge/BNav_EC2/DepthDuration/v2_depth_duration_MTurk/v2_DepthDuration_HTML.html#35,35,1366,768,1366,768,8-22-2022,7-59-50,1,depth_duration_stimuli/001450_2014-06-19_17-02-03_260595134347_rgbf000203-resize_4/001450_2014-06-19_17-02-03_260595134347_rgbf000203-resize_4-target.png,1000,4.0106666666667,1,5540,1011,meters,jsons/v1_VE1000_randls_4_rotated.json,762707,900803,1987,Woman
1,223311,DepthScenes,duration_manipulation_targetAtFixation,jsons/v1_VE1000_randls_4_rotated.json,http://54.235.29.9/FacialAge/BNav_EC2/DepthDuration/v2_depth_duration_MTurk/v2_DepthDuration_HTML.html#35,35,1366,768,1366,768,8-22-2022,7-59-50,2,depth_duration_stimuli/001449_2014-06-19_17-01-27_260595134347_rgbf000116-resize_2/001449_2014-06-19_17-01-27_260595134347_rgbf000116-resize_2-target.png,1000,3.452,2,5605,1165,meters,jsons/v1_VE1000_randls_4_rotated.json,762707,900803,1987,Woman
2,223311,DepthScenes,duration_manipulation_targetAtFixation,jsons/v1_VE1000_randls_4_rotated.json,http://54.235.29.9/FacialAge/BNav_EC2/DepthDuration/v2_depth_duration_MTurk/v2_DepthDuration_HTML.html#35,35,1366,768,1366,768,8-22-2022,7-59-50,3,depth_duration_stimuli/002750_2014-06-22_19-08-03_094959634447_rgbf000094-resize_4/002750_2014-06-22_19-08-03_094959634447_rgbf000094-resize_4-target.png,1000,2.354,2,4442,995,meters,jsons/v1_VE1000_randls_4_rotated.json,762707,900803,1987,Woman
3,223311,DepthScenes,duration_manipulation_targetAtFixation,jsons/v1_VE1000_randls_4_rotated.json,http://54.235.29.9/FacialAge/BNav_EC2/DepthDuration/v2_depth_duration_MTurk/v2_DepthDuration_HTML.html#35,35,1366,768,1366,768,8-22-2022,7-59-50,4,depth_duration_stimuli/002549_2014-06-24_13-41-39_094959634447_rgbf000022-resize_3/002549_2014-06-24_13-41-39_094959634447_rgbf000022-resize_3-target.png,1000,1.476,3,4487,1000,meters,jsons/v1_VE1000_randls_4_rotated.json,762707,900803,1987,Woman
4,223311,DepthScenes,duration_manipulation_targetAtFixation,jsons/v1_VE1000_randls_4_rotated.json,http://54.235.29.9/FacialAge/BNav_EC2/DepthDuration/v2_depth_duration_MTurk/v2_DepthDuration_HTML.html#35,35,1366,768,1366,768,8-22-2022,7-59-50,5,depth_duration_stimuli/000191_2014-05-12_17-07-38_260595134347_rgbf000199-resize_0/000191_2014-05-12_17-07-38_260595134347_rgbf000199-resize_0-target.png,1000,3.7995,2,4862,1004,meters,jsons/v1_VE1000_randls_4_rotated.json,762707,900803,1987,Woman
5,223311,DepthScenes,duration_manipulation_targetAtFixation,jsons/v1_VE1000_randls_4_rotated.json,http://54.235.29.9/FacialAge/BNav_EC2/DepthDuration/v2_depth_duration_MTurk/v2_DepthDuration_HTML.html#35,35,1366,768,1366,768,8-22-2022,7-59-50,6,depth_duration_stimuli/000493_2014-06-09_21-01-18_260595134347_rgbf000196-resize_3/000493_2014-06-09_21-01-18_260595134347_rgbf000196-resize_3-target.png,1000,3.44,3,4289,1013,meters,jsons/v1_VE1000_randls_4_rotated.json,762707,900803,1987,Woman
6,223311,DepthScenes,duration_manipulation_targetAtFixation,jsons/v1_VE1000_randls_4_rotated.json,http://54.235.29.9/FacialAge/BNav_EC2/DepthDuration/v2_depth_duration_MTurk/v2_DepthDuration_HTML.html#35,35,1366,768,1366,768,8-22-2022,7-59-50,7,depth_duration_stimuli/003048_2014-06-15_13-49-43_094959634447_rgbf000150-resize_1/003048_2014-06-15_13-49-43_094959634447_rgbf000150-resize_1-target.png,1000,4.0035,2,4122,1016,meters,jsons/v1_VE1000_randls_4_rotated.json,762707,900803,1987,Woman
7,223311,DepthScenes,duration_manipulation_targetAtFixation,jsons/v1_VE1000_randls_4_rotated.json,http://54.235.29.9/FacialAge/BNav_EC2/DepthDuration/v2_depth_duration_MTurk/v2_DepthDuration_HTML.html#35,35,1366,768,1366,768,8-22-2022,7-59-50,8,depth_duration_stimuli/002043_2014-06-24_20-29-38_260595134347_rgbf000039-resize_4/002043_2014-06-24_20-29-38_260595134347_rgbf000039-resize_4-target.png,1000,2.8435,1,4338,996,meters,jsons/v1_VE1000_randls_4_rotated.json,762707,900803,1987,Woman
8,223311,DepthScenes,duration_manipulation_targetAtFixation,jsons/v1_VE1000_randls_4_rotated.json,http://54.235.29.9/FacialAge/BNav_EC2/DepthDuration/v2_depth_duration_MTurk/v2_DepthDuration_HTML.html#35,35,1366,768,1366,768,8-22-2022,7-59-50,9,depth_duration_stimuli/002639_2014-06-24_14-51-37_094959634447_rgbf000074-resize_4/002639_2014-06-24_14-51-37_094959634447_rgbf000074-resize_4-target.png,1000,4.0375,2,4821,996,meters,jsons/v1_VE1000_randls_4_rotated.json,762707,900803,1987,Woman
9,223311,DepthScenes,duration_manipulation_targetAtFixation,jsons/v1_VE1000_randls_4_rotated.json,http://54.235.29.9/FacialAge/BNav_EC2/DepthDuration/v2_depth_duration_MTurk/v2_DepthDuration_HTML.html#35,35,1366,768,1366,768,8-22-2022,7-59-50,10,depth_duration_stimuli/003292_2014-05-14_21-53-49_094959634447_rgbf000100-resize_2/003292_2014-05-14_21-53-49_094959634447_rgbf000100-resize_2-target.png,1000,3.4815,2,4265,999,meters,jsons/v1_VE1000_randls_4_rotated.json,762707,900803,1987,Woman
10,223311,DepthScenes,duration_manipulation_targetAtFixation,jsons/v1_VE1000_randls_4_rotated.json,http://54.235.29.9/FacialAge/BNav_EC2/DepthDuration/v2_depth_duration_MTurk/v2_DepthDuration_HTML.html#35,35,1366,768,1366,768,8-22-2022,7-59-50,11,depth_duration_stimuli/000927_2014-06-09_16-32-30_260595134347_rgbf000123-resize_3/000927_2014-06-09_16-32-30_260595134347_rgbf000123-resize_3-target.png,1000,2.6785,2,5216,988,meters,jsons/v1_VE1000_randls_4_rotated.json,762707,900803,1987,Woman
11,223311,DepthScenes,duration_manipulation_targetAtFixation,jsons/v1_VE1000_randls_4_rotated.json,http://54.235.29.9/FacialAge/BNav_EC2/DepthDuration/v2_depth_duration_MTurk/v2_DepthDuration_HTML.html#35,35,1366,768,1366,768,8-22-2022,7-59-50,12,depth_duration_stimuli/001110_2014-06-15_17-25-28_260595134347_rgbf000150-resize_1/001110_2014-06-15_17-25-28_260595134347_rgbf000150-resize_1-target.png,1000,1.7115,2,17294,1003,meters,jsons/v1_VE1000_randls_4_rotated.json,762707,900803,1987,Woman
12,223311,DepthScenes,duration_manipulation_targetAtFixation,jsons/v1_VE1000_randls_4_rotated.json,http://54.235.29.9/FacialAge/BNav_EC2/DepthDuration/v2_depth_duration_MTurk/v2_DepthDuration_HTML.html#35,35,1366,768,1366,768,8-22-2022,7-59-50,13,depth_duration_stimuli/000742_2014-06-08_18-48-09_260595134347_rgbf000164-resize_4/000742_2014-06-08_18-48-09_260595134347_rgbf000164-resize_4-target.png,1000,4.632,1,7738,1001,meters,jsons/v1_VE1000_randls_4_rotated.json,762707,900803,1987,Woman
13,223311,DepthScenes,duration_manipulation_targetAtFixation,jsons/v1_VE1000_randls_4_rotated.json,http://54.235.29.9/FacialAge/BNav_EC2/DepthDuration/v2_depth_duration_MTurk/v2_DepthDuration_HTML.html#35,35,1366,768,1366,768,8-22-2022,7-59-50,14,depth_duration_stimuli/001066_2014-06-08_22-03-20_260595134347_rgbf000066-resize_4/001066_2014-06-08_22-03-20_260595134347_rgbf000066-resize_4-target.png,1000,4.2330000000000005,1,6033,999,meters,jsons/v1_VE1000_randls_4_rotated.json,762707,900803,1987,Woman
14,223311,DepthScenes,duration_manipulation_targetAtFixation,jsons/v1_VE1000_randls_4_rotated.json,http://54.235.29.9/FacialAge/BNav_EC2/DepthDuration/v2_depth_duration_MTurk/v2_DepthDuration_HTML.html#35,35,1366,768,1366,768,8-22-2022,7-59-50,15,depth_duration_stimuli/000103_2014-05-14_22-01-17_260595134347_rgbf000152-resize_5/000103_2014-05-14_22-01-17_260595134347_rgbf000152-resize_5-target.png,1000,1.993,2,5065,998,meters,jsons/v1_VE1000_randls_4_rotated.json,762707,900803,1987,Woman
15,223311,DepthScenes,duration_manipulation_targetAtFixation,jsons/v1_VE1000_randls_4_rotated.json,http://54.235.29.9/FacialAge/BNav_EC2/DepthDuration/v2_depth_duration_MTurk/v2_DepthDuration_HTML.html#35,35,1366,768,1366,768,8-22-2022,7-59-50,16,depth_duration_stimuli/001555_2014-06-20_17-12-10_260595134347_rgbf000065-resize_4/001555_2014-06-20_17-12-10_260595134347_rgbf000065-resize_4-target.png,1000,1.633,2,4356,1013,meters,jsons/v1_VE1000_randls_4_rotated.json,762707,900803,1987,Woman
16,223311,DepthScenes,duration_manipulation_targetAtFixation,jsons/v1_VE1000_randls_4_rotated.json,http://54.235.29.9/FacialAge/BNav_EC2/DepthDuration/v2_depth_duration_MTurk/v2_DepthDuration_HTML.html#35,35,1366,768,1366,768,8-22-2022,7-59-50,17,depth_duration_stimuli/002678_2014-06-13_16-15-32_094959634447_rgbf000151-resize_6/002678_2014-06-13_16-15-32_094959634447_rgbf000151-resize_6-target.png,1000,2.1830000000000003,1,4771,999,meters,jsons/v1_VE1000_randls_4_rotated.json,762707,900803,1987,Woman
17,223311,DepthScenes,duration_manipulation_targetAtFixation,jsons/v1_VE1000_randls_4_rotated.json,http://54.235.29.9/FacialAge/BNav_EC2/DepthDuration/v2_depth_duration_MTurk/v2_DepthDuration_HTML.html#35,35,1366,768,1366,768,8-22-2022,7-59-50,18,depth_duration_stimuli/000368_2014-06-09_15-53-01_260595134347_rgbf000155-resize_2/000368_2014-06-09_15-53-01_260595134347_rgbf000155-resize_2-target.png,1000,2.4859999999999998,2,4995,998,meters,jsons/v1_VE1000_randls_4_rotated.json,762707,900803,1987,Woman
18,223311,DepthScenes,duration_manipulation_targetAtFixation,jsons/v1_VE1000_randls_4_rotated.json,http://54.235.29.9/FacialAge/BNav_EC2/DepthDuration/v2_depth_duration_MTurk/v2_DepthDuration_HTML.html#35,35,1366,768,1366,768,8-22-2022,7-59-50,19,depth_duration_stimuli/001498_2014-06-19_17-45-14_260595134347_rgbf000129-resize_4/001498_2014-06-19_17-45-14_260595134347_rgbf000129-resize-original.jpg,1000,1.4075,2,4958,1007,meters,jsons/v1_VE1000_randls_4_rotated.json,762707,900803,1987,Woman
19,223311,DepthScenes,duration_manipulation_targetAtFixation,jsons/v1_VE1000_randls_4_rotated.json,http://54.235.29.9/FacialAge/BNav_EC2/DepthDuration/v2_depth_duration_MTurk/v2_DepthDuration_HTML.html#35,35,1366,768,1366,768,8-22-2022,7-59-50,20,depth_duration_stimuli/001032_2014-06-08_13-23-17_260595134347_rgbf000021-resize_3/001032_2014-06-08_13-23-17_260595134347_rgbf000021-resize_3-target.png,1000,3.2725,2,4358,995,meters,jsons/v1_VE1000_randls_4_rotated.json,762707,900803,1987,Woman
20,223311,DepthScenes,duration_manipulation_targetAtFixation,jsons/v1_VE1000_randls_4_rotated.json,http://54.235.29.9/FacialAge/BNav_EC2/DepthDuration/v2_depth_duration_MTurk/v2_DepthDuration_HTML.html#35,35,1366,768,1366,768,8-22-2022,7-59-50,21,depth_duration_stimuli/001059_2014-06-08_21-53-27_260595134347_rgbf000061-resize_4/001059_2014-06-08_21-53-27_260595134347_rgbf000061-resize_4-target.png,1000,2.4185,2,4706,1003,meters,jsons/v1_VE1000_randls_4_rotated.json,762707,900803,1987,Woman
21,223311,DepthScenes,duration_manipulation_targetAtFixation,jsons/v1_VE1000_randls_4_rotated.json,http://54.235.29.9/FacialAge/BNav_EC2/DepthDuration/v2_depth_duration_MTurk/v2_DepthDuration_HTML.html#35,35,1366,768,1366,768,8-22-2022,7-59-50,22,depth_duration_stimuli/003010_2014-06-15_12-54-35_094959634447_rgbf000112-resize_0/003010_2014-06-15_12-54-35_094959634447_rgbf000112-resize_0-target.png,1000,3.1185,1,4360,991,meters,jsons/v1_VE1000_randls_4_rotated.json,762707,900803,1987,Woman
22,223311,DepthScenes,duration_manipulation_targetAtFixation,jsons/v1_VE1000_randls_4_rotated.json,http://54.235.29.9/FacialAge/BNav_EC2/DepthDuration/v2_depth_duration_MTurk/v2_DepthDuration_HTML.html#35,35,1366,768,1366,768,8-22-2022,7-59-50,23,depth_duration_stimuli/001810_2014-06-26_20-51-35_260595134347_rgbf000040-resize_3/001810_2014-06-26_20-51-35_260595134347_rgbf000040-resize_3-target.png,1000,2.2525,3,4282,978,meters,jsons/v1_VE1000_randls_4_rotated.json,762707,900803,1987,Woman
23,223311,DepthScenes,duration_manipulation_targetAtFixation,jsons/v1_VE1000_randls_4_rotated.json,http://54.235.29.9/FacialAge/BNav_EC2/DepthDuration/v2_depth_duration_MTurk/v2_DepthDuration_HTML.html#35,35,1366,768,1366,768,8-22-2022,7-59-50,24,depth_duration_stimuli/001100_2014-06-15_17-46-26_260595134347_rgbf000225-resize_2/001100_2014-06-15_17-46-26_260595134347_rgbf000225-resize_2-target.png,1000,2.24,2,4629,973,meters,jsons/v1_VE1000_randls_4_rotated.json,762707,900803,1987,Woman
24,223311,DepthScenes,duration_manipulation_targetAtFixation,jsons/v1_VE1000_randls_4_rotated.json,http://54.235.29.9/FacialAge/BNav_EC2/DepthDuration/v2_depth_duration_MTurk/v2_DepthDuration_HTML.html#35,35,1366,768,1366,768,8-22-2022,7-59-50,25,depth_duration_stimuli/002784_2014-06-22_19-26-30_094959634447_rgbf000083-resize_3/002784_2014-06-22_19-26-30_094959634447_rgbf000083-resize_3-target.png,1000,1.8046666666667,2,4364,1118,meters,jsons/v1_VE1000_randls_4_rotated.json,762707,900803,1987,Woman
25,223311,DepthScenes,duration_manipulation_targetAtFixation,jsons/v1_VE1000_randls_4_rotated.json,http://54.235.29.9/FacialAge/BNav_EC2/DepthDuration/v2_depth_duration_MTurk/v2_DepthDuration_HTML.html#35,35,1366,768,1366,768,8-22-2022,7-59-50,26,depth_duration_stimuli/002660_2014-06-13_15-44-18_094959634447_rgbf001878-resize_2/002660_2014-06-13_15-44-18_094959634447_rgbf001878-resize_2-target.png,1000,3.576,2,4070,999,meters,jsons/v1_VE1000_randls_4_rotated.json,762707,900803,1987,Woman
26,223311,DepthScenes,duration_manipulation_targetAtFixation,jsons/v1_VE1000_randls_4_rotated.json,http://54.235.29.9/FacialAge/BNav_EC2/DepthDuration/v2_depth_duration_MTurk/v2_DepthDuration_HTML.html#35,35,1366,768,1366,768,8-22-2022,7-59-50,27,depth_duration_stimuli/002153_2014-06-25_21-27-18_260595134347_rgbf000038-resize_5/002153_2014-06-25_21-27-18_260595134347_rgbf000038-resize_5-target.png,1000,2.505,2,4317,1040,meters,jsons/v1_VE1000_randls_4_rotated.json,762707,900803,1987,Woman
27,223311,DepthScenes,duration_manipulation_targetAtFixation,jsons/v1_VE1000_randls_4_rotated.json,http://54.235.29.9/FacialAge/BNav_EC2/DepthDuration/v2_depth_duration_MTurk/v2_DepthDuration_HTML.html#35,35,1366,768,1366,768,8-22-2022,7-59-50,28,depth_duration_stimuli/002568_2014-06-24_13-59-21_094959634447_rgbf000062-resize_4/002568_2014-06-24_13-59-21_094959634447_rgbf000062-resize_4-target.png,1000,3.015,2,4288,1010,meters,jsons/v1_VE1000_randls_4_rotated.json,762707,900803,1987,Woman
28,223311,DepthScenes,duration_manipulation_targetAtFixation,jsons/v1_VE1000_randls_4_rotated.json,http://54.235.29.9/FacialAge/BNav_EC2/DepthDuration/v2_depth_duration_MTurk/v2_DepthDuration_HTML.html#35,35,1366,768,1366,768,8-22-2022,7-59-50,29,depth_duration_stimuli/003492_2014-05-21_15-50-55_094959634447_rgbf000828-resize_1/003492_2014-05-21_15-50-55_094959634447_rgbf000828-resize_1-target.png,1000,4.06875,2,4213,1064,meters,jsons/v1_VE1000_randls_4_rotated.json,762707,900803,1987,Woman
29,223311,DepthScenes,duration_manipulation_targetAtFixation,jsons/v1_VE1000_randls_4_rotated.json,http://54.235.29.9/FacialAge/BNav_EC2/DepthDuration/v2_depth_duration_MTurk/v2_DepthDuration_HTML.html#35,35,1366,768,1366,768,8-22-2022,7-59-50,30,depth_duration_stimuli/002072_2014-06-24_21-48-06_260595134347_rgbf000115-resize_0/002072_2014-06-24_21-48-06_260595134347_rgbf000115-resize-original.jpg,1000,4.702,2,4429,1008,meters,jsons/v1_VE1000_randls_4_rotated.json,762707,900803,1987,Woman
30,223311,DepthScenes,duration_manipulation_targetAtFixation,jsons/v1_VE1000_randls_4_rotated.json,http://54.235.29.9/FacialAge/BNav_EC2/DepthDuration/v2_depth_duration_MTurk/v2_DepthDuration_HTML.html#35,35,1366,768,1366,768,8-22-2022,7-59-50,31,depth_duration_stimuli/002949_2014-06-26_15-57-42_094959634447_rgbf000079-resize_1/002949_2014-06-26_15-57-42_094959634447_rgbf000079-resize_1-target.png,1000,1.8915,1,5159,992,meters,jsons/v1_VE1000_randls_4_rotated.json,762707,900803,1987,Woman
31,223311,DepthScenes,duration_manipulation_targetAtFixation,jsons/v1_VE1000_randls_4_rotated.json,http://54.235.29.9/FacialAge/BNav_EC2/DepthDuration/v2_depth_duration_MTurk/v2_DepthDuration_HTML.html#35,35,1366,768,1366,768,8-22-2022,7-59-50,32,depth_duration_stimuli/000522_2014-06-08_13-35-06_260595134347_rgbf000244-resize_1/000522_2014-06-08_13-35-06_260595134347_rgbf000244-resize_1-target.png,1000,2.3715,1,4803,998,meters,jsons/v1_VE1000_randls_4_rotated.json,762707,900803,1987,Woman
32,223311,DepthScenes,duration_manipulation_targetAtFixation,jsons/v1_VE1000_randls_4_rotated.json,http://54.235.29.9/FacialAge/BNav_EC2/DepthDuration/v2_depth_duration_MTurk/v2_DepthDuration_HTML.html#35,35,1366,768,1366,768,8-22-2022,7-59-50,33,depth_duration_stimuli/002103_2014-06-25_20-00-40_260595134347_rgbf000049-resize_0/002103_2014-06-25_20-00-40_260595134347_rgbf000049-resize_0-target.png,1000,4.105,2,4578,992,meters,jsons/v1_VE1000_randls_4_rotated.json,762707,900803,1987,Woman
33,223311,DepthScenes,duration_manipulation_targetAtFixation,jsons/v1_VE1000_randls_4_rotated.json,http://54.235.29.9/FacialAge/BNav_EC2/DepthDuration/v2_depth_duration_MTurk/v2_DepthDuration_HTML.html#35,35,1366,768,1366,768,8-22-2022,7-59-50,34,depth_duration_stimuli/002039_2014-06-24_20-22-38_260595134347_rgbf000084-resize_1/002039_2014-06-24_20-22-38_260595134347_rgbf000084-resize_1-target.png,1000,4.408,2,4145,1009,meters,jsons/v1_VE1000_randls_4_rotated.json,762707,900803,1987,Woman
34,223311,DepthScenes,duration_manipulation_targetAtFixation,jsons/v1_VE1000_randls_4_rotated.json,http://54.235.29.9/FacialAge/BNav_EC2/DepthDuration/v2_depth_duration_MTurk/v2_DepthDuration_HTML.html#35,35,1366,768,1366,768,8-22-2022,7-59-50,35,depth_duration_stimuli/002467_2014-06-28_20-38-07_260595134347_rgbf000026-resize_2/002467_2014-06-28_20-38-07_260595134347_rgbf000026-resize_2-target.png,1000,4.742,1,4329,999,meters,jsons/v1_VE1000_randls_4_rotated.json,762707,900803,1987,Woman
35,223311,DepthScenes,duration_manipulation_targetAtFixation,jsons/v1_VE1000_randls_4_rotated.json,http://54.235.29.9/FacialAge/BNav_EC2/DepthDuration/v2_depth_duration_MTurk/v2_DepthDuration_HTML.html#35,35,1366,768,1366,768,8-22-2022,7-59-50,36,depth_duration_stimuli/002570_2014-06-24_13-59-54_094959634447_rgbf000059-resize_0/002570_2014-06-24_13-59-54_094959634447_rgbf000059-resize_0-target.png,1000,4.037,2,4195,1001,meters,jsons/v1_VE1000_randls_4_rotated.json,762707,900803,1987,Woman
36,223311,DepthScenes,duration_manipulation_targetAtFixation,jsons/v1_VE1000_randls_4_rotated.json,http://54.235.29.9/FacialAge/BNav_EC2/DepthDuration/v2_depth_duration_MTurk/v2_DepthDuration_HTML.html#35,35,1366,768,1366,768,8-22-2022,7-59-50,37,depth_duration_stimuli/000109_2014-05-14_23-41-52_260595134347_rgbf000035-resize_9/000109_2014-05-14_23-41-52_260595134347_rgbf000035-resize_9-target.png,1000,1.3545,1,4734,1000,meters,jsons/v1_VE1000_randls_4_rotated.json,762707,900803,1987,Woman
37,223311,DepthScenes,duration_manipulation_targetAtFixation,jsons/v1_VE1000_randls_4_rotated.json,http://54.235.29.9/FacialAge/BNav_EC2/DepthDuration/v2_depth_duration_MTurk/v2_DepthDuration_HTML.html#35,35,1366,768,1366,768,8-22-2022,7-59-50,38,depth_duration_stimuli/000470_2014-06-09_19-42-40_260595134347_rgbf000094-resize_1/000470_2014-06-09_19-42-40_260595134347_rgbf000094-resize_1-target.png,1000,1.831,2,6073,1009,meters,jsons/v1_VE1000_randls_4_rotated.json,762707,900803,1987,Woman
38,223311,DepthScenes,duration_manipulation_targetAtFixation,jsons/v1_VE1000_randls_4_rotated.json,http://54.235.29.9/FacialAge/BNav_EC2/DepthDuration/v2_depth_duration_MTurk/v2_DepthDuration_HTML.html#35,35,1366,768,1366,768,8-22-2022,7-59-50,39,depth_duration_stimuli/000749_2014-06-08_21-55-06_260595134347_rgbf000070-resize_2/000749_2014-06-08_21-55-06_260595134347_rgbf000070-resize_2-target.png,1000,2.331,3,4772,1000,meters,jsons/v1_VE1000_randls_4_rotated.json,762707,900803,1987,Woman
39,223311,DepthScenes,duration_manipulation_targetAtFixation,jsons/v1_VE1000_randls_4_rotated.json,http://54.235.29.9/FacialAge/BNav_EC2/DepthDuration/v2_depth_duration_MTurk/v2_DepthDuration_HTML.html#35,35,1366,768,1366,768,8-22-2022,7-59-50,40,depth_duration_stimuli/002788_2014-06-22_19-36-03_094959634447_rgbf000088-resize_2/002788_2014-06-22_19-36-03_094959634447_rgbf000088-resize_2-target.png,1000,1.6465,2,4995,995,meters,jsons/v1_VE1000_randls_4_rotated.json,762707,900803,1987,Woman
40,223311,DepthScenes,duration_manipulation_targetAtFixation,jsons/v1_VE1000_randls_4_rotated.json,http://54.235.29.9/FacialAge/BNav_EC2/DepthDuration/v2_depth_duration_MTurk/v2_DepthDuration_HTML.html#35,35,1366,768,1366,768,8-22-2022,7-59-50,41,depth_duration_stimuli/002414_2014-06-28_20-24-58_260595134347_rgbf000067-resize_4/002414_2014-06-28_20-24-58_260595134347_rgbf000067-resize_4-target.png,1000,4.363,1,4267,1002,meters,jsons/v1_VE1000_randls_4_rotated.json,762707,900803,1987,Woman
41,223311,DepthScenes,duration_manipulation_targetAtFixation,jsons/v1_VE1000_randls_4_rotated.json,http://54.235.29.9/FacialAge/BNav_EC2/DepthDuration/v2_depth_duration_MTurk/v2_DepthDuration_HTML.html#35,35,1366,768,1366,768,8-22-2022,7-59-50,42,depth_duration_stimuli/000773_2014-06-08_22-24-54_260595134347_rgbf000093-resize_1/000773_2014-06-08_22-24-54_260595134347_rgbf000093-resize_1-target.png,1000,4.973,2,4028,993,meters,jsons/v1_VE1000_randls_4_rotated.json,762707,900803,1987,Woman
42,223311,DepthScenes,duration_manipulation_targetAtFixation,jsons/v1_VE1000_randls_4_rotated.json,http://54.235.29.9/FacialAge/BNav_EC2/DepthDuration/v2_depth_duration_MTurk/v2_DepthDuration_HTML.html#35,35,1366,768,1366,768,8-22-2022,7-59-50,43,depth_duration_stimuli/000457_2014-06-08_16-52-43_260595134347_rgbf000199-resize_1/000457_2014-06-08_16-52-43_260595134347_rgbf000199-resize_1-target.png,1000,3.6489999999999996,3,4488,999,meters,jsons/v1_VE1000_randls_4_rotated.json,762707,900803,1987,Woman
43,223311,DepthScenes,duration_manipulation_targetAtFixation,jsons/v1_VE1000_randls_4_rotated.json,http://54.235.29.9/FacialAge/BNav_EC2/DepthDuration/v2_depth_duration_MTurk/v2_DepthDuration_HTML.html#35,35,1366,768,1366,768,8-22-2022,7-59-50,44,depth_duration_stimuli/000929_2014-06-09_16-33-19_260595134347_rgbf000139-resize_0/000929_2014-06-09_16-33-19_260595134347_rgbf000139-resize_0-target.png,1000,2.8680000000000003,2,4543,1004,meters,jsons/v1_VE1000_randls_4_rotated.json,762707,900803,1987,Woman
44,223311,DepthScenes,duration_manipulation_targetAtFixation,jsons/v1_VE1000_randls_4_rotated.json,http://54.235.29.9/FacialAge/BNav_EC2/DepthDuration/v2_depth_duration_MTurk/v2_DepthDuration_HTML.html#35,35,1366,768,1366,768,8-22-2022,7-59-50,45,depth_duration_stimuli/001214_2014-06-17_16-13-55_260595134347_rgbf000111-resize_0/001214_2014-06-17_16-13-55_260595134347_rgbf000111-resize_0-target.png,1000,2.6505,1,4419,999,meters,jsons/v1_VE1000_randls_4_rotated.json,762707,900803,1987,Woman
45,223311,DepthScenes,duration_manipulation_targetAtFixation,jsons/v1_VE1000_randls_4_rotated.json,http://54.235.29.9/FacialAge/BNav_EC2/DepthDuration/v2_depth_duration_MTurk/v2_DepthDuration_HTML.html#35,35,1366,768,1366,768,8-22-2022,7-59-50,46,depth_duration_stimuli/000810_2014-06-08_17-20-01_260595134347_rgbf000105-resize_0/000810_2014-06-08_17-20-01_260595134347_rgbf000105-resize_0-target.png,1000,1.4865,2,4188,1013,meters,jsons/v1_VE1000_randls_4_rotated.json,762707,900803,1987,Woman
46,223311,DepthScenes,duration_manipulation_targetAtFixation,jsons/v1_VE1000_randls_4_rotated.json,http://54.235.29.9/FacialAge/BNav_EC2/DepthDuration/v2_depth_duration_MTurk/v2_DepthDuration_HTML.html#35,35,1366,768,1366,768,8-22-2022,7-59-50,47,depth_duration_stimuli/001052_2014-06-08_18-24-54_260595134347_rgbf000130-resize_1/001052_2014-06-08_18-24-54_260595134347_rgbf000130-resize_1-target.png,1000,4.1045,2,5306,1120,meters,jsons/v1_VE1000_randls_4_rotated.json,762707,900803,1987,Woman
47,223311,DepthScenes,duration_manipulation_targetAtFixation,jsons/v1_VE1000_randls_4_rotated.json,http://54.235.29.9/FacialAge/BNav_EC2/DepthDuration/v2_depth_duration_MTurk/v2_DepthDuration_HTML.html#35,35,1366,768,1366,768,8-22-2022,7-59-50,48,depth_duration_stimuli/002988_2014-06-15_12-24-20_094959634447_rgbf000150-resize_1/002988_2014-06-15_12-24-20_094959634447_rgbf000150-resize_1-target.png,1000,4.7669999999999995,2,4230,1002,meters,jsons/v1_VE1000_randls_4_rotated.json,762707,900803,1987,Woman
48,223311,DepthScenes,duration_manipulation_targetAtFixation,jsons/v1_VE1000_randls_4_rotated.json,http://54.235.29.9/FacialAge/BNav_EC2/DepthDuration/v2_depth_duration_MTurk/v2_DepthDuration_HTML.html#35,35,1366,768,1366,768,8-22-2022,7-59-50,49,depth_duration_stimuli/001170_2014-06-17_15-43-44_260595134347_rgbf000096-resize_6/001170_2014-06-17_15-43-44_260595134347_rgbf000096-resize-original.jpg,1000,1.1909999999999998,2,4236,996,meters,jsons/v1_VE1000_randls_4_rotated.json,762707,900803,1987,Woman
49,223311,DepthScenes,duration_manipulation_targetAtFixation,jsons/v1_VE1000_randls_4_rotated.json,http://54.235.29.9/FacialAge/BNav_EC2/DepthDuration/v2_depth_duration_MTurk/v2_DepthDuration_HTML.html#35,35,1366,768,1366,768,8-22-2022,7-59-50,50,depth_duration_stimuli/002323_2014-06-28_20-01-54_260595134347_rgbf000051-resize_4/002323_2014-06-28_20-01-54_260595134347_rgbf000051-resize_4-target.png,1000,3.7310000000000003,3,5603,988,meters,jsons/v1_VE1000_randls_4_rotated.json,762707,900803,1987,Woman
50,223311,DepthScenes,duration_manipulation_targetAtFixation,jsons/v1_VE1000_randls_4_rotated.json,http://54.235.29.9/FacialAge/BNav_EC2/DepthDuration/v2_depth_duration_MTurk/v2_DepthDuration_HTML.html#35,35,1366,768,1366,768,8-22-2022,7-59-50,51,depth_duration_stimuli/000917_2014-06-09_22-45-29_260595134347_rgbf000149-resize_3/000917_2014-06-09_22-45-29_260595134347_rgbf000149-resize_3-target.png,1000,4.1865,1,4725,999,meters,jsons/v1_VE1000_randls_4_rotated.json,762707,900803,1987,Woman
51,223311,DepthScenes,duration_manipulation_targetAtFixation,jsons/v1_VE1000_randls_4_rotated.json,http://54.235.29.9/FacialAge/BNav_EC2/DepthDuration/v2_depth_duration_MTurk/v2_DepthDuration_HTML.html#35,35,1366,768,1366,768,8-22-2022,7-59-50,52,depth_duration_stimuli/003587_2014-05-23_16-48-02_094959634447_rgbf002384-resize_2/003587_2014-05-23_16-48-02_094959634447_rgbf002384-resize_2-target.png,1000,1.357,2,3656,927,meters,jsons/v1_VE1000_randls_4_rotated.json,762707,900803,1987,Woman
52,223311,DepthScenes,duration_manipulation_targetAtFixation,jsons/v1_VE1000_randls_4_rotated.json,http://54.235.29.9/FacialAge/BNav_EC2/DepthDuration/v2_depth_duration_MTurk/v2_DepthDuration_HTML.html#35,35,1366,768,1366,768,8-22-2022,7-59-50,53,depth_duration_stimuli/001167_2014-06-17_15-38-07_260595134347_rgbf000108-resize_0/001167_2014-06-17_15-38-07_260595134347_rgbf000108-resize_0-target.png,1000,1.8505,3,5542,1001,meters,jsons/v1_VE1000_randls_4_rotated.json,762707,900803,1987,Woman
53,223311,DepthScenes,duration_manipulation_targetAtFixation,jsons/v1_VE1000_randls_4_rotated.json,http://54.235.29.9/FacialAge/BNav_EC2/DepthDuration/v2_depth_duration_MTurk/v2_DepthDuration_HTML.html#35,35,1366,768,1366,768,8-22-2022,7-59-50,54,depth_duration_stimuli/003490_2014-05-21_15-50-11_094959634447_rgbf000101-resize_3/003490_2014-05-21_15-50-11_094959634447_rgbf000101-resize_3-target.png,1000,3.6445,2,3979,1003,meters,jsons/v1_VE1000_randls_4_rotated.json,762707,900803,1987,Woman
54,223311,DepthScenes,duration_manipulation_targetAtFixation,jsons/v1_VE1000_randls_4_rotated.json,http://54.235.29.9/FacialAge/BNav_EC2/DepthDuration/v2_depth_duration_MTurk/v2_DepthDuration_HTML.html#35,35,1366,768,1366,768,8-22-2022,7-59-50,55,depth_duration_stimuli/001175_2014-06-17_15-45-55_260595134347_rgbf000129-resize_4/001175_2014-06-17_15-45-55_260595134347_rgbf000129-resize_4-target.png,1000,4.255,2,4335,993,meters,jsons/v1_VE1000_randls_4_rotated.json,762707,900803,1987,Woman
55,223311,DepthScenes,duration_manipulation_targetAtFixation,jsons/v1_VE1000_randls_4_rotated.json,http://54.235.29.9/FacialAge/BNav_EC2/DepthDuration/v2_depth_duration_MTurk/v2_DepthDuration_HTML.html#35,35,1366,768,1366,768,8-22-2022,7-59-50,56,depth_duration_stimuli/001617_2014-06-20_11-35-32_260595134347_rgbf000066-resize_1/001617_2014-06-20_11-35-32_260595134347_rgbf000066-resize_1-target.png,1000,3.7910000000000004,3,4367,993,meters,jsons/v1_VE1000_randls_4_rotated.json,762707,900803,1987,Woman
56,223311,DepthScenes,duration_manipulation_targetAtFixation,jsons/v1_VE1000_randls_4_rotated.json,http://54.235.29.9/FacialAge/BNav_EC2/DepthDuration/v2_depth_duration_MTurk/v2_DepthDuration_HTML.html#35,35,1366,768,1366,768,8-22-2022,7-59-50,57,depth_duration_stimuli/001806_2014-06-26_20-50-20_260595134347_rgbf000091-resize_1/001806_2014-06-26_20-50-20_260595134347_rgbf000091-resize_1-target.png,1000,2.7305,2,3724,1001,meters,jsons/v1_VE1000_randls_4_rotated.json,762707,900803,1987,Woman
57,223311,DepthScenes,duration_manipulation_targetAtFixation,jsons/v1_VE1000_randls_4_rotated.json,http://54.235.29.9/FacialAge/BNav_EC2/DepthDuration/v2_depth_duration_MTurk/v2_DepthDuration_HTML.html#35,35,1366,768,1366,768,8-22-2022,7-59-50,58,depth_duration_stimuli/002545_2014-06-24_13-38-53_094959634447_rgbf000080-resize_4/002545_2014-06-24_13-38-53_094959634447_rgbf000080-resize_4-target.png,1000,1.9205,2,4392,1000,meters,jsons/v1_VE1000_randls_4_rotated.json,762707,900803,1987,Woman
58,223311,DepthScenes,duration_manipulation_targetAtFixation,jsons/v1_VE1000_randls_4_rotated.json,http://54.235.29.9/FacialAge/BNav_EC2/DepthDuration/v2_depth_duration_MTurk/v2_DepthDuration_HTML.html#35,35,1366,768,1366,768,8-22-2022,7-59-50,59,depth_duration_stimuli/001092_2014-06-15_17-34-58_260595134347_rgbf000171-resize_3/001092_2014-06-15_17-34-58_260595134347_rgbf000171-resize_3-target.png,1000,2.6935,2,3649,995,meters,jsons/v1_VE1000_randls_4_rotated.json,762707,900803,1987,Woman
59,223311,DepthScenes,duration_manipulation_targetAtFixation,jsons/v1_VE1000_randls_4_rotated.json,http://54.235.29.9/FacialAge/BNav_EC2/DepthDuration/v2_depth_duration_MTurk/v2_DepthDuration_HTML.html#35,35,1366,768,1366,768,8-22-2022,7-59-50,60,depth_duration_stimuli/001815_2014-06-26_20-52-55_260595134347_rgbf000020-resize_0/001815_2014-06-26_20-52-55_260595134347_rgbf000020-resize_0-target.png,1000,3.3865,2,4588,998,meters,jsons/v1_VE1000_randls_4_rotated.json,762707,900803,1987,Woman
60,223311,DepthScenes,duration_manipulation_targetAtFixation,jsons/v1_VE1000_randls_4_rotated.json,http://54.235.29.9/FacialAge/BNav_EC2/DepthDuration/v2_depth_duration_MTurk/v2_DepthDuration_HTML.html#35,35,1366,768,1366,768,8-22-2022,7-59-50,61,depth_duration_stimuli/001808_2014-06-26_20-50-58_260595134347_rgbf000029-resize_1/001808_2014-06-26_20-50-58_260595134347_rgbf000029-resize_1-target.png,1000,4.249,2,4415,996,meters,jsons/v1_VE1000_randls_4_rotated.json,762707,900803,1987,Woman
61,223311,DepthScenes,duration_manipulation_targetAtFixation,jsons/v1_VE1000_randls_4_rotated.json,http://54.235.29.9/FacialAge/BNav_EC2/DepthDuration/v2_depth_duration_MTurk/v2_DepthDuration_HTML.html#35,35,1366,768,1366,768,8-22-2022,7-59-50,62,depth_duration_stimuli/000549_2014-06-08_22-10-24_260595134347_rgbf000247-resize_3/000549_2014-06-08_22-10-24_260595134347_rgbf000247-resize_3-target.png,1000,1.841,2,3762,999,meters,jsons/v1_VE1000_randls_4_rotated.json,762707,900803,1987,Woman
62,223311,DepthScenes,duration_manipulation_targetAtFixation,jsons/v1_VE1000_randls_4_rotated.json,http://54.235.29.9/FacialAge/BNav_EC2/DepthDuration/v2_depth_duration_MTurk/v2_DepthDuration_HTML.html#35,35,1366,768,1366,768,8-22-2022,7-59-50,63,depth_duration_stimuli/001055_2014-06-08_18-45-35_260595134347_rgbf000111-resize_4/001055_2014-06-08_18-45-35_260595134347_rgbf000111-resize_4-target.png,1000,2.4290000000000003,2,3492,954,meters,jsons/v1_VE1000_randls_4_rotated.json,762707,900803,1987,Woman
63,223311,DepthScenes,duration_manipulation_targetAtFixation,jsons/v1_VE1000_randls_4_rotated.json,http://54.235.29.9/FacialAge/BNav_EC2/DepthDuration/v2_depth_duration_MTurk/v2_DepthDuration_HTML.html#35,35,1366,768,1366,768,8-22-2022,7-59-50,64,depth_duration_stimuli/000677_2014-06-08_23-10-32_260595134347_rgbf000158-resize_6/000677_2014-06-08_23-10-32_260595134347_rgbf000158-resize_6-target.png,1000,3.556,2,3789,1000,meters,jsons/v1_VE1000_randls_4_rotated.json,762707,900803,1987,Woman
64,223311,DepthScenes,duration_manipulation_targetAtFixation,jsons/v1_VE1000_randls_4_rotated.json,http://54.235.29.9/FacialAge/BNav_EC2/DepthDuration/v2_depth_duration_MTurk/v2_DepthDuration_HTML.html#35,35,1366,768,1366,768,8-22-2022,7-59-50,65,depth_duration_stimuli/001029_2014-06-08_13-17-57_260595134347_rgbf000065-resize_1/001029_2014-06-08_13-17-57_260595134347_rgbf000065-resize_1-target.png,1000,3.0835,2,3149,998,meters,jsons/v1_VE1000_randls_4_rotated.json,762707,900803,1987,Woman
65,223311,DepthScenes,duration_manipulation_targetAtFixation,jsons/v1_VE1000_randls_4_rotated.json,http://54.235.29.9/FacialAge/BNav_EC2/DepthDuration/v2_depth_duration_MTurk/v2_DepthDuration_HTML.html#35,35,1366,768,1366,768,8-22-2022,7-59-50,66,depth_duration_stimuli/001540_2014-06-20_17-01-05_260595134347_rgbf000086-resize_2/001540_2014-06-20_17-01-05_260595134347_rgbf000086-resize-original.jpg,1000,1.459,2,4161,985,meters,jsons/v1_VE1000_randls_4_rotated.json,762707,900803,1987,Woman
66,223311,DepthScenes,duration_manipulation_targetAtFixation,jsons/v1_VE1000_randls_4_rotated.json,http://54.235.29.9/FacialAge/BNav_EC2/DepthDuration/v2_depth_duration_MTurk/v2_DepthDuration_HTML.html#35,35,1366,768,1366,768,8-22-2022,7-59-50,67,depth_duration_stimuli/000409_2014-06-04_19-23-33_260595134347_rgbf000067-resize_0/000409_2014-06-04_19-23-33_260595134347_rgbf000067-resize_0-target.png,1000,3.7335,2,3166,997,meters,jsons/v1_VE1000_randls_4_rotated.json,762707,900803,1987,Woman
67,223311,DepthScenes,duration_manipulation_targetAtFixation,jsons/v1_VE1000_randls_4_rotated.json,http://54.235.29.9/FacialAge/BNav_EC2/DepthDuration/v2_depth_duration_MTurk/v2_DepthDuration_HTML.html#35,35,1366,768,1366,768,8-22-2022,7-59-50,68,depth_duration_stimuli/002663_2014-06-13_15-50-26_094959634447_rgbf000075-resize_1/002663_2014-06-13_15-50-26_094959634447_rgbf000075-resize_1-target.png,1000,4.7495,2,3492,1032,meters,jsons/v1_VE1000_randls_4_rotated.json,762707,900803,1987,Woman
68,223311,DepthScenes,duration_manipulation_targetAtFixation,jsons/v1_VE1000_randls_4_rotated.json,http://54.235.29.9/FacialAge/BNav_EC2/DepthDuration/v2_depth_duration_MTurk/v2_DepthDuration_HTML.html#35,35,1366,768,1366,768,8-22-2022,7-59-50,69,depth_duration_stimuli/003081_2014-06-15_15-19-16_094959634447_rgbf000150-resize_1/003081_2014-06-15_15-19-16_094959634447_rgbf000150-resize_1-target.png,1000,3.9125,3,3679,971,meters,jsons/v1_VE1000_randls_4_rotated.json,762707,900803,1987,Woman
69,223311,DepthScenes,duration_manipulation_targetAtFixation,jsons/v1_VE1000_randls_4_rotated.json,http://54.235.29.9/FacialAge/BNav_EC2/DepthDuration/v2_depth_duration_MTurk/v2_DepthDuration_HTML.html#35,35,1366,768,1366,768,8-22-2022,7-59-50,70,depth_duration_stimuli/001417_2014-06-19_16-25-36_260595134347_rgbf000115-resize_5/001417_2014-06-19_16-25-36_260595134347_rgbf000115-resize_5-target.png,1000,4.6255,3,6206,1000,meters,jsons/v1_VE1000_randls_4_rotated.json,762707,900803,1987,Woman
70,223311,DepthScenes,duration_manipulation_targetAtFixation,jsons/v1_VE1000_randls_4_rotated.json,http://54.235.29.9/FacialAge/BNav_EC2/DepthDuration/v2_depth_duration_MTurk/v2_DepthDuration_HTML.html#35,35,1366,768,1366,768,8-22-2022,7-59-50,71,depth_duration_stimuli/002425_2014-06-28_20-27-29_260595134347_rgbf000031-resize_8/002425_2014-06-28_20-27-29_260595134347_rgbf000031-resize_8-target.png,1000,3.8960000000000004,2,3813,1031,meters,jsons/v1_VE1000_randls_4_rotated.json,762707,900803,1987,Woman
71,223311,DepthScenes,duration_manipulation_targetAtFixation,jsons/v1_VE1000_randls_4_rotated.json,http://54.235.29.9/FacialAge/BNav_EC2/DepthDuration/v2_depth_duration_MTurk/v2_DepthDuration_HTML.html#35,35,1366,768,1366,768,8-22-2022,7-59-50,72,depth_duration_stimuli/000642_2014-06-08_16-59-25_260595134347_rgbf000098-resize_2/000642_2014-06-08_16-59-25_260595134347_rgbf000098-resize_2-target.png,1000,2.8815,2,3242,1033,meters,jsons/v1_VE1000_randls_4_rotated.json,762707,900803,1987,Woman
72,223311,DepthScenes,duration_manipulation_targetAtFixation,jsons/v1_VE1000_randls_4_rotated.json,http://54.235.29.9/FacialAge/BNav_EC2/DepthDuration/v2_depth_duration_MTurk/v2_DepthDuration_HTML.html#35,35,1366,768,1366,768,8-22-2022,7-59-50,73,depth_duration_stimuli/000502_2014-06-08_23-02-32_260595134347_rgbf000063-resize_4/000502_2014-06-08_23-02-32_260595134347_rgbf000063-resize_4-target.png,1000,2.431,3,6863,1002,meters,jsons/v1_VE1000_randls_4_rotated.json,762707,900803,1987,Woman
73,223311,DepthScenes,duration_manipulation_targetAtFixation,jsons/v1_VE1000_randls_4_rotated.json,http://54.235.29.9/FacialAge/BNav_EC2/DepthDuration/v2_depth_duration_MTurk/v2_DepthDuration_HTML.html#35,35,1366,768,1366,768,8-22-2022,7-59-50,74,depth_duration_stimuli/001199_2014-06-17_16-03-48_260595134347_rgbf000077-resize_0/001199_2014-06-17_16-03-48_260595134347_rgbf000077-resize_0-target.png,1000,3.4375,2,4787,1002,meters,jsons/v1_VE1000_randls_4_rotated.json,762707,900803,1987,Woman
74,223311,DepthScenes,duration_manipulation_targetAtFixation,jsons/v1_VE1000_randls_4_rotated.json,http://54.235.29.9/FacialAge/BNav_EC2/DepthDuration/v2_depth_duration_MTurk/v2_DepthDuration_HTML.html#35,35,1366,768,1366,768,8-22-2022,7-59-50,75,depth_duration_stimuli/000780_2014-06-08_22-28-29_260595134347_rgbf000126-resize_1/000780_2014-06-08_22-28-29_260595134347_rgbf000126-resize_1-target.png,1000,3.3825,1,3495,997,meters,jsons/v1_VE1000_randls_4_rotated.json,762707,900803,1987,Woman
75,223311,DepthScenes,duration_manipulation_targetAtFixation,jsons/v1_VE1000_randls_4_rotated.json,http://54.235.29.9/FacialAge/BNav_EC2/DepthDuration/v2_depth_duration_MTurk/v2_DepthDuration_HTML.html#35,35,1366,768,1366,768,8-22-2022,7-59-50,76,depth_duration_stimuli/002445_2014-06-28_20-32-16_260595134347_rgbf000029-resize_4/002445_2014-06-28_20-32-16_260595134347_rgbf000029-resize_4-target.png,1000,2.5315,2,4441,1010,meters,jsons/v1_VE1000_randls_4_rotated.json,762707,900803,1987,Woman
76,223311,DepthScenes,duration_manipulation_targetAtFixation,jsons/v1_VE1000_randls_4_rotated.json,http://54.235.29.9/FacialAge/BNav_EC2/DepthDuration/v2_depth_duration_MTurk/v2_DepthDuration_HTML.html#35,35,1366,768,1366,768,8-22-2022,7-59-50,77,depth_duration_stimuli/002805_2014-06-22_19-54-03_094959634447_rgbf000079-resize_1/002805_2014-06-22_19-54-03_094959634447_rgbf000079-resize_1-target.png,1000,3.1439999999999997,3,6964,998,meters,jsons/v1_VE1000_randls_4_rotated.json,762707,900803,1987,Woman
77,223311,DepthScenes,duration_manipulation_targetAtFixation,jsons/v1_VE1000_randls_4_rotated.json,http://54.235.29.9/FacialAge/BNav_EC2/DepthDuration/v2_depth_duration_MTurk/v2_DepthDuration_HTML.html#35,35,1366,768,1366,768,8-22-2022,7-59-50,78,depth_duration_stimuli/000906_2014-06-08_13-35-43_260595134347_rgbf000155-resize_1/000906_2014-06-08_13-35-43_260595134347_rgbf000155-resize_1-target.png,1000,2.8489999999999998,2,3870,1030,meters,jsons/v1_VE1000_randls_4_rotated.json,762707,900803,1987,Woman
78,223311,DepthScenes,duration_manipulation_targetAtFixation,jsons/v1_VE1000_randls_4_rotated.json,http://54.235.29.9/FacialAge/BNav_EC2/DepthDuration/v2_depth_duration_MTurk/v2_DepthDuration_HTML.html#35,35,1366,768,1366,768,8-22-2022,7-59-50,79,depth_duration_stimuli/002199_2014-06-28_18-33-56_260595134347_rgbf000074-resize_0/002199_2014-06-28_18-33-56_260595134347_rgbf000074-resize_0-target.png,1000,1.996,3,3668,992,meters,jsons/v1_VE1000_randls_4_rotated.json,762707,900803,1987,Woman
79,223311,DepthScenes,duration_manipulation_targetAtFixation,jsons/v1_VE1000_randls_4_rotated.json,http://54.235.29.9/FacialAge/BNav_EC2/DepthDuration/v2_depth_duration_MTurk/v2_DepthDuration_HTML.html#35,35,1366,768,1366,768,8-22-2022,7-59-50,80,depth_duration_stimuli/001056_2014-06-08_18-46-44_260595134347_rgbf000068-resize_0/001056_2014-06-08_18-46-44_260595134347_rgbf000068-resize_0-target.png,1000,2.6625,3,3361,999,meters,jsons/v1_VE1000_randls_4_rotated.json,762707,900803,1987,Woman
80,223311,DepthScenes,duration_manipulation_targetAtFixation,jsons/v1_VE1000_randls_4_rotated.json,http://54.235.29.9/FacialAge/BNav_EC2/DepthDuration/v2_depth_duration_MTurk/v2_DepthDuration_HTML.html#35,35,1366,768,1366,768,8-22-2022,7-59-50,81,depth_duration_stimuli/000483_2014-06-09_20-41-45_260595134347_rgbf000116-resize_4/000483_2014-06-09_20-41-45_260595134347_rgbf000116-resize_4-target.png,1000,1.337,2,2980,1005,meters,jsons/v1_VE1000_randls_4_rotated.json,762707,900803,1987,Woman
81,223311,DepthScenes,duration_manipulation_targetAtFixation,jsons/v1_VE1000_randls_4_rotated.json,http://54.235.29.9/FacialAge/BNav_EC2/DepthDuration/v2_depth_duration_MTurk/v2_DepthDuration_HTML.html#35,35,1366,768,1366,768,8-22-2022,7-59-50,82,depth_duration_stimuli/000469_2014-06-09_19-42-10_260595134347_rgbf000081-resize_1/000469_2014-06-09_19-42-10_260595134347_rgbf000081-resize_1-target.png,1000,1.652,2,3474,1003,meters,jsons/v1_VE1000_randls_4_rotated.json,762707,900803,1987,Woman
82,223311,DepthScenes,duration_manipulation_targetAtFixation,jsons/v1_VE1000_randls_4_rotated.json,http://54.235.29.9/FacialAge/BNav_EC2/DepthDuration/v2_depth_duration_MTurk/v2_DepthDuration_HTML.html#35,35,1366,768,1366,768,8-22-2022,7-59-50,83,depth_duration_stimuli/003495_2014-05-21_16-01-51_094959634447_rgbf000100-resize_3/003495_2014-05-21_16-01-51_094959634447_rgbf000100-resize_3-target.png,1000,1.6255,2,3161,999,meters,jsons/v1_VE1000_randls_4_rotated.json,762707,900803,1987,Woman
83,223311,DepthScenes,duration_manipulation_targetAtFixation,jsons/v1_VE1000_randls_4_rotated.json,http://54.235.29.9/FacialAge/BNav_EC2/DepthDuration/v2_depth_duration_MTurk/v2_DepthDuration_HTML.html#35,35,1366,768,1366,768,8-22-2022,7-59-50,84,depth_duration_stimuli/001244_2014-06-17_16-47-45_260595134347_rgbf000030-resize_4/001244_2014-06-17_16-47-45_260595134347_rgbf000030-resize_4-target.png,1000,2.0425,2,3472,1000,meters,jsons/v1_VE1000_randls_4_rotated.json,762707,900803,1987,Woman
84,223311,DepthScenes,duration_manipulation_targetAtFixation,jsons/v1_VE1000_randls_4_rotated.json,http://54.235.29.9/FacialAge/BNav_EC2/DepthDuration/v2_depth_duration_MTurk/v2_DepthDuration_HTML.html#35,35,1366,768,1366,768,8-22-2022,7-59-50,85,depth_duration_stimuli/000691_2014-06-08_13-08-50_260595134347_rgbf000132-resize_3/000691_2014-06-08_13-08-50_260595134347_rgbf000132-resize_3-target.png,1000,4.1530000000000005,3,3853,990,meters,jsons/v1_VE1000_randls_4_rotated.json,762707,900803,1987,Woman
85,223311,DepthScenes,duration_manipulation_targetAtFixation,jsons/v1_VE1000_randls_4_rotated.json,http://54.235.29.9/FacialAge/BNav_EC2/DepthDuration/v2_depth_duration_MTurk/v2_DepthDuration_HTML.html#35,35,1366,768,1366,768,8-22-2022,7-59-50,86,depth_duration_stimuli/002213_2014-06-28_18-37-58_260595134347_rgbf000055-resize_1/002213_2014-06-28_18-37-58_260595134347_rgbf000055-resize_1-target.png,1000,3.62,3,3673,998,meters,jsons/v1_VE1000_randls_4_rotated.json,762707,900803,1987,Woman
86,223311,DepthScenes,duration_manipulation_targetAtFixation,jsons/v1_VE1000_randls_4_rotated.json,http://54.235.29.9/FacialAge/BNav_EC2/DepthDuration/v2_depth_duration_MTurk/v2_DepthDuration_HTML.html#35,35,1366,768,1366,768,8-22-2022,7-59-50,87,depth_duration_stimuli/001447_2014-06-19_17-00-32_260595134347_rgbf000082-resize_5/001447_2014-06-19_17-00-32_260595134347_rgbf000082-resize_5-target.png,1000,4.13775,3,3358,998,meters,jsons/v1_VE1000_randls_4_rotated.json,762707,900803,1987,Woman
87,223311,DepthScenes,duration_manipulation_targetAtFixation,jsons/v1_VE1000_randls_4_rotated.json,http://54.235.29.9/FacialAge/BNav_EC2/DepthDuration/v2_depth_duration_MTurk/v2_DepthDuration_HTML.html#35,35,1366,768,1366,768,8-22-2022,7-59-50,88,depth_duration_stimuli/000447_2014-06-08_16-15-46_260595134347_rgbf000130-resize_1/000447_2014-06-08_16-15-46_260595134347_rgbf000130-resize_1-target.png,1000,4.479,3,3072,1000,meters,jsons/v1_VE1000_randls_4_rotated.json,762707,900803,1987,Woman
88,223311,DepthScenes,duration_manipulation_targetAtFixation,jsons/v1_VE1000_randls_4_rotated.json,http://54.235.29.9/FacialAge/BNav_EC2/DepthDuration/v2_depth_duration_MTurk/v2_DepthDuration_HTML.html#35,35,1366,768,1366,768,8-22-2022,7-59-50,89,depth_duration_stimuli/002209_2014-06-28_18-36-10_260595134347_rgbf000051-resize_1/002209_2014-06-28_18-36-10_260595134347_rgbf000051-resize_1-target.png,1000,2.057,3,3734,984,meters,jsons/v1_VE1000_randls_4_rotated.json,762707,900803,1987,Woman
89,223311,DepthScenes,duration_manipulation_targetAtFixation,jsons/v1_VE1000_randls_4_rotated.json,http://54.235.29.9/FacialAge/BNav_EC2/DepthDuration/v2_depth_duration_MTurk/v2_DepthDuration_HTML.html#35,35,1366,768,1366,768,8-22-2022,7-59-50,90,depth_duration_stimuli/002763_2014-06-22_19-13-10_094959634447_rgbf000075-resize_4/002763_2014-06-22_19-13-10_094959634447_rgbf000075-resize_4-target.png,1000,1.68375,2,3440,1003,meters,jsons/v1_VE1000_randls_4_rotated.json,762707,900803,1987,Woman
90,223311,DepthScenes,duration_manipulation_targetAtFixation,jsons/v1_VE1000_randls_4_rotated.json,http://54.235.29.9/FacialAge/BNav_EC2/DepthDuration/v2_depth_duration_MTurk/v2_DepthDuration_HTML.html#35,35,1366,768,1366,768,8-22-2022,7-59-50,91,depth_duration_stimuli/002637_2014-06-24_14-51-13_094959634447_rgbf000066-resize_4/002637_2014-06-24_14-51-13_094959634447_rgbf000066-resize_4-target.png,1000,1.9955,2,4617,991,meters,jsons/v1_VE1000_randls_4_rotated.json,762707,900803,1987,Woman
91,223311,DepthScenes,duration_manipulation_targetAtFixation,jsons/v1_VE1000_randls_4_rotated.json,http://54.235.29.9/FacialAge/BNav_EC2/DepthDuration/v2_depth_duration_MTurk/v2_DepthDuration_HTML.html#35,35,1366,768,1366,768,8-22-2022,7-59-50,92,depth_duration_stimuli/003534_2014-05-22_15-06-10_094959634447_rgbf000102-resize_4/003534_2014-05-22_15-06-10_094959634447_rgbf000102-resize_4-target.png,1000,1.426,2,3294,1054,meters,jsons/v1_VE1000_randls_4_rotated.json,762707,900803,1987,Woman
92,223311,DepthScenes,duration_manipulation_targetAtFixation,jsons/v1_VE1000_randls_4_rotated.json,http://54.235.29.9/FacialAge/BNav_EC2/DepthDuration/v2_depth_duration_MTurk/v2_DepthDuration_HTML.html#35,35,1366,768,1366,768,8-22-2022,7-59-50,93,depth_duration_stimuli/001828_2014-06-26_21-40-03_260595134347_rgbf000024-resize_0/001828_2014-06-26_21-40-03_260595134347_rgbf000024-resize_0-target.png,1000,4.8260000000000005,2,3995,1056,meters,jsons/v1_VE1000_randls_4_rotated.json,762707,900803,1987,Woman
93,223311,DepthScenes,duration_manipulation_targetAtFixation,jsons/v1_VE1000_randls_4_rotated.json,http://54.235.29.9/FacialAge/BNav_EC2/DepthDuration/v2_depth_duration_MTurk/v2_DepthDuration_HTML.html#35,35,1366,768,1366,768,8-22-2022,7-59-50,94,depth_duration_stimuli/000009_2014-05-26_14-32-05_260595134347_rgbf000034-resize_3/000009_2014-05-26_14-32-05_260595134347_rgbf000034-resize_3-target.png,1000,3.8715,3,3803,994,meters,jsons/v1_VE1000_randls_4_rotated.json,762707,900803,1987,Woman
94,223311,DepthScenes,duration_manipulation_targetAtFixation,jsons/v1_VE1000_randls_4_rotated.json,http://54.235.29.9/FacialAge/BNav_EC2/DepthDuration/v2_depth_duration_MTurk/v2_DepthDuration_HTML.html#35,35,1366,768,1366,768,8-22-2022,7-59-50,95,depth_duration_stimuli/000635_2014-06-08_16-38-42_260595134347_rgbf000106-resize_1/000635_2014-06-08_16-38-42_260595134347_rgbf000106-resize_1-target.png,1000,2.074,2,3737,1037,meters,jsons/v1_VE1000_randls_4_rotated.json,762707,900803,1987,Woman
95,223311,DepthScenes,duration_manipulation_targetAtFixation,jsons/v1_VE1000_randls_4_rotated.json,http://54.235.29.9/FacialAge/BNav_EC2/DepthDuration/v2_depth_duration_MTurk/v2_DepthDuration_HTML.html#35,35,1366,768,1366,768,8-22-2022,7-59-50,96,depth_duration_stimuli/002279_2014-06-28_18-55-32_260595134347_rgbf000040-resize_5/002279_2014-06-28_18-55-32_260595134347_rgbf000040-resize_5-target.png,1000,1.5043333333333,2,3422,996,meters,jsons/v1_VE1000_randls_4_rotated.json,762707,900803,1987,Woman
96,223311,DepthScenes,duration_manipulation_targetAtFixation,jsons/v1_VE1000_randls_4_rotated.json,http://54.235.29.9/FacialAge/BNav_EC2/DepthDuration/v2_depth_duration_MTurk/v2_DepthDuration_HTML.html#35,35,1366,768,1366,768,8-22-2022,7-59-50,97,depth_duration_stimuli/000943_2014-06-09_19-31-07_260595134347_rgbf000128-resize_1/000943_2014-06-09_19-31-07_260595134347_rgbf000128-resize_1-target.png,1000,1.9765,2,3774,1009,meters,jsons/v1_VE1000_randls_4_rotated.json,762707,900803,1987,Woman
97,223311,DepthScenes,duration_manipulation_targetAtFixation,jsons/v1_VE1000_randls_4_rotated.json,http://54.235.29.9/FacialAge/BNav_EC2/DepthDuration/v2_depth_duration_MTurk/v2_DepthDuration_HTML.html#35,35,1366,768,1366,768,8-22-2022,7-59-50,98,depth_duration_stimuli/003070_2014-06-15_14-58-27_094959634447_rgbf000150-resize_3/003070_2014-06-15_14-58-27_094959634447_rgbf000150-resize_3-target.png,1000,2.9415,2,3549,1035,meters,jsons/v1_VE1000_randls_4_rotated.json,762707,900803,1987,Woman
98,223311,DepthScenes,duration_manipulation_targetAtFixation,jsons/v1_VE1000_randls_4_rotated.json,http://54.235.29.9/FacialAge/BNav_EC2/DepthDuration/v2_depth_duration_MTurk/v2_DepthDuration_HTML.html#35,35,1366,768,1366,768,8-22-2022,7-59-50,99,depth_duration_stimuli/001222_2014-06-17_16-24-06_260595134347_rgbf000073-resize_0/001222_2014-06-17_16-24-06_260595134347_rgbf000073-resize-original.jpg,1000,1.4385,2,3699,1001,meters,jsons/v1_VE1000_randls_4_rotated.json,762707,900803,1987,Woman
99,223311,DepthScenes,duration_manipulation_targetAtFixation,jsons/v1_VE1000_randls_4_rotated.json,http://54.235.29.9/FacialAge/BNav_EC2/DepthDuration/v2_depth_duration_MTurk/v2_DepthDuration_HTML.html#35,35,1366,768,1366,768,8-22-2022,7-59-50,100,depth_duration_stimuli/002444_2014-06-28_20-32-08_260595134347_rgbf000027-resize_0/002444_2014-06-28_20-32-08_260595134347_rgbf000027-resize_0-target.png,1000,4.388999999999999,3,3705,970,meters,jsons/v1_VE1000_randls_4_rotated.json,762707,900803,1987,Woman
100,223311,DepthScenes,duration_manipulation_targetAtFixation,jsons/v1_VE1000_randls_4_rotated.json,http://54.235.29.9/FacialAge/BNav_EC2/DepthDuration/v2_depth_duration_MTurk/v2_DepthDuration_HTML.html#35,35,1366,768,1366,768,8-22-2022,7-59-50,101,depth_duration_stimuli/000436_2014-06-09_22-25-11_260595134347_rgbf000137-resize_1/000436_2014-06-09_22-25-11_260595134347_rgbf000137-resize_1-target.png,1000,4.0705,2,3466,878,meters,jsons/v1_VE1000_randls_4_rotated.json,762707,900803,1987,Woman
101,223311,DepthScenes,duration_manipulation_targetAtFixation,jsons/v1_VE1000_randls_4_rotated.json,http://54.235.29.9/FacialAge/BNav_EC2/DepthDuration/v2_depth_duration_MTurk/v2_DepthDuration_HTML.html#35,35,1366,768,1366,768,8-22-2022,7-59-50,102,depth_duration_stimuli/003423_2014-05-21_10-23-26_094959634447_rgbf002665-resize_2/003423_2014-05-21_10-23-26_094959634447_rgbf002665-resize_2-target.png,1000,3.2575,3,5111,997,meters,jsons/v1_VE1000_randls_4_rotated.json,762707,900803,1987,Woman
102,223311,DepthScenes,duration_manipulation_targetAtFixation,jsons/v1_VE1000_randls_4_rotated.json,http://54.235.29.9/FacialAge/BNav_EC2/DepthDuration/v2_depth_duration_MTurk/v2_DepthDuration_HTML.html#35,35,1366,768,1366,768,8-22-2022,7-59-50,103,depth_duration_stimuli/002905_2014-06-03_18-04-43_094959634447_rgbf000151-resize_2/002905_2014-06-03_18-04-43_094959634447_rgbf000151-resize_2-target.png,1000,2.0295,2,3526,1001,meters,jsons/v1_VE1000_randls_4_rotated.json,762707,900803,1987,Woman
103,223311,DepthScenes,duration_manipulation_targetAtFixation,jsons/v1_VE1000_randls_4_rotated.json,http://54.235.29.9/FacialAge/BNav_EC2/DepthDuration/v2_depth_duration_MTurk/v2_DepthDuration_HTML.html#35,35,1366,768,1366,768,8-22-2022,7-59-50,104,depth_duration_stimuli/002995_2014-06-15_12-31-26_094959634447_rgbf000150-resize_1/002995_2014-06-15_12-31-26_094959634447_rgbf000150-resize_1-target.png,1000,3.8360000000000003,3,3811,1015,meters,jsons/v1_VE1000_randls_4_rotated.json,762707,900803,1987,Woman
104,223311,DepthScenes,duration_manipulation_targetAtFixation,jsons/v1_VE1000_randls_4_rotated.json,http://54.235.29.9/FacialAge/BNav_EC2/DepthDuration/v2_depth_duration_MTurk/v2_DepthDuration_HTML.html#35,35,1366,768,1366,768,8-22-2022,7-59-50,105,depth_duration_stimuli/002748_2014-06-22_19-07-22_094959634447_rgbf000078-resize_1/002748_2014-06-22_19-07-22_094959634447_rgbf000078-resize_1-target.png,1000,4.6705,2,2987,1001,meters,jsons/v1_VE1000_randls_4_rotated.json,762707,900803,1987,Woman
105,223311,DepthScenes,duration_manipulation_targetAtFixation,jsons/v1_VE1000_randls_4_rotated.json,http://54.235.29.9/FacialAge/BNav_EC2/DepthDuration/v2_depth_duration_MTurk/v2_DepthDuration_HTML.html#35,35,1366,768,1366,768,8-22-2022,7-59-50,106,depth_duration_stimuli/002953_2014-06-08_17-32-18_094959634447_rgbf000059-resize_5/002953_2014-06-08_17-32-18_094959634447_rgbf000059-resize_5-target.png,1000,1.551,2,3014,982,meters,jsons/v1_VE1000_randls_4_rotated.json,762707,900803,1987,Woman
106,223311,DepthScenes,duration_manipulation_targetAtFixation,jsons/v1_VE1000_randls_4_rotated.json,http://54.235.29.9/FacialAge/BNav_EC2/DepthDuration/v2_depth_duration_MTurk/v2_DepthDuration_HTML.html#35,35,1366,768,1366,768,8-22-2022,7-59-50,107,depth_duration_stimuli/000878_2014-06-08_22-52-45_260595134347_rgbf000045-resize_2/000878_2014-06-08_22-52-45_260595134347_rgbf000045-resize_2-target.png,1000,2.092,2,4662,1002,meters,jsons/v1_VE1000_randls_4_rotated.json,762707,900803,1987,Woman
107,223311,DepthScenes,duration_manipulation_targetAtFixation,jsons/v1_VE1000_randls_4_rotated.json,http://54.235.29.9/FacialAge/BNav_EC2/DepthDuration/v2_depth_duration_MTurk/v2_DepthDuration_HTML.html#35,35,1366,768,1366,768,8-22-2022,7-59-50,108,depth_duration_stimuli/002344_2014-06-28_20-06-29_260595134347_rgbf000030-resize_1/002344_2014-06-28_20-06-29_260595134347_rgbf000030-resize_1-target.png,1000,1.5795,2,3516,992,meters,jsons/v1_VE1000_randls_4_rotated.json,762707,900803,1987,Woman
108,223311,DepthScenes,duration_manipulation_targetAtFixation,jsons/v1_VE1000_randls_4_rotated.json,http://54.235.29.9/FacialAge/BNav_EC2/DepthDuration/v2_depth_duration_MTurk/v2_DepthDuration_HTML.html#35,35,1366,768,1366,768,8-22-2022,7-59-50,109,depth_duration_stimuli/002725_2014-06-22_11-47-51_094959634447_rgbf000070-resize_1/002725_2014-06-22_11-47-51_094959634447_rgbf000070-resize_1-target.png,1000,2.195,3,3632,997,meters,jsons/v1_VE1000_randls_4_rotated.json,762707,900803,1987,Woman
109,223311,DepthScenes,duration_manipulation_targetAtFixation,jsons/v1_VE1000_randls_4_rotated.json,http://54.235.29.9/FacialAge/BNav_EC2/DepthDuration/v2_depth_duration_MTurk/v2_DepthDuration_HTML.html#35,35,1366,768,1366,768,8-22-2022,7-59-50,110,depth_duration_stimuli/001650_2014-06-20_12-09-00_260595134347_rgbf000087-resize_3/001650_2014-06-20_12-09-00_260595134347_rgbf000087-resize_3-target.png,1000,1.9505,2,3674,997,meters,jsons/v1_VE1000_randls_4_rotated.json,762707,900803,1987,Woman
110,223311,DepthScenes,duration_manipulation_targetAtFixation,jsons/v1_VE1000_randls_4_rotated.json,http://54.235.29.9/FacialAge/BNav_EC2/DepthDuration/v2_depth_duration_MTurk/v2_DepthDuration_HTML.html#35,35,1366,768,1366,768,8-22-2022,7-59-50,111,depth_duration_stimuli/000682_2014-06-08_23-14-58_260595134347_rgbf000041-resize_5/000682_2014-06-08_23-14-58_260595134347_rgbf000041-resize_5-target.png,1000,2.7239999999999998,1,3323,993,meters,jsons/v1_VE1000_randls_4_rotated.json,762707,900803,1987,Woman
111,223311,DepthScenes,duration_manipulation_targetAtFixation,jsons/v1_VE1000_randls_4_rotated.json,http://54.235.29.9/FacialAge/BNav_EC2/DepthDuration/v2_depth_duration_MTurk/v2_DepthDuration_HTML.html#35,35,1366,768,1366,768,8-22-2022,7-59-50,112,depth_duration_stimuli/001571_2014-06-20_17-21-32_260595134347_rgbf000089-resize_1/001571_2014-06-20_17-21-32_260595134347_rgbf000089-resize_1-target.png,1000,1.86,2,3383,1048,meters,jsons/v1_VE1000_randls_4_rotated.json,762707,900803,1987,Woman
112,223311,DepthScenes,duration_manipulation_targetAtFixation,jsons/v1_VE1000_randls_4_rotated.json,http://54.235.29.9/FacialAge/BNav_EC2/DepthDuration/v2_depth_duration_MTurk/v2_DepthDuration_HTML.html#35,35,1366,768,1366,768,8-22-2022,7-59-50,113,depth_duration_stimuli/002272_2014-06-28_18-53-56_260595134347_rgbf000067-resize_2/002272_2014-06-28_18-53-56_260595134347_rgbf000067-resize_2-target.png,1000,1.138,3,3307,1040,meters,jsons/v1_VE1000_randls_4_rotated.json,762707,900803,1987,Woman
113,223311,DepthScenes,duration_manipulation_targetAtFixation,jsons/v1_VE1000_randls_4_rotated.json,http://54.235.29.9/FacialAge/BNav_EC2/DepthDuration/v2_depth_duration_MTurk/v2_DepthDuration_HTML.html#35,35,1366,768,1366,768,8-22-2022,7-59-50,114,depth_duration_stimuli/002657_2014-06-13_15-29-54_094959634447_rgbf000150-resize_1/002657_2014-06-13_15-29-54_094959634447_rgbf000150-resize_1-target.png,1000,4.919,2,3305,946,meters,jsons/v1_VE1000_randls_4_rotated.json,762707,900803,1987,Woman
114,223311,DepthScenes,duration_manipulation_targetAtFixation,jsons/v1_VE1000_randls_4_rotated.json,http://54.235.29.9/FacialAge/BNav_EC2/DepthDuration/v2_depth_duration_MTurk/v2_DepthDuration_HTML.html#35,35,1366,768,1366,768,8-22-2022,7-59-50,115,depth_duration_stimuli/002375_2014-06-28_20-13-44_260595134347_rgbf000032-resize_1/002375_2014-06-28_20-13-44_260595134347_rgbf000032-resize_1-target.png,1000,4.0175,3,3239,997,meters,jsons/v1_VE1000_randls_4_rotated.json,762707,900803,1987,Woman
115,223311,DepthScenes,duration_manipulation_targetAtFixation,jsons/v1_VE1000_randls_4_rotated.json,http://54.235.29.9/FacialAge/BNav_EC2/DepthDuration/v2_depth_duration_MTurk/v2_DepthDuration_HTML.html#35,35,1366,768,1366,768,8-22-2022,7-59-50,116,depth_duration_stimuli/003079_2014-06-15_15-18-20_094959634447_rgbf000152-resize_8/003079_2014-06-15_15-18-20_094959634447_rgbf000152-resize_8-target.png,1000,2.8775,2,3407,1012,meters,jsons/v1_VE1000_randls_4_rotated.json,762707,900803,1987,Woman
116,223311,DepthScenes,duration_manipulation_targetAtFixation,jsons/v1_VE1000_randls_4_rotated.json,http://54.235.29.9/FacialAge/BNav_EC2/DepthDuration/v2_depth_duration_MTurk/v2_DepthDuration_HTML.html#35,35,1366,768,1366,768,8-22-2022,7-59-50,117,depth_duration_stimuli/000506_2014-06-08_23-21-00_260595134347_rgbf000070-resize_7/000506_2014-06-08_23-21-00_260595134347_rgbf000070-resize_7-target.png,1000,4.0585,2,3022,1070,meters,jsons/v1_VE1000_randls_4_rotated.json,762707,900803,1987,Woman
117,223311,DepthScenes,duration_manipulation_targetAtFixation,jsons/v1_VE1000_randls_4_rotated.json,http://54.235.29.9/FacialAge/BNav_EC2/DepthDuration/v2_depth_duration_MTurk/v2_DepthDuration_HTML.html#35,35,1366,768,1366,768,8-22-2022,7-59-50,118,depth_duration_stimuli/001094_2014-06-15_17-36-00_260595134347_rgbf000205-resize_0/001094_2014-06-15_17-36-00_260595134347_rgbf000205-resize_0-target.png,1000,4.2175,2,3075,1005,meters,jsons/v1_VE1000_randls_4_rotated.json,762707,900803,1987,Woman
118,223311,DepthScenes,duration_manipulation_targetAtFixation,jsons/v1_VE1000_randls_4_rotated.json,http://54.235.29.9/FacialAge/BNav_EC2/DepthDuration/v2_depth_duration_MTurk/v2_DepthDuration_HTML.html#35,35,1366,768,1366,768,8-22-2022,7-59-50,119,depth_duration_stimuli/000692_2014-06-08_13-09-42_260595134347_rgbf000199-resize_2/000692_2014-06-08_13-09-42_260595134347_rgbf000199-resize_2-target.png,1000,3.661,2,2947,999,meters,jsons/v1_VE1000_randls_4_rotated.json,762707,900803,1987,Woman
119,223311,DepthScenes,duration_manipulation_targetAtFixation,jsons/v1_VE1000_randls_4_rotated.json,http://54.235.29.9/FacialAge/BNav_EC2/DepthDuration/v2_depth_duration_MTurk/v2_DepthDuration_HTML.html#35,35,1366,768,1366,768,8-22-2022,7-59-50,120,depth_duration_stimuli/000787_2014-06-08_22-33-53_260595134347_rgbf000175-resize_1/000787_2014-06-08_22-33-53_260595134347_rgbf000175-resize-original.jpg,1000,4.784,2,3605,999,meters,jsons/v1_VE1000_randls_4_rotated.json,762707,900803,1987,Woman
120,223311,DepthScenes,duration_manipulation_targetAtFixation,jsons/v1_VE1000_randls_4_rotated.json,http://54.235.29.9/FacialAge/BNav_EC2/DepthDuration/v2_depth_duration_MTurk/v2_DepthDuration_HTML.html#35,35,1366,768,1366,768,8-22-2022,7-59-50,121,depth_duration_stimuli/001584_2014-06-20_11-07-43_260595134347_rgbf000002-resize_1/001584_2014-06-20_11-07-43_260595134347_rgbf000002-resize_1-target.png,1000,3.53,1,4412,1004,meters,jsons/v1_VE1000_randls_4_rotated.json,762707,900803,1987,Woman
121,223311,DepthScenes,duration_manipulation_targetAtFixation,jsons/v1_VE1000_randls_4_rotated.json,http://54.235.29.9/FacialAge/BNav_EC2/DepthDuration/v2_depth_duration_MTurk/v2_DepthDuration_HTML.html#35,35,1366,768,1366,768,8-22-2022,7-59-50,122,depth_duration_stimuli/003621_2014-05-23_18-06-08_094959634447_rgbf000101-resize_1/003621_2014-05-23_18-06-08_094959634447_rgbf000101-resize_1-target.png,1000,3.9835,2,3293,999,meters,jsons/v1_VE1000_randls_4_rotated.json,762707,900803,1987,Woman
122,223311,DepthScenes,duration_manipulation_targetAtFixation,jsons/v1_VE1000_randls_4_rotated.json,http://54.235.29.9/FacialAge/BNav_EC2/DepthDuration/v2_depth_duration_MTurk/v2_DepthDuration_HTML.html#35,35,1366,768,1366,768,8-22-2022,7-59-50,123,depth_duration_stimuli/002340_2014-06-28_20-05-46_260595134347_rgbf000113-resize_0/002340_2014-06-28_20-05-46_260595134347_rgbf000113-resize_0-target.png,1000,2.4735,2,3520,1223,meters,jsons/v1_VE1000_randls_4_rotated.json,762707,900803,1987,Woman
123,223311,DepthScenes,duration_manipulation_targetAtFixation,jsons/v1_VE1000_randls_4_rotated.json,http://54.235.29.9/FacialAge/BNav_EC2/DepthDuration/v2_depth_duration_MTurk/v2_DepthDuration_HTML.html#35,35,1366,768,1366,768,8-22-2022,7-59-50,124,depth_duration_stimuli/001016_2014-06-09_16-16-10_260595134347_rgbf000112-resize_5/001016_2014-06-09_16-16-10_260595134347_rgbf000112-resize_5-target.png,1000,1.6565,2,3309,999,meters,jsons/v1_VE1000_randls_4_rotated.json,762707,900803,1987,Woman
124,223311,DepthScenes,duration_manipulation_targetAtFixation,jsons/v1_VE1000_randls_4_rotated.json,http://54.235.29.9/FacialAge/BNav_EC2/DepthDuration/v2_depth_duration_MTurk/v2_DepthDuration_HTML.html#35,35,1366,768,1366,768,8-22-2022,7-59-50,125,depth_duration_stimuli/000854_2014-06-09_19-43-13_260595134347_rgbf000066-resize_0/000854_2014-06-09_19-43-13_260595134347_rgbf000066-resize_0-target.png,1000,3.068,2,4990,955,meters,jsons/v1_VE1000_randls_4_rotated.json,762707,900803,1987,Woman
125,223311,DepthScenes,duration_manipulation_targetAtFixation,jsons/v1_VE1000_randls_4_rotated.json,http://54.235.29.9/FacialAge/BNav_EC2/DepthDuration/v2_depth_duration_MTurk/v2_DepthDuration_HTML.html#35,35,1366,768,1366,768,8-22-2022,7-59-50,126,depth_duration_stimuli/000758_2014-06-08_22-05-08_260595134347_rgbf000085-resize_0/000758_2014-06-08_22-05-08_260595134347_rgbf000085-resize_0-target.png,1000,3.3810000000000002,2,4327,1009,meters,jsons/v1_VE1000_randls_4_rotated.json,762707,900803,1987,Woman
126,223311,DepthScenes,duration_manipulation_targetAtFixation,jsons/v1_VE1000_randls_4_rotated.json,http://54.235.29.9/FacialAge/BNav_EC2/DepthDuration/v2_depth_duration_MTurk/v2_DepthDuration_HTML.html#35,35,1366,768,1366,768,8-22-2022,7-59-50,127,depth_duration_stimuli/001235_2014-06-17_16-37-36_260595134347_rgbf000084-resize_4/001235_2014-06-17_16-37-36_260595134347_rgbf000084-resize_4-target.png,1000,3.6605,2,3632,1061,meters,jsons/v1_VE1000_randls_4_rotated.json,762707,900803,1987,Woman
127,223311,DepthScenes,duration_manipulation_targetAtFixation,jsons/v1_VE1000_randls_4_rotated.json,http://54.235.29.9/FacialAge/BNav_EC2/DepthDuration/v2_depth_duration_MTurk/v2_DepthDuration_HTML.html#35,35,1366,768,1366,768,8-22-2022,7-59-50,128,depth_duration_stimuli/000788_2014-06-08_22-34-36_260595134347_rgbf000131-resize_1/000788_2014-06-08_22-34-36_260595134347_rgbf000131-resize_1-target.png,1000,3.359,2,3093,1101,meters,jsons/v1_VE1000_randls_4_rotated.json,762707,900803,1987,Woman
128,223311,DepthScenes,duration_manipulation_targetAtFixation,jsons/v1_VE1000_randls_4_rotated.json,http://54.235.29.9/FacialAge/BNav_EC2/DepthDuration/v2_depth_duration_MTurk/v2_DepthDuration_HTML.html#35,35,1366,768,1366,768,8-22-2022,7-59-50,129,depth_duration_stimuli/002758_2014-06-22_19-11-20_094959634447_rgbf000128-resize_1/002758_2014-06-22_19-11-20_094959634447_rgbf000128-resize_1-target.png,1000,2.555,2,3352,1162,meters,jsons/v1_VE1000_randls_4_rotated.json,762707,900803,1987,Woman
129,223311,DepthScenes,duration_manipulation_targetAtFixation,jsons/v1_VE1000_randls_4_rotated.json,http://54.235.29.9/FacialAge/BNav_EC2/DepthDuration/v2_depth_duration_MTurk/v2_DepthDuration_HTML.html#35,35,1366,768,1366,768,8-22-2022,7-59-50,130,depth_duration_stimuli/002630_2014-06-24_14-47-50_094959634447_rgbf000055-resize_1/002630_2014-06-24_14-47-50_094959634447_rgbf000055-resize_1-target.png,1000,3.0095,2,3058,1028,meters,jsons/v1_VE1000_randls_4_rotated.json,762707,900803,1987,Woman
130,223311,DepthScenes,duration_manipulation_targetAtFixation,jsons/v1_VE1000_randls_4_rotated.json,http://54.235.29.9/FacialAge/BNav_EC2/DepthDuration/v2_depth_duration_MTurk/v2_DepthDuration_HTML.html#35,35,1366,768,1366,768,8-22-2022,7-59-50,131,depth_duration_stimuli/003338_2014-05-20_11-01-23_094959634447_rgbf000051-resize_6/003338_2014-05-20_11-01-23_094959634447_rgbf000051-resize_6-target.png,1000,1.693,2,3241,999,meters,jsons/v1_VE1000_randls_4_rotated.json,762707,900803,1987,Woman
131,223311,DepthScenes,duration_manipulation_targetAtFixation,jsons/v1_VE1000_randls_4_rotated.json,http://54.235.29.9/FacialAge/BNav_EC2/DepthDuration/v2_depth_duration_MTurk/v2_DepthDuration_HTML.html#35,35,1366,768,1366,768,8-22-2022,7-59-50,132,depth_duration_stimuli/002509_2014-06-24_13-19-22_094959634447_rgbf000077-resize_0/002509_2014-06-24_13-19-22_094959634447_rgbf000077-resize_0-target.png,1000,1.3065,2,4671,1005,meters,jsons/v1_VE1000_randls_4_rotated.json,762707,900803,1987,Woman
132,223311,DepthScenes,duration_manipulation_targetAtFixation,jsons/v1_VE1000_randls_4_rotated.json,http://54.235.29.9/FacialAge/BNav_EC2/DepthDuration/v2_depth_duration_MTurk/v2_DepthDuration_HTML.html#35,35,1366,768,1366,768,8-22-2022,7-59-50,133,depth_duration_stimuli/000709_2014-06-08_13-51-55_260595134347_rgbf000068-resize_3/000709_2014-06-08_13-51-55_260595134347_rgbf000068-resize_3-target.png,1000,1.8030000000000002,3,4680,999,meters,jsons/v1_VE1000_randls_4_rotated.json,762707,900803,1987,Woman
133,223311,DepthScenes,duration_manipulation_targetAtFixation,jsons/v1_VE1000_randls_4_rotated.json,http://54.235.29.9/FacialAge/BNav_EC2/DepthDuration/v2_depth_duration_MTurk/v2_DepthDuration_HTML.html#35,35,1366,768,1366,768,8-22-2022,7-59-50,134,depth_duration_stimuli/002057_2014-06-24_21-00-13_260595134347_rgbf000120-resize_1/002057_2014-06-24_21-00-13_260595134347_rgbf000120-resize_1-target.png,1000,2.967,2,3304,922,meters,jsons/v1_VE1000_randls_4_rotated.json,762707,900803,1987,Woman
134,223311,DepthScenes,duration_manipulation_targetAtFixation,jsons/v1_VE1000_randls_4_rotated.json,http://54.235.29.9/FacialAge/BNav_EC2/DepthDuration/v2_depth_duration_MTurk/v2_DepthDuration_HTML.html#35,35,1366,768,1366,768,8-22-2022,7-59-50,135,depth_duration_stimuli/000375_2014-06-08_11-17-29_260595134347_rgbf000133-resize_2/000375_2014-06-08_11-17-29_260595134347_rgbf000133-resize-original.jpg,1000,4.718,2,3150,984,meters,jsons/v1_VE1000_randls_4_rotated.json,762707,900803,1987,Woman
135,223311,DepthScenes,duration_manipulation_targetAtFixation,jsons/v1_VE1000_randls_4_rotated.json,http://54.235.29.9/FacialAge/BNav_EC2/DepthDuration/v2_depth_duration_MTurk/v2_DepthDuration_HTML.html#35,35,1366,768,1366,768,8-22-2022,7-59-50,136,depth_duration_stimuli/000665_2014-06-09_20-42-35_260595134347_rgbf000110-resize_1/000665_2014-06-09_20-42-35_260595134347_rgbf000110-resize_1-target.png,1000,3.057,1,3524,922,meters,jsons/v1_VE1000_randls_4_rotated.json,762707,900803,1987,Woman
136,223311,DepthScenes,duration_manipulation_targetAtFixation,jsons/v1_VE1000_randls_4_rotated.json,http://54.235.29.9/FacialAge/BNav_EC2/DepthDuration/v2_depth_duration_MTurk/v2_DepthDuration_HTML.html#35,35,1366,768,1366,768,8-22-2022,7-59-50,137,depth_duration_stimuli/001150_2014-06-17_15-27-34_260595134347_rgbf000108-resize_2/001150_2014-06-17_15-27-34_260595134347_rgbf000108-resize_2-target.png,1000,4.0325,3,3736,1002,meters,jsons/v1_VE1000_randls_4_rotated.json,762707,900803,1987,Woman
137,223311,DepthScenes,duration_manipulation_targetAtFixation,jsons/v1_VE1000_randls_4_rotated.json,http://54.235.29.9/FacialAge/BNav_EC2/DepthDuration/v2_depth_duration_MTurk/v2_DepthDuration_HTML.html#35,35,1366,768,1366,768,8-22-2022,7-59-50,138,depth_duration_stimuli/003083_2014-06-15_15-21-03_094959634447_rgbf000063-resize_1/003083_2014-06-15_15-21-03_094959634447_rgbf000063-resize_1-target.png,1000,4.1405,2,5234,999,meters,jsons/v1_VE1000_randls_4_rotated.json,762707,900803,1987,Woman
138,223311,DepthScenes,duration_manipulation_targetAtFixation,jsons/v1_VE1000_randls_4_rotated.json,http://54.235.29.9/FacialAge/BNav_EC2/DepthDuration/v2_depth_duration_MTurk/v2_DepthDuration_HTML.html#35,35,1366,768,1366,768,8-22-2022,7-59-50,139,depth_duration_stimuli/000486_2014-06-09_20-47-20_260595134347_rgbf000143-resize_2/000486_2014-06-09_20-47-20_260595134347_rgbf000143-resize_2-target.png,1000,4.8325,1,3739,999,meters,jsons/v1_VE1000_randls_4_rotated.json,762707,900803,1987,Woman
139,223311,DepthScenes,duration_manipulation_targetAtFixation,jsons/v1_VE1000_randls_4_rotated.json,http://54.235.29.9/FacialAge/BNav_EC2/DepthDuration/v2_depth_duration_MTurk/v2_DepthDuration_HTML.html#35,35,1366,768,1366,768,8-22-2022,7-59-50,140,depth_duration_stimuli/000556_2014-06-09_22-42-56_260595134347_rgbf000214-resize_1/000556_2014-06-09_22-42-56_260595134347_rgbf000214-resize_1-target.png,1000,4.8415,3,3772,963,meters,jsons/v1_VE1000_randls_4_rotated.json,762707,900803,1987,Woman
140,223311,DepthScenes,duration_manipulation_targetAtFixation,jsons/v1_VE1000_randls_4_rotated.json,http://54.235.29.9/FacialAge/BNav_EC2/DepthDuration/v2_depth_duration_MTurk/v2_DepthDuration_HTML.html#35,35,1366,768,1366,768,8-22-2022,7-59-50,141,depth_duration_stimuli/001158_2014-06-17_15-32-16_260595134347_rgbf000138-resize_2/001158_2014-06-17_15-32-16_260595134347_rgbf000138-resize_2-target.png,1000,4.5315,2,3652,1001,meters,jsons/v1_VE1000_randls_4_rotated.json,762707,900803,1987,Woman
141,223311,DepthScenes,duration_manipulation_targetAtFixation,jsons/v1_VE1000_randls_4_rotated.json,http://54.235.29.9/FacialAge/BNav_EC2/DepthDuration/v2_depth_duration_MTurk/v2_DepthDuration_HTML.html#35,35,1366,768,1366,768,8-22-2022,7-59-50,142,depth_duration_stimuli/001516_2014-06-20_16-25-09_260595134347_rgbf000076-resize_2/001516_2014-06-20_16-25-09_260595134347_rgbf000076-resize_2-target.png,1000,1.7445,2,3883,1090,meters,jsons/v1_VE1000_randls_4_rotated.json,762707,900803,1987,Woman
142,223311,DepthScenes,duration_manipulation_targetAtFixation,jsons/v1_VE1000_randls_4_rotated.json,http://54.235.29.9/FacialAge/BNav_EC2/DepthDuration/v2_depth_duration_MTurk/v2_DepthDuration_HTML.html#35,35,1366,768,1366,768,8-22-2022,7-59-50,143,depth_duration_stimuli/002118_2014-06-25_20-32-08_260595134347_rgbf000078-resize_1/002118_2014-06-25_20-32-08_260595134347_rgbf000078-resize_1-target.png,1000,2.6460000000000004,3,3828,994,meters,jsons/v1_VE1000_randls_4_rotated.json,762707,900803,1987,Woman
143,223311,DepthScenes,duration_manipulation_targetAtFixation,jsons/v1_VE1000_randls_4_rotated.json,http://54.235.29.9/FacialAge/BNav_EC2/DepthDuration/v2_depth_duration_MTurk/v2_DepthDuration_HTML.html#35,35,1366,768,1366,768,8-22-2022,7-59-50,144,depth_duration_stimuli/002136_2014-06-25_21-18-03_260595134347_rgbf000109-resize_3/002136_2014-06-25_21-18-03_260595134347_rgbf000109-resize_3-target.png,1000,1.9569999999999999,3,3431,999,meters,jsons/v1_VE1000_randls_4_rotated.json,762707,900803,1987,Woman
144,223311,DepthScenes,duration_manipulation_targetAtFixation,jsons/v1_VE1000_randls_4_rotated.json,http://54.235.29.9/FacialAge/BNav_EC2/DepthDuration/v2_depth_duration_MTurk/v2_DepthDuration_HTML.html#35,35,1366,768,1366,768,8-22-2022,7-59-50,145,depth_duration_stimuli/002964_2014-06-08_17-46-11_094959634447_rgbf000091-resize_4/002964_2014-06-08_17-46-11_094959634447_rgbf000091-resize_4-target.png,1000,1.6909999999999998,2,3756,1001,meters,jsons/v1_VE1000_randls_4_rotated.json,762707,900803,1987,Woman
145,223311,DepthScenes,duration_manipulation_targetAtFixation,jsons/v1_VE1000_randls_4_rotated.json,http://54.235.29.9/FacialAge/BNav_EC2/DepthDuration/v2_depth_duration_MTurk/v2_DepthDuration_HTML.html#35,35,1366,768,1366,768,8-22-2022,7-59-50,146,depth_duration_stimuli/001392_2014-06-19_16-07-59_260595134347_rgbf000046-resize_1/001392_2014-06-19_16-07-59_260595134347_rgbf000046-resize_1-target.png,1000,4.135,3,3784,1001,meters,jsons/v1_VE1000_randls_4_rotated.json,762707,900803,1987,Woman
146,223311,DepthScenes,duration_manipulation_targetAtFixation,jsons/v1_VE1000_randls_4_rotated.json,http://54.235.29.9/FacialAge/BNav_EC2/DepthDuration/v2_depth_duration_MTurk/v2_DepthDuration_HTML.html#35,35,1366,768,1366,768,8-22-2022,7-59-50,147,depth_duration_stimuli/001570_2014-06-20_17-21-09_260595134347_rgbf000135-resize_4/001570_2014-06-20_17-21-09_260595134347_rgbf000135-resize_4-target.png,1000,4.467,2,3592,922,meters,jsons/v1_VE1000_randls_4_rotated.json,762707,900803,1987,Woman
147,223311,DepthScenes,duration_manipulation_targetAtFixation,jsons/v1_VE1000_randls_4_rotated.json,http://54.235.29.9/FacialAge/BNav_EC2/DepthDuration/v2_depth_duration_MTurk/v2_DepthDuration_HTML.html#35,35,1366,768,1366,768,8-22-2022,7-59-50,148,depth_duration_stimuli/001132_2014-06-17_14-48-54_260595134347_rgbf000100-resize_2/001132_2014-06-17_14-48-54_260595134347_rgbf000100-resize_2-target.png,1000,3.753,2,3112,1000,meters,jsons/v1_VE1000_randls_4_rotated.json,762707,900803,1987,Woman
148,223311,DepthScenes,duration_manipulation_targetAtFixation,jsons/v1_VE1000_randls_4_rotated.json,http://54.235.29.9/FacialAge/BNav_EC2/DepthDuration/v2_depth_duration_MTurk/v2_DepthDuration_HTML.html#35,35,1366,768,1366,768,8-22-2022,7-59-50,149,depth_duration_stimuli/001133_2014-06-17_14-49-16_260595134347_rgbf000100-resize_0/001133_2014-06-17_14-49-16_260595134347_rgbf000100-resize_0-target.png,1000,4.2115,3,3445,997,meters,jsons/v1_VE1000_randls_4_rotated.json,762707,900803,1987,Woman
149,223311,DepthScenes,duration_manipulation_targetAtFixation,jsons/v1_VE1000_randls_4_rotated.json,http://54.235.29.9/FacialAge/BNav_EC2/DepthDuration/v2_depth_duration_MTurk/v2_DepthDuration_HTML.html#35,35,1366,768,1366,768,8-22-2022,7-59-50,150,depth_duration_stimuli/003129_2014-05-12_10-48-10_094959634447_rgbf000100-resize_0/003129_2014-05-12_10-48-10_094959634447_rgbf000100-resize_0-target.png,1000,4.9305,3,3340,1017,meters,jsons/v1_VE1000_randls_4_rotated.json,762707,900803,1987,Woman
150,223311,DepthScenes,duration_manipulation_targetAtFixation,jsons/v1_VE1000_randls_4_rotated.json,http://54.235.29.9/FacialAge/BNav_EC2/DepthDuration/v2_depth_duration_MTurk/v2_DepthDuration_HTML.html#35,35,1366,768,1366,768,8-22-2022,7-59-50,151,depth_duration_stimuli/000414_2014-06-04_19-49-13_260595134347_rgbf000044-resize_0/000414_2014-06-04_19-49-13_260595134347_rgbf000044-resize_0-target.png,1000,4.329,2,3694,997,meters,jsons/v1_VE1000_randls_4_rotated.json,762707,900803,1987,Woman
151,223311,DepthScenes,duration_manipulation_targetAtFixation,jsons/v1_VE1000_randls_4_rotated.json,http://54.235.29.9/FacialAge/BNav_EC2/DepthDuration/v2_depth_duration_MTurk/v2_DepthDuration_HTML.html#35,35,1366,768,1366,768,8-22-2022,7-59-50,152,depth_duration_stimuli/000569_2014-06-09_22-51-47_260595134347_rgbf000141-resize_3/000569_2014-06-09_22-51-47_260595134347_rgbf000141-resize-original.jpg,1000,4.512,2,3128,998,meters,jsons/v1_VE1000_randls_4_rotated.json,762707,900803,1987,Woman
152,223311,DepthScenes,duration_manipulation_targetAtFixation,jsons/v1_VE1000_randls_4_rotated.json,http://54.235.29.9/FacialAge/BNav_EC2/DepthDuration/v2_depth_duration_MTurk/v2_DepthDuration_HTML.html#35,35,1366,768,1366,768,8-22-2022,7-59-50,153,depth_duration_stimuli/001136_2014-06-17_15-19-41_260595134347_rgbf000076-resize_3/001136_2014-06-17_15-19-41_260595134347_rgbf000076-resize_3-target.png,1000,1.8655,2,3801,842,meters,jsons/v1_VE1000_randls_4_rotated.json,762707,900803,1987,Woman
153,223311,DepthScenes,duration_manipulation_targetAtFixation,jsons/v1_VE1000_randls_4_rotated.json,http://54.235.29.9/FacialAge/BNav_EC2/DepthDuration/v2_depth_duration_MTurk/v2_DepthDuration_HTML.html#35,35,1366,768,1366,768,8-22-2022,7-59-50,154,depth_duration_stimuli/001164_2014-06-17_15-35-46_260595134347_rgbf000085-resize_3/001164_2014-06-17_15-35-46_260595134347_rgbf000085-resize_3-target.png,1000,2.354,3,4073,1001,meters,jsons/v1_VE1000_randls_4_rotated.json,762707,900803,1987,Woman
154,223311,DepthScenes,duration_manipulation_targetAtFixation,jsons/v1_VE1000_randls_4_rotated.json,http://54.235.29.9/FacialAge/BNav_EC2/DepthDuration/v2_depth_duration_MTurk/v2_DepthDuration_HTML.html#35,35,1366,768,1366,768,8-22-2022,7-59-50,155,depth_duration_stimuli/000734_2014-06-08_17-39-11_260595134347_rgbf000128-resize_2/000734_2014-06-08_17-39-11_260595134347_rgbf000128-resize_2-target.png,1000,4.098,3,3504,993,meters,jsons/v1_VE1000_randls_4_rotated.json,762707,900803,1987,Woman
155,223311,DepthScenes,duration_manipulation_targetAtFixation,jsons/v1_VE1000_randls_4_rotated.json,http://54.235.29.9/FacialAge/BNav_EC2/DepthDuration/v2_depth_duration_MTurk/v2_DepthDuration_HTML.html#35,35,1366,768,1366,768,8-22-2022,7-59-50,156,depth_duration_stimuli/000739_2014-06-08_18-45-58_260595134347_rgbf000068-resize_1/000739_2014-06-08_18-45-58_260595134347_rgbf000068-resize_1-target.png,1000,3.534,2,3168,998,meters,jsons/v1_VE1000_randls_4_rotated.json,762707,900803,1987,Woman
156,223311,DepthScenes,duration_manipulation_targetAtFixation,jsons/v1_VE1000_randls_4_rotated.json,http://54.235.29.9/FacialAge/BNav_EC2/DepthDuration/v2_depth_duration_MTurk/v2_DepthDuration_HTML.html#35,35,1366,768,1366,768,8-22-2022,7-59-50,157,depth_duration_stimuli/003228_2014-05-14_13-42-35_094959634447_rgbf000101-resize_1/003228_2014-05-14_13-42-35_094959634447_rgbf000101-resize_1-target.png,1000,1.9680000000000002,2,3846,999,meters,jsons/v1_VE1000_randls_4_rotated.json,762707,900803,1987,Woman
157,223311,DepthScenes,duration_manipulation_targetAtFixation,jsons/v1_VE1000_randls_4_rotated.json,http://54.235.29.9/FacialAge/BNav_EC2/DepthDuration/v2_depth_duration_MTurk/v2_DepthDuration_HTML.html#35,35,1366,768,1366,768,8-22-2022,7-59-50,158,depth_duration_stimuli/002600_2014-06-24_14-27-04_094959634447_rgbf000074-resize_2/002600_2014-06-24_14-27-04_094959634447_rgbf000074-resize_2-target.png,1000,2.7575,2,3185,1006,meters,jsons/v1_VE1000_randls_4_rotated.json,762707,900803,1987,Woman
158,223311,DepthScenes,duration_manipulation_targetAtFixation,jsons/v1_VE1000_randls_4_rotated.json,http://54.235.29.9/FacialAge/BNav_EC2/DepthDuration/v2_depth_duration_MTurk/v2_DepthDuration_HTML.html#35,35,1366,768,1366,768,8-22-2022,7-59-50,159,depth_duration_stimuli/000137_2014-05-20_17-04-49_260595134347_rgbf000120-resize_1/000137_2014-05-20_17-04-49_260595134347_rgbf000120-resize_1-target.png,1000,3.786,2,3444,1001,meters,jsons/v1_VE1000_randls_4_rotated.json,762707,900803,1987,Woman
159,223311,DepthScenes,duration_manipulation_targetAtFixation,jsons/v1_VE1000_randls_4_rotated.json,http://54.235.29.9/FacialAge/BNav_EC2/DepthDuration/v2_depth_duration_MTurk/v2_DepthDuration_HTML.html#35,35,1366,768,1366,768,8-22-2022,7-59-50,160,depth_duration_stimuli/000736_2014-06-08_18-24-15_260595134347_rgbf000206-resize_3/000736_2014-06-08_18-24-15_260595134347_rgbf000206-resize_3-target.png,1000,3.515,2,4473,962,meters,jsons/v1_VE1000_randls_4_rotated.json,762707,900803,1987,Woman
160,223311,DepthScenes,duration_manipulation_targetAtFixation,jsons/v1_VE1000_randls_4_rotated.json,http://54.235.29.9/FacialAge/BNav_EC2/DepthDuration/v2_depth_duration_MTurk/v2_DepthDuration_HTML.html#35,35,1366,768,1366,768,8-22-2022,7-59-50,161,depth_duration_stimuli/002875_2014-06-01_15-19-00_094959634447_rgbf000151-resize_1/002875_2014-06-01_15-19-00_094959634447_rgbf000151-resize_1-target.png,1000,1.9675,2,3438,999,meters,jsons/v1_VE1000_randls_4_rotated.json,762707,900803,1987,Woman
161,223311,DepthScenes,duration_manipulation_targetAtFixation,jsons/v1_VE1000_randls_4_rotated.json,http://54.235.29.9/FacialAge/BNav_EC2/DepthDuration/v2_depth_duration_MTurk/v2_DepthDuration_HTML.html#35,35,1366,768,1366,768,8-22-2022,7-59-50,162,depth_duration_stimuli/001011_2014-06-08_23-18-54_260595134347_rgbf000044-resize_4/001011_2014-06-08_23-18-54_260595134347_rgbf000044-resize_4-target.png,1000,2.4730000000000003,2,4165,979,meters,jsons/v1_VE1000_randls_4_rotated.json,762707,900803,1987,Woman
162,223311,DepthScenes,duration_manipulation_targetAtFixation,jsons/v1_VE1000_randls_4_rotated.json,http://54.235.29.9/FacialAge/BNav_EC2/DepthDuration/v2_depth_duration_MTurk/v2_DepthDuration_HTML.html#35,35,1366,768,1366,768,8-22-2022,7-59-50,163,depth_duration_stimuli/000866_2014-06-09_20-45-42_260595134347_rgbf000139-resize_1/000866_2014-06-09_20-45-42_260595134347_rgbf000139-resize_1-target.png,1000,3.2155,3,3270,1000,meters,jsons/v1_VE1000_randls_4_rotated.json,762707,900803,1987,Woman
163,223311,DepthScenes,duration_manipulation_targetAtFixation,jsons/v1_VE1000_randls_4_rotated.json,http://54.235.29.9/FacialAge/BNav_EC2/DepthDuration/v2_depth_duration_MTurk/v2_DepthDuration_HTML.html#35,35,1366,768,1366,768,8-22-2022,7-59-50,164,depth_duration_stimuli/002989_2014-06-15_12-25-03_094959634447_rgbf000150-resize_3/002989_2014-06-15_12-25-03_094959634447_rgbf000150-resize_3-target.png,1000,4.1975,3,3373,1002,meters,jsons/v1_VE1000_randls_4_rotated.json,762707,900803,1987,Woman
