,subjID,experimentName,versionName,sequenceName,url,selected_row,windowWidth,windowHeight,screenWidth,screenHeight,startDate,startTime,trial,stimulus,duration,actual_depth,depth_estimate,trial_RT,log_sceneDuration,unitSelection,seq_filepath,experimentTime,totalTime,age,gender
0,223712,DepthScenes,duration_manipulation_targetAtFixation,jsons/v1_VE250_randls_71_rotated.json,http://54.235.29.9/FacialAge/BNav_EC2/DepthDuration/v2_depth_duration_MTurk/v2_DepthDuration_HTML.html#19,19,1024,768,1024,768,8-30-2022,9-53-36,1,depth_duration_stimuli/003228_2014-05-14_13-42-35_094959634447_rgbf000101-resize_1/003228_2014-05-14_13-42-35_094959634447_rgbf000101-resize_1-target.png,250,1.9680000000000002,2,3309,255,meters,jsons/v1_VE250_randls_71_rotated.json,1121121,1278124,30,Woman
1,223712,DepthScenes,duration_manipulation_targetAtFixation,jsons/v1_VE250_randls_71_rotated.json,http://54.235.29.9/FacialAge/BNav_EC2/DepthDuration/v2_depth_duration_MTurk/v2_DepthDuration_HTML.html#19,19,1024,768,1024,768,8-30-2022,9-53-36,2,depth_duration_stimuli/002600_2014-06-24_14-27-04_094959634447_rgbf000074-resize_2/002600_2014-06-24_14-27-04_094959634447_rgbf000074-resize_2-target.png,250,2.7575,3,3048,251,meters,jsons/v1_VE250_randls_71_rotated.json,1121121,1278124,30,Woman
2,223712,DepthScenes,duration_manipulation_targetAtFixation,jsons/v1_VE250_randls_71_rotated.json,http://54.235.29.9/FacialAge/BNav_EC2/DepthDuration/v2_depth_duration_MTurk/v2_DepthDuration_HTML.html#19,19,1024,768,1024,768,8-30-2022,9-53-36,3,depth_duration_stimuli/002805_2014-06-22_19-54-03_094959634447_rgbf000079-resize_1/002805_2014-06-22_19-54-03_094959634447_rgbf000079-resize_1-target.png,250,3.1439999999999997,23,5907,260,meters,jsons/v1_VE250_randls_71_rotated.json,1121121,1278124,30,Woman
3,223712,DepthScenes,duration_manipulation_targetAtFixation,jsons/v1_VE250_randls_71_rotated.json,http://54.235.29.9/FacialAge/BNav_EC2/DepthDuration/v2_depth_duration_MTurk/v2_DepthDuration_HTML.html#19,19,1024,768,1024,768,8-30-2022,9-53-36,4,depth_duration_stimuli/000906_2014-06-08_13-35-43_260595134347_rgbf000155-resize_1/000906_2014-06-08_13-35-43_260595134347_rgbf000155-resize_1-target.png,250,2.8489999999999998,1,2496,251,meters,jsons/v1_VE250_randls_71_rotated.json,1121121,1278124,30,Woman
4,223712,DepthScenes,duration_manipulation_targetAtFixation,jsons/v1_VE250_randls_71_rotated.json,http://54.235.29.9/FacialAge/BNav_EC2/DepthDuration/v2_depth_duration_MTurk/v2_DepthDuration_HTML.html#19,19,1024,768,1024,768,8-30-2022,9-53-36,5,depth_duration_stimuli/001052_2014-06-08_18-24-54_260595134347_rgbf000130-resize_1/001052_2014-06-08_18-24-54_260595134347_rgbf000130-resize_1-target.png,250,4.1045,2,10535,254,meters,jsons/v1_VE250_randls_71_rotated.json,1121121,1278124,30,Woman
5,223712,DepthScenes,duration_manipulation_targetAtFixation,jsons/v1_VE250_randls_71_rotated.json,http://54.235.29.9/FacialAge/BNav_EC2/DepthDuration/v2_depth_duration_MTurk/v2_DepthDuration_HTML.html#19,19,1024,768,1024,768,8-30-2022,9-53-36,6,depth_duration_stimuli/002988_2014-06-15_12-24-20_094959634447_rgbf000150-resize_1/002988_2014-06-15_12-24-20_094959634447_rgbf000150-resize_1-target.png,250,4.7669999999999995,3,3938,253,meters,jsons/v1_VE250_randls_71_rotated.json,1121121,1278124,30,Woman
6,223712,DepthScenes,duration_manipulation_targetAtFixation,jsons/v1_VE250_randls_71_rotated.json,http://54.235.29.9/FacialAge/BNav_EC2/DepthDuration/v2_depth_duration_MTurk/v2_DepthDuration_HTML.html#19,19,1024,768,1024,768,8-30-2022,9-53-36,7,depth_duration_stimuli/000677_2014-06-08_23-10-32_260595134347_rgbf000158-resize_6/000677_2014-06-08_23-10-32_260595134347_rgbf000158-resize_6-target.png,250,3.556,6,6625,262,meters,jsons/v1_VE250_randls_71_rotated.json,1121121,1278124,30,Woman
7,223712,DepthScenes,duration_manipulation_targetAtFixation,jsons/v1_VE250_randls_71_rotated.json,http://54.235.29.9/FacialAge/BNav_EC2/DepthDuration/v2_depth_duration_MTurk/v2_DepthDuration_HTML.html#19,19,1024,768,1024,768,8-30-2022,9-53-36,8,depth_duration_stimuli/001029_2014-06-08_13-17-57_260595134347_rgbf000065-resize_1/001029_2014-06-08_13-17-57_260595134347_rgbf000065-resize_1-target.png,250,3.0835,6,4801,246,meters,jsons/v1_VE250_randls_71_rotated.json,1121121,1278124,30,Woman
8,223712,DepthScenes,duration_manipulation_targetAtFixation,jsons/v1_VE250_randls_71_rotated.json,http://54.235.29.9/FacialAge/BNav_EC2/DepthDuration/v2_depth_duration_MTurk/v2_DepthDuration_HTML.html#19,19,1024,768,1024,768,8-30-2022,9-53-36,9,depth_duration_stimuli/000780_2014-06-08_22-28-29_260595134347_rgbf000126-resize_1/000780_2014-06-08_22-28-29_260595134347_rgbf000126-resize_1-target.png,250,3.3825,2,3942,239,meters,jsons/v1_VE250_randls_71_rotated.json,1121121,1278124,30,Woman
9,223712,DepthScenes,duration_manipulation_targetAtFixation,jsons/v1_VE250_randls_71_rotated.json,http://54.235.29.9/FacialAge/BNav_EC2/DepthDuration/v2_depth_duration_MTurk/v2_DepthDuration_HTML.html#19,19,1024,768,1024,768,8-30-2022,9-53-36,10,depth_duration_stimuli/002445_2014-06-28_20-32-16_260595134347_rgbf000029-resize_4/002445_2014-06-28_20-32-16_260595134347_rgbf000029-resize_4-target.png,250,2.5315,2,27590,246,meters,jsons/v1_VE250_randls_71_rotated.json,1121121,1278124,30,Woman
10,223712,DepthScenes,duration_manipulation_targetAtFixation,jsons/v1_VE250_randls_71_rotated.json,http://54.235.29.9/FacialAge/BNav_EC2/DepthDuration/v2_depth_duration_MTurk/v2_DepthDuration_HTML.html#19,19,1024,768,1024,768,8-30-2022,9-53-36,11,depth_duration_stimuli/003048_2014-06-15_13-49-43_094959634447_rgbf000150-resize_1/003048_2014-06-15_13-49-43_094959634447_rgbf000150-resize_1-target.png,250,4.0035,2,8014,249,meters,jsons/v1_VE250_randls_71_rotated.json,1121121,1278124,30,Woman
11,223712,DepthScenes,duration_manipulation_targetAtFixation,jsons/v1_VE250_randls_71_rotated.json,http://54.235.29.9/FacialAge/BNav_EC2/DepthDuration/v2_depth_duration_MTurk/v2_DepthDuration_HTML.html#19,19,1024,768,1024,768,8-30-2022,9-53-36,12,depth_duration_stimuli/002043_2014-06-24_20-29-38_260595134347_rgbf000039-resize_4/002043_2014-06-24_20-29-38_260595134347_rgbf000039-resize_4-target.png,250,2.8435,2,7288,249,meters,jsons/v1_VE250_randls_71_rotated.json,1121121,1278124,30,Woman
12,223712,DepthScenes,duration_manipulation_targetAtFixation,jsons/v1_VE250_randls_71_rotated.json,http://54.235.29.9/FacialAge/BNav_EC2/DepthDuration/v2_depth_duration_MTurk/v2_DepthDuration_HTML.html#19,19,1024,768,1024,768,8-30-2022,9-53-36,13,depth_duration_stimuli/002344_2014-06-28_20-06-29_260595134347_rgbf000030-resize_1/002344_2014-06-28_20-06-29_260595134347_rgbf000030-resize_1-target.png,250,1.5795,3,6774,248,meters,jsons/v1_VE250_randls_71_rotated.json,1121121,1278124,30,Woman
13,223712,DepthScenes,duration_manipulation_targetAtFixation,jsons/v1_VE250_randls_71_rotated.json,http://54.235.29.9/FacialAge/BNav_EC2/DepthDuration/v2_depth_duration_MTurk/v2_DepthDuration_HTML.html#19,19,1024,768,1024,768,8-30-2022,9-53-36,14,depth_duration_stimuli/002725_2014-06-22_11-47-51_094959634447_rgbf000070-resize_1/002725_2014-06-22_11-47-51_094959634447_rgbf000070-resize_1-target.png,250,2.195,2,5527,247,meters,jsons/v1_VE250_randls_71_rotated.json,1121121,1278124,30,Woman
14,223712,DepthScenes,duration_manipulation_targetAtFixation,jsons/v1_VE250_randls_71_rotated.json,http://54.235.29.9/FacialAge/BNav_EC2/DepthDuration/v2_depth_duration_MTurk/v2_DepthDuration_HTML.html#19,19,1024,768,1024,768,8-30-2022,9-53-36,15,depth_duration_stimuli/000709_2014-06-08_13-51-55_260595134347_rgbf000068-resize_3/000709_2014-06-08_13-51-55_260595134347_rgbf000068-resize_3-target.png,250,1.8030000000000002,5,6707,247,meters,jsons/v1_VE250_randls_71_rotated.json,1121121,1278124,30,Woman
15,223712,DepthScenes,duration_manipulation_targetAtFixation,jsons/v1_VE250_randls_71_rotated.json,http://54.235.29.9/FacialAge/BNav_EC2/DepthDuration/v2_depth_duration_MTurk/v2_DepthDuration_HTML.html#19,19,1024,768,1024,768,8-30-2022,9-53-36,16,depth_duration_stimuli/002057_2014-06-24_21-00-13_260595134347_rgbf000120-resize_1/002057_2014-06-24_21-00-13_260595134347_rgbf000120-resize_1-target.png,250,2.967,3,4023,252,meters,jsons/v1_VE250_randls_71_rotated.json,1121121,1278124,30,Woman
16,223712,DepthScenes,duration_manipulation_targetAtFixation,jsons/v1_VE250_randls_71_rotated.json,http://54.235.29.9/FacialAge/BNav_EC2/DepthDuration/v2_depth_duration_MTurk/v2_DepthDuration_HTML.html#19,19,1024,768,1024,768,8-30-2022,9-53-36,17,depth_duration_stimuli/001815_2014-06-26_20-52-55_260595134347_rgbf000020-resize_0/001815_2014-06-26_20-52-55_260595134347_rgbf000020-resize_0-target.png,250,3.3865,2,6010,248,meters,jsons/v1_VE250_randls_71_rotated.json,1121121,1278124,30,Woman
17,223712,DepthScenes,duration_manipulation_targetAtFixation,jsons/v1_VE250_randls_71_rotated.json,http://54.235.29.9/FacialAge/BNav_EC2/DepthDuration/v2_depth_duration_MTurk/v2_DepthDuration_HTML.html#19,19,1024,768,1024,768,8-30-2022,9-53-36,18,depth_duration_stimuli/001808_2014-06-26_20-50-58_260595134347_rgbf000029-resize_1/001808_2014-06-26_20-50-58_260595134347_rgbf000029-resize_1-target.png,250,4.249,3,5346,248,meters,jsons/v1_VE250_randls_71_rotated.json,1121121,1278124,30,Woman
18,223712,DepthScenes,duration_manipulation_targetAtFixation,jsons/v1_VE250_randls_71_rotated.json,http://54.235.29.9/FacialAge/BNav_EC2/DepthDuration/v2_depth_duration_MTurk/v2_DepthDuration_HTML.html#19,19,1024,768,1024,768,8-30-2022,9-53-36,19,depth_duration_stimuli/001498_2014-06-19_17-45-14_260595134347_rgbf000129-resize_4/001498_2014-06-19_17-45-14_260595134347_rgbf000129-resize-original.jpg,250,1.4075,2,3859,250,meters,jsons/v1_VE250_randls_71_rotated.json,1121121,1278124,30,Woman
19,223712,DepthScenes,duration_manipulation_targetAtFixation,jsons/v1_VE250_randls_71_rotated.json,http://54.235.29.9/FacialAge/BNav_EC2/DepthDuration/v2_depth_duration_MTurk/v2_DepthDuration_HTML.html#19,19,1024,768,1024,768,8-30-2022,9-53-36,20,depth_duration_stimuli/003423_2014-05-21_10-23-26_094959634447_rgbf002665-resize_2/003423_2014-05-21_10-23-26_094959634447_rgbf002665-resize_2-target.png,250,3.2575,3,3883,250,meters,jsons/v1_VE250_randls_71_rotated.json,1121121,1278124,30,Woman
20,223712,DepthScenes,duration_manipulation_targetAtFixation,jsons/v1_VE250_randls_71_rotated.json,http://54.235.29.9/FacialAge/BNav_EC2/DepthDuration/v2_depth_duration_MTurk/v2_DepthDuration_HTML.html#19,19,1024,768,1024,768,8-30-2022,9-53-36,21,depth_duration_stimuli/002905_2014-06-03_18-04-43_094959634447_rgbf000151-resize_2/002905_2014-06-03_18-04-43_094959634447_rgbf000151-resize_2-target.png,250,2.0295,4,3283,248,meters,jsons/v1_VE250_randls_71_rotated.json,1121121,1278124,30,Woman
21,223712,DepthScenes,duration_manipulation_targetAtFixation,jsons/v1_VE250_randls_71_rotated.json,http://54.235.29.9/FacialAge/BNav_EC2/DepthDuration/v2_depth_duration_MTurk/v2_DepthDuration_HTML.html#19,19,1024,768,1024,768,8-30-2022,9-53-36,22,depth_duration_stimuli/001094_2014-06-15_17-36-00_260595134347_rgbf000205-resize_0/001094_2014-06-15_17-36-00_260595134347_rgbf000205-resize_0-target.png,250,4.2175,3,8039,259,meters,jsons/v1_VE250_randls_71_rotated.json,1121121,1278124,30,Woman
22,223712,DepthScenes,duration_manipulation_targetAtFixation,jsons/v1_VE250_randls_71_rotated.json,http://54.235.29.9/FacialAge/BNav_EC2/DepthDuration/v2_depth_duration_MTurk/v2_DepthDuration_HTML.html#19,19,1024,768,1024,768,8-30-2022,9-53-36,23,depth_duration_stimuli/000692_2014-06-08_13-09-42_260595134347_rgbf000199-resize_2/000692_2014-06-08_13-09-42_260595134347_rgbf000199-resize_2-target.png,250,3.661,4,3524,252,meters,jsons/v1_VE250_randls_71_rotated.json,1121121,1278124,30,Woman
23,223712,DepthScenes,duration_manipulation_targetAtFixation,jsons/v1_VE250_randls_71_rotated.json,http://54.235.29.9/FacialAge/BNav_EC2/DepthDuration/v2_depth_duration_MTurk/v2_DepthDuration_HTML.html#19,19,1024,768,1024,768,8-30-2022,9-53-36,24,depth_duration_stimuli/000409_2014-06-04_19-23-33_260595134347_rgbf000067-resize_0/000409_2014-06-04_19-23-33_260595134347_rgbf000067-resize_0-target.png,250,3.7335,2,4694,247,meters,jsons/v1_VE250_randls_71_rotated.json,1121121,1278124,30,Woman
24,223712,DepthScenes,duration_manipulation_targetAtFixation,jsons/v1_VE250_randls_71_rotated.json,http://54.235.29.9/FacialAge/BNav_EC2/DepthDuration/v2_depth_duration_MTurk/v2_DepthDuration_HTML.html#19,19,1024,768,1024,768,8-30-2022,9-53-36,25,depth_duration_stimuli/002663_2014-06-13_15-50-26_094959634447_rgbf000075-resize_1/002663_2014-06-13_15-50-26_094959634447_rgbf000075-resize_1-target.png,250,4.7495,2,5710,250,meters,jsons/v1_VE250_randls_71_rotated.json,1121121,1278124,30,Woman
25,223712,DepthScenes,duration_manipulation_targetAtFixation,jsons/v1_VE250_randls_71_rotated.json,http://54.235.29.9/FacialAge/BNav_EC2/DepthDuration/v2_depth_duration_MTurk/v2_DepthDuration_HTML.html#19,19,1024,768,1024,768,8-30-2022,9-53-36,26,depth_duration_stimuli/000749_2014-06-08_21-55-06_260595134347_rgbf000070-resize_2/000749_2014-06-08_21-55-06_260595134347_rgbf000070-resize_2-target.png,250,2.331,3,4349,249,meters,jsons/v1_VE250_randls_71_rotated.json,1121121,1278124,30,Woman
26,223712,DepthScenes,duration_manipulation_targetAtFixation,jsons/v1_VE250_randls_71_rotated.json,http://54.235.29.9/FacialAge/BNav_EC2/DepthDuration/v2_depth_duration_MTurk/v2_DepthDuration_HTML.html#19,19,1024,768,1024,768,8-30-2022,9-53-36,27,depth_duration_stimuli/002788_2014-06-22_19-36-03_094959634447_rgbf000088-resize_2/002788_2014-06-22_19-36-03_094959634447_rgbf000088-resize_2-target.png,250,1.6465,2,3286,244,meters,jsons/v1_VE250_randls_71_rotated.json,1121121,1278124,30,Woman
27,223712,DepthScenes,duration_manipulation_targetAtFixation,jsons/v1_VE250_randls_71_rotated.json,http://54.235.29.9/FacialAge/BNav_EC2/DepthDuration/v2_depth_duration_MTurk/v2_DepthDuration_HTML.html#19,19,1024,768,1024,768,8-30-2022,9-53-36,28,depth_duration_stimuli/001617_2014-06-20_11-35-32_260595134347_rgbf000066-resize_1/001617_2014-06-20_11-35-32_260595134347_rgbf000066-resize_1-target.png,250,3.7910000000000004,3,3728,259,meters,jsons/v1_VE250_randls_71_rotated.json,1121121,1278124,30,Woman
28,223712,DepthScenes,duration_manipulation_targetAtFixation,jsons/v1_VE250_randls_71_rotated.json,http://54.235.29.9/FacialAge/BNav_EC2/DepthDuration/v2_depth_duration_MTurk/v2_DepthDuration_HTML.html#19,19,1024,768,1024,768,8-30-2022,9-53-36,29,depth_duration_stimuli/001806_2014-06-26_20-50-20_260595134347_rgbf000091-resize_1/001806_2014-06-26_20-50-20_260595134347_rgbf000091-resize_1-target.png,250,2.7305,2,4220,246,meters,jsons/v1_VE250_randls_71_rotated.json,1121121,1278124,30,Woman
29,223712,DepthScenes,duration_manipulation_targetAtFixation,jsons/v1_VE250_randls_71_rotated.json,http://54.235.29.9/FacialAge/BNav_EC2/DepthDuration/v2_depth_duration_MTurk/v2_DepthDuration_HTML.html#19,19,1024,768,1024,768,8-30-2022,9-53-36,30,depth_duration_stimuli/002072_2014-06-24_21-48-06_260595134347_rgbf000115-resize_0/002072_2014-06-24_21-48-06_260595134347_rgbf000115-resize-original.jpg,250,4.702,3,3840,250,meters,jsons/v1_VE250_randls_71_rotated.json,1121121,1278124,30,Woman
30,223712,DepthScenes,duration_manipulation_targetAtFixation,jsons/v1_VE250_randls_71_rotated.json,http://54.235.29.9/FacialAge/BNav_EC2/DepthDuration/v2_depth_duration_MTurk/v2_DepthDuration_HTML.html#19,19,1024,768,1024,768,8-30-2022,9-53-36,31,depth_duration_stimuli/001214_2014-06-17_16-13-55_260595134347_rgbf000111-resize_0/001214_2014-06-17_16-13-55_260595134347_rgbf000111-resize_0-target.png,250,2.6505,2,4455,250,meters,jsons/v1_VE250_randls_71_rotated.json,1121121,1278124,30,Woman
31,223712,DepthScenes,duration_manipulation_targetAtFixation,jsons/v1_VE250_randls_71_rotated.json,http://54.235.29.9/FacialAge/BNav_EC2/DepthDuration/v2_depth_duration_MTurk/v2_DepthDuration_HTML.html#19,19,1024,768,1024,768,8-30-2022,9-53-36,32,depth_duration_stimuli/000810_2014-06-08_17-20-01_260595134347_rgbf000105-resize_0/000810_2014-06-08_17-20-01_260595134347_rgbf000105-resize_0-target.png,250,1.4865,3,3616,246,meters,jsons/v1_VE250_randls_71_rotated.json,1121121,1278124,30,Woman
32,223712,DepthScenes,duration_manipulation_targetAtFixation,jsons/v1_VE250_randls_71_rotated.json,http://54.235.29.9/FacialAge/BNav_EC2/DepthDuration/v2_depth_duration_MTurk/v2_DepthDuration_HTML.html#19,19,1024,768,1024,768,8-30-2022,9-53-36,33,depth_duration_stimuli/003587_2014-05-23_16-48-02_094959634447_rgbf002384-resize_2/003587_2014-05-23_16-48-02_094959634447_rgbf002384-resize_2-target.png,250,1.357,2,3930,255,meters,jsons/v1_VE250_randls_71_rotated.json,1121121,1278124,30,Woman
33,223712,DepthScenes,duration_manipulation_targetAtFixation,jsons/v1_VE250_randls_71_rotated.json,http://54.235.29.9/FacialAge/BNav_EC2/DepthDuration/v2_depth_duration_MTurk/v2_DepthDuration_HTML.html#19,19,1024,768,1024,768,8-30-2022,9-53-36,34,depth_duration_stimuli/001167_2014-06-17_15-38-07_260595134347_rgbf000108-resize_0/001167_2014-06-17_15-38-07_260595134347_rgbf000108-resize_0-target.png,250,1.8505,2,3276,254,meters,jsons/v1_VE250_randls_71_rotated.json,1121121,1278124,30,Woman
34,223712,DepthScenes,duration_manipulation_targetAtFixation,jsons/v1_VE250_randls_71_rotated.json,http://54.235.29.9/FacialAge/BNav_EC2/DepthDuration/v2_depth_duration_MTurk/v2_DepthDuration_HTML.html#19,19,1024,768,1024,768,8-30-2022,9-53-36,35,depth_duration_stimuli/001650_2014-06-20_12-09-00_260595134347_rgbf000087-resize_3/001650_2014-06-20_12-09-00_260595134347_rgbf000087-resize_3-target.png,250,1.9505,3,4385,253,meters,jsons/v1_VE250_randls_71_rotated.json,1121121,1278124,30,Woman
35,223712,DepthScenes,duration_manipulation_targetAtFixation,jsons/v1_VE250_randls_71_rotated.json,http://54.235.29.9/FacialAge/BNav_EC2/DepthDuration/v2_depth_duration_MTurk/v2_DepthDuration_HTML.html#19,19,1024,768,1024,768,8-30-2022,9-53-36,36,depth_duration_stimuli/000682_2014-06-08_23-14-58_260595134347_rgbf000041-resize_5/000682_2014-06-08_23-14-58_260595134347_rgbf000041-resize_5-target.png,250,2.7239999999999998,2,6854,250,meters,jsons/v1_VE250_randls_71_rotated.json,1121121,1278124,30,Woman
36,223712,DepthScenes,duration_manipulation_targetAtFixation,jsons/v1_VE250_randls_71_rotated.json,http://54.235.29.9/FacialAge/BNav_EC2/DepthDuration/v2_depth_duration_MTurk/v2_DepthDuration_HTML.html#19,19,1024,768,1024,768,8-30-2022,9-53-36,37,depth_duration_stimuli/000742_2014-06-08_18-48-09_260595134347_rgbf000164-resize_4/000742_2014-06-08_18-48-09_260595134347_rgbf000164-resize_4-target.png,250,4.632,2,6946,253,meters,jsons/v1_VE250_randls_71_rotated.json,1121121,1278124,30,Woman
37,223712,DepthScenes,duration_manipulation_targetAtFixation,jsons/v1_VE250_randls_71_rotated.json,http://54.235.29.9/FacialAge/BNav_EC2/DepthDuration/v2_depth_duration_MTurk/v2_DepthDuration_HTML.html#19,19,1024,768,1024,768,8-30-2022,9-53-36,38,depth_duration_stimuli/001066_2014-06-08_22-03-20_260595134347_rgbf000066-resize_4/001066_2014-06-08_22-03-20_260595134347_rgbf000066-resize_4-target.png,250,4.2330000000000005,2,3939,249,meters,jsons/v1_VE250_randls_71_rotated.json,1121121,1278124,30,Woman
38,223712,DepthScenes,duration_manipulation_targetAtFixation,jsons/v1_VE250_randls_71_rotated.json,http://54.235.29.9/FacialAge/BNav_EC2/DepthDuration/v2_depth_duration_MTurk/v2_DepthDuration_HTML.html#19,19,1024,768,1024,768,8-30-2022,9-53-36,39,depth_duration_stimuli/001392_2014-06-19_16-07-59_260595134347_rgbf000046-resize_1/001392_2014-06-19_16-07-59_260595134347_rgbf000046-resize_1-target.png,250,4.135,2,45076,264,meters,jsons/v1_VE250_randls_71_rotated.json,1121121,1278124,30,Woman
39,223712,DepthScenes,duration_manipulation_targetAtFixation,jsons/v1_VE250_randls_71_rotated.json,http://54.235.29.9/FacialAge/BNav_EC2/DepthDuration/v2_depth_duration_MTurk/v2_DepthDuration_HTML.html#19,19,1024,768,1024,768,8-30-2022,9-53-36,40,depth_duration_stimuli/001570_2014-06-20_17-21-09_260595134347_rgbf000135-resize_4/001570_2014-06-20_17-21-09_260595134347_rgbf000135-resize_4-target.png,250,4.467,5,4584,250,meters,jsons/v1_VE250_randls_71_rotated.json,1121121,1278124,30,Woman
40,223712,DepthScenes,duration_manipulation_targetAtFixation,jsons/v1_VE250_randls_71_rotated.json,http://54.235.29.9/FacialAge/BNav_EC2/DepthDuration/v2_depth_duration_MTurk/v2_DepthDuration_HTML.html#19,19,1024,768,1024,768,8-30-2022,9-53-36,41,depth_duration_stimuli/002678_2014-06-13_16-15-32_094959634447_rgbf000151-resize_6/002678_2014-06-13_16-15-32_094959634447_rgbf000151-resize_6-target.png,250,2.1830000000000003,5,7595,248,meters,jsons/v1_VE250_randls_71_rotated.json,1121121,1278124,30,Woman
41,223712,DepthScenes,duration_manipulation_targetAtFixation,jsons/v1_VE250_randls_71_rotated.json,http://54.235.29.9/FacialAge/BNav_EC2/DepthDuration/v2_depth_duration_MTurk/v2_DepthDuration_HTML.html#19,19,1024,768,1024,768,8-30-2022,9-53-36,42,depth_duration_stimuli/000368_2014-06-09_15-53-01_260595134347_rgbf000155-resize_2/000368_2014-06-09_15-53-01_260595134347_rgbf000155-resize_2-target.png,250,2.4859999999999998,4,5668,255,meters,jsons/v1_VE250_randls_71_rotated.json,1121121,1278124,30,Woman
42,223712,DepthScenes,duration_manipulation_targetAtFixation,jsons/v1_VE250_randls_71_rotated.json,http://54.235.29.9/FacialAge/BNav_EC2/DepthDuration/v2_depth_duration_MTurk/v2_DepthDuration_HTML.html#19,19,1024,768,1024,768,8-30-2022,9-53-36,43,depth_duration_stimuli/002953_2014-06-08_17-32-18_094959634447_rgbf000059-resize_5/002953_2014-06-08_17-32-18_094959634447_rgbf000059-resize_5-target.png,250,1.551,2,8220,241,meters,jsons/v1_VE250_randls_71_rotated.json,1121121,1278124,30,Woman
43,223712,DepthScenes,duration_manipulation_targetAtFixation,jsons/v1_VE250_randls_71_rotated.json,http://54.235.29.9/FacialAge/BNav_EC2/DepthDuration/v2_depth_duration_MTurk/v2_DepthDuration_HTML.html#19,19,1024,768,1024,768,8-30-2022,9-53-36,44,depth_duration_stimuli/000878_2014-06-08_22-52-45_260595134347_rgbf000045-resize_2/000878_2014-06-08_22-52-45_260595134347_rgbf000045-resize_2-target.png,250,2.092,3,3542,250,meters,jsons/v1_VE250_randls_71_rotated.json,1121121,1278124,30,Woman
44,223712,DepthScenes,duration_manipulation_targetAtFixation,jsons/v1_VE250_randls_71_rotated.json,http://54.235.29.9/FacialAge/BNav_EC2/DepthDuration/v2_depth_duration_MTurk/v2_DepthDuration_HTML.html#19,19,1024,768,1024,768,8-30-2022,9-53-36,45,depth_duration_stimuli/000549_2014-06-08_22-10-24_260595134347_rgbf000247-resize_3/000549_2014-06-08_22-10-24_260595134347_rgbf000247-resize_3-target.png,250,1.841,2,2809,247,meters,jsons/v1_VE250_randls_71_rotated.json,1121121,1278124,30,Woman
45,223712,DepthScenes,duration_manipulation_targetAtFixation,jsons/v1_VE250_randls_71_rotated.json,http://54.235.29.9/FacialAge/BNav_EC2/DepthDuration/v2_depth_duration_MTurk/v2_DepthDuration_HTML.html#19,19,1024,768,1024,768,8-30-2022,9-53-36,46,depth_duration_stimuli/001055_2014-06-08_18-45-35_260595134347_rgbf000111-resize_4/001055_2014-06-08_18-45-35_260595134347_rgbf000111-resize_4-target.png,250,2.4290000000000003,2,3610,257,meters,jsons/v1_VE250_randls_71_rotated.json,1121121,1278124,30,Woman
46,223712,DepthScenes,duration_manipulation_targetAtFixation,jsons/v1_VE250_randls_71_rotated.json,http://54.235.29.9/FacialAge/BNav_EC2/DepthDuration/v2_depth_duration_MTurk/v2_DepthDuration_HTML.html#19,19,1024,768,1024,768,8-30-2022,9-53-36,47,depth_duration_stimuli/001447_2014-06-19_17-00-32_260595134347_rgbf000082-resize_5/001447_2014-06-19_17-00-32_260595134347_rgbf000082-resize_5-target.png,250,4.13775,2,3841,244,meters,jsons/v1_VE250_randls_71_rotated.json,1121121,1278124,30,Woman
47,223712,DepthScenes,duration_manipulation_targetAtFixation,jsons/v1_VE250_randls_71_rotated.json,http://54.235.29.9/FacialAge/BNav_EC2/DepthDuration/v2_depth_duration_MTurk/v2_DepthDuration_HTML.html#19,19,1024,768,1024,768,8-30-2022,9-53-36,48,depth_duration_stimuli/000447_2014-06-08_16-15-46_260595134347_rgbf000130-resize_1/000447_2014-06-08_16-15-46_260595134347_rgbf000130-resize_1-target.png,250,4.479,2,4345,249,meters,jsons/v1_VE250_randls_71_rotated.json,1121121,1278124,30,Woman
48,223712,DepthScenes,duration_manipulation_targetAtFixation,jsons/v1_VE250_randls_71_rotated.json,http://54.235.29.9/FacialAge/BNav_EC2/DepthDuration/v2_depth_duration_MTurk/v2_DepthDuration_HTML.html#19,19,1024,768,1024,768,8-30-2022,9-53-36,49,depth_duration_stimuli/001170_2014-06-17_15-43-44_260595134347_rgbf000096-resize_6/001170_2014-06-17_15-43-44_260595134347_rgbf000096-resize-original.jpg,250,1.1909999999999998,3,3779,251,meters,jsons/v1_VE250_randls_71_rotated.json,1121121,1278124,30,Woman
49,223712,DepthScenes,duration_manipulation_targetAtFixation,jsons/v1_VE250_randls_71_rotated.json,http://54.235.29.9/FacialAge/BNav_EC2/DepthDuration/v2_depth_duration_MTurk/v2_DepthDuration_HTML.html#19,19,1024,768,1024,768,8-30-2022,9-53-36,50,depth_duration_stimuli/002425_2014-06-28_20-27-29_260595134347_rgbf000031-resize_8/002425_2014-06-28_20-27-29_260595134347_rgbf000031-resize_8-target.png,250,3.8960000000000004,2,3305,234,meters,jsons/v1_VE250_randls_71_rotated.json,1121121,1278124,30,Woman
50,223712,DepthScenes,duration_manipulation_targetAtFixation,jsons/v1_VE250_randls_71_rotated.json,http://54.235.29.9/FacialAge/BNav_EC2/DepthDuration/v2_depth_duration_MTurk/v2_DepthDuration_HTML.html#19,19,1024,768,1024,768,8-30-2022,9-53-36,51,depth_duration_stimuli/000642_2014-06-08_16-59-25_260595134347_rgbf000098-resize_2/000642_2014-06-08_16-59-25_260595134347_rgbf000098-resize_2-target.png,250,2.8815,2,3896,259,meters,jsons/v1_VE250_randls_71_rotated.json,1121121,1278124,30,Woman
51,223712,DepthScenes,duration_manipulation_targetAtFixation,jsons/v1_VE250_randls_71_rotated.json,http://54.235.29.9/FacialAge/BNav_EC2/DepthDuration/v2_depth_duration_MTurk/v2_DepthDuration_HTML.html#19,19,1024,768,1024,768,8-30-2022,9-53-36,52,depth_duration_stimuli/003079_2014-06-15_15-18-20_094959634447_rgbf000152-resize_8/003079_2014-06-15_15-18-20_094959634447_rgbf000152-resize_8-target.png,250,2.8775,2,3855,249,meters,jsons/v1_VE250_randls_71_rotated.json,1121121,1278124,30,Woman
52,223712,DepthScenes,duration_manipulation_targetAtFixation,jsons/v1_VE250_randls_71_rotated.json,http://54.235.29.9/FacialAge/BNav_EC2/DepthDuration/v2_depth_duration_MTurk/v2_DepthDuration_HTML.html#19,19,1024,768,1024,768,8-30-2022,9-53-36,53,depth_duration_stimuli/000506_2014-06-08_23-21-00_260595134347_rgbf000070-resize_7/000506_2014-06-08_23-21-00_260595134347_rgbf000070-resize_7-target.png,250,4.0585,2,5330,249,meters,jsons/v1_VE250_randls_71_rotated.json,1121121,1278124,30,Woman
53,223712,DepthScenes,duration_manipulation_targetAtFixation,jsons/v1_VE250_randls_71_rotated.json,http://54.235.29.9/FacialAge/BNav_EC2/DepthDuration/v2_depth_duration_MTurk/v2_DepthDuration_HTML.html#19,19,1024,768,1024,768,8-30-2022,9-53-36,54,depth_duration_stimuli/002136_2014-06-25_21-18-03_260595134347_rgbf000109-resize_3/002136_2014-06-25_21-18-03_260595134347_rgbf000109-resize_3-target.png,250,1.9569999999999999,3,3491,251,meters,jsons/v1_VE250_randls_71_rotated.json,1121121,1278124,30,Woman
54,223712,DepthScenes,duration_manipulation_targetAtFixation,jsons/v1_VE250_randls_71_rotated.json,http://54.235.29.9/FacialAge/BNav_EC2/DepthDuration/v2_depth_duration_MTurk/v2_DepthDuration_HTML.html#19,19,1024,768,1024,768,8-30-2022,9-53-36,55,depth_duration_stimuli/002964_2014-06-08_17-46-11_094959634447_rgbf000091-resize_4/002964_2014-06-08_17-46-11_094959634447_rgbf000091-resize_4-target.png,250,1.6909999999999998,2,49105,250,meters,jsons/v1_VE250_randls_71_rotated.json,1121121,1278124,30,Woman
55,223712,DepthScenes,duration_manipulation_targetAtFixation,jsons/v1_VE250_randls_71_rotated.json,http://54.235.29.9/FacialAge/BNav_EC2/DepthDuration/v2_depth_duration_MTurk/v2_DepthDuration_HTML.html#19,19,1024,768,1024,768,8-30-2022,9-53-36,56,depth_duration_stimuli/002467_2014-06-28_20-38-07_260595134347_rgbf000026-resize_2/002467_2014-06-28_20-38-07_260595134347_rgbf000026-resize_2-target.png,250,4.742,5,52227,247,meters,jsons/v1_VE250_randls_71_rotated.json,1121121,1278124,30,Woman
56,223712,DepthScenes,duration_manipulation_targetAtFixation,jsons/v1_VE250_randls_71_rotated.json,http://54.235.29.9/FacialAge/BNav_EC2/DepthDuration/v2_depth_duration_MTurk/v2_DepthDuration_HTML.html#19,19,1024,768,1024,768,8-30-2022,9-53-36,57,depth_duration_stimuli/002570_2014-06-24_13-59-54_094959634447_rgbf000059-resize_0/002570_2014-06-24_13-59-54_094959634447_rgbf000059-resize_0-target.png,250,4.037,2,7692,259,meters,jsons/v1_VE250_randls_71_rotated.json,1121121,1278124,30,Woman
57,223712,DepthScenes,duration_manipulation_targetAtFixation,jsons/v1_VE250_randls_71_rotated.json,http://54.235.29.9/FacialAge/BNav_EC2/DepthDuration/v2_depth_duration_MTurk/v2_DepthDuration_HTML.html#19,19,1024,768,1024,768,8-30-2022,9-53-36,58,depth_duration_stimuli/000635_2014-06-08_16-38-42_260595134347_rgbf000106-resize_1/000635_2014-06-08_16-38-42_260595134347_rgbf000106-resize_1-target.png,250,2.074,5,5853,249,meters,jsons/v1_VE250_randls_71_rotated.json,1121121,1278124,30,Woman
58,223712,DepthScenes,duration_manipulation_targetAtFixation,jsons/v1_VE250_randls_71_rotated.json,http://54.235.29.9/FacialAge/BNav_EC2/DepthDuration/v2_depth_duration_MTurk/v2_DepthDuration_HTML.html#19,19,1024,768,1024,768,8-30-2022,9-53-36,59,depth_duration_stimuli/002279_2014-06-28_18-55-32_260595134347_rgbf000040-resize_5/002279_2014-06-28_18-55-32_260595134347_rgbf000040-resize_5-target.png,250,1.5043333333333,5,2610,250,meters,jsons/v1_VE250_randls_71_rotated.json,1121121,1278124,30,Woman
59,223712,DepthScenes,duration_manipulation_targetAtFixation,jsons/v1_VE250_randls_71_rotated.json,http://54.235.29.9/FacialAge/BNav_EC2/DepthDuration/v2_depth_duration_MTurk/v2_DepthDuration_HTML.html#19,19,1024,768,1024,768,8-30-2022,9-53-36,60,depth_duration_stimuli/003338_2014-05-20_11-01-23_094959634447_rgbf000051-resize_6/003338_2014-05-20_11-01-23_094959634447_rgbf000051-resize_6-target.png,250,1.693,5,2845,256,meters,jsons/v1_VE250_randls_71_rotated.json,1121121,1278124,30,Woman
60,223712,DepthScenes,duration_manipulation_targetAtFixation,jsons/v1_VE250_randls_71_rotated.json,http://54.235.29.9/FacialAge/BNav_EC2/DepthDuration/v2_depth_duration_MTurk/v2_DepthDuration_HTML.html#19,19,1024,768,1024,768,8-30-2022,9-53-36,61,depth_duration_stimuli/002509_2014-06-24_13-19-22_094959634447_rgbf000077-resize_0/002509_2014-06-24_13-19-22_094959634447_rgbf000077-resize_0-target.png,250,1.3065,5,2643,254,meters,jsons/v1_VE250_randls_71_rotated.json,1121121,1278124,30,Woman
61,223712,DepthScenes,duration_manipulation_targetAtFixation,jsons/v1_VE250_randls_71_rotated.json,http://54.235.29.9/FacialAge/BNav_EC2/DepthDuration/v2_depth_duration_MTurk/v2_DepthDuration_HTML.html#19,19,1024,768,1024,768,8-30-2022,9-53-36,62,depth_duration_stimuli/000191_2014-05-12_17-07-38_260595134347_rgbf000199-resize_0/000191_2014-05-12_17-07-38_260595134347_rgbf000199-resize_0-target.png,250,3.7995,5,3575,245,meters,jsons/v1_VE250_randls_71_rotated.json,1121121,1278124,30,Woman
62,223712,DepthScenes,duration_manipulation_targetAtFixation,jsons/v1_VE250_randls_71_rotated.json,http://54.235.29.9/FacialAge/BNav_EC2/DepthDuration/v2_depth_duration_MTurk/v2_DepthDuration_HTML.html#19,19,1024,768,1024,768,8-30-2022,9-53-36,63,depth_duration_stimuli/000493_2014-06-09_21-01-18_260595134347_rgbf000196-resize_3/000493_2014-06-09_21-01-18_260595134347_rgbf000196-resize_3-target.png,250,3.44,5,2516,253,meters,jsons/v1_VE250_randls_71_rotated.json,1121121,1278124,30,Woman
63,223712,DepthScenes,duration_manipulation_targetAtFixation,jsons/v1_VE250_randls_71_rotated.json,http://54.235.29.9/FacialAge/BNav_EC2/DepthDuration/v2_depth_duration_MTurk/v2_DepthDuration_HTML.html#19,19,1024,768,1024,768,8-30-2022,9-53-36,64,depth_duration_stimuli/000691_2014-06-08_13-08-50_260595134347_rgbf000132-resize_3/000691_2014-06-08_13-08-50_260595134347_rgbf000132-resize_3-target.png,250,4.1530000000000005,5,3913,249,meters,jsons/v1_VE250_randls_71_rotated.json,1121121,1278124,30,Woman
64,223712,DepthScenes,duration_manipulation_targetAtFixation,jsons/v1_VE250_randls_71_rotated.json,http://54.235.29.9/FacialAge/BNav_EC2/DepthDuration/v2_depth_duration_MTurk/v2_DepthDuration_HTML.html#19,19,1024,768,1024,768,8-30-2022,9-53-36,65,depth_duration_stimuli/002213_2014-06-28_18-37-58_260595134347_rgbf000055-resize_1/002213_2014-06-28_18-37-58_260595134347_rgbf000055-resize_1-target.png,250,3.62,5,2817,252,meters,jsons/v1_VE250_randls_71_rotated.json,1121121,1278124,30,Woman
65,223712,DepthScenes,duration_manipulation_targetAtFixation,jsons/v1_VE250_randls_71_rotated.json,http://54.235.29.9/FacialAge/BNav_EC2/DepthDuration/v2_depth_duration_MTurk/v2_DepthDuration_HTML.html#19,19,1024,768,1024,768,8-30-2022,9-53-36,66,depth_duration_stimuli/001540_2014-06-20_17-01-05_260595134347_rgbf000086-resize_2/001540_2014-06-20_17-01-05_260595134347_rgbf000086-resize-original.jpg,250,1.459,2,7459,264,meters,jsons/v1_VE250_randls_71_rotated.json,1121121,1278124,30,Woman
66,223712,DepthScenes,duration_manipulation_targetAtFixation,jsons/v1_VE250_randls_71_rotated.json,http://54.235.29.9/FacialAge/BNav_EC2/DepthDuration/v2_depth_duration_MTurk/v2_DepthDuration_HTML.html#19,19,1024,768,1024,768,8-30-2022,9-53-36,67,depth_duration_stimuli/000137_2014-05-20_17-04-49_260595134347_rgbf000120-resize_1/000137_2014-05-20_17-04-49_260595134347_rgbf000120-resize_1-target.png,250,3.786,2,3478,238,meters,jsons/v1_VE250_randls_71_rotated.json,1121121,1278124,30,Woman
67,223712,DepthScenes,duration_manipulation_targetAtFixation,jsons/v1_VE250_randls_71_rotated.json,http://54.235.29.9/FacialAge/BNav_EC2/DepthDuration/v2_depth_duration_MTurk/v2_DepthDuration_HTML.html#19,19,1024,768,1024,768,8-30-2022,9-53-36,68,depth_duration_stimuli/000736_2014-06-08_18-24-15_260595134347_rgbf000206-resize_3/000736_2014-06-08_18-24-15_260595134347_rgbf000206-resize_3-target.png,250,3.515,3,3330,251,meters,jsons/v1_VE250_randls_71_rotated.json,1121121,1278124,30,Woman
68,223712,DepthScenes,duration_manipulation_targetAtFixation,jsons/v1_VE250_randls_71_rotated.json,http://54.235.29.9/FacialAge/BNav_EC2/DepthDuration/v2_depth_duration_MTurk/v2_DepthDuration_HTML.html#19,19,1024,768,1024,768,8-30-2022,9-53-36,69,depth_duration_stimuli/001100_2014-06-15_17-46-26_260595134347_rgbf000225-resize_2/001100_2014-06-15_17-46-26_260595134347_rgbf000225-resize_2-target.png,250,2.24,2,3589,258,meters,jsons/v1_VE250_randls_71_rotated.json,1121121,1278124,30,Woman
69,223712,DepthScenes,duration_manipulation_targetAtFixation,jsons/v1_VE250_randls_71_rotated.json,http://54.235.29.9/FacialAge/BNav_EC2/DepthDuration/v2_depth_duration_MTurk/v2_DepthDuration_HTML.html#19,19,1024,768,1024,768,8-30-2022,9-53-36,70,depth_duration_stimuli/002784_2014-06-22_19-26-30_094959634447_rgbf000083-resize_3/002784_2014-06-22_19-26-30_094959634447_rgbf000083-resize_3-target.png,250,1.8046666666667,2,3151,249,meters,jsons/v1_VE250_randls_71_rotated.json,1121121,1278124,30,Woman
70,223712,DepthScenes,duration_manipulation_targetAtFixation,jsons/v1_VE250_randls_71_rotated.json,http://54.235.29.9/FacialAge/BNav_EC2/DepthDuration/v2_depth_duration_MTurk/v2_DepthDuration_HTML.html#19,19,1024,768,1024,768,8-30-2022,9-53-36,71,depth_duration_stimuli/001032_2014-06-08_13-23-17_260595134347_rgbf000021-resize_3/001032_2014-06-08_13-23-17_260595134347_rgbf000021-resize_3-target.png,250,3.2725,3,3476,252,meters,jsons/v1_VE250_randls_71_rotated.json,1121121,1278124,30,Woman
71,223712,DepthScenes,duration_manipulation_targetAtFixation,jsons/v1_VE250_randls_71_rotated.json,http://54.235.29.9/FacialAge/BNav_EC2/DepthDuration/v2_depth_duration_MTurk/v2_DepthDuration_HTML.html#19,19,1024,768,1024,768,8-30-2022,9-53-36,72,depth_duration_stimuli/001059_2014-06-08_21-53-27_260595134347_rgbf000061-resize_4/001059_2014-06-08_21-53-27_260595134347_rgbf000061-resize_4-target.png,250,2.4185,2,4032,249,meters,jsons/v1_VE250_randls_71_rotated.json,1121121,1278124,30,Woman
72,223712,DepthScenes,duration_manipulation_targetAtFixation,jsons/v1_VE250_randls_71_rotated.json,http://54.235.29.9/FacialAge/BNav_EC2/DepthDuration/v2_depth_duration_MTurk/v2_DepthDuration_HTML.html#19,19,1024,768,1024,768,8-30-2022,9-53-36,73,depth_duration_stimuli/002414_2014-06-28_20-24-58_260595134347_rgbf000067-resize_4/002414_2014-06-28_20-24-58_260595134347_rgbf000067-resize_4-target.png,250,4.363,2,11267,250,meters,jsons/v1_VE250_randls_71_rotated.json,1121121,1278124,30,Woman
73,223712,DepthScenes,duration_manipulation_targetAtFixation,jsons/v1_VE250_randls_71_rotated.json,http://54.235.29.9/FacialAge/BNav_EC2/DepthDuration/v2_depth_duration_MTurk/v2_DepthDuration_HTML.html#19,19,1024,768,1024,768,8-30-2022,9-53-36,74,depth_duration_stimuli/000773_2014-06-08_22-24-54_260595134347_rgbf000093-resize_1/000773_2014-06-08_22-24-54_260595134347_rgbf000093-resize_1-target.png,250,4.973,2,3513,249,meters,jsons/v1_VE250_randls_71_rotated.json,1121121,1278124,30,Woman
74,223712,DepthScenes,duration_manipulation_targetAtFixation,jsons/v1_VE250_randls_71_rotated.json,http://54.235.29.9/FacialAge/BNav_EC2/DepthDuration/v2_depth_duration_MTurk/v2_DepthDuration_HTML.html#19,19,1024,768,1024,768,8-30-2022,9-53-36,75,depth_duration_stimuli/003081_2014-06-15_15-19-16_094959634447_rgbf000150-resize_1/003081_2014-06-15_15-19-16_094959634447_rgbf000150-resize_1-target.png,250,3.9125,2,11961,249,meters,jsons/v1_VE250_randls_71_rotated.json,1121121,1278124,30,Woman
75,223712,DepthScenes,duration_manipulation_targetAtFixation,jsons/v1_VE250_randls_71_rotated.json,http://54.235.29.9/FacialAge/BNav_EC2/DepthDuration/v2_depth_duration_MTurk/v2_DepthDuration_HTML.html#19,19,1024,768,1024,768,8-30-2022,9-53-36,76,depth_duration_stimuli/001417_2014-06-19_16-25-36_260595134347_rgbf000115-resize_5/001417_2014-06-19_16-25-36_260595134347_rgbf000115-resize_5-target.png,250,4.6255,2,8283,261,meters,jsons/v1_VE250_randls_71_rotated.json,1121121,1278124,30,Woman
76,223712,DepthScenes,duration_manipulation_targetAtFixation,jsons/v1_VE250_randls_71_rotated.json,http://54.235.29.9/FacialAge/BNav_EC2/DepthDuration/v2_depth_duration_MTurk/v2_DepthDuration_HTML.html#19,19,1024,768,1024,768,8-30-2022,9-53-36,77,depth_duration_stimuli/000502_2014-06-08_23-02-32_260595134347_rgbf000063-resize_4/000502_2014-06-08_23-02-32_260595134347_rgbf000063-resize_4-target.png,250,2.431,5,5192,246,meters,jsons/v1_VE250_randls_71_rotated.json,1121121,1278124,30,Woman
77,223712,DepthScenes,duration_manipulation_targetAtFixation,jsons/v1_VE250_randls_71_rotated.json,http://54.235.29.9/FacialAge/BNav_EC2/DepthDuration/v2_depth_duration_MTurk/v2_DepthDuration_HTML.html#19,19,1024,768,1024,768,8-30-2022,9-53-36,78,depth_duration_stimuli/001199_2014-06-17_16-03-48_260595134347_rgbf000077-resize_0/001199_2014-06-17_16-03-48_260595134347_rgbf000077-resize_0-target.png,250,3.4375,2,4307,245,meters,jsons/v1_VE250_randls_71_rotated.json,1121121,1278124,30,Woman
78,223712,DepthScenes,duration_manipulation_targetAtFixation,jsons/v1_VE250_randls_71_rotated.json,http://54.235.29.9/FacialAge/BNav_EC2/DepthDuration/v2_depth_duration_MTurk/v2_DepthDuration_HTML.html#19,19,1024,768,1024,768,8-30-2022,9-53-36,79,depth_duration_stimuli/003129_2014-05-12_10-48-10_094959634447_rgbf000100-resize_0/003129_2014-05-12_10-48-10_094959634447_rgbf000100-resize_0-target.png,250,4.9305,2,2793,254,meters,jsons/v1_VE250_randls_71_rotated.json,1121121,1278124,30,Woman
79,223712,DepthScenes,duration_manipulation_targetAtFixation,jsons/v1_VE250_randls_71_rotated.json,http://54.235.29.9/FacialAge/BNav_EC2/DepthDuration/v2_depth_duration_MTurk/v2_DepthDuration_HTML.html#19,19,1024,768,1024,768,8-30-2022,9-53-36,80,depth_duration_stimuli/000414_2014-06-04_19-49-13_260595134347_rgbf000044-resize_0/000414_2014-06-04_19-49-13_260595134347_rgbf000044-resize_0-target.png,250,4.329,2,3330,262,meters,jsons/v1_VE250_randls_71_rotated.json,1121121,1278124,30,Woman
80,223712,DepthScenes,duration_manipulation_targetAtFixation,jsons/v1_VE250_randls_71_rotated.json,http://54.235.29.9/FacialAge/BNav_EC2/DepthDuration/v2_depth_duration_MTurk/v2_DepthDuration_HTML.html#19,19,1024,768,1024,768,8-30-2022,9-53-36,81,depth_duration_stimuli/001450_2014-06-19_17-02-03_260595134347_rgbf000203-resize_4/001450_2014-06-19_17-02-03_260595134347_rgbf000203-resize_4-target.png,250,4.0106666666667,2,5212,245,meters,jsons/v1_VE250_randls_71_rotated.json,1121121,1278124,30,Woman
81,223712,DepthScenes,duration_manipulation_targetAtFixation,jsons/v1_VE250_randls_71_rotated.json,http://54.235.29.9/FacialAge/BNav_EC2/DepthDuration/v2_depth_duration_MTurk/v2_DepthDuration_HTML.html#19,19,1024,768,1024,768,8-30-2022,9-53-36,82,depth_duration_stimuli/001449_2014-06-19_17-01-27_260595134347_rgbf000116-resize_2/001449_2014-06-19_17-01-27_260595134347_rgbf000116-resize_2-target.png,250,3.452,2,7901,245,meters,jsons/v1_VE250_randls_71_rotated.json,1121121,1278124,30,Woman
82,223712,DepthScenes,duration_manipulation_targetAtFixation,jsons/v1_VE250_randls_71_rotated.json,http://54.235.29.9/FacialAge/BNav_EC2/DepthDuration/v2_depth_duration_MTurk/v2_DepthDuration_HTML.html#19,19,1024,768,1024,768,8-30-2022,9-53-36,83,depth_duration_stimuli/002949_2014-06-26_15-57-42_094959634447_rgbf000079-resize_1/002949_2014-06-26_15-57-42_094959634447_rgbf000079-resize_1-target.png,250,1.8915,2,22153,249,meters,jsons/v1_VE250_randls_71_rotated.json,1121121,1278124,30,Woman
83,223712,DepthScenes,duration_manipulation_targetAtFixation,jsons/v1_VE250_randls_71_rotated.json,http://54.235.29.9/FacialAge/BNav_EC2/DepthDuration/v2_depth_duration_MTurk/v2_DepthDuration_HTML.html#19,19,1024,768,1024,768,8-30-2022,9-53-36,84,depth_duration_stimuli/000522_2014-06-08_13-35-06_260595134347_rgbf000244-resize_1/000522_2014-06-08_13-35-06_260595134347_rgbf000244-resize_1-target.png,250,2.3715,3,2887,250,meters,jsons/v1_VE250_randls_71_rotated.json,1121121,1278124,30,Woman
84,223712,DepthScenes,duration_manipulation_targetAtFixation,jsons/v1_VE250_randls_71_rotated.json,http://54.235.29.9/FacialAge/BNav_EC2/DepthDuration/v2_depth_duration_MTurk/v2_DepthDuration_HTML.html#19,19,1024,768,1024,768,8-30-2022,9-53-36,85,depth_duration_stimuli/003490_2014-05-21_15-50-11_094959634447_rgbf000101-resize_3/003490_2014-05-21_15-50-11_094959634447_rgbf000101-resize_3-target.png,250,3.6445,3,3565,251,meters,jsons/v1_VE250_randls_71_rotated.json,1121121,1278124,30,Woman
85,223712,DepthScenes,duration_manipulation_targetAtFixation,jsons/v1_VE250_randls_71_rotated.json,http://54.235.29.9/FacialAge/BNav_EC2/DepthDuration/v2_depth_duration_MTurk/v2_DepthDuration_HTML.html#19,19,1024,768,1024,768,8-30-2022,9-53-36,86,depth_duration_stimuli/001175_2014-06-17_15-45-55_260595134347_rgbf000129-resize_4/001175_2014-06-17_15-45-55_260595134347_rgbf000129-resize_4-target.png,250,4.255,2,3339,253,meters,jsons/v1_VE250_randls_71_rotated.json,1121121,1278124,30,Woman
86,223712,DepthScenes,duration_manipulation_targetAtFixation,jsons/v1_VE250_randls_71_rotated.json,http://54.235.29.9/FacialAge/BNav_EC2/DepthDuration/v2_depth_duration_MTurk/v2_DepthDuration_HTML.html#19,19,1024,768,1024,768,8-30-2022,9-53-36,87,depth_duration_stimuli/000927_2014-06-09_16-32-30_260595134347_rgbf000123-resize_3/000927_2014-06-09_16-32-30_260595134347_rgbf000123-resize_3-target.png,250,2.6785,5,2892,256,meters,jsons/v1_VE250_randls_71_rotated.json,1121121,1278124,30,Woman
87,223712,DepthScenes,duration_manipulation_targetAtFixation,jsons/v1_VE250_randls_71_rotated.json,http://54.235.29.9/FacialAge/BNav_EC2/DepthDuration/v2_depth_duration_MTurk/v2_DepthDuration_HTML.html#19,19,1024,768,1024,768,8-30-2022,9-53-36,88,depth_duration_stimuli/001110_2014-06-15_17-25-28_260595134347_rgbf000150-resize_1/001110_2014-06-15_17-25-28_260595134347_rgbf000150-resize_1-target.png,250,1.7115,2,3146,253,meters,jsons/v1_VE250_randls_71_rotated.json,1121121,1278124,30,Woman
88,223712,DepthScenes,duration_manipulation_targetAtFixation,jsons/v1_VE250_randls_71_rotated.json,http://54.235.29.9/FacialAge/BNav_EC2/DepthDuration/v2_depth_duration_MTurk/v2_DepthDuration_HTML.html#19,19,1024,768,1024,768,8-30-2022,9-53-36,89,depth_duration_stimuli/000109_2014-05-14_23-41-52_260595134347_rgbf000035-resize_9/000109_2014-05-14_23-41-52_260595134347_rgbf000035-resize_9-target.png,250,1.3545,5,3261,241,meters,jsons/v1_VE250_randls_71_rotated.json,1121121,1278124,30,Woman
89,223712,DepthScenes,duration_manipulation_targetAtFixation,jsons/v1_VE250_randls_71_rotated.json,http://54.235.29.9/FacialAge/BNav_EC2/DepthDuration/v2_depth_duration_MTurk/v2_DepthDuration_HTML.html#19,19,1024,768,1024,768,8-30-2022,9-53-36,90,depth_duration_stimuli/000470_2014-06-09_19-42-40_260595134347_rgbf000094-resize_1/000470_2014-06-09_19-42-40_260595134347_rgbf000094-resize_1-target.png,250,1.831,5,2730,254,meters,jsons/v1_VE250_randls_71_rotated.json,1121121,1278124,30,Woman
90,223712,DepthScenes,duration_manipulation_targetAtFixation,jsons/v1_VE250_randls_71_rotated.json,http://54.235.29.9/FacialAge/BNav_EC2/DepthDuration/v2_depth_duration_MTurk/v2_DepthDuration_HTML.html#19,19,1024,768,1024,768,8-30-2022,9-53-36,91,depth_duration_stimuli/003495_2014-05-21_16-01-51_094959634447_rgbf000100-resize_3/003495_2014-05-21_16-01-51_094959634447_rgbf000100-resize_3-target.png,250,1.6255,2,2744,248,meters,jsons/v1_VE250_randls_71_rotated.json,1121121,1278124,30,Woman
91,223712,DepthScenes,duration_manipulation_targetAtFixation,jsons/v1_VE250_randls_71_rotated.json,http://54.235.29.9/FacialAge/BNav_EC2/DepthDuration/v2_depth_duration_MTurk/v2_DepthDuration_HTML.html#19,19,1024,768,1024,768,8-30-2022,9-53-36,92,depth_duration_stimuli/001244_2014-06-17_16-47-45_260595134347_rgbf000030-resize_4/001244_2014-06-17_16-47-45_260595134347_rgbf000030-resize_4-target.png,250,2.0425,2,3772,251,meters,jsons/v1_VE250_randls_71_rotated.json,1121121,1278124,30,Woman
92,223712,DepthScenes,duration_manipulation_targetAtFixation,jsons/v1_VE250_randls_71_rotated.json,http://54.235.29.9/FacialAge/BNav_EC2/DepthDuration/v2_depth_duration_MTurk/v2_DepthDuration_HTML.html#19,19,1024,768,1024,768,8-30-2022,9-53-36,93,depth_duration_stimuli/002340_2014-06-28_20-05-46_260595134347_rgbf000113-resize_0/002340_2014-06-28_20-05-46_260595134347_rgbf000113-resize_0-target.png,250,2.4735,2,3969,252,meters,jsons/v1_VE250_randls_71_rotated.json,1121121,1278124,30,Woman
93,223712,DepthScenes,duration_manipulation_targetAtFixation,jsons/v1_VE250_randls_71_rotated.json,http://54.235.29.9/FacialAge/BNav_EC2/DepthDuration/v2_depth_duration_MTurk/v2_DepthDuration_HTML.html#19,19,1024,768,1024,768,8-30-2022,9-53-36,94,depth_duration_stimuli/001016_2014-06-09_16-16-10_260595134347_rgbf000112-resize_5/001016_2014-06-09_16-16-10_260595134347_rgbf000112-resize_5-target.png,250,1.6565,2,3206,249,meters,jsons/v1_VE250_randls_71_rotated.json,1121121,1278124,30,Woman
94,223712,DepthScenes,duration_manipulation_targetAtFixation,jsons/v1_VE250_randls_71_rotated.json,http://54.235.29.9/FacialAge/BNav_EC2/DepthDuration/v2_depth_duration_MTurk/v2_DepthDuration_HTML.html#19,19,1024,768,1024,768,8-30-2022,9-53-36,95,depth_duration_stimuli/001136_2014-06-17_15-19-41_260595134347_rgbf000076-resize_3/001136_2014-06-17_15-19-41_260595134347_rgbf000076-resize_3-target.png,250,1.8655,2,3852,250,meters,jsons/v1_VE250_randls_71_rotated.json,1121121,1278124,30,Woman
95,223712,DepthScenes,duration_manipulation_targetAtFixation,jsons/v1_VE250_randls_71_rotated.json,http://54.235.29.9/FacialAge/BNav_EC2/DepthDuration/v2_depth_duration_MTurk/v2_DepthDuration_HTML.html#19,19,1024,768,1024,768,8-30-2022,9-53-36,96,depth_duration_stimuli/001164_2014-06-17_15-35-46_260595134347_rgbf000085-resize_3/001164_2014-06-17_15-35-46_260595134347_rgbf000085-resize_3-target.png,250,2.354,2,4015,250,meters,jsons/v1_VE250_randls_71_rotated.json,1121121,1278124,30,Woman
96,223712,DepthScenes,duration_manipulation_targetAtFixation,jsons/v1_VE250_randls_71_rotated.json,http://54.235.29.9/FacialAge/BNav_EC2/DepthDuration/v2_depth_duration_MTurk/v2_DepthDuration_HTML.html#19,19,1024,768,1024,768,8-30-2022,9-53-36,97,depth_duration_stimuli/003083_2014-06-15_15-21-03_094959634447_rgbf000063-resize_1/003083_2014-06-15_15-21-03_094959634447_rgbf000063-resize_1-target.png,250,4.1405,21,3628,249,meters,jsons/v1_VE250_randls_71_rotated.json,1121121,1278124,30,Woman
97,223712,DepthScenes,duration_manipulation_targetAtFixation,jsons/v1_VE250_randls_71_rotated.json,http://54.235.29.9/FacialAge/BNav_EC2/DepthDuration/v2_depth_duration_MTurk/v2_DepthDuration_HTML.html#19,19,1024,768,1024,768,8-30-2022,9-53-36,98,depth_duration_stimuli/000486_2014-06-09_20-47-20_260595134347_rgbf000143-resize_2/000486_2014-06-09_20-47-20_260595134347_rgbf000143-resize_2-target.png,250,4.8325,23,5543,253,meters,jsons/v1_VE250_randls_71_rotated.json,1121121,1278124,30,Woman
98,223712,DepthScenes,duration_manipulation_targetAtFixation,jsons/v1_VE250_randls_71_rotated.json,http://54.235.29.9/FacialAge/BNav_EC2/DepthDuration/v2_depth_duration_MTurk/v2_DepthDuration_HTML.html#19,19,1024,768,1024,768,8-30-2022,9-53-36,99,depth_duration_stimuli/001222_2014-06-17_16-24-06_260595134347_rgbf000073-resize_0/001222_2014-06-17_16-24-06_260595134347_rgbf000073-resize-original.jpg,250,1.4385,2,3839,250,meters,jsons/v1_VE250_randls_71_rotated.json,1121121,1278124,30,Woman
99,223712,DepthScenes,duration_manipulation_targetAtFixation,jsons/v1_VE250_randls_71_rotated.json,http://54.235.29.9/FacialAge/BNav_EC2/DepthDuration/v2_depth_duration_MTurk/v2_DepthDuration_HTML.html#19,19,1024,768,1024,768,8-30-2022,9-53-36,100,depth_duration_stimuli/002758_2014-06-22_19-11-20_094959634447_rgbf000128-resize_1/002758_2014-06-22_19-11-20_094959634447_rgbf000128-resize_1-target.png,250,2.555,2,3818,250,meters,jsons/v1_VE250_randls_71_rotated.json,1121121,1278124,30,Woman
100,223712,DepthScenes,duration_manipulation_targetAtFixation,jsons/v1_VE250_randls_71_rotated.json,http://54.235.29.9/FacialAge/BNav_EC2/DepthDuration/v2_depth_duration_MTurk/v2_DepthDuration_HTML.html#19,19,1024,768,1024,768,8-30-2022,9-53-36,101,depth_duration_stimuli/002630_2014-06-24_14-47-50_094959634447_rgbf000055-resize_1/002630_2014-06-24_14-47-50_094959634447_rgbf000055-resize_1-target.png,250,3.0095,52,11041,244,meters,jsons/v1_VE250_randls_71_rotated.json,1121121,1278124,30,Woman
101,223712,DepthScenes,duration_manipulation_targetAtFixation,jsons/v1_VE250_randls_71_rotated.json,http://54.235.29.9/FacialAge/BNav_EC2/DepthDuration/v2_depth_duration_MTurk/v2_DepthDuration_HTML.html#19,19,1024,768,1024,768,8-30-2022,9-53-36,102,depth_duration_stimuli/002639_2014-06-24_14-51-37_094959634447_rgbf000074-resize_4/002639_2014-06-24_14-51-37_094959634447_rgbf000074-resize_4-target.png,250,4.0375,2,5790,252,meters,jsons/v1_VE250_randls_71_rotated.json,1121121,1278124,30,Woman
102,223712,DepthScenes,duration_manipulation_targetAtFixation,jsons/v1_VE250_randls_71_rotated.json,http://54.235.29.9/FacialAge/BNav_EC2/DepthDuration/v2_depth_duration_MTurk/v2_DepthDuration_HTML.html#19,19,1024,768,1024,768,8-30-2022,9-53-36,103,depth_duration_stimuli/003292_2014-05-14_21-53-49_094959634447_rgbf000100-resize_2/003292_2014-05-14_21-53-49_094959634447_rgbf000100-resize_2-target.png,250,3.4815,3,3773,253,meters,jsons/v1_VE250_randls_71_rotated.json,1121121,1278124,30,Woman
103,223712,DepthScenes,duration_manipulation_targetAtFixation,jsons/v1_VE250_randls_71_rotated.json,http://54.235.29.9/FacialAge/BNav_EC2/DepthDuration/v2_depth_duration_MTurk/v2_DepthDuration_HTML.html#19,19,1024,768,1024,768,8-30-2022,9-53-36,104,depth_duration_stimuli/001235_2014-06-17_16-37-36_260595134347_rgbf000084-resize_4/001235_2014-06-17_16-37-36_260595134347_rgbf000084-resize_4-target.png,250,3.6605,2,3897,242,meters,jsons/v1_VE250_randls_71_rotated.json,1121121,1278124,30,Woman
104,223712,DepthScenes,duration_manipulation_targetAtFixation,jsons/v1_VE250_randls_71_rotated.json,http://54.235.29.9/FacialAge/BNav_EC2/DepthDuration/v2_depth_duration_MTurk/v2_DepthDuration_HTML.html#19,19,1024,768,1024,768,8-30-2022,9-53-36,105,depth_duration_stimuli/000788_2014-06-08_22-34-36_260595134347_rgbf000131-resize_1/000788_2014-06-08_22-34-36_260595134347_rgbf000131-resize_1-target.png,250,3.359,2,4064,253,meters,jsons/v1_VE250_randls_71_rotated.json,1121121,1278124,30,Woman
105,223712,DepthScenes,duration_manipulation_targetAtFixation,jsons/v1_VE250_randls_71_rotated.json,http://54.235.29.9/FacialAge/BNav_EC2/DepthDuration/v2_depth_duration_MTurk/v2_DepthDuration_HTML.html#19,19,1024,768,1024,768,8-30-2022,9-53-36,106,depth_duration_stimuli/003010_2014-06-15_12-54-35_094959634447_rgbf000112-resize_0/003010_2014-06-15_12-54-35_094959634447_rgbf000112-resize_0-target.png,250,3.1185,2,2663,246,meters,jsons/v1_VE250_randls_71_rotated.json,1121121,1278124,30,Woman
106,223712,DepthScenes,duration_manipulation_targetAtFixation,jsons/v1_VE250_randls_71_rotated.json,http://54.235.29.9/FacialAge/BNav_EC2/DepthDuration/v2_depth_duration_MTurk/v2_DepthDuration_HTML.html#19,19,1024,768,1024,768,8-30-2022,9-53-36,107,depth_duration_stimuli/001810_2014-06-26_20-51-35_260595134347_rgbf000040-resize_3/001810_2014-06-26_20-51-35_260595134347_rgbf000040-resize_3-target.png,250,2.2525,2,3530,250,meters,jsons/v1_VE250_randls_71_rotated.json,1121121,1278124,30,Woman
107,223712,DepthScenes,duration_manipulation_targetAtFixation,jsons/v1_VE250_randls_71_rotated.json,http://54.235.29.9/FacialAge/BNav_EC2/DepthDuration/v2_depth_duration_MTurk/v2_DepthDuration_HTML.html#19,19,1024,768,1024,768,8-30-2022,9-53-36,108,depth_duration_stimuli/002657_2014-06-13_15-29-54_094959634447_rgbf000150-resize_1/002657_2014-06-13_15-29-54_094959634447_rgbf000150-resize_1-target.png,250,4.919,2,5849,251,meters,jsons/v1_VE250_randls_71_rotated.json,1121121,1278124,30,Woman
108,223712,DepthScenes,duration_manipulation_targetAtFixation,jsons/v1_VE250_randls_71_rotated.json,http://54.235.29.9/FacialAge/BNav_EC2/DepthDuration/v2_depth_duration_MTurk/v2_DepthDuration_HTML.html#19,19,1024,768,1024,768,8-30-2022,9-53-36,109,depth_duration_stimuli/002375_2014-06-28_20-13-44_260595134347_rgbf000032-resize_1/002375_2014-06-28_20-13-44_260595134347_rgbf000032-resize_1-target.png,250,4.0175,2,3635,260,meters,jsons/v1_VE250_randls_71_rotated.json,1121121,1278124,30,Woman
109,223712,DepthScenes,duration_manipulation_targetAtFixation,jsons/v1_VE250_randls_71_rotated.json,http://54.235.29.9/FacialAge/BNav_EC2/DepthDuration/v2_depth_duration_MTurk/v2_DepthDuration_HTML.html#19,19,1024,768,1024,768,8-30-2022,9-53-36,110,depth_duration_stimuli/002660_2014-06-13_15-44-18_094959634447_rgbf001878-resize_2/002660_2014-06-13_15-44-18_094959634447_rgbf001878-resize_2-target.png,250,3.576,3,3503,235,meters,jsons/v1_VE250_randls_71_rotated.json,1121121,1278124,30,Woman
110,223712,DepthScenes,duration_manipulation_targetAtFixation,jsons/v1_VE250_randls_71_rotated.json,http://54.235.29.9/FacialAge/BNav_EC2/DepthDuration/v2_depth_duration_MTurk/v2_DepthDuration_HTML.html#19,19,1024,768,1024,768,8-30-2022,9-53-36,111,depth_duration_stimuli/002153_2014-06-25_21-27-18_260595134347_rgbf000038-resize_5/002153_2014-06-25_21-27-18_260595134347_rgbf000038-resize_5-target.png,250,2.505,2,3773,252,meters,jsons/v1_VE250_randls_71_rotated.json,1121121,1278124,30,Woman
111,223712,DepthScenes,duration_manipulation_targetAtFixation,jsons/v1_VE250_randls_71_rotated.json,http://54.235.29.9/FacialAge/BNav_EC2/DepthDuration/v2_depth_duration_MTurk/v2_DepthDuration_HTML.html#19,19,1024,768,1024,768,8-30-2022,9-53-36,112,depth_duration_stimuli/000556_2014-06-09_22-42-56_260595134347_rgbf000214-resize_1/000556_2014-06-09_22-42-56_260595134347_rgbf000214-resize_1-target.png,250,4.8415,2,3701,246,meters,jsons/v1_VE250_randls_71_rotated.json,1121121,1278124,30,Woman
112,223712,DepthScenes,duration_manipulation_targetAtFixation,jsons/v1_VE250_randls_71_rotated.json,http://54.235.29.9/FacialAge/BNav_EC2/DepthDuration/v2_depth_duration_MTurk/v2_DepthDuration_HTML.html#19,19,1024,768,1024,768,8-30-2022,9-53-36,113,depth_duration_stimuli/001158_2014-06-17_15-32-16_260595134347_rgbf000138-resize_2/001158_2014-06-17_15-32-16_260595134347_rgbf000138-resize_2-target.png,250,4.5315,2,2853,251,meters,jsons/v1_VE250_randls_71_rotated.json,1121121,1278124,30,Woman
113,223712,DepthScenes,duration_manipulation_targetAtFixation,jsons/v1_VE250_randls_71_rotated.json,http://54.235.29.9/FacialAge/BNav_EC2/DepthDuration/v2_depth_duration_MTurk/v2_DepthDuration_HTML.html#19,19,1024,768,1024,768,8-30-2022,9-53-36,114,depth_duration_stimuli/001828_2014-06-26_21-40-03_260595134347_rgbf000024-resize_0/001828_2014-06-26_21-40-03_260595134347_rgbf000024-resize_0-target.png,250,4.8260000000000005,2,49111,251,meters,jsons/v1_VE250_randls_71_rotated.json,1121121,1278124,30,Woman
114,223712,DepthScenes,duration_manipulation_targetAtFixation,jsons/v1_VE250_randls_71_rotated.json,http://54.235.29.9/FacialAge/BNav_EC2/DepthDuration/v2_depth_duration_MTurk/v2_DepthDuration_HTML.html#19,19,1024,768,1024,768,8-30-2022,9-53-36,115,depth_duration_stimuli/000009_2014-05-26_14-32-05_260595134347_rgbf000034-resize_3/000009_2014-05-26_14-32-05_260595134347_rgbf000034-resize_3-target.png,250,3.8715,2,9235,255,meters,jsons/v1_VE250_randls_71_rotated.json,1121121,1278124,30,Woman
115,223712,DepthScenes,duration_manipulation_targetAtFixation,jsons/v1_VE250_randls_71_rotated.json,http://54.235.29.9/FacialAge/BNav_EC2/DepthDuration/v2_depth_duration_MTurk/v2_DepthDuration_HTML.html#19,19,1024,768,1024,768,8-30-2022,9-53-36,116,depth_duration_stimuli/000943_2014-06-09_19-31-07_260595134347_rgbf000128-resize_1/000943_2014-06-09_19-31-07_260595134347_rgbf000128-resize_1-target.png,250,1.9765,3,8891,248,meters,jsons/v1_VE250_randls_71_rotated.json,1121121,1278124,30,Woman
116,223712,DepthScenes,duration_manipulation_targetAtFixation,jsons/v1_VE250_randls_71_rotated.json,http://54.235.29.9/FacialAge/BNav_EC2/DepthDuration/v2_depth_duration_MTurk/v2_DepthDuration_HTML.html#19,19,1024,768,1024,768,8-30-2022,9-53-36,117,depth_duration_stimuli/003070_2014-06-15_14-58-27_094959634447_rgbf000150-resize_3/003070_2014-06-15_14-58-27_094959634447_rgbf000150-resize_3-target.png,250,2.9415,2,4207,249,meters,jsons/v1_VE250_randls_71_rotated.json,1121121,1278124,30,Woman
117,223712,DepthScenes,duration_manipulation_targetAtFixation,jsons/v1_VE250_randls_71_rotated.json,http://54.235.29.9/FacialAge/BNav_EC2/DepthDuration/v2_depth_duration_MTurk/v2_DepthDuration_HTML.html#19,19,1024,768,1024,768,8-30-2022,9-53-36,118,depth_duration_stimuli/002875_2014-06-01_15-19-00_094959634447_rgbf000151-resize_1/002875_2014-06-01_15-19-00_094959634447_rgbf000151-resize_1-target.png,250,1.9675,2,4352,248,meters,jsons/v1_VE250_randls_71_rotated.json,1121121,1278124,30,Woman
118,223712,DepthScenes,duration_manipulation_targetAtFixation,jsons/v1_VE250_randls_71_rotated.json,http://54.235.29.9/FacialAge/BNav_EC2/DepthDuration/v2_depth_duration_MTurk/v2_DepthDuration_HTML.html#19,19,1024,768,1024,768,8-30-2022,9-53-36,119,depth_duration_stimuli/001011_2014-06-08_23-18-54_260595134347_rgbf000044-resize_4/001011_2014-06-08_23-18-54_260595134347_rgbf000044-resize_4-target.png,250,2.4730000000000003,2,3225,248,meters,jsons/v1_VE250_randls_71_rotated.json,1121121,1278124,30,Woman
119,223712,DepthScenes,duration_manipulation_targetAtFixation,jsons/v1_VE250_randls_71_rotated.json,http://54.235.29.9/FacialAge/BNav_EC2/DepthDuration/v2_depth_duration_MTurk/v2_DepthDuration_HTML.html#19,19,1024,768,1024,768,8-30-2022,9-53-36,120,depth_duration_stimuli/000787_2014-06-08_22-33-53_260595134347_rgbf000175-resize_1/000787_2014-06-08_22-33-53_260595134347_rgbf000175-resize-original.jpg,250,4.784,2,5835,245,meters,jsons/v1_VE250_randls_71_rotated.json,1121121,1278124,30,Woman
120,223712,DepthScenes,duration_manipulation_targetAtFixation,jsons/v1_VE250_randls_71_rotated.json,http://54.235.29.9/FacialAge/BNav_EC2/DepthDuration/v2_depth_duration_MTurk/v2_DepthDuration_HTML.html#19,19,1024,768,1024,768,8-30-2022,9-53-36,121,depth_duration_stimuli/002568_2014-06-24_13-59-21_094959634447_rgbf000062-resize_4/002568_2014-06-24_13-59-21_094959634447_rgbf000062-resize_4-target.png,250,3.015,2,3403,247,meters,jsons/v1_VE250_randls_71_rotated.json,1121121,1278124,30,Woman
121,223712,DepthScenes,duration_manipulation_targetAtFixation,jsons/v1_VE250_randls_71_rotated.json,http://54.235.29.9/FacialAge/BNav_EC2/DepthDuration/v2_depth_duration_MTurk/v2_DepthDuration_HTML.html#19,19,1024,768,1024,768,8-30-2022,9-53-36,122,depth_duration_stimuli/003492_2014-05-21_15-50-55_094959634447_rgbf000828-resize_1/003492_2014-05-21_15-50-55_094959634447_rgbf000828-resize_1-target.png,250,4.06875,5,4800,249,meters,jsons/v1_VE250_randls_71_rotated.json,1121121,1278124,30,Woman
122,223712,DepthScenes,duration_manipulation_targetAtFixation,jsons/v1_VE250_randls_71_rotated.json,http://54.235.29.9/FacialAge/BNav_EC2/DepthDuration/v2_depth_duration_MTurk/v2_DepthDuration_HTML.html#19,19,1024,768,1024,768,8-30-2022,9-53-36,123,depth_duration_stimuli/001516_2014-06-20_16-25-09_260595134347_rgbf000076-resize_2/001516_2014-06-20_16-25-09_260595134347_rgbf000076-resize_2-target.png,250,1.7445,2,4328,256,meters,jsons/v1_VE250_randls_71_rotated.json,1121121,1278124,30,Woman
123,223712,DepthScenes,duration_manipulation_targetAtFixation,jsons/v1_VE250_randls_71_rotated.json,http://54.235.29.9/FacialAge/BNav_EC2/DepthDuration/v2_depth_duration_MTurk/v2_DepthDuration_HTML.html#19,19,1024,768,1024,768,8-30-2022,9-53-36,124,depth_duration_stimuli/002118_2014-06-25_20-32-08_260595134347_rgbf000078-resize_1/002118_2014-06-25_20-32-08_260595134347_rgbf000078-resize_1-target.png,250,2.6460000000000004,2,2887,246,meters,jsons/v1_VE250_randls_71_rotated.json,1121121,1278124,30,Woman
124,223712,DepthScenes,duration_manipulation_targetAtFixation,jsons/v1_VE250_randls_71_rotated.json,http://54.235.29.9/FacialAge/BNav_EC2/DepthDuration/v2_depth_duration_MTurk/v2_DepthDuration_HTML.html#19,19,1024,768,1024,768,8-30-2022,9-53-36,125,depth_duration_stimuli/000457_2014-06-08_16-52-43_260595134347_rgbf000199-resize_1/000457_2014-06-08_16-52-43_260595134347_rgbf000199-resize_1-target.png,250,3.6489999999999996,3,2784,261,meters,jsons/v1_VE250_randls_71_rotated.json,1121121,1278124,30,Woman
125,223712,DepthScenes,duration_manipulation_targetAtFixation,jsons/v1_VE250_randls_71_rotated.json,http://54.235.29.9/FacialAge/BNav_EC2/DepthDuration/v2_depth_duration_MTurk/v2_DepthDuration_HTML.html#19,19,1024,768,1024,768,8-30-2022,9-53-36,126,depth_duration_stimuli/000929_2014-06-09_16-33-19_260595134347_rgbf000139-resize_0/000929_2014-06-09_16-33-19_260595134347_rgbf000139-resize_0-target.png,250,2.8680000000000003,3,3085,250,meters,jsons/v1_VE250_randls_71_rotated.json,1121121,1278124,30,Woman
126,223712,DepthScenes,duration_manipulation_targetAtFixation,jsons/v1_VE250_randls_71_rotated.json,http://54.235.29.9/FacialAge/BNav_EC2/DepthDuration/v2_depth_duration_MTurk/v2_DepthDuration_HTML.html#19,19,1024,768,1024,768,8-30-2022,9-53-36,127,depth_duration_stimuli/001132_2014-06-17_14-48-54_260595134347_rgbf000100-resize_2/001132_2014-06-17_14-48-54_260595134347_rgbf000100-resize_2-target.png,250,3.753,2,26593,249,meters,jsons/v1_VE250_randls_71_rotated.json,1121121,1278124,30,Woman
127,223712,DepthScenes,duration_manipulation_targetAtFixation,jsons/v1_VE250_randls_71_rotated.json,http://54.235.29.9/FacialAge/BNav_EC2/DepthDuration/v2_depth_duration_MTurk/v2_DepthDuration_HTML.html#19,19,1024,768,1024,768,8-30-2022,9-53-36,128,depth_duration_stimuli/001133_2014-06-17_14-49-16_260595134347_rgbf000100-resize_0/001133_2014-06-17_14-49-16_260595134347_rgbf000100-resize_0-target.png,250,4.2115,1,8112,253,meters,jsons/v1_VE250_randls_71_rotated.json,1121121,1278124,30,Woman
128,223712,DepthScenes,duration_manipulation_targetAtFixation,jsons/v1_VE250_randls_71_rotated.json,http://54.235.29.9/FacialAge/BNav_EC2/DepthDuration/v2_depth_duration_MTurk/v2_DepthDuration_HTML.html#19,19,1024,768,1024,768,8-30-2022,9-53-36,129,depth_duration_stimuli/002444_2014-06-28_20-32-08_260595134347_rgbf000027-resize_0/002444_2014-06-28_20-32-08_260595134347_rgbf000027-resize_0-target.png,250,4.388999999999999,3,3687,248,meters,jsons/v1_VE250_randls_71_rotated.json,1121121,1278124,30,Woman
129,223712,DepthScenes,duration_manipulation_targetAtFixation,jsons/v1_VE250_randls_71_rotated.json,http://54.235.29.9/FacialAge/BNav_EC2/DepthDuration/v2_depth_duration_MTurk/v2_DepthDuration_HTML.html#19,19,1024,768,1024,768,8-30-2022,9-53-36,130,depth_duration_stimuli/000436_2014-06-09_22-25-11_260595134347_rgbf000137-resize_1/000436_2014-06-09_22-25-11_260595134347_rgbf000137-resize_1-target.png,250,4.0705,5,2900,251,meters,jsons/v1_VE250_randls_71_rotated.json,1121121,1278124,30,Woman
130,223712,DepthScenes,duration_manipulation_targetAtFixation,jsons/v1_VE250_randls_71_rotated.json,http://54.235.29.9/FacialAge/BNav_EC2/DepthDuration/v2_depth_duration_MTurk/v2_DepthDuration_HTML.html#19,19,1024,768,1024,768,8-30-2022,9-53-36,131,depth_duration_stimuli/002995_2014-06-15_12-31-26_094959634447_rgbf000150-resize_1/002995_2014-06-15_12-31-26_094959634447_rgbf000150-resize_1-target.png,250,3.8360000000000003,2,5258,252,meters,jsons/v1_VE250_randls_71_rotated.json,1121121,1278124,30,Woman
131,223712,DepthScenes,duration_manipulation_targetAtFixation,jsons/v1_VE250_randls_71_rotated.json,http://54.235.29.9/FacialAge/BNav_EC2/DepthDuration/v2_depth_duration_MTurk/v2_DepthDuration_HTML.html#19,19,1024,768,1024,768,8-30-2022,9-53-36,132,depth_duration_stimuli/002748_2014-06-22_19-07-22_094959634447_rgbf000078-resize_1/002748_2014-06-22_19-07-22_094959634447_rgbf000078-resize_1-target.png,250,4.6705,3,8339,249,meters,jsons/v1_VE250_randls_71_rotated.json,1121121,1278124,30,Woman
132,223712,DepthScenes,duration_manipulation_targetAtFixation,jsons/v1_VE250_randls_71_rotated.json,http://54.235.29.9/FacialAge/BNav_EC2/DepthDuration/v2_depth_duration_MTurk/v2_DepthDuration_HTML.html#19,19,1024,768,1024,768,8-30-2022,9-53-36,133,depth_duration_stimuli/001571_2014-06-20_17-21-32_260595134347_rgbf000089-resize_1/001571_2014-06-20_17-21-32_260595134347_rgbf000089-resize_1-target.png,250,1.86,4,11425,263,meters,jsons/v1_VE250_randls_71_rotated.json,1121121,1278124,30,Woman
133,223712,DepthScenes,duration_manipulation_targetAtFixation,jsons/v1_VE250_randls_71_rotated.json,http://54.235.29.9/FacialAge/BNav_EC2/DepthDuration/v2_depth_duration_MTurk/v2_DepthDuration_HTML.html#19,19,1024,768,1024,768,8-30-2022,9-53-36,134,depth_duration_stimuli/002272_2014-06-28_18-53-56_260595134347_rgbf000067-resize_2/002272_2014-06-28_18-53-56_260595134347_rgbf000067-resize_2-target.png,250,1.138,2,9439,249,meters,jsons/v1_VE250_randls_71_rotated.json,1121121,1278124,30,Woman
134,223712,DepthScenes,duration_manipulation_targetAtFixation,jsons/v1_VE250_randls_71_rotated.json,http://54.235.29.9/FacialAge/BNav_EC2/DepthDuration/v2_depth_duration_MTurk/v2_DepthDuration_HTML.html#19,19,1024,768,1024,768,8-30-2022,9-53-36,135,depth_duration_stimuli/000375_2014-06-08_11-17-29_260595134347_rgbf000133-resize_2/000375_2014-06-08_11-17-29_260595134347_rgbf000133-resize-original.jpg,250,4.718,2,9081,247,meters,jsons/v1_VE250_randls_71_rotated.json,1121121,1278124,30,Woman
135,223712,DepthScenes,duration_manipulation_targetAtFixation,jsons/v1_VE250_randls_71_rotated.json,http://54.235.29.9/FacialAge/BNav_EC2/DepthDuration/v2_depth_duration_MTurk/v2_DepthDuration_HTML.html#19,19,1024,768,1024,768,8-30-2022,9-53-36,136,depth_duration_stimuli/000866_2014-06-09_20-45-42_260595134347_rgbf000139-resize_1/000866_2014-06-09_20-45-42_260595134347_rgbf000139-resize_1-target.png,250,3.2155,1,4828,255,meters,jsons/v1_VE250_randls_71_rotated.json,1121121,1278124,30,Woman
136,223712,DepthScenes,duration_manipulation_targetAtFixation,jsons/v1_VE250_randls_71_rotated.json,http://54.235.29.9/FacialAge/BNav_EC2/DepthDuration/v2_depth_duration_MTurk/v2_DepthDuration_HTML.html#19,19,1024,768,1024,768,8-30-2022,9-53-36,137,depth_duration_stimuli/002989_2014-06-15_12-25-03_094959634447_rgbf000150-resize_3/002989_2014-06-15_12-25-03_094959634447_rgbf000150-resize_3-target.png,250,4.1975,2,20705,250,meters,jsons/v1_VE250_randls_71_rotated.json,1121121,1278124,30,Woman
137,223712,DepthScenes,duration_manipulation_targetAtFixation,jsons/v1_VE250_randls_71_rotated.json,http://54.235.29.9/FacialAge/BNav_EC2/DepthDuration/v2_depth_duration_MTurk/v2_DepthDuration_HTML.html#19,19,1024,768,1024,768,8-30-2022,9-53-36,138,depth_duration_stimuli/002199_2014-06-28_18-33-56_260595134347_rgbf000074-resize_0/002199_2014-06-28_18-33-56_260595134347_rgbf000074-resize_0-target.png,250,1.996,1,3984,239,meters,jsons/v1_VE250_randls_71_rotated.json,1121121,1278124,30,Woman
138,223712,DepthScenes,duration_manipulation_targetAtFixation,jsons/v1_VE250_randls_71_rotated.json,http://54.235.29.9/FacialAge/BNav_EC2/DepthDuration/v2_depth_duration_MTurk/v2_DepthDuration_HTML.html#19,19,1024,768,1024,768,8-30-2022,9-53-36,139,depth_duration_stimuli/001056_2014-06-08_18-46-44_260595134347_rgbf000068-resize_0/001056_2014-06-08_18-46-44_260595134347_rgbf000068-resize_0-target.png,250,2.6625,3,3136,249,meters,jsons/v1_VE250_randls_71_rotated.json,1121121,1278124,30,Woman
139,223712,DepthScenes,duration_manipulation_targetAtFixation,jsons/v1_VE250_randls_71_rotated.json,http://54.235.29.9/FacialAge/BNav_EC2/DepthDuration/v2_depth_duration_MTurk/v2_DepthDuration_HTML.html#19,19,1024,768,1024,768,8-30-2022,9-53-36,140,depth_duration_stimuli/002637_2014-06-24_14-51-13_094959634447_rgbf000066-resize_4/002637_2014-06-24_14-51-13_094959634447_rgbf000066-resize_4-target.png,250,1.9955,3,8669,240,meters,jsons/v1_VE250_randls_71_rotated.json,1121121,1278124,30,Woman
140,223712,DepthScenes,duration_manipulation_targetAtFixation,jsons/v1_VE250_randls_71_rotated.json,http://54.235.29.9/FacialAge/BNav_EC2/DepthDuration/v2_depth_duration_MTurk/v2_DepthDuration_HTML.html#19,19,1024,768,1024,768,8-30-2022,9-53-36,141,depth_duration_stimuli/003534_2014-05-22_15-06-10_094959634447_rgbf000102-resize_4/003534_2014-05-22_15-06-10_094959634447_rgbf000102-resize_4-target.png,250,1.426,1,4040,244,meters,jsons/v1_VE250_randls_71_rotated.json,1121121,1278124,30,Woman
141,223712,DepthScenes,duration_manipulation_targetAtFixation,jsons/v1_VE250_randls_71_rotated.json,http://54.235.29.9/FacialAge/BNav_EC2/DepthDuration/v2_depth_duration_MTurk/v2_DepthDuration_HTML.html#19,19,1024,768,1024,768,8-30-2022,9-53-36,142,depth_duration_stimuli/000483_2014-06-09_20-41-45_260595134347_rgbf000116-resize_4/000483_2014-06-09_20-41-45_260595134347_rgbf000116-resize_4-target.png,250,1.337,2,7193,240,meters,jsons/v1_VE250_randls_71_rotated.json,1121121,1278124,30,Woman
142,223712,DepthScenes,duration_manipulation_targetAtFixation,jsons/v1_VE250_randls_71_rotated.json,http://54.235.29.9/FacialAge/BNav_EC2/DepthDuration/v2_depth_duration_MTurk/v2_DepthDuration_HTML.html#19,19,1024,768,1024,768,8-30-2022,9-53-36,143,depth_duration_stimuli/000469_2014-06-09_19-42-10_260595134347_rgbf000081-resize_1/000469_2014-06-09_19-42-10_260595134347_rgbf000081-resize_1-target.png,250,1.652,1,2021,262,meters,jsons/v1_VE250_randls_71_rotated.json,1121121,1278124,30,Woman
143,223712,DepthScenes,duration_manipulation_targetAtFixation,jsons/v1_VE250_randls_71_rotated.json,http://54.235.29.9/FacialAge/BNav_EC2/DepthDuration/v2_depth_duration_MTurk/v2_DepthDuration_HTML.html#19,19,1024,768,1024,768,8-30-2022,9-53-36,144,depth_duration_stimuli/002209_2014-06-28_18-36-10_260595134347_rgbf000051-resize_1/002209_2014-06-28_18-36-10_260595134347_rgbf000051-resize_1-target.png,250,2.057,3,3224,256,meters,jsons/v1_VE250_randls_71_rotated.json,1121121,1278124,30,Woman
144,223712,DepthScenes,duration_manipulation_targetAtFixation,jsons/v1_VE250_randls_71_rotated.json,http://54.235.29.9/FacialAge/BNav_EC2/DepthDuration/v2_depth_duration_MTurk/v2_DepthDuration_HTML.html#19,19,1024,768,1024,768,8-30-2022,9-53-36,145,depth_duration_stimuli/002763_2014-06-22_19-13-10_094959634447_rgbf000075-resize_4/002763_2014-06-22_19-13-10_094959634447_rgbf000075-resize_4-target.png,250,1.68375,2,1865,261,meters,jsons/v1_VE250_randls_71_rotated.json,1121121,1278124,30,Woman
145,223712,DepthScenes,duration_manipulation_targetAtFixation,jsons/v1_VE250_randls_71_rotated.json,http://54.235.29.9/FacialAge/BNav_EC2/DepthDuration/v2_depth_duration_MTurk/v2_DepthDuration_HTML.html#19,19,1024,768,1024,768,8-30-2022,9-53-36,146,depth_duration_stimuli/000103_2014-05-14_22-01-17_260595134347_rgbf000152-resize_5/000103_2014-05-14_22-01-17_260595134347_rgbf000152-resize_5-target.png,250,1.993,3,5680,259,meters,jsons/v1_VE250_randls_71_rotated.json,1121121,1278124,30,Woman
146,223712,DepthScenes,duration_manipulation_targetAtFixation,jsons/v1_VE250_randls_71_rotated.json,http://54.235.29.9/FacialAge/BNav_EC2/DepthDuration/v2_depth_duration_MTurk/v2_DepthDuration_HTML.html#19,19,1024,768,1024,768,8-30-2022,9-53-36,147,depth_duration_stimuli/001555_2014-06-20_17-12-10_260595134347_rgbf000065-resize_4/001555_2014-06-20_17-12-10_260595134347_rgbf000065-resize_4-target.png,250,1.633,2,2302,260,meters,jsons/v1_VE250_randls_71_rotated.json,1121121,1278124,30,Woman
147,223712,DepthScenes,duration_manipulation_targetAtFixation,jsons/v1_VE250_randls_71_rotated.json,http://54.235.29.9/FacialAge/BNav_EC2/DepthDuration/v2_depth_duration_MTurk/v2_DepthDuration_HTML.html#19,19,1024,768,1024,768,8-30-2022,9-53-36,148,depth_duration_stimuli/000854_2014-06-09_19-43-13_260595134347_rgbf000066-resize_0/000854_2014-06-09_19-43-13_260595134347_rgbf000066-resize_0-target.png,250,3.068,1,3372,251,meters,jsons/v1_VE250_randls_71_rotated.json,1121121,1278124,30,Woman
148,223712,DepthScenes,duration_manipulation_targetAtFixation,jsons/v1_VE250_randls_71_rotated.json,http://54.235.29.9/FacialAge/BNav_EC2/DepthDuration/v2_depth_duration_MTurk/v2_DepthDuration_HTML.html#19,19,1024,768,1024,768,8-30-2022,9-53-36,149,depth_duration_stimuli/000758_2014-06-08_22-05-08_260595134347_rgbf000085-resize_0/000758_2014-06-08_22-05-08_260595134347_rgbf000085-resize_0-target.png,250,3.3810000000000002,1,9443,235,meters,jsons/v1_VE250_randls_71_rotated.json,1121121,1278124,30,Woman
149,223712,DepthScenes,duration_manipulation_targetAtFixation,jsons/v1_VE250_randls_71_rotated.json,http://54.235.29.9/FacialAge/BNav_EC2/DepthDuration/v2_depth_duration_MTurk/v2_DepthDuration_HTML.html#19,19,1024,768,1024,768,8-30-2022,9-53-36,150,depth_duration_stimuli/000734_2014-06-08_17-39-11_260595134347_rgbf000128-resize_2/000734_2014-06-08_17-39-11_260595134347_rgbf000128-resize_2-target.png,250,4.098,2,3301,240,meters,jsons/v1_VE250_randls_71_rotated.json,1121121,1278124,30,Woman
150,223712,DepthScenes,duration_manipulation_targetAtFixation,jsons/v1_VE250_randls_71_rotated.json,http://54.235.29.9/FacialAge/BNav_EC2/DepthDuration/v2_depth_duration_MTurk/v2_DepthDuration_HTML.html#19,19,1024,768,1024,768,8-30-2022,9-53-36,151,depth_duration_stimuli/000739_2014-06-08_18-45-58_260595134347_rgbf000068-resize_1/000739_2014-06-08_18-45-58_260595134347_rgbf000068-resize_1-target.png,250,3.534,2,3812,251,meters,jsons/v1_VE250_randls_71_rotated.json,1121121,1278124,30,Woman
151,223712,DepthScenes,duration_manipulation_targetAtFixation,jsons/v1_VE250_randls_71_rotated.json,http://54.235.29.9/FacialAge/BNav_EC2/DepthDuration/v2_depth_duration_MTurk/v2_DepthDuration_HTML.html#19,19,1024,768,1024,768,8-30-2022,9-53-36,152,depth_duration_stimuli/000569_2014-06-09_22-51-47_260595134347_rgbf000141-resize_3/000569_2014-06-09_22-51-47_260595134347_rgbf000141-resize-original.jpg,250,4.512,5,5051,250,meters,jsons/v1_VE250_randls_71_rotated.json,1121121,1278124,30,Woman
152,223712,DepthScenes,duration_manipulation_targetAtFixation,jsons/v1_VE250_randls_71_rotated.json,http://54.235.29.9/FacialAge/BNav_EC2/DepthDuration/v2_depth_duration_MTurk/v2_DepthDuration_HTML.html#19,19,1024,768,1024,768,8-30-2022,9-53-36,153,depth_duration_stimuli/002103_2014-06-25_20-00-40_260595134347_rgbf000049-resize_0/002103_2014-06-25_20-00-40_260595134347_rgbf000049-resize_0-target.png,250,4.105,4,3320,252,meters,jsons/v1_VE250_randls_71_rotated.json,1121121,1278124,30,Woman
153,223712,DepthScenes,duration_manipulation_targetAtFixation,jsons/v1_VE250_randls_71_rotated.json,http://54.235.29.9/FacialAge/BNav_EC2/DepthDuration/v2_depth_duration_MTurk/v2_DepthDuration_HTML.html#19,19,1024,768,1024,768,8-30-2022,9-53-36,154,depth_duration_stimuli/002039_2014-06-24_20-22-38_260595134347_rgbf000084-resize_1/002039_2014-06-24_20-22-38_260595134347_rgbf000084-resize_1-target.png,250,4.408,2,3925,243,meters,jsons/v1_VE250_randls_71_rotated.json,1121121,1278124,30,Woman
154,223712,DepthScenes,duration_manipulation_targetAtFixation,jsons/v1_VE250_randls_71_rotated.json,http://54.235.29.9/FacialAge/BNav_EC2/DepthDuration/v2_depth_duration_MTurk/v2_DepthDuration_HTML.html#19,19,1024,768,1024,768,8-30-2022,9-53-36,155,depth_duration_stimuli/002545_2014-06-24_13-38-53_094959634447_rgbf000080-resize_4/002545_2014-06-24_13-38-53_094959634447_rgbf000080-resize_4-target.png,250,1.9205,3,3636,256,meters,jsons/v1_VE250_randls_71_rotated.json,1121121,1278124,30,Woman
155,223712,DepthScenes,duration_manipulation_targetAtFixation,jsons/v1_VE250_randls_71_rotated.json,http://54.235.29.9/FacialAge/BNav_EC2/DepthDuration/v2_depth_duration_MTurk/v2_DepthDuration_HTML.html#19,19,1024,768,1024,768,8-30-2022,9-53-36,156,depth_duration_stimuli/001092_2014-06-15_17-34-58_260595134347_rgbf000171-resize_3/001092_2014-06-15_17-34-58_260595134347_rgbf000171-resize_3-target.png,250,2.6935,2,6057,249,meters,jsons/v1_VE250_randls_71_rotated.json,1121121,1278124,30,Woman
156,223712,DepthScenes,duration_manipulation_targetAtFixation,jsons/v1_VE250_randls_71_rotated.json,http://54.235.29.9/FacialAge/BNav_EC2/DepthDuration/v2_depth_duration_MTurk/v2_DepthDuration_HTML.html#19,19,1024,768,1024,768,8-30-2022,9-53-36,157,depth_duration_stimuli/001584_2014-06-20_11-07-43_260595134347_rgbf000002-resize_1/001584_2014-06-20_11-07-43_260595134347_rgbf000002-resize_1-target.png,250,3.53,5,8079,258,meters,jsons/v1_VE250_randls_71_rotated.json,1121121,1278124,30,Woman
157,223712,DepthScenes,duration_manipulation_targetAtFixation,jsons/v1_VE250_randls_71_rotated.json,http://54.235.29.9/FacialAge/BNav_EC2/DepthDuration/v2_depth_duration_MTurk/v2_DepthDuration_HTML.html#19,19,1024,768,1024,768,8-30-2022,9-53-36,158,depth_duration_stimuli/003621_2014-05-23_18-06-08_094959634447_rgbf000101-resize_1/003621_2014-05-23_18-06-08_094959634447_rgbf000101-resize_1-target.png,250,3.9835,5,19376,246,meters,jsons/v1_VE250_randls_71_rotated.json,1121121,1278124,30,Woman
158,223712,DepthScenes,duration_manipulation_targetAtFixation,jsons/v1_VE250_randls_71_rotated.json,http://54.235.29.9/FacialAge/BNav_EC2/DepthDuration/v2_depth_duration_MTurk/v2_DepthDuration_HTML.html#19,19,1024,768,1024,768,8-30-2022,9-53-36,159,depth_duration_stimuli/000665_2014-06-09_20-42-35_260595134347_rgbf000110-resize_1/000665_2014-06-09_20-42-35_260595134347_rgbf000110-resize_1-target.png,250,3.057,4,3693,249,meters,jsons/v1_VE250_randls_71_rotated.json,1121121,1278124,30,Woman
159,223712,DepthScenes,duration_manipulation_targetAtFixation,jsons/v1_VE250_randls_71_rotated.json,http://54.235.29.9/FacialAge/BNav_EC2/DepthDuration/v2_depth_duration_MTurk/v2_DepthDuration_HTML.html#19,19,1024,768,1024,768,8-30-2022,9-53-36,160,depth_duration_stimuli/001150_2014-06-17_15-27-34_260595134347_rgbf000108-resize_2/001150_2014-06-17_15-27-34_260595134347_rgbf000108-resize_2-target.png,250,4.0325,2,2400,245,meters,jsons/v1_VE250_randls_71_rotated.json,1121121,1278124,30,Woman
160,223712,DepthScenes,duration_manipulation_targetAtFixation,jsons/v1_VE250_randls_71_rotated.json,http://54.235.29.9/FacialAge/BNav_EC2/DepthDuration/v2_depth_duration_MTurk/v2_DepthDuration_HTML.html#19,19,1024,768,1024,768,8-30-2022,9-53-36,161,depth_duration_stimuli/002323_2014-06-28_20-01-54_260595134347_rgbf000051-resize_4/002323_2014-06-28_20-01-54_260595134347_rgbf000051-resize_4-target.png,250,3.7310000000000003,4,2193,241,meters,jsons/v1_VE250_randls_71_rotated.json,1121121,1278124,30,Woman
161,223712,DepthScenes,duration_manipulation_targetAtFixation,jsons/v1_VE250_randls_71_rotated.json,http://54.235.29.9/FacialAge/BNav_EC2/DepthDuration/v2_depth_duration_MTurk/v2_DepthDuration_HTML.html#19,19,1024,768,1024,768,8-30-2022,9-53-36,162,depth_duration_stimuli/000917_2014-06-09_22-45-29_260595134347_rgbf000149-resize_3/000917_2014-06-09_22-45-29_260595134347_rgbf000149-resize_3-target.png,250,4.1865,5,2173,251,meters,jsons/v1_VE250_randls_71_rotated.json,1121121,1278124,30,Woman
162,223712,DepthScenes,duration_manipulation_targetAtFixation,jsons/v1_VE250_randls_71_rotated.json,http://54.235.29.9/FacialAge/BNav_EC2/DepthDuration/v2_depth_duration_MTurk/v2_DepthDuration_HTML.html#19,19,1024,768,1024,768,8-30-2022,9-53-36,163,depth_duration_stimuli/002750_2014-06-22_19-08-03_094959634447_rgbf000094-resize_4/002750_2014-06-22_19-08-03_094959634447_rgbf000094-resize_4-target.png,250,2.354,2,2359,253,meters,jsons/v1_VE250_randls_71_rotated.json,1121121,1278124,30,Woman
163,223712,DepthScenes,duration_manipulation_targetAtFixation,jsons/v1_VE250_randls_71_rotated.json,http://54.235.29.9/FacialAge/BNav_EC2/DepthDuration/v2_depth_duration_MTurk/v2_DepthDuration_HTML.html#19,19,1024,768,1024,768,8-30-2022,9-53-36,164,depth_duration_stimuli/002549_2014-06-24_13-41-39_094959634447_rgbf000022-resize_3/002549_2014-06-24_13-41-39_094959634447_rgbf000022-resize_3-target.png,250,1.476,5,3982,250,meters,jsons/v1_VE250_randls_71_rotated.json,1121121,1278124,30,Woman
