,subjID,experimentName,versionName,sequenceName,url,selected_row,windowWidth,windowHeight,screenWidth,screenHeight,startDate,startTime,trial,stimulus,duration,actual_depth,depth_estimate,trial_RT,log_sceneDuration,unitSelection,seq_filepath,experimentTime,totalTime,age,gender
0,227151,DepthScenes,duration_manipulation_targetAtFixation,jsons/VE125_randls_42.json,http://54.235.29.9/FacialAge/BNav_EC2/DepthDuration/v2_depth_duration_MTurk/v2_DepthDuration_HTML.html#28,28,1536,722,1536,864,9-18-2022,12-47-34,1,depth_duration_stimuli/000758_2014-06-08_22-05-08_260595134347_rgbf000085-resize_0/000758_2014-06-08_22-05-08_260595134347_rgbf000085-resize_0-target.png,125,3.3810000000000002,2,28102,125,feet,jsons/VE125_randls_42.json,493548,661912,37,Woman
1,227151,DepthScenes,duration_manipulation_targetAtFixation,jsons/VE125_randls_42.json,http://54.235.29.9/FacialAge/BNav_EC2/DepthDuration/v2_depth_duration_MTurk/v2_DepthDuration_HTML.html#28,28,1536,722,1536,864,9-18-2022,12-47-34,2,depth_duration_stimuli/000854_2014-06-09_19-43-13_260595134347_rgbf000066-resize_0/000854_2014-06-09_19-43-13_260595134347_rgbf000066-resize_0-target.png,125,3.068,3,3199,115,feet,jsons/VE125_randls_42.json,493548,661912,37,Woman
2,227151,DepthScenes,duration_manipulation_targetAtFixation,jsons/VE125_randls_42.json,http://54.235.29.9/FacialAge/BNav_EC2/DepthDuration/v2_depth_duration_MTurk/v2_DepthDuration_HTML.html#28,28,1536,722,1536,864,9-18-2022,12-47-34,3,depth_duration_stimuli/002600_2014-06-24_14-27-04_094959634447_rgbf000074-resize_2/002600_2014-06-24_14-27-04_094959634447_rgbf000074-resize_2-target.png,125,2.7575,4,2814,126,feet,jsons/VE125_randls_42.json,493548,661912,37,Woman
3,227151,DepthScenes,duration_manipulation_targetAtFixation,jsons/VE125_randls_42.json,http://54.235.29.9/FacialAge/BNav_EC2/DepthDuration/v2_depth_duration_MTurk/v2_DepthDuration_HTML.html#28,28,1536,722,1536,864,9-18-2022,12-47-34,4,depth_duration_stimuli/003228_2014-05-14_13-42-35_094959634447_rgbf000101-resize_1/003228_2014-05-14_13-42-35_094959634447_rgbf000101-resize_1-target.png,125,1.9680000000000002,5,2269,121,feet,jsons/VE125_randls_42.json,493548,661912,37,Woman
4,227151,DepthScenes,duration_manipulation_targetAtFixation,jsons/VE125_randls_42.json,http://54.235.29.9/FacialAge/BNav_EC2/DepthDuration/v2_depth_duration_MTurk/v2_DepthDuration_HTML.html#28,28,1536,722,1536,864,9-18-2022,12-47-34,5,depth_duration_stimuli/000682_2014-06-08_23-14-58_260595134347_rgbf000041-resize_5/000682_2014-06-08_23-14-58_260595134347_rgbf000041-resize_5-target.png,125,2.7239999999999998,2,2237,124,feet,jsons/VE125_randls_42.json,493548,661912,37,Woman
5,227151,DepthScenes,duration_manipulation_targetAtFixation,jsons/VE125_randls_42.json,http://54.235.29.9/FacialAge/BNav_EC2/DepthDuration/v2_depth_duration_MTurk/v2_DepthDuration_HTML.html#28,28,1536,722,1536,864,9-18-2022,12-47-34,6,depth_duration_stimuli/001650_2014-06-20_12-09-00_260595134347_rgbf000087-resize_3/001650_2014-06-20_12-09-00_260595134347_rgbf000087-resize_3-target.png,125,1.9505,3,2519,121,feet,jsons/VE125_randls_42.json,493548,661912,37,Woman
6,227151,DepthScenes,duration_manipulation_targetAtFixation,jsons/VE125_randls_42.json,http://54.235.29.9/FacialAge/BNav_EC2/DepthDuration/v2_depth_duration_MTurk/v2_DepthDuration_HTML.html#28,28,1536,722,1536,864,9-18-2022,12-47-34,7,depth_duration_stimuli/002272_2014-06-28_18-53-56_260595134347_rgbf000067-resize_2/002272_2014-06-28_18-53-56_260595134347_rgbf000067-resize_2-target.png,125,1.138,2,2319,134,feet,jsons/VE125_randls_42.json,493548,661912,37,Woman
7,227151,DepthScenes,duration_manipulation_targetAtFixation,jsons/VE125_randls_42.json,http://54.235.29.9/FacialAge/BNav_EC2/DepthDuration/v2_depth_duration_MTurk/v2_DepthDuration_HTML.html#28,28,1536,722,1536,864,9-18-2022,12-47-34,8,depth_duration_stimuli/001571_2014-06-20_17-21-32_260595134347_rgbf000089-resize_1/001571_2014-06-20_17-21-32_260595134347_rgbf000089-resize_1-target.png,125,1.86,3,2034,109,feet,jsons/VE125_randls_42.json,493548,661912,37,Woman
8,227151,DepthScenes,duration_manipulation_targetAtFixation,jsons/VE125_randls_42.json,http://54.235.29.9/FacialAge/BNav_EC2/DepthDuration/v2_depth_duration_MTurk/v2_DepthDuration_HTML.html#28,28,1536,722,1536,864,9-18-2022,12-47-34,9,depth_duration_stimuli/002375_2014-06-28_20-13-44_260595134347_rgbf000032-resize_1/002375_2014-06-28_20-13-44_260595134347_rgbf000032-resize_1-target.png,125,4.0175,4,2258,129,feet,jsons/VE125_randls_42.json,493548,661912,37,Woman
9,227151,DepthScenes,duration_manipulation_targetAtFixation,jsons/VE125_randls_42.json,http://54.235.29.9/FacialAge/BNav_EC2/DepthDuration/v2_depth_duration_MTurk/v2_DepthDuration_HTML.html#28,28,1536,722,1536,864,9-18-2022,12-47-34,10,depth_duration_stimuli/002657_2014-06-13_15-29-54_094959634447_rgbf000150-resize_1/002657_2014-06-13_15-29-54_094959634447_rgbf000150-resize_1-target.png,125,4.919,5,1972,118,feet,jsons/VE125_randls_42.json,493548,661912,37,Woman
10,227151,DepthScenes,duration_manipulation_targetAtFixation,jsons/VE125_randls_42.json,http://54.235.29.9/FacialAge/BNav_EC2/DepthDuration/v2_depth_duration_MTurk/v2_DepthDuration_HTML.html#28,28,1536,722,1536,864,9-18-2022,12-47-34,11,depth_duration_stimuli/002989_2014-06-15_12-25-03_094959634447_rgbf000150-resize_3/002989_2014-06-15_12-25-03_094959634447_rgbf000150-resize_3-target.png,125,4.1975,2,2149,125,feet,jsons/VE125_randls_42.json,493548,661912,37,Woman
11,227151,DepthScenes,duration_manipulation_targetAtFixation,jsons/VE125_randls_42.json,http://54.235.29.9/FacialAge/BNav_EC2/DepthDuration/v2_depth_duration_MTurk/v2_DepthDuration_HTML.html#28,28,1536,722,1536,864,9-18-2022,12-47-34,12,depth_duration_stimuli/000866_2014-06-09_20-45-42_260595134347_rgbf000139-resize_1/000866_2014-06-09_20-45-42_260595134347_rgbf000139-resize_1-target.png,125,3.2155,3,2009,125,feet,jsons/VE125_randls_42.json,493548,661912,37,Woman
12,227151,DepthScenes,duration_manipulation_targetAtFixation,jsons/VE125_randls_42.json,http://54.235.29.9/FacialAge/BNav_EC2/DepthDuration/v2_depth_duration_MTurk/v2_DepthDuration_HTML.html#28,28,1536,722,1536,864,9-18-2022,12-47-34,13,depth_duration_stimuli/000569_2014-06-09_22-51-47_260595134347_rgbf000141-resize_3/000569_2014-06-09_22-51-47_260595134347_rgbf000141-resize-original.jpg,125,4.512,4,1938,125,feet,jsons/VE125_randls_42.json,493548,661912,37,Woman
13,227151,DepthScenes,duration_manipulation_targetAtFixation,jsons/VE125_randls_42.json,http://54.235.29.9/FacialAge/BNav_EC2/DepthDuration/v2_depth_duration_MTurk/v2_DepthDuration_HTML.html#28,28,1536,722,1536,864,9-18-2022,12-47-34,14,depth_duration_stimuli/002057_2014-06-24_21-00-13_260595134347_rgbf000120-resize_1/002057_2014-06-24_21-00-13_260595134347_rgbf000120-resize_1-target.png,125,2.967,5,2144,110,feet,jsons/VE125_randls_42.json,493548,661912,37,Woman
14,227151,DepthScenes,duration_manipulation_targetAtFixation,jsons/VE125_randls_42.json,http://54.235.29.9/FacialAge/BNav_EC2/DepthDuration/v2_depth_duration_MTurk/v2_DepthDuration_HTML.html#28,28,1536,722,1536,864,9-18-2022,12-47-34,15,depth_duration_stimuli/000709_2014-06-08_13-51-55_260595134347_rgbf000068-resize_3/000709_2014-06-08_13-51-55_260595134347_rgbf000068-resize_3-target.png,125,1.8030000000000002,6,2030,128,feet,jsons/VE125_randls_42.json,493548,661912,37,Woman
15,227151,DepthScenes,duration_manipulation_targetAtFixation,jsons/VE125_randls_42.json,http://54.235.29.9/FacialAge/BNav_EC2/DepthDuration/v2_depth_duration_MTurk/v2_DepthDuration_HTML.html#28,28,1536,722,1536,864,9-18-2022,12-47-34,16,depth_duration_stimuli/001555_2014-06-20_17-12-10_260595134347_rgbf000065-resize_4/001555_2014-06-20_17-12-10_260595134347_rgbf000065-resize_4-target.png,125,1.633,2,2228,123,feet,jsons/VE125_randls_42.json,493548,661912,37,Woman
16,227151,DepthScenes,duration_manipulation_targetAtFixation,jsons/VE125_randls_42.json,http://54.235.29.9/FacialAge/BNav_EC2/DepthDuration/v2_depth_duration_MTurk/v2_DepthDuration_HTML.html#28,28,1536,722,1536,864,9-18-2022,12-47-34,17,depth_duration_stimuli/000103_2014-05-14_22-01-17_260595134347_rgbf000152-resize_5/000103_2014-05-14_22-01-17_260595134347_rgbf000152-resize_5-target.png,125,1.993,3,2369,127,feet,jsons/VE125_randls_42.json,493548,661912,37,Woman
17,227151,DepthScenes,duration_manipulation_targetAtFixation,jsons/VE125_randls_42.json,http://54.235.29.9/FacialAge/BNav_EC2/DepthDuration/v2_depth_duration_MTurk/v2_DepthDuration_HTML.html#28,28,1536,722,1536,864,9-18-2022,12-47-34,18,depth_duration_stimuli/001164_2014-06-17_15-35-46_260595134347_rgbf000085-resize_3/001164_2014-06-17_15-35-46_260595134347_rgbf000085-resize_3-target.png,125,2.354,4,1919,132,feet,jsons/VE125_randls_42.json,493548,661912,37,Woman
18,227151,DepthScenes,duration_manipulation_targetAtFixation,jsons/VE125_randls_42.json,http://54.235.29.9/FacialAge/BNav_EC2/DepthDuration/v2_depth_duration_MTurk/v2_DepthDuration_HTML.html#28,28,1536,722,1536,864,9-18-2022,12-47-34,19,depth_duration_stimuli/001136_2014-06-17_15-19-41_260595134347_rgbf000076-resize_3/001136_2014-06-17_15-19-41_260595134347_rgbf000076-resize_3-target.png,125,1.8655,5,2526,125,feet,jsons/VE125_randls_42.json,493548,661912,37,Woman
19,227151,DepthScenes,duration_manipulation_targetAtFixation,jsons/VE125_randls_42.json,http://54.235.29.9/FacialAge/BNav_EC2/DepthDuration/v2_depth_duration_MTurk/v2_DepthDuration_HTML.html#28,28,1536,722,1536,864,9-18-2022,12-47-34,20,depth_duration_stimuli/001158_2014-06-17_15-32-16_260595134347_rgbf000138-resize_2/001158_2014-06-17_15-32-16_260595134347_rgbf000138-resize_2-target.png,125,4.5315,6,2137,130,feet,jsons/VE125_randls_42.json,493548,661912,37,Woman
20,227151,DepthScenes,duration_manipulation_targetAtFixation,jsons/VE125_randls_42.json,http://54.235.29.9/FacialAge/BNav_EC2/DepthDuration/v2_depth_duration_MTurk/v2_DepthDuration_HTML.html#28,28,1536,722,1536,864,9-18-2022,12-47-34,21,depth_duration_stimuli/000556_2014-06-09_22-42-56_260595134347_rgbf000214-resize_1/000556_2014-06-09_22-42-56_260595134347_rgbf000214-resize_1-target.png,125,4.8415,2,2691,127,feet,jsons/VE125_randls_42.json,493548,661912,37,Woman
21,227151,DepthScenes,duration_manipulation_targetAtFixation,jsons/VE125_randls_42.json,http://54.235.29.9/FacialAge/BNav_EC2/DepthDuration/v2_depth_duration_MTurk/v2_DepthDuration_HTML.html#28,28,1536,722,1536,864,9-18-2022,12-47-34,22,depth_duration_stimuli/002509_2014-06-24_13-19-22_094959634447_rgbf000077-resize_0/002509_2014-06-24_13-19-22_094959634447_rgbf000077-resize_0-target.png,125,1.3065,3,2050,125,feet,jsons/VE125_randls_42.json,493548,661912,37,Woman
22,227151,DepthScenes,duration_manipulation_targetAtFixation,jsons/VE125_randls_42.json,http://54.235.29.9/FacialAge/BNav_EC2/DepthDuration/v2_depth_duration_MTurk/v2_DepthDuration_HTML.html#28,28,1536,722,1536,864,9-18-2022,12-47-34,23,depth_duration_stimuli/003338_2014-05-20_11-01-23_094959634447_rgbf000051-resize_6/003338_2014-05-20_11-01-23_094959634447_rgbf000051-resize_6-target.png,125,1.693,4,1889,113,feet,jsons/VE125_randls_42.json,493548,661912,37,Woman
23,227151,DepthScenes,duration_manipulation_targetAtFixation,jsons/VE125_randls_42.json,http://54.235.29.9/FacialAge/BNav_EC2/DepthDuration/v2_depth_duration_MTurk/v2_DepthDuration_HTML.html#28,28,1536,722,1536,864,9-18-2022,12-47-34,24,depth_duration_stimuli/001244_2014-06-17_16-47-45_260595134347_rgbf000030-resize_4/001244_2014-06-17_16-47-45_260595134347_rgbf000030-resize_4-target.png,125,2.0425,5,2055,111,feet,jsons/VE125_randls_42.json,493548,661912,37,Woman
24,227151,DepthScenes,duration_manipulation_targetAtFixation,jsons/VE125_randls_42.json,http://54.235.29.9/FacialAge/BNav_EC2/DepthDuration/v2_depth_duration_MTurk/v2_DepthDuration_HTML.html#28,28,1536,722,1536,864,9-18-2022,12-47-34,25,depth_duration_stimuli/003495_2014-05-21_16-01-51_094959634447_rgbf000100-resize_3/003495_2014-05-21_16-01-51_094959634447_rgbf000100-resize_3-target.png,125,1.6255,6,2088,138,feet,jsons/VE125_randls_42.json,493548,661912,37,Woman
25,227151,DepthScenes,duration_manipulation_targetAtFixation,jsons/VE125_randls_42.json,http://54.235.29.9/FacialAge/BNav_EC2/DepthDuration/v2_depth_duration_MTurk/v2_DepthDuration_HTML.html#28,28,1536,722,1536,864,9-18-2022,12-47-34,26,depth_duration_stimuli/001066_2014-06-08_22-03-20_260595134347_rgbf000066-resize_4/001066_2014-06-08_22-03-20_260595134347_rgbf000066-resize_4-target.png,125,4.2330000000000005,2,2178,124,feet,jsons/VE125_randls_42.json,493548,661912,37,Woman
26,227151,DepthScenes,duration_manipulation_targetAtFixation,jsons/VE125_randls_42.json,http://54.235.29.9/FacialAge/BNav_EC2/DepthDuration/v2_depth_duration_MTurk/v2_DepthDuration_HTML.html#28,28,1536,722,1536,864,9-18-2022,12-47-34,27,depth_duration_stimuli/000742_2014-06-08_18-48-09_260595134347_rgbf000164-resize_4/000742_2014-06-08_18-48-09_260595134347_rgbf000164-resize_4-target.png,125,4.632,3,1841,134,feet,jsons/VE125_randls_42.json,493548,661912,37,Woman
27,227151,DepthScenes,duration_manipulation_targetAtFixation,jsons/VE125_randls_42.json,http://54.235.29.9/FacialAge/BNav_EC2/DepthDuration/v2_depth_duration_MTurk/v2_DepthDuration_HTML.html#28,28,1536,722,1536,864,9-18-2022,12-47-34,28,depth_duration_stimuli/002725_2014-06-22_11-47-51_094959634447_rgbf000070-resize_1/002725_2014-06-22_11-47-51_094959634447_rgbf000070-resize_1-target.png,125,2.195,5,1974,115,feet,jsons/VE125_randls_42.json,493548,661912,37,Woman
28,227151,DepthScenes,duration_manipulation_targetAtFixation,jsons/VE125_randls_42.json,http://54.235.29.9/FacialAge/BNav_EC2/DepthDuration/v2_depth_duration_MTurk/v2_DepthDuration_HTML.html#28,28,1536,722,1536,864,9-18-2022,12-47-34,29,depth_duration_stimuli/002344_2014-06-28_20-06-29_260595134347_rgbf000030-resize_1/002344_2014-06-28_20-06-29_260595134347_rgbf000030-resize_1-target.png,125,1.5795,6,1790,125,feet,jsons/VE125_randls_42.json,493548,661912,37,Woman
29,227151,DepthScenes,duration_manipulation_targetAtFixation,jsons/VE125_randls_42.json,http://54.235.29.9/FacialAge/BNav_EC2/DepthDuration/v2_depth_duration_MTurk/v2_DepthDuration_HTML.html#28,28,1536,722,1536,864,9-18-2022,12-47-34,30,depth_duration_stimuli/000375_2014-06-08_11-17-29_260595134347_rgbf000133-resize_2/000375_2014-06-08_11-17-29_260595134347_rgbf000133-resize-original.jpg,125,4.718,2,1744,123,feet,jsons/VE125_randls_42.json,493548,661912,37,Woman
30,227151,DepthScenes,duration_manipulation_targetAtFixation,jsons/VE125_randls_42.json,http://54.235.29.9/FacialAge/BNav_EC2/DepthDuration/v2_depth_duration_MTurk/v2_DepthDuration_HTML.html#28,28,1536,722,1536,864,9-18-2022,12-47-34,31,depth_duration_stimuli/000486_2014-06-09_20-47-20_260595134347_rgbf000143-resize_2/000486_2014-06-09_20-47-20_260595134347_rgbf000143-resize_2-target.png,125,4.8325,3,1964,132,feet,jsons/VE125_randls_42.json,493548,661912,37,Woman
31,227151,DepthScenes,duration_manipulation_targetAtFixation,jsons/VE125_randls_42.json,http://54.235.29.9/FacialAge/BNav_EC2/DepthDuration/v2_depth_duration_MTurk/v2_DepthDuration_HTML.html#28,28,1536,722,1536,864,9-18-2022,12-47-34,32,depth_duration_stimuli/003083_2014-06-15_15-21-03_094959634447_rgbf000063-resize_1/003083_2014-06-15_15-21-03_094959634447_rgbf000063-resize_1-target.png,125,4.1405,4,1909,127,feet,jsons/VE125_randls_42.json,493548,661912,37,Woman
32,227151,DepthScenes,duration_manipulation_targetAtFixation,jsons/VE125_randls_42.json,http://54.235.29.9/FacialAge/BNav_EC2/DepthDuration/v2_depth_duration_MTurk/v2_DepthDuration_HTML.html#28,28,1536,722,1536,864,9-18-2022,12-47-34,33,depth_duration_stimuli/001417_2014-06-19_16-25-36_260595134347_rgbf000115-resize_5/001417_2014-06-19_16-25-36_260595134347_rgbf000115-resize_5-target.png,125,4.6255,5,2123,130,feet,jsons/VE125_randls_42.json,493548,661912,37,Woman
33,227151,DepthScenes,duration_manipulation_targetAtFixation,jsons/VE125_randls_42.json,http://54.235.29.9/FacialAge/BNav_EC2/DepthDuration/v2_depth_duration_MTurk/v2_DepthDuration_HTML.html#28,28,1536,722,1536,864,9-18-2022,12-47-34,34,depth_duration_stimuli/003081_2014-06-15_15-19-16_094959634447_rgbf000150-resize_1/003081_2014-06-15_15-19-16_094959634447_rgbf000150-resize_1-target.png,125,3.9125,6,1692,123,feet,jsons/VE125_randls_42.json,493548,661912,37,Woman
34,227151,DepthScenes,duration_manipulation_targetAtFixation,jsons/VE125_randls_42.json,http://54.235.29.9/FacialAge/BNav_EC2/DepthDuration/v2_depth_duration_MTurk/v2_DepthDuration_HTML.html#28,28,1536,722,1536,864,9-18-2022,12-47-34,35,depth_duration_stimuli/000368_2014-06-09_15-53-01_260595134347_rgbf000155-resize_2/000368_2014-06-09_15-53-01_260595134347_rgbf000155-resize_2-target.png,125,2.4859999999999998,2,2289,132,feet,jsons/VE125_randls_42.json,493548,661912,37,Woman
35,227151,DepthScenes,duration_manipulation_targetAtFixation,jsons/VE125_randls_42.json,http://54.235.29.9/FacialAge/BNav_EC2/DepthDuration/v2_depth_duration_MTurk/v2_DepthDuration_HTML.html#28,28,1536,722,1536,864,9-18-2022,12-47-34,36,depth_duration_stimuli/002678_2014-06-13_16-15-32_094959634447_rgbf000151-resize_6/002678_2014-06-13_16-15-32_094959634447_rgbf000151-resize_6-target.png,125,2.1830000000000003,3,1698,123,feet,jsons/VE125_randls_42.json,493548,661912,37,Woman
36,227151,DepthScenes,duration_manipulation_targetAtFixation,jsons/VE125_randls_42.json,http://54.235.29.9/FacialAge/BNav_EC2/DepthDuration/v2_depth_duration_MTurk/v2_DepthDuration_HTML.html#28,28,1536,722,1536,864,9-18-2022,12-47-34,37,depth_duration_stimuli/002763_2014-06-22_19-13-10_094959634447_rgbf000075-resize_4/002763_2014-06-22_19-13-10_094959634447_rgbf000075-resize_4-target.png,125,1.68375,4,1622,118,feet,jsons/VE125_randls_42.json,493548,661912,37,Woman
37,227151,DepthScenes,duration_manipulation_targetAtFixation,jsons/VE125_randls_42.json,http://54.235.29.9/FacialAge/BNav_EC2/DepthDuration/v2_depth_duration_MTurk/v2_DepthDuration_HTML.html#28,28,1536,722,1536,864,9-18-2022,12-47-34,38,depth_duration_stimuli/002209_2014-06-28_18-36-10_260595134347_rgbf000051-resize_1/002209_2014-06-28_18-36-10_260595134347_rgbf000051-resize_1-target.png,125,2.057,5,1670,128,feet,jsons/VE125_randls_42.json,493548,661912,37,Woman
38,227151,DepthScenes,duration_manipulation_targetAtFixation,jsons/VE125_randls_42.json,http://54.235.29.9/FacialAge/BNav_EC2/DepthDuration/v2_depth_duration_MTurk/v2_DepthDuration_HTML.html#28,28,1536,722,1536,864,9-18-2022,12-47-34,39,depth_duration_stimuli/001055_2014-06-08_18-45-35_260595134347_rgbf000111-resize_4/001055_2014-06-08_18-45-35_260595134347_rgbf000111-resize_4-target.png,125,2.4290000000000003,6,2358,125,feet,jsons/VE125_randls_42.json,493548,661912,37,Woman
39,227151,DepthScenes,duration_manipulation_targetAtFixation,jsons/VE125_randls_42.json,http://54.235.29.9/FacialAge/BNav_EC2/DepthDuration/v2_depth_duration_MTurk/v2_DepthDuration_HTML.html#28,28,1536,722,1536,864,9-18-2022,12-47-34,40,depth_duration_stimuli/000549_2014-06-08_22-10-24_260595134347_rgbf000247-resize_3/000549_2014-06-08_22-10-24_260595134347_rgbf000247-resize_3-target.png,125,1.841,2,1668,129,feet,jsons/VE125_randls_42.json,493548,661912,37,Woman
40,227151,DepthScenes,duration_manipulation_targetAtFixation,jsons/VE125_randls_42.json,http://54.235.29.9/FacialAge/BNav_EC2/DepthDuration/v2_depth_duration_MTurk/v2_DepthDuration_HTML.html#28,28,1536,722,1536,864,9-18-2022,12-47-34,41,depth_duration_stimuli/002748_2014-06-22_19-07-22_094959634447_rgbf000078-resize_1/002748_2014-06-22_19-07-22_094959634447_rgbf000078-resize_1-target.png,125,4.6705,3,1752,134,feet,jsons/VE125_randls_42.json,493548,661912,37,Woman
41,227151,DepthScenes,duration_manipulation_targetAtFixation,jsons/VE125_randls_42.json,http://54.235.29.9/FacialAge/BNav_EC2/DepthDuration/v2_depth_duration_MTurk/v2_DepthDuration_HTML.html#28,28,1536,722,1536,864,9-18-2022,12-47-34,42,depth_duration_stimuli/002995_2014-06-15_12-31-26_094959634447_rgbf000150-resize_1/002995_2014-06-15_12-31-26_094959634447_rgbf000150-resize_1-target.png,125,3.8360000000000003,4,1681,130,feet,jsons/VE125_randls_42.json,493548,661912,37,Woman
42,227151,DepthScenes,duration_manipulation_targetAtFixation,jsons/VE125_randls_42.json,http://54.235.29.9/FacialAge/BNav_EC2/DepthDuration/v2_depth_duration_MTurk/v2_DepthDuration_HTML.html#28,28,1536,722,1536,864,9-18-2022,12-47-34,43,depth_duration_stimuli/003534_2014-05-22_15-06-10_094959634447_rgbf000102-resize_4/003534_2014-05-22_15-06-10_094959634447_rgbf000102-resize_4-target.png,125,1.426,5,2162,124,feet,jsons/VE125_randls_42.json,493548,661912,37,Woman
43,227151,DepthScenes,duration_manipulation_targetAtFixation,jsons/VE125_randls_42.json,http://54.235.29.9/FacialAge/BNav_EC2/DepthDuration/v2_depth_duration_MTurk/v2_DepthDuration_HTML.html#28,28,1536,722,1536,864,9-18-2022,12-47-34,44,depth_duration_stimuli/002637_2014-06-24_14-51-13_094959634447_rgbf000066-resize_4/002637_2014-06-24_14-51-13_094959634447_rgbf000066-resize_4-target.png,125,1.9955,6,1673,128,feet,jsons/VE125_randls_42.json,493548,661912,37,Woman
44,227151,DepthScenes,duration_manipulation_targetAtFixation,jsons/VE125_randls_42.json,http://54.235.29.9/FacialAge/BNav_EC2/DepthDuration/v2_depth_duration_MTurk/v2_DepthDuration_HTML.html#28,28,1536,722,1536,864,9-18-2022,12-47-34,45,depth_duration_stimuli/000787_2014-06-08_22-33-53_260595134347_rgbf000175-resize_1/000787_2014-06-08_22-33-53_260595134347_rgbf000175-resize-original.jpg,125,4.784,2,1915,121,feet,jsons/VE125_randls_42.json,493548,661912,37,Woman
45,227151,DepthScenes,duration_manipulation_targetAtFixation,jsons/VE125_randls_42.json,http://54.235.29.9/FacialAge/BNav_EC2/DepthDuration/v2_depth_duration_MTurk/v2_DepthDuration_HTML.html#28,28,1536,722,1536,864,9-18-2022,12-47-34,46,depth_duration_stimuli/000506_2014-06-08_23-21-00_260595134347_rgbf000070-resize_7/000506_2014-06-08_23-21-00_260595134347_rgbf000070-resize_7-target.png,125,4.0585,3,1704,125,feet,jsons/VE125_randls_42.json,493548,661912,37,Woman
46,227151,DepthScenes,duration_manipulation_targetAtFixation,jsons/VE125_randls_42.json,http://54.235.29.9/FacialAge/BNav_EC2/DepthDuration/v2_depth_duration_MTurk/v2_DepthDuration_HTML.html#28,28,1536,722,1536,864,9-18-2022,12-47-34,47,depth_duration_stimuli/003079_2014-06-15_15-18-20_094959634447_rgbf000152-resize_8/003079_2014-06-15_15-18-20_094959634447_rgbf000152-resize_8-target.png,125,2.8775,4,1788,128,feet,jsons/VE125_randls_42.json,493548,661912,37,Woman
47,227151,DepthScenes,duration_manipulation_targetAtFixation,jsons/VE125_randls_42.json,http://54.235.29.9/FacialAge/BNav_EC2/DepthDuration/v2_depth_duration_MTurk/v2_DepthDuration_HTML.html#28,28,1536,722,1536,864,9-18-2022,12-47-34,48,depth_duration_stimuli/001110_2014-06-15_17-25-28_260595134347_rgbf000150-resize_1/001110_2014-06-15_17-25-28_260595134347_rgbf000150-resize_1-target.png,125,1.7115,5,1710,124,feet,jsons/VE125_randls_42.json,493548,661912,37,Woman
48,227151,DepthScenes,duration_manipulation_targetAtFixation,jsons/VE125_randls_42.json,http://54.235.29.9/FacialAge/BNav_EC2/DepthDuration/v2_depth_duration_MTurk/v2_DepthDuration_HTML.html#28,28,1536,722,1536,864,9-18-2022,12-47-34,49,depth_duration_stimuli/000927_2014-06-09_16-32-30_260595134347_rgbf000123-resize_3/000927_2014-06-09_16-32-30_260595134347_rgbf000123-resize_3-target.png,125,2.6785,6,1718,127,feet,jsons/VE125_randls_42.json,493548,661912,37,Woman
49,227151,DepthScenes,duration_manipulation_targetAtFixation,jsons/VE125_randls_42.json,http://54.235.29.9/FacialAge/BNav_EC2/DepthDuration/v2_depth_duration_MTurk/v2_DepthDuration_HTML.html#28,28,1536,722,1536,864,9-18-2022,12-47-34,50,depth_duration_stimuli/000739_2014-06-08_18-45-58_260595134347_rgbf000068-resize_1/000739_2014-06-08_18-45-58_260595134347_rgbf000068-resize_1-target.png,125,3.534,2,1761,126,feet,jsons/VE125_randls_42.json,493548,661912,37,Woman
50,227151,DepthScenes,duration_manipulation_targetAtFixation,jsons/VE125_randls_42.json,http://54.235.29.9/FacialAge/BNav_EC2/DepthDuration/v2_depth_duration_MTurk/v2_DepthDuration_HTML.html#28,28,1536,722,1536,864,9-18-2022,12-47-34,51,depth_duration_stimuli/000734_2014-06-08_17-39-11_260595134347_rgbf000128-resize_2/000734_2014-06-08_17-39-11_260595134347_rgbf000128-resize_2-target.png,125,4.098,3,1626,116,feet,jsons/VE125_randls_42.json,493548,661912,37,Woman
51,227151,DepthScenes,duration_manipulation_targetAtFixation,jsons/VE125_randls_42.json,http://54.235.29.9/FacialAge/BNav_EC2/DepthDuration/v2_depth_duration_MTurk/v2_DepthDuration_HTML.html#28,28,1536,722,1536,864,9-18-2022,12-47-34,52,depth_duration_stimuli/000642_2014-06-08_16-59-25_260595134347_rgbf000098-resize_2/000642_2014-06-08_16-59-25_260595134347_rgbf000098-resize_2-target.png,125,2.8815,4,1956,113,feet,jsons/VE125_randls_42.json,493548,661912,37,Woman
52,227151,DepthScenes,duration_manipulation_targetAtFixation,jsons/VE125_randls_42.json,http://54.235.29.9/FacialAge/BNav_EC2/DepthDuration/v2_depth_duration_MTurk/v2_DepthDuration_HTML.html#28,28,1536,722,1536,864,9-18-2022,12-47-34,53,depth_duration_stimuli/002425_2014-06-28_20-27-29_260595134347_rgbf000031-resize_8/002425_2014-06-28_20-27-29_260595134347_rgbf000031-resize_8-target.png,125,3.8960000000000004,5,1672,117,feet,jsons/VE125_randls_42.json,493548,661912,37,Woman
53,227151,DepthScenes,duration_manipulation_targetAtFixation,jsons/VE125_randls_42.json,http://54.235.29.9/FacialAge/BNav_EC2/DepthDuration/v2_depth_duration_MTurk/v2_DepthDuration_HTML.html#28,28,1536,722,1536,864,9-18-2022,12-47-34,54,depth_duration_stimuli/000878_2014-06-08_22-52-45_260595134347_rgbf000045-resize_2/000878_2014-06-08_22-52-45_260595134347_rgbf000045-resize_2-target.png,125,2.092,6,1858,116,feet,jsons/VE125_randls_42.json,493548,661912,37,Woman
54,227151,DepthScenes,duration_manipulation_targetAtFixation,jsons/VE125_randls_42.json,http://54.235.29.9/FacialAge/BNav_EC2/DepthDuration/v2_depth_duration_MTurk/v2_DepthDuration_HTML.html#28,28,1536,722,1536,864,9-18-2022,12-47-34,55,depth_duration_stimuli/002953_2014-06-08_17-32-18_094959634447_rgbf000059-resize_5/002953_2014-06-08_17-32-18_094959634447_rgbf000059-resize_5-target.png,125,1.551,2,1848,125,feet,jsons/VE125_randls_42.json,493548,661912,37,Woman
55,227151,DepthScenes,duration_manipulation_targetAtFixation,jsons/VE125_randls_42.json,http://54.235.29.9/FacialAge/BNav_EC2/DepthDuration/v2_depth_duration_MTurk/v2_DepthDuration_HTML.html#28,28,1536,722,1536,864,9-18-2022,12-47-34,56,depth_duration_stimuli/000692_2014-06-08_13-09-42_260595134347_rgbf000199-resize_2/000692_2014-06-08_13-09-42_260595134347_rgbf000199-resize_2-target.png,125,3.661,3,1679,115,feet,jsons/VE125_randls_42.json,493548,661912,37,Woman
56,227151,DepthScenes,duration_manipulation_targetAtFixation,jsons/VE125_randls_42.json,http://54.235.29.9/FacialAge/BNav_EC2/DepthDuration/v2_depth_duration_MTurk/v2_DepthDuration_HTML.html#28,28,1536,722,1536,864,9-18-2022,12-47-34,57,depth_duration_stimuli/001094_2014-06-15_17-36-00_260595134347_rgbf000205-resize_0/001094_2014-06-15_17-36-00_260595134347_rgbf000205-resize_0-target.png,125,4.2175,4,1599,127,feet,jsons/VE125_randls_42.json,493548,661912,37,Woman
57,227151,DepthScenes,duration_manipulation_targetAtFixation,jsons/VE125_randls_42.json,http://54.235.29.9/FacialAge/BNav_EC2/DepthDuration/v2_depth_duration_MTurk/v2_DepthDuration_HTML.html#28,28,1536,722,1536,864,9-18-2022,12-47-34,58,depth_duration_stimuli/002788_2014-06-22_19-36-03_094959634447_rgbf000088-resize_2/002788_2014-06-22_19-36-03_094959634447_rgbf000088-resize_2-target.png,125,1.6465,5,1590,116,feet,jsons/VE125_randls_42.json,493548,661912,37,Woman
58,227151,DepthScenes,duration_manipulation_targetAtFixation,jsons/VE125_randls_42.json,http://54.235.29.9/FacialAge/BNav_EC2/DepthDuration/v2_depth_duration_MTurk/v2_DepthDuration_HTML.html#28,28,1536,722,1536,864,9-18-2022,12-47-34,59,depth_duration_stimuli/000749_2014-06-08_21-55-06_260595134347_rgbf000070-resize_2/000749_2014-06-08_21-55-06_260595134347_rgbf000070-resize_2-target.png,125,2.331,6,1723,119,feet,jsons/VE125_randls_42.json,493548,661912,37,Woman
59,227151,DepthScenes,duration_manipulation_targetAtFixation,jsons/VE125_randls_42.json,http://54.235.29.9/FacialAge/BNav_EC2/DepthDuration/v2_depth_duration_MTurk/v2_DepthDuration_HTML.html#28,28,1536,722,1536,864,9-18-2022,12-47-34,60,depth_duration_stimuli/001167_2014-06-17_15-38-07_260595134347_rgbf000108-resize_0/001167_2014-06-17_15-38-07_260595134347_rgbf000108-resize_0-target.png,125,1.8505,2,1916,126,feet,jsons/VE125_randls_42.json,493548,661912,37,Woman
60,227151,DepthScenes,duration_manipulation_targetAtFixation,jsons/VE125_randls_42.json,http://54.235.29.9/FacialAge/BNav_EC2/DepthDuration/v2_depth_duration_MTurk/v2_DepthDuration_HTML.html#28,28,1536,722,1536,864,9-18-2022,12-47-34,61,depth_duration_stimuli/003587_2014-05-23_16-48-02_094959634447_rgbf002384-resize_2/003587_2014-05-23_16-48-02_094959634447_rgbf002384-resize_2-target.png,125,1.357,3,1487,141,feet,jsons/VE125_randls_42.json,493548,661912,37,Woman
61,227151,DepthScenes,duration_manipulation_targetAtFixation,jsons/VE125_randls_42.json,http://54.235.29.9/FacialAge/BNav_EC2/DepthDuration/v2_depth_duration_MTurk/v2_DepthDuration_HTML.html#28,28,1536,722,1536,864,9-18-2022,12-47-34,62,depth_duration_stimuli/001016_2014-06-09_16-16-10_260595134347_rgbf000112-resize_5/001016_2014-06-09_16-16-10_260595134347_rgbf000112-resize_5-target.png,125,1.6565,4,1692,129,feet,jsons/VE125_randls_42.json,493548,661912,37,Woman
62,227151,DepthScenes,duration_manipulation_targetAtFixation,jsons/VE125_randls_42.json,http://54.235.29.9/FacialAge/BNav_EC2/DepthDuration/v2_depth_duration_MTurk/v2_DepthDuration_HTML.html#28,28,1536,722,1536,864,9-18-2022,12-47-34,63,depth_duration_stimuli/002340_2014-06-28_20-05-46_260595134347_rgbf000113-resize_0/002340_2014-06-28_20-05-46_260595134347_rgbf000113-resize_0-target.png,125,2.4735,5,1761,116,feet,jsons/VE125_randls_42.json,493548,661912,37,Woman
63,227151,DepthScenes,duration_manipulation_targetAtFixation,jsons/VE125_randls_42.json,http://54.235.29.9/FacialAge/BNav_EC2/DepthDuration/v2_depth_duration_MTurk/v2_DepthDuration_HTML.html#28,28,1536,722,1536,864,9-18-2022,12-47-34,64,depth_duration_stimuli/001059_2014-06-08_21-53-27_260595134347_rgbf000061-resize_4/001059_2014-06-08_21-53-27_260595134347_rgbf000061-resize_4-target.png,125,2.4185,6,1845,128,feet,jsons/VE125_randls_42.json,493548,661912,37,Woman
64,227151,DepthScenes,duration_manipulation_targetAtFixation,jsons/VE125_randls_42.json,http://54.235.29.9/FacialAge/BNav_EC2/DepthDuration/v2_depth_duration_MTurk/v2_DepthDuration_HTML.html#28,28,1536,722,1536,864,9-18-2022,12-47-34,65,depth_duration_stimuli/001032_2014-06-08_13-23-17_260595134347_rgbf000021-resize_3/001032_2014-06-08_13-23-17_260595134347_rgbf000021-resize_3-target.png,125,3.2725,6,2959,125,feet,jsons/VE125_randls_42.json,493548,661912,37,Woman
65,227151,DepthScenes,duration_manipulation_targetAtFixation,jsons/VE125_randls_42.json,http://54.235.29.9/FacialAge/BNav_EC2/DepthDuration/v2_depth_duration_MTurk/v2_DepthDuration_HTML.html#28,28,1536,722,1536,864,9-18-2022,12-47-34,66,depth_duration_stimuli/001222_2014-06-17_16-24-06_260595134347_rgbf000073-resize_0/001222_2014-06-17_16-24-06_260595134347_rgbf000073-resize-original.jpg,125,1.4385,2,2319,140,feet,jsons/VE125_randls_42.json,493548,661912,37,Woman
66,227151,DepthScenes,duration_manipulation_targetAtFixation,jsons/VE125_randls_42.json,http://54.235.29.9/FacialAge/BNav_EC2/DepthDuration/v2_depth_duration_MTurk/v2_DepthDuration_HTML.html#28,28,1536,722,1536,864,9-18-2022,12-47-34,67,depth_duration_stimuli/002043_2014-06-24_20-29-38_260595134347_rgbf000039-resize_4/002043_2014-06-24_20-29-38_260595134347_rgbf000039-resize_4-target.png,125,2.8435,3,2321,128,feet,jsons/VE125_randls_42.json,493548,661912,37,Woman
67,227151,DepthScenes,duration_manipulation_targetAtFixation,jsons/VE125_randls_42.json,http://54.235.29.9/FacialAge/BNav_EC2/DepthDuration/v2_depth_duration_MTurk/v2_DepthDuration_HTML.html#28,28,1536,722,1536,864,9-18-2022,12-47-34,68,depth_duration_stimuli/003048_2014-06-15_13-49-43_094959634447_rgbf000150-resize_1/003048_2014-06-15_13-49-43_094959634447_rgbf000150-resize_1-target.png,125,4.0035,4,1646,137,feet,jsons/VE125_randls_42.json,493548,661912,37,Woman
68,227151,DepthScenes,duration_manipulation_targetAtFixation,jsons/VE125_randls_42.json,http://54.235.29.9/FacialAge/BNav_EC2/DepthDuration/v2_depth_duration_MTurk/v2_DepthDuration_HTML.html#28,28,1536,722,1536,864,9-18-2022,12-47-34,69,depth_duration_stimuli/002570_2014-06-24_13-59-54_094959634447_rgbf000059-resize_0/002570_2014-06-24_13-59-54_094959634447_rgbf000059-resize_0-target.png,125,4.037,5,2010,125,feet,jsons/VE125_randls_42.json,493548,661912,37,Woman
69,227151,DepthScenes,duration_manipulation_targetAtFixation,jsons/VE125_randls_42.json,http://54.235.29.9/FacialAge/BNav_EC2/DepthDuration/v2_depth_duration_MTurk/v2_DepthDuration_HTML.html#28,28,1536,722,1536,864,9-18-2022,12-47-34,70,depth_duration_stimuli/002467_2014-06-28_20-38-07_260595134347_rgbf000026-resize_2/002467_2014-06-28_20-38-07_260595134347_rgbf000026-resize_2-target.png,125,4.742,6,2000,111,feet,jsons/VE125_randls_42.json,493548,661912,37,Woman
70,227151,DepthScenes,duration_manipulation_targetAtFixation,jsons/VE125_randls_42.json,http://54.235.29.9/FacialAge/BNav_EC2/DepthDuration/v2_depth_duration_MTurk/v2_DepthDuration_HTML.html#28,28,1536,722,1536,864,9-18-2022,12-47-34,71,depth_duration_stimuli/002213_2014-06-28_18-37-58_260595134347_rgbf000055-resize_1/002213_2014-06-28_18-37-58_260595134347_rgbf000055-resize_1-target.png,125,3.62,2,2278,124,feet,jsons/VE125_randls_42.json,493548,661912,37,Woman
71,227151,DepthScenes,duration_manipulation_targetAtFixation,jsons/VE125_randls_42.json,http://54.235.29.9/FacialAge/BNav_EC2/DepthDuration/v2_depth_duration_MTurk/v2_DepthDuration_HTML.html#28,28,1536,722,1536,864,9-18-2022,12-47-34,72,depth_duration_stimuli/000691_2014-06-08_13-08-50_260595134347_rgbf000132-resize_3/000691_2014-06-08_13-08-50_260595134347_rgbf000132-resize_3-target.png,125,4.1530000000000005,3,1857,116,feet,jsons/VE125_randls_42.json,493548,661912,37,Woman
72,227151,DepthScenes,duration_manipulation_targetAtFixation,jsons/VE125_randls_42.json,http://54.235.29.9/FacialAge/BNav_EC2/DepthDuration/v2_depth_duration_MTurk/v2_DepthDuration_HTML.html#28,28,1536,722,1536,864,9-18-2022,12-47-34,73,depth_duration_stimuli/000522_2014-06-08_13-35-06_260595134347_rgbf000244-resize_1/000522_2014-06-08_13-35-06_260595134347_rgbf000244-resize_1-target.png,125,2.3715,4,1588,125,feet,jsons/VE125_randls_42.json,493548,661912,37,Woman
73,227151,DepthScenes,duration_manipulation_targetAtFixation,jsons/VE125_randls_42.json,http://54.235.29.9/FacialAge/BNav_EC2/DepthDuration/v2_depth_duration_MTurk/v2_DepthDuration_HTML.html#28,28,1536,722,1536,864,9-18-2022,12-47-34,74,depth_duration_stimuli/002949_2014-06-26_15-57-42_094959634447_rgbf000079-resize_1/002949_2014-06-26_15-57-42_094959634447_rgbf000079-resize_1-target.png,125,1.8915,5,1843,109,feet,jsons/VE125_randls_42.json,493548,661912,37,Woman
74,227151,DepthScenes,duration_manipulation_targetAtFixation,jsons/VE125_randls_42.json,http://54.235.29.9/FacialAge/BNav_EC2/DepthDuration/v2_depth_duration_MTurk/v2_DepthDuration_HTML.html#28,28,1536,722,1536,864,9-18-2022,12-47-34,75,depth_duration_stimuli/002663_2014-06-13_15-50-26_094959634447_rgbf000075-resize_1/002663_2014-06-13_15-50-26_094959634447_rgbf000075-resize_1-target.png,125,4.7495,6,1889,117,feet,jsons/VE125_randls_42.json,493548,661912,37,Woman
75,227151,DepthScenes,duration_manipulation_targetAtFixation,jsons/VE125_randls_42.json,http://54.235.29.9/FacialAge/BNav_EC2/DepthDuration/v2_depth_duration_MTurk/v2_DepthDuration_HTML.html#28,28,1536,722,1536,864,9-18-2022,12-47-34,76,depth_duration_stimuli/000409_2014-06-04_19-23-33_260595134347_rgbf000067-resize_0/000409_2014-06-04_19-23-33_260595134347_rgbf000067-resize_0-target.png,125,3.7335,2,2812,121,feet,jsons/VE125_randls_42.json,493548,661912,37,Woman
76,227151,DepthScenes,duration_manipulation_targetAtFixation,jsons/VE125_randls_42.json,http://54.235.29.9/FacialAge/BNav_EC2/DepthDuration/v2_depth_duration_MTurk/v2_DepthDuration_HTML.html#28,28,1536,722,1536,864,9-18-2022,12-47-34,77,depth_duration_stimuli/000469_2014-06-09_19-42-10_260595134347_rgbf000081-resize_1/000469_2014-06-09_19-42-10_260595134347_rgbf000081-resize_1-target.png,125,1.652,2,1878,129,feet,jsons/VE125_randls_42.json,493548,661912,37,Woman
77,227151,DepthScenes,duration_manipulation_targetAtFixation,jsons/VE125_randls_42.json,http://54.235.29.9/FacialAge/BNav_EC2/DepthDuration/v2_depth_duration_MTurk/v2_DepthDuration_HTML.html#28,28,1536,722,1536,864,9-18-2022,12-47-34,78,depth_duration_stimuli/000483_2014-06-09_20-41-45_260595134347_rgbf000116-resize_4/000483_2014-06-09_20-41-45_260595134347_rgbf000116-resize_4-target.png,125,1.337,3,1940,122,feet,jsons/VE125_randls_42.json,493548,661912,37,Woman
78,227151,DepthScenes,duration_manipulation_targetAtFixation,jsons/VE125_randls_42.json,http://54.235.29.9/FacialAge/BNav_EC2/DepthDuration/v2_depth_duration_MTurk/v2_DepthDuration_HTML.html#28,28,1536,722,1536,864,9-18-2022,12-47-34,79,depth_duration_stimuli/001449_2014-06-19_17-01-27_260595134347_rgbf000116-resize_2/001449_2014-06-19_17-01-27_260595134347_rgbf000116-resize_2-target.png,125,3.452,3,2236,130,feet,jsons/VE125_randls_42.json,493548,661912,37,Woman
79,227151,DepthScenes,duration_manipulation_targetAtFixation,jsons/VE125_randls_42.json,http://54.235.29.9/FacialAge/BNav_EC2/DepthDuration/v2_depth_duration_MTurk/v2_DepthDuration_HTML.html#28,28,1536,722,1536,864,9-18-2022,12-47-34,80,depth_duration_stimuli/001450_2014-06-19_17-02-03_260595134347_rgbf000203-resize_4/001450_2014-06-19_17-02-03_260595134347_rgbf000203-resize_4-target.png,125,4.0106666666667,4,2157,134,feet,jsons/VE125_randls_42.json,493548,661912,37,Woman
80,227151,DepthScenes,duration_manipulation_targetAtFixation,jsons/VE125_randls_42.json,http://54.235.29.9/FacialAge/BNav_EC2/DepthDuration/v2_depth_duration_MTurk/v2_DepthDuration_HTML.html#28,28,1536,722,1536,864,9-18-2022,12-47-34,81,depth_duration_stimuli/002039_2014-06-24_20-22-38_260595134347_rgbf000084-resize_1/002039_2014-06-24_20-22-38_260595134347_rgbf000084-resize_1-target.png,125,4.408,4,2020,125,feet,jsons/VE125_randls_42.json,493548,661912,37,Woman
81,227151,DepthScenes,duration_manipulation_targetAtFixation,jsons/VE125_randls_42.json,http://54.235.29.9/FacialAge/BNav_EC2/DepthDuration/v2_depth_duration_MTurk/v2_DepthDuration_HTML.html#28,28,1536,722,1536,864,9-18-2022,12-47-34,82,depth_duration_stimuli/002103_2014-06-25_20-00-40_260595134347_rgbf000049-resize_0/002103_2014-06-25_20-00-40_260595134347_rgbf000049-resize_0-target.png,125,4.105,5,1997,125,feet,jsons/VE125_randls_42.json,493548,661912,37,Woman
82,227151,DepthScenes,duration_manipulation_targetAtFixation,jsons/VE125_randls_42.json,http://54.235.29.9/FacialAge/BNav_EC2/DepthDuration/v2_depth_duration_MTurk/v2_DepthDuration_HTML.html#28,28,1536,722,1536,864,9-18-2022,12-47-34,83,depth_duration_stimuli/001570_2014-06-20_17-21-09_260595134347_rgbf000135-resize_4/001570_2014-06-20_17-21-09_260595134347_rgbf000135-resize_4-target.png,125,4.467,5,7692,126,feet,jsons/VE125_randls_42.json,493548,661912,37,Woman
83,227151,DepthScenes,duration_manipulation_targetAtFixation,jsons/VE125_randls_42.json,http://54.235.29.9/FacialAge/BNav_EC2/DepthDuration/v2_depth_duration_MTurk/v2_DepthDuration_HTML.html#28,28,1536,722,1536,864,9-18-2022,12-47-34,84,depth_duration_stimuli/001392_2014-06-19_16-07-59_260595134347_rgbf000046-resize_1/001392_2014-06-19_16-07-59_260595134347_rgbf000046-resize_1-target.png,125,4.135,6,1908,138,feet,jsons/VE125_randls_42.json,493548,661912,37,Woman
84,227151,DepthScenes,duration_manipulation_targetAtFixation,jsons/VE125_randls_42.json,http://54.235.29.9/FacialAge/BNav_EC2/DepthDuration/v2_depth_duration_MTurk/v2_DepthDuration_HTML.html#28,28,1536,722,1536,864,9-18-2022,12-47-34,85,depth_duration_stimuli/003621_2014-05-23_18-06-08_094959634447_rgbf000101-resize_1/003621_2014-05-23_18-06-08_094959634447_rgbf000101-resize_1-target.png,125,3.9835,6,2216,127,feet,jsons/VE125_randls_42.json,493548,661912,37,Woman
85,227151,DepthScenes,duration_manipulation_targetAtFixation,jsons/VE125_randls_42.json,http://54.235.29.9/FacialAge/BNav_EC2/DepthDuration/v2_depth_duration_MTurk/v2_DepthDuration_HTML.html#28,28,1536,722,1536,864,9-18-2022,12-47-34,86,depth_duration_stimuli/001584_2014-06-20_11-07-43_260595134347_rgbf000002-resize_1/001584_2014-06-20_11-07-43_260595134347_rgbf000002-resize_1-target.png,125,3.53,2,2149,120,feet,jsons/VE125_randls_42.json,493548,661912,37,Woman
86,227151,DepthScenes,duration_manipulation_targetAtFixation,jsons/VE125_randls_42.json,http://54.235.29.9/FacialAge/BNav_EC2/DepthDuration/v2_depth_duration_MTurk/v2_DepthDuration_HTML.html#28,28,1536,722,1536,864,9-18-2022,12-47-34,87,depth_duration_stimuli/000436_2014-06-09_22-25-11_260595134347_rgbf000137-resize_1/000436_2014-06-09_22-25-11_260595134347_rgbf000137-resize_1-target.png,125,4.0705,3,1843,127,feet,jsons/VE125_randls_42.json,493548,661912,37,Woman
87,227151,DepthScenes,duration_manipulation_targetAtFixation,jsons/VE125_randls_42.json,http://54.235.29.9/FacialAge/BNav_EC2/DepthDuration/v2_depth_duration_MTurk/v2_DepthDuration_HTML.html#28,28,1536,722,1536,864,9-18-2022,12-47-34,88,depth_duration_stimuli/002444_2014-06-28_20-32-08_260595134347_rgbf000027-resize_0/002444_2014-06-28_20-32-08_260595134347_rgbf000027-resize_0-target.png,125,4.388999999999999,4,1787,130,feet,jsons/VE125_randls_42.json,493548,661912,37,Woman
88,227151,DepthScenes,duration_manipulation_targetAtFixation,jsons/VE125_randls_42.json,http://54.235.29.9/FacialAge/BNav_EC2/DepthDuration/v2_depth_duration_MTurk/v2_DepthDuration_HTML.html#28,28,1536,722,1536,864,9-18-2022,12-47-34,89,depth_duration_stimuli/003070_2014-06-15_14-58-27_094959634447_rgbf000150-resize_3/003070_2014-06-15_14-58-27_094959634447_rgbf000150-resize_3-target.png,125,2.9415,5,2878,114,feet,jsons/VE125_randls_42.json,493548,661912,37,Woman
89,227151,DepthScenes,duration_manipulation_targetAtFixation,jsons/VE125_randls_42.json,http://54.235.29.9/FacialAge/BNav_EC2/DepthDuration/v2_depth_duration_MTurk/v2_DepthDuration_HTML.html#28,28,1536,722,1536,864,9-18-2022,12-47-34,90,depth_duration_stimuli/000943_2014-06-09_19-31-07_260595134347_rgbf000128-resize_1/000943_2014-06-09_19-31-07_260595134347_rgbf000128-resize_1-target.png,125,1.9765,6,1818,135,feet,jsons/VE125_randls_42.json,493548,661912,37,Woman
90,227151,DepthScenes,duration_manipulation_targetAtFixation,jsons/VE125_randls_42.json,http://54.235.29.9/FacialAge/BNav_EC2/DepthDuration/v2_depth_duration_MTurk/v2_DepthDuration_HTML.html#28,28,1536,722,1536,864,9-18-2022,12-47-34,91,depth_duration_stimuli/000470_2014-06-09_19-42-40_260595134347_rgbf000094-resize_1/000470_2014-06-09_19-42-40_260595134347_rgbf000094-resize_1-target.png,125,1.831,2,3831,120,feet,jsons/VE125_randls_42.json,493548,661912,37,Woman
91,227151,DepthScenes,duration_manipulation_targetAtFixation,jsons/VE125_randls_42.json,http://54.235.29.9/FacialAge/BNav_EC2/DepthDuration/v2_depth_duration_MTurk/v2_DepthDuration_HTML.html#28,28,1536,722,1536,864,9-18-2022,12-47-34,92,depth_duration_stimuli/000109_2014-05-14_23-41-52_260595134347_rgbf000035-resize_9/000109_2014-05-14_23-41-52_260595134347_rgbf000035-resize_9-target.png,125,1.3545,3,1700,117,feet,jsons/VE125_randls_42.json,493548,661912,37,Woman
92,227151,DepthScenes,duration_manipulation_targetAtFixation,jsons/VE125_randls_42.json,http://54.235.29.9/FacialAge/BNav_EC2/DepthDuration/v2_depth_duration_MTurk/v2_DepthDuration_HTML.html#28,28,1536,722,1536,864,9-18-2022,12-47-34,93,depth_duration_stimuli/002549_2014-06-24_13-41-39_094959634447_rgbf000022-resize_3/002549_2014-06-24_13-41-39_094959634447_rgbf000022-resize_3-target.png,125,1.476,4,1648,130,feet,jsons/VE125_randls_42.json,493548,661912,37,Woman
93,227151,DepthScenes,duration_manipulation_targetAtFixation,jsons/VE125_randls_42.json,http://54.235.29.9/FacialAge/BNav_EC2/DepthDuration/v2_depth_duration_MTurk/v2_DepthDuration_HTML.html#28,28,1536,722,1536,864,9-18-2022,12-47-34,94,depth_duration_stimuli/002750_2014-06-22_19-08-03_094959634447_rgbf000094-resize_4/002750_2014-06-22_19-08-03_094959634447_rgbf000094-resize_4-target.png,125,2.354,5,1654,135,feet,jsons/VE125_randls_42.json,493548,661912,37,Woman
94,227151,DepthScenes,duration_manipulation_targetAtFixation,jsons/VE125_randls_42.json,http://54.235.29.9/FacialAge/BNav_EC2/DepthDuration/v2_depth_duration_MTurk/v2_DepthDuration_HTML.html#28,28,1536,722,1536,864,9-18-2022,12-47-34,95,depth_duration_stimuli/002905_2014-06-03_18-04-43_094959634447_rgbf000151-resize_2/002905_2014-06-03_18-04-43_094959634447_rgbf000151-resize_2-target.png,125,2.0295,6,1878,119,feet,jsons/VE125_randls_42.json,493548,661912,37,Woman
95,227151,DepthScenes,duration_manipulation_targetAtFixation,jsons/VE125_randls_42.json,http://54.235.29.9/FacialAge/BNav_EC2/DepthDuration/v2_depth_duration_MTurk/v2_DepthDuration_HTML.html#28,28,1536,722,1536,864,9-18-2022,12-47-34,96,depth_duration_stimuli/003423_2014-05-21_10-23-26_094959634447_rgbf002665-resize_2/003423_2014-05-21_10-23-26_094959634447_rgbf002665-resize_2-target.png,125,3.2575,1,2135,110,feet,jsons/VE125_randls_42.json,493548,661912,37,Woman
96,227151,DepthScenes,duration_manipulation_targetAtFixation,jsons/VE125_randls_42.json,http://54.235.29.9/FacialAge/BNav_EC2/DepthDuration/v2_depth_duration_MTurk/v2_DepthDuration_HTML.html#28,28,1536,722,1536,864,9-18-2022,12-47-34,97,depth_duration_stimuli/000773_2014-06-08_22-24-54_260595134347_rgbf000093-resize_1/000773_2014-06-08_22-24-54_260595134347_rgbf000093-resize_1-target.png,125,4.973,3,1880,112,feet,jsons/VE125_randls_42.json,493548,661912,37,Woman
97,227151,DepthScenes,duration_manipulation_targetAtFixation,jsons/VE125_randls_42.json,http://54.235.29.9/FacialAge/BNav_EC2/DepthDuration/v2_depth_duration_MTurk/v2_DepthDuration_HTML.html#28,28,1536,722,1536,864,9-18-2022,12-47-34,98,depth_duration_stimuli/002414_2014-06-28_20-24-58_260595134347_rgbf000067-resize_4/002414_2014-06-28_20-24-58_260595134347_rgbf000067-resize_4-target.png,125,4.363,4,4096,128,feet,jsons/VE125_randls_42.json,493548,661912,37,Woman
98,227151,DepthScenes,duration_manipulation_targetAtFixation,jsons/VE125_randls_42.json,http://54.235.29.9/FacialAge/BNav_EC2/DepthDuration/v2_depth_duration_MTurk/v2_DepthDuration_HTML.html#28,28,1536,722,1536,864,9-18-2022,12-47-34,99,depth_duration_stimuli/001540_2014-06-20_17-01-05_260595134347_rgbf000086-resize_2/001540_2014-06-20_17-01-05_260595134347_rgbf000086-resize-original.jpg,125,1.459,5,2246,131,feet,jsons/VE125_randls_42.json,493548,661912,37,Woman
99,227151,DepthScenes,duration_manipulation_targetAtFixation,jsons/VE125_randls_42.json,http://54.235.29.9/FacialAge/BNav_EC2/DepthDuration/v2_depth_duration_MTurk/v2_DepthDuration_HTML.html#28,28,1536,722,1536,864,9-18-2022,12-47-34,100,depth_duration_stimuli/002153_2014-06-25_21-27-18_260595134347_rgbf000038-resize_5/002153_2014-06-25_21-27-18_260595134347_rgbf000038-resize_5-target.png,125,2.505,6,2816,130,feet,jsons/VE125_randls_42.json,493548,661912,37,Woman
100,227151,DepthScenes,duration_manipulation_targetAtFixation,jsons/VE125_randls_42.json,http://54.235.29.9/FacialAge/BNav_EC2/DepthDuration/v2_depth_duration_MTurk/v2_DepthDuration_HTML.html#28,28,1536,722,1536,864,9-18-2022,12-47-34,101,depth_duration_stimuli/002660_2014-06-13_15-44-18_094959634447_rgbf001878-resize_2/002660_2014-06-13_15-44-18_094959634447_rgbf001878-resize_2-target.png,125,3.576,2,3374,115,feet,jsons/VE125_randls_42.json,493548,661912,37,Woman
101,227151,DepthScenes,duration_manipulation_targetAtFixation,jsons/VE125_randls_42.json,http://54.235.29.9/FacialAge/BNav_EC2/DepthDuration/v2_depth_duration_MTurk/v2_DepthDuration_HTML.html#28,28,1536,722,1536,864,9-18-2022,12-47-34,102,depth_duration_stimuli/001029_2014-06-08_13-17-57_260595134347_rgbf000065-resize_1/001029_2014-06-08_13-17-57_260595134347_rgbf000065-resize_1-target.png,125,3.0835,3,2085,111,feet,jsons/VE125_randls_42.json,493548,661912,37,Woman
102,227151,DepthScenes,duration_manipulation_targetAtFixation,jsons/VE125_randls_42.json,http://54.235.29.9/FacialAge/BNav_EC2/DepthDuration/v2_depth_duration_MTurk/v2_DepthDuration_HTML.html#28,28,1536,722,1536,864,9-18-2022,12-47-34,103,depth_duration_stimuli/000677_2014-06-08_23-10-32_260595134347_rgbf000158-resize_6/000677_2014-06-08_23-10-32_260595134347_rgbf000158-resize_6-target.png,125,3.556,4,1869,125,feet,jsons/VE125_randls_42.json,493548,661912,37,Woman
103,227151,DepthScenes,duration_manipulation_targetAtFixation,jsons/VE125_randls_42.json,http://54.235.29.9/FacialAge/BNav_EC2/DepthDuration/v2_depth_duration_MTurk/v2_DepthDuration_HTML.html#28,28,1536,722,1536,864,9-18-2022,12-47-34,104,depth_duration_stimuli/001133_2014-06-17_14-49-16_260595134347_rgbf000100-resize_0/001133_2014-06-17_14-49-16_260595134347_rgbf000100-resize_0-target.png,125,4.2115,5,1758,134,feet,jsons/VE125_randls_42.json,493548,661912,37,Woman
104,227151,DepthScenes,duration_manipulation_targetAtFixation,jsons/VE125_randls_42.json,http://54.235.29.9/FacialAge/BNav_EC2/DepthDuration/v2_depth_duration_MTurk/v2_DepthDuration_HTML.html#28,28,1536,722,1536,864,9-18-2022,12-47-34,105,depth_duration_stimuli/001132_2014-06-17_14-48-54_260595134347_rgbf000100-resize_2/001132_2014-06-17_14-48-54_260595134347_rgbf000100-resize_2-target.png,125,3.753,6,1761,120,feet,jsons/VE125_randls_42.json,493548,661912,37,Woman
105,227151,DepthScenes,duration_manipulation_targetAtFixation,jsons/VE125_randls_42.json,http://54.235.29.9/FacialAge/BNav_EC2/DepthDuration/v2_depth_duration_MTurk/v2_DepthDuration_HTML.html#28,28,1536,722,1536,864,9-18-2022,12-47-34,106,depth_duration_stimuli/002964_2014-06-08_17-46-11_094959634447_rgbf000091-resize_4/002964_2014-06-08_17-46-11_094959634447_rgbf000091-resize_4-target.png,125,1.6909999999999998,2,1925,124,feet,jsons/VE125_randls_42.json,493548,661912,37,Woman
106,227151,DepthScenes,duration_manipulation_targetAtFixation,jsons/VE125_randls_42.json,http://54.235.29.9/FacialAge/BNav_EC2/DepthDuration/v2_depth_duration_MTurk/v2_DepthDuration_HTML.html#28,28,1536,722,1536,864,9-18-2022,12-47-34,107,depth_duration_stimuli/002136_2014-06-25_21-18-03_260595134347_rgbf000109-resize_3/002136_2014-06-25_21-18-03_260595134347_rgbf000109-resize_3-target.png,125,1.9569999999999999,3,1748,115,feet,jsons/VE125_randls_42.json,493548,661912,37,Woman
107,227151,DepthScenes,duration_manipulation_targetAtFixation,jsons/VE125_randls_42.json,http://54.235.29.9/FacialAge/BNav_EC2/DepthDuration/v2_depth_duration_MTurk/v2_DepthDuration_HTML.html#28,28,1536,722,1536,864,9-18-2022,12-47-34,108,depth_duration_stimuli/001808_2014-06-26_20-50-58_260595134347_rgbf000029-resize_1/001808_2014-06-26_20-50-58_260595134347_rgbf000029-resize_1-target.png,125,4.249,4,1805,130,feet,jsons/VE125_randls_42.json,493548,661912,37,Woman
108,227151,DepthScenes,duration_manipulation_targetAtFixation,jsons/VE125_randls_42.json,http://54.235.29.9/FacialAge/BNav_EC2/DepthDuration/v2_depth_duration_MTurk/v2_DepthDuration_HTML.html#28,28,1536,722,1536,864,9-18-2022,12-47-34,109,depth_duration_stimuli/001815_2014-06-26_20-52-55_260595134347_rgbf000020-resize_0/001815_2014-06-26_20-52-55_260595134347_rgbf000020-resize_0-target.png,125,3.3865,5,1690,117,feet,jsons/VE125_randls_42.json,493548,661912,37,Woman
109,227151,DepthScenes,duration_manipulation_targetAtFixation,jsons/VE125_randls_42.json,http://54.235.29.9/FacialAge/BNav_EC2/DepthDuration/v2_depth_duration_MTurk/v2_DepthDuration_HTML.html#28,28,1536,722,1536,864,9-18-2022,12-47-34,110,depth_duration_stimuli/000929_2014-06-09_16-33-19_260595134347_rgbf000139-resize_0/000929_2014-06-09_16-33-19_260595134347_rgbf000139-resize_0-target.png,125,2.8680000000000003,6,1911,138,feet,jsons/VE125_randls_42.json,493548,661912,37,Woman
110,227151,DepthScenes,duration_manipulation_targetAtFixation,jsons/VE125_randls_42.json,http://54.235.29.9/FacialAge/BNav_EC2/DepthDuration/v2_depth_duration_MTurk/v2_DepthDuration_HTML.html#28,28,1536,722,1536,864,9-18-2022,12-47-34,111,depth_duration_stimuli/000457_2014-06-08_16-52-43_260595134347_rgbf000199-resize_1/000457_2014-06-08_16-52-43_260595134347_rgbf000199-resize_1-target.png,125,3.6489999999999996,3,31518,74,feet,jsons/VE125_randls_42.json,493548,661912,37,Woman
111,227151,DepthScenes,duration_manipulation_targetAtFixation,jsons/VE125_randls_42.json,http://54.235.29.9/FacialAge/BNav_EC2/DepthDuration/v2_depth_duration_MTurk/v2_DepthDuration_HTML.html#28,28,1536,722,1536,864,9-18-2022,12-47-34,112,depth_duration_stimuli/000447_2014-06-08_16-15-46_260595134347_rgbf000130-resize_1/000447_2014-06-08_16-15-46_260595134347_rgbf000130-resize_1-target.png,125,4.479,4,2363,100,feet,jsons/VE125_randls_42.json,493548,661912,37,Woman
112,227151,DepthScenes,duration_manipulation_targetAtFixation,jsons/VE125_randls_42.json,http://54.235.29.9/FacialAge/BNav_EC2/DepthDuration/v2_depth_duration_MTurk/v2_DepthDuration_HTML.html#28,28,1536,722,1536,864,9-18-2022,12-47-34,113,depth_duration_stimuli/001447_2014-06-19_17-00-32_260595134347_rgbf000082-resize_5/001447_2014-06-19_17-00-32_260595134347_rgbf000082-resize_5-target.png,125,4.13775,5,2737,125,feet,jsons/VE125_randls_42.json,493548,661912,37,Woman
113,227151,DepthScenes,duration_manipulation_targetAtFixation,jsons/VE125_randls_42.json,http://54.235.29.9/FacialAge/BNav_EC2/DepthDuration/v2_depth_duration_MTurk/v2_DepthDuration_HTML.html#28,28,1536,722,1536,864,9-18-2022,12-47-34,114,depth_duration_stimuli/000493_2014-06-09_21-01-18_260595134347_rgbf000196-resize_3/000493_2014-06-09_21-01-18_260595134347_rgbf000196-resize_3-target.png,125,3.44,6,2273,117,feet,jsons/VE125_randls_42.json,493548,661912,37,Woman
114,227151,DepthScenes,duration_manipulation_targetAtFixation,jsons/VE125_randls_42.json,http://54.235.29.9/FacialAge/BNav_EC2/DepthDuration/v2_depth_duration_MTurk/v2_DepthDuration_HTML.html#28,28,1536,722,1536,864,9-18-2022,12-47-34,115,depth_duration_stimuli/000191_2014-05-12_17-07-38_260595134347_rgbf000199-resize_0/000191_2014-05-12_17-07-38_260595134347_rgbf000199-resize_0-target.png,125,3.7995,2,1866,120,feet,jsons/VE125_randls_42.json,493548,661912,37,Woman
115,227151,DepthScenes,duration_manipulation_targetAtFixation,jsons/VE125_randls_42.json,http://54.235.29.9/FacialAge/BNav_EC2/DepthDuration/v2_depth_duration_MTurk/v2_DepthDuration_HTML.html#28,28,1536,722,1536,864,9-18-2022,12-47-34,116,depth_duration_stimuli/001170_2014-06-17_15-43-44_260595134347_rgbf000096-resize_6/001170_2014-06-17_15-43-44_260595134347_rgbf000096-resize-original.jpg,125,1.1909999999999998,0,3147,119,feet,jsons/VE125_randls_42.json,493548,661912,37,Woman
116,227151,DepthScenes,duration_manipulation_targetAtFixation,jsons/VE125_randls_42.json,http://54.235.29.9/FacialAge/BNav_EC2/DepthDuration/v2_depth_duration_MTurk/v2_DepthDuration_HTML.html#28,28,1536,722,1536,864,9-18-2022,12-47-34,117,depth_duration_stimuli/002279_2014-06-28_18-55-32_260595134347_rgbf000040-resize_5/002279_2014-06-28_18-55-32_260595134347_rgbf000040-resize_5-target.png,125,1.5043333333333,2,2201,125,feet,jsons/VE125_randls_42.json,493548,661912,37,Woman
117,227151,DepthScenes,duration_manipulation_targetAtFixation,jsons/VE125_randls_42.json,http://54.235.29.9/FacialAge/BNav_EC2/DepthDuration/v2_depth_duration_MTurk/v2_DepthDuration_HTML.html#28,28,1536,722,1536,864,9-18-2022,12-47-34,118,depth_duration_stimuli/000635_2014-06-08_16-38-42_260595134347_rgbf000106-resize_1/000635_2014-06-08_16-38-42_260595134347_rgbf000106-resize_1-target.png,125,2.074,3,1864,124,feet,jsons/VE125_randls_42.json,493548,661912,37,Woman
118,227151,DepthScenes,duration_manipulation_targetAtFixation,jsons/VE125_randls_42.json,http://54.235.29.9/FacialAge/BNav_EC2/DepthDuration/v2_depth_duration_MTurk/v2_DepthDuration_HTML.html#28,28,1536,722,1536,864,9-18-2022,12-47-34,119,depth_duration_stimuli/001175_2014-06-17_15-45-55_260595134347_rgbf000129-resize_4/001175_2014-06-17_15-45-55_260595134347_rgbf000129-resize_4-target.png,125,4.255,4,2278,124,feet,jsons/VE125_randls_42.json,493548,661912,37,Woman
119,227151,DepthScenes,duration_manipulation_targetAtFixation,jsons/VE125_randls_42.json,http://54.235.29.9/FacialAge/BNav_EC2/DepthDuration/v2_depth_duration_MTurk/v2_DepthDuration_HTML.html#28,28,1536,722,1536,864,9-18-2022,12-47-34,120,depth_duration_stimuli/003490_2014-05-21_15-50-11_094959634447_rgbf000101-resize_3/003490_2014-05-21_15-50-11_094959634447_rgbf000101-resize_3-target.png,125,3.6445,5,1918,118,feet,jsons/VE125_randls_42.json,493548,661912,37,Woman
120,227151,DepthScenes,duration_manipulation_targetAtFixation,jsons/VE125_randls_42.json,http://54.235.29.9/FacialAge/BNav_EC2/DepthDuration/v2_depth_duration_MTurk/v2_DepthDuration_HTML.html#28,28,1536,722,1536,864,9-18-2022,12-47-34,121,depth_duration_stimuli/001150_2014-06-17_15-27-34_260595134347_rgbf000108-resize_2/001150_2014-06-17_15-27-34_260595134347_rgbf000108-resize_2-target.png,125,4.0325,2,18257,130,feet,jsons/VE125_randls_42.json,493548,661912,37,Woman
121,227151,DepthScenes,duration_manipulation_targetAtFixation,jsons/VE125_randls_42.json,http://54.235.29.9/FacialAge/BNav_EC2/DepthDuration/v2_depth_duration_MTurk/v2_DepthDuration_HTML.html#28,28,1536,722,1536,864,9-18-2022,12-47-34,122,depth_duration_stimuli/000665_2014-06-09_20-42-35_260595134347_rgbf000110-resize_1/000665_2014-06-09_20-42-35_260595134347_rgbf000110-resize_1-target.png,125,3.057,3,2132,115,feet,jsons/VE125_randls_42.json,493548,661912,37,Woman
122,227151,DepthScenes,duration_manipulation_targetAtFixation,jsons/VE125_randls_42.json,http://54.235.29.9/FacialAge/BNav_EC2/DepthDuration/v2_depth_duration_MTurk/v2_DepthDuration_HTML.html#28,28,1536,722,1536,864,9-18-2022,12-47-34,123,depth_duration_stimuli/000810_2014-06-08_17-20-01_260595134347_rgbf000105-resize_0/000810_2014-06-08_17-20-01_260595134347_rgbf000105-resize_0-target.png,125,1.4865,4,1956,125,feet,jsons/VE125_randls_42.json,493548,661912,37,Woman
123,227151,DepthScenes,duration_manipulation_targetAtFixation,jsons/VE125_randls_42.json,http://54.235.29.9/FacialAge/BNav_EC2/DepthDuration/v2_depth_duration_MTurk/v2_DepthDuration_HTML.html#28,28,1536,722,1536,864,9-18-2022,12-47-34,124,depth_duration_stimuli/001214_2014-06-17_16-13-55_260595134347_rgbf000111-resize_0/001214_2014-06-17_16-13-55_260595134347_rgbf000111-resize_0-target.png,125,2.6505,5,1912,130,feet,jsons/VE125_randls_42.json,493548,661912,37,Woman
124,227151,DepthScenes,duration_manipulation_targetAtFixation,jsons/VE125_randls_42.json,http://54.235.29.9/FacialAge/BNav_EC2/DepthDuration/v2_depth_duration_MTurk/v2_DepthDuration_HTML.html#28,28,1536,722,1536,864,9-18-2022,12-47-34,125,depth_duration_stimuli/001092_2014-06-15_17-34-58_260595134347_rgbf000171-resize_3/001092_2014-06-15_17-34-58_260595134347_rgbf000171-resize_3-target.png,125,2.6935,6,1880,125,feet,jsons/VE125_randls_42.json,493548,661912,37,Woman
125,227151,DepthScenes,duration_manipulation_targetAtFixation,jsons/VE125_randls_42.json,http://54.235.29.9/FacialAge/BNav_EC2/DepthDuration/v2_depth_duration_MTurk/v2_DepthDuration_HTML.html#28,28,1536,722,1536,864,9-18-2022,12-47-34,126,depth_duration_stimuli/002545_2014-06-24_13-38-53_094959634447_rgbf000080-resize_4/002545_2014-06-24_13-38-53_094959634447_rgbf000080-resize_4-target.png,125,1.9205,2,2421,140,feet,jsons/VE125_randls_42.json,493548,661912,37,Woman
126,227151,DepthScenes,duration_manipulation_targetAtFixation,jsons/VE125_randls_42.json,http://54.235.29.9/FacialAge/BNav_EC2/DepthDuration/v2_depth_duration_MTurk/v2_DepthDuration_HTML.html#28,28,1536,722,1536,864,9-18-2022,12-47-34,127,depth_duration_stimuli/000414_2014-06-04_19-49-13_260595134347_rgbf000044-resize_0/000414_2014-06-04_19-49-13_260595134347_rgbf000044-resize_0-target.png,125,4.329,3,1977,122,feet,jsons/VE125_randls_42.json,493548,661912,37,Woman
127,227151,DepthScenes,duration_manipulation_targetAtFixation,jsons/VE125_randls_42.json,http://54.235.29.9/FacialAge/BNav_EC2/DepthDuration/v2_depth_duration_MTurk/v2_DepthDuration_HTML.html#28,28,1536,722,1536,864,9-18-2022,12-47-34,128,depth_duration_stimuli/003129_2014-05-12_10-48-10_094959634447_rgbf000100-resize_0/003129_2014-05-12_10-48-10_094959634447_rgbf000100-resize_0-target.png,125,4.9305,4,2276,121,feet,jsons/VE125_randls_42.json,493548,661912,37,Woman
128,227151,DepthScenes,duration_manipulation_targetAtFixation,jsons/VE125_randls_42.json,http://54.235.29.9/FacialAge/BNav_EC2/DepthDuration/v2_depth_duration_MTurk/v2_DepthDuration_HTML.html#28,28,1536,722,1536,864,9-18-2022,12-47-34,129,depth_duration_stimuli/002630_2014-06-24_14-47-50_094959634447_rgbf000055-resize_1/002630_2014-06-24_14-47-50_094959634447_rgbf000055-resize_1-target.png,125,3.0095,5,1789,130,feet,jsons/VE125_randls_42.json,493548,661912,37,Woman
129,227151,DepthScenes,duration_manipulation_targetAtFixation,jsons/VE125_randls_42.json,http://54.235.29.9/FacialAge/BNav_EC2/DepthDuration/v2_depth_duration_MTurk/v2_DepthDuration_HTML.html#28,28,1536,722,1536,864,9-18-2022,12-47-34,130,depth_duration_stimuli/002758_2014-06-22_19-11-20_094959634447_rgbf000128-resize_1/002758_2014-06-22_19-11-20_094959634447_rgbf000128-resize_1-target.png,125,2.555,6,2022,121,feet,jsons/VE125_randls_42.json,493548,661912,37,Woman
130,227151,DepthScenes,duration_manipulation_targetAtFixation,jsons/VE125_randls_42.json,http://54.235.29.9/FacialAge/BNav_EC2/DepthDuration/v2_depth_duration_MTurk/v2_DepthDuration_HTML.html#28,28,1536,722,1536,864,9-18-2022,12-47-34,131,depth_duration_stimuli/000917_2014-06-09_22-45-29_260595134347_rgbf000149-resize_3/000917_2014-06-09_22-45-29_260595134347_rgbf000149-resize_3-target.png,125,4.1865,2,1767,128,feet,jsons/VE125_randls_42.json,493548,661912,37,Woman
131,227151,DepthScenes,duration_manipulation_targetAtFixation,jsons/VE125_randls_42.json,http://54.235.29.9/FacialAge/BNav_EC2/DepthDuration/v2_depth_duration_MTurk/v2_DepthDuration_HTML.html#28,28,1536,722,1536,864,9-18-2022,12-47-34,132,depth_duration_stimuli/002323_2014-06-28_20-01-54_260595134347_rgbf000051-resize_4/002323_2014-06-28_20-01-54_260595134347_rgbf000051-resize_4-target.png,125,3.7310000000000003,3,1649,115,feet,jsons/VE125_randls_42.json,493548,661912,37,Woman
132,227151,DepthScenes,duration_manipulation_targetAtFixation,jsons/VE125_randls_42.json,http://54.235.29.9/FacialAge/BNav_EC2/DepthDuration/v2_depth_duration_MTurk/v2_DepthDuration_HTML.html#28,28,1536,722,1536,864,9-18-2022,12-47-34,133,depth_duration_stimuli/001806_2014-06-26_20-50-20_260595134347_rgbf000091-resize_1/001806_2014-06-26_20-50-20_260595134347_rgbf000091-resize_1-target.png,125,2.7305,4,2298,118,feet,jsons/VE125_randls_42.json,493548,661912,37,Woman
133,227151,DepthScenes,duration_manipulation_targetAtFixation,jsons/VE125_randls_42.json,http://54.235.29.9/FacialAge/BNav_EC2/DepthDuration/v2_depth_duration_MTurk/v2_DepthDuration_HTML.html#28,28,1536,722,1536,864,9-18-2022,12-47-34,134,depth_duration_stimuli/001617_2014-06-20_11-35-32_260595134347_rgbf000066-resize_1/001617_2014-06-20_11-35-32_260595134347_rgbf000066-resize_1-target.png,125,3.7910000000000004,5,1867,134,feet,jsons/VE125_randls_42.json,493548,661912,37,Woman
134,227151,DepthScenes,duration_manipulation_targetAtFixation,jsons/VE125_randls_42.json,http://54.235.29.9/FacialAge/BNav_EC2/DepthDuration/v2_depth_duration_MTurk/v2_DepthDuration_HTML.html#28,28,1536,722,1536,864,9-18-2022,12-47-34,135,depth_duration_stimuli/002072_2014-06-24_21-48-06_260595134347_rgbf000115-resize_0/002072_2014-06-24_21-48-06_260595134347_rgbf000115-resize-original.jpg,125,4.702,0,2825,123,feet,jsons/VE125_randls_42.json,493548,661912,37,Woman
135,227151,DepthScenes,duration_manipulation_targetAtFixation,jsons/VE125_randls_42.json,http://54.235.29.9/FacialAge/BNav_EC2/DepthDuration/v2_depth_duration_MTurk/v2_DepthDuration_HTML.html#28,28,1536,722,1536,864,9-18-2022,12-47-34,136,depth_duration_stimuli/001199_2014-06-17_16-03-48_260595134347_rgbf000077-resize_0/001199_2014-06-17_16-03-48_260595134347_rgbf000077-resize_0-target.png,125,3.4375,2,2040,114,feet,jsons/VE125_randls_42.json,493548,661912,37,Woman
136,227151,DepthScenes,duration_manipulation_targetAtFixation,jsons/VE125_randls_42.json,http://54.235.29.9/FacialAge/BNav_EC2/DepthDuration/v2_depth_duration_MTurk/v2_DepthDuration_HTML.html#28,28,1536,722,1536,864,9-18-2022,12-47-34,137,depth_duration_stimuli/000502_2014-06-08_23-02-32_260595134347_rgbf000063-resize_4/000502_2014-06-08_23-02-32_260595134347_rgbf000063-resize_4-target.png,125,2.431,3,1646,135,feet,jsons/VE125_randls_42.json,493548,661912,37,Woman
137,227151,DepthScenes,duration_manipulation_targetAtFixation,jsons/VE125_randls_42.json,http://54.235.29.9/FacialAge/BNav_EC2/DepthDuration/v2_depth_duration_MTurk/v2_DepthDuration_HTML.html#28,28,1536,722,1536,864,9-18-2022,12-47-34,138,depth_duration_stimuli/003492_2014-05-21_15-50-55_094959634447_rgbf000828-resize_1/003492_2014-05-21_15-50-55_094959634447_rgbf000828-resize_1-target.png,125,4.06875,4,2163,130,feet,jsons/VE125_randls_42.json,493548,661912,37,Woman
138,227151,DepthScenes,duration_manipulation_targetAtFixation,jsons/VE125_randls_42.json,http://54.235.29.9/FacialAge/BNav_EC2/DepthDuration/v2_depth_duration_MTurk/v2_DepthDuration_HTML.html#28,28,1536,722,1536,864,9-18-2022,12-47-34,139,depth_duration_stimuli/002568_2014-06-24_13-59-21_094959634447_rgbf000062-resize_4/002568_2014-06-24_13-59-21_094959634447_rgbf000062-resize_4-target.png,125,3.015,5,1773,126,feet,jsons/VE125_randls_42.json,493548,661912,37,Woman
139,227151,DepthScenes,duration_manipulation_targetAtFixation,jsons/VE125_randls_42.json,http://54.235.29.9/FacialAge/BNav_EC2/DepthDuration/v2_depth_duration_MTurk/v2_DepthDuration_HTML.html#28,28,1536,722,1536,864,9-18-2022,12-47-34,140,depth_duration_stimuli/001011_2014-06-08_23-18-54_260595134347_rgbf000044-resize_4/001011_2014-06-08_23-18-54_260595134347_rgbf000044-resize_4-target.png,125,2.4730000000000003,6,1860,113,feet,jsons/VE125_randls_42.json,493548,661912,37,Woman
140,227151,DepthScenes,duration_manipulation_targetAtFixation,jsons/VE125_randls_42.json,http://54.235.29.9/FacialAge/BNav_EC2/DepthDuration/v2_depth_duration_MTurk/v2_DepthDuration_HTML.html#28,28,1536,722,1536,864,9-18-2022,12-47-34,141,depth_duration_stimuli/002875_2014-06-01_15-19-00_094959634447_rgbf000151-resize_1/002875_2014-06-01_15-19-00_094959634447_rgbf000151-resize_1-target.png,125,1.9675,2,1896,133,feet,jsons/VE125_randls_42.json,493548,661912,37,Woman
141,227151,DepthScenes,duration_manipulation_targetAtFixation,jsons/VE125_randls_42.json,http://54.235.29.9/FacialAge/BNav_EC2/DepthDuration/v2_depth_duration_MTurk/v2_DepthDuration_HTML.html#28,28,1536,722,1536,864,9-18-2022,12-47-34,142,depth_duration_stimuli/002118_2014-06-25_20-32-08_260595134347_rgbf000078-resize_1/002118_2014-06-25_20-32-08_260595134347_rgbf000078-resize_1-target.png,125,2.6460000000000004,3,1889,129,feet,jsons/VE125_randls_42.json,493548,661912,37,Woman
142,227151,DepthScenes,duration_manipulation_targetAtFixation,jsons/VE125_randls_42.json,http://54.235.29.9/FacialAge/BNav_EC2/DepthDuration/v2_depth_duration_MTurk/v2_DepthDuration_HTML.html#28,28,1536,722,1536,864,9-18-2022,12-47-34,143,depth_duration_stimuli/001516_2014-06-20_16-25-09_260595134347_rgbf000076-resize_2/001516_2014-06-20_16-25-09_260595134347_rgbf000076-resize_2-target.png,125,1.7445,4,1720,105,feet,jsons/VE125_randls_42.json,493548,661912,37,Woman
143,227151,DepthScenes,duration_manipulation_targetAtFixation,jsons/VE125_randls_42.json,http://54.235.29.9/FacialAge/BNav_EC2/DepthDuration/v2_depth_duration_MTurk/v2_DepthDuration_HTML.html#28,28,1536,722,1536,864,9-18-2022,12-47-34,144,depth_duration_stimuli/000009_2014-05-26_14-32-05_260595134347_rgbf000034-resize_3/000009_2014-05-26_14-32-05_260595134347_rgbf000034-resize_3-target.png,125,3.8715,5,2143,133,feet,jsons/VE125_randls_42.json,493548,661912,37,Woman
144,227151,DepthScenes,duration_manipulation_targetAtFixation,jsons/VE125_randls_42.json,http://54.235.29.9/FacialAge/BNav_EC2/DepthDuration/v2_depth_duration_MTurk/v2_DepthDuration_HTML.html#28,28,1536,722,1536,864,9-18-2022,12-47-34,145,depth_duration_stimuli/001828_2014-06-26_21-40-03_260595134347_rgbf000024-resize_0/001828_2014-06-26_21-40-03_260595134347_rgbf000024-resize_0-target.png,125,4.8260000000000005,6,1809,124,feet,jsons/VE125_randls_42.json,493548,661912,37,Woman
145,227151,DepthScenes,duration_manipulation_targetAtFixation,jsons/VE125_randls_42.json,http://54.235.29.9/FacialAge/BNav_EC2/DepthDuration/v2_depth_duration_MTurk/v2_DepthDuration_HTML.html#28,28,1536,722,1536,864,9-18-2022,12-47-34,146,depth_duration_stimuli/001498_2014-06-19_17-45-14_260595134347_rgbf000129-resize_4/001498_2014-06-19_17-45-14_260595134347_rgbf000129-resize-original.jpg,125,1.4075,2,2272,139,feet,jsons/VE125_randls_42.json,493548,661912,37,Woman
146,227151,DepthScenes,duration_manipulation_targetAtFixation,jsons/VE125_randls_42.json,http://54.235.29.9/FacialAge/BNav_EC2/DepthDuration/v2_depth_duration_MTurk/v2_DepthDuration_HTML.html#28,28,1536,722,1536,864,9-18-2022,12-47-34,147,depth_duration_stimuli/000906_2014-06-08_13-35-43_260595134347_rgbf000155-resize_1/000906_2014-06-08_13-35-43_260595134347_rgbf000155-resize_1-target.png,125,2.8489999999999998,3,1844,123,feet,jsons/VE125_randls_42.json,493548,661912,37,Woman
147,227151,DepthScenes,duration_manipulation_targetAtFixation,jsons/VE125_randls_42.json,http://54.235.29.9/FacialAge/BNav_EC2/DepthDuration/v2_depth_duration_MTurk/v2_DepthDuration_HTML.html#28,28,1536,722,1536,864,9-18-2022,12-47-34,148,depth_duration_stimuli/002805_2014-06-22_19-54-03_094959634447_rgbf000079-resize_1/002805_2014-06-22_19-54-03_094959634447_rgbf000079-resize_1-target.png,125,3.1439999999999997,4,1781,121,feet,jsons/VE125_randls_42.json,493548,661912,37,Woman
148,227151,DepthScenes,duration_manipulation_targetAtFixation,jsons/VE125_randls_42.json,http://54.235.29.9/FacialAge/BNav_EC2/DepthDuration/v2_depth_duration_MTurk/v2_DepthDuration_HTML.html#28,28,1536,722,1536,864,9-18-2022,12-47-34,149,depth_duration_stimuli/000736_2014-06-08_18-24-15_260595134347_rgbf000206-resize_3/000736_2014-06-08_18-24-15_260595134347_rgbf000206-resize_3-target.png,125,3.515,5,1838,126,feet,jsons/VE125_randls_42.json,493548,661912,37,Woman
149,227151,DepthScenes,duration_manipulation_targetAtFixation,jsons/VE125_randls_42.json,http://54.235.29.9/FacialAge/BNav_EC2/DepthDuration/v2_depth_duration_MTurk/v2_DepthDuration_HTML.html#28,28,1536,722,1536,864,9-18-2022,12-47-34,150,depth_duration_stimuli/000137_2014-05-20_17-04-49_260595134347_rgbf000120-resize_1/000137_2014-05-20_17-04-49_260595134347_rgbf000120-resize_1-target.png,125,3.786,6,1849,122,feet,jsons/VE125_randls_42.json,493548,661912,37,Woman
150,227151,DepthScenes,duration_manipulation_targetAtFixation,jsons/VE125_randls_42.json,http://54.235.29.9/FacialAge/BNav_EC2/DepthDuration/v2_depth_duration_MTurk/v2_DepthDuration_HTML.html#28,28,1536,722,1536,864,9-18-2022,12-47-34,151,depth_duration_stimuli/002988_2014-06-15_12-24-20_094959634447_rgbf000150-resize_1/002988_2014-06-15_12-24-20_094959634447_rgbf000150-resize_1-target.png,125,4.7669999999999995,2,2333,130,feet,jsons/VE125_randls_42.json,493548,661912,37,Woman
151,227151,DepthScenes,duration_manipulation_targetAtFixation,jsons/VE125_randls_42.json,http://54.235.29.9/FacialAge/BNav_EC2/DepthDuration/v2_depth_duration_MTurk/v2_DepthDuration_HTML.html#28,28,1536,722,1536,864,9-18-2022,12-47-34,152,depth_duration_stimuli/001052_2014-06-08_18-24-54_260595134347_rgbf000130-resize_1/001052_2014-06-08_18-24-54_260595134347_rgbf000130-resize_1-target.png,125,4.1045,3,1700,125,feet,jsons/VE125_randls_42.json,493548,661912,37,Woman
152,227151,DepthScenes,duration_manipulation_targetAtFixation,jsons/VE125_randls_42.json,http://54.235.29.9/FacialAge/BNav_EC2/DepthDuration/v2_depth_duration_MTurk/v2_DepthDuration_HTML.html#28,28,1536,722,1536,864,9-18-2022,12-47-34,153,depth_duration_stimuli/003292_2014-05-14_21-53-49_094959634447_rgbf000100-resize_2/003292_2014-05-14_21-53-49_094959634447_rgbf000100-resize_2-target.png,125,3.4815,4,1574,113,feet,jsons/VE125_randls_42.json,493548,661912,37,Woman
153,227151,DepthScenes,duration_manipulation_targetAtFixation,jsons/VE125_randls_42.json,http://54.235.29.9/FacialAge/BNav_EC2/DepthDuration/v2_depth_duration_MTurk/v2_DepthDuration_HTML.html#28,28,1536,722,1536,864,9-18-2022,12-47-34,154,depth_duration_stimuli/002639_2014-06-24_14-51-37_094959634447_rgbf000074-resize_4/002639_2014-06-24_14-51-37_094959634447_rgbf000074-resize_4-target.png,125,4.0375,5,1670,125,feet,jsons/VE125_randls_42.json,493548,661912,37,Woman
154,227151,DepthScenes,duration_manipulation_targetAtFixation,jsons/VE125_randls_42.json,http://54.235.29.9/FacialAge/BNav_EC2/DepthDuration/v2_depth_duration_MTurk/v2_DepthDuration_HTML.html#28,28,1536,722,1536,864,9-18-2022,12-47-34,155,depth_duration_stimuli/000788_2014-06-08_22-34-36_260595134347_rgbf000131-resize_1/000788_2014-06-08_22-34-36_260595134347_rgbf000131-resize_1-target.png,125,3.359,6,1506,124,feet,jsons/VE125_randls_42.json,493548,661912,37,Woman
155,227151,DepthScenes,duration_manipulation_targetAtFixation,jsons/VE125_randls_42.json,http://54.235.29.9/FacialAge/BNav_EC2/DepthDuration/v2_depth_duration_MTurk/v2_DepthDuration_HTML.html#28,28,1536,722,1536,864,9-18-2022,12-47-34,156,depth_duration_stimuli/001235_2014-06-17_16-37-36_260595134347_rgbf000084-resize_4/001235_2014-06-17_16-37-36_260595134347_rgbf000084-resize_4-target.png,125,3.6605,2,1872,127,feet,jsons/VE125_randls_42.json,493548,661912,37,Woman
156,227151,DepthScenes,duration_manipulation_targetAtFixation,jsons/VE125_randls_42.json,http://54.235.29.9/FacialAge/BNav_EC2/DepthDuration/v2_depth_duration_MTurk/v2_DepthDuration_HTML.html#28,28,1536,722,1536,864,9-18-2022,12-47-34,157,depth_duration_stimuli/002784_2014-06-22_19-26-30_094959634447_rgbf000083-resize_3/002784_2014-06-22_19-26-30_094959634447_rgbf000083-resize_3-target.png,125,1.8046666666667,3,1666,125,feet,jsons/VE125_randls_42.json,493548,661912,37,Woman
157,227151,DepthScenes,duration_manipulation_targetAtFixation,jsons/VE125_randls_42.json,http://54.235.29.9/FacialAge/BNav_EC2/DepthDuration/v2_depth_duration_MTurk/v2_DepthDuration_HTML.html#28,28,1536,722,1536,864,9-18-2022,12-47-34,158,depth_duration_stimuli/001100_2014-06-15_17-46-26_260595134347_rgbf000225-resize_2/001100_2014-06-15_17-46-26_260595134347_rgbf000225-resize_2-target.png,125,2.24,4,1775,120,feet,jsons/VE125_randls_42.json,493548,661912,37,Woman
158,227151,DepthScenes,duration_manipulation_targetAtFixation,jsons/VE125_randls_42.json,http://54.235.29.9/FacialAge/BNav_EC2/DepthDuration/v2_depth_duration_MTurk/v2_DepthDuration_HTML.html#28,28,1536,722,1536,864,9-18-2022,12-47-34,159,depth_duration_stimuli/002445_2014-06-28_20-32-16_260595134347_rgbf000029-resize_4/002445_2014-06-28_20-32-16_260595134347_rgbf000029-resize_4-target.png,125,2.5315,5,1905,115,feet,jsons/VE125_randls_42.json,493548,661912,37,Woman
159,227151,DepthScenes,duration_manipulation_targetAtFixation,jsons/VE125_randls_42.json,http://54.235.29.9/FacialAge/BNav_EC2/DepthDuration/v2_depth_duration_MTurk/v2_DepthDuration_HTML.html#28,28,1536,722,1536,864,9-18-2022,12-47-34,160,depth_duration_stimuli/000780_2014-06-08_22-28-29_260595134347_rgbf000126-resize_1/000780_2014-06-08_22-28-29_260595134347_rgbf000126-resize_1-target.png,125,3.3825,6,1736,140,feet,jsons/VE125_randls_42.json,493548,661912,37,Woman
160,227151,DepthScenes,duration_manipulation_targetAtFixation,jsons/VE125_randls_42.json,http://54.235.29.9/FacialAge/BNav_EC2/DepthDuration/v2_depth_duration_MTurk/v2_DepthDuration_HTML.html#28,28,1536,722,1536,864,9-18-2022,12-47-34,161,depth_duration_stimuli/001810_2014-06-26_20-51-35_260595134347_rgbf000040-resize_3/001810_2014-06-26_20-51-35_260595134347_rgbf000040-resize_3-target.png,125,2.2525,2,1596,128,feet,jsons/VE125_randls_42.json,493548,661912,37,Woman
161,227151,DepthScenes,duration_manipulation_targetAtFixation,jsons/VE125_randls_42.json,http://54.235.29.9/FacialAge/BNav_EC2/DepthDuration/v2_depth_duration_MTurk/v2_DepthDuration_HTML.html#28,28,1536,722,1536,864,9-18-2022,12-47-34,162,depth_duration_stimuli/003010_2014-06-15_12-54-35_094959634447_rgbf000112-resize_0/003010_2014-06-15_12-54-35_094959634447_rgbf000112-resize_0-target.png,125,3.1185,3,1877,132,feet,jsons/VE125_randls_42.json,493548,661912,37,Woman
162,227151,DepthScenes,duration_manipulation_targetAtFixation,jsons/VE125_randls_42.json,http://54.235.29.9/FacialAge/BNav_EC2/DepthDuration/v2_depth_duration_MTurk/v2_DepthDuration_HTML.html#28,28,1536,722,1536,864,9-18-2022,12-47-34,163,depth_duration_stimuli/001056_2014-06-08_18-46-44_260595134347_rgbf000068-resize_0/001056_2014-06-08_18-46-44_260595134347_rgbf000068-resize_0-target.png,125,2.6625,4,3262,115,feet,jsons/VE125_randls_42.json,493548,661912,37,Woman
163,227151,DepthScenes,duration_manipulation_targetAtFixation,jsons/VE125_randls_42.json,http://54.235.29.9/FacialAge/BNav_EC2/DepthDuration/v2_depth_duration_MTurk/v2_DepthDuration_HTML.html#28,28,1536,722,1536,864,9-18-2022,12-47-34,164,depth_duration_stimuli/002199_2014-06-28_18-33-56_260595134347_rgbf000074-resize_0/002199_2014-06-28_18-33-56_260595134347_rgbf000074-resize_0-target.png,125,1.996,5,1749,126,feet,jsons/VE125_randls_42.json,493548,661912,37,Woman
