,subjID,experimentName,versionName,sequenceName,url,selected_row,windowWidth,windowHeight,screenWidth,screenHeight,startDate,startTime,trial,stimulus,duration,actual_depth,depth_estimate,trial_RT,log_sceneDuration,unitSelection,seq_filepath,experimentTime,totalTime,age,gender
0,230606,DepthScenes,duration_manipulation_targetAtFixation,jsons/v1_VE1000_randls_60_rotated.json,http://54.235.29.9/FacialAge/BNav_EC2/DepthDuration/v2_depth_duration_MTurk/v2_DepthDuration_HTML.html#114,114,1366,625,1366,768,8-22-2022,5-12-42,1,depth_duration_stimuli/001032_2014-06-08_13-23-17_260595134347_rgbf000021-resize_3/001032_2014-06-08_13-23-17_260595134347_rgbf000021-resize_3-target.png,1000,3.2725,5,3714,1001,feet,jsons/v1_VE1000_randls_60_rotated.json,986157,1244376,30,Woman
1,230606,DepthScenes,duration_manipulation_targetAtFixation,jsons/v1_VE1000_randls_60_rotated.json,http://54.235.29.9/FacialAge/BNav_EC2/DepthDuration/v2_depth_duration_MTurk/v2_DepthDuration_HTML.html#114,114,1366,625,1366,768,8-22-2022,5-12-42,2,depth_duration_stimuli/001059_2014-06-08_21-53-27_260595134347_rgbf000061-resize_4/001059_2014-06-08_21-53-27_260595134347_rgbf000061-resize_4-target.png,1000,2.4185,5,3484,999,feet,jsons/v1_VE1000_randls_60_rotated.json,986157,1244376,30,Woman
2,230606,DepthScenes,duration_manipulation_targetAtFixation,jsons/v1_VE1000_randls_60_rotated.json,http://54.235.29.9/FacialAge/BNav_EC2/DepthDuration/v2_depth_duration_MTurk/v2_DepthDuration_HTML.html#114,114,1366,625,1366,768,8-22-2022,5-12-42,3,depth_duration_stimuli/003083_2014-06-15_15-21-03_094959634447_rgbf000063-resize_1/003083_2014-06-15_15-21-03_094959634447_rgbf000063-resize_1-target.png,1000,4.1405,5,3961,999,feet,jsons/v1_VE1000_randls_60_rotated.json,986157,1244376,30,Woman
3,230606,DepthScenes,duration_manipulation_targetAtFixation,jsons/v1_VE1000_randls_60_rotated.json,http://54.235.29.9/FacialAge/BNav_EC2/DepthDuration/v2_depth_duration_MTurk/v2_DepthDuration_HTML.html#114,114,1366,625,1366,768,8-22-2022,5-12-42,4,depth_duration_stimuli/000486_2014-06-09_20-47-20_260595134347_rgbf000143-resize_2/000486_2014-06-09_20-47-20_260595134347_rgbf000143-resize_2-target.png,1000,4.8325,5,3519,996,feet,jsons/v1_VE1000_randls_60_rotated.json,986157,1244376,30,Woman
4,230606,DepthScenes,duration_manipulation_targetAtFixation,jsons/v1_VE1000_randls_60_rotated.json,http://54.235.29.9/FacialAge/BNav_EC2/DepthDuration/v2_depth_duration_MTurk/v2_DepthDuration_HTML.html#114,114,1366,625,1366,768,8-22-2022,5-12-42,5,depth_duration_stimuli/000709_2014-06-08_13-51-55_260595134347_rgbf000068-resize_3/000709_2014-06-08_13-51-55_260595134347_rgbf000068-resize_3-target.png,1000,1.8030000000000002,5,4027,1000,feet,jsons/v1_VE1000_randls_60_rotated.json,986157,1244376,30,Woman
5,230606,DepthScenes,duration_manipulation_targetAtFixation,jsons/v1_VE1000_randls_60_rotated.json,http://54.235.29.9/FacialAge/BNav_EC2/DepthDuration/v2_depth_duration_MTurk/v2_DepthDuration_HTML.html#114,114,1366,625,1366,768,8-22-2022,5-12-42,6,depth_duration_stimuli/002057_2014-06-24_21-00-13_260595134347_rgbf000120-resize_1/002057_2014-06-24_21-00-13_260595134347_rgbf000120-resize_1-target.png,1000,2.967,5,3777,999,feet,jsons/v1_VE1000_randls_60_rotated.json,986157,1244376,30,Woman
6,230606,DepthScenes,duration_manipulation_targetAtFixation,jsons/v1_VE1000_randls_60_rotated.json,http://54.235.29.9/FacialAge/BNav_EC2/DepthDuration/v2_depth_duration_MTurk/v2_DepthDuration_HTML.html#114,114,1366,625,1366,768,8-22-2022,5-12-42,7,depth_duration_stimuli/001214_2014-06-17_16-13-55_260595134347_rgbf000111-resize_0/001214_2014-06-17_16-13-55_260595134347_rgbf000111-resize_0-target.png,1000,2.6505,3,5054,1000,feet,jsons/v1_VE1000_randls_60_rotated.json,986157,1244376,30,Woman
7,230606,DepthScenes,duration_manipulation_targetAtFixation,jsons/v1_VE1000_randls_60_rotated.json,http://54.235.29.9/FacialAge/BNav_EC2/DepthDuration/v2_depth_duration_MTurk/v2_DepthDuration_HTML.html#114,114,1366,625,1366,768,8-22-2022,5-12-42,8,depth_duration_stimuli/000810_2014-06-08_17-20-01_260595134347_rgbf000105-resize_0/000810_2014-06-08_17-20-01_260595134347_rgbf000105-resize_0-target.png,1000,1.4865,5,4573,999,feet,jsons/v1_VE1000_randls_60_rotated.json,986157,1244376,30,Woman
8,230606,DepthScenes,duration_manipulation_targetAtFixation,jsons/v1_VE1000_randls_60_rotated.json,http://54.235.29.9/FacialAge/BNav_EC2/DepthDuration/v2_depth_duration_MTurk/v2_DepthDuration_HTML.html#114,114,1366,625,1366,768,8-22-2022,5-12-42,9,depth_duration_stimuli/003048_2014-06-15_13-49-43_094959634447_rgbf000150-resize_1/003048_2014-06-15_13-49-43_094959634447_rgbf000150-resize_1-target.png,1000,4.0035,5,3738,998,feet,jsons/v1_VE1000_randls_60_rotated.json,986157,1244376,30,Woman
9,230606,DepthScenes,duration_manipulation_targetAtFixation,jsons/v1_VE1000_randls_60_rotated.json,http://54.235.29.9/FacialAge/BNav_EC2/DepthDuration/v2_depth_duration_MTurk/v2_DepthDuration_HTML.html#114,114,1366,625,1366,768,8-22-2022,5-12-42,10,depth_duration_stimuli/002043_2014-06-24_20-29-38_260595134347_rgbf000039-resize_4/002043_2014-06-24_20-29-38_260595134347_rgbf000039-resize_4-target.png,1000,2.8435,5,3693,1000,feet,jsons/v1_VE1000_randls_60_rotated.json,986157,1244376,30,Woman
10,230606,DepthScenes,duration_manipulation_targetAtFixation,jsons/v1_VE1000_randls_60_rotated.json,http://54.235.29.9/FacialAge/BNav_EC2/DepthDuration/v2_depth_duration_MTurk/v2_DepthDuration_HTML.html#114,114,1366,625,1366,768,8-22-2022,5-12-42,11,depth_duration_stimuli/001136_2014-06-17_15-19-41_260595134347_rgbf000076-resize_3/001136_2014-06-17_15-19-41_260595134347_rgbf000076-resize_3-target.png,1000,1.8655,5,27208,1000,feet,jsons/v1_VE1000_randls_60_rotated.json,986157,1244376,30,Woman
11,230606,DepthScenes,duration_manipulation_targetAtFixation,jsons/v1_VE1000_randls_60_rotated.json,http://54.235.29.9/FacialAge/BNav_EC2/DepthDuration/v2_depth_duration_MTurk/v2_DepthDuration_HTML.html#114,114,1366,625,1366,768,8-22-2022,5-12-42,12,depth_duration_stimuli/001164_2014-06-17_15-35-46_260595134347_rgbf000085-resize_3/001164_2014-06-17_15-35-46_260595134347_rgbf000085-resize_3-target.png,1000,2.354,5,3722,999,feet,jsons/v1_VE1000_randls_60_rotated.json,986157,1244376,30,Woman
12,230606,DepthScenes,duration_manipulation_targetAtFixation,jsons/v1_VE1000_randls_60_rotated.json,http://54.235.29.9/FacialAge/BNav_EC2/DepthDuration/v2_depth_duration_MTurk/v2_DepthDuration_HTML.html#114,114,1366,625,1366,768,8-22-2022,5-12-42,13,depth_duration_stimuli/000483_2014-06-09_20-41-45_260595134347_rgbf000116-resize_4/000483_2014-06-09_20-41-45_260595134347_rgbf000116-resize_4-target.png,1000,1.337,3,4300,983,feet,jsons/v1_VE1000_randls_60_rotated.json,986157,1244376,30,Woman
13,230606,DepthScenes,duration_manipulation_targetAtFixation,jsons/v1_VE1000_randls_60_rotated.json,http://54.235.29.9/FacialAge/BNav_EC2/DepthDuration/v2_depth_duration_MTurk/v2_DepthDuration_HTML.html#114,114,1366,625,1366,768,8-22-2022,5-12-42,14,depth_duration_stimuli/000469_2014-06-09_19-42-10_260595134347_rgbf000081-resize_1/000469_2014-06-09_19-42-10_260595134347_rgbf000081-resize_1-target.png,1000,1.652,5,4250,999,feet,jsons/v1_VE1000_randls_60_rotated.json,986157,1244376,30,Woman
14,230606,DepthScenes,duration_manipulation_targetAtFixation,jsons/v1_VE1000_randls_60_rotated.json,http://54.235.29.9/FacialAge/BNav_EC2/DepthDuration/v2_depth_duration_MTurk/v2_DepthDuration_HTML.html#114,114,1366,625,1366,768,8-22-2022,5-12-42,15,depth_duration_stimuli/002414_2014-06-28_20-24-58_260595134347_rgbf000067-resize_4/002414_2014-06-28_20-24-58_260595134347_rgbf000067-resize_4-target.png,1000,4.363,5,4138,953,feet,jsons/v1_VE1000_randls_60_rotated.json,986157,1244376,30,Woman
15,230606,DepthScenes,duration_manipulation_targetAtFixation,jsons/v1_VE1000_randls_60_rotated.json,http://54.235.29.9/FacialAge/BNav_EC2/DepthDuration/v2_depth_duration_MTurk/v2_DepthDuration_HTML.html#114,114,1366,625,1366,768,8-22-2022,5-12-42,16,depth_duration_stimuli/000773_2014-06-08_22-24-54_260595134347_rgbf000093-resize_1/000773_2014-06-08_22-24-54_260595134347_rgbf000093-resize_1-target.png,1000,4.973,5,3499,999,feet,jsons/v1_VE1000_randls_60_rotated.json,986157,1244376,30,Woman
16,230606,DepthScenes,duration_manipulation_targetAtFixation,jsons/v1_VE1000_randls_60_rotated.json,http://54.235.29.9/FacialAge/BNav_EC2/DepthDuration/v2_depth_duration_MTurk/v2_DepthDuration_HTML.html#114,114,1366,625,1366,768,8-22-2022,5-12-42,17,depth_duration_stimuli/001392_2014-06-19_16-07-59_260595134347_rgbf000046-resize_1/001392_2014-06-19_16-07-59_260595134347_rgbf000046-resize_1-target.png,1000,4.135,5,3929,1001,feet,jsons/v1_VE1000_randls_60_rotated.json,986157,1244376,30,Woman
17,230606,DepthScenes,duration_manipulation_targetAtFixation,jsons/v1_VE1000_randls_60_rotated.json,http://54.235.29.9/FacialAge/BNav_EC2/DepthDuration/v2_depth_duration_MTurk/v2_DepthDuration_HTML.html#114,114,1366,625,1366,768,8-22-2022,5-12-42,18,depth_duration_stimuli/001570_2014-06-20_17-21-09_260595134347_rgbf000135-resize_4/001570_2014-06-20_17-21-09_260595134347_rgbf000135-resize_4-target.png,1000,4.467,5,3777,995,feet,jsons/v1_VE1000_randls_60_rotated.json,986157,1244376,30,Woman
18,230606,DepthScenes,duration_manipulation_targetAtFixation,jsons/v1_VE1000_randls_60_rotated.json,http://54.235.29.9/FacialAge/BNav_EC2/DepthDuration/v2_depth_duration_MTurk/v2_DepthDuration_HTML.html#114,114,1366,625,1366,768,8-22-2022,5-12-42,19,depth_duration_stimuli/001498_2014-06-19_17-45-14_260595134347_rgbf000129-resize_4/001498_2014-06-19_17-45-14_260595134347_rgbf000129-resize-original.jpg,1000,1.4075,0,7955,998,feet,jsons/v1_VE1000_randls_60_rotated.json,986157,1244376,30,Woman
19,230606,DepthScenes,duration_manipulation_targetAtFixation,jsons/v1_VE1000_randls_60_rotated.json,http://54.235.29.9/FacialAge/BNav_EC2/DepthDuration/v2_depth_duration_MTurk/v2_DepthDuration_HTML.html#114,114,1366,625,1366,768,8-22-2022,5-12-42,20,depth_duration_stimuli/002639_2014-06-24_14-51-37_094959634447_rgbf000074-resize_4/002639_2014-06-24_14-51-37_094959634447_rgbf000074-resize_4-target.png,1000,4.0375,5,50895,997,feet,jsons/v1_VE1000_randls_60_rotated.json,986157,1244376,30,Woman
20,230606,DepthScenes,duration_manipulation_targetAtFixation,jsons/v1_VE1000_randls_60_rotated.json,http://54.235.29.9/FacialAge/BNav_EC2/DepthDuration/v2_depth_duration_MTurk/v2_DepthDuration_HTML.html#114,114,1366,625,1366,768,8-22-2022,5-12-42,21,depth_duration_stimuli/003292_2014-05-14_21-53-49_094959634447_rgbf000100-resize_2/003292_2014-05-14_21-53-49_094959634447_rgbf000100-resize_2-target.png,1000,3.4815,5,5292,1001,feet,jsons/v1_VE1000_randls_60_rotated.json,986157,1244376,30,Woman
21,230606,DepthScenes,duration_manipulation_targetAtFixation,jsons/v1_VE1000_randls_60_rotated.json,http://54.235.29.9/FacialAge/BNav_EC2/DepthDuration/v2_depth_duration_MTurk/v2_DepthDuration_HTML.html#114,114,1366,625,1366,768,8-22-2022,5-12-42,22,depth_duration_stimuli/000635_2014-06-08_16-38-42_260595134347_rgbf000106-resize_1/000635_2014-06-08_16-38-42_260595134347_rgbf000106-resize_1-target.png,1000,2.074,5,4687,998,feet,jsons/v1_VE1000_randls_60_rotated.json,986157,1244376,30,Woman
22,230606,DepthScenes,duration_manipulation_targetAtFixation,jsons/v1_VE1000_randls_60_rotated.json,http://54.235.29.9/FacialAge/BNav_EC2/DepthDuration/v2_depth_duration_MTurk/v2_DepthDuration_HTML.html#114,114,1366,625,1366,768,8-22-2022,5-12-42,23,depth_duration_stimuli/002279_2014-06-28_18-55-32_260595134347_rgbf000040-resize_5/002279_2014-06-28_18-55-32_260595134347_rgbf000040-resize_5-target.png,1000,1.5043333333333,0,3973,987,feet,jsons/v1_VE1000_randls_60_rotated.json,986157,1244376,30,Woman
23,230606,DepthScenes,duration_manipulation_targetAtFixation,jsons/v1_VE1000_randls_60_rotated.json,http://54.235.29.9/FacialAge/BNav_EC2/DepthDuration/v2_depth_duration_MTurk/v2_DepthDuration_HTML.html#114,114,1366,625,1366,768,8-22-2022,5-12-42,24,depth_duration_stimuli/000742_2014-06-08_18-48-09_260595134347_rgbf000164-resize_4/000742_2014-06-08_18-48-09_260595134347_rgbf000164-resize_4-target.png,1000,4.632,5,17653,998,feet,jsons/v1_VE1000_randls_60_rotated.json,986157,1244376,30,Woman
24,230606,DepthScenes,duration_manipulation_targetAtFixation,jsons/v1_VE1000_randls_60_rotated.json,http://54.235.29.9/FacialAge/BNav_EC2/DepthDuration/v2_depth_duration_MTurk/v2_DepthDuration_HTML.html#114,114,1366,625,1366,768,8-22-2022,5-12-42,25,depth_duration_stimuli/001066_2014-06-08_22-03-20_260595134347_rgbf000066-resize_4/001066_2014-06-08_22-03-20_260595134347_rgbf000066-resize_4-target.png,1000,4.2330000000000005,5,4726,1005,feet,jsons/v1_VE1000_randls_60_rotated.json,986157,1244376,30,Woman
25,230606,DepthScenes,duration_manipulation_targetAtFixation,jsons/v1_VE1000_randls_60_rotated.json,http://54.235.29.9/FacialAge/BNav_EC2/DepthDuration/v2_depth_duration_MTurk/v2_DepthDuration_HTML.html#114,114,1366,625,1366,768,8-22-2022,5-12-42,26,depth_duration_stimuli/003423_2014-05-21_10-23-26_094959634447_rgbf002665-resize_2/003423_2014-05-21_10-23-26_094959634447_rgbf002665-resize_2-target.png,1000,3.2575,5,4559,994,feet,jsons/v1_VE1000_randls_60_rotated.json,986157,1244376,30,Woman
26,230606,DepthScenes,duration_manipulation_targetAtFixation,jsons/v1_VE1000_randls_60_rotated.json,http://54.235.29.9/FacialAge/BNav_EC2/DepthDuration/v2_depth_duration_MTurk/v2_DepthDuration_HTML.html#114,114,1366,625,1366,768,8-22-2022,5-12-42,27,depth_duration_stimuli/002905_2014-06-03_18-04-43_094959634447_rgbf000151-resize_2/002905_2014-06-03_18-04-43_094959634447_rgbf000151-resize_2-target.png,1000,2.0295,0,4708,986,feet,jsons/v1_VE1000_randls_60_rotated.json,986157,1244376,30,Woman
27,230606,DepthScenes,duration_manipulation_targetAtFixation,jsons/v1_VE1000_randls_60_rotated.json,http://54.235.29.9/FacialAge/BNav_EC2/DepthDuration/v2_depth_duration_MTurk/v2_DepthDuration_HTML.html#114,114,1366,625,1366,768,8-22-2022,5-12-42,28,depth_duration_stimuli/001828_2014-06-26_21-40-03_260595134347_rgbf000024-resize_0/001828_2014-06-26_21-40-03_260595134347_rgbf000024-resize_0-target.png,1000,4.8260000000000005,5,4027,1001,feet,jsons/v1_VE1000_randls_60_rotated.json,986157,1244376,30,Woman
28,230606,DepthScenes,duration_manipulation_targetAtFixation,jsons/v1_VE1000_randls_60_rotated.json,http://54.235.29.9/FacialAge/BNav_EC2/DepthDuration/v2_depth_duration_MTurk/v2_DepthDuration_HTML.html#114,114,1366,625,1366,768,8-22-2022,5-12-42,29,depth_duration_stimuli/000009_2014-05-26_14-32-05_260595134347_rgbf000034-resize_3/000009_2014-05-26_14-32-05_260595134347_rgbf000034-resize_3-target.png,1000,3.8715,5,3592,999,feet,jsons/v1_VE1000_randls_60_rotated.json,986157,1244376,30,Woman
29,230606,DepthScenes,duration_manipulation_targetAtFixation,jsons/v1_VE1000_randls_60_rotated.json,http://54.235.29.9/FacialAge/BNav_EC2/DepthDuration/v2_depth_duration_MTurk/v2_DepthDuration_HTML.html#114,114,1366,625,1366,768,8-22-2022,5-12-42,30,depth_duration_stimuli/002072_2014-06-24_21-48-06_260595134347_rgbf000115-resize_0/002072_2014-06-24_21-48-06_260595134347_rgbf000115-resize-original.jpg,1000,4.702,0,3948,998,feet,jsons/v1_VE1000_randls_60_rotated.json,986157,1244376,30,Woman
30,230606,DepthScenes,duration_manipulation_targetAtFixation,jsons/v1_VE1000_randls_60_rotated.json,http://54.235.29.9/FacialAge/BNav_EC2/DepthDuration/v2_depth_duration_MTurk/v2_DepthDuration_HTML.html#114,114,1366,625,1366,768,8-22-2022,5-12-42,31,depth_duration_stimuli/002444_2014-06-28_20-32-08_260595134347_rgbf000027-resize_0/002444_2014-06-28_20-32-08_260595134347_rgbf000027-resize_0-target.png,1000,4.388999999999999,5,4032,1001,feet,jsons/v1_VE1000_randls_60_rotated.json,986157,1244376,30,Woman
31,230606,DepthScenes,duration_manipulation_targetAtFixation,jsons/v1_VE1000_randls_60_rotated.json,http://54.235.29.9/FacialAge/BNav_EC2/DepthDuration/v2_depth_duration_MTurk/v2_DepthDuration_HTML.html#114,114,1366,625,1366,768,8-22-2022,5-12-42,32,depth_duration_stimuli/000436_2014-06-09_22-25-11_260595134347_rgbf000137-resize_1/000436_2014-06-09_22-25-11_260595134347_rgbf000137-resize_1-target.png,1000,4.0705,5,3644,999,feet,jsons/v1_VE1000_randls_60_rotated.json,986157,1244376,30,Woman
32,230606,DepthScenes,duration_manipulation_targetAtFixation,jsons/v1_VE1000_randls_60_rotated.json,http://54.235.29.9/FacialAge/BNav_EC2/DepthDuration/v2_depth_duration_MTurk/v2_DepthDuration_HTML.html#114,114,1366,625,1366,768,8-22-2022,5-12-42,33,depth_duration_stimuli/000927_2014-06-09_16-32-30_260595134347_rgbf000123-resize_3/000927_2014-06-09_16-32-30_260595134347_rgbf000123-resize_3-target.png,1000,2.6785,5,3657,1001,feet,jsons/v1_VE1000_randls_60_rotated.json,986157,1244376,30,Woman
33,230606,DepthScenes,duration_manipulation_targetAtFixation,jsons/v1_VE1000_randls_60_rotated.json,http://54.235.29.9/FacialAge/BNav_EC2/DepthDuration/v2_depth_duration_MTurk/v2_DepthDuration_HTML.html#114,114,1366,625,1366,768,8-22-2022,5-12-42,34,depth_duration_stimuli/001110_2014-06-15_17-25-28_260595134347_rgbf000150-resize_1/001110_2014-06-15_17-25-28_260595134347_rgbf000150-resize_1-target.png,1000,1.7115,5,3852,998,feet,jsons/v1_VE1000_randls_60_rotated.json,986157,1244376,30,Woman
34,230606,DepthScenes,duration_manipulation_targetAtFixation,jsons/v1_VE1000_randls_60_rotated.json,http://54.235.29.9/FacialAge/BNav_EC2/DepthDuration/v2_depth_duration_MTurk/v2_DepthDuration_HTML.html#114,114,1366,625,1366,768,8-22-2022,5-12-42,35,depth_duration_stimuli/003495_2014-05-21_16-01-51_094959634447_rgbf000100-resize_3/003495_2014-05-21_16-01-51_094959634447_rgbf000100-resize_3-target.png,1000,1.6255,0,4927,1009,feet,jsons/v1_VE1000_randls_60_rotated.json,986157,1244376,30,Woman
35,230606,DepthScenes,duration_manipulation_targetAtFixation,jsons/v1_VE1000_randls_60_rotated.json,http://54.235.29.9/FacialAge/BNav_EC2/DepthDuration/v2_depth_duration_MTurk/v2_DepthDuration_HTML.html#114,114,1366,625,1366,768,8-22-2022,5-12-42,36,depth_duration_stimuli/001244_2014-06-17_16-47-45_260595134347_rgbf000030-resize_4/001244_2014-06-17_16-47-45_260595134347_rgbf000030-resize_4-target.png,1000,2.0425,2,5925,1002,feet,jsons/v1_VE1000_randls_60_rotated.json,986157,1244376,30,Woman
36,230606,DepthScenes,duration_manipulation_targetAtFixation,jsons/v1_VE1000_randls_60_rotated.json,http://54.235.29.9/FacialAge/BNav_EC2/DepthDuration/v2_depth_duration_MTurk/v2_DepthDuration_HTML.html#114,114,1366,625,1366,768,8-22-2022,5-12-42,37,depth_duration_stimuli/001815_2014-06-26_20-52-55_260595134347_rgbf000020-resize_0/001815_2014-06-26_20-52-55_260595134347_rgbf000020-resize_0-target.png,1000,3.3865,5,4402,999,feet,jsons/v1_VE1000_randls_60_rotated.json,986157,1244376,30,Woman
37,230606,DepthScenes,duration_manipulation_targetAtFixation,jsons/v1_VE1000_randls_60_rotated.json,http://54.235.29.9/FacialAge/BNav_EC2/DepthDuration/v2_depth_duration_MTurk/v2_DepthDuration_HTML.html#114,114,1366,625,1366,768,8-22-2022,5-12-42,38,depth_duration_stimuli/001808_2014-06-26_20-50-58_260595134347_rgbf000029-resize_1/001808_2014-06-26_20-50-58_260595134347_rgbf000029-resize_1-target.png,1000,4.249,5,3458,1000,feet,jsons/v1_VE1000_randls_60_rotated.json,986157,1244376,30,Woman
38,230606,DepthScenes,duration_manipulation_targetAtFixation,jsons/v1_VE1000_randls_60_rotated.json,http://54.235.29.9/FacialAge/BNav_EC2/DepthDuration/v2_depth_duration_MTurk/v2_DepthDuration_HTML.html#114,114,1366,625,1366,768,8-22-2022,5-12-42,39,depth_duration_stimuli/001052_2014-06-08_18-24-54_260595134347_rgbf000130-resize_1/001052_2014-06-08_18-24-54_260595134347_rgbf000130-resize_1-target.png,1000,4.1045,5,3756,1000,feet,jsons/v1_VE1000_randls_60_rotated.json,986157,1244376,30,Woman
39,230606,DepthScenes,duration_manipulation_targetAtFixation,jsons/v1_VE1000_randls_60_rotated.json,http://54.235.29.9/FacialAge/BNav_EC2/DepthDuration/v2_depth_duration_MTurk/v2_DepthDuration_HTML.html#114,114,1366,625,1366,768,8-22-2022,5-12-42,40,depth_duration_stimuli/002988_2014-06-15_12-24-20_094959634447_rgbf000150-resize_1/002988_2014-06-15_12-24-20_094959634447_rgbf000150-resize_1-target.png,1000,4.7669999999999995,0,3786,999,feet,jsons/v1_VE1000_randls_60_rotated.json,986157,1244376,30,Woman
40,230606,DepthScenes,duration_manipulation_targetAtFixation,jsons/v1_VE1000_randls_60_rotated.json,http://54.235.29.9/FacialAge/BNav_EC2/DepthDuration/v2_depth_duration_MTurk/v2_DepthDuration_HTML.html#114,114,1366,625,1366,768,8-22-2022,5-12-42,41,depth_duration_stimuli/001571_2014-06-20_17-21-32_260595134347_rgbf000089-resize_1/001571_2014-06-20_17-21-32_260595134347_rgbf000089-resize_1-target.png,1000,1.86,0,5103,999,feet,jsons/v1_VE1000_randls_60_rotated.json,986157,1244376,30,Woman
41,230606,DepthScenes,duration_manipulation_targetAtFixation,jsons/v1_VE1000_randls_60_rotated.json,http://54.235.29.9/FacialAge/BNav_EC2/DepthDuration/v2_depth_duration_MTurk/v2_DepthDuration_HTML.html#114,114,1366,625,1366,768,8-22-2022,5-12-42,42,depth_duration_stimuli/002272_2014-06-28_18-53-56_260595134347_rgbf000067-resize_2/002272_2014-06-28_18-53-56_260595134347_rgbf000067-resize_2-target.png,1000,1.138,5,5225,1000,feet,jsons/v1_VE1000_randls_60_rotated.json,986157,1244376,30,Woman
42,230606,DepthScenes,duration_manipulation_targetAtFixation,jsons/v1_VE1000_randls_60_rotated.json,http://54.235.29.9/FacialAge/BNav_EC2/DepthDuration/v2_depth_duration_MTurk/v2_DepthDuration_HTML.html#114,114,1366,625,1366,768,8-22-2022,5-12-42,43,depth_duration_stimuli/002678_2014-06-13_16-15-32_094959634447_rgbf000151-resize_6/002678_2014-06-13_16-15-32_094959634447_rgbf000151-resize_6-target.png,1000,2.1830000000000003,0,3988,989,feet,jsons/v1_VE1000_randls_60_rotated.json,986157,1244376,30,Woman
43,230606,DepthScenes,duration_manipulation_targetAtFixation,jsons/v1_VE1000_randls_60_rotated.json,http://54.235.29.9/FacialAge/BNav_EC2/DepthDuration/v2_depth_duration_MTurk/v2_DepthDuration_HTML.html#114,114,1366,625,1366,768,8-22-2022,5-12-42,44,depth_duration_stimuli/000368_2014-06-09_15-53-01_260595134347_rgbf000155-resize_2/000368_2014-06-09_15-53-01_260595134347_rgbf000155-resize_2-target.png,1000,2.4859999999999998,0,3999,999,feet,jsons/v1_VE1000_randls_60_rotated.json,986157,1244376,30,Woman
44,230606,DepthScenes,duration_manipulation_targetAtFixation,jsons/v1_VE1000_randls_60_rotated.json,http://54.235.29.9/FacialAge/BNav_EC2/DepthDuration/v2_depth_duration_MTurk/v2_DepthDuration_HTML.html#114,114,1366,625,1366,768,8-22-2022,5-12-42,45,depth_duration_stimuli/001650_2014-06-20_12-09-00_260595134347_rgbf000087-resize_3/001650_2014-06-20_12-09-00_260595134347_rgbf000087-resize_3-target.png,1000,1.9505,3,4771,1000,feet,jsons/v1_VE1000_randls_60_rotated.json,986157,1244376,30,Woman
45,230606,DepthScenes,duration_manipulation_targetAtFixation,jsons/v1_VE1000_randls_60_rotated.json,http://54.235.29.9/FacialAge/BNav_EC2/DepthDuration/v2_depth_duration_MTurk/v2_DepthDuration_HTML.html#114,114,1366,625,1366,768,8-22-2022,5-12-42,46,depth_duration_stimuli/000682_2014-06-08_23-14-58_260595134347_rgbf000041-resize_5/000682_2014-06-08_23-14-58_260595134347_rgbf000041-resize_5-target.png,1000,2.7239999999999998,3,4699,999,feet,jsons/v1_VE1000_randls_60_rotated.json,986157,1244376,30,Woman
46,230606,DepthScenes,duration_manipulation_targetAtFixation,jsons/v1_VE1000_randls_60_rotated.json,http://54.235.29.9/FacialAge/BNav_EC2/DepthDuration/v2_depth_duration_MTurk/v2_DepthDuration_HTML.html#114,114,1366,625,1366,768,8-22-2022,5-12-42,47,depth_duration_stimuli/000943_2014-06-09_19-31-07_260595134347_rgbf000128-resize_1/000943_2014-06-09_19-31-07_260595134347_rgbf000128-resize_1-target.png,1000,1.9765,5,4513,999,feet,jsons/v1_VE1000_randls_60_rotated.json,986157,1244376,30,Woman
47,230606,DepthScenes,duration_manipulation_targetAtFixation,jsons/v1_VE1000_randls_60_rotated.json,http://54.235.29.9/FacialAge/BNav_EC2/DepthDuration/v2_depth_duration_MTurk/v2_DepthDuration_HTML.html#114,114,1366,625,1366,768,8-22-2022,5-12-42,48,depth_duration_stimuli/003070_2014-06-15_14-58-27_094959634447_rgbf000150-resize_3/003070_2014-06-15_14-58-27_094959634447_rgbf000150-resize_3-target.png,1000,2.9415,5,3868,1000,feet,jsons/v1_VE1000_randls_60_rotated.json,986157,1244376,30,Woman
48,230606,DepthScenes,duration_manipulation_targetAtFixation,jsons/v1_VE1000_randls_60_rotated.json,http://54.235.29.9/FacialAge/BNav_EC2/DepthDuration/v2_depth_duration_MTurk/v2_DepthDuration_HTML.html#114,114,1366,625,1366,768,8-22-2022,5-12-42,49,depth_duration_stimuli/001170_2014-06-17_15-43-44_260595134347_rgbf000096-resize_6/001170_2014-06-17_15-43-44_260595134347_rgbf000096-resize-original.jpg,1000,1.1909999999999998,0,4730,1000,feet,jsons/v1_VE1000_randls_60_rotated.json,986157,1244376,30,Woman
49,230606,DepthScenes,duration_manipulation_targetAtFixation,jsons/v1_VE1000_randls_60_rotated.json,http://54.235.29.9/FacialAge/BNav_EC2/DepthDuration/v2_depth_duration_MTurk/v2_DepthDuration_HTML.html#114,114,1366,625,1366,768,8-22-2022,5-12-42,50,depth_duration_stimuli/000677_2014-06-08_23-10-32_260595134347_rgbf000158-resize_6/000677_2014-06-08_23-10-32_260595134347_rgbf000158-resize_6-target.png,1000,3.556,5,4084,951,feet,jsons/v1_VE1000_randls_60_rotated.json,986157,1244376,30,Woman
50,230606,DepthScenes,duration_manipulation_targetAtFixation,jsons/v1_VE1000_randls_60_rotated.json,http://54.235.29.9/FacialAge/BNav_EC2/DepthDuration/v2_depth_duration_MTurk/v2_DepthDuration_HTML.html#114,114,1366,625,1366,768,8-22-2022,5-12-42,51,depth_duration_stimuli/001029_2014-06-08_13-17-57_260595134347_rgbf000065-resize_1/001029_2014-06-08_13-17-57_260595134347_rgbf000065-resize_1-target.png,1000,3.0835,5,3729,1000,feet,jsons/v1_VE1000_randls_60_rotated.json,986157,1244376,30,Woman
51,230606,DepthScenes,duration_manipulation_targetAtFixation,jsons/v1_VE1000_randls_60_rotated.json,http://54.235.29.9/FacialAge/BNav_EC2/DepthDuration/v2_depth_duration_MTurk/v2_DepthDuration_HTML.html#114,114,1366,625,1366,768,8-22-2022,5-12-42,52,depth_duration_stimuli/002340_2014-06-28_20-05-46_260595134347_rgbf000113-resize_0/002340_2014-06-28_20-05-46_260595134347_rgbf000113-resize_0-target.png,1000,2.4735,5,3762,1000,feet,jsons/v1_VE1000_randls_60_rotated.json,986157,1244376,30,Woman
52,230606,DepthScenes,duration_manipulation_targetAtFixation,jsons/v1_VE1000_randls_60_rotated.json,http://54.235.29.9/FacialAge/BNav_EC2/DepthDuration/v2_depth_duration_MTurk/v2_DepthDuration_HTML.html#114,114,1366,625,1366,768,8-22-2022,5-12-42,53,depth_duration_stimuli/001016_2014-06-09_16-16-10_260595134347_rgbf000112-resize_5/001016_2014-06-09_16-16-10_260595134347_rgbf000112-resize_5-target.png,1000,1.6565,3,3778,1019,feet,jsons/v1_VE1000_randls_60_rotated.json,986157,1244376,30,Woman
53,230606,DepthScenes,duration_manipulation_targetAtFixation,jsons/v1_VE1000_randls_60_rotated.json,http://54.235.29.9/FacialAge/BNav_EC2/DepthDuration/v2_depth_duration_MTurk/v2_DepthDuration_HTML.html#114,114,1366,625,1366,768,8-22-2022,5-12-42,54,depth_duration_stimuli/001617_2014-06-20_11-35-32_260595134347_rgbf000066-resize_1/001617_2014-06-20_11-35-32_260595134347_rgbf000066-resize_1-target.png,1000,3.7910000000000004,5,3891,1000,feet,jsons/v1_VE1000_randls_60_rotated.json,986157,1244376,30,Woman
54,230606,DepthScenes,duration_manipulation_targetAtFixation,jsons/v1_VE1000_randls_60_rotated.json,http://54.235.29.9/FacialAge/BNav_EC2/DepthDuration/v2_depth_duration_MTurk/v2_DepthDuration_HTML.html#114,114,1366,625,1366,768,8-22-2022,5-12-42,55,depth_duration_stimuli/001806_2014-06-26_20-50-20_260595134347_rgbf000091-resize_1/001806_2014-06-26_20-50-20_260595134347_rgbf000091-resize_1-target.png,1000,2.7305,5,3642,1000,feet,jsons/v1_VE1000_randls_60_rotated.json,986157,1244376,30,Woman
55,230606,DepthScenes,duration_manipulation_targetAtFixation,jsons/v1_VE1000_randls_60_rotated.json,http://54.235.29.9/FacialAge/BNav_EC2/DepthDuration/v2_depth_duration_MTurk/v2_DepthDuration_HTML.html#114,114,1366,625,1366,768,8-22-2022,5-12-42,56,depth_duration_stimuli/001100_2014-06-15_17-46-26_260595134347_rgbf000225-resize_2/001100_2014-06-15_17-46-26_260595134347_rgbf000225-resize_2-target.png,1000,2.24,3,4083,999,feet,jsons/v1_VE1000_randls_60_rotated.json,986157,1244376,30,Woman
56,230606,DepthScenes,duration_manipulation_targetAtFixation,jsons/v1_VE1000_randls_60_rotated.json,http://54.235.29.9/FacialAge/BNav_EC2/DepthDuration/v2_depth_duration_MTurk/v2_DepthDuration_HTML.html#114,114,1366,625,1366,768,8-22-2022,5-12-42,57,depth_duration_stimuli/002784_2014-06-22_19-26-30_094959634447_rgbf000083-resize_3/002784_2014-06-22_19-26-30_094959634447_rgbf000083-resize_3-target.png,1000,1.8046666666667,3,3706,1052,feet,jsons/v1_VE1000_randls_60_rotated.json,986157,1244376,30,Woman
57,230606,DepthScenes,duration_manipulation_targetAtFixation,jsons/v1_VE1000_randls_60_rotated.json,http://54.235.29.9/FacialAge/BNav_EC2/DepthDuration/v2_depth_duration_MTurk/v2_DepthDuration_HTML.html#114,114,1366,625,1366,768,8-22-2022,5-12-42,58,depth_duration_stimuli/001584_2014-06-20_11-07-43_260595134347_rgbf000002-resize_1/001584_2014-06-20_11-07-43_260595134347_rgbf000002-resize_1-target.png,1000,3.53,4,4405,999,feet,jsons/v1_VE1000_randls_60_rotated.json,986157,1244376,30,Woman
58,230606,DepthScenes,duration_manipulation_targetAtFixation,jsons/v1_VE1000_randls_60_rotated.json,http://54.235.29.9/FacialAge/BNav_EC2/DepthDuration/v2_depth_duration_MTurk/v2_DepthDuration_HTML.html#114,114,1366,625,1366,768,8-22-2022,5-12-42,59,depth_duration_stimuli/003621_2014-05-23_18-06-08_094959634447_rgbf000101-resize_1/003621_2014-05-23_18-06-08_094959634447_rgbf000101-resize_1-target.png,1000,3.9835,4,3827,999,feet,jsons/v1_VE1000_randls_60_rotated.json,986157,1244376,30,Woman
59,230606,DepthScenes,duration_manipulation_targetAtFixation,jsons/v1_VE1000_randls_60_rotated.json,http://54.235.29.9/FacialAge/BNav_EC2/DepthDuration/v2_depth_duration_MTurk/v2_DepthDuration_HTML.html#114,114,1366,625,1366,768,8-22-2022,5-12-42,60,depth_duration_stimuli/001094_2014-06-15_17-36-00_260595134347_rgbf000205-resize_0/001094_2014-06-15_17-36-00_260595134347_rgbf000205-resize_0-target.png,1000,4.2175,5,4246,989,feet,jsons/v1_VE1000_randls_60_rotated.json,986157,1244376,30,Woman
60,230606,DepthScenes,duration_manipulation_targetAtFixation,jsons/v1_VE1000_randls_60_rotated.json,http://54.235.29.9/FacialAge/BNav_EC2/DepthDuration/v2_depth_duration_MTurk/v2_DepthDuration_HTML.html#114,114,1366,625,1366,768,8-22-2022,5-12-42,61,depth_duration_stimuli/000692_2014-06-08_13-09-42_260595134347_rgbf000199-resize_2/000692_2014-06-08_13-09-42_260595134347_rgbf000199-resize_2-target.png,1000,3.661,5,4010,1000,feet,jsons/v1_VE1000_randls_60_rotated.json,986157,1244376,30,Woman
61,230606,DepthScenes,duration_manipulation_targetAtFixation,jsons/v1_VE1000_randls_60_rotated.json,http://54.235.29.9/FacialAge/BNav_EC2/DepthDuration/v2_depth_duration_MTurk/v2_DepthDuration_HTML.html#114,114,1366,625,1366,768,8-22-2022,5-12-42,62,depth_duration_stimuli/000137_2014-05-20_17-04-49_260595134347_rgbf000120-resize_1/000137_2014-05-20_17-04-49_260595134347_rgbf000120-resize_1-target.png,1000,3.786,5,3987,1001,feet,jsons/v1_VE1000_randls_60_rotated.json,986157,1244376,30,Woman
62,230606,DepthScenes,duration_manipulation_targetAtFixation,jsons/v1_VE1000_randls_60_rotated.json,http://54.235.29.9/FacialAge/BNav_EC2/DepthDuration/v2_depth_duration_MTurk/v2_DepthDuration_HTML.html#114,114,1366,625,1366,768,8-22-2022,5-12-42,63,depth_duration_stimuli/000736_2014-06-08_18-24-15_260595134347_rgbf000206-resize_3/000736_2014-06-08_18-24-15_260595134347_rgbf000206-resize_3-target.png,1000,3.515,3,3945,1000,feet,jsons/v1_VE1000_randls_60_rotated.json,986157,1244376,30,Woman
63,230606,DepthScenes,duration_manipulation_targetAtFixation,jsons/v1_VE1000_randls_60_rotated.json,http://54.235.29.9/FacialAge/BNav_EC2/DepthDuration/v2_depth_duration_MTurk/v2_DepthDuration_HTML.html#114,114,1366,625,1366,768,8-22-2022,5-12-42,64,depth_duration_stimuli/001132_2014-06-17_14-48-54_260595134347_rgbf000100-resize_2/001132_2014-06-17_14-48-54_260595134347_rgbf000100-resize_2-target.png,1000,3.753,3,3799,1002,feet,jsons/v1_VE1000_randls_60_rotated.json,986157,1244376,30,Woman
64,230606,DepthScenes,duration_manipulation_targetAtFixation,jsons/v1_VE1000_randls_60_rotated.json,http://54.235.29.9/FacialAge/BNav_EC2/DepthDuration/v2_depth_duration_MTurk/v2_DepthDuration_HTML.html#114,114,1366,625,1366,768,8-22-2022,5-12-42,65,depth_duration_stimuli/001133_2014-06-17_14-49-16_260595134347_rgbf000100-resize_0/001133_2014-06-17_14-49-16_260595134347_rgbf000100-resize_0-target.png,1000,4.2115,3,3631,1001,feet,jsons/v1_VE1000_randls_60_rotated.json,986157,1244376,30,Woman
65,230606,DepthScenes,duration_manipulation_targetAtFixation,jsons/v1_VE1000_randls_60_rotated.json,http://54.235.29.9/FacialAge/BNav_EC2/DepthDuration/v2_depth_duration_MTurk/v2_DepthDuration_HTML.html#114,114,1366,625,1366,768,8-22-2022,5-12-42,66,depth_duration_stimuli/001540_2014-06-20_17-01-05_260595134347_rgbf000086-resize_2/001540_2014-06-20_17-01-05_260595134347_rgbf000086-resize-original.jpg,1000,1.459,0,4170,1000,feet,jsons/v1_VE1000_randls_60_rotated.json,986157,1244376,30,Woman
66,230606,DepthScenes,duration_manipulation_targetAtFixation,jsons/v1_VE1000_randls_60_rotated.json,http://54.235.29.9/FacialAge/BNav_EC2/DepthDuration/v2_depth_duration_MTurk/v2_DepthDuration_HTML.html#114,114,1366,625,1366,768,8-22-2022,5-12-42,67,depth_duration_stimuli/002136_2014-06-25_21-18-03_260595134347_rgbf000109-resize_3/002136_2014-06-25_21-18-03_260595134347_rgbf000109-resize_3-target.png,1000,1.9569999999999999,4,4427,999,feet,jsons/v1_VE1000_randls_60_rotated.json,986157,1244376,30,Woman
67,230606,DepthScenes,duration_manipulation_targetAtFixation,jsons/v1_VE1000_randls_60_rotated.json,http://54.235.29.9/FacialAge/BNav_EC2/DepthDuration/v2_depth_duration_MTurk/v2_DepthDuration_HTML.html#114,114,1366,625,1366,768,8-22-2022,5-12-42,68,depth_duration_stimuli/002964_2014-06-08_17-46-11_094959634447_rgbf000091-resize_4/002964_2014-06-08_17-46-11_094959634447_rgbf000091-resize_4-target.png,1000,1.6909999999999998,4,3616,989,feet,jsons/v1_VE1000_randls_60_rotated.json,986157,1244376,30,Woman
68,230606,DepthScenes,duration_manipulation_targetAtFixation,jsons/v1_VE1000_randls_60_rotated.json,http://54.235.29.9/FacialAge/BNav_EC2/DepthDuration/v2_depth_duration_MTurk/v2_DepthDuration_HTML.html#114,114,1366,625,1366,768,8-22-2022,5-12-42,69,depth_duration_stimuli/001235_2014-06-17_16-37-36_260595134347_rgbf000084-resize_4/001235_2014-06-17_16-37-36_260595134347_rgbf000084-resize_4-target.png,1000,3.6605,4,4002,1018,feet,jsons/v1_VE1000_randls_60_rotated.json,986157,1244376,30,Woman
69,230606,DepthScenes,duration_manipulation_targetAtFixation,jsons/v1_VE1000_randls_60_rotated.json,http://54.235.29.9/FacialAge/BNav_EC2/DepthDuration/v2_depth_duration_MTurk/v2_DepthDuration_HTML.html#114,114,1366,625,1366,768,8-22-2022,5-12-42,70,depth_duration_stimuli/000788_2014-06-08_22-34-36_260595134347_rgbf000131-resize_1/000788_2014-06-08_22-34-36_260595134347_rgbf000131-resize_1-target.png,1000,3.359,4,4627,1000,feet,jsons/v1_VE1000_randls_60_rotated.json,986157,1244376,30,Woman
70,230606,DepthScenes,duration_manipulation_targetAtFixation,jsons/v1_VE1000_randls_60_rotated.json,http://54.235.29.9/FacialAge/BNav_EC2/DepthDuration/v2_depth_duration_MTurk/v2_DepthDuration_HTML.html#114,114,1366,625,1366,768,8-22-2022,5-12-42,71,depth_duration_stimuli/000103_2014-05-14_22-01-17_260595134347_rgbf000152-resize_5/000103_2014-05-14_22-01-17_260595134347_rgbf000152-resize_5-target.png,1000,1.993,4,4475,999,feet,jsons/v1_VE1000_randls_60_rotated.json,986157,1244376,30,Woman
71,230606,DepthScenes,duration_manipulation_targetAtFixation,jsons/v1_VE1000_randls_60_rotated.json,http://54.235.29.9/FacialAge/BNav_EC2/DepthDuration/v2_depth_duration_MTurk/v2_DepthDuration_HTML.html#114,114,1366,625,1366,768,8-22-2022,5-12-42,72,depth_duration_stimuli/001555_2014-06-20_17-12-10_260595134347_rgbf000065-resize_4/001555_2014-06-20_17-12-10_260595134347_rgbf000065-resize_4-target.png,1000,1.633,3,7453,1000,feet,jsons/v1_VE1000_randls_60_rotated.json,986157,1244376,30,Woman
72,230606,DepthScenes,duration_manipulation_targetAtFixation,jsons/v1_VE1000_randls_60_rotated.json,http://54.235.29.9/FacialAge/BNav_EC2/DepthDuration/v2_depth_duration_MTurk/v2_DepthDuration_HTML.html#114,114,1366,625,1366,768,8-22-2022,5-12-42,73,depth_duration_stimuli/000409_2014-06-04_19-23-33_260595134347_rgbf000067-resize_0/000409_2014-06-04_19-23-33_260595134347_rgbf000067-resize_0-target.png,1000,3.7335,4,4436,1001,feet,jsons/v1_VE1000_randls_60_rotated.json,986157,1244376,30,Woman
73,230606,DepthScenes,duration_manipulation_targetAtFixation,jsons/v1_VE1000_randls_60_rotated.json,http://54.235.29.9/FacialAge/BNav_EC2/DepthDuration/v2_depth_duration_MTurk/v2_DepthDuration_HTML.html#114,114,1366,625,1366,768,8-22-2022,5-12-42,74,depth_duration_stimuli/002663_2014-06-13_15-50-26_094959634447_rgbf000075-resize_1/002663_2014-06-13_15-50-26_094959634447_rgbf000075-resize_1-target.png,1000,4.7495,3,4158,998,feet,jsons/v1_VE1000_randls_60_rotated.json,986157,1244376,30,Woman
74,230606,DepthScenes,duration_manipulation_targetAtFixation,jsons/v1_VE1000_randls_60_rotated.json,http://54.235.29.9/FacialAge/BNav_EC2/DepthDuration/v2_depth_duration_MTurk/v2_DepthDuration_HTML.html#114,114,1366,625,1366,768,8-22-2022,5-12-42,75,depth_duration_stimuli/002953_2014-06-08_17-32-18_094959634447_rgbf000059-resize_5/002953_2014-06-08_17-32-18_094959634447_rgbf000059-resize_5-target.png,1000,1.551,3,4445,998,feet,jsons/v1_VE1000_randls_60_rotated.json,986157,1244376,30,Woman
75,230606,DepthScenes,duration_manipulation_targetAtFixation,jsons/v1_VE1000_randls_60_rotated.json,http://54.235.29.9/FacialAge/BNav_EC2/DepthDuration/v2_depth_duration_MTurk/v2_DepthDuration_HTML.html#114,114,1366,625,1366,768,8-22-2022,5-12-42,76,depth_duration_stimuli/000878_2014-06-08_22-52-45_260595134347_rgbf000045-resize_2/000878_2014-06-08_22-52-45_260595134347_rgbf000045-resize_2-target.png,1000,2.092,3,35725,1000,feet,jsons/v1_VE1000_randls_60_rotated.json,986157,1244376,30,Woman
76,230606,DepthScenes,duration_manipulation_targetAtFixation,jsons/v1_VE1000_randls_60_rotated.json,http://54.235.29.9/FacialAge/BNav_EC2/DepthDuration/v2_depth_duration_MTurk/v2_DepthDuration_HTML.html#114,114,1366,625,1366,768,8-22-2022,5-12-42,77,depth_duration_stimuli/000191_2014-05-12_17-07-38_260595134347_rgbf000199-resize_0/000191_2014-05-12_17-07-38_260595134347_rgbf000199-resize_0-target.png,1000,3.7995,3,19834,998,feet,jsons/v1_VE1000_randls_60_rotated.json,986157,1244376,30,Woman
77,230606,DepthScenes,duration_manipulation_targetAtFixation,jsons/v1_VE1000_randls_60_rotated.json,http://54.235.29.9/FacialAge/BNav_EC2/DepthDuration/v2_depth_duration_MTurk/v2_DepthDuration_HTML.html#114,114,1366,625,1366,768,8-22-2022,5-12-42,78,depth_duration_stimuli/000493_2014-06-09_21-01-18_260595134347_rgbf000196-resize_3/000493_2014-06-09_21-01-18_260595134347_rgbf000196-resize_3-target.png,1000,3.44,5,4039,1000,feet,jsons/v1_VE1000_randls_60_rotated.json,986157,1244376,30,Woman
78,230606,DepthScenes,duration_manipulation_targetAtFixation,jsons/v1_VE1000_randls_60_rotated.json,http://54.235.29.9/FacialAge/BNav_EC2/DepthDuration/v2_depth_duration_MTurk/v2_DepthDuration_HTML.html#114,114,1366,625,1366,768,8-22-2022,5-12-42,79,depth_duration_stimuli/002323_2014-06-28_20-01-54_260595134347_rgbf000051-resize_4/002323_2014-06-28_20-01-54_260595134347_rgbf000051-resize_4-target.png,1000,3.7310000000000003,5,4108,1000,feet,jsons/v1_VE1000_randls_60_rotated.json,986157,1244376,30,Woman
79,230606,DepthScenes,duration_manipulation_targetAtFixation,jsons/v1_VE1000_randls_60_rotated.json,http://54.235.29.9/FacialAge/BNav_EC2/DepthDuration/v2_depth_duration_MTurk/v2_DepthDuration_HTML.html#114,114,1366,625,1366,768,8-22-2022,5-12-42,80,depth_duration_stimuli/000917_2014-06-09_22-45-29_260595134347_rgbf000149-resize_3/000917_2014-06-09_22-45-29_260595134347_rgbf000149-resize_3-target.png,1000,4.1865,5,3682,1000,feet,jsons/v1_VE1000_randls_60_rotated.json,986157,1244376,30,Woman
80,230606,DepthScenes,duration_manipulation_targetAtFixation,jsons/v1_VE1000_randls_60_rotated.json,http://54.235.29.9/FacialAge/BNav_EC2/DepthDuration/v2_depth_duration_MTurk/v2_DepthDuration_HTML.html#114,114,1366,625,1366,768,8-22-2022,5-12-42,81,depth_duration_stimuli/002467_2014-06-28_20-38-07_260595134347_rgbf000026-resize_2/002467_2014-06-28_20-38-07_260595134347_rgbf000026-resize_2-target.png,1000,4.742,5,4202,1000,feet,jsons/v1_VE1000_randls_60_rotated.json,986157,1244376,30,Woman
81,230606,DepthScenes,duration_manipulation_targetAtFixation,jsons/v1_VE1000_randls_60_rotated.json,http://54.235.29.9/FacialAge/BNav_EC2/DepthDuration/v2_depth_duration_MTurk/v2_DepthDuration_HTML.html#114,114,1366,625,1366,768,8-22-2022,5-12-42,82,depth_duration_stimuli/002570_2014-06-24_13-59-54_094959634447_rgbf000059-resize_0/002570_2014-06-24_13-59-54_094959634447_rgbf000059-resize_0-target.png,1000,4.037,4,4273,1032,feet,jsons/v1_VE1000_randls_60_rotated.json,986157,1244376,30,Woman
82,230606,DepthScenes,duration_manipulation_targetAtFixation,jsons/v1_VE1000_randls_60_rotated.json,http://54.235.29.9/FacialAge/BNav_EC2/DepthDuration/v2_depth_duration_MTurk/v2_DepthDuration_HTML.html#114,114,1366,625,1366,768,8-22-2022,5-12-42,83,depth_duration_stimuli/001516_2014-06-20_16-25-09_260595134347_rgbf000076-resize_2/001516_2014-06-20_16-25-09_260595134347_rgbf000076-resize_2-target.png,1000,1.7445,5,3614,1000,feet,jsons/v1_VE1000_randls_60_rotated.json,986157,1244376,30,Woman
83,230606,DepthScenes,duration_manipulation_targetAtFixation,jsons/v1_VE1000_randls_60_rotated.json,http://54.235.29.9/FacialAge/BNav_EC2/DepthDuration/v2_depth_duration_MTurk/v2_DepthDuration_HTML.html#114,114,1366,625,1366,768,8-22-2022,5-12-42,84,depth_duration_stimuli/002118_2014-06-25_20-32-08_260595134347_rgbf000078-resize_1/002118_2014-06-25_20-32-08_260595134347_rgbf000078-resize_1-target.png,1000,2.6460000000000004,3,4432,999,feet,jsons/v1_VE1000_randls_60_rotated.json,986157,1244376,30,Woman
84,230606,DepthScenes,duration_manipulation_targetAtFixation,jsons/v1_VE1000_randls_60_rotated.json,http://54.235.29.9/FacialAge/BNav_EC2/DepthDuration/v2_depth_duration_MTurk/v2_DepthDuration_HTML.html#114,114,1366,625,1366,768,8-22-2022,5-12-42,85,depth_duration_stimuli/002657_2014-06-13_15-29-54_094959634447_rgbf000150-resize_1/002657_2014-06-13_15-29-54_094959634447_rgbf000150-resize_1-target.png,1000,4.919,4,4658,999,feet,jsons/v1_VE1000_randls_60_rotated.json,986157,1244376,30,Woman
85,230606,DepthScenes,duration_manipulation_targetAtFixation,jsons/v1_VE1000_randls_60_rotated.json,http://54.235.29.9/FacialAge/BNav_EC2/DepthDuration/v2_depth_duration_MTurk/v2_DepthDuration_HTML.html#114,114,1366,625,1366,768,8-22-2022,5-12-42,86,depth_duration_stimuli/002375_2014-06-28_20-13-44_260595134347_rgbf000032-resize_1/002375_2014-06-28_20-13-44_260595134347_rgbf000032-resize_1-target.png,1000,4.0175,4,4360,1000,feet,jsons/v1_VE1000_randls_60_rotated.json,986157,1244376,30,Woman
86,230606,DepthScenes,duration_manipulation_targetAtFixation,jsons/v1_VE1000_randls_60_rotated.json,http://54.235.29.9/FacialAge/BNav_EC2/DepthDuration/v2_depth_duration_MTurk/v2_DepthDuration_HTML.html#114,114,1366,625,1366,768,8-22-2022,5-12-42,87,depth_duration_stimuli/003010_2014-06-15_12-54-35_094959634447_rgbf000112-resize_0/003010_2014-06-15_12-54-35_094959634447_rgbf000112-resize_0-target.png,1000,3.1185,5,4023,1001,feet,jsons/v1_VE1000_randls_60_rotated.json,986157,1244376,30,Woman
87,230606,DepthScenes,duration_manipulation_targetAtFixation,jsons/v1_VE1000_randls_60_rotated.json,http://54.235.29.9/FacialAge/BNav_EC2/DepthDuration/v2_depth_duration_MTurk/v2_DepthDuration_HTML.html#114,114,1366,625,1366,768,8-22-2022,5-12-42,88,depth_duration_stimuli/001810_2014-06-26_20-51-35_260595134347_rgbf000040-resize_3/001810_2014-06-26_20-51-35_260595134347_rgbf000040-resize_3-target.png,1000,2.2525,5,20169,1000,feet,jsons/v1_VE1000_randls_60_rotated.json,986157,1244376,30,Woman
88,230606,DepthScenes,duration_manipulation_targetAtFixation,jsons/v1_VE1000_randls_60_rotated.json,http://54.235.29.9/FacialAge/BNav_EC2/DepthDuration/v2_depth_duration_MTurk/v2_DepthDuration_HTML.html#114,114,1366,625,1366,768,8-22-2022,5-12-42,89,depth_duration_stimuli/001450_2014-06-19_17-02-03_260595134347_rgbf000203-resize_4/001450_2014-06-19_17-02-03_260595134347_rgbf000203-resize_4-target.png,1000,4.0106666666667,4,4426,985,feet,jsons/v1_VE1000_randls_60_rotated.json,986157,1244376,30,Woman
89,230606,DepthScenes,duration_manipulation_targetAtFixation,jsons/v1_VE1000_randls_60_rotated.json,http://54.235.29.9/FacialAge/BNav_EC2/DepthDuration/v2_depth_duration_MTurk/v2_DepthDuration_HTML.html#114,114,1366,625,1366,768,8-22-2022,5-12-42,90,depth_duration_stimuli/001449_2014-06-19_17-01-27_260595134347_rgbf000116-resize_2/001449_2014-06-19_17-01-27_260595134347_rgbf000116-resize_2-target.png,1000,3.452,4,4243,1000,feet,jsons/v1_VE1000_randls_60_rotated.json,986157,1244376,30,Woman
90,230606,DepthScenes,duration_manipulation_targetAtFixation,jsons/v1_VE1000_randls_60_rotated.json,http://54.235.29.9/FacialAge/BNav_EC2/DepthDuration/v2_depth_duration_MTurk/v2_DepthDuration_HTML.html#114,114,1366,625,1366,768,8-22-2022,5-12-42,91,depth_duration_stimuli/003338_2014-05-20_11-01-23_094959634447_rgbf000051-resize_6/003338_2014-05-20_11-01-23_094959634447_rgbf000051-resize_6-target.png,1000,1.693,4,7626,1000,feet,jsons/v1_VE1000_randls_60_rotated.json,986157,1244376,30,Woman
91,230606,DepthScenes,duration_manipulation_targetAtFixation,jsons/v1_VE1000_randls_60_rotated.json,http://54.235.29.9/FacialAge/BNav_EC2/DepthDuration/v2_depth_duration_MTurk/v2_DepthDuration_HTML.html#114,114,1366,625,1366,768,8-22-2022,5-12-42,92,depth_duration_stimuli/002509_2014-06-24_13-19-22_094959634447_rgbf000077-resize_0/002509_2014-06-24_13-19-22_094959634447_rgbf000077-resize_0-target.png,1000,1.3065,4,16827,999,feet,jsons/v1_VE1000_randls_60_rotated.json,986157,1244376,30,Woman
92,230606,DepthScenes,duration_manipulation_targetAtFixation,jsons/v1_VE1000_randls_60_rotated.json,http://54.235.29.9/FacialAge/BNav_EC2/DepthDuration/v2_depth_duration_MTurk/v2_DepthDuration_HTML.html#114,114,1366,625,1366,768,8-22-2022,5-12-42,93,depth_duration_stimuli/003081_2014-06-15_15-19-16_094959634447_rgbf000150-resize_1/003081_2014-06-15_15-19-16_094959634447_rgbf000150-resize_1-target.png,1000,3.9125,5,4612,1000,feet,jsons/v1_VE1000_randls_60_rotated.json,986157,1244376,30,Woman
93,230606,DepthScenes,duration_manipulation_targetAtFixation,jsons/v1_VE1000_randls_60_rotated.json,http://54.235.29.9/FacialAge/BNav_EC2/DepthDuration/v2_depth_duration_MTurk/v2_DepthDuration_HTML.html#114,114,1366,625,1366,768,8-22-2022,5-12-42,94,depth_duration_stimuli/001417_2014-06-19_16-25-36_260595134347_rgbf000115-resize_5/001417_2014-06-19_16-25-36_260595134347_rgbf000115-resize_5-target.png,1000,4.6255,5,3878,1000,feet,jsons/v1_VE1000_randls_60_rotated.json,986157,1244376,30,Woman
94,230606,DepthScenes,duration_manipulation_targetAtFixation,jsons/v1_VE1000_randls_60_rotated.json,http://54.235.29.9/FacialAge/BNav_EC2/DepthDuration/v2_depth_duration_MTurk/v2_DepthDuration_HTML.html#114,114,1366,625,1366,768,8-22-2022,5-12-42,95,depth_duration_stimuli/002758_2014-06-22_19-11-20_094959634447_rgbf000128-resize_1/002758_2014-06-22_19-11-20_094959634447_rgbf000128-resize_1-target.png,1000,2.555,3,3566,999,feet,jsons/v1_VE1000_randls_60_rotated.json,986157,1244376,30,Woman
95,230606,DepthScenes,duration_manipulation_targetAtFixation,jsons/v1_VE1000_randls_60_rotated.json,http://54.235.29.9/FacialAge/BNav_EC2/DepthDuration/v2_depth_duration_MTurk/v2_DepthDuration_HTML.html#114,114,1366,625,1366,768,8-22-2022,5-12-42,96,depth_duration_stimuli/002630_2014-06-24_14-47-50_094959634447_rgbf000055-resize_1/002630_2014-06-24_14-47-50_094959634447_rgbf000055-resize_1-target.png,1000,3.0095,3,3667,1000,feet,jsons/v1_VE1000_randls_60_rotated.json,986157,1244376,30,Woman
96,230606,DepthScenes,duration_manipulation_targetAtFixation,jsons/v1_VE1000_randls_60_rotated.json,http://54.235.29.9/FacialAge/BNav_EC2/DepthDuration/v2_depth_duration_MTurk/v2_DepthDuration_HTML.html#114,114,1366,625,1366,768,8-22-2022,5-12-42,97,depth_duration_stimuli/002805_2014-06-22_19-54-03_094959634447_rgbf000079-resize_1/002805_2014-06-22_19-54-03_094959634447_rgbf000079-resize_1-target.png,1000,3.1439999999999997,4,12634,1021,feet,jsons/v1_VE1000_randls_60_rotated.json,986157,1244376,30,Woman
97,230606,DepthScenes,duration_manipulation_targetAtFixation,jsons/v1_VE1000_randls_60_rotated.json,http://54.235.29.9/FacialAge/BNav_EC2/DepthDuration/v2_depth_duration_MTurk/v2_DepthDuration_HTML.html#114,114,1366,625,1366,768,8-22-2022,5-12-42,98,depth_duration_stimuli/000906_2014-06-08_13-35-43_260595134347_rgbf000155-resize_1/000906_2014-06-08_13-35-43_260595134347_rgbf000155-resize_1-target.png,1000,2.8489999999999998,44444,4073,996,feet,jsons/v1_VE1000_randls_60_rotated.json,986157,1244376,30,Woman
98,230606,DepthScenes,duration_manipulation_targetAtFixation,jsons/v1_VE1000_randls_60_rotated.json,http://54.235.29.9/FacialAge/BNav_EC2/DepthDuration/v2_depth_duration_MTurk/v2_DepthDuration_HTML.html#114,114,1366,625,1366,768,8-22-2022,5-12-42,99,depth_duration_stimuli/001222_2014-06-17_16-24-06_260595134347_rgbf000073-resize_0/001222_2014-06-17_16-24-06_260595134347_rgbf000073-resize-original.jpg,1000,1.4385,4,4162,999,feet,jsons/v1_VE1000_randls_60_rotated.json,986157,1244376,30,Woman
99,230606,DepthScenes,duration_manipulation_targetAtFixation,jsons/v1_VE1000_randls_60_rotated.json,http://54.235.29.9/FacialAge/BNav_EC2/DepthDuration/v2_depth_duration_MTurk/v2_DepthDuration_HTML.html#114,114,1366,625,1366,768,8-22-2022,5-12-42,100,depth_duration_stimuli/002344_2014-06-28_20-06-29_260595134347_rgbf000030-resize_1/002344_2014-06-28_20-06-29_260595134347_rgbf000030-resize_1-target.png,1000,1.5795,5,4507,1002,feet,jsons/v1_VE1000_randls_60_rotated.json,986157,1244376,30,Woman
100,230606,DepthScenes,duration_manipulation_targetAtFixation,jsons/v1_VE1000_randls_60_rotated.json,http://54.235.29.9/FacialAge/BNav_EC2/DepthDuration/v2_depth_duration_MTurk/v2_DepthDuration_HTML.html#114,114,1366,625,1366,768,8-22-2022,5-12-42,101,depth_duration_stimuli/002725_2014-06-22_11-47-51_094959634447_rgbf000070-resize_1/002725_2014-06-22_11-47-51_094959634447_rgbf000070-resize_1-target.png,1000,2.195,5,4508,1001,feet,jsons/v1_VE1000_randls_60_rotated.json,986157,1244376,30,Woman
101,230606,DepthScenes,duration_manipulation_targetAtFixation,jsons/v1_VE1000_randls_60_rotated.json,http://54.235.29.9/FacialAge/BNav_EC2/DepthDuration/v2_depth_duration_MTurk/v2_DepthDuration_HTML.html#114,114,1366,625,1366,768,8-22-2022,5-12-42,102,depth_duration_stimuli/000749_2014-06-08_21-55-06_260595134347_rgbf000070-resize_2/000749_2014-06-08_21-55-06_260595134347_rgbf000070-resize_2-target.png,1000,2.331,5,4042,1000,feet,jsons/v1_VE1000_randls_60_rotated.json,986157,1244376,30,Woman
102,230606,DepthScenes,duration_manipulation_targetAtFixation,jsons/v1_VE1000_randls_60_rotated.json,http://54.235.29.9/FacialAge/BNav_EC2/DepthDuration/v2_depth_duration_MTurk/v2_DepthDuration_HTML.html#114,114,1366,625,1366,768,8-22-2022,5-12-42,103,depth_duration_stimuli/002788_2014-06-22_19-36-03_094959634447_rgbf000088-resize_2/002788_2014-06-22_19-36-03_094959634447_rgbf000088-resize_2-target.png,1000,1.6465,5,3897,999,feet,jsons/v1_VE1000_randls_60_rotated.json,986157,1244376,30,Woman
103,230606,DepthScenes,duration_manipulation_targetAtFixation,jsons/v1_VE1000_randls_60_rotated.json,http://54.235.29.9/FacialAge/BNav_EC2/DepthDuration/v2_depth_duration_MTurk/v2_DepthDuration_HTML.html#114,114,1366,625,1366,768,8-22-2022,5-12-42,104,depth_duration_stimuli/000549_2014-06-08_22-10-24_260595134347_rgbf000247-resize_3/000549_2014-06-08_22-10-24_260595134347_rgbf000247-resize_3-target.png,1000,1.841,3,3995,999,feet,jsons/v1_VE1000_randls_60_rotated.json,986157,1244376,30,Woman
104,230606,DepthScenes,duration_manipulation_targetAtFixation,jsons/v1_VE1000_randls_60_rotated.json,http://54.235.29.9/FacialAge/BNav_EC2/DepthDuration/v2_depth_duration_MTurk/v2_DepthDuration_HTML.html#114,114,1366,625,1366,768,8-22-2022,5-12-42,105,depth_duration_stimuli/001055_2014-06-08_18-45-35_260595134347_rgbf000111-resize_4/001055_2014-06-08_18-45-35_260595134347_rgbf000111-resize_4-target.png,1000,2.4290000000000003,3,4396,1001,feet,jsons/v1_VE1000_randls_60_rotated.json,986157,1244376,30,Woman
105,230606,DepthScenes,duration_manipulation_targetAtFixation,jsons/v1_VE1000_randls_60_rotated.json,http://54.235.29.9/FacialAge/BNav_EC2/DepthDuration/v2_depth_duration_MTurk/v2_DepthDuration_HTML.html#114,114,1366,625,1366,768,8-22-2022,5-12-42,106,depth_duration_stimuli/000691_2014-06-08_13-08-50_260595134347_rgbf000132-resize_3/000691_2014-06-08_13-08-50_260595134347_rgbf000132-resize_3-target.png,1000,4.1530000000000005,3,4113,1000,feet,jsons/v1_VE1000_randls_60_rotated.json,986157,1244376,30,Woman
106,230606,DepthScenes,duration_manipulation_targetAtFixation,jsons/v1_VE1000_randls_60_rotated.json,http://54.235.29.9/FacialAge/BNav_EC2/DepthDuration/v2_depth_duration_MTurk/v2_DepthDuration_HTML.html#114,114,1366,625,1366,768,8-22-2022,5-12-42,107,depth_duration_stimuli/002213_2014-06-28_18-37-58_260595134347_rgbf000055-resize_1/002213_2014-06-28_18-37-58_260595134347_rgbf000055-resize_1-target.png,1000,3.62,3,4258,999,feet,jsons/v1_VE1000_randls_60_rotated.json,986157,1244376,30,Woman
107,230606,DepthScenes,duration_manipulation_targetAtFixation,jsons/v1_VE1000_randls_60_rotated.json,http://54.235.29.9/FacialAge/BNav_EC2/DepthDuration/v2_depth_duration_MTurk/v2_DepthDuration_HTML.html#114,114,1366,625,1366,768,8-22-2022,5-12-42,108,depth_duration_stimuli/000109_2014-05-14_23-41-52_260595134347_rgbf000035-resize_9/000109_2014-05-14_23-41-52_260595134347_rgbf000035-resize_9-target.png,1000,1.3545,2,4468,999,feet,jsons/v1_VE1000_randls_60_rotated.json,986157,1244376,30,Woman
108,230606,DepthScenes,duration_manipulation_targetAtFixation,jsons/v1_VE1000_randls_60_rotated.json,http://54.235.29.9/FacialAge/BNav_EC2/DepthDuration/v2_depth_duration_MTurk/v2_DepthDuration_HTML.html#114,114,1366,625,1366,768,8-22-2022,5-12-42,109,depth_duration_stimuli/000470_2014-06-09_19-42-40_260595134347_rgbf000094-resize_1/000470_2014-06-09_19-42-40_260595134347_rgbf000094-resize_1-target.png,1000,1.831,2,3465,1000,feet,jsons/v1_VE1000_randls_60_rotated.json,986157,1244376,30,Woman
109,230606,DepthScenes,duration_manipulation_targetAtFixation,jsons/v1_VE1000_randls_60_rotated.json,http://54.235.29.9/FacialAge/BNav_EC2/DepthDuration/v2_depth_duration_MTurk/v2_DepthDuration_HTML.html#114,114,1366,625,1366,768,8-22-2022,5-12-42,110,depth_duration_stimuli/003490_2014-05-21_15-50-11_094959634447_rgbf000101-resize_3/003490_2014-05-21_15-50-11_094959634447_rgbf000101-resize_3-target.png,1000,3.6445,2,4026,963,feet,jsons/v1_VE1000_randls_60_rotated.json,986157,1244376,30,Woman
110,230606,DepthScenes,duration_manipulation_targetAtFixation,jsons/v1_VE1000_randls_60_rotated.json,http://54.235.29.9/FacialAge/BNav_EC2/DepthDuration/v2_depth_duration_MTurk/v2_DepthDuration_HTML.html#114,114,1366,625,1366,768,8-22-2022,5-12-42,111,depth_duration_stimuli/001175_2014-06-17_15-45-55_260595134347_rgbf000129-resize_4/001175_2014-06-17_15-45-55_260595134347_rgbf000129-resize_4-target.png,1000,4.255,2,3843,1000,feet,jsons/v1_VE1000_randls_60_rotated.json,986157,1244376,30,Woman
111,230606,DepthScenes,duration_manipulation_targetAtFixation,jsons/v1_VE1000_randls_60_rotated.json,http://54.235.29.9/FacialAge/BNav_EC2/DepthDuration/v2_depth_duration_MTurk/v2_DepthDuration_HTML.html#114,114,1366,625,1366,768,8-22-2022,5-12-42,112,depth_duration_stimuli/003129_2014-05-12_10-48-10_094959634447_rgbf000100-resize_0/003129_2014-05-12_10-48-10_094959634447_rgbf000100-resize_0-target.png,1000,4.9305,2,3810,999,feet,jsons/v1_VE1000_randls_60_rotated.json,986157,1244376,30,Woman
112,230606,DepthScenes,duration_manipulation_targetAtFixation,jsons/v1_VE1000_randls_60_rotated.json,http://54.235.29.9/FacialAge/BNav_EC2/DepthDuration/v2_depth_duration_MTurk/v2_DepthDuration_HTML.html#114,114,1366,625,1366,768,8-22-2022,5-12-42,113,depth_duration_stimuli/000414_2014-06-04_19-49-13_260595134347_rgbf000044-resize_0/000414_2014-06-04_19-49-13_260595134347_rgbf000044-resize_0-target.png,1000,4.329,4,6544,999,feet,jsons/v1_VE1000_randls_60_rotated.json,986157,1244376,30,Woman
113,230606,DepthScenes,duration_manipulation_targetAtFixation,jsons/v1_VE1000_randls_60_rotated.json,http://54.235.29.9/FacialAge/BNav_EC2/DepthDuration/v2_depth_duration_MTurk/v2_DepthDuration_HTML.html#114,114,1366,625,1366,768,8-22-2022,5-12-42,114,depth_duration_stimuli/002949_2014-06-26_15-57-42_094959634447_rgbf000079-resize_1/002949_2014-06-26_15-57-42_094959634447_rgbf000079-resize_1-target.png,1000,1.8915,3,3881,999,feet,jsons/v1_VE1000_randls_60_rotated.json,986157,1244376,30,Woman
114,230606,DepthScenes,duration_manipulation_targetAtFixation,jsons/v1_VE1000_randls_60_rotated.json,http://54.235.29.9/FacialAge/BNav_EC2/DepthDuration/v2_depth_duration_MTurk/v2_DepthDuration_HTML.html#114,114,1366,625,1366,768,8-22-2022,5-12-42,115,depth_duration_stimuli/000522_2014-06-08_13-35-06_260595134347_rgbf000244-resize_1/000522_2014-06-08_13-35-06_260595134347_rgbf000244-resize_1-target.png,1000,2.3715,3,4044,1000,feet,jsons/v1_VE1000_randls_60_rotated.json,986157,1244376,30,Woman
115,230606,DepthScenes,duration_manipulation_targetAtFixation,jsons/v1_VE1000_randls_60_rotated.json,http://54.235.29.9/FacialAge/BNav_EC2/DepthDuration/v2_depth_duration_MTurk/v2_DepthDuration_HTML.html#114,114,1366,625,1366,768,8-22-2022,5-12-42,116,depth_duration_stimuli/002660_2014-06-13_15-44-18_094959634447_rgbf001878-resize_2/002660_2014-06-13_15-44-18_094959634447_rgbf001878-resize_2-target.png,1000,3.576,3,3673,999,feet,jsons/v1_VE1000_randls_60_rotated.json,986157,1244376,30,Woman
116,230606,DepthScenes,duration_manipulation_targetAtFixation,jsons/v1_VE1000_randls_60_rotated.json,http://54.235.29.9/FacialAge/BNav_EC2/DepthDuration/v2_depth_duration_MTurk/v2_DepthDuration_HTML.html#114,114,1366,625,1366,768,8-22-2022,5-12-42,117,depth_duration_stimuli/002153_2014-06-25_21-27-18_260595134347_rgbf000038-resize_5/002153_2014-06-25_21-27-18_260595134347_rgbf000038-resize_5-target.png,1000,2.505,3,5062,979,feet,jsons/v1_VE1000_randls_60_rotated.json,986157,1244376,30,Woman
117,230606,DepthScenes,duration_manipulation_targetAtFixation,jsons/v1_VE1000_randls_60_rotated.json,http://54.235.29.9/FacialAge/BNav_EC2/DepthDuration/v2_depth_duration_MTurk/v2_DepthDuration_HTML.html#114,114,1366,625,1366,768,8-22-2022,5-12-42,118,depth_duration_stimuli/000854_2014-06-09_19-43-13_260595134347_rgbf000066-resize_0/000854_2014-06-09_19-43-13_260595134347_rgbf000066-resize_0-target.png,1000,3.068,0,3834,999,feet,jsons/v1_VE1000_randls_60_rotated.json,986157,1244376,30,Woman
118,230606,DepthScenes,duration_manipulation_targetAtFixation,jsons/v1_VE1000_randls_60_rotated.json,http://54.235.29.9/FacialAge/BNav_EC2/DepthDuration/v2_depth_duration_MTurk/v2_DepthDuration_HTML.html#114,114,1366,625,1366,768,8-22-2022,5-12-42,119,depth_duration_stimuli/000758_2014-06-08_22-05-08_260595134347_rgbf000085-resize_0/000758_2014-06-08_22-05-08_260595134347_rgbf000085-resize_0-target.png,1000,3.3810000000000002,5,3869,998,feet,jsons/v1_VE1000_randls_60_rotated.json,986157,1244376,30,Woman
119,230606,DepthScenes,duration_manipulation_targetAtFixation,jsons/v1_VE1000_randls_60_rotated.json,http://54.235.29.9/FacialAge/BNav_EC2/DepthDuration/v2_depth_duration_MTurk/v2_DepthDuration_HTML.html#114,114,1366,625,1366,768,8-22-2022,5-12-42,120,depth_duration_stimuli/000787_2014-06-08_22-33-53_260595134347_rgbf000175-resize_1/000787_2014-06-08_22-33-53_260595134347_rgbf000175-resize-original.jpg,1000,4.784,0,3639,1000,feet,jsons/v1_VE1000_randls_60_rotated.json,986157,1244376,30,Woman
120,230606,DepthScenes,duration_manipulation_targetAtFixation,jsons/v1_VE1000_randls_60_rotated.json,http://54.235.29.9/FacialAge/BNav_EC2/DepthDuration/v2_depth_duration_MTurk/v2_DepthDuration_HTML.html#114,114,1366,625,1366,768,8-22-2022,5-12-42,121,depth_duration_stimuli/002545_2014-06-24_13-38-53_094959634447_rgbf000080-resize_4/002545_2014-06-24_13-38-53_094959634447_rgbf000080-resize_4-target.png,1000,1.9205,5,4244,1000,feet,jsons/v1_VE1000_randls_60_rotated.json,986157,1244376,30,Woman
121,230606,DepthScenes,duration_manipulation_targetAtFixation,jsons/v1_VE1000_randls_60_rotated.json,http://54.235.29.9/FacialAge/BNav_EC2/DepthDuration/v2_depth_duration_MTurk/v2_DepthDuration_HTML.html#114,114,1366,625,1366,768,8-22-2022,5-12-42,122,depth_duration_stimuli/001092_2014-06-15_17-34-58_260595134347_rgbf000171-resize_3/001092_2014-06-15_17-34-58_260595134347_rgbf000171-resize_3-target.png,1000,2.6935,4,3854,1000,feet,jsons/v1_VE1000_randls_60_rotated.json,986157,1244376,30,Woman
122,230606,DepthScenes,duration_manipulation_targetAtFixation,jsons/v1_VE1000_randls_60_rotated.json,http://54.235.29.9/FacialAge/BNav_EC2/DepthDuration/v2_depth_duration_MTurk/v2_DepthDuration_HTML.html#114,114,1366,625,1366,768,8-22-2022,5-12-42,123,depth_duration_stimuli/003079_2014-06-15_15-18-20_094959634447_rgbf000152-resize_8/003079_2014-06-15_15-18-20_094959634447_rgbf000152-resize_8-target.png,1000,2.8775,5,3785,1000,feet,jsons/v1_VE1000_randls_60_rotated.json,986157,1244376,30,Woman
123,230606,DepthScenes,duration_manipulation_targetAtFixation,jsons/v1_VE1000_randls_60_rotated.json,http://54.235.29.9/FacialAge/BNav_EC2/DepthDuration/v2_depth_duration_MTurk/v2_DepthDuration_HTML.html#114,114,1366,625,1366,768,8-22-2022,5-12-42,124,depth_duration_stimuli/000506_2014-06-08_23-21-00_260595134347_rgbf000070-resize_7/000506_2014-06-08_23-21-00_260595134347_rgbf000070-resize_7-target.png,1000,4.0585,5,4041,1000,feet,jsons/v1_VE1000_randls_60_rotated.json,986157,1244376,30,Woman
124,230606,DepthScenes,duration_manipulation_targetAtFixation,jsons/v1_VE1000_randls_60_rotated.json,http://54.235.29.9/FacialAge/BNav_EC2/DepthDuration/v2_depth_duration_MTurk/v2_DepthDuration_HTML.html#114,114,1366,625,1366,768,8-22-2022,5-12-42,125,depth_duration_stimuli/003228_2014-05-14_13-42-35_094959634447_rgbf000101-resize_1/003228_2014-05-14_13-42-35_094959634447_rgbf000101-resize_1-target.png,1000,1.9680000000000002,3,3907,1000,feet,jsons/v1_VE1000_randls_60_rotated.json,986157,1244376,30,Woman
125,230606,DepthScenes,duration_manipulation_targetAtFixation,jsons/v1_VE1000_randls_60_rotated.json,http://54.235.29.9/FacialAge/BNav_EC2/DepthDuration/v2_depth_duration_MTurk/v2_DepthDuration_HTML.html#114,114,1366,625,1366,768,8-22-2022,5-12-42,126,depth_duration_stimuli/002600_2014-06-24_14-27-04_094959634447_rgbf000074-resize_2/002600_2014-06-24_14-27-04_094959634447_rgbf000074-resize_2-target.png,1000,2.7575,2,5254,999,feet,jsons/v1_VE1000_randls_60_rotated.json,986157,1244376,30,Woman
126,230606,DepthScenes,duration_manipulation_targetAtFixation,jsons/v1_VE1000_randls_60_rotated.json,http://54.235.29.9/FacialAge/BNav_EC2/DepthDuration/v2_depth_duration_MTurk/v2_DepthDuration_HTML.html#114,114,1366,625,1366,768,8-22-2022,5-12-42,127,depth_duration_stimuli/001447_2014-06-19_17-00-32_260595134347_rgbf000082-resize_5/001447_2014-06-19_17-00-32_260595134347_rgbf000082-resize_5-target.png,1000,4.13775,3,3722,984,feet,jsons/v1_VE1000_randls_60_rotated.json,986157,1244376,30,Woman
127,230606,DepthScenes,duration_manipulation_targetAtFixation,jsons/v1_VE1000_randls_60_rotated.json,http://54.235.29.9/FacialAge/BNav_EC2/DepthDuration/v2_depth_duration_MTurk/v2_DepthDuration_HTML.html#114,114,1366,625,1366,768,8-22-2022,5-12-42,128,depth_duration_stimuli/000447_2014-06-08_16-15-46_260595134347_rgbf000130-resize_1/000447_2014-06-08_16-15-46_260595134347_rgbf000130-resize_1-target.png,1000,4.479,4,4416,999,feet,jsons/v1_VE1000_randls_60_rotated.json,986157,1244376,30,Woman
128,230606,DepthScenes,duration_manipulation_targetAtFixation,jsons/v1_VE1000_randls_60_rotated.json,http://54.235.29.9/FacialAge/BNav_EC2/DepthDuration/v2_depth_duration_MTurk/v2_DepthDuration_HTML.html#114,114,1366,625,1366,768,8-22-2022,5-12-42,129,depth_duration_stimuli/002425_2014-06-28_20-27-29_260595134347_rgbf000031-resize_8/002425_2014-06-28_20-27-29_260595134347_rgbf000031-resize_8-target.png,1000,3.8960000000000004,4,4221,1000,feet,jsons/v1_VE1000_randls_60_rotated.json,986157,1244376,30,Woman
129,230606,DepthScenes,duration_manipulation_targetAtFixation,jsons/v1_VE1000_randls_60_rotated.json,http://54.235.29.9/FacialAge/BNav_EC2/DepthDuration/v2_depth_duration_MTurk/v2_DepthDuration_HTML.html#114,114,1366,625,1366,768,8-22-2022,5-12-42,130,depth_duration_stimuli/000642_2014-06-08_16-59-25_260595134347_rgbf000098-resize_2/000642_2014-06-08_16-59-25_260595134347_rgbf000098-resize_2-target.png,1000,2.8815,3,3803,999,feet,jsons/v1_VE1000_randls_60_rotated.json,986157,1244376,30,Woman
130,230606,DepthScenes,duration_manipulation_targetAtFixation,jsons/v1_VE1000_randls_60_rotated.json,http://54.235.29.9/FacialAge/BNav_EC2/DepthDuration/v2_depth_duration_MTurk/v2_DepthDuration_HTML.html#114,114,1366,625,1366,768,8-22-2022,5-12-42,131,depth_duration_stimuli/002875_2014-06-01_15-19-00_094959634447_rgbf000151-resize_1/002875_2014-06-01_15-19-00_094959634447_rgbf000151-resize_1-target.png,1000,1.9675,3,3922,1029,feet,jsons/v1_VE1000_randls_60_rotated.json,986157,1244376,30,Woman
131,230606,DepthScenes,duration_manipulation_targetAtFixation,jsons/v1_VE1000_randls_60_rotated.json,http://54.235.29.9/FacialAge/BNav_EC2/DepthDuration/v2_depth_duration_MTurk/v2_DepthDuration_HTML.html#114,114,1366,625,1366,768,8-22-2022,5-12-42,132,depth_duration_stimuli/001011_2014-06-08_23-18-54_260595134347_rgbf000044-resize_4/001011_2014-06-08_23-18-54_260595134347_rgbf000044-resize_4-target.png,1000,2.4730000000000003,3,3715,998,feet,jsons/v1_VE1000_randls_60_rotated.json,986157,1244376,30,Woman
132,230606,DepthScenes,duration_manipulation_targetAtFixation,jsons/v1_VE1000_randls_60_rotated.json,http://54.235.29.9/FacialAge/BNav_EC2/DepthDuration/v2_depth_duration_MTurk/v2_DepthDuration_HTML.html#114,114,1366,625,1366,768,8-22-2022,5-12-42,133,depth_duration_stimuli/002568_2014-06-24_13-59-21_094959634447_rgbf000062-resize_4/002568_2014-06-24_13-59-21_094959634447_rgbf000062-resize_4-target.png,1000,3.015,2,4172,1000,feet,jsons/v1_VE1000_randls_60_rotated.json,986157,1244376,30,Woman
133,230606,DepthScenes,duration_manipulation_targetAtFixation,jsons/v1_VE1000_randls_60_rotated.json,http://54.235.29.9/FacialAge/BNav_EC2/DepthDuration/v2_depth_duration_MTurk/v2_DepthDuration_HTML.html#114,114,1366,625,1366,768,8-22-2022,5-12-42,134,depth_duration_stimuli/003492_2014-05-21_15-50-55_094959634447_rgbf000828-resize_1/003492_2014-05-21_15-50-55_094959634447_rgbf000828-resize_1-target.png,1000,4.06875,3,3799,1000,feet,jsons/v1_VE1000_randls_60_rotated.json,986157,1244376,30,Woman
134,230606,DepthScenes,duration_manipulation_targetAtFixation,jsons/v1_VE1000_randls_60_rotated.json,http://54.235.29.9/FacialAge/BNav_EC2/DepthDuration/v2_depth_duration_MTurk/v2_DepthDuration_HTML.html#114,114,1366,625,1366,768,8-22-2022,5-12-42,135,depth_duration_stimuli/000375_2014-06-08_11-17-29_260595134347_rgbf000133-resize_2/000375_2014-06-08_11-17-29_260595134347_rgbf000133-resize-original.jpg,1000,4.718,0,4523,1000,feet,jsons/v1_VE1000_randls_60_rotated.json,986157,1244376,30,Woman
135,230606,DepthScenes,duration_manipulation_targetAtFixation,jsons/v1_VE1000_randls_60_rotated.json,http://54.235.29.9/FacialAge/BNav_EC2/DepthDuration/v2_depth_duration_MTurk/v2_DepthDuration_HTML.html#114,114,1366,625,1366,768,8-22-2022,5-12-42,136,depth_duration_stimuli/002199_2014-06-28_18-33-56_260595134347_rgbf000074-resize_0/002199_2014-06-28_18-33-56_260595134347_rgbf000074-resize_0-target.png,1000,1.996,4,5313,1000,feet,jsons/v1_VE1000_randls_60_rotated.json,986157,1244376,30,Woman
136,230606,DepthScenes,duration_manipulation_targetAtFixation,jsons/v1_VE1000_randls_60_rotated.json,http://54.235.29.9/FacialAge/BNav_EC2/DepthDuration/v2_depth_duration_MTurk/v2_DepthDuration_HTML.html#114,114,1366,625,1366,768,8-22-2022,5-12-42,137,depth_duration_stimuli/001056_2014-06-08_18-46-44_260595134347_rgbf000068-resize_0/001056_2014-06-08_18-46-44_260595134347_rgbf000068-resize_0-target.png,1000,2.6625,4,3538,998,feet,jsons/v1_VE1000_randls_60_rotated.json,986157,1244376,30,Woman
137,230606,DepthScenes,duration_manipulation_targetAtFixation,jsons/v1_VE1000_randls_60_rotated.json,http://54.235.29.9/FacialAge/BNav_EC2/DepthDuration/v2_depth_duration_MTurk/v2_DepthDuration_HTML.html#114,114,1366,625,1366,768,8-22-2022,5-12-42,138,depth_duration_stimuli/000866_2014-06-09_20-45-42_260595134347_rgbf000139-resize_1/000866_2014-06-09_20-45-42_260595134347_rgbf000139-resize_1-target.png,1000,3.2155,3,5529,1000,feet,jsons/v1_VE1000_randls_60_rotated.json,986157,1244376,30,Woman
138,230606,DepthScenes,duration_manipulation_targetAtFixation,jsons/v1_VE1000_randls_60_rotated.json,http://54.235.29.9/FacialAge/BNav_EC2/DepthDuration/v2_depth_duration_MTurk/v2_DepthDuration_HTML.html#114,114,1366,625,1366,768,8-22-2022,5-12-42,139,depth_duration_stimuli/002989_2014-06-15_12-25-03_094959634447_rgbf000150-resize_3/002989_2014-06-15_12-25-03_094959634447_rgbf000150-resize_3-target.png,1000,4.1975,3,5062,1001,feet,jsons/v1_VE1000_randls_60_rotated.json,986157,1244376,30,Woman
139,230606,DepthScenes,duration_manipulation_targetAtFixation,jsons/v1_VE1000_randls_60_rotated.json,http://54.235.29.9/FacialAge/BNav_EC2/DepthDuration/v2_depth_duration_MTurk/v2_DepthDuration_HTML.html#114,114,1366,625,1366,768,8-22-2022,5-12-42,140,depth_duration_stimuli/003587_2014-05-23_16-48-02_094959634447_rgbf002384-resize_2/003587_2014-05-23_16-48-02_094959634447_rgbf002384-resize_2-target.png,1000,1.357,3,4049,1001,feet,jsons/v1_VE1000_randls_60_rotated.json,986157,1244376,30,Woman
140,230606,DepthScenes,duration_manipulation_targetAtFixation,jsons/v1_VE1000_randls_60_rotated.json,http://54.235.29.9/FacialAge/BNav_EC2/DepthDuration/v2_depth_duration_MTurk/v2_DepthDuration_HTML.html#114,114,1366,625,1366,768,8-22-2022,5-12-42,141,depth_duration_stimuli/001167_2014-06-17_15-38-07_260595134347_rgbf000108-resize_0/001167_2014-06-17_15-38-07_260595134347_rgbf000108-resize_0-target.png,1000,1.8505,3,4456,1000,feet,jsons/v1_VE1000_randls_60_rotated.json,986157,1244376,30,Woman
141,230606,DepthScenes,duration_manipulation_targetAtFixation,jsons/v1_VE1000_randls_60_rotated.json,http://54.235.29.9/FacialAge/BNav_EC2/DepthDuration/v2_depth_duration_MTurk/v2_DepthDuration_HTML.html#114,114,1366,625,1366,768,8-22-2022,5-12-42,142,depth_duration_stimuli/002103_2014-06-25_20-00-40_260595134347_rgbf000049-resize_0/002103_2014-06-25_20-00-40_260595134347_rgbf000049-resize_0-target.png,1000,4.105,4,3938,999,feet,jsons/v1_VE1000_randls_60_rotated.json,986157,1244376,30,Woman
142,230606,DepthScenes,duration_manipulation_targetAtFixation,jsons/v1_VE1000_randls_60_rotated.json,http://54.235.29.9/FacialAge/BNav_EC2/DepthDuration/v2_depth_duration_MTurk/v2_DepthDuration_HTML.html#114,114,1366,625,1366,768,8-22-2022,5-12-42,143,depth_duration_stimuli/002039_2014-06-24_20-22-38_260595134347_rgbf000084-resize_1/002039_2014-06-24_20-22-38_260595134347_rgbf000084-resize_1-target.png,1000,4.408,4,4777,999,feet,jsons/v1_VE1000_randls_60_rotated.json,986157,1244376,30,Woman
143,230606,DepthScenes,duration_manipulation_targetAtFixation,jsons/v1_VE1000_randls_60_rotated.json,http://54.235.29.9/FacialAge/BNav_EC2/DepthDuration/v2_depth_duration_MTurk/v2_DepthDuration_HTML.html#114,114,1366,625,1366,768,8-22-2022,5-12-42,144,depth_duration_stimuli/000780_2014-06-08_22-28-29_260595134347_rgbf000126-resize_1/000780_2014-06-08_22-28-29_260595134347_rgbf000126-resize_1-target.png,1000,3.3825,4,4465,999,feet,jsons/v1_VE1000_randls_60_rotated.json,986157,1244376,30,Woman
144,230606,DepthScenes,duration_manipulation_targetAtFixation,jsons/v1_VE1000_randls_60_rotated.json,http://54.235.29.9/FacialAge/BNav_EC2/DepthDuration/v2_depth_duration_MTurk/v2_DepthDuration_HTML.html#114,114,1366,625,1366,768,8-22-2022,5-12-42,145,depth_duration_stimuli/002445_2014-06-28_20-32-16_260595134347_rgbf000029-resize_4/002445_2014-06-28_20-32-16_260595134347_rgbf000029-resize_4-target.png,1000,2.5315,3,4132,1000,feet,jsons/v1_VE1000_randls_60_rotated.json,986157,1244376,30,Woman
145,230606,DepthScenes,duration_manipulation_targetAtFixation,jsons/v1_VE1000_randls_60_rotated.json,http://54.235.29.9/FacialAge/BNav_EC2/DepthDuration/v2_depth_duration_MTurk/v2_DepthDuration_HTML.html#114,114,1366,625,1366,768,8-22-2022,5-12-42,146,depth_duration_stimuli/000665_2014-06-09_20-42-35_260595134347_rgbf000110-resize_1/000665_2014-06-09_20-42-35_260595134347_rgbf000110-resize_1-target.png,1000,3.057,3,4111,1000,feet,jsons/v1_VE1000_randls_60_rotated.json,986157,1244376,30,Woman
146,230606,DepthScenes,duration_manipulation_targetAtFixation,jsons/v1_VE1000_randls_60_rotated.json,http://54.235.29.9/FacialAge/BNav_EC2/DepthDuration/v2_depth_duration_MTurk/v2_DepthDuration_HTML.html#114,114,1366,625,1366,768,8-22-2022,5-12-42,147,depth_duration_stimuli/001150_2014-06-17_15-27-34_260595134347_rgbf000108-resize_2/001150_2014-06-17_15-27-34_260595134347_rgbf000108-resize_2-target.png,1000,4.0325,3,5249,1000,feet,jsons/v1_VE1000_randls_60_rotated.json,986157,1244376,30,Woman
147,230606,DepthScenes,duration_manipulation_targetAtFixation,jsons/v1_VE1000_randls_60_rotated.json,http://54.235.29.9/FacialAge/BNav_EC2/DepthDuration/v2_depth_duration_MTurk/v2_DepthDuration_HTML.html#114,114,1366,625,1366,768,8-22-2022,5-12-42,148,depth_duration_stimuli/000734_2014-06-08_17-39-11_260595134347_rgbf000128-resize_2/000734_2014-06-08_17-39-11_260595134347_rgbf000128-resize_2-target.png,1000,4.098,3,3676,996,feet,jsons/v1_VE1000_randls_60_rotated.json,986157,1244376,30,Woman
148,230606,DepthScenes,duration_manipulation_targetAtFixation,jsons/v1_VE1000_randls_60_rotated.json,http://54.235.29.9/FacialAge/BNav_EC2/DepthDuration/v2_depth_duration_MTurk/v2_DepthDuration_HTML.html#114,114,1366,625,1366,768,8-22-2022,5-12-42,149,depth_duration_stimuli/000739_2014-06-08_18-45-58_260595134347_rgbf000068-resize_1/000739_2014-06-08_18-45-58_260595134347_rgbf000068-resize_1-target.png,1000,3.534,3,8689,990,feet,jsons/v1_VE1000_randls_60_rotated.json,986157,1244376,30,Woman
149,230606,DepthScenes,duration_manipulation_targetAtFixation,jsons/v1_VE1000_randls_60_rotated.json,http://54.235.29.9/FacialAge/BNav_EC2/DepthDuration/v2_depth_duration_MTurk/v2_DepthDuration_HTML.html#114,114,1366,625,1366,768,8-22-2022,5-12-42,150,depth_duration_stimuli/000502_2014-06-08_23-02-32_260595134347_rgbf000063-resize_4/000502_2014-06-08_23-02-32_260595134347_rgbf000063-resize_4-target.png,1000,2.431,3,4607,1000,feet,jsons/v1_VE1000_randls_60_rotated.json,986157,1244376,30,Woman
150,230606,DepthScenes,duration_manipulation_targetAtFixation,jsons/v1_VE1000_randls_60_rotated.json,http://54.235.29.9/FacialAge/BNav_EC2/DepthDuration/v2_depth_duration_MTurk/v2_DepthDuration_HTML.html#114,114,1366,625,1366,768,8-22-2022,5-12-42,151,depth_duration_stimuli/001199_2014-06-17_16-03-48_260595134347_rgbf000077-resize_0/001199_2014-06-17_16-03-48_260595134347_rgbf000077-resize_0-target.png,1000,3.4375,3,3776,1000,feet,jsons/v1_VE1000_randls_60_rotated.json,986157,1244376,30,Woman
151,230606,DepthScenes,duration_manipulation_targetAtFixation,jsons/v1_VE1000_randls_60_rotated.json,http://54.235.29.9/FacialAge/BNav_EC2/DepthDuration/v2_depth_duration_MTurk/v2_DepthDuration_HTML.html#114,114,1366,625,1366,768,8-22-2022,5-12-42,152,depth_duration_stimuli/000569_2014-06-09_22-51-47_260595134347_rgbf000141-resize_3/000569_2014-06-09_22-51-47_260595134347_rgbf000141-resize-original.jpg,1000,4.512,3,4080,1031,feet,jsons/v1_VE1000_randls_60_rotated.json,986157,1244376,30,Woman
152,230606,DepthScenes,duration_manipulation_targetAtFixation,jsons/v1_VE1000_randls_60_rotated.json,http://54.235.29.9/FacialAge/BNav_EC2/DepthDuration/v2_depth_duration_MTurk/v2_DepthDuration_HTML.html#114,114,1366,625,1366,768,8-22-2022,5-12-42,153,depth_duration_stimuli/002750_2014-06-22_19-08-03_094959634447_rgbf000094-resize_4/002750_2014-06-22_19-08-03_094959634447_rgbf000094-resize_4-target.png,1000,2.354,5,20749,1001,feet,jsons/v1_VE1000_randls_60_rotated.json,986157,1244376,30,Woman
153,230606,DepthScenes,duration_manipulation_targetAtFixation,jsons/v1_VE1000_randls_60_rotated.json,http://54.235.29.9/FacialAge/BNav_EC2/DepthDuration/v2_depth_duration_MTurk/v2_DepthDuration_HTML.html#114,114,1366,625,1366,768,8-22-2022,5-12-42,154,depth_duration_stimuli/002549_2014-06-24_13-41-39_094959634447_rgbf000022-resize_3/002549_2014-06-24_13-41-39_094959634447_rgbf000022-resize_3-target.png,1000,1.476,3,26036,1007,feet,jsons/v1_VE1000_randls_60_rotated.json,986157,1244376,30,Woman
154,230606,DepthScenes,duration_manipulation_targetAtFixation,jsons/v1_VE1000_randls_60_rotated.json,http://54.235.29.9/FacialAge/BNav_EC2/DepthDuration/v2_depth_duration_MTurk/v2_DepthDuration_HTML.html#114,114,1366,625,1366,768,8-22-2022,5-12-42,155,depth_duration_stimuli/000556_2014-06-09_22-42-56_260595134347_rgbf000214-resize_1/000556_2014-06-09_22-42-56_260595134347_rgbf000214-resize_1-target.png,1000,4.8415,3,4185,1001,feet,jsons/v1_VE1000_randls_60_rotated.json,986157,1244376,30,Woman
155,230606,DepthScenes,duration_manipulation_targetAtFixation,jsons/v1_VE1000_randls_60_rotated.json,http://54.235.29.9/FacialAge/BNav_EC2/DepthDuration/v2_depth_duration_MTurk/v2_DepthDuration_HTML.html#114,114,1366,625,1366,768,8-22-2022,5-12-42,156,depth_duration_stimuli/001158_2014-06-17_15-32-16_260595134347_rgbf000138-resize_2/001158_2014-06-17_15-32-16_260595134347_rgbf000138-resize_2-target.png,1000,4.5315,4,4220,996,feet,jsons/v1_VE1000_randls_60_rotated.json,986157,1244376,30,Woman
156,230606,DepthScenes,duration_manipulation_targetAtFixation,jsons/v1_VE1000_randls_60_rotated.json,http://54.235.29.9/FacialAge/BNav_EC2/DepthDuration/v2_depth_duration_MTurk/v2_DepthDuration_HTML.html#114,114,1366,625,1366,768,8-22-2022,5-12-42,157,depth_duration_stimuli/002637_2014-06-24_14-51-13_094959634447_rgbf000066-resize_4/002637_2014-06-24_14-51-13_094959634447_rgbf000066-resize_4-target.png,1000,1.9955,4,3753,999,feet,jsons/v1_VE1000_randls_60_rotated.json,986157,1244376,30,Woman
157,230606,DepthScenes,duration_manipulation_targetAtFixation,jsons/v1_VE1000_randls_60_rotated.json,http://54.235.29.9/FacialAge/BNav_EC2/DepthDuration/v2_depth_duration_MTurk/v2_DepthDuration_HTML.html#114,114,1366,625,1366,768,8-22-2022,5-12-42,158,depth_duration_stimuli/003534_2014-05-22_15-06-10_094959634447_rgbf000102-resize_4/003534_2014-05-22_15-06-10_094959634447_rgbf000102-resize_4-target.png,1000,1.426,0,4795,1001,feet,jsons/v1_VE1000_randls_60_rotated.json,986157,1244376,30,Woman
158,230606,DepthScenes,duration_manipulation_targetAtFixation,jsons/v1_VE1000_randls_60_rotated.json,http://54.235.29.9/FacialAge/BNav_EC2/DepthDuration/v2_depth_duration_MTurk/v2_DepthDuration_HTML.html#114,114,1366,625,1366,768,8-22-2022,5-12-42,159,depth_duration_stimuli/002209_2014-06-28_18-36-10_260595134347_rgbf000051-resize_1/002209_2014-06-28_18-36-10_260595134347_rgbf000051-resize_1-target.png,1000,2.057,2,4123,1004,feet,jsons/v1_VE1000_randls_60_rotated.json,986157,1244376,30,Woman
159,230606,DepthScenes,duration_manipulation_targetAtFixation,jsons/v1_VE1000_randls_60_rotated.json,http://54.235.29.9/FacialAge/BNav_EC2/DepthDuration/v2_depth_duration_MTurk/v2_DepthDuration_HTML.html#114,114,1366,625,1366,768,8-22-2022,5-12-42,160,depth_duration_stimuli/002763_2014-06-22_19-13-10_094959634447_rgbf000075-resize_4/002763_2014-06-22_19-13-10_094959634447_rgbf000075-resize_4-target.png,1000,1.68375,3,3682,1000,feet,jsons/v1_VE1000_randls_60_rotated.json,986157,1244376,30,Woman
160,230606,DepthScenes,duration_manipulation_targetAtFixation,jsons/v1_VE1000_randls_60_rotated.json,http://54.235.29.9/FacialAge/BNav_EC2/DepthDuration/v2_depth_duration_MTurk/v2_DepthDuration_HTML.html#114,114,1366,625,1366,768,8-22-2022,5-12-42,161,depth_duration_stimuli/002995_2014-06-15_12-31-26_094959634447_rgbf000150-resize_1/002995_2014-06-15_12-31-26_094959634447_rgbf000150-resize_1-target.png,1000,3.8360000000000003,3,3828,1000,feet,jsons/v1_VE1000_randls_60_rotated.json,986157,1244376,30,Woman
161,230606,DepthScenes,duration_manipulation_targetAtFixation,jsons/v1_VE1000_randls_60_rotated.json,http://54.235.29.9/FacialAge/BNav_EC2/DepthDuration/v2_depth_duration_MTurk/v2_DepthDuration_HTML.html#114,114,1366,625,1366,768,8-22-2022,5-12-42,162,depth_duration_stimuli/002748_2014-06-22_19-07-22_094959634447_rgbf000078-resize_1/002748_2014-06-22_19-07-22_094959634447_rgbf000078-resize_1-target.png,1000,4.6705,3,3642,966,feet,jsons/v1_VE1000_randls_60_rotated.json,986157,1244376,30,Woman
162,230606,DepthScenes,duration_manipulation_targetAtFixation,jsons/v1_VE1000_randls_60_rotated.json,http://54.235.29.9/FacialAge/BNav_EC2/DepthDuration/v2_depth_duration_MTurk/v2_DepthDuration_HTML.html#114,114,1366,625,1366,768,8-22-2022,5-12-42,163,depth_duration_stimuli/000457_2014-06-08_16-52-43_260595134347_rgbf000199-resize_1/000457_2014-06-08_16-52-43_260595134347_rgbf000199-resize_1-target.png,1000,3.6489999999999996,4,4705,1000,feet,jsons/v1_VE1000_randls_60_rotated.json,986157,1244376,30,Woman
163,230606,DepthScenes,duration_manipulation_targetAtFixation,jsons/v1_VE1000_randls_60_rotated.json,http://54.235.29.9/FacialAge/BNav_EC2/DepthDuration/v2_depth_duration_MTurk/v2_DepthDuration_HTML.html#114,114,1366,625,1366,768,8-22-2022,5-12-42,164,depth_duration_stimuli/000929_2014-06-09_16-33-19_260595134347_rgbf000139-resize_0/000929_2014-06-09_16-33-19_260595134347_rgbf000139-resize_0-target.png,1000,2.8680000000000003,4,3300,998,feet,jsons/v1_VE1000_randls_60_rotated.json,986157,1244376,30,Woman
