,subjID,experimentName,versionName,sequenceName,url,selected_row,windowWidth,windowHeight,screenWidth,screenHeight,startDate,startTime,trial,stimulus,duration,actual_depth,depth_estimate,trial_RT,log_sceneDuration,unitSelection,seq_filepath,experimentTime,totalTime,age,gender
0,231325,DepthScenes,duration_manipulation_targetAtFixation,jsons/v1_VE1000_randls_60_rotated.json,http://54.235.29.9/FacialAge/BNav_EC2/DepthDuration/v2_depth_duration_MTurk/v2_DepthDuration_HTML.html#328,328,1366,768,1366,768,8-30-2022,10-18-2,1,depth_duration_stimuli/001032_2014-06-08_13-23-17_260595134347_rgbf000021-resize_3/001032_2014-06-08_13-23-17_260595134347_rgbf000021-resize_3-target.png,1000,3.2725,4,4329,1000,feet,jsons/v1_VE1000_randls_60_rotated.json,1022335,1753519,47,Woman
1,231325,DepthScenes,duration_manipulation_targetAtFixation,jsons/v1_VE1000_randls_60_rotated.json,http://54.235.29.9/FacialAge/BNav_EC2/DepthDuration/v2_depth_duration_MTurk/v2_DepthDuration_HTML.html#328,328,1366,768,1366,768,8-30-2022,10-18-2,2,depth_duration_stimuli/001059_2014-06-08_21-53-27_260595134347_rgbf000061-resize_4/001059_2014-06-08_21-53-27_260595134347_rgbf000061-resize_4-target.png,1000,2.4185,3,3835,999,feet,jsons/v1_VE1000_randls_60_rotated.json,1022335,1753519,47,Woman
2,231325,DepthScenes,duration_manipulation_targetAtFixation,jsons/v1_VE1000_randls_60_rotated.json,http://54.235.29.9/FacialAge/BNav_EC2/DepthDuration/v2_depth_duration_MTurk/v2_DepthDuration_HTML.html#328,328,1366,768,1366,768,8-30-2022,10-18-2,3,depth_duration_stimuli/003083_2014-06-15_15-21-03_094959634447_rgbf000063-resize_1/003083_2014-06-15_15-21-03_094959634447_rgbf000063-resize_1-target.png,1000,4.1405,4,3267,1000,feet,jsons/v1_VE1000_randls_60_rotated.json,1022335,1753519,47,Woman
3,231325,DepthScenes,duration_manipulation_targetAtFixation,jsons/v1_VE1000_randls_60_rotated.json,http://54.235.29.9/FacialAge/BNav_EC2/DepthDuration/v2_depth_duration_MTurk/v2_DepthDuration_HTML.html#328,328,1366,768,1366,768,8-30-2022,10-18-2,4,depth_duration_stimuli/000486_2014-06-09_20-47-20_260595134347_rgbf000143-resize_2/000486_2014-06-09_20-47-20_260595134347_rgbf000143-resize_2-target.png,1000,4.8325,4,3610,999,feet,jsons/v1_VE1000_randls_60_rotated.json,1022335,1753519,47,Woman
4,231325,DepthScenes,duration_manipulation_targetAtFixation,jsons/v1_VE1000_randls_60_rotated.json,http://54.235.29.9/FacialAge/BNav_EC2/DepthDuration/v2_depth_duration_MTurk/v2_DepthDuration_HTML.html#328,328,1366,768,1366,768,8-30-2022,10-18-2,5,depth_duration_stimuli/000709_2014-06-08_13-51-55_260595134347_rgbf000068-resize_3/000709_2014-06-08_13-51-55_260595134347_rgbf000068-resize_3-target.png,1000,1.8030000000000002,5,3187,1000,feet,jsons/v1_VE1000_randls_60_rotated.json,1022335,1753519,47,Woman
5,231325,DepthScenes,duration_manipulation_targetAtFixation,jsons/v1_VE1000_randls_60_rotated.json,http://54.235.29.9/FacialAge/BNav_EC2/DepthDuration/v2_depth_duration_MTurk/v2_DepthDuration_HTML.html#328,328,1366,768,1366,768,8-30-2022,10-18-2,6,depth_duration_stimuli/002057_2014-06-24_21-00-13_260595134347_rgbf000120-resize_1/002057_2014-06-24_21-00-13_260595134347_rgbf000120-resize_1-target.png,1000,2.967,2,3330,999,feet,jsons/v1_VE1000_randls_60_rotated.json,1022335,1753519,47,Woman
6,231325,DepthScenes,duration_manipulation_targetAtFixation,jsons/v1_VE1000_randls_60_rotated.json,http://54.235.29.9/FacialAge/BNav_EC2/DepthDuration/v2_depth_duration_MTurk/v2_DepthDuration_HTML.html#328,328,1366,768,1366,768,8-30-2022,10-18-2,7,depth_duration_stimuli/001214_2014-06-17_16-13-55_260595134347_rgbf000111-resize_0/001214_2014-06-17_16-13-55_260595134347_rgbf000111-resize_0-target.png,1000,2.6505,3,3811,1000,feet,jsons/v1_VE1000_randls_60_rotated.json,1022335,1753519,47,Woman
7,231325,DepthScenes,duration_manipulation_targetAtFixation,jsons/v1_VE1000_randls_60_rotated.json,http://54.235.29.9/FacialAge/BNav_EC2/DepthDuration/v2_depth_duration_MTurk/v2_DepthDuration_HTML.html#328,328,1366,768,1366,768,8-30-2022,10-18-2,8,depth_duration_stimuli/000810_2014-06-08_17-20-01_260595134347_rgbf000105-resize_0/000810_2014-06-08_17-20-01_260595134347_rgbf000105-resize_0-target.png,1000,1.4865,4,3674,999,feet,jsons/v1_VE1000_randls_60_rotated.json,1022335,1753519,47,Woman
8,231325,DepthScenes,duration_manipulation_targetAtFixation,jsons/v1_VE1000_randls_60_rotated.json,http://54.235.29.9/FacialAge/BNav_EC2/DepthDuration/v2_depth_duration_MTurk/v2_DepthDuration_HTML.html#328,328,1366,768,1366,768,8-30-2022,10-18-2,9,depth_duration_stimuli/003048_2014-06-15_13-49-43_094959634447_rgbf000150-resize_1/003048_2014-06-15_13-49-43_094959634447_rgbf000150-resize_1-target.png,1000,4.0035,2,3546,997,feet,jsons/v1_VE1000_randls_60_rotated.json,1022335,1753519,47,Woman
9,231325,DepthScenes,duration_manipulation_targetAtFixation,jsons/v1_VE1000_randls_60_rotated.json,http://54.235.29.9/FacialAge/BNav_EC2/DepthDuration/v2_depth_duration_MTurk/v2_DepthDuration_HTML.html#328,328,1366,768,1366,768,8-30-2022,10-18-2,10,depth_duration_stimuli/002043_2014-06-24_20-29-38_260595134347_rgbf000039-resize_4/002043_2014-06-24_20-29-38_260595134347_rgbf000039-resize_4-target.png,1000,2.8435,4,46498,999,feet,jsons/v1_VE1000_randls_60_rotated.json,1022335,1753519,47,Woman
10,231325,DepthScenes,duration_manipulation_targetAtFixation,jsons/v1_VE1000_randls_60_rotated.json,http://54.235.29.9/FacialAge/BNav_EC2/DepthDuration/v2_depth_duration_MTurk/v2_DepthDuration_HTML.html#328,328,1366,768,1366,768,8-30-2022,10-18-2,11,depth_duration_stimuli/001136_2014-06-17_15-19-41_260595134347_rgbf000076-resize_3/001136_2014-06-17_15-19-41_260595134347_rgbf000076-resize_3-target.png,1000,1.8655,5,4049,1000,feet,jsons/v1_VE1000_randls_60_rotated.json,1022335,1753519,47,Woman
11,231325,DepthScenes,duration_manipulation_targetAtFixation,jsons/v1_VE1000_randls_60_rotated.json,http://54.235.29.9/FacialAge/BNav_EC2/DepthDuration/v2_depth_duration_MTurk/v2_DepthDuration_HTML.html#328,328,1366,768,1366,768,8-30-2022,10-18-2,12,depth_duration_stimuli/001164_2014-06-17_15-35-46_260595134347_rgbf000085-resize_3/001164_2014-06-17_15-35-46_260595134347_rgbf000085-resize_3-target.png,1000,2.354,3,3323,999,feet,jsons/v1_VE1000_randls_60_rotated.json,1022335,1753519,47,Woman
12,231325,DepthScenes,duration_manipulation_targetAtFixation,jsons/v1_VE1000_randls_60_rotated.json,http://54.235.29.9/FacialAge/BNav_EC2/DepthDuration/v2_depth_duration_MTurk/v2_DepthDuration_HTML.html#328,328,1366,768,1366,768,8-30-2022,10-18-2,13,depth_duration_stimuli/000483_2014-06-09_20-41-45_260595134347_rgbf000116-resize_4/000483_2014-06-09_20-41-45_260595134347_rgbf000116-resize_4-target.png,1000,1.337,4,3154,999,feet,jsons/v1_VE1000_randls_60_rotated.json,1022335,1753519,47,Woman
13,231325,DepthScenes,duration_manipulation_targetAtFixation,jsons/v1_VE1000_randls_60_rotated.json,http://54.235.29.9/FacialAge/BNav_EC2/DepthDuration/v2_depth_duration_MTurk/v2_DepthDuration_HTML.html#328,328,1366,768,1366,768,8-30-2022,10-18-2,14,depth_duration_stimuli/000469_2014-06-09_19-42-10_260595134347_rgbf000081-resize_1/000469_2014-06-09_19-42-10_260595134347_rgbf000081-resize_1-target.png,1000,1.652,4,3122,999,feet,jsons/v1_VE1000_randls_60_rotated.json,1022335,1753519,47,Woman
14,231325,DepthScenes,duration_manipulation_targetAtFixation,jsons/v1_VE1000_randls_60_rotated.json,http://54.235.29.9/FacialAge/BNav_EC2/DepthDuration/v2_depth_duration_MTurk/v2_DepthDuration_HTML.html#328,328,1366,768,1366,768,8-30-2022,10-18-2,15,depth_duration_stimuli/002414_2014-06-28_20-24-58_260595134347_rgbf000067-resize_4/002414_2014-06-28_20-24-58_260595134347_rgbf000067-resize_4-target.png,1000,4.363,3,2881,1000,feet,jsons/v1_VE1000_randls_60_rotated.json,1022335,1753519,47,Woman
15,231325,DepthScenes,duration_manipulation_targetAtFixation,jsons/v1_VE1000_randls_60_rotated.json,http://54.235.29.9/FacialAge/BNav_EC2/DepthDuration/v2_depth_duration_MTurk/v2_DepthDuration_HTML.html#328,328,1366,768,1366,768,8-30-2022,10-18-2,16,depth_duration_stimuli/000773_2014-06-08_22-24-54_260595134347_rgbf000093-resize_1/000773_2014-06-08_22-24-54_260595134347_rgbf000093-resize_1-target.png,1000,4.973,2,3492,1000,feet,jsons/v1_VE1000_randls_60_rotated.json,1022335,1753519,47,Woman
16,231325,DepthScenes,duration_manipulation_targetAtFixation,jsons/v1_VE1000_randls_60_rotated.json,http://54.235.29.9/FacialAge/BNav_EC2/DepthDuration/v2_depth_duration_MTurk/v2_DepthDuration_HTML.html#328,328,1366,768,1366,768,8-30-2022,10-18-2,17,depth_duration_stimuli/001392_2014-06-19_16-07-59_260595134347_rgbf000046-resize_1/001392_2014-06-19_16-07-59_260595134347_rgbf000046-resize_1-target.png,1000,4.135,3,2962,1000,feet,jsons/v1_VE1000_randls_60_rotated.json,1022335,1753519,47,Woman
17,231325,DepthScenes,duration_manipulation_targetAtFixation,jsons/v1_VE1000_randls_60_rotated.json,http://54.235.29.9/FacialAge/BNav_EC2/DepthDuration/v2_depth_duration_MTurk/v2_DepthDuration_HTML.html#328,328,1366,768,1366,768,8-30-2022,10-18-2,18,depth_duration_stimuli/001570_2014-06-20_17-21-09_260595134347_rgbf000135-resize_4/001570_2014-06-20_17-21-09_260595134347_rgbf000135-resize_4-target.png,1000,4.467,4,3290,999,feet,jsons/v1_VE1000_randls_60_rotated.json,1022335,1753519,47,Woman
18,231325,DepthScenes,duration_manipulation_targetAtFixation,jsons/v1_VE1000_randls_60_rotated.json,http://54.235.29.9/FacialAge/BNav_EC2/DepthDuration/v2_depth_duration_MTurk/v2_DepthDuration_HTML.html#328,328,1366,768,1366,768,8-30-2022,10-18-2,19,depth_duration_stimuli/001498_2014-06-19_17-45-14_260595134347_rgbf000129-resize_4/001498_2014-06-19_17-45-14_260595134347_rgbf000129-resize-original.jpg,1000,1.4075,0,6297,998,feet,jsons/v1_VE1000_randls_60_rotated.json,1022335,1753519,47,Woman
19,231325,DepthScenes,duration_manipulation_targetAtFixation,jsons/v1_VE1000_randls_60_rotated.json,http://54.235.29.9/FacialAge/BNav_EC2/DepthDuration/v2_depth_duration_MTurk/v2_DepthDuration_HTML.html#328,328,1366,768,1366,768,8-30-2022,10-18-2,20,depth_duration_stimuli/002639_2014-06-24_14-51-37_094959634447_rgbf000074-resize_4/002639_2014-06-24_14-51-37_094959634447_rgbf000074-resize_4-target.png,1000,4.0375,5,4953,997,feet,jsons/v1_VE1000_randls_60_rotated.json,1022335,1753519,47,Woman
20,231325,DepthScenes,duration_manipulation_targetAtFixation,jsons/v1_VE1000_randls_60_rotated.json,http://54.235.29.9/FacialAge/BNav_EC2/DepthDuration/v2_depth_duration_MTurk/v2_DepthDuration_HTML.html#328,328,1366,768,1366,768,8-30-2022,10-18-2,21,depth_duration_stimuli/003292_2014-05-14_21-53-49_094959634447_rgbf000100-resize_2/003292_2014-05-14_21-53-49_094959634447_rgbf000100-resize_2-target.png,1000,3.4815,4,3050,999,feet,jsons/v1_VE1000_randls_60_rotated.json,1022335,1753519,47,Woman
21,231325,DepthScenes,duration_manipulation_targetAtFixation,jsons/v1_VE1000_randls_60_rotated.json,http://54.235.29.9/FacialAge/BNav_EC2/DepthDuration/v2_depth_duration_MTurk/v2_DepthDuration_HTML.html#328,328,1366,768,1366,768,8-30-2022,10-18-2,22,depth_duration_stimuli/000635_2014-06-08_16-38-42_260595134347_rgbf000106-resize_1/000635_2014-06-08_16-38-42_260595134347_rgbf000106-resize_1-target.png,1000,2.074,4,3427,1000,feet,jsons/v1_VE1000_randls_60_rotated.json,1022335,1753519,47,Woman
22,231325,DepthScenes,duration_manipulation_targetAtFixation,jsons/v1_VE1000_randls_60_rotated.json,http://54.235.29.9/FacialAge/BNav_EC2/DepthDuration/v2_depth_duration_MTurk/v2_DepthDuration_HTML.html#328,328,1366,768,1366,768,8-30-2022,10-18-2,23,depth_duration_stimuli/002279_2014-06-28_18-55-32_260595134347_rgbf000040-resize_5/002279_2014-06-28_18-55-32_260595134347_rgbf000040-resize_5-target.png,1000,1.5043333333333,4,5395,999,feet,jsons/v1_VE1000_randls_60_rotated.json,1022335,1753519,47,Woman
23,231325,DepthScenes,duration_manipulation_targetAtFixation,jsons/v1_VE1000_randls_60_rotated.json,http://54.235.29.9/FacialAge/BNav_EC2/DepthDuration/v2_depth_duration_MTurk/v2_DepthDuration_HTML.html#328,328,1366,768,1366,768,8-30-2022,10-18-2,24,depth_duration_stimuli/000742_2014-06-08_18-48-09_260595134347_rgbf000164-resize_4/000742_2014-06-08_18-48-09_260595134347_rgbf000164-resize_4-target.png,1000,4.632,4,19890,999,feet,jsons/v1_VE1000_randls_60_rotated.json,1022335,1753519,47,Woman
24,231325,DepthScenes,duration_manipulation_targetAtFixation,jsons/v1_VE1000_randls_60_rotated.json,http://54.235.29.9/FacialAge/BNav_EC2/DepthDuration/v2_depth_duration_MTurk/v2_DepthDuration_HTML.html#328,328,1366,768,1366,768,8-30-2022,10-18-2,25,depth_duration_stimuli/001066_2014-06-08_22-03-20_260595134347_rgbf000066-resize_4/001066_2014-06-08_22-03-20_260595134347_rgbf000066-resize_4-target.png,1000,4.2330000000000005,4,4033,997,feet,jsons/v1_VE1000_randls_60_rotated.json,1022335,1753519,47,Woman
25,231325,DepthScenes,duration_manipulation_targetAtFixation,jsons/v1_VE1000_randls_60_rotated.json,http://54.235.29.9/FacialAge/BNav_EC2/DepthDuration/v2_depth_duration_MTurk/v2_DepthDuration_HTML.html#328,328,1366,768,1366,768,8-30-2022,10-18-2,26,depth_duration_stimuli/003423_2014-05-21_10-23-26_094959634447_rgbf002665-resize_2/003423_2014-05-21_10-23-26_094959634447_rgbf002665-resize_2-target.png,1000,3.2575,3,2705,1000,feet,jsons/v1_VE1000_randls_60_rotated.json,1022335,1753519,47,Woman
26,231325,DepthScenes,duration_manipulation_targetAtFixation,jsons/v1_VE1000_randls_60_rotated.json,http://54.235.29.9/FacialAge/BNav_EC2/DepthDuration/v2_depth_duration_MTurk/v2_DepthDuration_HTML.html#328,328,1366,768,1366,768,8-30-2022,10-18-2,27,depth_duration_stimuli/002905_2014-06-03_18-04-43_094959634447_rgbf000151-resize_2/002905_2014-06-03_18-04-43_094959634447_rgbf000151-resize_2-target.png,1000,2.0295,5,4980,999,feet,jsons/v1_VE1000_randls_60_rotated.json,1022335,1753519,47,Woman
27,231325,DepthScenes,duration_manipulation_targetAtFixation,jsons/v1_VE1000_randls_60_rotated.json,http://54.235.29.9/FacialAge/BNav_EC2/DepthDuration/v2_depth_duration_MTurk/v2_DepthDuration_HTML.html#328,328,1366,768,1366,768,8-30-2022,10-18-2,28,depth_duration_stimuli/001828_2014-06-26_21-40-03_260595134347_rgbf000024-resize_0/001828_2014-06-26_21-40-03_260595134347_rgbf000024-resize_0-target.png,1000,4.8260000000000005,4,91041,999,feet,jsons/v1_VE1000_randls_60_rotated.json,1022335,1753519,47,Woman
28,231325,DepthScenes,duration_manipulation_targetAtFixation,jsons/v1_VE1000_randls_60_rotated.json,http://54.235.29.9/FacialAge/BNav_EC2/DepthDuration/v2_depth_duration_MTurk/v2_DepthDuration_HTML.html#328,328,1366,768,1366,768,8-30-2022,10-18-2,29,depth_duration_stimuli/000009_2014-05-26_14-32-05_260595134347_rgbf000034-resize_3/000009_2014-05-26_14-32-05_260595134347_rgbf000034-resize_3-target.png,1000,3.8715,5,3442,999,feet,jsons/v1_VE1000_randls_60_rotated.json,1022335,1753519,47,Woman
29,231325,DepthScenes,duration_manipulation_targetAtFixation,jsons/v1_VE1000_randls_60_rotated.json,http://54.235.29.9/FacialAge/BNav_EC2/DepthDuration/v2_depth_duration_MTurk/v2_DepthDuration_HTML.html#328,328,1366,768,1366,768,8-30-2022,10-18-2,30,depth_duration_stimuli/002072_2014-06-24_21-48-06_260595134347_rgbf000115-resize_0/002072_2014-06-24_21-48-06_260595134347_rgbf000115-resize-original.jpg,1000,4.702,0,3914,999,feet,jsons/v1_VE1000_randls_60_rotated.json,1022335,1753519,47,Woman
30,231325,DepthScenes,duration_manipulation_targetAtFixation,jsons/v1_VE1000_randls_60_rotated.json,http://54.235.29.9/FacialAge/BNav_EC2/DepthDuration/v2_depth_duration_MTurk/v2_DepthDuration_HTML.html#328,328,1366,768,1366,768,8-30-2022,10-18-2,31,depth_duration_stimuli/002444_2014-06-28_20-32-08_260595134347_rgbf000027-resize_0/002444_2014-06-28_20-32-08_260595134347_rgbf000027-resize_0-target.png,1000,4.388999999999999,4,3609,998,feet,jsons/v1_VE1000_randls_60_rotated.json,1022335,1753519,47,Woman
31,231325,DepthScenes,duration_manipulation_targetAtFixation,jsons/v1_VE1000_randls_60_rotated.json,http://54.235.29.9/FacialAge/BNav_EC2/DepthDuration/v2_depth_duration_MTurk/v2_DepthDuration_HTML.html#328,328,1366,768,1366,768,8-30-2022,10-18-2,32,depth_duration_stimuli/000436_2014-06-09_22-25-11_260595134347_rgbf000137-resize_1/000436_2014-06-09_22-25-11_260595134347_rgbf000137-resize_1-target.png,1000,4.0705,3,3554,1000,feet,jsons/v1_VE1000_randls_60_rotated.json,1022335,1753519,47,Woman
32,231325,DepthScenes,duration_manipulation_targetAtFixation,jsons/v1_VE1000_randls_60_rotated.json,http://54.235.29.9/FacialAge/BNav_EC2/DepthDuration/v2_depth_duration_MTurk/v2_DepthDuration_HTML.html#328,328,1366,768,1366,768,8-30-2022,10-18-2,33,depth_duration_stimuli/000927_2014-06-09_16-32-30_260595134347_rgbf000123-resize_3/000927_2014-06-09_16-32-30_260595134347_rgbf000123-resize_3-target.png,1000,2.6785,3,2953,998,feet,jsons/v1_VE1000_randls_60_rotated.json,1022335,1753519,47,Woman
33,231325,DepthScenes,duration_manipulation_targetAtFixation,jsons/v1_VE1000_randls_60_rotated.json,http://54.235.29.9/FacialAge/BNav_EC2/DepthDuration/v2_depth_duration_MTurk/v2_DepthDuration_HTML.html#328,328,1366,768,1366,768,8-30-2022,10-18-2,34,depth_duration_stimuli/001110_2014-06-15_17-25-28_260595134347_rgbf000150-resize_1/001110_2014-06-15_17-25-28_260595134347_rgbf000150-resize_1-target.png,1000,1.7115,4,3305,1000,feet,jsons/v1_VE1000_randls_60_rotated.json,1022335,1753519,47,Woman
34,231325,DepthScenes,duration_manipulation_targetAtFixation,jsons/v1_VE1000_randls_60_rotated.json,http://54.235.29.9/FacialAge/BNav_EC2/DepthDuration/v2_depth_duration_MTurk/v2_DepthDuration_HTML.html#328,328,1366,768,1366,768,8-30-2022,10-18-2,35,depth_duration_stimuli/003495_2014-05-21_16-01-51_094959634447_rgbf000100-resize_3/003495_2014-05-21_16-01-51_094959634447_rgbf000100-resize_3-target.png,1000,1.6255,5,3234,999,feet,jsons/v1_VE1000_randls_60_rotated.json,1022335,1753519,47,Woman
35,231325,DepthScenes,duration_manipulation_targetAtFixation,jsons/v1_VE1000_randls_60_rotated.json,http://54.235.29.9/FacialAge/BNav_EC2/DepthDuration/v2_depth_duration_MTurk/v2_DepthDuration_HTML.html#328,328,1366,768,1366,768,8-30-2022,10-18-2,36,depth_duration_stimuli/001244_2014-06-17_16-47-45_260595134347_rgbf000030-resize_4/001244_2014-06-17_16-47-45_260595134347_rgbf000030-resize_4-target.png,1000,2.0425,4,3474,1000,feet,jsons/v1_VE1000_randls_60_rotated.json,1022335,1753519,47,Woman
36,231325,DepthScenes,duration_manipulation_targetAtFixation,jsons/v1_VE1000_randls_60_rotated.json,http://54.235.29.9/FacialAge/BNav_EC2/DepthDuration/v2_depth_duration_MTurk/v2_DepthDuration_HTML.html#328,328,1366,768,1366,768,8-30-2022,10-18-2,37,depth_duration_stimuli/001815_2014-06-26_20-52-55_260595134347_rgbf000020-resize_0/001815_2014-06-26_20-52-55_260595134347_rgbf000020-resize_0-target.png,1000,3.3865,3,3107,999,feet,jsons/v1_VE1000_randls_60_rotated.json,1022335,1753519,47,Woman
37,231325,DepthScenes,duration_manipulation_targetAtFixation,jsons/v1_VE1000_randls_60_rotated.json,http://54.235.29.9/FacialAge/BNav_EC2/DepthDuration/v2_depth_duration_MTurk/v2_DepthDuration_HTML.html#328,328,1366,768,1366,768,8-30-2022,10-18-2,38,depth_duration_stimuli/001808_2014-06-26_20-50-58_260595134347_rgbf000029-resize_1/001808_2014-06-26_20-50-58_260595134347_rgbf000029-resize_1-target.png,1000,4.249,4,3467,1000,feet,jsons/v1_VE1000_randls_60_rotated.json,1022335,1753519,47,Woman
38,231325,DepthScenes,duration_manipulation_targetAtFixation,jsons/v1_VE1000_randls_60_rotated.json,http://54.235.29.9/FacialAge/BNav_EC2/DepthDuration/v2_depth_duration_MTurk/v2_DepthDuration_HTML.html#328,328,1366,768,1366,768,8-30-2022,10-18-2,39,depth_duration_stimuli/001052_2014-06-08_18-24-54_260595134347_rgbf000130-resize_1/001052_2014-06-08_18-24-54_260595134347_rgbf000130-resize_1-target.png,1000,4.1045,3,3059,999,feet,jsons/v1_VE1000_randls_60_rotated.json,1022335,1753519,47,Woman
39,231325,DepthScenes,duration_manipulation_targetAtFixation,jsons/v1_VE1000_randls_60_rotated.json,http://54.235.29.9/FacialAge/BNav_EC2/DepthDuration/v2_depth_duration_MTurk/v2_DepthDuration_HTML.html#328,328,1366,768,1366,768,8-30-2022,10-18-2,40,depth_duration_stimuli/002988_2014-06-15_12-24-20_094959634447_rgbf000150-resize_1/002988_2014-06-15_12-24-20_094959634447_rgbf000150-resize_1-target.png,1000,4.7669999999999995,4,3233,999,feet,jsons/v1_VE1000_randls_60_rotated.json,1022335,1753519,47,Woman
40,231325,DepthScenes,duration_manipulation_targetAtFixation,jsons/v1_VE1000_randls_60_rotated.json,http://54.235.29.9/FacialAge/BNav_EC2/DepthDuration/v2_depth_duration_MTurk/v2_DepthDuration_HTML.html#328,328,1366,768,1366,768,8-30-2022,10-18-2,41,depth_duration_stimuli/001571_2014-06-20_17-21-32_260595134347_rgbf000089-resize_1/001571_2014-06-20_17-21-32_260595134347_rgbf000089-resize_1-target.png,1000,1.86,4,5131,999,feet,jsons/v1_VE1000_randls_60_rotated.json,1022335,1753519,47,Woman
41,231325,DepthScenes,duration_manipulation_targetAtFixation,jsons/v1_VE1000_randls_60_rotated.json,http://54.235.29.9/FacialAge/BNav_EC2/DepthDuration/v2_depth_duration_MTurk/v2_DepthDuration_HTML.html#328,328,1366,768,1366,768,8-30-2022,10-18-2,42,depth_duration_stimuli/002272_2014-06-28_18-53-56_260595134347_rgbf000067-resize_2/002272_2014-06-28_18-53-56_260595134347_rgbf000067-resize_2-target.png,1000,1.138,3,3547,999,feet,jsons/v1_VE1000_randls_60_rotated.json,1022335,1753519,47,Woman
42,231325,DepthScenes,duration_manipulation_targetAtFixation,jsons/v1_VE1000_randls_60_rotated.json,http://54.235.29.9/FacialAge/BNav_EC2/DepthDuration/v2_depth_duration_MTurk/v2_DepthDuration_HTML.html#328,328,1366,768,1366,768,8-30-2022,10-18-2,43,depth_duration_stimuli/002678_2014-06-13_16-15-32_094959634447_rgbf000151-resize_6/002678_2014-06-13_16-15-32_094959634447_rgbf000151-resize_6-target.png,1000,2.1830000000000003,3,8725,1000,feet,jsons/v1_VE1000_randls_60_rotated.json,1022335,1753519,47,Woman
43,231325,DepthScenes,duration_manipulation_targetAtFixation,jsons/v1_VE1000_randls_60_rotated.json,http://54.235.29.9/FacialAge/BNav_EC2/DepthDuration/v2_depth_duration_MTurk/v2_DepthDuration_HTML.html#328,328,1366,768,1366,768,8-30-2022,10-18-2,44,depth_duration_stimuli/000368_2014-06-09_15-53-01_260595134347_rgbf000155-resize_2/000368_2014-06-09_15-53-01_260595134347_rgbf000155-resize_2-target.png,1000,2.4859999999999998,2,3825,999,feet,jsons/v1_VE1000_randls_60_rotated.json,1022335,1753519,47,Woman
44,231325,DepthScenes,duration_manipulation_targetAtFixation,jsons/v1_VE1000_randls_60_rotated.json,http://54.235.29.9/FacialAge/BNav_EC2/DepthDuration/v2_depth_duration_MTurk/v2_DepthDuration_HTML.html#328,328,1366,768,1366,768,8-30-2022,10-18-2,45,depth_duration_stimuli/001650_2014-06-20_12-09-00_260595134347_rgbf000087-resize_3/001650_2014-06-20_12-09-00_260595134347_rgbf000087-resize_3-target.png,1000,1.9505,4,18698,999,feet,jsons/v1_VE1000_randls_60_rotated.json,1022335,1753519,47,Woman
45,231325,DepthScenes,duration_manipulation_targetAtFixation,jsons/v1_VE1000_randls_60_rotated.json,http://54.235.29.9/FacialAge/BNav_EC2/DepthDuration/v2_depth_duration_MTurk/v2_DepthDuration_HTML.html#328,328,1366,768,1366,768,8-30-2022,10-18-2,46,depth_duration_stimuli/000682_2014-06-08_23-14-58_260595134347_rgbf000041-resize_5/000682_2014-06-08_23-14-58_260595134347_rgbf000041-resize_5-target.png,1000,2.7239999999999998,3,2994,999,feet,jsons/v1_VE1000_randls_60_rotated.json,1022335,1753519,47,Woman
46,231325,DepthScenes,duration_manipulation_targetAtFixation,jsons/v1_VE1000_randls_60_rotated.json,http://54.235.29.9/FacialAge/BNav_EC2/DepthDuration/v2_depth_duration_MTurk/v2_DepthDuration_HTML.html#328,328,1366,768,1366,768,8-30-2022,10-18-2,47,depth_duration_stimuli/000943_2014-06-09_19-31-07_260595134347_rgbf000128-resize_1/000943_2014-06-09_19-31-07_260595134347_rgbf000128-resize_1-target.png,1000,1.9765,4,3306,1000,feet,jsons/v1_VE1000_randls_60_rotated.json,1022335,1753519,47,Woman
47,231325,DepthScenes,duration_manipulation_targetAtFixation,jsons/v1_VE1000_randls_60_rotated.json,http://54.235.29.9/FacialAge/BNav_EC2/DepthDuration/v2_depth_duration_MTurk/v2_DepthDuration_HTML.html#328,328,1366,768,1366,768,8-30-2022,10-18-2,48,depth_duration_stimuli/003070_2014-06-15_14-58-27_094959634447_rgbf000150-resize_3/003070_2014-06-15_14-58-27_094959634447_rgbf000150-resize_3-target.png,1000,2.9415,5,4603,998,feet,jsons/v1_VE1000_randls_60_rotated.json,1022335,1753519,47,Woman
48,231325,DepthScenes,duration_manipulation_targetAtFixation,jsons/v1_VE1000_randls_60_rotated.json,http://54.235.29.9/FacialAge/BNav_EC2/DepthDuration/v2_depth_duration_MTurk/v2_DepthDuration_HTML.html#328,328,1366,768,1366,768,8-30-2022,10-18-2,49,depth_duration_stimuli/001170_2014-06-17_15-43-44_260595134347_rgbf000096-resize_6/001170_2014-06-17_15-43-44_260595134347_rgbf000096-resize-original.jpg,1000,1.1909999999999998,0,4177,998,feet,jsons/v1_VE1000_randls_60_rotated.json,1022335,1753519,47,Woman
49,231325,DepthScenes,duration_manipulation_targetAtFixation,jsons/v1_VE1000_randls_60_rotated.json,http://54.235.29.9/FacialAge/BNav_EC2/DepthDuration/v2_depth_duration_MTurk/v2_DepthDuration_HTML.html#328,328,1366,768,1366,768,8-30-2022,10-18-2,50,depth_duration_stimuli/000677_2014-06-08_23-10-32_260595134347_rgbf000158-resize_6/000677_2014-06-08_23-10-32_260595134347_rgbf000158-resize_6-target.png,1000,3.556,4,3259,1000,feet,jsons/v1_VE1000_randls_60_rotated.json,1022335,1753519,47,Woman
50,231325,DepthScenes,duration_manipulation_targetAtFixation,jsons/v1_VE1000_randls_60_rotated.json,http://54.235.29.9/FacialAge/BNav_EC2/DepthDuration/v2_depth_duration_MTurk/v2_DepthDuration_HTML.html#328,328,1366,768,1366,768,8-30-2022,10-18-2,51,depth_duration_stimuli/001029_2014-06-08_13-17-57_260595134347_rgbf000065-resize_1/001029_2014-06-08_13-17-57_260595134347_rgbf000065-resize_1-target.png,1000,3.0835,3,3466,999,feet,jsons/v1_VE1000_randls_60_rotated.json,1022335,1753519,47,Woman
51,231325,DepthScenes,duration_manipulation_targetAtFixation,jsons/v1_VE1000_randls_60_rotated.json,http://54.235.29.9/FacialAge/BNav_EC2/DepthDuration/v2_depth_duration_MTurk/v2_DepthDuration_HTML.html#328,328,1366,768,1366,768,8-30-2022,10-18-2,52,depth_duration_stimuli/002340_2014-06-28_20-05-46_260595134347_rgbf000113-resize_0/002340_2014-06-28_20-05-46_260595134347_rgbf000113-resize_0-target.png,1000,2.4735,4,2947,1000,feet,jsons/v1_VE1000_randls_60_rotated.json,1022335,1753519,47,Woman
52,231325,DepthScenes,duration_manipulation_targetAtFixation,jsons/v1_VE1000_randls_60_rotated.json,http://54.235.29.9/FacialAge/BNav_EC2/DepthDuration/v2_depth_duration_MTurk/v2_DepthDuration_HTML.html#328,328,1366,768,1366,768,8-30-2022,10-18-2,53,depth_duration_stimuli/001016_2014-06-09_16-16-10_260595134347_rgbf000112-resize_5/001016_2014-06-09_16-16-10_260595134347_rgbf000112-resize_5-target.png,1000,1.6565,5,3122,1000,feet,jsons/v1_VE1000_randls_60_rotated.json,1022335,1753519,47,Woman
53,231325,DepthScenes,duration_manipulation_targetAtFixation,jsons/v1_VE1000_randls_60_rotated.json,http://54.235.29.9/FacialAge/BNav_EC2/DepthDuration/v2_depth_duration_MTurk/v2_DepthDuration_HTML.html#328,328,1366,768,1366,768,8-30-2022,10-18-2,54,depth_duration_stimuli/001617_2014-06-20_11-35-32_260595134347_rgbf000066-resize_1/001617_2014-06-20_11-35-32_260595134347_rgbf000066-resize_1-target.png,1000,3.7910000000000004,3,2833,999,feet,jsons/v1_VE1000_randls_60_rotated.json,1022335,1753519,47,Woman
54,231325,DepthScenes,duration_manipulation_targetAtFixation,jsons/v1_VE1000_randls_60_rotated.json,http://54.235.29.9/FacialAge/BNav_EC2/DepthDuration/v2_depth_duration_MTurk/v2_DepthDuration_HTML.html#328,328,1366,768,1366,768,8-30-2022,10-18-2,55,depth_duration_stimuli/001806_2014-06-26_20-50-20_260595134347_rgbf000091-resize_1/001806_2014-06-26_20-50-20_260595134347_rgbf000091-resize_1-target.png,1000,2.7305,4,2916,999,feet,jsons/v1_VE1000_randls_60_rotated.json,1022335,1753519,47,Woman
55,231325,DepthScenes,duration_manipulation_targetAtFixation,jsons/v1_VE1000_randls_60_rotated.json,http://54.235.29.9/FacialAge/BNav_EC2/DepthDuration/v2_depth_duration_MTurk/v2_DepthDuration_HTML.html#328,328,1366,768,1366,768,8-30-2022,10-18-2,56,depth_duration_stimuli/001100_2014-06-15_17-46-26_260595134347_rgbf000225-resize_2/001100_2014-06-15_17-46-26_260595134347_rgbf000225-resize_2-target.png,1000,2.24,3,3521,999,feet,jsons/v1_VE1000_randls_60_rotated.json,1022335,1753519,47,Woman
56,231325,DepthScenes,duration_manipulation_targetAtFixation,jsons/v1_VE1000_randls_60_rotated.json,http://54.235.29.9/FacialAge/BNav_EC2/DepthDuration/v2_depth_duration_MTurk/v2_DepthDuration_HTML.html#328,328,1366,768,1366,768,8-30-2022,10-18-2,57,depth_duration_stimuli/002784_2014-06-22_19-26-30_094959634447_rgbf000083-resize_3/002784_2014-06-22_19-26-30_094959634447_rgbf000083-resize_3-target.png,1000,1.8046666666667,4,3338,999,feet,jsons/v1_VE1000_randls_60_rotated.json,1022335,1753519,47,Woman
57,231325,DepthScenes,duration_manipulation_targetAtFixation,jsons/v1_VE1000_randls_60_rotated.json,http://54.235.29.9/FacialAge/BNav_EC2/DepthDuration/v2_depth_duration_MTurk/v2_DepthDuration_HTML.html#328,328,1366,768,1366,768,8-30-2022,10-18-2,58,depth_duration_stimuli/001584_2014-06-20_11-07-43_260595134347_rgbf000002-resize_1/001584_2014-06-20_11-07-43_260595134347_rgbf000002-resize_1-target.png,1000,3.53,4,3016,1000,feet,jsons/v1_VE1000_randls_60_rotated.json,1022335,1753519,47,Woman
58,231325,DepthScenes,duration_manipulation_targetAtFixation,jsons/v1_VE1000_randls_60_rotated.json,http://54.235.29.9/FacialAge/BNav_EC2/DepthDuration/v2_depth_duration_MTurk/v2_DepthDuration_HTML.html#328,328,1366,768,1366,768,8-30-2022,10-18-2,59,depth_duration_stimuli/003621_2014-05-23_18-06-08_094959634447_rgbf000101-resize_1/003621_2014-05-23_18-06-08_094959634447_rgbf000101-resize_1-target.png,1000,3.9835,3,2850,999,feet,jsons/v1_VE1000_randls_60_rotated.json,1022335,1753519,47,Woman
59,231325,DepthScenes,duration_manipulation_targetAtFixation,jsons/v1_VE1000_randls_60_rotated.json,http://54.235.29.9/FacialAge/BNav_EC2/DepthDuration/v2_depth_duration_MTurk/v2_DepthDuration_HTML.html#328,328,1366,768,1366,768,8-30-2022,10-18-2,60,depth_duration_stimuli/001094_2014-06-15_17-36-00_260595134347_rgbf000205-resize_0/001094_2014-06-15_17-36-00_260595134347_rgbf000205-resize_0-target.png,1000,4.2175,4,2763,1000,feet,jsons/v1_VE1000_randls_60_rotated.json,1022335,1753519,47,Woman
60,231325,DepthScenes,duration_manipulation_targetAtFixation,jsons/v1_VE1000_randls_60_rotated.json,http://54.235.29.9/FacialAge/BNav_EC2/DepthDuration/v2_depth_duration_MTurk/v2_DepthDuration_HTML.html#328,328,1366,768,1366,768,8-30-2022,10-18-2,61,depth_duration_stimuli/000692_2014-06-08_13-09-42_260595134347_rgbf000199-resize_2/000692_2014-06-08_13-09-42_260595134347_rgbf000199-resize_2-target.png,1000,3.661,3,3779,999,feet,jsons/v1_VE1000_randls_60_rotated.json,1022335,1753519,47,Woman
61,231325,DepthScenes,duration_manipulation_targetAtFixation,jsons/v1_VE1000_randls_60_rotated.json,http://54.235.29.9/FacialAge/BNav_EC2/DepthDuration/v2_depth_duration_MTurk/v2_DepthDuration_HTML.html#328,328,1366,768,1366,768,8-30-2022,10-18-2,62,depth_duration_stimuli/000137_2014-05-20_17-04-49_260595134347_rgbf000120-resize_1/000137_2014-05-20_17-04-49_260595134347_rgbf000120-resize_1-target.png,1000,3.786,4,2969,1000,feet,jsons/v1_VE1000_randls_60_rotated.json,1022335,1753519,47,Woman
62,231325,DepthScenes,duration_manipulation_targetAtFixation,jsons/v1_VE1000_randls_60_rotated.json,http://54.235.29.9/FacialAge/BNav_EC2/DepthDuration/v2_depth_duration_MTurk/v2_DepthDuration_HTML.html#328,328,1366,768,1366,768,8-30-2022,10-18-2,63,depth_duration_stimuli/000736_2014-06-08_18-24-15_260595134347_rgbf000206-resize_3/000736_2014-06-08_18-24-15_260595134347_rgbf000206-resize_3-target.png,1000,3.515,4,30441,998,feet,jsons/v1_VE1000_randls_60_rotated.json,1022335,1753519,47,Woman
63,231325,DepthScenes,duration_manipulation_targetAtFixation,jsons/v1_VE1000_randls_60_rotated.json,http://54.235.29.9/FacialAge/BNav_EC2/DepthDuration/v2_depth_duration_MTurk/v2_DepthDuration_HTML.html#328,328,1366,768,1366,768,8-30-2022,10-18-2,64,depth_duration_stimuli/001132_2014-06-17_14-48-54_260595134347_rgbf000100-resize_2/001132_2014-06-17_14-48-54_260595134347_rgbf000100-resize_2-target.png,1000,3.753,4,4170,999,feet,jsons/v1_VE1000_randls_60_rotated.json,1022335,1753519,47,Woman
64,231325,DepthScenes,duration_manipulation_targetAtFixation,jsons/v1_VE1000_randls_60_rotated.json,http://54.235.29.9/FacialAge/BNav_EC2/DepthDuration/v2_depth_duration_MTurk/v2_DepthDuration_HTML.html#328,328,1366,768,1366,768,8-30-2022,10-18-2,65,depth_duration_stimuli/001133_2014-06-17_14-49-16_260595134347_rgbf000100-resize_0/001133_2014-06-17_14-49-16_260595134347_rgbf000100-resize_0-target.png,1000,4.2115,4,13274,999,feet,jsons/v1_VE1000_randls_60_rotated.json,1022335,1753519,47,Woman
65,231325,DepthScenes,duration_manipulation_targetAtFixation,jsons/v1_VE1000_randls_60_rotated.json,http://54.235.29.9/FacialAge/BNav_EC2/DepthDuration/v2_depth_duration_MTurk/v2_DepthDuration_HTML.html#328,328,1366,768,1366,768,8-30-2022,10-18-2,66,depth_duration_stimuli/001540_2014-06-20_17-01-05_260595134347_rgbf000086-resize_2/001540_2014-06-20_17-01-05_260595134347_rgbf000086-resize-original.jpg,1000,1.459,0,6227,1000,feet,jsons/v1_VE1000_randls_60_rotated.json,1022335,1753519,47,Woman
66,231325,DepthScenes,duration_manipulation_targetAtFixation,jsons/v1_VE1000_randls_60_rotated.json,http://54.235.29.9/FacialAge/BNav_EC2/DepthDuration/v2_depth_duration_MTurk/v2_DepthDuration_HTML.html#328,328,1366,768,1366,768,8-30-2022,10-18-2,67,depth_duration_stimuli/002136_2014-06-25_21-18-03_260595134347_rgbf000109-resize_3/002136_2014-06-25_21-18-03_260595134347_rgbf000109-resize_3-target.png,1000,1.9569999999999999,4,3970,999,feet,jsons/v1_VE1000_randls_60_rotated.json,1022335,1753519,47,Woman
67,231325,DepthScenes,duration_manipulation_targetAtFixation,jsons/v1_VE1000_randls_60_rotated.json,http://54.235.29.9/FacialAge/BNav_EC2/DepthDuration/v2_depth_duration_MTurk/v2_DepthDuration_HTML.html#328,328,1366,768,1366,768,8-30-2022,10-18-2,68,depth_duration_stimuli/002964_2014-06-08_17-46-11_094959634447_rgbf000091-resize_4/002964_2014-06-08_17-46-11_094959634447_rgbf000091-resize_4-target.png,1000,1.6909999999999998,3,3578,1000,feet,jsons/v1_VE1000_randls_60_rotated.json,1022335,1753519,47,Woman
68,231325,DepthScenes,duration_manipulation_targetAtFixation,jsons/v1_VE1000_randls_60_rotated.json,http://54.235.29.9/FacialAge/BNav_EC2/DepthDuration/v2_depth_duration_MTurk/v2_DepthDuration_HTML.html#328,328,1366,768,1366,768,8-30-2022,10-18-2,69,depth_duration_stimuli/001235_2014-06-17_16-37-36_260595134347_rgbf000084-resize_4/001235_2014-06-17_16-37-36_260595134347_rgbf000084-resize_4-target.png,1000,3.6605,5,3467,998,feet,jsons/v1_VE1000_randls_60_rotated.json,1022335,1753519,47,Woman
69,231325,DepthScenes,duration_manipulation_targetAtFixation,jsons/v1_VE1000_randls_60_rotated.json,http://54.235.29.9/FacialAge/BNav_EC2/DepthDuration/v2_depth_duration_MTurk/v2_DepthDuration_HTML.html#328,328,1366,768,1366,768,8-30-2022,10-18-2,70,depth_duration_stimuli/000788_2014-06-08_22-34-36_260595134347_rgbf000131-resize_1/000788_2014-06-08_22-34-36_260595134347_rgbf000131-resize_1-target.png,1000,3.359,5,3137,1000,feet,jsons/v1_VE1000_randls_60_rotated.json,1022335,1753519,47,Woman
70,231325,DepthScenes,duration_manipulation_targetAtFixation,jsons/v1_VE1000_randls_60_rotated.json,http://54.235.29.9/FacialAge/BNav_EC2/DepthDuration/v2_depth_duration_MTurk/v2_DepthDuration_HTML.html#328,328,1366,768,1366,768,8-30-2022,10-18-2,71,depth_duration_stimuli/000103_2014-05-14_22-01-17_260595134347_rgbf000152-resize_5/000103_2014-05-14_22-01-17_260595134347_rgbf000152-resize_5-target.png,1000,1.993,4,91250,1000,feet,jsons/v1_VE1000_randls_60_rotated.json,1022335,1753519,47,Woman
71,231325,DepthScenes,duration_manipulation_targetAtFixation,jsons/v1_VE1000_randls_60_rotated.json,http://54.235.29.9/FacialAge/BNav_EC2/DepthDuration/v2_depth_duration_MTurk/v2_DepthDuration_HTML.html#328,328,1366,768,1366,768,8-30-2022,10-18-2,72,depth_duration_stimuli/001555_2014-06-20_17-12-10_260595134347_rgbf000065-resize_4/001555_2014-06-20_17-12-10_260595134347_rgbf000065-resize_4-target.png,1000,1.633,4,3707,999,feet,jsons/v1_VE1000_randls_60_rotated.json,1022335,1753519,47,Woman
72,231325,DepthScenes,duration_manipulation_targetAtFixation,jsons/v1_VE1000_randls_60_rotated.json,http://54.235.29.9/FacialAge/BNav_EC2/DepthDuration/v2_depth_duration_MTurk/v2_DepthDuration_HTML.html#328,328,1366,768,1366,768,8-30-2022,10-18-2,73,depth_duration_stimuli/000409_2014-06-04_19-23-33_260595134347_rgbf000067-resize_0/000409_2014-06-04_19-23-33_260595134347_rgbf000067-resize_0-target.png,1000,3.7335,5,3386,1000,feet,jsons/v1_VE1000_randls_60_rotated.json,1022335,1753519,47,Woman
73,231325,DepthScenes,duration_manipulation_targetAtFixation,jsons/v1_VE1000_randls_60_rotated.json,http://54.235.29.9/FacialAge/BNav_EC2/DepthDuration/v2_depth_duration_MTurk/v2_DepthDuration_HTML.html#328,328,1366,768,1366,768,8-30-2022,10-18-2,74,depth_duration_stimuli/002663_2014-06-13_15-50-26_094959634447_rgbf000075-resize_1/002663_2014-06-13_15-50-26_094959634447_rgbf000075-resize_1-target.png,1000,4.7495,4,3179,999,feet,jsons/v1_VE1000_randls_60_rotated.json,1022335,1753519,47,Woman
74,231325,DepthScenes,duration_manipulation_targetAtFixation,jsons/v1_VE1000_randls_60_rotated.json,http://54.235.29.9/FacialAge/BNav_EC2/DepthDuration/v2_depth_duration_MTurk/v2_DepthDuration_HTML.html#328,328,1366,768,1366,768,8-30-2022,10-18-2,75,depth_duration_stimuli/002953_2014-06-08_17-32-18_094959634447_rgbf000059-resize_5/002953_2014-06-08_17-32-18_094959634447_rgbf000059-resize_5-target.png,1000,1.551,3,3376,999,feet,jsons/v1_VE1000_randls_60_rotated.json,1022335,1753519,47,Woman
75,231325,DepthScenes,duration_manipulation_targetAtFixation,jsons/v1_VE1000_randls_60_rotated.json,http://54.235.29.9/FacialAge/BNav_EC2/DepthDuration/v2_depth_duration_MTurk/v2_DepthDuration_HTML.html#328,328,1366,768,1366,768,8-30-2022,10-18-2,76,depth_duration_stimuli/000878_2014-06-08_22-52-45_260595134347_rgbf000045-resize_2/000878_2014-06-08_22-52-45_260595134347_rgbf000045-resize_2-target.png,1000,2.092,4,3323,998,feet,jsons/v1_VE1000_randls_60_rotated.json,1022335,1753519,47,Woman
76,231325,DepthScenes,duration_manipulation_targetAtFixation,jsons/v1_VE1000_randls_60_rotated.json,http://54.235.29.9/FacialAge/BNav_EC2/DepthDuration/v2_depth_duration_MTurk/v2_DepthDuration_HTML.html#328,328,1366,768,1366,768,8-30-2022,10-18-2,77,depth_duration_stimuli/000191_2014-05-12_17-07-38_260595134347_rgbf000199-resize_0/000191_2014-05-12_17-07-38_260595134347_rgbf000199-resize_0-target.png,1000,3.7995,4,3378,1000,feet,jsons/v1_VE1000_randls_60_rotated.json,1022335,1753519,47,Woman
77,231325,DepthScenes,duration_manipulation_targetAtFixation,jsons/v1_VE1000_randls_60_rotated.json,http://54.235.29.9/FacialAge/BNav_EC2/DepthDuration/v2_depth_duration_MTurk/v2_DepthDuration_HTML.html#328,328,1366,768,1366,768,8-30-2022,10-18-2,78,depth_duration_stimuli/000493_2014-06-09_21-01-18_260595134347_rgbf000196-resize_3/000493_2014-06-09_21-01-18_260595134347_rgbf000196-resize_3-target.png,1000,3.44,3,3226,997,feet,jsons/v1_VE1000_randls_60_rotated.json,1022335,1753519,47,Woman
78,231325,DepthScenes,duration_manipulation_targetAtFixation,jsons/v1_VE1000_randls_60_rotated.json,http://54.235.29.9/FacialAge/BNav_EC2/DepthDuration/v2_depth_duration_MTurk/v2_DepthDuration_HTML.html#328,328,1366,768,1366,768,8-30-2022,10-18-2,79,depth_duration_stimuli/002323_2014-06-28_20-01-54_260595134347_rgbf000051-resize_4/002323_2014-06-28_20-01-54_260595134347_rgbf000051-resize_4-target.png,1000,3.7310000000000003,3,3010,1000,feet,jsons/v1_VE1000_randls_60_rotated.json,1022335,1753519,47,Woman
79,231325,DepthScenes,duration_manipulation_targetAtFixation,jsons/v1_VE1000_randls_60_rotated.json,http://54.235.29.9/FacialAge/BNav_EC2/DepthDuration/v2_depth_duration_MTurk/v2_DepthDuration_HTML.html#328,328,1366,768,1366,768,8-30-2022,10-18-2,80,depth_duration_stimuli/000917_2014-06-09_22-45-29_260595134347_rgbf000149-resize_3/000917_2014-06-09_22-45-29_260595134347_rgbf000149-resize_3-target.png,1000,4.1865,3,2962,998,feet,jsons/v1_VE1000_randls_60_rotated.json,1022335,1753519,47,Woman
80,231325,DepthScenes,duration_manipulation_targetAtFixation,jsons/v1_VE1000_randls_60_rotated.json,http://54.235.29.9/FacialAge/BNav_EC2/DepthDuration/v2_depth_duration_MTurk/v2_DepthDuration_HTML.html#328,328,1366,768,1366,768,8-30-2022,10-18-2,81,depth_duration_stimuli/002467_2014-06-28_20-38-07_260595134347_rgbf000026-resize_2/002467_2014-06-28_20-38-07_260595134347_rgbf000026-resize_2-target.png,1000,4.742,4,2896,999,feet,jsons/v1_VE1000_randls_60_rotated.json,1022335,1753519,47,Woman
81,231325,DepthScenes,duration_manipulation_targetAtFixation,jsons/v1_VE1000_randls_60_rotated.json,http://54.235.29.9/FacialAge/BNav_EC2/DepthDuration/v2_depth_duration_MTurk/v2_DepthDuration_HTML.html#328,328,1366,768,1366,768,8-30-2022,10-18-2,82,depth_duration_stimuli/002570_2014-06-24_13-59-54_094959634447_rgbf000059-resize_0/002570_2014-06-24_13-59-54_094959634447_rgbf000059-resize_0-target.png,1000,4.037,4,3284,999,feet,jsons/v1_VE1000_randls_60_rotated.json,1022335,1753519,47,Woman
82,231325,DepthScenes,duration_manipulation_targetAtFixation,jsons/v1_VE1000_randls_60_rotated.json,http://54.235.29.9/FacialAge/BNav_EC2/DepthDuration/v2_depth_duration_MTurk/v2_DepthDuration_HTML.html#328,328,1366,768,1366,768,8-30-2022,10-18-2,83,depth_duration_stimuli/001516_2014-06-20_16-25-09_260595134347_rgbf000076-resize_2/001516_2014-06-20_16-25-09_260595134347_rgbf000076-resize_2-target.png,1000,1.7445,5,3216,999,feet,jsons/v1_VE1000_randls_60_rotated.json,1022335,1753519,47,Woman
83,231325,DepthScenes,duration_manipulation_targetAtFixation,jsons/v1_VE1000_randls_60_rotated.json,http://54.235.29.9/FacialAge/BNav_EC2/DepthDuration/v2_depth_duration_MTurk/v2_DepthDuration_HTML.html#328,328,1366,768,1366,768,8-30-2022,10-18-2,84,depth_duration_stimuli/002118_2014-06-25_20-32-08_260595134347_rgbf000078-resize_1/002118_2014-06-25_20-32-08_260595134347_rgbf000078-resize_1-target.png,1000,2.6460000000000004,5,4778,999,feet,jsons/v1_VE1000_randls_60_rotated.json,1022335,1753519,47,Woman
84,231325,DepthScenes,duration_manipulation_targetAtFixation,jsons/v1_VE1000_randls_60_rotated.json,http://54.235.29.9/FacialAge/BNav_EC2/DepthDuration/v2_depth_duration_MTurk/v2_DepthDuration_HTML.html#328,328,1366,768,1366,768,8-30-2022,10-18-2,85,depth_duration_stimuli/002657_2014-06-13_15-29-54_094959634447_rgbf000150-resize_1/002657_2014-06-13_15-29-54_094959634447_rgbf000150-resize_1-target.png,1000,4.919,4,3442,999,feet,jsons/v1_VE1000_randls_60_rotated.json,1022335,1753519,47,Woman
85,231325,DepthScenes,duration_manipulation_targetAtFixation,jsons/v1_VE1000_randls_60_rotated.json,http://54.235.29.9/FacialAge/BNav_EC2/DepthDuration/v2_depth_duration_MTurk/v2_DepthDuration_HTML.html#328,328,1366,768,1366,768,8-30-2022,10-18-2,86,depth_duration_stimuli/002375_2014-06-28_20-13-44_260595134347_rgbf000032-resize_1/002375_2014-06-28_20-13-44_260595134347_rgbf000032-resize_1-target.png,1000,4.0175,4,10898,999,feet,jsons/v1_VE1000_randls_60_rotated.json,1022335,1753519,47,Woman
86,231325,DepthScenes,duration_manipulation_targetAtFixation,jsons/v1_VE1000_randls_60_rotated.json,http://54.235.29.9/FacialAge/BNav_EC2/DepthDuration/v2_depth_duration_MTurk/v2_DepthDuration_HTML.html#328,328,1366,768,1366,768,8-30-2022,10-18-2,87,depth_duration_stimuli/003010_2014-06-15_12-54-35_094959634447_rgbf000112-resize_0/003010_2014-06-15_12-54-35_094959634447_rgbf000112-resize_0-target.png,1000,3.1185,4,3282,998,feet,jsons/v1_VE1000_randls_60_rotated.json,1022335,1753519,47,Woman
87,231325,DepthScenes,duration_manipulation_targetAtFixation,jsons/v1_VE1000_randls_60_rotated.json,http://54.235.29.9/FacialAge/BNav_EC2/DepthDuration/v2_depth_duration_MTurk/v2_DepthDuration_HTML.html#328,328,1366,768,1366,768,8-30-2022,10-18-2,88,depth_duration_stimuli/001810_2014-06-26_20-51-35_260595134347_rgbf000040-resize_3/001810_2014-06-26_20-51-35_260595134347_rgbf000040-resize_3-target.png,1000,2.2525,5,3098,1000,feet,jsons/v1_VE1000_randls_60_rotated.json,1022335,1753519,47,Woman
88,231325,DepthScenes,duration_manipulation_targetAtFixation,jsons/v1_VE1000_randls_60_rotated.json,http://54.235.29.9/FacialAge/BNav_EC2/DepthDuration/v2_depth_duration_MTurk/v2_DepthDuration_HTML.html#328,328,1366,768,1366,768,8-30-2022,10-18-2,89,depth_duration_stimuli/001450_2014-06-19_17-02-03_260595134347_rgbf000203-resize_4/001450_2014-06-19_17-02-03_260595134347_rgbf000203-resize_4-target.png,1000,4.0106666666667,4,3251,998,feet,jsons/v1_VE1000_randls_60_rotated.json,1022335,1753519,47,Woman
89,231325,DepthScenes,duration_manipulation_targetAtFixation,jsons/v1_VE1000_randls_60_rotated.json,http://54.235.29.9/FacialAge/BNav_EC2/DepthDuration/v2_depth_duration_MTurk/v2_DepthDuration_HTML.html#328,328,1366,768,1366,768,8-30-2022,10-18-2,90,depth_duration_stimuli/001449_2014-06-19_17-01-27_260595134347_rgbf000116-resize_2/001449_2014-06-19_17-01-27_260595134347_rgbf000116-resize_2-target.png,1000,3.452,4,2993,999,feet,jsons/v1_VE1000_randls_60_rotated.json,1022335,1753519,47,Woman
90,231325,DepthScenes,duration_manipulation_targetAtFixation,jsons/v1_VE1000_randls_60_rotated.json,http://54.235.29.9/FacialAge/BNav_EC2/DepthDuration/v2_depth_duration_MTurk/v2_DepthDuration_HTML.html#328,328,1366,768,1366,768,8-30-2022,10-18-2,91,depth_duration_stimuli/003338_2014-05-20_11-01-23_094959634447_rgbf000051-resize_6/003338_2014-05-20_11-01-23_094959634447_rgbf000051-resize_6-target.png,1000,1.693,3,3050,999,feet,jsons/v1_VE1000_randls_60_rotated.json,1022335,1753519,47,Woman
91,231325,DepthScenes,duration_manipulation_targetAtFixation,jsons/v1_VE1000_randls_60_rotated.json,http://54.235.29.9/FacialAge/BNav_EC2/DepthDuration/v2_depth_duration_MTurk/v2_DepthDuration_HTML.html#328,328,1366,768,1366,768,8-30-2022,10-18-2,92,depth_duration_stimuli/002509_2014-06-24_13-19-22_094959634447_rgbf000077-resize_0/002509_2014-06-24_13-19-22_094959634447_rgbf000077-resize_0-target.png,1000,1.3065,3,3050,998,feet,jsons/v1_VE1000_randls_60_rotated.json,1022335,1753519,47,Woman
92,231325,DepthScenes,duration_manipulation_targetAtFixation,jsons/v1_VE1000_randls_60_rotated.json,http://54.235.29.9/FacialAge/BNav_EC2/DepthDuration/v2_depth_duration_MTurk/v2_DepthDuration_HTML.html#328,328,1366,768,1366,768,8-30-2022,10-18-2,93,depth_duration_stimuli/003081_2014-06-15_15-19-16_094959634447_rgbf000150-resize_1/003081_2014-06-15_15-19-16_094959634447_rgbf000150-resize_1-target.png,1000,3.9125,4,3482,1000,feet,jsons/v1_VE1000_randls_60_rotated.json,1022335,1753519,47,Woman
93,231325,DepthScenes,duration_manipulation_targetAtFixation,jsons/v1_VE1000_randls_60_rotated.json,http://54.235.29.9/FacialAge/BNav_EC2/DepthDuration/v2_depth_duration_MTurk/v2_DepthDuration_HTML.html#328,328,1366,768,1366,768,8-30-2022,10-18-2,94,depth_duration_stimuli/001417_2014-06-19_16-25-36_260595134347_rgbf000115-resize_5/001417_2014-06-19_16-25-36_260595134347_rgbf000115-resize_5-target.png,1000,4.6255,3,3227,999,feet,jsons/v1_VE1000_randls_60_rotated.json,1022335,1753519,47,Woman
94,231325,DepthScenes,duration_manipulation_targetAtFixation,jsons/v1_VE1000_randls_60_rotated.json,http://54.235.29.9/FacialAge/BNav_EC2/DepthDuration/v2_depth_duration_MTurk/v2_DepthDuration_HTML.html#328,328,1366,768,1366,768,8-30-2022,10-18-2,95,depth_duration_stimuli/002758_2014-06-22_19-11-20_094959634447_rgbf000128-resize_1/002758_2014-06-22_19-11-20_094959634447_rgbf000128-resize_1-target.png,1000,2.555,4,17707,999,feet,jsons/v1_VE1000_randls_60_rotated.json,1022335,1753519,47,Woman
95,231325,DepthScenes,duration_manipulation_targetAtFixation,jsons/v1_VE1000_randls_60_rotated.json,http://54.235.29.9/FacialAge/BNav_EC2/DepthDuration/v2_depth_duration_MTurk/v2_DepthDuration_HTML.html#328,328,1366,768,1366,768,8-30-2022,10-18-2,96,depth_duration_stimuli/002630_2014-06-24_14-47-50_094959634447_rgbf000055-resize_1/002630_2014-06-24_14-47-50_094959634447_rgbf000055-resize_1-target.png,1000,3.0095,5,3890,999,feet,jsons/v1_VE1000_randls_60_rotated.json,1022335,1753519,47,Woman
96,231325,DepthScenes,duration_manipulation_targetAtFixation,jsons/v1_VE1000_randls_60_rotated.json,http://54.235.29.9/FacialAge/BNav_EC2/DepthDuration/v2_depth_duration_MTurk/v2_DepthDuration_HTML.html#328,328,1366,768,1366,768,8-30-2022,10-18-2,97,depth_duration_stimuli/002805_2014-06-22_19-54-03_094959634447_rgbf000079-resize_1/002805_2014-06-22_19-54-03_094959634447_rgbf000079-resize_1-target.png,1000,3.1439999999999997,4,3282,999,feet,jsons/v1_VE1000_randls_60_rotated.json,1022335,1753519,47,Woman
97,231325,DepthScenes,duration_manipulation_targetAtFixation,jsons/v1_VE1000_randls_60_rotated.json,http://54.235.29.9/FacialAge/BNav_EC2/DepthDuration/v2_depth_duration_MTurk/v2_DepthDuration_HTML.html#328,328,1366,768,1366,768,8-30-2022,10-18-2,98,depth_duration_stimuli/000906_2014-06-08_13-35-43_260595134347_rgbf000155-resize_1/000906_2014-06-08_13-35-43_260595134347_rgbf000155-resize_1-target.png,1000,2.8489999999999998,5,3154,1000,feet,jsons/v1_VE1000_randls_60_rotated.json,1022335,1753519,47,Woman
98,231325,DepthScenes,duration_manipulation_targetAtFixation,jsons/v1_VE1000_randls_60_rotated.json,http://54.235.29.9/FacialAge/BNav_EC2/DepthDuration/v2_depth_duration_MTurk/v2_DepthDuration_HTML.html#328,328,1366,768,1366,768,8-30-2022,10-18-2,99,depth_duration_stimuli/001222_2014-06-17_16-24-06_260595134347_rgbf000073-resize_0/001222_2014-06-17_16-24-06_260595134347_rgbf000073-resize-original.jpg,1000,1.4385,0,4506,998,feet,jsons/v1_VE1000_randls_60_rotated.json,1022335,1753519,47,Woman
99,231325,DepthScenes,duration_manipulation_targetAtFixation,jsons/v1_VE1000_randls_60_rotated.json,http://54.235.29.9/FacialAge/BNav_EC2/DepthDuration/v2_depth_duration_MTurk/v2_DepthDuration_HTML.html#328,328,1366,768,1366,768,8-30-2022,10-18-2,100,depth_duration_stimuli/002344_2014-06-28_20-06-29_260595134347_rgbf000030-resize_1/002344_2014-06-28_20-06-29_260595134347_rgbf000030-resize_1-target.png,1000,1.5795,4,6122,999,feet,jsons/v1_VE1000_randls_60_rotated.json,1022335,1753519,47,Woman
100,231325,DepthScenes,duration_manipulation_targetAtFixation,jsons/v1_VE1000_randls_60_rotated.json,http://54.235.29.9/FacialAge/BNav_EC2/DepthDuration/v2_depth_duration_MTurk/v2_DepthDuration_HTML.html#328,328,1366,768,1366,768,8-30-2022,10-18-2,101,depth_duration_stimuli/002725_2014-06-22_11-47-51_094959634447_rgbf000070-resize_1/002725_2014-06-22_11-47-51_094959634447_rgbf000070-resize_1-target.png,1000,2.195,3,3346,1000,feet,jsons/v1_VE1000_randls_60_rotated.json,1022335,1753519,47,Woman
101,231325,DepthScenes,duration_manipulation_targetAtFixation,jsons/v1_VE1000_randls_60_rotated.json,http://54.235.29.9/FacialAge/BNav_EC2/DepthDuration/v2_depth_duration_MTurk/v2_DepthDuration_HTML.html#328,328,1366,768,1366,768,8-30-2022,10-18-2,102,depth_duration_stimuli/000749_2014-06-08_21-55-06_260595134347_rgbf000070-resize_2/000749_2014-06-08_21-55-06_260595134347_rgbf000070-resize_2-target.png,1000,2.331,4,3201,999,feet,jsons/v1_VE1000_randls_60_rotated.json,1022335,1753519,47,Woman
102,231325,DepthScenes,duration_manipulation_targetAtFixation,jsons/v1_VE1000_randls_60_rotated.json,http://54.235.29.9/FacialAge/BNav_EC2/DepthDuration/v2_depth_duration_MTurk/v2_DepthDuration_HTML.html#328,328,1366,768,1366,768,8-30-2022,10-18-2,103,depth_duration_stimuli/002788_2014-06-22_19-36-03_094959634447_rgbf000088-resize_2/002788_2014-06-22_19-36-03_094959634447_rgbf000088-resize_2-target.png,1000,1.6465,3,3244,999,feet,jsons/v1_VE1000_randls_60_rotated.json,1022335,1753519,47,Woman
103,231325,DepthScenes,duration_manipulation_targetAtFixation,jsons/v1_VE1000_randls_60_rotated.json,http://54.235.29.9/FacialAge/BNav_EC2/DepthDuration/v2_depth_duration_MTurk/v2_DepthDuration_HTML.html#328,328,1366,768,1366,768,8-30-2022,10-18-2,104,depth_duration_stimuli/000549_2014-06-08_22-10-24_260595134347_rgbf000247-resize_3/000549_2014-06-08_22-10-24_260595134347_rgbf000247-resize_3-target.png,1000,1.841,5,11817,999,feet,jsons/v1_VE1000_randls_60_rotated.json,1022335,1753519,47,Woman
104,231325,DepthScenes,duration_manipulation_targetAtFixation,jsons/v1_VE1000_randls_60_rotated.json,http://54.235.29.9/FacialAge/BNav_EC2/DepthDuration/v2_depth_duration_MTurk/v2_DepthDuration_HTML.html#328,328,1366,768,1366,768,8-30-2022,10-18-2,105,depth_duration_stimuli/001055_2014-06-08_18-45-35_260595134347_rgbf000111-resize_4/001055_2014-06-08_18-45-35_260595134347_rgbf000111-resize_4-target.png,1000,2.4290000000000003,4,6252,999,feet,jsons/v1_VE1000_randls_60_rotated.json,1022335,1753519,47,Woman
105,231325,DepthScenes,duration_manipulation_targetAtFixation,jsons/v1_VE1000_randls_60_rotated.json,http://54.235.29.9/FacialAge/BNav_EC2/DepthDuration/v2_depth_duration_MTurk/v2_DepthDuration_HTML.html#328,328,1366,768,1366,768,8-30-2022,10-18-2,106,depth_duration_stimuli/000691_2014-06-08_13-08-50_260595134347_rgbf000132-resize_3/000691_2014-06-08_13-08-50_260595134347_rgbf000132-resize_3-target.png,1000,4.1530000000000005,5,4362,999,feet,jsons/v1_VE1000_randls_60_rotated.json,1022335,1753519,47,Woman
106,231325,DepthScenes,duration_manipulation_targetAtFixation,jsons/v1_VE1000_randls_60_rotated.json,http://54.235.29.9/FacialAge/BNav_EC2/DepthDuration/v2_depth_duration_MTurk/v2_DepthDuration_HTML.html#328,328,1366,768,1366,768,8-30-2022,10-18-2,107,depth_duration_stimuli/002213_2014-06-28_18-37-58_260595134347_rgbf000055-resize_1/002213_2014-06-28_18-37-58_260595134347_rgbf000055-resize_1-target.png,1000,3.62,4,3091,999,feet,jsons/v1_VE1000_randls_60_rotated.json,1022335,1753519,47,Woman
107,231325,DepthScenes,duration_manipulation_targetAtFixation,jsons/v1_VE1000_randls_60_rotated.json,http://54.235.29.9/FacialAge/BNav_EC2/DepthDuration/v2_depth_duration_MTurk/v2_DepthDuration_HTML.html#328,328,1366,768,1366,768,8-30-2022,10-18-2,108,depth_duration_stimuli/000109_2014-05-14_23-41-52_260595134347_rgbf000035-resize_9/000109_2014-05-14_23-41-52_260595134347_rgbf000035-resize_9-target.png,1000,1.3545,4,15641,998,feet,jsons/v1_VE1000_randls_60_rotated.json,1022335,1753519,47,Woman
108,231325,DepthScenes,duration_manipulation_targetAtFixation,jsons/v1_VE1000_randls_60_rotated.json,http://54.235.29.9/FacialAge/BNav_EC2/DepthDuration/v2_depth_duration_MTurk/v2_DepthDuration_HTML.html#328,328,1366,768,1366,768,8-30-2022,10-18-2,109,depth_duration_stimuli/000470_2014-06-09_19-42-40_260595134347_rgbf000094-resize_1/000470_2014-06-09_19-42-40_260595134347_rgbf000094-resize_1-target.png,1000,1.831,5,3201,999,feet,jsons/v1_VE1000_randls_60_rotated.json,1022335,1753519,47,Woman
109,231325,DepthScenes,duration_manipulation_targetAtFixation,jsons/v1_VE1000_randls_60_rotated.json,http://54.235.29.9/FacialAge/BNav_EC2/DepthDuration/v2_depth_duration_MTurk/v2_DepthDuration_HTML.html#328,328,1366,768,1366,768,8-30-2022,10-18-2,110,depth_duration_stimuli/003490_2014-05-21_15-50-11_094959634447_rgbf000101-resize_3/003490_2014-05-21_15-50-11_094959634447_rgbf000101-resize_3-target.png,1000,3.6445,4,3146,999,feet,jsons/v1_VE1000_randls_60_rotated.json,1022335,1753519,47,Woman
110,231325,DepthScenes,duration_manipulation_targetAtFixation,jsons/v1_VE1000_randls_60_rotated.json,http://54.235.29.9/FacialAge/BNav_EC2/DepthDuration/v2_depth_duration_MTurk/v2_DepthDuration_HTML.html#328,328,1366,768,1366,768,8-30-2022,10-18-2,111,depth_duration_stimuli/001175_2014-06-17_15-45-55_260595134347_rgbf000129-resize_4/001175_2014-06-17_15-45-55_260595134347_rgbf000129-resize_4-target.png,1000,4.255,4,3669,999,feet,jsons/v1_VE1000_randls_60_rotated.json,1022335,1753519,47,Woman
111,231325,DepthScenes,duration_manipulation_targetAtFixation,jsons/v1_VE1000_randls_60_rotated.json,http://54.235.29.9/FacialAge/BNav_EC2/DepthDuration/v2_depth_duration_MTurk/v2_DepthDuration_HTML.html#328,328,1366,768,1366,768,8-30-2022,10-18-2,112,depth_duration_stimuli/003129_2014-05-12_10-48-10_094959634447_rgbf000100-resize_0/003129_2014-05-12_10-48-10_094959634447_rgbf000100-resize_0-target.png,1000,4.9305,5,3688,999,feet,jsons/v1_VE1000_randls_60_rotated.json,1022335,1753519,47,Woman
112,231325,DepthScenes,duration_manipulation_targetAtFixation,jsons/v1_VE1000_randls_60_rotated.json,http://54.235.29.9/FacialAge/BNav_EC2/DepthDuration/v2_depth_duration_MTurk/v2_DepthDuration_HTML.html#328,328,1366,768,1366,768,8-30-2022,10-18-2,113,depth_duration_stimuli/000414_2014-06-04_19-49-13_260595134347_rgbf000044-resize_0/000414_2014-06-04_19-49-13_260595134347_rgbf000044-resize_0-target.png,1000,4.329,4,3314,998,feet,jsons/v1_VE1000_randls_60_rotated.json,1022335,1753519,47,Woman
113,231325,DepthScenes,duration_manipulation_targetAtFixation,jsons/v1_VE1000_randls_60_rotated.json,http://54.235.29.9/FacialAge/BNav_EC2/DepthDuration/v2_depth_duration_MTurk/v2_DepthDuration_HTML.html#328,328,1366,768,1366,768,8-30-2022,10-18-2,114,depth_duration_stimuli/002949_2014-06-26_15-57-42_094959634447_rgbf000079-resize_1/002949_2014-06-26_15-57-42_094959634447_rgbf000079-resize_1-target.png,1000,1.8915,4,2962,1000,feet,jsons/v1_VE1000_randls_60_rotated.json,1022335,1753519,47,Woman
114,231325,DepthScenes,duration_manipulation_targetAtFixation,jsons/v1_VE1000_randls_60_rotated.json,http://54.235.29.9/FacialAge/BNav_EC2/DepthDuration/v2_depth_duration_MTurk/v2_DepthDuration_HTML.html#328,328,1366,768,1366,768,8-30-2022,10-18-2,115,depth_duration_stimuli/000522_2014-06-08_13-35-06_260595134347_rgbf000244-resize_1/000522_2014-06-08_13-35-06_260595134347_rgbf000244-resize_1-target.png,1000,2.3715,5,3259,1001,feet,jsons/v1_VE1000_randls_60_rotated.json,1022335,1753519,47,Woman
115,231325,DepthScenes,duration_manipulation_targetAtFixation,jsons/v1_VE1000_randls_60_rotated.json,http://54.235.29.9/FacialAge/BNav_EC2/DepthDuration/v2_depth_duration_MTurk/v2_DepthDuration_HTML.html#328,328,1366,768,1366,768,8-30-2022,10-18-2,116,depth_duration_stimuli/002660_2014-06-13_15-44-18_094959634447_rgbf001878-resize_2/002660_2014-06-13_15-44-18_094959634447_rgbf001878-resize_2-target.png,1000,3.576,5,5041,1000,feet,jsons/v1_VE1000_randls_60_rotated.json,1022335,1753519,47,Woman
116,231325,DepthScenes,duration_manipulation_targetAtFixation,jsons/v1_VE1000_randls_60_rotated.json,http://54.235.29.9/FacialAge/BNav_EC2/DepthDuration/v2_depth_duration_MTurk/v2_DepthDuration_HTML.html#328,328,1366,768,1366,768,8-30-2022,10-18-2,117,depth_duration_stimuli/002153_2014-06-25_21-27-18_260595134347_rgbf000038-resize_5/002153_2014-06-25_21-27-18_260595134347_rgbf000038-resize_5-target.png,1000,2.505,4,4796,1000,feet,jsons/v1_VE1000_randls_60_rotated.json,1022335,1753519,47,Woman
117,231325,DepthScenes,duration_manipulation_targetAtFixation,jsons/v1_VE1000_randls_60_rotated.json,http://54.235.29.9/FacialAge/BNav_EC2/DepthDuration/v2_depth_duration_MTurk/v2_DepthDuration_HTML.html#328,328,1366,768,1366,768,8-30-2022,10-18-2,118,depth_duration_stimuli/000854_2014-06-09_19-43-13_260595134347_rgbf000066-resize_0/000854_2014-06-09_19-43-13_260595134347_rgbf000066-resize_0-target.png,1000,3.068,4,50403,998,feet,jsons/v1_VE1000_randls_60_rotated.json,1022335,1753519,47,Woman
118,231325,DepthScenes,duration_manipulation_targetAtFixation,jsons/v1_VE1000_randls_60_rotated.json,http://54.235.29.9/FacialAge/BNav_EC2/DepthDuration/v2_depth_duration_MTurk/v2_DepthDuration_HTML.html#328,328,1366,768,1366,768,8-30-2022,10-18-2,119,depth_duration_stimuli/000758_2014-06-08_22-05-08_260595134347_rgbf000085-resize_0/000758_2014-06-08_22-05-08_260595134347_rgbf000085-resize_0-target.png,1000,3.3810000000000002,5,3250,998,feet,jsons/v1_VE1000_randls_60_rotated.json,1022335,1753519,47,Woman
119,231325,DepthScenes,duration_manipulation_targetAtFixation,jsons/v1_VE1000_randls_60_rotated.json,http://54.235.29.9/FacialAge/BNav_EC2/DepthDuration/v2_depth_duration_MTurk/v2_DepthDuration_HTML.html#328,328,1366,768,1366,768,8-30-2022,10-18-2,120,depth_duration_stimuli/000787_2014-06-08_22-33-53_260595134347_rgbf000175-resize_1/000787_2014-06-08_22-33-53_260595134347_rgbf000175-resize-original.jpg,1000,4.784,0,3640,1000,feet,jsons/v1_VE1000_randls_60_rotated.json,1022335,1753519,47,Woman
120,231325,DepthScenes,duration_manipulation_targetAtFixation,jsons/v1_VE1000_randls_60_rotated.json,http://54.235.29.9/FacialAge/BNav_EC2/DepthDuration/v2_depth_duration_MTurk/v2_DepthDuration_HTML.html#328,328,1366,768,1366,768,8-30-2022,10-18-2,121,depth_duration_stimuli/002545_2014-06-24_13-38-53_094959634447_rgbf000080-resize_4/002545_2014-06-24_13-38-53_094959634447_rgbf000080-resize_4-target.png,1000,1.9205,4,3171,999,feet,jsons/v1_VE1000_randls_60_rotated.json,1022335,1753519,47,Woman
121,231325,DepthScenes,duration_manipulation_targetAtFixation,jsons/v1_VE1000_randls_60_rotated.json,http://54.235.29.9/FacialAge/BNav_EC2/DepthDuration/v2_depth_duration_MTurk/v2_DepthDuration_HTML.html#328,328,1366,768,1366,768,8-30-2022,10-18-2,122,depth_duration_stimuli/001092_2014-06-15_17-34-58_260595134347_rgbf000171-resize_3/001092_2014-06-15_17-34-58_260595134347_rgbf000171-resize_3-target.png,1000,2.6935,4,2610,1000,feet,jsons/v1_VE1000_randls_60_rotated.json,1022335,1753519,47,Woman
122,231325,DepthScenes,duration_manipulation_targetAtFixation,jsons/v1_VE1000_randls_60_rotated.json,http://54.235.29.9/FacialAge/BNav_EC2/DepthDuration/v2_depth_duration_MTurk/v2_DepthDuration_HTML.html#328,328,1366,768,1366,768,8-30-2022,10-18-2,123,depth_duration_stimuli/003079_2014-06-15_15-18-20_094959634447_rgbf000152-resize_8/003079_2014-06-15_15-18-20_094959634447_rgbf000152-resize_8-target.png,1000,2.8775,4,3226,998,feet,jsons/v1_VE1000_randls_60_rotated.json,1022335,1753519,47,Woman
123,231325,DepthScenes,duration_manipulation_targetAtFixation,jsons/v1_VE1000_randls_60_rotated.json,http://54.235.29.9/FacialAge/BNav_EC2/DepthDuration/v2_depth_duration_MTurk/v2_DepthDuration_HTML.html#328,328,1366,768,1366,768,8-30-2022,10-18-2,124,depth_duration_stimuli/000506_2014-06-08_23-21-00_260595134347_rgbf000070-resize_7/000506_2014-06-08_23-21-00_260595134347_rgbf000070-resize_7-target.png,1000,4.0585,5,2763,999,feet,jsons/v1_VE1000_randls_60_rotated.json,1022335,1753519,47,Woman
124,231325,DepthScenes,duration_manipulation_targetAtFixation,jsons/v1_VE1000_randls_60_rotated.json,http://54.235.29.9/FacialAge/BNav_EC2/DepthDuration/v2_depth_duration_MTurk/v2_DepthDuration_HTML.html#328,328,1366,768,1366,768,8-30-2022,10-18-2,125,depth_duration_stimuli/003228_2014-05-14_13-42-35_094959634447_rgbf000101-resize_1/003228_2014-05-14_13-42-35_094959634447_rgbf000101-resize_1-target.png,1000,1.9680000000000002,5,2738,999,feet,jsons/v1_VE1000_randls_60_rotated.json,1022335,1753519,47,Woman
125,231325,DepthScenes,duration_manipulation_targetAtFixation,jsons/v1_VE1000_randls_60_rotated.json,http://54.235.29.9/FacialAge/BNav_EC2/DepthDuration/v2_depth_duration_MTurk/v2_DepthDuration_HTML.html#328,328,1366,768,1366,768,8-30-2022,10-18-2,126,depth_duration_stimuli/002600_2014-06-24_14-27-04_094959634447_rgbf000074-resize_2/002600_2014-06-24_14-27-04_094959634447_rgbf000074-resize_2-target.png,1000,2.7575,5,2777,998,feet,jsons/v1_VE1000_randls_60_rotated.json,1022335,1753519,47,Woman
126,231325,DepthScenes,duration_manipulation_targetAtFixation,jsons/v1_VE1000_randls_60_rotated.json,http://54.235.29.9/FacialAge/BNav_EC2/DepthDuration/v2_depth_duration_MTurk/v2_DepthDuration_HTML.html#328,328,1366,768,1366,768,8-30-2022,10-18-2,127,depth_duration_stimuli/001447_2014-06-19_17-00-32_260595134347_rgbf000082-resize_5/001447_2014-06-19_17-00-32_260595134347_rgbf000082-resize_5-target.png,1000,4.13775,5,2722,997,feet,jsons/v1_VE1000_randls_60_rotated.json,1022335,1753519,47,Woman
127,231325,DepthScenes,duration_manipulation_targetAtFixation,jsons/v1_VE1000_randls_60_rotated.json,http://54.235.29.9/FacialAge/BNav_EC2/DepthDuration/v2_depth_duration_MTurk/v2_DepthDuration_HTML.html#328,328,1366,768,1366,768,8-30-2022,10-18-2,128,depth_duration_stimuli/000447_2014-06-08_16-15-46_260595134347_rgbf000130-resize_1/000447_2014-06-08_16-15-46_260595134347_rgbf000130-resize_1-target.png,1000,4.479,4,2938,999,feet,jsons/v1_VE1000_randls_60_rotated.json,1022335,1753519,47,Woman
128,231325,DepthScenes,duration_manipulation_targetAtFixation,jsons/v1_VE1000_randls_60_rotated.json,http://54.235.29.9/FacialAge/BNav_EC2/DepthDuration/v2_depth_duration_MTurk/v2_DepthDuration_HTML.html#328,328,1366,768,1366,768,8-30-2022,10-18-2,129,depth_duration_stimuli/002425_2014-06-28_20-27-29_260595134347_rgbf000031-resize_8/002425_2014-06-28_20-27-29_260595134347_rgbf000031-resize_8-target.png,1000,3.8960000000000004,4,4341,1000,feet,jsons/v1_VE1000_randls_60_rotated.json,1022335,1753519,47,Woman
129,231325,DepthScenes,duration_manipulation_targetAtFixation,jsons/v1_VE1000_randls_60_rotated.json,http://54.235.29.9/FacialAge/BNav_EC2/DepthDuration/v2_depth_duration_MTurk/v2_DepthDuration_HTML.html#328,328,1366,768,1366,768,8-30-2022,10-18-2,130,depth_duration_stimuli/000642_2014-06-08_16-59-25_260595134347_rgbf000098-resize_2/000642_2014-06-08_16-59-25_260595134347_rgbf000098-resize_2-target.png,1000,2.8815,4,2688,999,feet,jsons/v1_VE1000_randls_60_rotated.json,1022335,1753519,47,Woman
130,231325,DepthScenes,duration_manipulation_targetAtFixation,jsons/v1_VE1000_randls_60_rotated.json,http://54.235.29.9/FacialAge/BNav_EC2/DepthDuration/v2_depth_duration_MTurk/v2_DepthDuration_HTML.html#328,328,1366,768,1366,768,8-30-2022,10-18-2,131,depth_duration_stimuli/002875_2014-06-01_15-19-00_094959634447_rgbf000151-resize_1/002875_2014-06-01_15-19-00_094959634447_rgbf000151-resize_1-target.png,1000,1.9675,5,2850,999,feet,jsons/v1_VE1000_randls_60_rotated.json,1022335,1753519,47,Woman
131,231325,DepthScenes,duration_manipulation_targetAtFixation,jsons/v1_VE1000_randls_60_rotated.json,http://54.235.29.9/FacialAge/BNav_EC2/DepthDuration/v2_depth_duration_MTurk/v2_DepthDuration_HTML.html#328,328,1366,768,1366,768,8-30-2022,10-18-2,132,depth_duration_stimuli/001011_2014-06-08_23-18-54_260595134347_rgbf000044-resize_4/001011_2014-06-08_23-18-54_260595134347_rgbf000044-resize_4-target.png,1000,2.4730000000000003,4,4268,999,feet,jsons/v1_VE1000_randls_60_rotated.json,1022335,1753519,47,Woman
132,231325,DepthScenes,duration_manipulation_targetAtFixation,jsons/v1_VE1000_randls_60_rotated.json,http://54.235.29.9/FacialAge/BNav_EC2/DepthDuration/v2_depth_duration_MTurk/v2_DepthDuration_HTML.html#328,328,1366,768,1366,768,8-30-2022,10-18-2,133,depth_duration_stimuli/002568_2014-06-24_13-59-21_094959634447_rgbf000062-resize_4/002568_2014-06-24_13-59-21_094959634447_rgbf000062-resize_4-target.png,1000,3.015,3,3001,1000,feet,jsons/v1_VE1000_randls_60_rotated.json,1022335,1753519,47,Woman
133,231325,DepthScenes,duration_manipulation_targetAtFixation,jsons/v1_VE1000_randls_60_rotated.json,http://54.235.29.9/FacialAge/BNav_EC2/DepthDuration/v2_depth_duration_MTurk/v2_DepthDuration_HTML.html#328,328,1366,768,1366,768,8-30-2022,10-18-2,134,depth_duration_stimuli/003492_2014-05-21_15-50-55_094959634447_rgbf000828-resize_1/003492_2014-05-21_15-50-55_094959634447_rgbf000828-resize_1-target.png,1000,4.06875,4,3154,1000,feet,jsons/v1_VE1000_randls_60_rotated.json,1022335,1753519,47,Woman
134,231325,DepthScenes,duration_manipulation_targetAtFixation,jsons/v1_VE1000_randls_60_rotated.json,http://54.235.29.9/FacialAge/BNav_EC2/DepthDuration/v2_depth_duration_MTurk/v2_DepthDuration_HTML.html#328,328,1366,768,1366,768,8-30-2022,10-18-2,135,depth_duration_stimuli/000375_2014-06-08_11-17-29_260595134347_rgbf000133-resize_2/000375_2014-06-08_11-17-29_260595134347_rgbf000133-resize-original.jpg,1000,4.718,0,3795,1000,feet,jsons/v1_VE1000_randls_60_rotated.json,1022335,1753519,47,Woman
135,231325,DepthScenes,duration_manipulation_targetAtFixation,jsons/v1_VE1000_randls_60_rotated.json,http://54.235.29.9/FacialAge/BNav_EC2/DepthDuration/v2_depth_duration_MTurk/v2_DepthDuration_HTML.html#328,328,1366,768,1366,768,8-30-2022,10-18-2,136,depth_duration_stimuli/002199_2014-06-28_18-33-56_260595134347_rgbf000074-resize_0/002199_2014-06-28_18-33-56_260595134347_rgbf000074-resize_0-target.png,1000,1.996,4,3172,998,feet,jsons/v1_VE1000_randls_60_rotated.json,1022335,1753519,47,Woman
136,231325,DepthScenes,duration_manipulation_targetAtFixation,jsons/v1_VE1000_randls_60_rotated.json,http://54.235.29.9/FacialAge/BNav_EC2/DepthDuration/v2_depth_duration_MTurk/v2_DepthDuration_HTML.html#328,328,1366,768,1366,768,8-30-2022,10-18-2,137,depth_duration_stimuli/001056_2014-06-08_18-46-44_260595134347_rgbf000068-resize_0/001056_2014-06-08_18-46-44_260595134347_rgbf000068-resize_0-target.png,1000,2.6625,5,3217,1000,feet,jsons/v1_VE1000_randls_60_rotated.json,1022335,1753519,47,Woman
137,231325,DepthScenes,duration_manipulation_targetAtFixation,jsons/v1_VE1000_randls_60_rotated.json,http://54.235.29.9/FacialAge/BNav_EC2/DepthDuration/v2_depth_duration_MTurk/v2_DepthDuration_HTML.html#328,328,1366,768,1366,768,8-30-2022,10-18-2,138,depth_duration_stimuli/000866_2014-06-09_20-45-42_260595134347_rgbf000139-resize_1/000866_2014-06-09_20-45-42_260595134347_rgbf000139-resize_1-target.png,1000,3.2155,4,2722,999,feet,jsons/v1_VE1000_randls_60_rotated.json,1022335,1753519,47,Woman
138,231325,DepthScenes,duration_manipulation_targetAtFixation,jsons/v1_VE1000_randls_60_rotated.json,http://54.235.29.9/FacialAge/BNav_EC2/DepthDuration/v2_depth_duration_MTurk/v2_DepthDuration_HTML.html#328,328,1366,768,1366,768,8-30-2022,10-18-2,139,depth_duration_stimuli/002989_2014-06-15_12-25-03_094959634447_rgbf000150-resize_3/002989_2014-06-15_12-25-03_094959634447_rgbf000150-resize_3-target.png,1000,4.1975,4,2667,1000,feet,jsons/v1_VE1000_randls_60_rotated.json,1022335,1753519,47,Woman
139,231325,DepthScenes,duration_manipulation_targetAtFixation,jsons/v1_VE1000_randls_60_rotated.json,http://54.235.29.9/FacialAge/BNav_EC2/DepthDuration/v2_depth_duration_MTurk/v2_DepthDuration_HTML.html#328,328,1366,768,1366,768,8-30-2022,10-18-2,140,depth_duration_stimuli/003587_2014-05-23_16-48-02_094959634447_rgbf002384-resize_2/003587_2014-05-23_16-48-02_094959634447_rgbf002384-resize_2-target.png,1000,1.357,5,3169,999,feet,jsons/v1_VE1000_randls_60_rotated.json,1022335,1753519,47,Woman
140,231325,DepthScenes,duration_manipulation_targetAtFixation,jsons/v1_VE1000_randls_60_rotated.json,http://54.235.29.9/FacialAge/BNav_EC2/DepthDuration/v2_depth_duration_MTurk/v2_DepthDuration_HTML.html#328,328,1366,768,1366,768,8-30-2022,10-18-2,141,depth_duration_stimuli/001167_2014-06-17_15-38-07_260595134347_rgbf000108-resize_0/001167_2014-06-17_15-38-07_260595134347_rgbf000108-resize_0-target.png,1000,1.8505,4,2754,1000,feet,jsons/v1_VE1000_randls_60_rotated.json,1022335,1753519,47,Woman
141,231325,DepthScenes,duration_manipulation_targetAtFixation,jsons/v1_VE1000_randls_60_rotated.json,http://54.235.29.9/FacialAge/BNav_EC2/DepthDuration/v2_depth_duration_MTurk/v2_DepthDuration_HTML.html#328,328,1366,768,1366,768,8-30-2022,10-18-2,142,depth_duration_stimuli/002103_2014-06-25_20-00-40_260595134347_rgbf000049-resize_0/002103_2014-06-25_20-00-40_260595134347_rgbf000049-resize_0-target.png,1000,4.105,4,2650,998,feet,jsons/v1_VE1000_randls_60_rotated.json,1022335,1753519,47,Woman
142,231325,DepthScenes,duration_manipulation_targetAtFixation,jsons/v1_VE1000_randls_60_rotated.json,http://54.235.29.9/FacialAge/BNav_EC2/DepthDuration/v2_depth_duration_MTurk/v2_DepthDuration_HTML.html#328,328,1366,768,1366,768,8-30-2022,10-18-2,143,depth_duration_stimuli/002039_2014-06-24_20-22-38_260595134347_rgbf000084-resize_1/002039_2014-06-24_20-22-38_260595134347_rgbf000084-resize_1-target.png,1000,4.408,3,2794,999,feet,jsons/v1_VE1000_randls_60_rotated.json,1022335,1753519,47,Woman
143,231325,DepthScenes,duration_manipulation_targetAtFixation,jsons/v1_VE1000_randls_60_rotated.json,http://54.235.29.9/FacialAge/BNav_EC2/DepthDuration/v2_depth_duration_MTurk/v2_DepthDuration_HTML.html#328,328,1366,768,1366,768,8-30-2022,10-18-2,144,depth_duration_stimuli/000780_2014-06-08_22-28-29_260595134347_rgbf000126-resize_1/000780_2014-06-08_22-28-29_260595134347_rgbf000126-resize_1-target.png,1000,3.3825,4,2866,1000,feet,jsons/v1_VE1000_randls_60_rotated.json,1022335,1753519,47,Woman
144,231325,DepthScenes,duration_manipulation_targetAtFixation,jsons/v1_VE1000_randls_60_rotated.json,http://54.235.29.9/FacialAge/BNav_EC2/DepthDuration/v2_depth_duration_MTurk/v2_DepthDuration_HTML.html#328,328,1366,768,1366,768,8-30-2022,10-18-2,145,depth_duration_stimuli/002445_2014-06-28_20-32-16_260595134347_rgbf000029-resize_4/002445_2014-06-28_20-32-16_260595134347_rgbf000029-resize_4-target.png,1000,2.5315,3,2723,999,feet,jsons/v1_VE1000_randls_60_rotated.json,1022335,1753519,47,Woman
145,231325,DepthScenes,duration_manipulation_targetAtFixation,jsons/v1_VE1000_randls_60_rotated.json,http://54.235.29.9/FacialAge/BNav_EC2/DepthDuration/v2_depth_duration_MTurk/v2_DepthDuration_HTML.html#328,328,1366,768,1366,768,8-30-2022,10-18-2,146,depth_duration_stimuli/000665_2014-06-09_20-42-35_260595134347_rgbf000110-resize_1/000665_2014-06-09_20-42-35_260595134347_rgbf000110-resize_1-target.png,1000,3.057,4,2618,1000,feet,jsons/v1_VE1000_randls_60_rotated.json,1022335,1753519,47,Woman
146,231325,DepthScenes,duration_manipulation_targetAtFixation,jsons/v1_VE1000_randls_60_rotated.json,http://54.235.29.9/FacialAge/BNav_EC2/DepthDuration/v2_depth_duration_MTurk/v2_DepthDuration_HTML.html#328,328,1366,768,1366,768,8-30-2022,10-18-2,147,depth_duration_stimuli/001150_2014-06-17_15-27-34_260595134347_rgbf000108-resize_2/001150_2014-06-17_15-27-34_260595134347_rgbf000108-resize_2-target.png,1000,4.0325,3,2627,999,feet,jsons/v1_VE1000_randls_60_rotated.json,1022335,1753519,47,Woman
147,231325,DepthScenes,duration_manipulation_targetAtFixation,jsons/v1_VE1000_randls_60_rotated.json,http://54.235.29.9/FacialAge/BNav_EC2/DepthDuration/v2_depth_duration_MTurk/v2_DepthDuration_HTML.html#328,328,1366,768,1366,768,8-30-2022,10-18-2,148,depth_duration_stimuli/000734_2014-06-08_17-39-11_260595134347_rgbf000128-resize_2/000734_2014-06-08_17-39-11_260595134347_rgbf000128-resize_2-target.png,1000,4.098,4,2690,999,feet,jsons/v1_VE1000_randls_60_rotated.json,1022335,1753519,47,Woman
148,231325,DepthScenes,duration_manipulation_targetAtFixation,jsons/v1_VE1000_randls_60_rotated.json,http://54.235.29.9/FacialAge/BNav_EC2/DepthDuration/v2_depth_duration_MTurk/v2_DepthDuration_HTML.html#328,328,1366,768,1366,768,8-30-2022,10-18-2,149,depth_duration_stimuli/000739_2014-06-08_18-45-58_260595134347_rgbf000068-resize_1/000739_2014-06-08_18-45-58_260595134347_rgbf000068-resize_1-target.png,1000,3.534,3,2810,999,feet,jsons/v1_VE1000_randls_60_rotated.json,1022335,1753519,47,Woman
149,231325,DepthScenes,duration_manipulation_targetAtFixation,jsons/v1_VE1000_randls_60_rotated.json,http://54.235.29.9/FacialAge/BNav_EC2/DepthDuration/v2_depth_duration_MTurk/v2_DepthDuration_HTML.html#328,328,1366,768,1366,768,8-30-2022,10-18-2,150,depth_duration_stimuli/000502_2014-06-08_23-02-32_260595134347_rgbf000063-resize_4/000502_2014-06-08_23-02-32_260595134347_rgbf000063-resize_4-target.png,1000,2.431,4,3652,999,feet,jsons/v1_VE1000_randls_60_rotated.json,1022335,1753519,47,Woman
150,231325,DepthScenes,duration_manipulation_targetAtFixation,jsons/v1_VE1000_randls_60_rotated.json,http://54.235.29.9/FacialAge/BNav_EC2/DepthDuration/v2_depth_duration_MTurk/v2_DepthDuration_HTML.html#328,328,1366,768,1366,768,8-30-2022,10-18-2,151,depth_duration_stimuli/001199_2014-06-17_16-03-48_260595134347_rgbf000077-resize_0/001199_2014-06-17_16-03-48_260595134347_rgbf000077-resize_0-target.png,1000,3.4375,4,2624,999,feet,jsons/v1_VE1000_randls_60_rotated.json,1022335,1753519,47,Woman
151,231325,DepthScenes,duration_manipulation_targetAtFixation,jsons/v1_VE1000_randls_60_rotated.json,http://54.235.29.9/FacialAge/BNav_EC2/DepthDuration/v2_depth_duration_MTurk/v2_DepthDuration_HTML.html#328,328,1366,768,1366,768,8-30-2022,10-18-2,152,depth_duration_stimuli/000569_2014-06-09_22-51-47_260595134347_rgbf000141-resize_3/000569_2014-06-09_22-51-47_260595134347_rgbf000141-resize-original.jpg,1000,4.512,0,3722,1000,feet,jsons/v1_VE1000_randls_60_rotated.json,1022335,1753519,47,Woman
152,231325,DepthScenes,duration_manipulation_targetAtFixation,jsons/v1_VE1000_randls_60_rotated.json,http://54.235.29.9/FacialAge/BNav_EC2/DepthDuration/v2_depth_duration_MTurk/v2_DepthDuration_HTML.html#328,328,1366,768,1366,768,8-30-2022,10-18-2,153,depth_duration_stimuli/002750_2014-06-22_19-08-03_094959634447_rgbf000094-resize_4/002750_2014-06-22_19-08-03_094959634447_rgbf000094-resize_4-target.png,1000,2.354,4,2683,1000,feet,jsons/v1_VE1000_randls_60_rotated.json,1022335,1753519,47,Woman
153,231325,DepthScenes,duration_manipulation_targetAtFixation,jsons/v1_VE1000_randls_60_rotated.json,http://54.235.29.9/FacialAge/BNav_EC2/DepthDuration/v2_depth_duration_MTurk/v2_DepthDuration_HTML.html#328,328,1366,768,1366,768,8-30-2022,10-18-2,154,depth_duration_stimuli/002549_2014-06-24_13-41-39_094959634447_rgbf000022-resize_3/002549_2014-06-24_13-41-39_094959634447_rgbf000022-resize_3-target.png,1000,1.476,3,2722,999,feet,jsons/v1_VE1000_randls_60_rotated.json,1022335,1753519,47,Woman
154,231325,DepthScenes,duration_manipulation_targetAtFixation,jsons/v1_VE1000_randls_60_rotated.json,http://54.235.29.9/FacialAge/BNav_EC2/DepthDuration/v2_depth_duration_MTurk/v2_DepthDuration_HTML.html#328,328,1366,768,1366,768,8-30-2022,10-18-2,155,depth_duration_stimuli/000556_2014-06-09_22-42-56_260595134347_rgbf000214-resize_1/000556_2014-06-09_22-42-56_260595134347_rgbf000214-resize_1-target.png,1000,4.8415,4,3220,999,feet,jsons/v1_VE1000_randls_60_rotated.json,1022335,1753519,47,Woman
155,231325,DepthScenes,duration_manipulation_targetAtFixation,jsons/v1_VE1000_randls_60_rotated.json,http://54.235.29.9/FacialAge/BNav_EC2/DepthDuration/v2_depth_duration_MTurk/v2_DepthDuration_HTML.html#328,328,1366,768,1366,768,8-30-2022,10-18-2,156,depth_duration_stimuli/001158_2014-06-17_15-32-16_260595134347_rgbf000138-resize_2/001158_2014-06-17_15-32-16_260595134347_rgbf000138-resize_2-target.png,1000,4.5315,5,2704,999,feet,jsons/v1_VE1000_randls_60_rotated.json,1022335,1753519,47,Woman
156,231325,DepthScenes,duration_manipulation_targetAtFixation,jsons/v1_VE1000_randls_60_rotated.json,http://54.235.29.9/FacialAge/BNav_EC2/DepthDuration/v2_depth_duration_MTurk/v2_DepthDuration_HTML.html#328,328,1366,768,1366,768,8-30-2022,10-18-2,157,depth_duration_stimuli/002637_2014-06-24_14-51-13_094959634447_rgbf000066-resize_4/002637_2014-06-24_14-51-13_094959634447_rgbf000066-resize_4-target.png,1000,1.9955,5,2716,999,feet,jsons/v1_VE1000_randls_60_rotated.json,1022335,1753519,47,Woman
157,231325,DepthScenes,duration_manipulation_targetAtFixation,jsons/v1_VE1000_randls_60_rotated.json,http://54.235.29.9/FacialAge/BNav_EC2/DepthDuration/v2_depth_duration_MTurk/v2_DepthDuration_HTML.html#328,328,1366,768,1366,768,8-30-2022,10-18-2,158,depth_duration_stimuli/003534_2014-05-22_15-06-10_094959634447_rgbf000102-resize_4/003534_2014-05-22_15-06-10_094959634447_rgbf000102-resize_4-target.png,1000,1.426,4,3088,998,feet,jsons/v1_VE1000_randls_60_rotated.json,1022335,1753519,47,Woman
158,231325,DepthScenes,duration_manipulation_targetAtFixation,jsons/v1_VE1000_randls_60_rotated.json,http://54.235.29.9/FacialAge/BNav_EC2/DepthDuration/v2_depth_duration_MTurk/v2_DepthDuration_HTML.html#328,328,1366,768,1366,768,8-30-2022,10-18-2,159,depth_duration_stimuli/002209_2014-06-28_18-36-10_260595134347_rgbf000051-resize_1/002209_2014-06-28_18-36-10_260595134347_rgbf000051-resize_1-target.png,1000,2.057,5,2890,999,feet,jsons/v1_VE1000_randls_60_rotated.json,1022335,1753519,47,Woman
159,231325,DepthScenes,duration_manipulation_targetAtFixation,jsons/v1_VE1000_randls_60_rotated.json,http://54.235.29.9/FacialAge/BNav_EC2/DepthDuration/v2_depth_duration_MTurk/v2_DepthDuration_HTML.html#328,328,1366,768,1366,768,8-30-2022,10-18-2,160,depth_duration_stimuli/002763_2014-06-22_19-13-10_094959634447_rgbf000075-resize_4/002763_2014-06-22_19-13-10_094959634447_rgbf000075-resize_4-target.png,1000,1.68375,5,2618,1000,feet,jsons/v1_VE1000_randls_60_rotated.json,1022335,1753519,47,Woman
160,231325,DepthScenes,duration_manipulation_targetAtFixation,jsons/v1_VE1000_randls_60_rotated.json,http://54.235.29.9/FacialAge/BNav_EC2/DepthDuration/v2_depth_duration_MTurk/v2_DepthDuration_HTML.html#328,328,1366,768,1366,768,8-30-2022,10-18-2,161,depth_duration_stimuli/002995_2014-06-15_12-31-26_094959634447_rgbf000150-resize_1/002995_2014-06-15_12-31-26_094959634447_rgbf000150-resize_1-target.png,1000,3.8360000000000003,4,2579,999,feet,jsons/v1_VE1000_randls_60_rotated.json,1022335,1753519,47,Woman
161,231325,DepthScenes,duration_manipulation_targetAtFixation,jsons/v1_VE1000_randls_60_rotated.json,http://54.235.29.9/FacialAge/BNav_EC2/DepthDuration/v2_depth_duration_MTurk/v2_DepthDuration_HTML.html#328,328,1366,768,1366,768,8-30-2022,10-18-2,162,depth_duration_stimuli/002748_2014-06-22_19-07-22_094959634447_rgbf000078-resize_1/002748_2014-06-22_19-07-22_094959634447_rgbf000078-resize_1-target.png,1000,4.6705,5,2794,999,feet,jsons/v1_VE1000_randls_60_rotated.json,1022335,1753519,47,Woman
162,231325,DepthScenes,duration_manipulation_targetAtFixation,jsons/v1_VE1000_randls_60_rotated.json,http://54.235.29.9/FacialAge/BNav_EC2/DepthDuration/v2_depth_duration_MTurk/v2_DepthDuration_HTML.html#328,328,1366,768,1366,768,8-30-2022,10-18-2,163,depth_duration_stimuli/000457_2014-06-08_16-52-43_260595134347_rgbf000199-resize_1/000457_2014-06-08_16-52-43_260595134347_rgbf000199-resize_1-target.png,1000,3.6489999999999996,4,2563,999,feet,jsons/v1_VE1000_randls_60_rotated.json,1022335,1753519,47,Woman
163,231325,DepthScenes,duration_manipulation_targetAtFixation,jsons/v1_VE1000_randls_60_rotated.json,http://54.235.29.9/FacialAge/BNav_EC2/DepthDuration/v2_depth_duration_MTurk/v2_DepthDuration_HTML.html#328,328,1366,768,1366,768,8-30-2022,10-18-2,164,depth_duration_stimuli/000929_2014-06-09_16-33-19_260595134347_rgbf000139-resize_0/000929_2014-06-09_16-33-19_260595134347_rgbf000139-resize_0-target.png,1000,2.8680000000000003,5,2674,999,feet,jsons/v1_VE1000_randls_60_rotated.json,1022335,1753519,47,Woman
