,subjID,experimentName,versionName,sequenceName,url,selected_row,windowWidth,windowHeight,screenWidth,screenHeight,startDate,startTime,trial,stimulus,duration,actual_depth,depth_estimate,trial_RT,log_sceneDuration,unitSelection,seq_filepath,experimentTime,totalTime,age,gender
0,233432,DepthScenes,duration_manipulation_targetAtFixation,jsons/v1_VE250_randls_0.json,http://54.235.29.9/FacialAge/BNav_EC2/DepthDuration/v2_depth_duration_MTurk/v2_DepthDuration_HTML.html#325,325,1366,625,1366,768,9-3-2022,9-28-37,1,depth_duration_stimuli/001133_2014-06-17_14-49-16_260595134347_rgbf000100-resize_0/001133_2014-06-17_14-49-16_260595134347_rgbf000100-resize_0-target.png,250,4.2115,3,3133,245,meters,jsons/v1_VE250_randls_0.json,939287,1894172,40,Woman
1,233432,DepthScenes,duration_manipulation_targetAtFixation,jsons/v1_VE250_randls_0.json,http://54.235.29.9/FacialAge/BNav_EC2/DepthDuration/v2_depth_duration_MTurk/v2_DepthDuration_HTML.html#325,325,1366,625,1366,768,9-3-2022,9-28-37,2,depth_duration_stimuli/001132_2014-06-17_14-48-54_260595134347_rgbf000100-resize_2/001132_2014-06-17_14-48-54_260595134347_rgbf000100-resize_2-target.png,250,3.753,3,3377,255,meters,jsons/v1_VE250_randls_0.json,939287,1894172,40,Woman
2,233432,DepthScenes,duration_manipulation_targetAtFixation,jsons/v1_VE250_randls_0.json,http://54.235.29.9/FacialAge/BNav_EC2/DepthDuration/v2_depth_duration_MTurk/v2_DepthDuration_HTML.html#325,325,1366,625,1366,768,9-3-2022,9-28-37,3,depth_duration_stimuli/003070_2014-06-15_14-58-27_094959634447_rgbf000150-resize_3/003070_2014-06-15_14-58-27_094959634447_rgbf000150-resize_3-target.png,250,2.9415,2,2422,255,meters,jsons/v1_VE250_randls_0.json,939287,1894172,40,Woman
3,233432,DepthScenes,duration_manipulation_targetAtFixation,jsons/v1_VE250_randls_0.json,http://54.235.29.9/FacialAge/BNav_EC2/DepthDuration/v2_depth_duration_MTurk/v2_DepthDuration_HTML.html#325,325,1366,625,1366,768,9-3-2022,9-28-37,4,depth_duration_stimuli/000943_2014-06-09_19-31-07_260595134347_rgbf000128-resize_1/000943_2014-06-09_19-31-07_260595134347_rgbf000128-resize_1-target.png,250,1.9765,5,2549,258,meters,jsons/v1_VE250_randls_0.json,939287,1894172,40,Woman
4,233432,DepthScenes,duration_manipulation_targetAtFixation,jsons/v1_VE250_randls_0.json,http://54.235.29.9/FacialAge/BNav_EC2/DepthDuration/v2_depth_duration_MTurk/v2_DepthDuration_HTML.html#325,325,1366,625,1366,768,9-3-2022,9-28-37,5,depth_duration_stimuli/002964_2014-06-08_17-46-11_094959634447_rgbf000091-resize_4/002964_2014-06-08_17-46-11_094959634447_rgbf000091-resize_4-target.png,250,1.6909999999999998,2,3238,250,meters,jsons/v1_VE250_randls_0.json,939287,1894172,40,Woman
5,233432,DepthScenes,duration_manipulation_targetAtFixation,jsons/v1_VE250_randls_0.json,http://54.235.29.9/FacialAge/BNav_EC2/DepthDuration/v2_depth_duration_MTurk/v2_DepthDuration_HTML.html#325,325,1366,625,1366,768,9-3-2022,9-28-37,6,depth_duration_stimuli/002136_2014-06-25_21-18-03_260595134347_rgbf000109-resize_3/002136_2014-06-25_21-18-03_260595134347_rgbf000109-resize_3-target.png,250,1.9569999999999999,5,2505,251,meters,jsons/v1_VE250_randls_0.json,939287,1894172,40,Woman
6,233432,DepthScenes,duration_manipulation_targetAtFixation,jsons/v1_VE250_randls_0.json,http://54.235.29.9/FacialAge/BNav_EC2/DepthDuration/v2_depth_duration_MTurk/v2_DepthDuration_HTML.html#325,325,1366,625,1366,768,9-3-2022,9-28-37,7,depth_duration_stimuli/000917_2014-06-09_22-45-29_260595134347_rgbf000149-resize_3/000917_2014-06-09_22-45-29_260595134347_rgbf000149-resize_3-target.png,250,4.1865,1,2774,248,meters,jsons/v1_VE250_randls_0.json,939287,1894172,40,Woman
7,233432,DepthScenes,duration_manipulation_targetAtFixation,jsons/v1_VE250_randls_0.json,http://54.235.29.9/FacialAge/BNav_EC2/DepthDuration/v2_depth_duration_MTurk/v2_DepthDuration_HTML.html#325,325,1366,625,1366,768,9-3-2022,9-28-37,8,depth_duration_stimuli/002323_2014-06-28_20-01-54_260595134347_rgbf000051-resize_4/002323_2014-06-28_20-01-54_260595134347_rgbf000051-resize_4-target.png,250,3.7310000000000003,2,2780,247,meters,jsons/v1_VE250_randls_0.json,939287,1894172,40,Woman
8,233432,DepthScenes,duration_manipulation_targetAtFixation,jsons/v1_VE250_randls_0.json,http://54.235.29.9/FacialAge/BNav_EC2/DepthDuration/v2_depth_duration_MTurk/v2_DepthDuration_HTML.html#325,325,1366,625,1366,768,9-3-2022,9-28-37,9,depth_duration_stimuli/002570_2014-06-24_13-59-54_094959634447_rgbf000059-resize_0/002570_2014-06-24_13-59-54_094959634447_rgbf000059-resize_0-target.png,250,4.037,5,6947,243,meters,jsons/v1_VE250_randls_0.json,939287,1894172,40,Woman
9,233432,DepthScenes,duration_manipulation_targetAtFixation,jsons/v1_VE250_randls_0.json,http://54.235.29.9/FacialAge/BNav_EC2/DepthDuration/v2_depth_duration_MTurk/v2_DepthDuration_HTML.html#325,325,1366,625,1366,768,9-3-2022,9-28-37,10,depth_duration_stimuli/002467_2014-06-28_20-38-07_260595134347_rgbf000026-resize_2/002467_2014-06-28_20-38-07_260595134347_rgbf000026-resize_2-target.png,250,4.742,6,3531,243,meters,jsons/v1_VE250_randls_0.json,939287,1894172,40,Woman
10,233432,DepthScenes,duration_manipulation_targetAtFixation,jsons/v1_VE250_randls_0.json,http://54.235.29.9/FacialAge/BNav_EC2/DepthDuration/v2_depth_duration_MTurk/v2_DepthDuration_HTML.html#325,325,1366,625,1366,768,9-3-2022,9-28-37,11,depth_duration_stimuli/001449_2014-06-19_17-01-27_260595134347_rgbf000116-resize_2/001449_2014-06-19_17-01-27_260595134347_rgbf000116-resize_2-target.png,250,3.452,3,16110,247,meters,jsons/v1_VE250_randls_0.json,939287,1894172,40,Woman
11,233432,DepthScenes,duration_manipulation_targetAtFixation,jsons/v1_VE250_randls_0.json,http://54.235.29.9/FacialAge/BNav_EC2/DepthDuration/v2_depth_duration_MTurk/v2_DepthDuration_HTML.html#325,325,1366,625,1366,768,9-3-2022,9-28-37,12,depth_duration_stimuli/001450_2014-06-19_17-02-03_260595134347_rgbf000203-resize_4/001450_2014-06-19_17-02-03_260595134347_rgbf000203-resize_4-target.png,250,4.0106666666667,0,3069,250,meters,jsons/v1_VE250_randls_0.json,939287,1894172,40,Woman
12,233432,DepthScenes,duration_manipulation_targetAtFixation,jsons/v1_VE250_randls_0.json,http://54.235.29.9/FacialAge/BNav_EC2/DepthDuration/v2_depth_duration_MTurk/v2_DepthDuration_HTML.html#325,325,1366,625,1366,768,9-3-2022,9-28-37,13,depth_duration_stimuli/000569_2014-06-09_22-51-47_260595134347_rgbf000141-resize_3/000569_2014-06-09_22-51-47_260595134347_rgbf000141-resize-original.jpg,250,4.512,5,14177,250,meters,jsons/v1_VE250_randls_0.json,939287,1894172,40,Woman
13,233432,DepthScenes,duration_manipulation_targetAtFixation,jsons/v1_VE250_randls_0.json,http://54.235.29.9/FacialAge/BNav_EC2/DepthDuration/v2_depth_duration_MTurk/v2_DepthDuration_HTML.html#325,325,1366,625,1366,768,9-3-2022,9-28-37,14,depth_duration_stimuli/000736_2014-06-08_18-24-15_260595134347_rgbf000206-resize_3/000736_2014-06-08_18-24-15_260595134347_rgbf000206-resize_3-target.png,250,3.515,6,8901,254,meters,jsons/v1_VE250_randls_0.json,939287,1894172,40,Woman
14,233432,DepthScenes,duration_manipulation_targetAtFixation,jsons/v1_VE250_randls_0.json,http://54.235.29.9/FacialAge/BNav_EC2/DepthDuration/v2_depth_duration_MTurk/v2_DepthDuration_HTML.html#325,325,1366,625,1366,768,9-3-2022,9-28-37,15,depth_duration_stimuli/000137_2014-05-20_17-04-49_260595134347_rgbf000120-resize_1/000137_2014-05-20_17-04-49_260595134347_rgbf000120-resize_1-target.png,250,3.786,8,2788,253,meters,jsons/v1_VE250_randls_0.json,939287,1894172,40,Woman
15,233432,DepthScenes,duration_manipulation_targetAtFixation,jsons/v1_VE250_randls_0.json,http://54.235.29.9/FacialAge/BNav_EC2/DepthDuration/v2_depth_duration_MTurk/v2_DepthDuration_HTML.html#325,325,1366,625,1366,768,9-3-2022,9-28-37,16,depth_duration_stimuli/002509_2014-06-24_13-19-22_094959634447_rgbf000077-resize_0/002509_2014-06-24_13-19-22_094959634447_rgbf000077-resize_0-target.png,250,1.3065,6,4114,247,meters,jsons/v1_VE250_randls_0.json,939287,1894172,40,Woman
16,233432,DepthScenes,duration_manipulation_targetAtFixation,jsons/v1_VE250_randls_0.json,http://54.235.29.9/FacialAge/BNav_EC2/DepthDuration/v2_depth_duration_MTurk/v2_DepthDuration_HTML.html#325,325,1366,625,1366,768,9-3-2022,9-28-37,17,depth_duration_stimuli/003338_2014-05-20_11-01-23_094959634447_rgbf000051-resize_6/003338_2014-05-20_11-01-23_094959634447_rgbf000051-resize_6-target.png,250,1.693,4,2663,248,meters,jsons/v1_VE250_randls_0.json,939287,1894172,40,Woman
17,233432,DepthScenes,duration_manipulation_targetAtFixation,jsons/v1_VE250_randls_0.json,http://54.235.29.9/FacialAge/BNav_EC2/DepthDuration/v2_depth_duration_MTurk/v2_DepthDuration_HTML.html#325,325,1366,625,1366,768,9-3-2022,9-28-37,18,depth_duration_stimuli/000810_2014-06-08_17-20-01_260595134347_rgbf000105-resize_0/000810_2014-06-08_17-20-01_260595134347_rgbf000105-resize_0-target.png,250,1.4865,5,3116,247,meters,jsons/v1_VE250_randls_0.json,939287,1894172,40,Woman
18,233432,DepthScenes,duration_manipulation_targetAtFixation,jsons/v1_VE250_randls_0.json,http://54.235.29.9/FacialAge/BNav_EC2/DepthDuration/v2_depth_duration_MTurk/v2_DepthDuration_HTML.html#325,325,1366,625,1366,768,9-3-2022,9-28-37,19,depth_duration_stimuli/001214_2014-06-17_16-13-55_260595134347_rgbf000111-resize_0/001214_2014-06-17_16-13-55_260595134347_rgbf000111-resize_0-target.png,250,2.6505,6,3492,245,meters,jsons/v1_VE250_randls_0.json,939287,1894172,40,Woman
19,233432,DepthScenes,duration_manipulation_targetAtFixation,jsons/v1_VE250_randls_0.json,http://54.235.29.9/FacialAge/BNav_EC2/DepthDuration/v2_depth_duration_MTurk/v2_DepthDuration_HTML.html#325,325,1366,625,1366,768,9-3-2022,9-28-37,20,depth_duration_stimuli/000486_2014-06-09_20-47-20_260595134347_rgbf000143-resize_2/000486_2014-06-09_20-47-20_260595134347_rgbf000143-resize_2-target.png,250,4.8325,8,3244,257,meters,jsons/v1_VE250_randls_0.json,939287,1894172,40,Woman
20,233432,DepthScenes,duration_manipulation_targetAtFixation,jsons/v1_VE250_randls_0.json,http://54.235.29.9/FacialAge/BNav_EC2/DepthDuration/v2_depth_duration_MTurk/v2_DepthDuration_HTML.html#325,325,1366,625,1366,768,9-3-2022,9-28-37,21,depth_duration_stimuli/003083_2014-06-15_15-21-03_094959634447_rgbf000063-resize_1/003083_2014-06-15_15-21-03_094959634447_rgbf000063-resize_1-target.png,250,4.1405,7,5581,244,meters,jsons/v1_VE250_randls_0.json,939287,1894172,40,Woman
21,233432,DepthScenes,duration_manipulation_targetAtFixation,jsons/v1_VE250_randls_0.json,http://54.235.29.9/FacialAge/BNav_EC2/DepthDuration/v2_depth_duration_MTurk/v2_DepthDuration_HTML.html#325,325,1366,625,1366,768,9-3-2022,9-28-37,22,depth_duration_stimuli/002788_2014-06-22_19-36-03_094959634447_rgbf000088-resize_2/002788_2014-06-22_19-36-03_094959634447_rgbf000088-resize_2-target.png,250,1.6465,7,3791,250,meters,jsons/v1_VE250_randls_0.json,939287,1894172,40,Woman
22,233432,DepthScenes,duration_manipulation_targetAtFixation,jsons/v1_VE250_randls_0.json,http://54.235.29.9/FacialAge/BNav_EC2/DepthDuration/v2_depth_duration_MTurk/v2_DepthDuration_HTML.html#325,325,1366,625,1366,768,9-3-2022,9-28-37,23,depth_duration_stimuli/000749_2014-06-08_21-55-06_260595134347_rgbf000070-resize_2/000749_2014-06-08_21-55-06_260595134347_rgbf000070-resize_2-target.png,250,2.331,5,17356,259,meters,jsons/v1_VE250_randls_0.json,939287,1894172,40,Woman
23,233432,DepthScenes,duration_manipulation_targetAtFixation,jsons/v1_VE250_randls_0.json,http://54.235.29.9/FacialAge/BNav_EC2/DepthDuration/v2_depth_duration_MTurk/v2_DepthDuration_HTML.html#325,325,1366,625,1366,768,9-3-2022,9-28-37,24,depth_duration_stimuli/002763_2014-06-22_19-13-10_094959634447_rgbf000075-resize_4/002763_2014-06-22_19-13-10_094959634447_rgbf000075-resize_4-target.png,250,1.68375,5,11487,245,meters,jsons/v1_VE250_randls_0.json,939287,1894172,40,Woman
24,233432,DepthScenes,duration_manipulation_targetAtFixation,jsons/v1_VE250_randls_0.json,http://54.235.29.9/FacialAge/BNav_EC2/DepthDuration/v2_depth_duration_MTurk/v2_DepthDuration_HTML.html#325,325,1366,625,1366,768,9-3-2022,9-28-37,25,depth_duration_stimuli/002209_2014-06-28_18-36-10_260595134347_rgbf000051-resize_1/002209_2014-06-28_18-36-10_260595134347_rgbf000051-resize_1-target.png,250,2.057,6,3657,247,meters,jsons/v1_VE250_randls_0.json,939287,1894172,40,Woman
25,233432,DepthScenes,duration_manipulation_targetAtFixation,jsons/v1_VE250_randls_0.json,http://54.235.29.9/FacialAge/BNav_EC2/DepthDuration/v2_depth_duration_MTurk/v2_DepthDuration_HTML.html#325,325,1366,625,1366,768,9-3-2022,9-28-37,26,depth_duration_stimuli/001029_2014-06-08_13-17-57_260595134347_rgbf000065-resize_1/001029_2014-06-08_13-17-57_260595134347_rgbf000065-resize_1-target.png,250,3.0835,5,2745,253,meters,jsons/v1_VE250_randls_0.json,939287,1894172,40,Woman
26,233432,DepthScenes,duration_manipulation_targetAtFixation,jsons/v1_VE250_randls_0.json,http://54.235.29.9/FacialAge/BNav_EC2/DepthDuration/v2_depth_duration_MTurk/v2_DepthDuration_HTML.html#325,325,1366,625,1366,768,9-3-2022,9-28-37,27,depth_duration_stimuli/000677_2014-06-08_23-10-32_260595134347_rgbf000158-resize_6/000677_2014-06-08_23-10-32_260595134347_rgbf000158-resize_6-target.png,250,3.556,5,3481,242,meters,jsons/v1_VE250_randls_0.json,939287,1894172,40,Woman
27,233432,DepthScenes,duration_manipulation_targetAtFixation,jsons/v1_VE250_randls_0.json,http://54.235.29.9/FacialAge/BNav_EC2/DepthDuration/v2_depth_duration_MTurk/v2_DepthDuration_HTML.html#325,325,1366,625,1366,768,9-3-2022,9-28-37,28,depth_duration_stimuli/002663_2014-06-13_15-50-26_094959634447_rgbf000075-resize_1/002663_2014-06-13_15-50-26_094959634447_rgbf000075-resize_1-target.png,250,4.7495,5,2701,245,meters,jsons/v1_VE250_randls_0.json,939287,1894172,40,Woman
28,233432,DepthScenes,duration_manipulation_targetAtFixation,jsons/v1_VE250_randls_0.json,http://54.235.29.9/FacialAge/BNav_EC2/DepthDuration/v2_depth_duration_MTurk/v2_DepthDuration_HTML.html#325,325,1366,625,1366,768,9-3-2022,9-28-37,29,depth_duration_stimuli/000409_2014-06-04_19-23-33_260595134347_rgbf000067-resize_0/000409_2014-06-04_19-23-33_260595134347_rgbf000067-resize_0-target.png,250,3.7335,4,2993,218,meters,jsons/v1_VE250_randls_0.json,939287,1894172,40,Woman
29,233432,DepthScenes,duration_manipulation_targetAtFixation,jsons/v1_VE250_randls_0.json,http://54.235.29.9/FacialAge/BNav_EC2/DepthDuration/v2_depth_duration_MTurk/v2_DepthDuration_HTML.html#325,325,1366,625,1366,768,9-3-2022,9-28-37,30,depth_duration_stimuli/000375_2014-06-08_11-17-29_260595134347_rgbf000133-resize_2/000375_2014-06-08_11-17-29_260595134347_rgbf000133-resize-original.jpg,250,4.718,0,2458,247,meters,jsons/v1_VE250_randls_0.json,939287,1894172,40,Woman
30,233432,DepthScenes,duration_manipulation_targetAtFixation,jsons/v1_VE250_randls_0.json,http://54.235.29.9/FacialAge/BNav_EC2/DepthDuration/v2_depth_duration_MTurk/v2_DepthDuration_HTML.html#325,325,1366,625,1366,768,9-3-2022,9-28-37,31,depth_duration_stimuli/001806_2014-06-26_20-50-20_260595134347_rgbf000091-resize_1/001806_2014-06-26_20-50-20_260595134347_rgbf000091-resize_1-target.png,250,2.7305,6,3143,248,meters,jsons/v1_VE250_randls_0.json,939287,1894172,40,Woman
31,233432,DepthScenes,duration_manipulation_targetAtFixation,jsons/v1_VE250_randls_0.json,http://54.235.29.9/FacialAge/BNav_EC2/DepthDuration/v2_depth_duration_MTurk/v2_DepthDuration_HTML.html#325,325,1366,625,1366,768,9-3-2022,9-28-37,32,depth_duration_stimuli/001617_2014-06-20_11-35-32_260595134347_rgbf000066-resize_1/001617_2014-06-20_11-35-32_260595134347_rgbf000066-resize_1-target.png,250,3.7910000000000004,8,2570,256,meters,jsons/v1_VE250_randls_0.json,939287,1894172,40,Woman
32,233432,DepthScenes,duration_manipulation_targetAtFixation,jsons/v1_VE250_randls_0.json,http://54.235.29.9/FacialAge/BNav_EC2/DepthDuration/v2_depth_duration_MTurk/v2_DepthDuration_HTML.html#325,325,1366,625,1366,768,9-3-2022,9-28-37,33,depth_duration_stimuli/002272_2014-06-28_18-53-56_260595134347_rgbf000067-resize_2/002272_2014-06-28_18-53-56_260595134347_rgbf000067-resize_2-target.png,250,1.138,5,2481,254,meters,jsons/v1_VE250_randls_0.json,939287,1894172,40,Woman
33,233432,DepthScenes,duration_manipulation_targetAtFixation,jsons/v1_VE250_randls_0.json,http://54.235.29.9/FacialAge/BNav_EC2/DepthDuration/v2_depth_duration_MTurk/v2_DepthDuration_HTML.html#325,325,1366,625,1366,768,9-3-2022,9-28-37,34,depth_duration_stimuli/001571_2014-06-20_17-21-32_260595134347_rgbf000089-resize_1/001571_2014-06-20_17-21-32_260595134347_rgbf000089-resize_1-target.png,250,1.86,5,2451,251,meters,jsons/v1_VE250_randls_0.json,939287,1894172,40,Woman
34,233432,DepthScenes,duration_manipulation_targetAtFixation,jsons/v1_VE250_randls_0.json,http://54.235.29.9/FacialAge/BNav_EC2/DepthDuration/v2_depth_duration_MTurk/v2_DepthDuration_HTML.html#325,325,1366,625,1366,768,9-3-2022,9-28-37,35,depth_duration_stimuli/001056_2014-06-08_18-46-44_260595134347_rgbf000068-resize_0/001056_2014-06-08_18-46-44_260595134347_rgbf000068-resize_0-target.png,250,2.6625,6,3927,245,meters,jsons/v1_VE250_randls_0.json,939287,1894172,40,Woman
35,233432,DepthScenes,duration_manipulation_targetAtFixation,jsons/v1_VE250_randls_0.json,http://54.235.29.9/FacialAge/BNav_EC2/DepthDuration/v2_depth_duration_MTurk/v2_DepthDuration_HTML.html#325,325,1366,625,1366,768,9-3-2022,9-28-37,36,depth_duration_stimuli/002199_2014-06-28_18-33-56_260595134347_rgbf000074-resize_0/002199_2014-06-28_18-33-56_260595134347_rgbf000074-resize_0-target.png,250,1.996,5,4393,251,meters,jsons/v1_VE250_randls_0.json,939287,1894172,40,Woman
36,233432,DepthScenes,duration_manipulation_targetAtFixation,jsons/v1_VE250_randls_0.json,http://54.235.29.9/FacialAge/BNav_EC2/DepthDuration/v2_depth_duration_MTurk/v2_DepthDuration_HTML.html#325,325,1366,625,1366,768,9-3-2022,9-28-37,37,depth_duration_stimuli/000682_2014-06-08_23-14-58_260595134347_rgbf000041-resize_5/000682_2014-06-08_23-14-58_260595134347_rgbf000041-resize_5-target.png,250,2.7239999999999998,5,5783,254,meters,jsons/v1_VE250_randls_0.json,939287,1894172,40,Woman
37,233432,DepthScenes,duration_manipulation_targetAtFixation,jsons/v1_VE250_randls_0.json,http://54.235.29.9/FacialAge/BNav_EC2/DepthDuration/v2_depth_duration_MTurk/v2_DepthDuration_HTML.html#325,325,1366,625,1366,768,9-3-2022,9-28-37,38,depth_duration_stimuli/001650_2014-06-20_12-09-00_260595134347_rgbf000087-resize_3/001650_2014-06-20_12-09-00_260595134347_rgbf000087-resize_3-target.png,250,1.9505,6,2569,247,meters,jsons/v1_VE250_randls_0.json,939287,1894172,40,Woman
38,233432,DepthScenes,duration_manipulation_targetAtFixation,jsons/v1_VE250_randls_0.json,http://54.235.29.9/FacialAge/BNav_EC2/DepthDuration/v2_depth_duration_MTurk/v2_DepthDuration_HTML.html#325,325,1366,625,1366,768,9-3-2022,9-28-37,39,depth_duration_stimuli/000878_2014-06-08_22-52-45_260595134347_rgbf000045-resize_2/000878_2014-06-08_22-52-45_260595134347_rgbf000045-resize_2-target.png,250,2.092,8,2444,249,meters,jsons/v1_VE250_randls_0.json,939287,1894172,40,Woman
39,233432,DepthScenes,duration_manipulation_targetAtFixation,jsons/v1_VE250_randls_0.json,http://54.235.29.9/FacialAge/BNav_EC2/DepthDuration/v2_depth_duration_MTurk/v2_DepthDuration_HTML.html#325,325,1366,625,1366,768,9-3-2022,9-28-37,40,depth_duration_stimuli/002953_2014-06-08_17-32-18_094959634447_rgbf000059-resize_5/002953_2014-06-08_17-32-18_094959634447_rgbf000059-resize_5-target.png,250,1.551,7,2807,242,meters,jsons/v1_VE250_randls_0.json,939287,1894172,40,Woman
40,233432,DepthScenes,duration_manipulation_targetAtFixation,jsons/v1_VE250_randls_0.json,http://54.235.29.9/FacialAge/BNav_EC2/DepthDuration/v2_depth_duration_MTurk/v2_DepthDuration_HTML.html#325,325,1366,625,1366,768,9-3-2022,9-28-37,41,depth_duration_stimuli/001417_2014-06-19_16-25-36_260595134347_rgbf000115-resize_5/001417_2014-06-19_16-25-36_260595134347_rgbf000115-resize_5-target.png,250,4.6255,8,3137,248,meters,jsons/v1_VE250_randls_0.json,939287,1894172,40,Woman
41,233432,DepthScenes,duration_manipulation_targetAtFixation,jsons/v1_VE250_randls_0.json,http://54.235.29.9/FacialAge/BNav_EC2/DepthDuration/v2_depth_duration_MTurk/v2_DepthDuration_HTML.html#325,325,1366,625,1366,768,9-3-2022,9-28-37,42,depth_duration_stimuli/003081_2014-06-15_15-19-16_094959634447_rgbf000150-resize_1/003081_2014-06-15_15-19-16_094959634447_rgbf000150-resize_1-target.png,250,3.9125,6,2706,252,meters,jsons/v1_VE250_randls_0.json,939287,1894172,40,Woman
42,233432,DepthScenes,duration_manipulation_targetAtFixation,jsons/v1_VE250_randls_0.json,http://54.235.29.9/FacialAge/BNav_EC2/DepthDuration/v2_depth_duration_MTurk/v2_DepthDuration_HTML.html#325,325,1366,625,1366,768,9-3-2022,9-28-37,43,depth_duration_stimuli/001167_2014-06-17_15-38-07_260595134347_rgbf000108-resize_0/001167_2014-06-17_15-38-07_260595134347_rgbf000108-resize_0-target.png,250,1.8505,9,3235,245,meters,jsons/v1_VE250_randls_0.json,939287,1894172,40,Woman
43,233432,DepthScenes,duration_manipulation_targetAtFixation,jsons/v1_VE250_randls_0.json,http://54.235.29.9/FacialAge/BNav_EC2/DepthDuration/v2_depth_duration_MTurk/v2_DepthDuration_HTML.html#325,325,1366,625,1366,768,9-3-2022,9-28-37,44,depth_duration_stimuli/003587_2014-05-23_16-48-02_094959634447_rgbf002384-resize_2/003587_2014-05-23_16-48-02_094959634447_rgbf002384-resize_2-target.png,250,1.357,6,2438,248,meters,jsons/v1_VE250_randls_0.json,939287,1894172,40,Woman
44,233432,DepthScenes,duration_manipulation_targetAtFixation,jsons/v1_VE250_randls_0.json,http://54.235.29.9/FacialAge/BNav_EC2/DepthDuration/v2_depth_duration_MTurk/v2_DepthDuration_HTML.html#325,325,1366,625,1366,768,9-3-2022,9-28-37,45,depth_duration_stimuli/000787_2014-06-08_22-33-53_260595134347_rgbf000175-resize_1/000787_2014-06-08_22-33-53_260595134347_rgbf000175-resize-original.jpg,250,4.784,0,2822,248,meters,jsons/v1_VE250_randls_0.json,939287,1894172,40,Woman
45,233432,DepthScenes,duration_manipulation_targetAtFixation,jsons/v1_VE250_randls_0.json,http://54.235.29.9/FacialAge/BNav_EC2/DepthDuration/v2_depth_duration_MTurk/v2_DepthDuration_HTML.html#325,325,1366,625,1366,768,9-3-2022,9-28-37,46,depth_duration_stimuli/002375_2014-06-28_20-13-44_260595134347_rgbf000032-resize_1/002375_2014-06-28_20-13-44_260595134347_rgbf000032-resize_1-target.png,250,4.0175,6,2478,252,meters,jsons/v1_VE250_randls_0.json,939287,1894172,40,Woman
46,233432,DepthScenes,duration_manipulation_targetAtFixation,jsons/v1_VE250_randls_0.json,http://54.235.29.9/FacialAge/BNav_EC2/DepthDuration/v2_depth_duration_MTurk/v2_DepthDuration_HTML.html#325,325,1366,625,1366,768,9-3-2022,9-28-37,47,depth_duration_stimuli/002657_2014-06-13_15-29-54_094959634447_rgbf000150-resize_1/002657_2014-06-13_15-29-54_094959634447_rgbf000150-resize_1-target.png,250,4.919,5,2543,250,meters,jsons/v1_VE250_randls_0.json,939287,1894172,40,Woman
47,233432,DepthScenes,duration_manipulation_targetAtFixation,jsons/v1_VE250_randls_0.json,http://54.235.29.9/FacialAge/BNav_EC2/DepthDuration/v2_depth_duration_MTurk/v2_DepthDuration_HTML.html#325,325,1366,625,1366,768,9-3-2022,9-28-37,48,depth_duration_stimuli/000009_2014-05-26_14-32-05_260595134347_rgbf000034-resize_3/000009_2014-05-26_14-32-05_260595134347_rgbf000034-resize_3-target.png,250,3.8715,9,2803,260,meters,jsons/v1_VE250_randls_0.json,939287,1894172,40,Woman
48,233432,DepthScenes,duration_manipulation_targetAtFixation,jsons/v1_VE250_randls_0.json,http://54.235.29.9/FacialAge/BNav_EC2/DepthDuration/v2_depth_duration_MTurk/v2_DepthDuration_HTML.html#325,325,1366,625,1366,768,9-3-2022,9-28-37,49,depth_duration_stimuli/001828_2014-06-26_21-40-03_260595134347_rgbf000024-resize_0/001828_2014-06-26_21-40-03_260595134347_rgbf000024-resize_0-target.png,250,4.8260000000000005,9,2478,248,meters,jsons/v1_VE250_randls_0.json,939287,1894172,40,Woman
49,233432,DepthScenes,duration_manipulation_targetAtFixation,jsons/v1_VE250_randls_0.json,http://54.235.29.9/FacialAge/BNav_EC2/DepthDuration/v2_depth_duration_MTurk/v2_DepthDuration_HTML.html#325,325,1366,625,1366,768,9-3-2022,9-28-37,50,depth_duration_stimuli/000368_2014-06-09_15-53-01_260595134347_rgbf000155-resize_2/000368_2014-06-09_15-53-01_260595134347_rgbf000155-resize_2-target.png,250,2.4859999999999998,5,2429,250,meters,jsons/v1_VE250_randls_0.json,939287,1894172,40,Woman
50,233432,DepthScenes,duration_manipulation_targetAtFixation,jsons/v1_VE250_randls_0.json,http://54.235.29.9/FacialAge/BNav_EC2/DepthDuration/v2_depth_duration_MTurk/v2_DepthDuration_HTML.html#325,325,1366,625,1366,768,9-3-2022,9-28-37,51,depth_duration_stimuli/002678_2014-06-13_16-15-32_094959634447_rgbf000151-resize_6/002678_2014-06-13_16-15-32_094959634447_rgbf000151-resize_6-target.png,250,2.1830000000000003,8,2599,251,meters,jsons/v1_VE250_randls_0.json,939287,1894172,40,Woman
51,233432,DepthScenes,duration_manipulation_targetAtFixation,jsons/v1_VE250_randls_0.json,http://54.235.29.9/FacialAge/BNav_EC2/DepthDuration/v2_depth_duration_MTurk/v2_DepthDuration_HTML.html#325,325,1366,625,1366,768,9-3-2022,9-28-37,52,depth_duration_stimuli/002630_2014-06-24_14-47-50_094959634447_rgbf000055-resize_1/002630_2014-06-24_14-47-50_094959634447_rgbf000055-resize_1-target.png,250,3.0095,8,2733,250,meters,jsons/v1_VE250_randls_0.json,939287,1894172,40,Woman
52,233432,DepthScenes,duration_manipulation_targetAtFixation,jsons/v1_VE250_randls_0.json,http://54.235.29.9/FacialAge/BNav_EC2/DepthDuration/v2_depth_duration_MTurk/v2_DepthDuration_HTML.html#325,325,1366,625,1366,768,9-3-2022,9-28-37,53,depth_duration_stimuli/002758_2014-06-22_19-11-20_094959634447_rgbf000128-resize_1/002758_2014-06-22_19-11-20_094959634447_rgbf000128-resize_1-target.png,250,2.555,5,2470,248,meters,jsons/v1_VE250_randls_0.json,939287,1894172,40,Woman
53,233432,DepthScenes,duration_manipulation_targetAtFixation,jsons/v1_VE250_randls_0.json,http://54.235.29.9/FacialAge/BNav_EC2/DepthDuration/v2_depth_duration_MTurk/v2_DepthDuration_HTML.html#325,325,1366,625,1366,768,9-3-2022,9-28-37,54,depth_duration_stimuli/002748_2014-06-22_19-07-22_094959634447_rgbf000078-resize_1/002748_2014-06-22_19-07-22_094959634447_rgbf000078-resize_1-target.png,250,4.6705,9,118328,233,meters,jsons/v1_VE250_randls_0.json,939287,1894172,40,Woman
54,233432,DepthScenes,duration_manipulation_targetAtFixation,jsons/v1_VE250_randls_0.json,http://54.235.29.9/FacialAge/BNav_EC2/DepthDuration/v2_depth_duration_MTurk/v2_DepthDuration_HTML.html#325,325,1366,625,1366,768,9-3-2022,9-28-37,55,depth_duration_stimuli/002995_2014-06-15_12-31-26_094959634447_rgbf000150-resize_1/002995_2014-06-15_12-31-26_094959634447_rgbf000150-resize_1-target.png,250,3.8360000000000003,8,3143,251,meters,jsons/v1_VE250_randls_0.json,939287,1894172,40,Woman
55,233432,DepthScenes,duration_manipulation_targetAtFixation,jsons/v1_VE250_randls_0.json,http://54.235.29.9/FacialAge/BNav_EC2/DepthDuration/v2_depth_duration_MTurk/v2_DepthDuration_HTML.html#325,325,1366,625,1366,768,9-3-2022,9-28-37,56,depth_duration_stimuli/001808_2014-06-26_20-50-58_260595134347_rgbf000029-resize_1/001808_2014-06-26_20-50-58_260595134347_rgbf000029-resize_1-target.png,250,4.249,8,2492,250,meters,jsons/v1_VE250_randls_0.json,939287,1894172,40,Woman
56,233432,DepthScenes,duration_manipulation_targetAtFixation,jsons/v1_VE250_randls_0.json,http://54.235.29.9/FacialAge/BNav_EC2/DepthDuration/v2_depth_duration_MTurk/v2_DepthDuration_HTML.html#325,325,1366,625,1366,768,9-3-2022,9-28-37,57,depth_duration_stimuli/001815_2014-06-26_20-52-55_260595134347_rgbf000020-resize_0/001815_2014-06-26_20-52-55_260595134347_rgbf000020-resize_0-target.png,250,3.3865,8,2459,251,meters,jsons/v1_VE250_randls_0.json,939287,1894172,40,Woman
57,233432,DepthScenes,duration_manipulation_targetAtFixation,jsons/v1_VE250_randls_0.json,http://54.235.29.9/FacialAge/BNav_EC2/DepthDuration/v2_depth_duration_MTurk/v2_DepthDuration_HTML.html#325,325,1366,625,1366,768,9-3-2022,9-28-37,58,depth_duration_stimuli/001164_2014-06-17_15-35-46_260595134347_rgbf000085-resize_3/001164_2014-06-17_15-35-46_260595134347_rgbf000085-resize_3-target.png,250,2.354,8,2472,241,meters,jsons/v1_VE250_randls_0.json,939287,1894172,40,Woman
58,233432,DepthScenes,duration_manipulation_targetAtFixation,jsons/v1_VE250_randls_0.json,http://54.235.29.9/FacialAge/BNav_EC2/DepthDuration/v2_depth_duration_MTurk/v2_DepthDuration_HTML.html#325,325,1366,625,1366,768,9-3-2022,9-28-37,59,depth_duration_stimuli/001136_2014-06-17_15-19-41_260595134347_rgbf000076-resize_3/001136_2014-06-17_15-19-41_260595134347_rgbf000076-resize_3-target.png,250,1.8655,7,2518,247,meters,jsons/v1_VE250_randls_0.json,939287,1894172,40,Woman
59,233432,DepthScenes,duration_manipulation_targetAtFixation,jsons/v1_VE250_randls_0.json,http://54.235.29.9/FacialAge/BNav_EC2/DepthDuration/v2_depth_duration_MTurk/v2_DepthDuration_HTML.html#325,325,1366,625,1366,768,9-3-2022,9-28-37,60,depth_duration_stimuli/000506_2014-06-08_23-21-00_260595134347_rgbf000070-resize_7/000506_2014-06-08_23-21-00_260595134347_rgbf000070-resize_7-target.png,250,4.0585,6,3446,249,meters,jsons/v1_VE250_randls_0.json,939287,1894172,40,Woman
60,233432,DepthScenes,duration_manipulation_targetAtFixation,jsons/v1_VE250_randls_0.json,http://54.235.29.9/FacialAge/BNav_EC2/DepthDuration/v2_depth_duration_MTurk/v2_DepthDuration_HTML.html#325,325,1366,625,1366,768,9-3-2022,9-28-37,61,depth_duration_stimuli/003079_2014-06-15_15-18-20_094959634447_rgbf000152-resize_8/003079_2014-06-15_15-18-20_094959634447_rgbf000152-resize_8-target.png,250,2.8775,8,2741,250,meters,jsons/v1_VE250_randls_0.json,939287,1894172,40,Woman
61,233432,DepthScenes,duration_manipulation_targetAtFixation,jsons/v1_VE250_randls_0.json,http://54.235.29.9/FacialAge/BNav_EC2/DepthDuration/v2_depth_duration_MTurk/v2_DepthDuration_HTML.html#325,325,1366,625,1366,768,9-3-2022,9-28-37,62,depth_duration_stimuli/000739_2014-06-08_18-45-58_260595134347_rgbf000068-resize_1/000739_2014-06-08_18-45-58_260595134347_rgbf000068-resize_1-target.png,250,3.534,7,2658,250,meters,jsons/v1_VE250_randls_0.json,939287,1894172,40,Woman
62,233432,DepthScenes,duration_manipulation_targetAtFixation,jsons/v1_VE250_randls_0.json,http://54.235.29.9/FacialAge/BNav_EC2/DepthDuration/v2_depth_duration_MTurk/v2_DepthDuration_HTML.html#325,325,1366,625,1366,768,9-3-2022,9-28-37,63,depth_duration_stimuli/000734_2014-06-08_17-39-11_260595134347_rgbf000128-resize_2/000734_2014-06-08_17-39-11_260595134347_rgbf000128-resize_2-target.png,250,4.098,9,2625,250,meters,jsons/v1_VE250_randls_0.json,939287,1894172,40,Woman
63,233432,DepthScenes,duration_manipulation_targetAtFixation,jsons/v1_VE250_randls_0.json,http://54.235.29.9/FacialAge/BNav_EC2/DepthDuration/v2_depth_duration_MTurk/v2_DepthDuration_HTML.html#325,325,1366,625,1366,768,9-3-2022,9-28-37,64,depth_duration_stimuli/001555_2014-06-20_17-12-10_260595134347_rgbf000065-resize_4/001555_2014-06-20_17-12-10_260595134347_rgbf000065-resize_4-target.png,250,1.633,8,2806,245,meters,jsons/v1_VE250_randls_0.json,939287,1894172,40,Woman
64,233432,DepthScenes,duration_manipulation_targetAtFixation,jsons/v1_VE250_randls_0.json,http://54.235.29.9/FacialAge/BNav_EC2/DepthDuration/v2_depth_duration_MTurk/v2_DepthDuration_HTML.html#325,325,1366,625,1366,768,9-3-2022,9-28-37,65,depth_duration_stimuli/000103_2014-05-14_22-01-17_260595134347_rgbf000152-resize_5/000103_2014-05-14_22-01-17_260595134347_rgbf000152-resize_5-target.png,250,1.993,6,2273,244,meters,jsons/v1_VE250_randls_0.json,939287,1894172,40,Woman
65,233432,DepthScenes,duration_manipulation_targetAtFixation,jsons/v1_VE250_randls_0.json,http://54.235.29.9/FacialAge/BNav_EC2/DepthDuration/v2_depth_duration_MTurk/v2_DepthDuration_HTML.html#325,325,1366,625,1366,768,9-3-2022,9-28-37,66,depth_duration_stimuli/001222_2014-06-17_16-24-06_260595134347_rgbf000073-resize_0/001222_2014-06-17_16-24-06_260595134347_rgbf000073-resize-original.jpg,250,1.4385,0,2437,254,meters,jsons/v1_VE250_randls_0.json,939287,1894172,40,Woman
66,233432,DepthScenes,duration_manipulation_targetAtFixation,jsons/v1_VE250_randls_0.json,http://54.235.29.9/FacialAge/BNav_EC2/DepthDuration/v2_depth_duration_MTurk/v2_DepthDuration_HTML.html#325,325,1366,625,1366,768,9-3-2022,9-28-37,67,depth_duration_stimuli/000642_2014-06-08_16-59-25_260595134347_rgbf000098-resize_2/000642_2014-06-08_16-59-25_260595134347_rgbf000098-resize_2-target.png,250,2.8815,6,2315,254,meters,jsons/v1_VE250_randls_0.json,939287,1894172,40,Woman
67,233432,DepthScenes,duration_manipulation_targetAtFixation,jsons/v1_VE250_randls_0.json,http://54.235.29.9/FacialAge/BNav_EC2/DepthDuration/v2_depth_duration_MTurk/v2_DepthDuration_HTML.html#325,325,1366,625,1366,768,9-3-2022,9-28-37,68,depth_duration_stimuli/002425_2014-06-28_20-27-29_260595134347_rgbf000031-resize_8/002425_2014-06-28_20-27-29_260595134347_rgbf000031-resize_8-target.png,250,3.8960000000000004,7,4618,247,meters,jsons/v1_VE250_randls_0.json,939287,1894172,40,Woman
68,233432,DepthScenes,duration_manipulation_targetAtFixation,jsons/v1_VE250_randls_0.json,http://54.235.29.9/FacialAge/BNav_EC2/DepthDuration/v2_depth_duration_MTurk/v2_DepthDuration_HTML.html#325,325,1366,625,1366,768,9-3-2022,9-28-37,69,depth_duration_stimuli/001570_2014-06-20_17-21-09_260595134347_rgbf000135-resize_4/001570_2014-06-20_17-21-09_260595134347_rgbf000135-resize_4-target.png,250,4.467,9,3144,255,meters,jsons/v1_VE250_randls_0.json,939287,1894172,40,Woman
69,233432,DepthScenes,duration_manipulation_targetAtFixation,jsons/v1_VE250_randls_0.json,http://54.235.29.9/FacialAge/BNav_EC2/DepthDuration/v2_depth_duration_MTurk/v2_DepthDuration_HTML.html#325,325,1366,625,1366,768,9-3-2022,9-28-37,70,depth_duration_stimuli/001392_2014-06-19_16-07-59_260595134347_rgbf000046-resize_1/001392_2014-06-19_16-07-59_260595134347_rgbf000046-resize_1-target.png,250,4.135,8,2463,250,meters,jsons/v1_VE250_randls_0.json,939287,1894172,40,Woman
70,233432,DepthScenes,duration_manipulation_targetAtFixation,jsons/v1_VE250_randls_0.json,http://54.235.29.9/FacialAge/BNav_EC2/DepthDuration/v2_depth_duration_MTurk/v2_DepthDuration_HTML.html#325,325,1366,625,1366,768,9-3-2022,9-28-37,71,depth_duration_stimuli/002153_2014-06-25_21-27-18_260595134347_rgbf000038-resize_5/002153_2014-06-25_21-27-18_260595134347_rgbf000038-resize_5-target.png,250,2.505,5,2805,243,meters,jsons/v1_VE250_randls_0.json,939287,1894172,40,Woman
71,233432,DepthScenes,duration_manipulation_targetAtFixation,jsons/v1_VE250_randls_0.json,http://54.235.29.9/FacialAge/BNav_EC2/DepthDuration/v2_depth_duration_MTurk/v2_DepthDuration_HTML.html#325,325,1366,625,1366,768,9-3-2022,9-28-37,72,depth_duration_stimuli/002660_2014-06-13_15-44-18_094959634447_rgbf001878-resize_2/002660_2014-06-13_15-44-18_094959634447_rgbf001878-resize_2-target.png,250,3.576,5,2363,245,meters,jsons/v1_VE250_randls_0.json,939287,1894172,40,Woman
72,233432,DepthScenes,duration_manipulation_targetAtFixation,jsons/v1_VE250_randls_0.json,http://54.235.29.9/FacialAge/BNav_EC2/DepthDuration/v2_depth_duration_MTurk/v2_DepthDuration_HTML.html#325,325,1366,625,1366,768,9-3-2022,9-28-37,73,depth_duration_stimuli/000929_2014-06-09_16-33-19_260595134347_rgbf000139-resize_0/000929_2014-06-09_16-33-19_260595134347_rgbf000139-resize_0-target.png,250,2.8680000000000003,5,2634,244,meters,jsons/v1_VE250_randls_0.json,939287,1894172,40,Woman
73,233432,DepthScenes,duration_manipulation_targetAtFixation,jsons/v1_VE250_randls_0.json,http://54.235.29.9/FacialAge/BNav_EC2/DepthDuration/v2_depth_duration_MTurk/v2_DepthDuration_HTML.html#325,325,1366,625,1366,768,9-3-2022,9-28-37,74,depth_duration_stimuli/000457_2014-06-08_16-52-43_260595134347_rgbf000199-resize_1/000457_2014-06-08_16-52-43_260595134347_rgbf000199-resize_1-target.png,250,3.6489999999999996,8,2686,250,meters,jsons/v1_VE250_randls_0.json,939287,1894172,40,Woman
74,233432,DepthScenes,duration_manipulation_targetAtFixation,jsons/v1_VE250_randls_0.json,http://54.235.29.9/FacialAge/BNav_EC2/DepthDuration/v2_depth_duration_MTurk/v2_DepthDuration_HTML.html#325,325,1366,625,1366,768,9-3-2022,9-28-37,75,depth_duration_stimuli/000447_2014-06-08_16-15-46_260595134347_rgbf000130-resize_1/000447_2014-06-08_16-15-46_260595134347_rgbf000130-resize_1-target.png,250,4.479,8,2350,260,meters,jsons/v1_VE250_randls_0.json,939287,1894172,40,Woman
75,233432,DepthScenes,duration_manipulation_targetAtFixation,jsons/v1_VE250_randls_0.json,http://54.235.29.9/FacialAge/BNav_EC2/DepthDuration/v2_depth_duration_MTurk/v2_DepthDuration_HTML.html#325,325,1366,625,1366,768,9-3-2022,9-28-37,76,depth_duration_stimuli/001447_2014-06-19_17-00-32_260595134347_rgbf000082-resize_5/001447_2014-06-19_17-00-32_260595134347_rgbf000082-resize_5-target.png,250,4.13775,6,2479,246,meters,jsons/v1_VE250_randls_0.json,939287,1894172,40,Woman
76,233432,DepthScenes,duration_manipulation_targetAtFixation,jsons/v1_VE250_randls_0.json,http://54.235.29.9/FacialAge/BNav_EC2/DepthDuration/v2_depth_duration_MTurk/v2_DepthDuration_HTML.html#325,325,1366,625,1366,768,9-3-2022,9-28-37,77,depth_duration_stimuli/002445_2014-06-28_20-32-16_260595134347_rgbf000029-resize_4/002445_2014-06-28_20-32-16_260595134347_rgbf000029-resize_4-target.png,250,2.5315,4,2640,248,meters,jsons/v1_VE250_randls_0.json,939287,1894172,40,Woman
77,233432,DepthScenes,duration_manipulation_targetAtFixation,jsons/v1_VE250_randls_0.json,http://54.235.29.9/FacialAge/BNav_EC2/DepthDuration/v2_depth_duration_MTurk/v2_DepthDuration_HTML.html#325,325,1366,625,1366,768,9-3-2022,9-28-37,78,depth_duration_stimuli/000780_2014-06-08_22-28-29_260595134347_rgbf000126-resize_1/000780_2014-06-08_22-28-29_260595134347_rgbf000126-resize_1-target.png,250,3.3825,6,41915,250,meters,jsons/v1_VE250_randls_0.json,939287,1894172,40,Woman
78,233432,DepthScenes,duration_manipulation_targetAtFixation,jsons/v1_VE250_randls_0.json,http://54.235.29.9/FacialAge/BNav_EC2/DepthDuration/v2_depth_duration_MTurk/v2_DepthDuration_HTML.html#325,325,1366,625,1366,768,9-3-2022,9-28-37,79,depth_duration_stimuli/002549_2014-06-24_13-41-39_094959634447_rgbf000022-resize_3/002549_2014-06-24_13-41-39_094959634447_rgbf000022-resize_3-target.png,250,1.476,1,5115,244,meters,jsons/v1_VE250_randls_0.json,939287,1894172,40,Woman
79,233432,DepthScenes,duration_manipulation_targetAtFixation,jsons/v1_VE250_randls_0.json,http://54.235.29.9/FacialAge/BNav_EC2/DepthDuration/v2_depth_duration_MTurk/v2_DepthDuration_HTML.html#325,325,1366,625,1366,768,9-3-2022,9-28-37,80,depth_duration_stimuli/002750_2014-06-22_19-08-03_094959634447_rgbf000094-resize_4/002750_2014-06-22_19-08-03_094959634447_rgbf000094-resize_4-target.png,250,2.354,5,3113,250,meters,jsons/v1_VE250_randls_0.json,939287,1894172,40,Woman
80,233432,DepthScenes,duration_manipulation_targetAtFixation,jsons/v1_VE250_randls_0.json,http://54.235.29.9/FacialAge/BNav_EC2/DepthDuration/v2_depth_duration_MTurk/v2_DepthDuration_HTML.html#325,325,1366,625,1366,768,9-3-2022,9-28-37,81,depth_duration_stimuli/002988_2014-06-15_12-24-20_094959634447_rgbf000150-resize_1/002988_2014-06-15_12-24-20_094959634447_rgbf000150-resize_1-target.png,250,4.7669999999999995,9,17710,247,meters,jsons/v1_VE250_randls_0.json,939287,1894172,40,Woman
81,233432,DepthScenes,duration_manipulation_targetAtFixation,jsons/v1_VE250_randls_0.json,http://54.235.29.9/FacialAge/BNav_EC2/DepthDuration/v2_depth_duration_MTurk/v2_DepthDuration_HTML.html#325,325,1366,625,1366,768,9-3-2022,9-28-37,82,depth_duration_stimuli/001052_2014-06-08_18-24-54_260595134347_rgbf000130-resize_1/001052_2014-06-08_18-24-54_260595134347_rgbf000130-resize_1-target.png,250,4.1045,9,67589,255,meters,jsons/v1_VE250_randls_0.json,939287,1894172,40,Woman
82,233432,DepthScenes,duration_manipulation_targetAtFixation,jsons/v1_VE250_randls_0.json,http://54.235.29.9/FacialAge/BNav_EC2/DepthDuration/v2_depth_duration_MTurk/v2_DepthDuration_HTML.html#325,325,1366,625,1366,768,9-3-2022,9-28-37,83,depth_duration_stimuli/002725_2014-06-22_11-47-51_094959634447_rgbf000070-resize_1/002725_2014-06-22_11-47-51_094959634447_rgbf000070-resize_1-target.png,250,2.195,8,2884,255,meters,jsons/v1_VE250_randls_0.json,939287,1894172,40,Woman
83,233432,DepthScenes,duration_manipulation_targetAtFixation,jsons/v1_VE250_randls_0.json,http://54.235.29.9/FacialAge/BNav_EC2/DepthDuration/v2_depth_duration_MTurk/v2_DepthDuration_HTML.html#325,325,1366,625,1366,768,9-3-2022,9-28-37,84,depth_duration_stimuli/002344_2014-06-28_20-06-29_260595134347_rgbf000030-resize_1/002344_2014-06-28_20-06-29_260595134347_rgbf000030-resize_1-target.png,250,1.5795,6,24683,250,meters,jsons/v1_VE250_randls_0.json,939287,1894172,40,Woman
84,233432,DepthScenes,duration_manipulation_targetAtFixation,jsons/v1_VE250_randls_0.json,http://54.235.29.9/FacialAge/BNav_EC2/DepthDuration/v2_depth_duration_MTurk/v2_DepthDuration_HTML.html#325,325,1366,625,1366,768,9-3-2022,9-28-37,85,depth_duration_stimuli/002989_2014-06-15_12-25-03_094959634447_rgbf000150-resize_3/002989_2014-06-15_12-25-03_094959634447_rgbf000150-resize_3-target.png,250,4.1975,9,2511,246,meters,jsons/v1_VE250_randls_0.json,939287,1894172,40,Woman
85,233432,DepthScenes,duration_manipulation_targetAtFixation,jsons/v1_VE250_randls_0.json,http://54.235.29.9/FacialAge/BNav_EC2/DepthDuration/v2_depth_duration_MTurk/v2_DepthDuration_HTML.html#325,325,1366,625,1366,768,9-3-2022,9-28-37,86,depth_duration_stimuli/000866_2014-06-09_20-45-42_260595134347_rgbf000139-resize_1/000866_2014-06-09_20-45-42_260595134347_rgbf000139-resize_1-target.png,250,3.2155,8,2423,250,meters,jsons/v1_VE250_randls_0.json,939287,1894172,40,Woman
86,233432,DepthScenes,duration_manipulation_targetAtFixation,jsons/v1_VE250_randls_0.json,http://54.235.29.9/FacialAge/BNav_EC2/DepthDuration/v2_depth_duration_MTurk/v2_DepthDuration_HTML.html#325,325,1366,625,1366,768,9-3-2022,9-28-37,87,depth_duration_stimuli/003621_2014-05-23_18-06-08_094959634447_rgbf000101-resize_1/003621_2014-05-23_18-06-08_094959634447_rgbf000101-resize_1-target.png,250,3.9835,9,2595,250,meters,jsons/v1_VE250_randls_0.json,939287,1894172,40,Woman
87,233432,DepthScenes,duration_manipulation_targetAtFixation,jsons/v1_VE250_randls_0.json,http://54.235.29.9/FacialAge/BNav_EC2/DepthDuration/v2_depth_duration_MTurk/v2_DepthDuration_HTML.html#325,325,1366,625,1366,768,9-3-2022,9-28-37,88,depth_duration_stimuli/001584_2014-06-20_11-07-43_260595134347_rgbf000002-resize_1/001584_2014-06-20_11-07-43_260595134347_rgbf000002-resize_1-target.png,250,3.53,8,4753,246,meters,jsons/v1_VE250_randls_0.json,939287,1894172,40,Woman
88,233432,DepthScenes,duration_manipulation_targetAtFixation,jsons/v1_VE250_randls_0.json,http://54.235.29.9/FacialAge/BNav_EC2/DepthDuration/v2_depth_duration_MTurk/v2_DepthDuration_HTML.html#325,325,1366,625,1366,768,9-3-2022,9-28-37,89,depth_duration_stimuli/000906_2014-06-08_13-35-43_260595134347_rgbf000155-resize_1/000906_2014-06-08_13-35-43_260595134347_rgbf000155-resize_1-target.png,250,2.8489999999999998,9,3001,250,meters,jsons/v1_VE250_randls_0.json,939287,1894172,40,Woman
89,233432,DepthScenes,duration_manipulation_targetAtFixation,jsons/v1_VE250_randls_0.json,http://54.235.29.9/FacialAge/BNav_EC2/DepthDuration/v2_depth_duration_MTurk/v2_DepthDuration_HTML.html#325,325,1366,625,1366,768,9-3-2022,9-28-37,90,depth_duration_stimuli/002805_2014-06-22_19-54-03_094959634447_rgbf000079-resize_1/002805_2014-06-22_19-54-03_094959634447_rgbf000079-resize_1-target.png,250,3.1439999999999997,6,2475,247,meters,jsons/v1_VE250_randls_0.json,939287,1894172,40,Woman
90,233432,DepthScenes,duration_manipulation_targetAtFixation,jsons/v1_VE250_randls_0.json,http://54.235.29.9/FacialAge/BNav_EC2/DepthDuration/v2_depth_duration_MTurk/v2_DepthDuration_HTML.html#325,325,1366,625,1366,768,9-3-2022,9-28-37,91,depth_duration_stimuli/001810_2014-06-26_20-51-35_260595134347_rgbf000040-resize_3/001810_2014-06-26_20-51-35_260595134347_rgbf000040-resize_3-target.png,250,2.2525,5,2385,252,meters,jsons/v1_VE250_randls_0.json,939287,1894172,40,Woman
91,233432,DepthScenes,duration_manipulation_targetAtFixation,jsons/v1_VE250_randls_0.json,http://54.235.29.9/FacialAge/BNav_EC2/DepthDuration/v2_depth_duration_MTurk/v2_DepthDuration_HTML.html#325,325,1366,625,1366,768,9-3-2022,9-28-37,92,depth_duration_stimuli/003010_2014-06-15_12-54-35_094959634447_rgbf000112-resize_0/003010_2014-06-15_12-54-35_094959634447_rgbf000112-resize_0-target.png,250,3.1185,7,2345,241,meters,jsons/v1_VE250_randls_0.json,939287,1894172,40,Woman
92,233432,DepthScenes,duration_manipulation_targetAtFixation,jsons/v1_VE250_randls_0.json,http://54.235.29.9/FacialAge/BNav_EC2/DepthDuration/v2_depth_duration_MTurk/v2_DepthDuration_HTML.html#325,325,1366,625,1366,768,9-3-2022,9-28-37,93,depth_duration_stimuli/000692_2014-06-08_13-09-42_260595134347_rgbf000199-resize_2/000692_2014-06-08_13-09-42_260595134347_rgbf000199-resize_2-target.png,250,3.661,8,2499,255,meters,jsons/v1_VE250_randls_0.json,939287,1894172,40,Woman
93,233432,DepthScenes,duration_manipulation_targetAtFixation,jsons/v1_VE250_randls_0.json,http://54.235.29.9/FacialAge/BNav_EC2/DepthDuration/v2_depth_duration_MTurk/v2_DepthDuration_HTML.html#325,325,1366,625,1366,768,9-3-2022,9-28-37,94,depth_duration_stimuli/001094_2014-06-15_17-36-00_260595134347_rgbf000205-resize_0/001094_2014-06-15_17-36-00_260595134347_rgbf000205-resize_0-target.png,250,4.2175,9,2391,244,meters,jsons/v1_VE250_randls_0.json,939287,1894172,40,Woman
94,233432,DepthScenes,duration_manipulation_targetAtFixation,jsons/v1_VE250_randls_0.json,http://54.235.29.9/FacialAge/BNav_EC2/DepthDuration/v2_depth_duration_MTurk/v2_DepthDuration_HTML.html#325,325,1366,625,1366,768,9-3-2022,9-28-37,95,depth_duration_stimuli/002279_2014-06-28_18-55-32_260595134347_rgbf000040-resize_5/002279_2014-06-28_18-55-32_260595134347_rgbf000040-resize_5-target.png,250,1.5043333333333,4,2633,239,meters,jsons/v1_VE250_randls_0.json,939287,1894172,40,Woman
95,233432,DepthScenes,duration_manipulation_targetAtFixation,jsons/v1_VE250_randls_0.json,http://54.235.29.9/FacialAge/BNav_EC2/DepthDuration/v2_depth_duration_MTurk/v2_DepthDuration_HTML.html#325,325,1366,625,1366,768,9-3-2022,9-28-37,96,depth_duration_stimuli/000635_2014-06-08_16-38-42_260595134347_rgbf000106-resize_1/000635_2014-06-08_16-38-42_260595134347_rgbf000106-resize_1-target.png,250,2.074,6,2550,251,meters,jsons/v1_VE250_randls_0.json,939287,1894172,40,Woman
96,233432,DepthScenes,duration_manipulation_targetAtFixation,jsons/v1_VE250_randls_0.json,http://54.235.29.9/FacialAge/BNav_EC2/DepthDuration/v2_depth_duration_MTurk/v2_DepthDuration_HTML.html#325,325,1366,625,1366,768,9-3-2022,9-28-37,97,depth_duration_stimuli/001059_2014-06-08_21-53-27_260595134347_rgbf000061-resize_4/001059_2014-06-08_21-53-27_260595134347_rgbf000061-resize_4-target.png,250,2.4185,6,2597,248,meters,jsons/v1_VE250_randls_0.json,939287,1894172,40,Woman
97,233432,DepthScenes,duration_manipulation_targetAtFixation,jsons/v1_VE250_randls_0.json,http://54.235.29.9/FacialAge/BNav_EC2/DepthDuration/v2_depth_duration_MTurk/v2_DepthDuration_HTML.html#325,325,1366,625,1366,768,9-3-2022,9-28-37,98,depth_duration_stimuli/001032_2014-06-08_13-23-17_260595134347_rgbf000021-resize_3/001032_2014-06-08_13-23-17_260595134347_rgbf000021-resize_3-target.png,250,3.2725,6,2557,252,meters,jsons/v1_VE250_randls_0.json,939287,1894172,40,Woman
98,233432,DepthScenes,duration_manipulation_targetAtFixation,jsons/v1_VE250_randls_0.json,http://54.235.29.9/FacialAge/BNav_EC2/DepthDuration/v2_depth_duration_MTurk/v2_DepthDuration_HTML.html#325,325,1366,625,1366,768,9-3-2022,9-28-37,99,depth_duration_stimuli/001540_2014-06-20_17-01-05_260595134347_rgbf000086-resize_2/001540_2014-06-20_17-01-05_260595134347_rgbf000086-resize-original.jpg,250,1.459,0,2870,250,meters,jsons/v1_VE250_randls_0.json,939287,1894172,40,Woman
99,233432,DepthScenes,duration_manipulation_targetAtFixation,jsons/v1_VE250_randls_0.json,http://54.235.29.9/FacialAge/BNav_EC2/DepthDuration/v2_depth_duration_MTurk/v2_DepthDuration_HTML.html#325,325,1366,625,1366,768,9-3-2022,9-28-37,100,depth_duration_stimuli/001244_2014-06-17_16-47-45_260595134347_rgbf000030-resize_4/001244_2014-06-17_16-47-45_260595134347_rgbf000030-resize_4-target.png,250,2.0425,6,2300,248,meters,jsons/v1_VE250_randls_0.json,939287,1894172,40,Woman
100,233432,DepthScenes,duration_manipulation_targetAtFixation,jsons/v1_VE250_randls_0.json,http://54.235.29.9/FacialAge/BNav_EC2/DepthDuration/v2_depth_duration_MTurk/v2_DepthDuration_HTML.html#325,325,1366,625,1366,768,9-3-2022,9-28-37,101,depth_duration_stimuli/003495_2014-05-21_16-01-51_094959634447_rgbf000100-resize_3/003495_2014-05-21_16-01-51_094959634447_rgbf000100-resize_3-target.png,250,1.6255,4,2539,254,meters,jsons/v1_VE250_randls_0.json,939287,1894172,40,Woman
101,233432,DepthScenes,duration_manipulation_targetAtFixation,jsons/v1_VE250_randls_0.json,http://54.235.29.9/FacialAge/BNav_EC2/DepthDuration/v2_depth_duration_MTurk/v2_DepthDuration_HTML.html#325,325,1366,625,1366,768,9-3-2022,9-28-37,102,depth_duration_stimuli/002213_2014-06-28_18-37-58_260595134347_rgbf000055-resize_1/002213_2014-06-28_18-37-58_260595134347_rgbf000055-resize_1-target.png,250,3.62,9,2307,256,meters,jsons/v1_VE250_randls_0.json,939287,1894172,40,Woman
102,233432,DepthScenes,duration_manipulation_targetAtFixation,jsons/v1_VE250_randls_0.json,http://54.235.29.9/FacialAge/BNav_EC2/DepthDuration/v2_depth_duration_MTurk/v2_DepthDuration_HTML.html#325,325,1366,625,1366,768,9-3-2022,9-28-37,103,depth_duration_stimuli/000691_2014-06-08_13-08-50_260595134347_rgbf000132-resize_3/000691_2014-06-08_13-08-50_260595134347_rgbf000132-resize_3-target.png,250,4.1530000000000005,6,17038,249,meters,jsons/v1_VE250_randls_0.json,939287,1894172,40,Woman
103,233432,DepthScenes,duration_manipulation_targetAtFixation,jsons/v1_VE250_randls_0.json,http://54.235.29.9/FacialAge/BNav_EC2/DepthDuration/v2_depth_duration_MTurk/v2_DepthDuration_HTML.html#325,325,1366,625,1366,768,9-3-2022,9-28-37,104,depth_duration_stimuli/002118_2014-06-25_20-32-08_260595134347_rgbf000078-resize_1/002118_2014-06-25_20-32-08_260595134347_rgbf000078-resize_1-target.png,250,2.6460000000000004,6,2906,249,meters,jsons/v1_VE250_randls_0.json,939287,1894172,40,Woman
104,233432,DepthScenes,duration_manipulation_targetAtFixation,jsons/v1_VE250_randls_0.json,http://54.235.29.9/FacialAge/BNav_EC2/DepthDuration/v2_depth_duration_MTurk/v2_DepthDuration_HTML.html#325,325,1366,625,1366,768,9-3-2022,9-28-37,105,depth_duration_stimuli/001516_2014-06-20_16-25-09_260595134347_rgbf000076-resize_2/001516_2014-06-20_16-25-09_260595134347_rgbf000076-resize_2-target.png,250,1.7445,4,3069,247,meters,jsons/v1_VE250_randls_0.json,939287,1894172,40,Woman
105,233432,DepthScenes,duration_manipulation_targetAtFixation,jsons/v1_VE250_randls_0.json,http://54.235.29.9/FacialAge/BNav_EC2/DepthDuration/v2_depth_duration_MTurk/v2_DepthDuration_HTML.html#325,325,1366,625,1366,768,9-3-2022,9-28-37,106,depth_duration_stimuli/000469_2014-06-09_19-42-10_260595134347_rgbf000081-resize_1/000469_2014-06-09_19-42-10_260595134347_rgbf000081-resize_1-target.png,250,1.652,6,6688,248,meters,jsons/v1_VE250_randls_0.json,939287,1894172,40,Woman
106,233432,DepthScenes,duration_manipulation_targetAtFixation,jsons/v1_VE250_randls_0.json,http://54.235.29.9/FacialAge/BNav_EC2/DepthDuration/v2_depth_duration_MTurk/v2_DepthDuration_HTML.html#325,325,1366,625,1366,768,9-3-2022,9-28-37,107,depth_duration_stimuli/000483_2014-06-09_20-41-45_260595134347_rgbf000116-resize_4/000483_2014-06-09_20-41-45_260595134347_rgbf000116-resize_4-target.png,250,1.337,4,3074,251,meters,jsons/v1_VE250_randls_0.json,939287,1894172,40,Woman
107,233432,DepthScenes,duration_manipulation_targetAtFixation,jsons/v1_VE250_randls_0.json,http://54.235.29.9/FacialAge/BNav_EC2/DepthDuration/v2_depth_duration_MTurk/v2_DepthDuration_HTML.html#325,325,1366,625,1366,768,9-3-2022,9-28-37,108,depth_duration_stimuli/002057_2014-06-24_21-00-13_260595134347_rgbf000120-resize_1/002057_2014-06-24_21-00-13_260595134347_rgbf000120-resize_1-target.png,250,2.967,9,2347,248,meters,jsons/v1_VE250_randls_0.json,939287,1894172,40,Woman
108,233432,DepthScenes,duration_manipulation_targetAtFixation,jsons/v1_VE250_randls_0.json,http://54.235.29.9/FacialAge/BNav_EC2/DepthDuration/v2_depth_duration_MTurk/v2_DepthDuration_HTML.html#325,325,1366,625,1366,768,9-3-2022,9-28-37,109,depth_duration_stimuli/000709_2014-06-08_13-51-55_260595134347_rgbf000068-resize_3/000709_2014-06-08_13-51-55_260595134347_rgbf000068-resize_3-target.png,250,1.8030000000000002,6,3341,249,meters,jsons/v1_VE250_randls_0.json,939287,1894172,40,Woman
109,233432,DepthScenes,duration_manipulation_targetAtFixation,jsons/v1_VE250_randls_0.json,http://54.235.29.9/FacialAge/BNav_EC2/DepthDuration/v2_depth_duration_MTurk/v2_DepthDuration_HTML.html#325,325,1366,625,1366,768,9-3-2022,9-28-37,110,depth_duration_stimuli/002600_2014-06-24_14-27-04_094959634447_rgbf000074-resize_2/002600_2014-06-24_14-27-04_094959634447_rgbf000074-resize_2-target.png,250,2.7575,7,2728,255,meters,jsons/v1_VE250_randls_0.json,939287,1894172,40,Woman
110,233432,DepthScenes,duration_manipulation_targetAtFixation,jsons/v1_VE250_randls_0.json,http://54.235.29.9/FacialAge/BNav_EC2/DepthDuration/v2_depth_duration_MTurk/v2_DepthDuration_HTML.html#325,325,1366,625,1366,768,9-3-2022,9-28-37,111,depth_duration_stimuli/003228_2014-05-14_13-42-35_094959634447_rgbf000101-resize_1/003228_2014-05-14_13-42-35_094959634447_rgbf000101-resize_1-target.png,250,1.9680000000000002,6,2393,247,meters,jsons/v1_VE250_randls_0.json,939287,1894172,40,Woman
111,233432,DepthScenes,duration_manipulation_targetAtFixation,jsons/v1_VE250_randls_0.json,http://54.235.29.9/FacialAge/BNav_EC2/DepthDuration/v2_depth_duration_MTurk/v2_DepthDuration_HTML.html#325,325,1366,625,1366,768,9-3-2022,9-28-37,112,depth_duration_stimuli/000414_2014-06-04_19-49-13_260595134347_rgbf000044-resize_0/000414_2014-06-04_19-49-13_260595134347_rgbf000044-resize_0-target.png,250,4.329,8,2459,248,meters,jsons/v1_VE250_randls_0.json,939287,1894172,40,Woman
112,233432,DepthScenes,duration_manipulation_targetAtFixation,jsons/v1_VE250_randls_0.json,http://54.235.29.9/FacialAge/BNav_EC2/DepthDuration/v2_depth_duration_MTurk/v2_DepthDuration_HTML.html#325,325,1366,625,1366,768,9-3-2022,9-28-37,113,depth_duration_stimuli/003129_2014-05-12_10-48-10_094959634447_rgbf000100-resize_0/003129_2014-05-12_10-48-10_094959634447_rgbf000100-resize_0-target.png,250,4.9305,6,3400,245,meters,jsons/v1_VE250_randls_0.json,939287,1894172,40,Woman
113,233432,DepthScenes,duration_manipulation_targetAtFixation,jsons/v1_VE250_randls_0.json,http://54.235.29.9/FacialAge/BNav_EC2/DepthDuration/v2_depth_duration_MTurk/v2_DepthDuration_HTML.html#325,325,1366,625,1366,768,9-3-2022,9-28-37,114,depth_duration_stimuli/002043_2014-06-24_20-29-38_260595134347_rgbf000039-resize_4/002043_2014-06-24_20-29-38_260595134347_rgbf000039-resize_4-target.png,250,2.8435,8,2454,248,meters,jsons/v1_VE250_randls_0.json,939287,1894172,40,Woman
114,233432,DepthScenes,duration_manipulation_targetAtFixation,jsons/v1_VE250_randls_0.json,http://54.235.29.9/FacialAge/BNav_EC2/DepthDuration/v2_depth_duration_MTurk/v2_DepthDuration_HTML.html#325,325,1366,625,1366,768,9-3-2022,9-28-37,115,depth_duration_stimuli/003048_2014-06-15_13-49-43_094959634447_rgbf000150-resize_1/003048_2014-06-15_13-49-43_094959634447_rgbf000150-resize_1-target.png,250,4.0035,6,2370,248,meters,jsons/v1_VE250_randls_0.json,939287,1894172,40,Woman
115,233432,DepthScenes,duration_manipulation_targetAtFixation,jsons/v1_VE250_randls_0.json,http://54.235.29.9/FacialAge/BNav_EC2/DepthDuration/v2_depth_duration_MTurk/v2_DepthDuration_HTML.html#325,325,1366,625,1366,768,9-3-2022,9-28-37,116,depth_duration_stimuli/001170_2014-06-17_15-43-44_260595134347_rgbf000096-resize_6/001170_2014-06-17_15-43-44_260595134347_rgbf000096-resize-original.jpg,250,1.1909999999999998,0,2260,253,meters,jsons/v1_VE250_randls_0.json,939287,1894172,40,Woman
116,233432,DepthScenes,duration_manipulation_targetAtFixation,jsons/v1_VE250_randls_0.json,http://54.235.29.9/FacialAge/BNav_EC2/DepthDuration/v2_depth_duration_MTurk/v2_DepthDuration_HTML.html#325,325,1366,625,1366,768,9-3-2022,9-28-37,117,depth_duration_stimuli/002905_2014-06-03_18-04-43_094959634447_rgbf000151-resize_2/002905_2014-06-03_18-04-43_094959634447_rgbf000151-resize_2-target.png,250,2.0295,5,2347,250,meters,jsons/v1_VE250_randls_0.json,939287,1894172,40,Woman
117,233432,DepthScenes,duration_manipulation_targetAtFixation,jsons/v1_VE250_randls_0.json,http://54.235.29.9/FacialAge/BNav_EC2/DepthDuration/v2_depth_duration_MTurk/v2_DepthDuration_HTML.html#325,325,1366,625,1366,768,9-3-2022,9-28-37,118,depth_duration_stimuli/003423_2014-05-21_10-23-26_094959634447_rgbf002665-resize_2/003423_2014-05-21_10-23-26_094959634447_rgbf002665-resize_2-target.png,250,3.2575,5,2578,248,meters,jsons/v1_VE250_randls_0.json,939287,1894172,40,Woman
118,233432,DepthScenes,duration_manipulation_targetAtFixation,jsons/v1_VE250_randls_0.json,http://54.235.29.9/FacialAge/BNav_EC2/DepthDuration/v2_depth_duration_MTurk/v2_DepthDuration_HTML.html#325,325,1366,625,1366,768,9-3-2022,9-28-37,119,depth_duration_stimuli/003292_2014-05-14_21-53-49_094959634447_rgbf000100-resize_2/003292_2014-05-14_21-53-49_094959634447_rgbf000100-resize_2-target.png,250,3.4815,5,4126,249,meters,jsons/v1_VE250_randls_0.json,939287,1894172,40,Woman
119,233432,DepthScenes,duration_manipulation_targetAtFixation,jsons/v1_VE250_randls_0.json,http://54.235.29.9/FacialAge/BNav_EC2/DepthDuration/v2_depth_duration_MTurk/v2_DepthDuration_HTML.html#325,325,1366,625,1366,768,9-3-2022,9-28-37,120,depth_duration_stimuli/002639_2014-06-24_14-51-37_094959634447_rgbf000074-resize_4/002639_2014-06-24_14-51-37_094959634447_rgbf000074-resize_4-target.png,250,4.0375,6,5733,245,meters,jsons/v1_VE250_randls_0.json,939287,1894172,40,Woman
120,233432,DepthScenes,duration_manipulation_targetAtFixation,jsons/v1_VE250_randls_0.json,http://54.235.29.9/FacialAge/BNav_EC2/DepthDuration/v2_depth_duration_MTurk/v2_DepthDuration_HTML.html#325,325,1366,625,1366,768,9-3-2022,9-28-37,121,depth_duration_stimuli/000788_2014-06-08_22-34-36_260595134347_rgbf000131-resize_1/000788_2014-06-08_22-34-36_260595134347_rgbf000131-resize_1-target.png,250,3.359,5,2470,236,meters,jsons/v1_VE250_randls_0.json,939287,1894172,40,Woman
121,233432,DepthScenes,duration_manipulation_targetAtFixation,jsons/v1_VE250_randls_0.json,http://54.235.29.9/FacialAge/BNav_EC2/DepthDuration/v2_depth_duration_MTurk/v2_DepthDuration_HTML.html#325,325,1366,625,1366,768,9-3-2022,9-28-37,122,depth_duration_stimuli/001235_2014-06-17_16-37-36_260595134347_rgbf000084-resize_4/001235_2014-06-17_16-37-36_260595134347_rgbf000084-resize_4-target.png,250,3.6605,6,3493,251,meters,jsons/v1_VE250_randls_0.json,939287,1894172,40,Woman
122,233432,DepthScenes,duration_manipulation_targetAtFixation,jsons/v1_VE250_randls_0.json,http://54.235.29.9/FacialAge/BNav_EC2/DepthDuration/v2_depth_duration_MTurk/v2_DepthDuration_HTML.html#325,325,1366,625,1366,768,9-3-2022,9-28-37,123,depth_duration_stimuli/002784_2014-06-22_19-26-30_094959634447_rgbf000083-resize_3/002784_2014-06-22_19-26-30_094959634447_rgbf000083-resize_3-target.png,250,1.8046666666667,4,2923,245,meters,jsons/v1_VE250_randls_0.json,939287,1894172,40,Woman
123,233432,DepthScenes,duration_manipulation_targetAtFixation,jsons/v1_VE250_randls_0.json,http://54.235.29.9/FacialAge/BNav_EC2/DepthDuration/v2_depth_duration_MTurk/v2_DepthDuration_HTML.html#325,325,1366,625,1366,768,9-3-2022,9-28-37,124,depth_duration_stimuli/001100_2014-06-15_17-46-26_260595134347_rgbf000225-resize_2/001100_2014-06-15_17-46-26_260595134347_rgbf000225-resize_2-target.png,250,2.24,6,2505,249,meters,jsons/v1_VE250_randls_0.json,939287,1894172,40,Woman
124,233432,DepthScenes,duration_manipulation_targetAtFixation,jsons/v1_VE250_randls_0.json,http://54.235.29.9/FacialAge/BNav_EC2/DepthDuration/v2_depth_duration_MTurk/v2_DepthDuration_HTML.html#325,325,1366,625,1366,768,9-3-2022,9-28-37,125,depth_duration_stimuli/001016_2014-06-09_16-16-10_260595134347_rgbf000112-resize_5/001016_2014-06-09_16-16-10_260595134347_rgbf000112-resize_5-target.png,250,1.6565,6,5532,241,meters,jsons/v1_VE250_randls_0.json,939287,1894172,40,Woman
125,233432,DepthScenes,duration_manipulation_targetAtFixation,jsons/v1_VE250_randls_0.json,http://54.235.29.9/FacialAge/BNav_EC2/DepthDuration/v2_depth_duration_MTurk/v2_DepthDuration_HTML.html#325,325,1366,625,1366,768,9-3-2022,9-28-37,126,depth_duration_stimuli/002340_2014-06-28_20-05-46_260595134347_rgbf000113-resize_0/002340_2014-06-28_20-05-46_260595134347_rgbf000113-resize_0-target.png,250,2.4735,8,2555,248,meters,jsons/v1_VE250_randls_0.json,939287,1894172,40,Woman
126,233432,DepthScenes,duration_manipulation_targetAtFixation,jsons/v1_VE250_randls_0.json,http://54.235.29.9/FacialAge/BNav_EC2/DepthDuration/v2_depth_duration_MTurk/v2_DepthDuration_HTML.html#325,325,1366,625,1366,768,9-3-2022,9-28-37,127,depth_duration_stimuli/000522_2014-06-08_13-35-06_260595134347_rgbf000244-resize_1/000522_2014-06-08_13-35-06_260595134347_rgbf000244-resize_1-target.png,250,2.3715,6,2859,250,meters,jsons/v1_VE250_randls_0.json,939287,1894172,40,Woman
127,233432,DepthScenes,duration_manipulation_targetAtFixation,jsons/v1_VE250_randls_0.json,http://54.235.29.9/FacialAge/BNav_EC2/DepthDuration/v2_depth_duration_MTurk/v2_DepthDuration_HTML.html#325,325,1366,625,1366,768,9-3-2022,9-28-37,128,depth_duration_stimuli/002949_2014-06-26_15-57-42_094959634447_rgbf000079-resize_1/002949_2014-06-26_15-57-42_094959634447_rgbf000079-resize_1-target.png,250,1.8915,4,3019,249,meters,jsons/v1_VE250_randls_0.json,939287,1894172,40,Woman
128,233432,DepthScenes,duration_manipulation_targetAtFixation,jsons/v1_VE250_randls_0.json,http://54.235.29.9/FacialAge/BNav_EC2/DepthDuration/v2_depth_duration_MTurk/v2_DepthDuration_HTML.html#325,325,1366,625,1366,768,9-3-2022,9-28-37,129,depth_duration_stimuli/001175_2014-06-17_15-45-55_260595134347_rgbf000129-resize_4/001175_2014-06-17_15-45-55_260595134347_rgbf000129-resize_4-target.png,250,4.255,8,2445,240,meters,jsons/v1_VE250_randls_0.json,939287,1894172,40,Woman
129,233432,DepthScenes,duration_manipulation_targetAtFixation,jsons/v1_VE250_randls_0.json,http://54.235.29.9/FacialAge/BNav_EC2/DepthDuration/v2_depth_duration_MTurk/v2_DepthDuration_HTML.html#325,325,1366,625,1366,768,9-3-2022,9-28-37,130,depth_duration_stimuli/003490_2014-05-21_15-50-11_094959634447_rgbf000101-resize_3/003490_2014-05-21_15-50-11_094959634447_rgbf000101-resize_3-target.png,250,3.6445,6,14844,238,meters,jsons/v1_VE250_randls_0.json,939287,1894172,40,Woman
130,233432,DepthScenes,duration_manipulation_targetAtFixation,jsons/v1_VE250_randls_0.json,http://54.235.29.9/FacialAge/BNav_EC2/DepthDuration/v2_depth_duration_MTurk/v2_DepthDuration_HTML.html#325,325,1366,625,1366,768,9-3-2022,9-28-37,131,depth_duration_stimuli/001199_2014-06-17_16-03-48_260595134347_rgbf000077-resize_0/001199_2014-06-17_16-03-48_260595134347_rgbf000077-resize_0-target.png,250,3.4375,9,2721,243,meters,jsons/v1_VE250_randls_0.json,939287,1894172,40,Woman
131,233432,DepthScenes,duration_manipulation_targetAtFixation,jsons/v1_VE250_randls_0.json,http://54.235.29.9/FacialAge/BNav_EC2/DepthDuration/v2_depth_duration_MTurk/v2_DepthDuration_HTML.html#325,325,1366,625,1366,768,9-3-2022,9-28-37,132,depth_duration_stimuli/000502_2014-06-08_23-02-32_260595134347_rgbf000063-resize_4/000502_2014-06-08_23-02-32_260595134347_rgbf000063-resize_4-target.png,250,2.431,5,2336,250,meters,jsons/v1_VE250_randls_0.json,939287,1894172,40,Woman
132,233432,DepthScenes,duration_manipulation_targetAtFixation,jsons/v1_VE250_randls_0.json,http://54.235.29.9/FacialAge/BNav_EC2/DepthDuration/v2_depth_duration_MTurk/v2_DepthDuration_HTML.html#325,325,1366,625,1366,768,9-3-2022,9-28-37,133,depth_duration_stimuli/001055_2014-06-08_18-45-35_260595134347_rgbf000111-resize_4/001055_2014-06-08_18-45-35_260595134347_rgbf000111-resize_4-target.png,250,2.4290000000000003,9,2446,248,meters,jsons/v1_VE250_randls_0.json,939287,1894172,40,Woman
133,233432,DepthScenes,duration_manipulation_targetAtFixation,jsons/v1_VE250_randls_0.json,http://54.235.29.9/FacialAge/BNav_EC2/DepthDuration/v2_depth_duration_MTurk/v2_DepthDuration_HTML.html#325,325,1366,625,1366,768,9-3-2022,9-28-37,134,depth_duration_stimuli/000549_2014-06-08_22-10-24_260595134347_rgbf000247-resize_3/000549_2014-06-08_22-10-24_260595134347_rgbf000247-resize_3-target.png,250,1.841,5,4399,248,meters,jsons/v1_VE250_randls_0.json,939287,1894172,40,Woman
134,233432,DepthScenes,duration_manipulation_targetAtFixation,jsons/v1_VE250_randls_0.json,http://54.235.29.9/FacialAge/BNav_EC2/DepthDuration/v2_depth_duration_MTurk/v2_DepthDuration_HTML.html#325,325,1366,625,1366,768,9-3-2022,9-28-37,135,depth_duration_stimuli/002072_2014-06-24_21-48-06_260595134347_rgbf000115-resize_0/002072_2014-06-24_21-48-06_260595134347_rgbf000115-resize-original.jpg,250,4.702,0,2719,250,meters,jsons/v1_VE250_randls_0.json,939287,1894172,40,Woman
135,233432,DepthScenes,duration_manipulation_targetAtFixation,jsons/v1_VE250_randls_0.json,http://54.235.29.9/FacialAge/BNav_EC2/DepthDuration/v2_depth_duration_MTurk/v2_DepthDuration_HTML.html#325,325,1366,625,1366,768,9-3-2022,9-28-37,136,depth_duration_stimuli/001011_2014-06-08_23-18-54_260595134347_rgbf000044-resize_4/001011_2014-06-08_23-18-54_260595134347_rgbf000044-resize_4-target.png,250,2.4730000000000003,5,2617,254,meters,jsons/v1_VE250_randls_0.json,939287,1894172,40,Woman
136,233432,DepthScenes,duration_manipulation_targetAtFixation,jsons/v1_VE250_randls_0.json,http://54.235.29.9/FacialAge/BNav_EC2/DepthDuration/v2_depth_duration_MTurk/v2_DepthDuration_HTML.html#325,325,1366,625,1366,768,9-3-2022,9-28-37,137,depth_duration_stimuli/002875_2014-06-01_15-19-00_094959634447_rgbf000151-resize_1/002875_2014-06-01_15-19-00_094959634447_rgbf000151-resize_1-target.png,250,1.9675,4,4033,249,meters,jsons/v1_VE250_randls_0.json,939287,1894172,40,Woman
137,233432,DepthScenes,duration_manipulation_targetAtFixation,jsons/v1_VE250_randls_0.json,http://54.235.29.9/FacialAge/BNav_EC2/DepthDuration/v2_depth_duration_MTurk/v2_DepthDuration_HTML.html#325,325,1366,625,1366,768,9-3-2022,9-28-37,138,depth_duration_stimuli/001150_2014-06-17_15-27-34_260595134347_rgbf000108-resize_2/001150_2014-06-17_15-27-34_260595134347_rgbf000108-resize_2-target.png,250,4.0325,8,2527,247,meters,jsons/v1_VE250_randls_0.json,939287,1894172,40,Woman
138,233432,DepthScenes,duration_manipulation_targetAtFixation,jsons/v1_VE250_randls_0.json,http://54.235.29.9/FacialAge/BNav_EC2/DepthDuration/v2_depth_duration_MTurk/v2_DepthDuration_HTML.html#325,325,1366,625,1366,768,9-3-2022,9-28-37,139,depth_duration_stimuli/000665_2014-06-09_20-42-35_260595134347_rgbf000110-resize_1/000665_2014-06-09_20-42-35_260595134347_rgbf000110-resize_1-target.png,250,3.057,6,2851,251,meters,jsons/v1_VE250_randls_0.json,939287,1894172,40,Woman
139,233432,DepthScenes,duration_manipulation_targetAtFixation,jsons/v1_VE250_randls_0.json,http://54.235.29.9/FacialAge/BNav_EC2/DepthDuration/v2_depth_duration_MTurk/v2_DepthDuration_HTML.html#325,325,1366,625,1366,768,9-3-2022,9-28-37,140,depth_duration_stimuli/001110_2014-06-15_17-25-28_260595134347_rgbf000150-resize_1/001110_2014-06-15_17-25-28_260595134347_rgbf000150-resize_1-target.png,250,1.7115,5,2426,245,meters,jsons/v1_VE250_randls_0.json,939287,1894172,40,Woman
140,233432,DepthScenes,duration_manipulation_targetAtFixation,jsons/v1_VE250_randls_0.json,http://54.235.29.9/FacialAge/BNav_EC2/DepthDuration/v2_depth_duration_MTurk/v2_DepthDuration_HTML.html#325,325,1366,625,1366,768,9-3-2022,9-28-37,141,depth_duration_stimuli/000927_2014-06-09_16-32-30_260595134347_rgbf000123-resize_3/000927_2014-06-09_16-32-30_260595134347_rgbf000123-resize_3-target.png,250,2.6785,6,21496,251,meters,jsons/v1_VE250_randls_0.json,939287,1894172,40,Woman
141,233432,DepthScenes,duration_manipulation_targetAtFixation,jsons/v1_VE250_randls_0.json,http://54.235.29.9/FacialAge/BNav_EC2/DepthDuration/v2_depth_duration_MTurk/v2_DepthDuration_HTML.html#325,325,1366,625,1366,768,9-3-2022,9-28-37,142,depth_duration_stimuli/000773_2014-06-08_22-24-54_260595134347_rgbf000093-resize_1/000773_2014-06-08_22-24-54_260595134347_rgbf000093-resize_1-target.png,250,4.973,2,4105,250,meters,jsons/v1_VE250_randls_0.json,939287,1894172,40,Woman
142,233432,DepthScenes,duration_manipulation_targetAtFixation,jsons/v1_VE250_randls_0.json,http://54.235.29.9/FacialAge/BNav_EC2/DepthDuration/v2_depth_duration_MTurk/v2_DepthDuration_HTML.html#325,325,1366,625,1366,768,9-3-2022,9-28-37,143,depth_duration_stimuli/002414_2014-06-28_20-24-58_260595134347_rgbf000067-resize_4/002414_2014-06-28_20-24-58_260595134347_rgbf000067-resize_4-target.png,250,4.363,6,2695,267,meters,jsons/v1_VE250_randls_0.json,939287,1894172,40,Woman
143,233432,DepthScenes,duration_manipulation_targetAtFixation,jsons/v1_VE250_randls_0.json,http://54.235.29.9/FacialAge/BNav_EC2/DepthDuration/v2_depth_duration_MTurk/v2_DepthDuration_HTML.html#325,325,1366,625,1366,768,9-3-2022,9-28-37,144,depth_duration_stimuli/000470_2014-06-09_19-42-40_260595134347_rgbf000094-resize_1/000470_2014-06-09_19-42-40_260595134347_rgbf000094-resize_1-target.png,250,1.831,5,2422,248,meters,jsons/v1_VE250_randls_0.json,939287,1894172,40,Woman
144,233432,DepthScenes,duration_manipulation_targetAtFixation,jsons/v1_VE250_randls_0.json,http://54.235.29.9/FacialAge/BNav_EC2/DepthDuration/v2_depth_duration_MTurk/v2_DepthDuration_HTML.html#325,325,1366,625,1366,768,9-3-2022,9-28-37,145,depth_duration_stimuli/000109_2014-05-14_23-41-52_260595134347_rgbf000035-resize_9/000109_2014-05-14_23-41-52_260595134347_rgbf000035-resize_9-target.png,250,1.3545,6,2845,242,meters,jsons/v1_VE250_randls_0.json,939287,1894172,40,Woman
145,233432,DepthScenes,duration_manipulation_targetAtFixation,jsons/v1_VE250_randls_0.json,http://54.235.29.9/FacialAge/BNav_EC2/DepthDuration/v2_depth_duration_MTurk/v2_DepthDuration_HTML.html#325,325,1366,625,1366,768,9-3-2022,9-28-37,146,depth_duration_stimuli/001498_2014-06-19_17-45-14_260595134347_rgbf000129-resize_4/001498_2014-06-19_17-45-14_260595134347_rgbf000129-resize-original.jpg,250,1.4075,0,2361,250,meters,jsons/v1_VE250_randls_0.json,939287,1894172,40,Woman
146,233432,DepthScenes,duration_manipulation_targetAtFixation,jsons/v1_VE250_randls_0.json,http://54.235.29.9/FacialAge/BNav_EC2/DepthDuration/v2_depth_duration_MTurk/v2_DepthDuration_HTML.html#325,325,1366,625,1366,768,9-3-2022,9-28-37,147,depth_duration_stimuli/000436_2014-06-09_22-25-11_260595134347_rgbf000137-resize_1/000436_2014-06-09_22-25-11_260595134347_rgbf000137-resize_1-target.png,250,4.0705,8,2377,250,meters,jsons/v1_VE250_randls_0.json,939287,1894172,40,Woman
147,233432,DepthScenes,duration_manipulation_targetAtFixation,jsons/v1_VE250_randls_0.json,http://54.235.29.9/FacialAge/BNav_EC2/DepthDuration/v2_depth_duration_MTurk/v2_DepthDuration_HTML.html#325,325,1366,625,1366,768,9-3-2022,9-28-37,148,depth_duration_stimuli/002444_2014-06-28_20-32-08_260595134347_rgbf000027-resize_0/002444_2014-06-28_20-32-08_260595134347_rgbf000027-resize_0-target.png,250,4.388999999999999,7,3237,247,meters,jsons/v1_VE250_randls_0.json,939287,1894172,40,Woman
148,233432,DepthScenes,duration_manipulation_targetAtFixation,jsons/v1_VE250_randls_0.json,http://54.235.29.9/FacialAge/BNav_EC2/DepthDuration/v2_depth_duration_MTurk/v2_DepthDuration_HTML.html#325,325,1366,625,1366,768,9-3-2022,9-28-37,149,depth_duration_stimuli/000493_2014-06-09_21-01-18_260595134347_rgbf000196-resize_3/000493_2014-06-09_21-01-18_260595134347_rgbf000196-resize_3-target.png,250,3.44,6,2727,243,meters,jsons/v1_VE250_randls_0.json,939287,1894172,40,Woman
149,233432,DepthScenes,duration_manipulation_targetAtFixation,jsons/v1_VE250_randls_0.json,http://54.235.29.9/FacialAge/BNav_EC2/DepthDuration/v2_depth_duration_MTurk/v2_DepthDuration_HTML.html#325,325,1366,625,1366,768,9-3-2022,9-28-37,150,depth_duration_stimuli/000191_2014-05-12_17-07-38_260595134347_rgbf000199-resize_0/000191_2014-05-12_17-07-38_260595134347_rgbf000199-resize_0-target.png,250,3.7995,10,2935,259,meters,jsons/v1_VE250_randls_0.json,939287,1894172,40,Woman
150,233432,DepthScenes,duration_manipulation_targetAtFixation,jsons/v1_VE250_randls_0.json,http://54.235.29.9/FacialAge/BNav_EC2/DepthDuration/v2_depth_duration_MTurk/v2_DepthDuration_HTML.html#325,325,1366,625,1366,768,9-3-2022,9-28-37,151,depth_duration_stimuli/001092_2014-06-15_17-34-58_260595134347_rgbf000171-resize_3/001092_2014-06-15_17-34-58_260595134347_rgbf000171-resize_3-target.png,250,2.6935,6,2796,249,meters,jsons/v1_VE250_randls_0.json,939287,1894172,40,Woman
151,233432,DepthScenes,duration_manipulation_targetAtFixation,jsons/v1_VE250_randls_0.json,http://54.235.29.9/FacialAge/BNav_EC2/DepthDuration/v2_depth_duration_MTurk/v2_DepthDuration_HTML.html#325,325,1366,625,1366,768,9-3-2022,9-28-37,152,depth_duration_stimuli/002545_2014-06-24_13-38-53_094959634447_rgbf000080-resize_4/002545_2014-06-24_13-38-53_094959634447_rgbf000080-resize_4-target.png,250,1.9205,7,2805,250,meters,jsons/v1_VE250_randls_0.json,939287,1894172,40,Woman
152,233432,DepthScenes,duration_manipulation_targetAtFixation,jsons/v1_VE250_randls_0.json,http://54.235.29.9/FacialAge/BNav_EC2/DepthDuration/v2_depth_duration_MTurk/v2_DepthDuration_HTML.html#325,325,1366,625,1366,768,9-3-2022,9-28-37,153,depth_duration_stimuli/001158_2014-06-17_15-32-16_260595134347_rgbf000138-resize_2/001158_2014-06-17_15-32-16_260595134347_rgbf000138-resize_2-target.png,250,4.5315,8,2847,246,meters,jsons/v1_VE250_randls_0.json,939287,1894172,40,Woman
153,233432,DepthScenes,duration_manipulation_targetAtFixation,jsons/v1_VE250_randls_0.json,http://54.235.29.9/FacialAge/BNav_EC2/DepthDuration/v2_depth_duration_MTurk/v2_DepthDuration_HTML.html#325,325,1366,625,1366,768,9-3-2022,9-28-37,154,depth_duration_stimuli/000556_2014-06-09_22-42-56_260595134347_rgbf000214-resize_1/000556_2014-06-09_22-42-56_260595134347_rgbf000214-resize_1-target.png,250,4.8415,6,2350,248,meters,jsons/v1_VE250_randls_0.json,939287,1894172,40,Woman
154,233432,DepthScenes,duration_manipulation_targetAtFixation,jsons/v1_VE250_randls_0.json,http://54.235.29.9/FacialAge/BNav_EC2/DepthDuration/v2_depth_duration_MTurk/v2_DepthDuration_HTML.html#325,325,1366,625,1366,768,9-3-2022,9-28-37,155,depth_duration_stimuli/003534_2014-05-22_15-06-10_094959634447_rgbf000102-resize_4/003534_2014-05-22_15-06-10_094959634447_rgbf000102-resize_4-target.png,250,1.426,5,2566,247,meters,jsons/v1_VE250_randls_0.json,939287,1894172,40,Woman
155,233432,DepthScenes,duration_manipulation_targetAtFixation,jsons/v1_VE250_randls_0.json,http://54.235.29.9/FacialAge/BNav_EC2/DepthDuration/v2_depth_duration_MTurk/v2_DepthDuration_HTML.html#325,325,1366,625,1366,768,9-3-2022,9-28-37,156,depth_duration_stimuli/002637_2014-06-24_14-51-13_094959634447_rgbf000066-resize_4/002637_2014-06-24_14-51-13_094959634447_rgbf000066-resize_4-target.png,250,1.9955,6,2401,254,meters,jsons/v1_VE250_randls_0.json,939287,1894172,40,Woman
156,233432,DepthScenes,duration_manipulation_targetAtFixation,jsons/v1_VE250_randls_0.json,http://54.235.29.9/FacialAge/BNav_EC2/DepthDuration/v2_depth_duration_MTurk/v2_DepthDuration_HTML.html#325,325,1366,625,1366,768,9-3-2022,9-28-37,157,depth_duration_stimuli/003492_2014-05-21_15-50-55_094959634447_rgbf000828-resize_1/003492_2014-05-21_15-50-55_094959634447_rgbf000828-resize_1-target.png,250,4.06875,7,2411,242,meters,jsons/v1_VE250_randls_0.json,939287,1894172,40,Woman
157,233432,DepthScenes,duration_manipulation_targetAtFixation,jsons/v1_VE250_randls_0.json,http://54.235.29.9/FacialAge/BNav_EC2/DepthDuration/v2_depth_duration_MTurk/v2_DepthDuration_HTML.html#325,325,1366,625,1366,768,9-3-2022,9-28-37,158,depth_duration_stimuli/002568_2014-06-24_13-59-21_094959634447_rgbf000062-resize_4/002568_2014-06-24_13-59-21_094959634447_rgbf000062-resize_4-target.png,250,3.015,7,22058,247,meters,jsons/v1_VE250_randls_0.json,939287,1894172,40,Woman
158,233432,DepthScenes,duration_manipulation_targetAtFixation,jsons/v1_VE250_randls_0.json,http://54.235.29.9/FacialAge/BNav_EC2/DepthDuration/v2_depth_duration_MTurk/v2_DepthDuration_HTML.html#325,325,1366,625,1366,768,9-3-2022,9-28-37,159,depth_duration_stimuli/001066_2014-06-08_22-03-20_260595134347_rgbf000066-resize_4/001066_2014-06-08_22-03-20_260595134347_rgbf000066-resize_4-target.png,250,4.2330000000000005,8,3518,247,meters,jsons/v1_VE250_randls_0.json,939287,1894172,40,Woman
159,233432,DepthScenes,duration_manipulation_targetAtFixation,jsons/v1_VE250_randls_0.json,http://54.235.29.9/FacialAge/BNav_EC2/DepthDuration/v2_depth_duration_MTurk/v2_DepthDuration_HTML.html#325,325,1366,625,1366,768,9-3-2022,9-28-37,160,depth_duration_stimuli/000742_2014-06-08_18-48-09_260595134347_rgbf000164-resize_4/000742_2014-06-08_18-48-09_260595134347_rgbf000164-resize_4-target.png,250,4.632,5,3010,250,meters,jsons/v1_VE250_randls_0.json,939287,1894172,40,Woman
160,233432,DepthScenes,duration_manipulation_targetAtFixation,jsons/v1_VE250_randls_0.json,http://54.235.29.9/FacialAge/BNav_EC2/DepthDuration/v2_depth_duration_MTurk/v2_DepthDuration_HTML.html#325,325,1366,625,1366,768,9-3-2022,9-28-37,161,depth_duration_stimuli/002039_2014-06-24_20-22-38_260595134347_rgbf000084-resize_1/002039_2014-06-24_20-22-38_260595134347_rgbf000084-resize_1-target.png,250,4.408,5,2426,257,meters,jsons/v1_VE250_randls_0.json,939287,1894172,40,Woman
161,233432,DepthScenes,duration_manipulation_targetAtFixation,jsons/v1_VE250_randls_0.json,http://54.235.29.9/FacialAge/BNav_EC2/DepthDuration/v2_depth_duration_MTurk/v2_DepthDuration_HTML.html#325,325,1366,625,1366,768,9-3-2022,9-28-37,162,depth_duration_stimuli/002103_2014-06-25_20-00-40_260595134347_rgbf000049-resize_0/002103_2014-06-25_20-00-40_260595134347_rgbf000049-resize_0-target.png,250,4.105,9,2351,251,meters,jsons/v1_VE250_randls_0.json,939287,1894172,40,Woman
162,233432,DepthScenes,duration_manipulation_targetAtFixation,jsons/v1_VE250_randls_0.json,http://54.235.29.9/FacialAge/BNav_EC2/DepthDuration/v2_depth_duration_MTurk/v2_DepthDuration_HTML.html#325,325,1366,625,1366,768,9-3-2022,9-28-37,163,depth_duration_stimuli/000758_2014-06-08_22-05-08_260595134347_rgbf000085-resize_0/000758_2014-06-08_22-05-08_260595134347_rgbf000085-resize_0-target.png,250,3.3810000000000002,8,2262,246,meters,jsons/v1_VE250_randls_0.json,939287,1894172,40,Woman
163,233432,DepthScenes,duration_manipulation_targetAtFixation,jsons/v1_VE250_randls_0.json,http://54.235.29.9/FacialAge/BNav_EC2/DepthDuration/v2_depth_duration_MTurk/v2_DepthDuration_HTML.html#325,325,1366,625,1366,768,9-3-2022,9-28-37,164,depth_duration_stimuli/000854_2014-06-09_19-43-13_260595134347_rgbf000066-resize_0/000854_2014-06-09_19-43-13_260595134347_rgbf000066-resize_0-target.png,250,3.068,5,2338,242,meters,jsons/v1_VE250_randls_0.json,939287,1894172,40,Woman
