,subjID,experimentName,versionName,sequenceName,url,selected_row,windowWidth,windowHeight,screenWidth,screenHeight,startDate,startTime,trial,stimulus,duration,actual_depth,depth_estimate,trial_RT,log_sceneDuration,unitSelection,seq_filepath,experimentTime,totalTime,age,gender
0,233997,DepthScenes,duration_manipulation_targetAtFixation,jsons/VE125_randls_31_rotated.json,http://54.235.29.9/FacialAge/BNav_EC2/DepthDuration/v2_depth_duration_MTurk/v2_DepthDuration_HTML.html#67,67,1366,768,1366,768,8-21-2022,8-36-2,1,depth_duration_stimuli/001136_2014-06-17_15-19-41_260595134347_rgbf000076-resize_3/001136_2014-06-17_15-19-41_260595134347_rgbf000076-resize_3-target.png,125,1.8655,6.0,4777,124,feet,jsons/VE125_randls_31_rotated.json,1272903,2931106,51,Woman
1,233997,DepthScenes,duration_manipulation_targetAtFixation,jsons/VE125_randls_31_rotated.json,http://54.235.29.9/FacialAge/BNav_EC2/DepthDuration/v2_depth_duration_MTurk/v2_DepthDuration_HTML.html#67,67,1366,768,1366,768,8-21-2022,8-36-2,2,depth_duration_stimuli/001164_2014-06-17_15-35-46_260595134347_rgbf000085-resize_3/001164_2014-06-17_15-35-46_260595134347_rgbf000085-resize_3-target.png,125,2.354,7.0,5797,139,feet,jsons/VE125_randls_31_rotated.json,1272903,2931106,51,Woman
2,233997,DepthScenes,duration_manipulation_targetAtFixation,jsons/VE125_randls_31_rotated.json,http://54.235.29.9/FacialAge/BNav_EC2/DepthDuration/v2_depth_duration_MTurk/v2_DepthDuration_HTML.html#67,67,1366,768,1366,768,8-21-2022,8-36-2,3,depth_duration_stimuli/001828_2014-06-26_21-40-03_260595134347_rgbf000024-resize_0/001828_2014-06-26_21-40-03_260595134347_rgbf000024-resize_0-target.png,125,4.8260000000000005,8.0,3932,124,feet,jsons/VE125_randls_31_rotated.json,1272903,2931106,51,Woman
3,233997,DepthScenes,duration_manipulation_targetAtFixation,jsons/VE125_randls_31_rotated.json,http://54.235.29.9/FacialAge/BNav_EC2/DepthDuration/v2_depth_duration_MTurk/v2_DepthDuration_HTML.html#67,67,1366,768,1366,768,8-21-2022,8-36-2,4,depth_duration_stimuli/000009_2014-05-26_14-32-05_260595134347_rgbf000034-resize_3/000009_2014-05-26_14-32-05_260595134347_rgbf000034-resize_3-target.png,125,3.8715,8.0,5235,109,feet,jsons/VE125_randls_31_rotated.json,1272903,2931106,51,Woman
4,233997,DepthScenes,duration_manipulation_targetAtFixation,jsons/VE125_randls_31_rotated.json,http://54.235.29.9/FacialAge/BNav_EC2/DepthDuration/v2_depth_duration_MTurk/v2_DepthDuration_HTML.html#67,67,1366,768,1366,768,8-21-2022,8-36-2,5,depth_duration_stimuli/002340_2014-06-28_20-05-46_260595134347_rgbf000113-resize_0/002340_2014-06-28_20-05-46_260595134347_rgbf000113-resize_0-target.png,125,2.4735,7.0,7241,124,feet,jsons/VE125_randls_31_rotated.json,1272903,2931106,51,Woman
5,233997,DepthScenes,duration_manipulation_targetAtFixation,jsons/VE125_randls_31_rotated.json,http://54.235.29.9/FacialAge/BNav_EC2/DepthDuration/v2_depth_duration_MTurk/v2_DepthDuration_HTML.html#67,67,1366,768,1366,768,8-21-2022,8-36-2,6,depth_duration_stimuli/001016_2014-06-09_16-16-10_260595134347_rgbf000112-resize_5/001016_2014-06-09_16-16-10_260595134347_rgbf000112-resize_5-target.png,125,1.6565,7.0,7394,124,feet,jsons/VE125_randls_31_rotated.json,1272903,2931106,51,Woman
6,233997,DepthScenes,duration_manipulation_targetAtFixation,jsons/VE125_randls_31_rotated.json,http://54.235.29.9/FacialAge/BNav_EC2/DepthDuration/v2_depth_duration_MTurk/v2_DepthDuration_HTML.html#67,67,1366,768,1366,768,8-21-2022,8-36-2,7,depth_duration_stimuli/001617_2014-06-20_11-35-32_260595134347_rgbf000066-resize_1/001617_2014-06-20_11-35-32_260595134347_rgbf000066-resize_1-target.png,125,3.7910000000000004,8.0,4312,125,feet,jsons/VE125_randls_31_rotated.json,1272903,2931106,51,Woman
7,233997,DepthScenes,duration_manipulation_targetAtFixation,jsons/VE125_randls_31_rotated.json,http://54.235.29.9/FacialAge/BNav_EC2/DepthDuration/v2_depth_duration_MTurk/v2_DepthDuration_HTML.html#67,67,1366,768,1366,768,8-21-2022,8-36-2,8,depth_duration_stimuli/001806_2014-06-26_20-50-20_260595134347_rgbf000091-resize_1/001806_2014-06-26_20-50-20_260595134347_rgbf000091-resize_1-target.png,125,2.7305,5.0,7426,123,feet,jsons/VE125_randls_31_rotated.json,1272903,2931106,51,Woman
8,233997,DepthScenes,duration_manipulation_targetAtFixation,jsons/VE125_randls_31_rotated.json,http://54.235.29.9/FacialAge/BNav_EC2/DepthDuration/v2_depth_duration_MTurk/v2_DepthDuration_HTML.html#67,67,1366,768,1366,768,8-21-2022,8-36-2,9,depth_duration_stimuli/000502_2014-06-08_23-02-32_260595134347_rgbf000063-resize_4/000502_2014-06-08_23-02-32_260595134347_rgbf000063-resize_4-target.png,125,2.431,6.0,5969,123,feet,jsons/VE125_randls_31_rotated.json,1272903,2931106,51,Woman
9,233997,DepthScenes,duration_manipulation_targetAtFixation,jsons/VE125_randls_31_rotated.json,http://54.235.29.9/FacialAge/BNav_EC2/DepthDuration/v2_depth_duration_MTurk/v2_DepthDuration_HTML.html#67,67,1366,768,1366,768,8-21-2022,8-36-2,10,depth_duration_stimuli/001199_2014-06-17_16-03-48_260595134347_rgbf000077-resize_0/001199_2014-06-17_16-03-48_260595134347_rgbf000077-resize_0-target.png,125,3.4375,7.0,6466,113,feet,jsons/VE125_randls_31_rotated.json,1272903,2931106,51,Woman
10,233997,DepthScenes,duration_manipulation_targetAtFixation,jsons/VE125_randls_31_rotated.json,http://54.235.29.9/FacialAge/BNav_EC2/DepthDuration/v2_depth_duration_MTurk/v2_DepthDuration_HTML.html#67,67,1366,768,1366,768,8-21-2022,8-36-2,11,depth_duration_stimuli/000709_2014-06-08_13-51-55_260595134347_rgbf000068-resize_3/000709_2014-06-08_13-51-55_260595134347_rgbf000068-resize_3-target.png,125,1.8030000000000002,6.0,4337,126,feet,jsons/VE125_randls_31_rotated.json,1272903,2931106,51,Woman
11,233997,DepthScenes,duration_manipulation_targetAtFixation,jsons/VE125_randls_31_rotated.json,http://54.235.29.9/FacialAge/BNav_EC2/DepthDuration/v2_depth_duration_MTurk/v2_DepthDuration_HTML.html#67,67,1366,768,1366,768,8-21-2022,8-36-2,12,depth_duration_stimuli/002057_2014-06-24_21-00-13_260595134347_rgbf000120-resize_1/002057_2014-06-24_21-00-13_260595134347_rgbf000120-resize_1-target.png,125,2.967,9.0,4335,125,feet,jsons/VE125_randls_31_rotated.json,1272903,2931106,51,Woman
12,233997,DepthScenes,duration_manipulation_targetAtFixation,jsons/VE125_randls_31_rotated.json,http://54.235.29.9/FacialAge/BNav_EC2/DepthDuration/v2_depth_duration_MTurk/v2_DepthDuration_HTML.html#67,67,1366,768,1366,768,8-21-2022,8-36-2,13,depth_duration_stimuli/000665_2014-06-09_20-42-35_260595134347_rgbf000110-resize_1/000665_2014-06-09_20-42-35_260595134347_rgbf000110-resize_1-target.png,125,3.057,8.0,4860,123,feet,jsons/VE125_randls_31_rotated.json,1272903,2931106,51,Woman
13,233997,DepthScenes,duration_manipulation_targetAtFixation,jsons/VE125_randls_31_rotated.json,http://54.235.29.9/FacialAge/BNav_EC2/DepthDuration/v2_depth_duration_MTurk/v2_DepthDuration_HTML.html#67,67,1366,768,1366,768,8-21-2022,8-36-2,14,depth_duration_stimuli/001150_2014-06-17_15-27-34_260595134347_rgbf000108-resize_2/001150_2014-06-17_15-27-34_260595134347_rgbf000108-resize_2-target.png,125,4.0325,9.0,6291,126,feet,jsons/VE125_randls_31_rotated.json,1272903,2931106,51,Woman
14,233997,DepthScenes,duration_manipulation_targetAtFixation,jsons/VE125_randls_31_rotated.json,http://54.235.29.9/FacialAge/BNav_EC2/DepthDuration/v2_depth_duration_MTurk/v2_DepthDuration_HTML.html#67,67,1366,768,1366,768,8-21-2022,8-36-2,15,depth_duration_stimuli/000734_2014-06-08_17-39-11_260595134347_rgbf000128-resize_2/000734_2014-06-08_17-39-11_260595134347_rgbf000128-resize_2-target.png,125,4.098,9.0,5801,125,feet,jsons/VE125_randls_31_rotated.json,1272903,2931106,51,Woman
15,233997,DepthScenes,duration_manipulation_targetAtFixation,jsons/VE125_randls_31_rotated.json,http://54.235.29.9/FacialAge/BNav_EC2/DepthDuration/v2_depth_duration_MTurk/v2_DepthDuration_HTML.html#67,67,1366,768,1366,768,8-21-2022,8-36-2,16,depth_duration_stimuli/000739_2014-06-08_18-45-58_260595134347_rgbf000068-resize_1/000739_2014-06-08_18-45-58_260595134347_rgbf000068-resize_1-target.png,125,3.534,8.0,5055,124,feet,jsons/VE125_randls_31_rotated.json,1272903,2931106,51,Woman
16,233997,DepthScenes,duration_manipulation_targetAtFixation,jsons/VE125_randls_31_rotated.json,http://54.235.29.9/FacialAge/BNav_EC2/DepthDuration/v2_depth_duration_MTurk/v2_DepthDuration_HTML.html#67,67,1366,768,1366,768,8-21-2022,8-36-2,17,depth_duration_stimuli/000635_2014-06-08_16-38-42_260595134347_rgbf000106-resize_1/000635_2014-06-08_16-38-42_260595134347_rgbf000106-resize_1-target.png,125,2.074,7.0,3401,124,feet,jsons/VE125_randls_31_rotated.json,1272903,2931106,51,Woman
17,233997,DepthScenes,duration_manipulation_targetAtFixation,jsons/VE125_randls_31_rotated.json,http://54.235.29.9/FacialAge/BNav_EC2/DepthDuration/v2_depth_duration_MTurk/v2_DepthDuration_HTML.html#67,67,1366,768,1366,768,8-21-2022,8-36-2,18,depth_duration_stimuli/002279_2014-06-28_18-55-32_260595134347_rgbf000040-resize_5/002279_2014-06-28_18-55-32_260595134347_rgbf000040-resize_5-target.png,125,1.5043333333333,5.0,3368,117,feet,jsons/VE125_randls_31_rotated.json,1272903,2931106,51,Woman
18,233997,DepthScenes,duration_manipulation_targetAtFixation,jsons/VE125_randls_31_rotated.json,http://54.235.29.9/FacialAge/BNav_EC2/DepthDuration/v2_depth_duration_MTurk/v2_DepthDuration_HTML.html#67,67,1366,768,1366,768,8-21-2022,8-36-2,19,depth_duration_stimuli/001498_2014-06-19_17-45-14_260595134347_rgbf000129-resize_4/001498_2014-06-19_17-45-14_260595134347_rgbf000129-resize-original.jpg,125,1.4075,5.0,3956,125,feet,jsons/VE125_randls_31_rotated.json,1272903,2931106,51,Woman
19,233997,DepthScenes,duration_manipulation_targetAtFixation,jsons/VE125_randls_31_rotated.json,http://54.235.29.9/FacialAge/BNav_EC2/DepthDuration/v2_depth_duration_MTurk/v2_DepthDuration_HTML.html#67,67,1366,768,1366,768,8-21-2022,8-36-2,20,depth_duration_stimuli/003083_2014-06-15_15-21-03_094959634447_rgbf000063-resize_1/003083_2014-06-15_15-21-03_094959634447_rgbf000063-resize_1-target.png,125,4.1405,8.0,3968,124,feet,jsons/VE125_randls_31_rotated.json,1272903,2931106,51,Woman
20,233997,DepthScenes,duration_manipulation_targetAtFixation,jsons/VE125_randls_31_rotated.json,http://54.235.29.9/FacialAge/BNav_EC2/DepthDuration/v2_depth_duration_MTurk/v2_DepthDuration_HTML.html#67,67,1366,768,1366,768,8-21-2022,8-36-2,21,depth_duration_stimuli/000486_2014-06-09_20-47-20_260595134347_rgbf000143-resize_2/000486_2014-06-09_20-47-20_260595134347_rgbf000143-resize_2-target.png,125,4.8325,7.0,3577,127,feet,jsons/VE125_randls_31_rotated.json,1272903,2931106,51,Woman
21,233997,DepthScenes,duration_manipulation_targetAtFixation,jsons/VE125_randls_31_rotated.json,http://54.235.29.9/FacialAge/BNav_EC2/DepthDuration/v2_depth_duration_MTurk/v2_DepthDuration_HTML.html#67,67,1366,768,1366,768,8-21-2022,8-36-2,22,depth_duration_stimuli/001132_2014-06-17_14-48-54_260595134347_rgbf000100-resize_2/001132_2014-06-17_14-48-54_260595134347_rgbf000100-resize_2-target.png,125,3.753,8.0,6683,126,feet,jsons/VE125_randls_31_rotated.json,1272903,2931106,51,Woman
22,233997,DepthScenes,duration_manipulation_targetAtFixation,jsons/VE125_randls_31_rotated.json,http://54.235.29.9/FacialAge/BNav_EC2/DepthDuration/v2_depth_duration_MTurk/v2_DepthDuration_HTML.html#67,67,1366,768,1366,768,8-21-2022,8-36-2,23,depth_duration_stimuli/001133_2014-06-17_14-49-16_260595134347_rgbf000100-resize_0/001133_2014-06-17_14-49-16_260595134347_rgbf000100-resize_0-target.png,125,4.2115,9.0,4341,126,feet,jsons/VE125_randls_31_rotated.json,1272903,2931106,51,Woman
23,233997,DepthScenes,duration_manipulation_targetAtFixation,jsons/VE125_randls_31_rotated.json,http://54.235.29.9/FacialAge/BNav_EC2/DepthDuration/v2_depth_duration_MTurk/v2_DepthDuration_HTML.html#67,67,1366,768,1366,768,8-21-2022,8-36-2,24,depth_duration_stimuli/001650_2014-06-20_12-09-00_260595134347_rgbf000087-resize_3/001650_2014-06-20_12-09-00_260595134347_rgbf000087-resize_3-target.png,125,1.9505,5.0,3226,124,feet,jsons/VE125_randls_31_rotated.json,1272903,2931106,51,Woman
24,233997,DepthScenes,duration_manipulation_targetAtFixation,jsons/VE125_randls_31_rotated.json,http://54.235.29.9/FacialAge/BNav_EC2/DepthDuration/v2_depth_duration_MTurk/v2_DepthDuration_HTML.html#67,67,1366,768,1366,768,8-21-2022,8-36-2,25,depth_duration_stimuli/000682_2014-06-08_23-14-58_260595134347_rgbf000041-resize_5/000682_2014-06-08_23-14-58_260595134347_rgbf000041-resize_5-target.png,125,2.7239999999999998,7.0,5282,125,feet,jsons/VE125_randls_31_rotated.json,1272903,2931106,51,Woman
25,233997,DepthScenes,duration_manipulation_targetAtFixation,jsons/VE125_randls_31_rotated.json,http://54.235.29.9/FacialAge/BNav_EC2/DepthDuration/v2_depth_duration_MTurk/v2_DepthDuration_HTML.html#67,67,1366,768,1366,768,8-21-2022,8-36-2,26,depth_duration_stimuli/000691_2014-06-08_13-08-50_260595134347_rgbf000132-resize_3/000691_2014-06-08_13-08-50_260595134347_rgbf000132-resize_3-target.png,125,4.1530000000000005,8.0,5675,124,feet,jsons/VE125_randls_31_rotated.json,1272903,2931106,51,Woman
26,233997,DepthScenes,duration_manipulation_targetAtFixation,jsons/VE125_randls_31_rotated.json,http://54.235.29.9/FacialAge/BNav_EC2/DepthDuration/v2_depth_duration_MTurk/v2_DepthDuration_HTML.html#67,67,1366,768,1366,768,8-21-2022,8-36-2,27,depth_duration_stimuli/002213_2014-06-28_18-37-58_260595134347_rgbf000055-resize_1/002213_2014-06-28_18-37-58_260595134347_rgbf000055-resize_1-target.png,125,3.62,8.0,8995,124,feet,jsons/VE125_randls_31_rotated.json,1272903,2931106,51,Woman
27,233997,DepthScenes,duration_manipulation_targetAtFixation,jsons/VE125_randls_31_rotated.json,http://54.235.29.9/FacialAge/BNav_EC2/DepthDuration/v2_depth_duration_MTurk/v2_DepthDuration_HTML.html#67,67,1366,768,1366,768,8-21-2022,8-36-2,28,depth_duration_stimuli/002637_2014-06-24_14-51-13_094959634447_rgbf000066-resize_4/002637_2014-06-24_14-51-13_094959634447_rgbf000066-resize_4-target.png,125,1.9955,6.0,5295,124,feet,jsons/VE125_randls_31_rotated.json,1272903,2931106,51,Woman
28,233997,DepthScenes,duration_manipulation_targetAtFixation,jsons/VE125_randls_31_rotated.json,http://54.235.29.9/FacialAge/BNav_EC2/DepthDuration/v2_depth_duration_MTurk/v2_DepthDuration_HTML.html#67,67,1366,768,1366,768,8-21-2022,8-36-2,29,depth_duration_stimuli/003534_2014-05-22_15-06-10_094959634447_rgbf000102-resize_4/003534_2014-05-22_15-06-10_094959634447_rgbf000102-resize_4-target.png,125,1.426,6.0,24510,121,feet,jsons/VE125_randls_31_rotated.json,1272903,2931106,51,Woman
29,233997,DepthScenes,duration_manipulation_targetAtFixation,jsons/VE125_randls_31_rotated.json,http://54.235.29.9/FacialAge/BNav_EC2/DepthDuration/v2_depth_duration_MTurk/v2_DepthDuration_HTML.html#67,67,1366,768,1366,768,8-21-2022,8-36-2,30,depth_duration_stimuli/002072_2014-06-24_21-48-06_260595134347_rgbf000115-resize_0/002072_2014-06-24_21-48-06_260595134347_rgbf000115-resize-original.jpg,125,4.702,0.0,3886,124,feet,jsons/VE125_randls_31_rotated.json,1272903,2931106,51,Woman
30,233997,DepthScenes,duration_manipulation_targetAtFixation,jsons/VE125_randls_31_rotated.json,http://54.235.29.9/FacialAge/BNav_EC2/DepthDuration/v2_depth_duration_MTurk/v2_DepthDuration_HTML.html#67,67,1366,768,1366,768,8-21-2022,8-36-2,31,depth_duration_stimuli/001235_2014-06-17_16-37-36_260595134347_rgbf000084-resize_4/001235_2014-06-17_16-37-36_260595134347_rgbf000084-resize_4-target.png,125,3.6605,5.0,4674,124,feet,jsons/VE125_randls_31_rotated.json,1272903,2931106,51,Woman
31,233997,DepthScenes,duration_manipulation_targetAtFixation,jsons/VE125_randls_31_rotated.json,http://54.235.29.9/FacialAge/BNav_EC2/DepthDuration/v2_depth_duration_MTurk/v2_DepthDuration_HTML.html#67,67,1366,768,1366,768,8-21-2022,8-36-2,32,depth_duration_stimuli/000788_2014-06-08_22-34-36_260595134347_rgbf000131-resize_1/000788_2014-06-08_22-34-36_260595134347_rgbf000131-resize_1-target.png,125,3.359,5.0,3910,123,feet,jsons/VE125_randls_31_rotated.json,1272903,2931106,51,Woman
32,233997,DepthScenes,duration_manipulation_targetAtFixation,jsons/VE125_randls_31_rotated.json,http://54.235.29.9/FacialAge/BNav_EC2/DepthDuration/v2_depth_duration_MTurk/v2_DepthDuration_HTML.html#67,67,1366,768,1366,768,8-21-2022,8-36-2,33,depth_duration_stimuli/002136_2014-06-25_21-18-03_260595134347_rgbf000109-resize_3/002136_2014-06-25_21-18-03_260595134347_rgbf000109-resize_3-target.png,125,1.9569999999999999,6.0,5770,136,feet,jsons/VE125_randls_31_rotated.json,1272903,2931106,51,Woman
33,233997,DepthScenes,duration_manipulation_targetAtFixation,jsons/VE125_randls_31_rotated.json,http://54.235.29.9/FacialAge/BNav_EC2/DepthDuration/v2_depth_duration_MTurk/v2_DepthDuration_HTML.html#67,67,1366,768,1366,768,8-21-2022,8-36-2,34,depth_duration_stimuli/002964_2014-06-08_17-46-11_094959634447_rgbf000091-resize_4/002964_2014-06-08_17-46-11_094959634447_rgbf000091-resize_4-target.png,125,1.6909999999999998,4.0,3713,121,feet,jsons/VE125_randls_31_rotated.json,1272903,2931106,51,Woman
34,233997,DepthScenes,duration_manipulation_targetAtFixation,jsons/VE125_randls_31_rotated.json,http://54.235.29.9/FacialAge/BNav_EC2/DepthDuration/v2_depth_duration_MTurk/v2_DepthDuration_HTML.html#67,67,1366,768,1366,768,8-21-2022,8-36-2,35,depth_duration_stimuli/001815_2014-06-26_20-52-55_260595134347_rgbf000020-resize_0/001815_2014-06-26_20-52-55_260595134347_rgbf000020-resize_0-target.png,125,3.3865,7.0,4115,125,feet,jsons/VE125_randls_31_rotated.json,1272903,2931106,51,Woman
35,233997,DepthScenes,duration_manipulation_targetAtFixation,jsons/VE125_randls_31_rotated.json,http://54.235.29.9/FacialAge/BNav_EC2/DepthDuration/v2_depth_duration_MTurk/v2_DepthDuration_HTML.html#67,67,1366,768,1366,768,8-21-2022,8-36-2,36,depth_duration_stimuli/001808_2014-06-26_20-50-58_260595134347_rgbf000029-resize_1/001808_2014-06-26_20-50-58_260595134347_rgbf000029-resize_1-target.png,125,4.249,9.0,3637,124,feet,jsons/VE125_randls_31_rotated.json,1272903,2931106,51,Woman
36,233997,DepthScenes,duration_manipulation_targetAtFixation,jsons/VE125_randls_31_rotated.json,http://54.235.29.9/FacialAge/BNav_EC2/DepthDuration/v2_depth_duration_MTurk/v2_DepthDuration_HTML.html#67,67,1366,768,1366,768,8-21-2022,8-36-2,37,depth_duration_stimuli/000103_2014-05-14_22-01-17_260595134347_rgbf000152-resize_5/000103_2014-05-14_22-01-17_260595134347_rgbf000152-resize_5-target.png,125,1.993,8.0,4816,127,feet,jsons/VE125_randls_31_rotated.json,1272903,2931106,51,Woman
37,233997,DepthScenes,duration_manipulation_targetAtFixation,jsons/VE125_randls_31_rotated.json,http://54.235.29.9/FacialAge/BNav_EC2/DepthDuration/v2_depth_duration_MTurk/v2_DepthDuration_HTML.html#67,67,1366,768,1366,768,8-21-2022,8-36-2,38,depth_duration_stimuli/001555_2014-06-20_17-12-10_260595134347_rgbf000065-resize_4/001555_2014-06-20_17-12-10_260595134347_rgbf000065-resize_4-target.png,125,1.633,6.0,3764,109,feet,jsons/VE125_randls_31_rotated.json,1272903,2931106,51,Woman
38,233997,DepthScenes,duration_manipulation_targetAtFixation,jsons/VE125_randls_31_rotated.json,http://54.235.29.9/FacialAge/BNav_EC2/DepthDuration/v2_depth_duration_MTurk/v2_DepthDuration_HTML.html#67,67,1366,768,1366,768,8-21-2022,8-36-2,39,depth_duration_stimuli/001100_2014-06-15_17-46-26_260595134347_rgbf000225-resize_2/001100_2014-06-15_17-46-26_260595134347_rgbf000225-resize_2-target.png,125,2.24,5.0,6547,126,feet,jsons/VE125_randls_31_rotated.json,1272903,2931106,51,Woman
39,233997,DepthScenes,duration_manipulation_targetAtFixation,jsons/VE125_randls_31_rotated.json,http://54.235.29.9/FacialAge/BNav_EC2/DepthDuration/v2_depth_duration_MTurk/v2_DepthDuration_HTML.html#67,67,1366,768,1366,768,8-21-2022,8-36-2,40,depth_duration_stimuli/002784_2014-06-22_19-26-30_094959634447_rgbf000083-resize_3/002784_2014-06-22_19-26-30_094959634447_rgbf000083-resize_3-target.png,125,1.8046666666667,6.0,4728,110,feet,jsons/VE125_randls_31_rotated.json,1272903,2931106,51,Woman
40,233997,DepthScenes,duration_manipulation_targetAtFixation,jsons/VE125_randls_31_rotated.json,http://54.235.29.9/FacialAge/BNav_EC2/DepthDuration/v2_depth_duration_MTurk/v2_DepthDuration_HTML.html#67,67,1366,768,1366,768,8-21-2022,8-36-2,41,depth_duration_stimuli/002444_2014-06-28_20-32-08_260595134347_rgbf000027-resize_0/002444_2014-06-28_20-32-08_260595134347_rgbf000027-resize_0-target.png,125,4.388999999999999,8.0,6036,123,feet,jsons/VE125_randls_31_rotated.json,1272903,2931106,51,Woman
41,233997,DepthScenes,duration_manipulation_targetAtFixation,jsons/VE125_randls_31_rotated.json,http://54.235.29.9/FacialAge/BNav_EC2/DepthDuration/v2_depth_duration_MTurk/v2_DepthDuration_HTML.html#67,67,1366,768,1366,768,8-21-2022,8-36-2,42,depth_duration_stimuli/000436_2014-06-09_22-25-11_260595134347_rgbf000137-resize_1/000436_2014-06-09_22-25-11_260595134347_rgbf000137-resize_1-target.png,125,4.0705,9.0,8892,123,feet,jsons/VE125_randls_31_rotated.json,1272903,2931106,51,Woman
42,233997,DepthScenes,duration_manipulation_targetAtFixation,jsons/VE125_randls_31_rotated.json,http://54.235.29.9/FacialAge/BNav_EC2/DepthDuration/v2_depth_duration_MTurk/v2_DepthDuration_HTML.html#67,67,1366,768,1366,768,8-21-2022,8-36-2,43,depth_duration_stimuli/002414_2014-06-28_20-24-58_260595134347_rgbf000067-resize_4/002414_2014-06-28_20-24-58_260595134347_rgbf000067-resize_4-target.png,125,4.363,7.0,8717,126,feet,jsons/VE125_randls_31_rotated.json,1272903,2931106,51,Woman
43,233997,DepthScenes,duration_manipulation_targetAtFixation,jsons/VE125_randls_31_rotated.json,http://54.235.29.9/FacialAge/BNav_EC2/DepthDuration/v2_depth_duration_MTurk/v2_DepthDuration_HTML.html#67,67,1366,768,1366,768,8-21-2022,8-36-2,44,depth_duration_stimuli/000773_2014-06-08_22-24-54_260595134347_rgbf000093-resize_1/000773_2014-06-08_22-24-54_260595134347_rgbf000093-resize_1-target.png,125,4.973,7.0,4866,126,feet,jsons/VE125_randls_31_rotated.json,1272903,2931106,51,Woman
44,233997,DepthScenes,duration_manipulation_targetAtFixation,jsons/VE125_randls_31_rotated.json,http://54.235.29.9/FacialAge/BNav_EC2/DepthDuration/v2_depth_duration_MTurk/v2_DepthDuration_HTML.html#67,67,1366,768,1366,768,8-21-2022,8-36-2,45,depth_duration_stimuli/002568_2014-06-24_13-59-21_094959634447_rgbf000062-resize_4/002568_2014-06-24_13-59-21_094959634447_rgbf000062-resize_4-target.png,125,3.015,8.0,3871,123,feet,jsons/VE125_randls_31_rotated.json,1272903,2931106,51,Woman
45,233997,DepthScenes,duration_manipulation_targetAtFixation,jsons/VE125_randls_31_rotated.json,http://54.235.29.9/FacialAge/BNav_EC2/DepthDuration/v2_depth_duration_MTurk/v2_DepthDuration_HTML.html#67,67,1366,768,1366,768,8-21-2022,8-36-2,46,depth_duration_stimuli/003492_2014-05-21_15-50-55_094959634447_rgbf000828-resize_1/003492_2014-05-21_15-50-55_094959634447_rgbf000828-resize_1-target.png,125,4.06875,8.0,3936,125,feet,jsons/VE125_randls_31_rotated.json,1272903,2931106,51,Woman
46,233997,DepthScenes,duration_manipulation_targetAtFixation,jsons/VE125_randls_31_rotated.json,http://54.235.29.9/FacialAge/BNav_EC2/DepthDuration/v2_depth_duration_MTurk/v2_DepthDuration_HTML.html#67,67,1366,768,1366,768,8-21-2022,8-36-2,47,depth_duration_stimuli/003079_2014-06-15_15-18-20_094959634447_rgbf000152-resize_8/003079_2014-06-15_15-18-20_094959634447_rgbf000152-resize_8-target.png,125,2.8775,9.0,4562,124,feet,jsons/VE125_randls_31_rotated.json,1272903,2931106,51,Woman
47,233997,DepthScenes,duration_manipulation_targetAtFixation,jsons/VE125_randls_31_rotated.json,http://54.235.29.9/FacialAge/BNav_EC2/DepthDuration/v2_depth_duration_MTurk/v2_DepthDuration_HTML.html#67,67,1366,768,1366,768,8-21-2022,8-36-2,48,depth_duration_stimuli/000506_2014-06-08_23-21-00_260595134347_rgbf000070-resize_7/000506_2014-06-08_23-21-00_260595134347_rgbf000070-resize_7-target.png,125,4.0585,7.0,3732,125,feet,jsons/VE125_randls_31_rotated.json,1272903,2931106,51,Woman
48,233997,DepthScenes,duration_manipulation_targetAtFixation,jsons/VE125_randls_31_rotated.json,http://54.235.29.9/FacialAge/BNav_EC2/DepthDuration/v2_depth_duration_MTurk/v2_DepthDuration_HTML.html#67,67,1366,768,1366,768,8-21-2022,8-36-2,49,depth_duration_stimuli/001170_2014-06-17_15-43-44_260595134347_rgbf000096-resize_6/001170_2014-06-17_15-43-44_260595134347_rgbf000096-resize-original.jpg,125,1.1909999999999998,0.0,4624,127,feet,jsons/VE125_randls_31_rotated.json,1272903,2931106,51,Woman
49,233997,DepthScenes,duration_manipulation_targetAtFixation,jsons/VE125_randls_31_rotated.json,http://54.235.29.9/FacialAge/BNav_EC2/DepthDuration/v2_depth_duration_MTurk/v2_DepthDuration_HTML.html#67,67,1366,768,1366,768,8-21-2022,8-36-2,50,depth_duration_stimuli/002949_2014-06-26_15-57-42_094959634447_rgbf000079-resize_1/002949_2014-06-26_15-57-42_094959634447_rgbf000079-resize_1-target.png,125,1.8915,5.0,4438,124,feet,jsons/VE125_randls_31_rotated.json,1272903,2931106,51,Woman
50,233997,DepthScenes,duration_manipulation_targetAtFixation,jsons/VE125_randls_31_rotated.json,http://54.235.29.9/FacialAge/BNav_EC2/DepthDuration/v2_depth_duration_MTurk/v2_DepthDuration_HTML.html#67,67,1366,768,1366,768,8-21-2022,8-36-2,51,depth_duration_stimuli/000522_2014-06-08_13-35-06_260595134347_rgbf000244-resize_1/000522_2014-06-08_13-35-06_260595134347_rgbf000244-resize_1-target.png,125,2.3715,4.0,9040,126,feet,jsons/VE125_randls_31_rotated.json,1272903,2931106,51,Woman
51,233997,DepthScenes,duration_manipulation_targetAtFixation,jsons/VE125_randls_31_rotated.json,http://54.235.29.9/FacialAge/BNav_EC2/DepthDuration/v2_depth_duration_MTurk/v2_DepthDuration_HTML.html#67,67,1366,768,1366,768,8-21-2022,8-36-2,52,depth_duration_stimuli/001571_2014-06-20_17-21-32_260595134347_rgbf000089-resize_1/001571_2014-06-20_17-21-32_260595134347_rgbf000089-resize_1-target.png,125,1.86,6.0,76974,136,feet,jsons/VE125_randls_31_rotated.json,1272903,2931106,51,Woman
52,233997,DepthScenes,duration_manipulation_targetAtFixation,jsons/VE125_randls_31_rotated.json,http://54.235.29.9/FacialAge/BNav_EC2/DepthDuration/v2_depth_duration_MTurk/v2_DepthDuration_HTML.html#67,67,1366,768,1366,768,8-21-2022,8-36-2,53,depth_duration_stimuli/002272_2014-06-28_18-53-56_260595134347_rgbf000067-resize_2/002272_2014-06-28_18-53-56_260595134347_rgbf000067-resize_2-target.png,125,1.138,5.0,3134,127,feet,jsons/VE125_randls_31_rotated.json,1272903,2931106,51,Woman
53,233997,DepthScenes,duration_manipulation_targetAtFixation,jsons/VE125_randls_31_rotated.json,http://54.235.29.9/FacialAge/BNav_EC2/DepthDuration/v2_depth_duration_MTurk/v2_DepthDuration_HTML.html#67,67,1366,768,1366,768,8-21-2022,8-36-2,54,depth_duration_stimuli/000549_2014-06-08_22-10-24_260595134347_rgbf000247-resize_3/000549_2014-06-08_22-10-24_260595134347_rgbf000247-resize_3-target.png,125,1.841,5.0,5665,124,feet,jsons/VE125_randls_31_rotated.json,1272903,2931106,51,Woman
54,233997,DepthScenes,duration_manipulation_targetAtFixation,jsons/VE125_randls_31_rotated.json,http://54.235.29.9/FacialAge/BNav_EC2/DepthDuration/v2_depth_duration_MTurk/v2_DepthDuration_HTML.html#67,67,1366,768,1366,768,8-21-2022,8-36-2,55,depth_duration_stimuli/001055_2014-06-08_18-45-35_260595134347_rgbf000111-resize_4/001055_2014-06-08_18-45-35_260595134347_rgbf000111-resize_4-target.png,125,2.4290000000000003,7.0,4952,116,feet,jsons/VE125_randls_31_rotated.json,1272903,2931106,51,Woman
55,233997,DepthScenes,duration_manipulation_targetAtFixation,jsons/VE125_randls_31_rotated.json,http://54.235.29.9/FacialAge/BNav_EC2/DepthDuration/v2_depth_duration_MTurk/v2_DepthDuration_HTML.html#67,67,1366,768,1366,768,8-21-2022,8-36-2,56,depth_duration_stimuli/003495_2014-05-21_16-01-51_094959634447_rgbf000100-resize_3/003495_2014-05-21_16-01-51_094959634447_rgbf000100-resize_3-target.png,125,1.6255,4.0,4159,125,feet,jsons/VE125_randls_31_rotated.json,1272903,2931106,51,Woman
56,233997,DepthScenes,duration_manipulation_targetAtFixation,jsons/VE125_randls_31_rotated.json,http://54.235.29.9/FacialAge/BNav_EC2/DepthDuration/v2_depth_duration_MTurk/v2_DepthDuration_HTML.html#67,67,1366,768,1366,768,8-21-2022,8-36-2,57,depth_duration_stimuli/001244_2014-06-17_16-47-45_260595134347_rgbf000030-resize_4/001244_2014-06-17_16-47-45_260595134347_rgbf000030-resize_4-target.png,125,2.0425,6.0,3259,126,feet,jsons/VE125_randls_31_rotated.json,1272903,2931106,51,Woman
57,233997,DepthScenes,duration_manipulation_targetAtFixation,jsons/VE125_randls_31_rotated.json,http://54.235.29.9/FacialAge/BNav_EC2/DepthDuration/v2_depth_duration_MTurk/v2_DepthDuration_HTML.html#67,67,1366,768,1366,768,8-21-2022,8-36-2,58,depth_duration_stimuli/003081_2014-06-15_15-19-16_094959634447_rgbf000150-resize_1/003081_2014-06-15_15-19-16_094959634447_rgbf000150-resize_1-target.png,125,3.9125,8.0,4739,122,feet,jsons/VE125_randls_31_rotated.json,1272903,2931106,51,Woman
58,233997,DepthScenes,duration_manipulation_targetAtFixation,jsons/VE125_randls_31_rotated.json,http://54.235.29.9/FacialAge/BNav_EC2/DepthDuration/v2_depth_duration_MTurk/v2_DepthDuration_HTML.html#67,67,1366,768,1366,768,8-21-2022,8-36-2,59,depth_duration_stimuli/001417_2014-06-19_16-25-36_260595134347_rgbf000115-resize_5/001417_2014-06-19_16-25-36_260595134347_rgbf000115-resize_5-target.png,125,4.6255,8.0,4059,126,feet,jsons/VE125_randls_31_rotated.json,1272903,2931106,51,Woman
59,233997,DepthScenes,duration_manipulation_targetAtFixation,jsons/VE125_randls_31_rotated.json,http://54.235.29.9/FacialAge/BNav_EC2/DepthDuration/v2_depth_duration_MTurk/v2_DepthDuration_HTML.html#67,67,1366,768,1366,768,8-21-2022,8-36-2,60,depth_duration_stimuli/000943_2014-06-09_19-31-07_260595134347_rgbf000128-resize_1/000943_2014-06-09_19-31-07_260595134347_rgbf000128-resize_1-target.png,125,1.9765,8.0,28094,126,feet,jsons/VE125_randls_31_rotated.json,1272903,2931106,51,Woman
60,233997,DepthScenes,duration_manipulation_targetAtFixation,jsons/VE125_randls_31_rotated.json,http://54.235.29.9/FacialAge/BNav_EC2/DepthDuration/v2_depth_duration_MTurk/v2_DepthDuration_HTML.html#67,67,1366,768,1366,768,8-21-2022,8-36-2,61,depth_duration_stimuli/003070_2014-06-15_14-58-27_094959634447_rgbf000150-resize_3/003070_2014-06-15_14-58-27_094959634447_rgbf000150-resize_3-target.png,125,2.9415,7.0,3641,114,feet,jsons/VE125_randls_31_rotated.json,1272903,2931106,51,Woman
61,233997,DepthScenes,duration_manipulation_targetAtFixation,jsons/VE125_randls_31_rotated.json,http://54.235.29.9/FacialAge/BNav_EC2/DepthDuration/v2_depth_duration_MTurk/v2_DepthDuration_HTML.html#67,67,1366,768,1366,768,8-21-2022,8-36-2,62,depth_duration_stimuli/000556_2014-06-09_22-42-56_260595134347_rgbf000214-resize_1/000556_2014-06-09_22-42-56_260595134347_rgbf000214-resize_1-target.png,125,4.8415,9.0,4772,131,feet,jsons/VE125_randls_31_rotated.json,1272903,2931106,51,Woman
62,233997,DepthScenes,duration_manipulation_targetAtFixation,jsons/VE125_randls_31_rotated.json,http://54.235.29.9/FacialAge/BNav_EC2/DepthDuration/v2_depth_duration_MTurk/v2_DepthDuration_HTML.html#67,67,1366,768,1366,768,8-21-2022,8-36-2,63,depth_duration_stimuli/001158_2014-06-17_15-32-16_260595134347_rgbf000138-resize_2/001158_2014-06-17_15-32-16_260595134347_rgbf000138-resize_2-target.png,125,4.5315,9.0,7185,123,feet,jsons/VE125_randls_31_rotated.json,1272903,2931106,51,Woman
63,233997,DepthScenes,duration_manipulation_targetAtFixation,jsons/VE125_randls_31_rotated.json,http://54.235.29.9/FacialAge/BNav_EC2/DepthDuration/v2_depth_duration_MTurk/v2_DepthDuration_HTML.html#67,67,1366,768,1366,768,8-21-2022,8-36-2,64,depth_duration_stimuli/002657_2014-06-13_15-29-54_094959634447_rgbf000150-resize_1/002657_2014-06-13_15-29-54_094959634447_rgbf000150-resize_1-target.png,125,4.919,8.0,3361,124,feet,jsons/VE125_randls_31_rotated.json,1272903,2931106,51,Woman
64,233997,DepthScenes,duration_manipulation_targetAtFixation,jsons/VE125_randls_31_rotated.json,http://54.235.29.9/FacialAge/BNav_EC2/DepthDuration/v2_depth_duration_MTurk/v2_DepthDuration_HTML.html#67,67,1366,768,1366,768,8-21-2022,8-36-2,65,depth_duration_stimuli/002375_2014-06-28_20-13-44_260595134347_rgbf000032-resize_1/002375_2014-06-28_20-13-44_260595134347_rgbf000032-resize_1-target.png,125,4.0175,7.0,4492,127,feet,jsons/VE125_randls_31_rotated.json,1272903,2931106,51,Woman
65,233997,DepthScenes,duration_manipulation_targetAtFixation,jsons/VE125_randls_31_rotated.json,http://54.235.29.9/FacialAge/BNav_EC2/DepthDuration/v2_depth_duration_MTurk/v2_DepthDuration_HTML.html#67,67,1366,768,1366,768,8-21-2022,8-36-2,66,depth_duration_stimuli/001540_2014-06-20_17-01-05_260595134347_rgbf000086-resize_2/001540_2014-06-20_17-01-05_260595134347_rgbf000086-resize-original.jpg,125,1.459,0.0,3892,139,feet,jsons/VE125_randls_31_rotated.json,1272903,2931106,51,Woman
66,233997,DepthScenes,duration_manipulation_targetAtFixation,jsons/VE125_randls_31_rotated.json,http://54.235.29.9/FacialAge/BNav_EC2/DepthDuration/v2_depth_duration_MTurk/v2_DepthDuration_HTML.html#67,67,1366,768,1366,768,8-21-2022,8-36-2,67,depth_duration_stimuli/003010_2014-06-15_12-54-35_094959634447_rgbf000112-resize_0/003010_2014-06-15_12-54-35_094959634447_rgbf000112-resize_0-target.png,125,3.1185,8.0,3430,126,feet,jsons/VE125_randls_31_rotated.json,1272903,2931106,51,Woman
67,233997,DepthScenes,duration_manipulation_targetAtFixation,jsons/VE125_randls_31_rotated.json,http://54.235.29.9/FacialAge/BNav_EC2/DepthDuration/v2_depth_duration_MTurk/v2_DepthDuration_HTML.html#67,67,1366,768,1366,768,8-21-2022,8-36-2,68,depth_duration_stimuli/001810_2014-06-26_20-51-35_260595134347_rgbf000040-resize_3/001810_2014-06-26_20-51-35_260595134347_rgbf000040-resize_3-target.png,125,2.2525,6.0,3015,124,feet,jsons/VE125_randls_31_rotated.json,1272903,2931106,51,Woman
68,233997,DepthScenes,duration_manipulation_targetAtFixation,jsons/VE125_randls_31_rotated.json,http://54.235.29.9/FacialAge/BNav_EC2/DepthDuration/v2_depth_duration_MTurk/v2_DepthDuration_HTML.html#67,67,1366,768,1366,768,8-21-2022,8-36-2,69,depth_duration_stimuli/002678_2014-06-13_16-15-32_094959634447_rgbf000151-resize_6/002678_2014-06-13_16-15-32_094959634447_rgbf000151-resize_6-target.png,125,2.1830000000000003,8.0,3360,114,feet,jsons/VE125_randls_31_rotated.json,1272903,2931106,51,Woman
69,233997,DepthScenes,duration_manipulation_targetAtFixation,jsons/VE125_randls_31_rotated.json,http://54.235.29.9/FacialAge/BNav_EC2/DepthDuration/v2_depth_duration_MTurk/v2_DepthDuration_HTML.html#67,67,1366,768,1366,768,8-21-2022,8-36-2,70,depth_duration_stimuli/000368_2014-06-09_15-53-01_260595134347_rgbf000155-resize_2/000368_2014-06-09_15-53-01_260595134347_rgbf000155-resize_2-target.png,125,2.4859999999999998,7.0,4024,125,feet,jsons/VE125_randls_31_rotated.json,1272903,2931106,51,Woman
70,233997,DepthScenes,duration_manipulation_targetAtFixation,jsons/VE125_randls_31_rotated.json,http://54.235.29.9/FacialAge/BNav_EC2/DepthDuration/v2_depth_duration_MTurk/v2_DepthDuration_HTML.html#67,67,1366,768,1366,768,8-21-2022,8-36-2,71,depth_duration_stimuli/002660_2014-06-13_15-44-18_094959634447_rgbf001878-resize_2/002660_2014-06-13_15-44-18_094959634447_rgbf001878-resize_2-target.png,125,3.576,7.0,3792,124,feet,jsons/VE125_randls_31_rotated.json,1272903,2931106,51,Woman
71,233997,DepthScenes,duration_manipulation_targetAtFixation,jsons/VE125_randls_31_rotated.json,http://54.235.29.9/FacialAge/BNav_EC2/DepthDuration/v2_depth_duration_MTurk/v2_DepthDuration_HTML.html#67,67,1366,768,1366,768,8-21-2022,8-36-2,72,depth_duration_stimuli/002153_2014-06-25_21-27-18_260595134347_rgbf000038-resize_5/002153_2014-06-25_21-27-18_260595134347_rgbf000038-resize_5-target.png,125,2.505,7.0,3462,124,feet,jsons/VE125_randls_31_rotated.json,1272903,2931106,51,Woman
72,233997,DepthScenes,duration_manipulation_targetAtFixation,jsons/VE125_randls_31_rotated.json,http://54.235.29.9/FacialAge/BNav_EC2/DepthDuration/v2_depth_duration_MTurk/v2_DepthDuration_HTML.html#67,67,1366,768,1366,768,8-21-2022,8-36-2,73,depth_duration_stimuli/001094_2014-06-15_17-36-00_260595134347_rgbf000205-resize_0/001094_2014-06-15_17-36-00_260595134347_rgbf000205-resize_0-target.png,125,4.2175,8.0,3431,126,feet,jsons/VE125_randls_31_rotated.json,1272903,2931106,51,Woman
73,233997,DepthScenes,duration_manipulation_targetAtFixation,jsons/VE125_randls_31_rotated.json,http://54.235.29.9/FacialAge/BNav_EC2/DepthDuration/v2_depth_duration_MTurk/v2_DepthDuration_HTML.html#67,67,1366,768,1366,768,8-21-2022,8-36-2,74,depth_duration_stimuli/000692_2014-06-08_13-09-42_260595134347_rgbf000199-resize_2/000692_2014-06-08_13-09-42_260595134347_rgbf000199-resize_2-target.png,125,3.661,7.0,5640,125,feet,jsons/VE125_randls_31_rotated.json,1272903,2931106,51,Woman
74,233997,DepthScenes,duration_manipulation_targetAtFixation,jsons/VE125_randls_31_rotated.json,http://54.235.29.9/FacialAge/BNav_EC2/DepthDuration/v2_depth_duration_MTurk/v2_DepthDuration_HTML.html#67,67,1366,768,1366,768,8-21-2022,8-36-2,75,depth_duration_stimuli/001447_2014-06-19_17-00-32_260595134347_rgbf000082-resize_5/001447_2014-06-19_17-00-32_260595134347_rgbf000082-resize_5-target.png,125,4.13775,8.0,6450,141,feet,jsons/VE125_randls_31_rotated.json,1272903,2931106,51,Woman
75,233997,DepthScenes,duration_manipulation_targetAtFixation,jsons/VE125_randls_31_rotated.json,http://54.235.29.9/FacialAge/BNav_EC2/DepthDuration/v2_depth_duration_MTurk/v2_DepthDuration_HTML.html#67,67,1366,768,1366,768,8-21-2022,8-36-2,76,depth_duration_stimuli/000447_2014-06-08_16-15-46_260595134347_rgbf000130-resize_1/000447_2014-06-08_16-15-46_260595134347_rgbf000130-resize_1-target.png,125,4.479,8.0,177720,125,feet,jsons/VE125_randls_31_rotated.json,1272903,2931106,51,Woman
76,233997,DepthScenes,duration_manipulation_targetAtFixation,jsons/VE125_randls_31_rotated.json,http://54.235.29.9/FacialAge/BNav_EC2/DepthDuration/v2_depth_duration_MTurk/v2_DepthDuration_HTML.html#67,67,1366,768,1366,768,8-21-2022,8-36-2,77,depth_duration_stimuli/001214_2014-06-17_16-13-55_260595134347_rgbf000111-resize_0/001214_2014-06-17_16-13-55_260595134347_rgbf000111-resize_0-target.png,125,2.6505,6.0,7211,126,feet,jsons/VE125_randls_31_rotated.json,1272903,2931106,51,Woman
77,233997,DepthScenes,duration_manipulation_targetAtFixation,jsons/VE125_randls_31_rotated.json,http://54.235.29.9/FacialAge/BNav_EC2/DepthDuration/v2_depth_duration_MTurk/v2_DepthDuration_HTML.html#67,67,1366,768,1366,768,8-21-2022,8-36-2,78,depth_duration_stimuli/000810_2014-06-08_17-20-01_260595134347_rgbf000105-resize_0/000810_2014-06-08_17-20-01_260595134347_rgbf000105-resize_0-target.png,125,1.4865,8.0,4604,123,feet,jsons/VE125_randls_31_rotated.json,1272903,2931106,51,Woman
78,233997,DepthScenes,duration_manipulation_targetAtFixation,jsons/VE125_randls_31_rotated.json,http://54.235.29.9/FacialAge/BNav_EC2/DepthDuration/v2_depth_duration_MTurk/v2_DepthDuration_HTML.html#67,67,1366,768,1366,768,8-21-2022,8-36-2,79,depth_duration_stimuli/003423_2014-05-21_10-23-26_094959634447_rgbf002665-resize_2/003423_2014-05-21_10-23-26_094959634447_rgbf002665-resize_2-target.png,125,3.2575,9.0,5420,119,feet,jsons/VE125_randls_31_rotated.json,1272903,2931106,51,Woman
79,233997,DepthScenes,duration_manipulation_targetAtFixation,jsons/VE125_randls_31_rotated.json,http://54.235.29.9/FacialAge/BNav_EC2/DepthDuration/v2_depth_duration_MTurk/v2_DepthDuration_HTML.html#67,67,1366,768,1366,768,8-21-2022,8-36-2,80,depth_duration_stimuli/002905_2014-06-03_18-04-43_094959634447_rgbf000151-resize_2/002905_2014-06-03_18-04-43_094959634447_rgbf000151-resize_2-target.png,125,2.0295,7.0,4216,123,feet,jsons/VE125_randls_31_rotated.json,1272903,2931106,51,Woman
80,233997,DepthScenes,duration_manipulation_targetAtFixation,jsons/VE125_randls_31_rotated.json,http://54.235.29.9/FacialAge/BNav_EC2/DepthDuration/v2_depth_duration_MTurk/v2_DepthDuration_HTML.html#67,67,1366,768,1366,768,8-21-2022,8-36-2,81,depth_duration_stimuli/002875_2014-06-01_15-19-00_094959634447_rgbf000151-resize_1/002875_2014-06-01_15-19-00_094959634447_rgbf000151-resize_1-target.png,125,1.9675,8.0,3408,136,feet,jsons/VE125_randls_31_rotated.json,1272903,2931106,51,Woman
81,233997,DepthScenes,duration_manipulation_targetAtFixation,jsons/VE125_randls_31_rotated.json,http://54.235.29.9/FacialAge/BNav_EC2/DepthDuration/v2_depth_duration_MTurk/v2_DepthDuration_HTML.html#67,67,1366,768,1366,768,8-21-2022,8-36-2,82,depth_duration_stimuli/001011_2014-06-08_23-18-54_260595134347_rgbf000044-resize_4/001011_2014-06-08_23-18-54_260595134347_rgbf000044-resize_4-target.png,125,2.4730000000000003,8.0,5247,127,feet,jsons/VE125_randls_31_rotated.json,1272903,2931106,51,Woman
82,233997,DepthScenes,duration_manipulation_targetAtFixation,jsons/VE125_randls_31_rotated.json,http://54.235.29.9/FacialAge/BNav_EC2/DepthDuration/v2_depth_duration_MTurk/v2_DepthDuration_HTML.html#67,67,1366,768,1366,768,8-21-2022,8-36-2,83,depth_duration_stimuli/001450_2014-06-19_17-02-03_260595134347_rgbf000203-resize_4/001450_2014-06-19_17-02-03_260595134347_rgbf000203-resize_4-target.png,125,4.0106666666667,9.0,15416,123,feet,jsons/VE125_randls_31_rotated.json,1272903,2931106,51,Woman
83,233997,DepthScenes,duration_manipulation_targetAtFixation,jsons/VE125_randls_31_rotated.json,http://54.235.29.9/FacialAge/BNav_EC2/DepthDuration/v2_depth_duration_MTurk/v2_DepthDuration_HTML.html#67,67,1366,768,1366,768,8-21-2022,8-36-2,84,depth_duration_stimuli/001449_2014-06-19_17-01-27_260595134347_rgbf000116-resize_2/001449_2014-06-19_17-01-27_260595134347_rgbf000116-resize_2-target.png,125,3.452,8.0,8377,109,feet,jsons/VE125_randls_31_rotated.json,1272903,2931106,51,Woman
84,233997,DepthScenes,duration_manipulation_targetAtFixation,jsons/VE125_randls_31_rotated.json,http://54.235.29.9/FacialAge/BNav_EC2/DepthDuration/v2_depth_duration_MTurk/v2_DepthDuration_HTML.html#67,67,1366,768,1366,768,8-21-2022,8-36-2,85,depth_duration_stimuli/003129_2014-05-12_10-48-10_094959634447_rgbf000100-resize_0/003129_2014-05-12_10-48-10_094959634447_rgbf000100-resize_0-target.png,125,4.9305,9.0,2731,124,feet,jsons/VE125_randls_31_rotated.json,1272903,2931106,51,Woman
85,233997,DepthScenes,duration_manipulation_targetAtFixation,jsons/VE125_randls_31_rotated.json,http://54.235.29.9/FacialAge/BNav_EC2/DepthDuration/v2_depth_duration_MTurk/v2_DepthDuration_HTML.html#67,67,1366,768,1366,768,8-21-2022,8-36-2,86,depth_duration_stimuli/000414_2014-06-04_19-49-13_260595134347_rgbf000044-resize_0/000414_2014-06-04_19-49-13_260595134347_rgbf000044-resize_0-target.png,125,4.329,9.0,7609,125,feet,jsons/VE125_randls_31_rotated.json,1272903,2931106,51,Woman
86,233997,DepthScenes,duration_manipulation_targetAtFixation,jsons/VE125_randls_31_rotated.json,http://54.235.29.9/FacialAge/BNav_EC2/DepthDuration/v2_depth_duration_MTurk/v2_DepthDuration_HTML.html#67,67,1366,768,1366,768,8-21-2022,8-36-2,87,depth_duration_stimuli/002103_2014-06-25_20-00-40_260595134347_rgbf000049-resize_0/002103_2014-06-25_20-00-40_260595134347_rgbf000049-resize_0-target.png,125,4.105,8.0,17865,123,feet,jsons/VE125_randls_31_rotated.json,1272903,2931106,51,Woman
87,233997,DepthScenes,duration_manipulation_targetAtFixation,jsons/VE125_randls_31_rotated.json,http://54.235.29.9/FacialAge/BNav_EC2/DepthDuration/v2_depth_duration_MTurk/v2_DepthDuration_HTML.html#67,67,1366,768,1366,768,8-21-2022,8-36-2,88,depth_duration_stimuli/002039_2014-06-24_20-22-38_260595134347_rgbf000084-resize_1/002039_2014-06-24_20-22-38_260595134347_rgbf000084-resize_1-target.png,125,4.408,9.0,3428,127,feet,jsons/VE125_randls_31_rotated.json,1272903,2931106,51,Woman
88,233997,DepthScenes,duration_manipulation_targetAtFixation,jsons/VE125_randls_31_rotated.json,http://54.235.29.9/FacialAge/BNav_EC2/DepthDuration/v2_depth_duration_MTurk/v2_DepthDuration_HTML.html#67,67,1366,768,1366,768,8-21-2022,8-36-2,89,depth_duration_stimuli/000457_2014-06-08_16-52-43_260595134347_rgbf000199-resize_1/000457_2014-06-08_16-52-43_260595134347_rgbf000199-resize_1-target.png,125,3.6489999999999996,8.0,40949,112,feet,jsons/VE125_randls_31_rotated.json,1272903,2931106,51,Woman
89,233997,DepthScenes,duration_manipulation_targetAtFixation,jsons/VE125_randls_31_rotated.json,http://54.235.29.9/FacialAge/BNav_EC2/DepthDuration/v2_depth_duration_MTurk/v2_DepthDuration_HTML.html#67,67,1366,768,1366,768,8-21-2022,8-36-2,90,depth_duration_stimuli/000929_2014-06-09_16-33-19_260595134347_rgbf000139-resize_0/000929_2014-06-09_16-33-19_260595134347_rgbf000139-resize_0-target.png,125,2.8680000000000003,6.0,47935,129,feet,jsons/VE125_randls_31_rotated.json,1272903,2931106,51,Woman
90,233997,DepthScenes,duration_manipulation_targetAtFixation,jsons/VE125_randls_31_rotated.json,http://54.235.29.9/FacialAge/BNav_EC2/DepthDuration/v2_depth_duration_MTurk/v2_DepthDuration_HTML.html#67,67,1366,768,1366,768,8-21-2022,8-36-2,91,depth_duration_stimuli/002995_2014-06-15_12-31-26_094959634447_rgbf000150-resize_1/002995_2014-06-15_12-31-26_094959634447_rgbf000150-resize_1-target.png,125,3.8360000000000003,8.0,11005,126,feet,jsons/VE125_randls_31_rotated.json,1272903,2931106,51,Woman
91,233997,DepthScenes,duration_manipulation_targetAtFixation,jsons/VE125_randls_31_rotated.json,http://54.235.29.9/FacialAge/BNav_EC2/DepthDuration/v2_depth_duration_MTurk/v2_DepthDuration_HTML.html#67,67,1366,768,1366,768,8-21-2022,8-36-2,92,depth_duration_stimuli/002748_2014-06-22_19-07-22_094959634447_rgbf000078-resize_1/002748_2014-06-22_19-07-22_094959634447_rgbf000078-resize_1-target.png,125,4.6705,9.0,8175,126,feet,jsons/VE125_randls_31_rotated.json,1272903,2931106,51,Woman
92,233997,DepthScenes,duration_manipulation_targetAtFixation,jsons/VE125_randls_31_rotated.json,http://54.235.29.9/FacialAge/BNav_EC2/DepthDuration/v2_depth_duration_MTurk/v2_DepthDuration_HTML.html#67,67,1366,768,1366,768,8-21-2022,8-36-2,93,depth_duration_stimuli/000109_2014-05-14_23-41-52_260595134347_rgbf000035-resize_9/000109_2014-05-14_23-41-52_260595134347_rgbf000035-resize_9-target.png,125,1.3545,7.0,10373,125,feet,jsons/VE125_randls_31_rotated.json,1272903,2931106,51,Woman
93,233997,DepthScenes,duration_manipulation_targetAtFixation,jsons/VE125_randls_31_rotated.json,http://54.235.29.9/FacialAge/BNav_EC2/DepthDuration/v2_depth_duration_MTurk/v2_DepthDuration_HTML.html#67,67,1366,768,1366,768,8-21-2022,8-36-2,94,depth_duration_stimuli/000470_2014-06-09_19-42-40_260595134347_rgbf000094-resize_1/000470_2014-06-09_19-42-40_260595134347_rgbf000094-resize_1-target.png,125,1.831,7.0,6391,125,feet,jsons/VE125_randls_31_rotated.json,1272903,2931106,51,Woman
94,233997,DepthScenes,duration_manipulation_targetAtFixation,jsons/VE125_randls_31_rotated.json,http://54.235.29.9/FacialAge/BNav_EC2/DepthDuration/v2_depth_duration_MTurk/v2_DepthDuration_HTML.html#67,67,1366,768,1366,768,8-21-2022,8-36-2,95,depth_duration_stimuli/000137_2014-05-20_17-04-49_260595134347_rgbf000120-resize_1/000137_2014-05-20_17-04-49_260595134347_rgbf000120-resize_1-target.png,125,3.786,9.0,5494,122,feet,jsons/VE125_randls_31_rotated.json,1272903,2931106,51,Woman
95,233997,DepthScenes,duration_manipulation_targetAtFixation,jsons/VE125_randls_31_rotated.json,http://54.235.29.9/FacialAge/BNav_EC2/DepthDuration/v2_depth_duration_MTurk/v2_DepthDuration_HTML.html#67,67,1366,768,1366,768,8-21-2022,8-36-2,96,depth_duration_stimuli/000736_2014-06-08_18-24-15_260595134347_rgbf000206-resize_3/000736_2014-06-08_18-24-15_260595134347_rgbf000206-resize_3-target.png,125,3.515,8.0,3811,124,feet,jsons/VE125_randls_31_rotated.json,1272903,2931106,51,Woman
96,233997,DepthScenes,duration_manipulation_targetAtFixation,jsons/VE125_randls_31_rotated.json,http://54.235.29.9/FacialAge/BNav_EC2/DepthDuration/v2_depth_duration_MTurk/v2_DepthDuration_HTML.html#67,67,1366,768,1366,768,8-21-2022,8-36-2,97,depth_duration_stimuli/002545_2014-06-24_13-38-53_094959634447_rgbf000080-resize_4/002545_2014-06-24_13-38-53_094959634447_rgbf000080-resize_4-target.png,125,1.9205,8.0,18831,123,feet,jsons/VE125_randls_31_rotated.json,1272903,2931106,51,Woman
97,233997,DepthScenes,duration_manipulation_targetAtFixation,jsons/VE125_randls_31_rotated.json,http://54.235.29.9/FacialAge/BNav_EC2/DepthDuration/v2_depth_duration_MTurk/v2_DepthDuration_HTML.html#67,67,1366,768,1366,768,8-21-2022,8-36-2,98,depth_duration_stimuli/001092_2014-06-15_17-34-58_260595134347_rgbf000171-resize_3/001092_2014-06-15_17-34-58_260595134347_rgbf000171-resize_3-target.png,125,2.6935,8.0,8524,125,feet,jsons/VE125_randls_31_rotated.json,1272903,2931106,51,Woman
98,233997,DepthScenes,duration_manipulation_targetAtFixation,jsons/VE125_randls_31_rotated.json,http://54.235.29.9/FacialAge/BNav_EC2/DepthDuration/v2_depth_duration_MTurk/v2_DepthDuration_HTML.html#67,67,1366,768,1366,768,8-21-2022,8-36-2,99,depth_duration_stimuli/001222_2014-06-17_16-24-06_260595134347_rgbf000073-resize_0/001222_2014-06-17_16-24-06_260595134347_rgbf000073-resize-original.jpg,125,1.4385,0.0,4222,123,feet,jsons/VE125_randls_31_rotated.json,1272903,2931106,51,Woman
99,233997,DepthScenes,duration_manipulation_targetAtFixation,jsons/VE125_randls_31_rotated.json,http://54.235.29.9/FacialAge/BNav_EC2/DepthDuration/v2_depth_duration_MTurk/v2_DepthDuration_HTML.html#67,67,1366,768,1366,768,8-21-2022,8-36-2,100,depth_duration_stimuli/001052_2014-06-08_18-24-54_260595134347_rgbf000130-resize_1/001052_2014-06-08_18-24-54_260595134347_rgbf000130-resize_1-target.png,125,4.1045,8.0,8922,124,feet,jsons/VE125_randls_31_rotated.json,1272903,2931106,51,Woman
100,233997,DepthScenes,duration_manipulation_targetAtFixation,jsons/VE125_randls_31_rotated.json,http://54.235.29.9/FacialAge/BNav_EC2/DepthDuration/v2_depth_duration_MTurk/v2_DepthDuration_HTML.html#67,67,1366,768,1366,768,8-21-2022,8-36-2,101,depth_duration_stimuli/002988_2014-06-15_12-24-20_094959634447_rgbf000150-resize_1/002988_2014-06-15_12-24-20_094959634447_rgbf000150-resize_1-target.png,125,4.7669999999999995,7.0,6036,111,feet,jsons/VE125_randls_31_rotated.json,1272903,2931106,51,Woman
101,233997,DepthScenes,duration_manipulation_targetAtFixation,jsons/VE125_randls_31_rotated.json,http://54.235.29.9/FacialAge/BNav_EC2/DepthDuration/v2_depth_duration_MTurk/v2_DepthDuration_HTML.html#67,67,1366,768,1366,768,8-21-2022,8-36-2,102,depth_duration_stimuli/002209_2014-06-28_18-36-10_260595134347_rgbf000051-resize_1/002209_2014-06-28_18-36-10_260595134347_rgbf000051-resize_1-target.png,125,2.057,6.0,5249,132,feet,jsons/VE125_randls_31_rotated.json,1272903,2931106,51,Woman
102,233997,DepthScenes,duration_manipulation_targetAtFixation,jsons/VE125_randls_31_rotated.json,http://54.235.29.9/FacialAge/BNav_EC2/DepthDuration/v2_depth_duration_MTurk/v2_DepthDuration_HTML.html#67,67,1366,768,1366,768,8-21-2022,8-36-2,103,depth_duration_stimuli/002763_2014-06-22_19-13-10_094959634447_rgbf000075-resize_4/002763_2014-06-22_19-13-10_094959634447_rgbf000075-resize_4-target.png,125,1.68375,0.0,7477,125,feet,jsons/VE125_randls_31_rotated.json,1272903,2931106,51,Woman
103,233997,DepthScenes,duration_manipulation_targetAtFixation,jsons/VE125_randls_31_rotated.json,http://54.235.29.9/FacialAge/BNav_EC2/DepthDuration/v2_depth_duration_MTurk/v2_DepthDuration_HTML.html#67,67,1366,768,1366,768,8-21-2022,8-36-2,104,depth_duration_stimuli/001584_2014-06-20_11-07-43_260595134347_rgbf000002-resize_1/001584_2014-06-20_11-07-43_260595134347_rgbf000002-resize_1-target.png,125,3.53,7.0,47970,125,feet,jsons/VE125_randls_31_rotated.json,1272903,2931106,51,Woman
104,233997,DepthScenes,duration_manipulation_targetAtFixation,jsons/VE125_randls_31_rotated.json,http://54.235.29.9/FacialAge/BNav_EC2/DepthDuration/v2_depth_duration_MTurk/v2_DepthDuration_HTML.html#67,67,1366,768,1366,768,8-21-2022,8-36-2,105,depth_duration_stimuli/003621_2014-05-23_18-06-08_094959634447_rgbf000101-resize_1/003621_2014-05-23_18-06-08_094959634447_rgbf000101-resize_1-target.png,125,3.9835,8.0,6254,124,feet,jsons/VE125_randls_31_rotated.json,1272903,2931106,51,Woman
105,233997,DepthScenes,duration_manipulation_targetAtFixation,jsons/VE125_randls_31_rotated.json,http://54.235.29.9/FacialAge/BNav_EC2/DepthDuration/v2_depth_duration_MTurk/v2_DepthDuration_HTML.html#67,67,1366,768,1366,768,8-21-2022,8-36-2,106,depth_duration_stimuli/002467_2014-06-28_20-38-07_260595134347_rgbf000026-resize_2/002467_2014-06-28_20-38-07_260595134347_rgbf000026-resize_2-target.png,125,4.742,8.0,5880,124,feet,jsons/VE125_randls_31_rotated.json,1272903,2931106,51,Woman
106,233997,DepthScenes,duration_manipulation_targetAtFixation,jsons/VE125_randls_31_rotated.json,http://54.235.29.9/FacialAge/BNav_EC2/DepthDuration/v2_depth_duration_MTurk/v2_DepthDuration_HTML.html#67,67,1366,768,1366,768,8-21-2022,8-36-2,107,depth_duration_stimuli/002570_2014-06-24_13-59-54_094959634447_rgbf000059-resize_0/002570_2014-06-24_13-59-54_094959634447_rgbf000059-resize_0-target.png,125,4.037,7.0,4351,135,feet,jsons/VE125_randls_31_rotated.json,1272903,2931106,51,Woman
107,233997,DepthScenes,duration_manipulation_targetAtFixation,jsons/VE125_randls_31_rotated.json,http://54.235.29.9/FacialAge/BNav_EC2/DepthDuration/v2_depth_duration_MTurk/v2_DepthDuration_HTML.html#67,67,1366,768,1366,768,8-21-2022,8-36-2,108,depth_duration_stimuli/000483_2014-06-09_20-41-45_260595134347_rgbf000116-resize_4/000483_2014-06-09_20-41-45_260595134347_rgbf000116-resize_4-target.png,125,1.337,6.0,3455,120,feet,jsons/VE125_randls_31_rotated.json,1272903,2931106,51,Woman
108,233997,DepthScenes,duration_manipulation_targetAtFixation,jsons/VE125_randls_31_rotated.json,http://54.235.29.9/FacialAge/BNav_EC2/DepthDuration/v2_depth_duration_MTurk/v2_DepthDuration_HTML.html#67,67,1366,768,1366,768,8-21-2022,8-36-2,109,depth_duration_stimuli/000469_2014-06-09_19-42-10_260595134347_rgbf000081-resize_1/000469_2014-06-09_19-42-10_260595134347_rgbf000081-resize_1-target.png,125,1.652,6.0,3238,118,feet,jsons/VE125_randls_31_rotated.json,1272903,2931106,51,Woman
109,233997,DepthScenes,duration_manipulation_targetAtFixation,jsons/VE125_randls_31_rotated.json,http://54.235.29.9/FacialAge/BNav_EC2/DepthDuration/v2_depth_duration_MTurk/v2_DepthDuration_HTML.html#67,67,1366,768,1366,768,8-21-2022,8-36-2,110,depth_duration_stimuli/002805_2014-06-22_19-54-03_094959634447_rgbf000079-resize_1/002805_2014-06-22_19-54-03_094959634447_rgbf000079-resize_1-target.png,125,3.1439999999999997,8.0,2390,124,feet,jsons/VE125_randls_31_rotated.json,1272903,2931106,51,Woman
110,233997,DepthScenes,duration_manipulation_targetAtFixation,jsons/VE125_randls_31_rotated.json,http://54.235.29.9/FacialAge/BNav_EC2/DepthDuration/v2_depth_duration_MTurk/v2_DepthDuration_HTML.html#67,67,1366,768,1366,768,8-21-2022,8-36-2,111,depth_duration_stimuli/000906_2014-06-08_13-35-43_260595134347_rgbf000155-resize_1/000906_2014-06-08_13-35-43_260595134347_rgbf000155-resize_1-target.png,125,2.8489999999999998,8.0,10511,124,feet,jsons/VE125_randls_31_rotated.json,1272903,2931106,51,Woman
111,233997,DepthScenes,duration_manipulation_targetAtFixation,jsons/VE125_randls_31_rotated.json,http://54.235.29.9/FacialAge/BNav_EC2/DepthDuration/v2_depth_duration_MTurk/v2_DepthDuration_HTML.html#67,67,1366,768,1366,768,8-21-2022,8-36-2,112,depth_duration_stimuli/003587_2014-05-23_16-48-02_094959634447_rgbf002384-resize_2/003587_2014-05-23_16-48-02_094959634447_rgbf002384-resize_2-target.png,125,1.357,6.0,4128,123,feet,jsons/VE125_randls_31_rotated.json,1272903,2931106,51,Woman
112,233997,DepthScenes,duration_manipulation_targetAtFixation,jsons/VE125_randls_31_rotated.json,http://54.235.29.9/FacialAge/BNav_EC2/DepthDuration/v2_depth_duration_MTurk/v2_DepthDuration_HTML.html#67,67,1366,768,1366,768,8-21-2022,8-36-2,113,depth_duration_stimuli/001167_2014-06-17_15-38-07_260595134347_rgbf000108-resize_0/001167_2014-06-17_15-38-07_260595134347_rgbf000108-resize_0-target.png,125,1.8505,0.0,8938,123,feet,jsons/VE125_randls_31_rotated.json,1272903,2931106,51,Woman
113,233997,DepthScenes,duration_manipulation_targetAtFixation,jsons/VE125_randls_31_rotated.json,http://54.235.29.9/FacialAge/BNav_EC2/DepthDuration/v2_depth_duration_MTurk/v2_DepthDuration_HTML.html#67,67,1366,768,1366,768,8-21-2022,8-36-2,114,depth_duration_stimuli/001516_2014-06-20_16-25-09_260595134347_rgbf000076-resize_2/001516_2014-06-20_16-25-09_260595134347_rgbf000076-resize_2-target.png,125,1.7445,8.0,4907,122,feet,jsons/VE125_randls_31_rotated.json,1272903,2931106,51,Woman
114,233997,DepthScenes,duration_manipulation_targetAtFixation,jsons/VE125_randls_31_rotated.json,http://54.235.29.9/FacialAge/BNav_EC2/DepthDuration/v2_depth_duration_MTurk/v2_DepthDuration_HTML.html#67,67,1366,768,1366,768,8-21-2022,8-36-2,115,depth_duration_stimuli/002118_2014-06-25_20-32-08_260595134347_rgbf000078-resize_1/002118_2014-06-25_20-32-08_260595134347_rgbf000078-resize_1-target.png,125,2.6460000000000004,8.0,2566,122,feet,jsons/VE125_randls_31_rotated.json,1272903,2931106,51,Woman
115,233997,DepthScenes,duration_manipulation_targetAtFixation,jsons/VE125_randls_31_rotated.json,http://54.235.29.9/FacialAge/BNav_EC2/DepthDuration/v2_depth_duration_MTurk/v2_DepthDuration_HTML.html#67,67,1366,768,1366,768,8-21-2022,8-36-2,116,depth_duration_stimuli/002758_2014-06-22_19-11-20_094959634447_rgbf000128-resize_1/002758_2014-06-22_19-11-20_094959634447_rgbf000128-resize_1-target.png,125,2.555,6.0,5206,124,feet,jsons/VE125_randls_31_rotated.json,1272903,2931106,51,Woman
116,233997,DepthScenes,duration_manipulation_targetAtFixation,jsons/VE125_randls_31_rotated.json,http://54.235.29.9/FacialAge/BNav_EC2/DepthDuration/v2_depth_duration_MTurk/v2_DepthDuration_HTML.html#67,67,1366,768,1366,768,8-21-2022,8-36-2,117,depth_duration_stimuli/002630_2014-06-24_14-47-50_094959634447_rgbf000055-resize_1/002630_2014-06-24_14-47-50_094959634447_rgbf000055-resize_1-target.png,125,3.0095,10.0,3348,139,feet,jsons/VE125_randls_31_rotated.json,1272903,2931106,51,Woman
117,233997,DepthScenes,duration_manipulation_targetAtFixation,jsons/VE125_randls_31_rotated.json,http://54.235.29.9/FacialAge/BNav_EC2/DepthDuration/v2_depth_duration_MTurk/v2_DepthDuration_HTML.html#67,67,1366,768,1366,768,8-21-2022,8-36-2,118,depth_duration_stimuli/003338_2014-05-20_11-01-23_094959634447_rgbf000051-resize_6/003338_2014-05-20_11-01-23_094959634447_rgbf000051-resize_6-target.png,125,1.693,6.0,2558,126,feet,jsons/VE125_randls_31_rotated.json,1272903,2931106,51,Woman
118,233997,DepthScenes,duration_manipulation_targetAtFixation,jsons/VE125_randls_31_rotated.json,http://54.235.29.9/FacialAge/BNav_EC2/DepthDuration/v2_depth_duration_MTurk/v2_DepthDuration_HTML.html#67,67,1366,768,1366,768,8-21-2022,8-36-2,119,depth_duration_stimuli/002509_2014-06-24_13-19-22_094959634447_rgbf000077-resize_0/002509_2014-06-24_13-19-22_094959634447_rgbf000077-resize_0-target.png,125,1.3065,7.0,4175,125,feet,jsons/VE125_randls_31_rotated.json,1272903,2931106,51,Woman
119,233997,DepthScenes,duration_manipulation_targetAtFixation,jsons/VE125_randls_31_rotated.json,http://54.235.29.9/FacialAge/BNav_EC2/DepthDuration/v2_depth_duration_MTurk/v2_DepthDuration_HTML.html#67,67,1366,768,1366,768,8-21-2022,8-36-2,120,depth_duration_stimuli/000787_2014-06-08_22-33-53_260595134347_rgbf000175-resize_1/000787_2014-06-08_22-33-53_260595134347_rgbf000175-resize-original.jpg,125,4.784,0.0,4671,126,feet,jsons/VE125_randls_31_rotated.json,1272903,2931106,51,Woman
120,233997,DepthScenes,duration_manipulation_targetAtFixation,jsons/VE125_randls_31_rotated.json,http://54.235.29.9/FacialAge/BNav_EC2/DepthDuration/v2_depth_duration_MTurk/v2_DepthDuration_HTML.html#67,67,1366,768,1366,768,8-21-2022,8-36-2,121,depth_duration_stimuli/000749_2014-06-08_21-55-06_260595134347_rgbf000070-resize_2/000749_2014-06-08_21-55-06_260595134347_rgbf000070-resize_2-target.png,125,2.331,6.0,6118,127,feet,jsons/VE125_randls_31_rotated.json,1272903,2931106,51,Woman
121,233997,DepthScenes,duration_manipulation_targetAtFixation,jsons/VE125_randls_31_rotated.json,http://54.235.29.9/FacialAge/BNav_EC2/DepthDuration/v2_depth_duration_MTurk/v2_DepthDuration_HTML.html#67,67,1366,768,1366,768,8-21-2022,8-36-2,122,depth_duration_stimuli/002788_2014-06-22_19-36-03_094959634447_rgbf000088-resize_2/002788_2014-06-22_19-36-03_094959634447_rgbf000088-resize_2-target.png,125,1.6465,8.0,3953,127,feet,jsons/VE125_randls_31_rotated.json,1272903,2931106,51,Woman
122,233997,DepthScenes,duration_manipulation_targetAtFixation,jsons/VE125_randls_31_rotated.json,http://54.235.29.9/FacialAge/BNav_EC2/DepthDuration/v2_depth_duration_MTurk/v2_DepthDuration_HTML.html#67,67,1366,768,1366,768,8-21-2022,8-36-2,123,depth_duration_stimuli/002953_2014-06-08_17-32-18_094959634447_rgbf000059-resize_5/002953_2014-06-08_17-32-18_094959634447_rgbf000059-resize_5-target.png,125,1.551,0.0,5626,124,feet,jsons/VE125_randls_31_rotated.json,1272903,2931106,51,Woman
123,233997,DepthScenes,duration_manipulation_targetAtFixation,jsons/VE125_randls_31_rotated.json,http://54.235.29.9/FacialAge/BNav_EC2/DepthDuration/v2_depth_duration_MTurk/v2_DepthDuration_HTML.html#67,67,1366,768,1366,768,8-21-2022,8-36-2,124,depth_duration_stimuli/000878_2014-06-08_22-52-45_260595134347_rgbf000045-resize_2/000878_2014-06-08_22-52-45_260595134347_rgbf000045-resize_2-target.png,125,2.092,8.0,5651,110,feet,jsons/VE125_randls_31_rotated.json,1272903,2931106,51,Woman
124,233997,DepthScenes,duration_manipulation_targetAtFixation,jsons/VE125_randls_31_rotated.json,http://54.235.29.9/FacialAge/BNav_EC2/DepthDuration/v2_depth_duration_MTurk/v2_DepthDuration_HTML.html#67,67,1366,768,1366,768,8-21-2022,8-36-2,125,depth_duration_stimuli/002639_2014-06-24_14-51-37_094959634447_rgbf000074-resize_4/002639_2014-06-24_14-51-37_094959634447_rgbf000074-resize_4-target.png,125,4.0375,8.0,4340,125,feet,jsons/VE125_randls_31_rotated.json,1272903,2931106,51,Woman
125,233997,DepthScenes,duration_manipulation_targetAtFixation,jsons/VE125_randls_31_rotated.json,http://54.235.29.9/FacialAge/BNav_EC2/DepthDuration/v2_depth_duration_MTurk/v2_DepthDuration_HTML.html#67,67,1366,768,1366,768,8-21-2022,8-36-2,126,depth_duration_stimuli/003292_2014-05-14_21-53-49_094959634447_rgbf000100-resize_2/003292_2014-05-14_21-53-49_094959634447_rgbf000100-resize_2-target.png,125,3.4815,7.0,2770,125,feet,jsons/VE125_randls_31_rotated.json,1272903,2931106,51,Woman
126,233997,DepthScenes,duration_manipulation_targetAtFixation,jsons/VE125_randls_31_rotated.json,http://54.235.29.9/FacialAge/BNav_EC2/DepthDuration/v2_depth_duration_MTurk/v2_DepthDuration_HTML.html#67,67,1366,768,1366,768,8-21-2022,8-36-2,127,depth_duration_stimuli/000927_2014-06-09_16-32-30_260595134347_rgbf000123-resize_3/000927_2014-06-09_16-32-30_260595134347_rgbf000123-resize_3-target.png,125,2.6785,9.0,2943,123,feet,jsons/VE125_randls_31_rotated.json,1272903,2931106,51,Woman
127,233997,DepthScenes,duration_manipulation_targetAtFixation,jsons/VE125_randls_31_rotated.json,http://54.235.29.9/FacialAge/BNav_EC2/DepthDuration/v2_depth_duration_MTurk/v2_DepthDuration_HTML.html#67,67,1366,768,1366,768,8-21-2022,8-36-2,128,depth_duration_stimuli/001110_2014-06-15_17-25-28_260595134347_rgbf000150-resize_1/001110_2014-06-15_17-25-28_260595134347_rgbf000150-resize_1-target.png,125,1.7115,7.0,2413,125,feet,jsons/VE125_randls_31_rotated.json,1272903,2931106,51,Woman
128,233997,DepthScenes,duration_manipulation_targetAtFixation,jsons/VE125_randls_31_rotated.json,http://54.235.29.9/FacialAge/BNav_EC2/DepthDuration/v2_depth_duration_MTurk/v2_DepthDuration_HTML.html#67,67,1366,768,1366,768,8-21-2022,8-36-2,129,depth_duration_stimuli/000409_2014-06-04_19-23-33_260595134347_rgbf000067-resize_0/000409_2014-06-04_19-23-33_260595134347_rgbf000067-resize_0-target.png,125,3.7335,9.0,5799,127,feet,jsons/VE125_randls_31_rotated.json,1272903,2931106,51,Woman
129,233997,DepthScenes,duration_manipulation_targetAtFixation,jsons/VE125_randls_31_rotated.json,http://54.235.29.9/FacialAge/BNav_EC2/DepthDuration/v2_depth_duration_MTurk/v2_DepthDuration_HTML.html#67,67,1366,768,1366,768,8-21-2022,8-36-2,130,depth_duration_stimuli/002663_2014-06-13_15-50-26_094959634447_rgbf000075-resize_1/002663_2014-06-13_15-50-26_094959634447_rgbf000075-resize_1-target.png,125,4.7495,10.0,2791,124,feet,jsons/VE125_randls_31_rotated.json,1272903,2931106,51,Woman
130,233997,DepthScenes,duration_manipulation_targetAtFixation,jsons/VE125_randls_31_rotated.json,http://54.235.29.9/FacialAge/BNav_EC2/DepthDuration/v2_depth_duration_MTurk/v2_DepthDuration_HTML.html#67,67,1366,768,1366,768,8-21-2022,8-36-2,131,depth_duration_stimuli/002750_2014-06-22_19-08-03_094959634447_rgbf000094-resize_4/002750_2014-06-22_19-08-03_094959634447_rgbf000094-resize_4-target.png,125,2.354,8.0,2502,114,feet,jsons/VE125_randls_31_rotated.json,1272903,2931106,51,Woman
131,233997,DepthScenes,duration_manipulation_targetAtFixation,jsons/VE125_randls_31_rotated.json,http://54.235.29.9/FacialAge/BNav_EC2/DepthDuration/v2_depth_duration_MTurk/v2_DepthDuration_HTML.html#67,67,1366,768,1366,768,8-21-2022,8-36-2,132,depth_duration_stimuli/002549_2014-06-24_13-41-39_094959634447_rgbf000022-resize_3/002549_2014-06-24_13-41-39_094959634447_rgbf000022-resize_3-target.png,125,1.476,7.0,2151,112,feet,jsons/VE125_randls_31_rotated.json,1272903,2931106,51,Woman
132,233997,DepthScenes,duration_manipulation_targetAtFixation,jsons/VE125_randls_31_rotated.json,http://54.235.29.9/FacialAge/BNav_EC2/DepthDuration/v2_depth_duration_MTurk/v2_DepthDuration_HTML.html#67,67,1366,768,1366,768,8-21-2022,8-36-2,133,depth_duration_stimuli/002344_2014-06-28_20-06-29_260595134347_rgbf000030-resize_1/002344_2014-06-28_20-06-29_260595134347_rgbf000030-resize_1-target.png,125,1.5795,6.0,2333,126,feet,jsons/VE125_randls_31_rotated.json,1272903,2931106,51,Woman
133,233997,DepthScenes,duration_manipulation_targetAtFixation,jsons/VE125_randls_31_rotated.json,http://54.235.29.9/FacialAge/BNav_EC2/DepthDuration/v2_depth_duration_MTurk/v2_DepthDuration_HTML.html#67,67,1366,768,1366,768,8-21-2022,8-36-2,134,depth_duration_stimuli/002725_2014-06-22_11-47-51_094959634447_rgbf000070-resize_1/002725_2014-06-22_11-47-51_094959634447_rgbf000070-resize_1-target.png,125,2.195,8.0,2221,125,feet,jsons/VE125_randls_31_rotated.json,1272903,2931106,51,Woman
134,233997,DepthScenes,duration_manipulation_targetAtFixation,jsons/VE125_randls_31_rotated.json,http://54.235.29.9/FacialAge/BNav_EC2/DepthDuration/v2_depth_duration_MTurk/v2_DepthDuration_HTML.html#67,67,1366,768,1366,768,8-21-2022,8-36-2,135,depth_duration_stimuli/000375_2014-06-08_11-17-29_260595134347_rgbf000133-resize_2/000375_2014-06-08_11-17-29_260595134347_rgbf000133-resize-original.jpg,125,4.718,0.0,2884,120,feet,jsons/VE125_randls_31_rotated.json,1272903,2931106,51,Woman
135,233997,DepthScenes,duration_manipulation_targetAtFixation,jsons/VE125_randls_31_rotated.json,http://54.235.29.9/FacialAge/BNav_EC2/DepthDuration/v2_depth_duration_MTurk/v2_DepthDuration_HTML.html#67,67,1366,768,1366,768,8-21-2022,8-36-2,136,depth_duration_stimuli/000742_2014-06-08_18-48-09_260595134347_rgbf000164-resize_4/000742_2014-06-08_18-48-09_260595134347_rgbf000164-resize_4-target.png,125,4.632,9.0,2850,125,feet,jsons/VE125_randls_31_rotated.json,1272903,2931106,51,Woman
136,233997,DepthScenes,duration_manipulation_targetAtFixation,jsons/VE125_randls_31_rotated.json,http://54.235.29.9/FacialAge/BNav_EC2/DepthDuration/v2_depth_duration_MTurk/v2_DepthDuration_HTML.html#67,67,1366,768,1366,768,8-21-2022,8-36-2,137,depth_duration_stimuli/001066_2014-06-08_22-03-20_260595134347_rgbf000066-resize_4/001066_2014-06-08_22-03-20_260595134347_rgbf000066-resize_4-target.png,125,4.2330000000000005,8.0,2776,125,feet,jsons/VE125_randls_31_rotated.json,1272903,2931106,51,Woman
137,233997,DepthScenes,duration_manipulation_targetAtFixation,jsons/VE125_randls_31_rotated.json,http://54.235.29.9/FacialAge/BNav_EC2/DepthDuration/v2_depth_duration_MTurk/v2_DepthDuration_HTML.html#67,67,1366,768,1366,768,8-21-2022,8-36-2,138,depth_duration_stimuli/002323_2014-06-28_20-01-54_260595134347_rgbf000051-resize_4/002323_2014-06-28_20-01-54_260595134347_rgbf000051-resize_4-target.png,125,3.7310000000000003,8.0,2482,135,feet,jsons/VE125_randls_31_rotated.json,1272903,2931106,51,Woman
138,233997,DepthScenes,duration_manipulation_targetAtFixation,jsons/VE125_randls_31_rotated.json,http://54.235.29.9/FacialAge/BNav_EC2/DepthDuration/v2_depth_duration_MTurk/v2_DepthDuration_HTML.html#67,67,1366,768,1366,768,8-21-2022,8-36-2,139,depth_duration_stimuli/000917_2014-06-09_22-45-29_260595134347_rgbf000149-resize_3/000917_2014-06-09_22-45-29_260595134347_rgbf000149-resize_3-target.png,125,4.1865,9.0,1816,129,feet,jsons/VE125_randls_31_rotated.json,1272903,2931106,51,Woman
139,233997,DepthScenes,duration_manipulation_targetAtFixation,jsons/VE125_randls_31_rotated.json,http://54.235.29.9/FacialAge/BNav_EC2/DepthDuration/v2_depth_duration_MTurk/v2_DepthDuration_HTML.html#67,67,1366,768,1366,768,8-21-2022,8-36-2,140,depth_duration_stimuli/003048_2014-06-15_13-49-43_094959634447_rgbf000150-resize_1/003048_2014-06-15_13-49-43_094959634447_rgbf000150-resize_1-target.png,125,4.0035,8.0,5567,123,feet,jsons/VE125_randls_31_rotated.json,1272903,2931106,51,Woman
140,233997,DepthScenes,duration_manipulation_targetAtFixation,jsons/VE125_randls_31_rotated.json,http://54.235.29.9/FacialAge/BNav_EC2/DepthDuration/v2_depth_duration_MTurk/v2_DepthDuration_HTML.html#67,67,1366,768,1366,768,8-21-2022,8-36-2,141,depth_duration_stimuli/002043_2014-06-24_20-29-38_260595134347_rgbf000039-resize_4/002043_2014-06-24_20-29-38_260595134347_rgbf000039-resize_4-target.png,125,2.8435,9.0,2729,123,feet,jsons/VE125_randls_31_rotated.json,1272903,2931106,51,Woman
141,233997,DepthScenes,duration_manipulation_targetAtFixation,jsons/VE125_randls_31_rotated.json,http://54.235.29.9/FacialAge/BNav_EC2/DepthDuration/v2_depth_duration_MTurk/v2_DepthDuration_HTML.html#67,67,1366,768,1366,768,8-21-2022,8-36-2,142,depth_duration_stimuli/001032_2014-06-08_13-23-17_260595134347_rgbf000021-resize_3/001032_2014-06-08_13-23-17_260595134347_rgbf000021-resize_3-target.png,125,3.2725,7.0,3069,132,feet,jsons/VE125_randls_31_rotated.json,1272903,2931106,51,Woman
142,233997,DepthScenes,duration_manipulation_targetAtFixation,jsons/VE125_randls_31_rotated.json,http://54.235.29.9/FacialAge/BNav_EC2/DepthDuration/v2_depth_duration_MTurk/v2_DepthDuration_HTML.html#67,67,1366,768,1366,768,8-21-2022,8-36-2,143,depth_duration_stimuli/001059_2014-06-08_21-53-27_260595134347_rgbf000061-resize_4/001059_2014-06-08_21-53-27_260595134347_rgbf000061-resize_4-target.png,125,2.4185,7.0,2597,125,feet,jsons/VE125_randls_31_rotated.json,1272903,2931106,51,Woman
143,233997,DepthScenes,duration_manipulation_targetAtFixation,jsons/VE125_randls_31_rotated.json,http://54.235.29.9/FacialAge/BNav_EC2/DepthDuration/v2_depth_duration_MTurk/v2_DepthDuration_HTML.html#67,67,1366,768,1366,768,8-21-2022,8-36-2,144,depth_duration_stimuli/001392_2014-06-19_16-07-59_260595134347_rgbf000046-resize_1/001392_2014-06-19_16-07-59_260595134347_rgbf000046-resize_1-target.png,125,4.135,10.0,2869,125,feet,jsons/VE125_randls_31_rotated.json,1272903,2931106,51,Woman
144,233997,DepthScenes,duration_manipulation_targetAtFixation,jsons/VE125_randls_31_rotated.json,http://54.235.29.9/FacialAge/BNav_EC2/DepthDuration/v2_depth_duration_MTurk/v2_DepthDuration_HTML.html#67,67,1366,768,1366,768,8-21-2022,8-36-2,145,depth_duration_stimuli/001570_2014-06-20_17-21-09_260595134347_rgbf000135-resize_4/001570_2014-06-20_17-21-09_260595134347_rgbf000135-resize_4-target.png,125,4.467,9.0,2245,125,feet,jsons/VE125_randls_31_rotated.json,1272903,2931106,51,Woman
145,233997,DepthScenes,duration_manipulation_targetAtFixation,jsons/VE125_randls_31_rotated.json,http://54.235.29.9/FacialAge/BNav_EC2/DepthDuration/v2_depth_duration_MTurk/v2_DepthDuration_HTML.html#67,67,1366,768,1366,768,8-21-2022,8-36-2,146,depth_duration_stimuli/000191_2014-05-12_17-07-38_260595134347_rgbf000199-resize_0/000191_2014-05-12_17-07-38_260595134347_rgbf000199-resize_0-target.png,125,3.7995,10.0,2318,124,feet,jsons/VE125_randls_31_rotated.json,1272903,2931106,51,Woman
146,233997,DepthScenes,duration_manipulation_targetAtFixation,jsons/VE125_randls_31_rotated.json,http://54.235.29.9/FacialAge/BNav_EC2/DepthDuration/v2_depth_duration_MTurk/v2_DepthDuration_HTML.html#67,67,1366,768,1366,768,8-21-2022,8-36-2,147,depth_duration_stimuli/000493_2014-06-09_21-01-18_260595134347_rgbf000196-resize_3/000493_2014-06-09_21-01-18_260595134347_rgbf000196-resize_3-target.png,125,3.44,9.0,2296,125,feet,jsons/VE125_randls_31_rotated.json,1272903,2931106,51,Woman
147,233997,DepthScenes,duration_manipulation_targetAtFixation,jsons/VE125_randls_31_rotated.json,http://54.235.29.9/FacialAge/BNav_EC2/DepthDuration/v2_depth_duration_MTurk/v2_DepthDuration_HTML.html#67,67,1366,768,1366,768,8-21-2022,8-36-2,148,depth_duration_stimuli/000677_2014-06-08_23-10-32_260595134347_rgbf000158-resize_6/000677_2014-06-08_23-10-32_260595134347_rgbf000158-resize_6-target.png,125,3.556,8.0,1887,125,feet,jsons/VE125_randls_31_rotated.json,1272903,2931106,51,Woman
148,233997,DepthScenes,duration_manipulation_targetAtFixation,jsons/VE125_randls_31_rotated.json,http://54.235.29.9/FacialAge/BNav_EC2/DepthDuration/v2_depth_duration_MTurk/v2_DepthDuration_HTML.html#67,67,1366,768,1366,768,8-21-2022,8-36-2,149,depth_duration_stimuli/001029_2014-06-08_13-17-57_260595134347_rgbf000065-resize_1/001029_2014-06-08_13-17-57_260595134347_rgbf000065-resize_1-target.png,125,3.0835,8.0,1846,124,feet,jsons/VE125_randls_31_rotated.json,1272903,2931106,51,Woman
149,233997,DepthScenes,duration_manipulation_targetAtFixation,jsons/VE125_randls_31_rotated.json,http://54.235.29.9/FacialAge/BNav_EC2/DepthDuration/v2_depth_duration_MTurk/v2_DepthDuration_HTML.html#67,67,1366,768,1366,768,8-21-2022,8-36-2,150,depth_duration_stimuli/000854_2014-06-09_19-43-13_260595134347_rgbf000066-resize_0/000854_2014-06-09_19-43-13_260595134347_rgbf000066-resize_0-target.png,125,3.068,6.0,1759,125,feet,jsons/VE125_randls_31_rotated.json,1272903,2931106,51,Woman
150,233997,DepthScenes,duration_manipulation_targetAtFixation,jsons/VE125_randls_31_rotated.json,http://54.235.29.9/FacialAge/BNav_EC2/DepthDuration/v2_depth_duration_MTurk/v2_DepthDuration_HTML.html#67,67,1366,768,1366,768,8-21-2022,8-36-2,151,depth_duration_stimuli/000758_2014-06-08_22-05-08_260595134347_rgbf000085-resize_0/000758_2014-06-08_22-05-08_260595134347_rgbf000085-resize_0-target.png,125,3.3810000000000002,8.0,1641,124,feet,jsons/VE125_randls_31_rotated.json,1272903,2931106,51,Woman
151,233997,DepthScenes,duration_manipulation_targetAtFixation,jsons/VE125_randls_31_rotated.json,http://54.235.29.9/FacialAge/BNav_EC2/DepthDuration/v2_depth_duration_MTurk/v2_DepthDuration_HTML.html#67,67,1366,768,1366,768,8-21-2022,8-36-2,152,depth_duration_stimuli/000569_2014-06-09_22-51-47_260595134347_rgbf000141-resize_3/000569_2014-06-09_22-51-47_260595134347_rgbf000141-resize-original.jpg,125,4.512,8.0,1986,125,feet,jsons/VE125_randls_31_rotated.json,1272903,2931106,51,Woman
152,233997,DepthScenes,duration_manipulation_targetAtFixation,jsons/VE125_randls_31_rotated.json,http://54.235.29.9/FacialAge/BNav_EC2/DepthDuration/v2_depth_duration_MTurk/v2_DepthDuration_HTML.html#67,67,1366,768,1366,768,8-21-2022,8-36-2,153,depth_duration_stimuli/003490_2014-05-21_15-50-11_094959634447_rgbf000101-resize_3/003490_2014-05-21_15-50-11_094959634447_rgbf000101-resize_3-target.png,125,3.6445,8.0,1594,111,feet,jsons/VE125_randls_31_rotated.json,1272903,2931106,51,Woman
153,233997,DepthScenes,duration_manipulation_targetAtFixation,jsons/VE125_randls_31_rotated.json,http://54.235.29.9/FacialAge/BNav_EC2/DepthDuration/v2_depth_duration_MTurk/v2_DepthDuration_HTML.html#67,67,1366,768,1366,768,8-21-2022,8-36-2,154,depth_duration_stimuli/001175_2014-06-17_15-45-55_260595134347_rgbf000129-resize_4/001175_2014-06-17_15-45-55_260595134347_rgbf000129-resize_4-target.png,125,4.255,9.0,1783,126,feet,jsons/VE125_randls_31_rotated.json,1272903,2931106,51,Woman
154,233997,DepthScenes,duration_manipulation_targetAtFixation,jsons/VE125_randls_31_rotated.json,http://54.235.29.9/FacialAge/BNav_EC2/DepthDuration/v2_depth_duration_MTurk/v2_DepthDuration_HTML.html#67,67,1366,768,1366,768,8-21-2022,8-36-2,155,depth_duration_stimuli/000866_2014-06-09_20-45-42_260595134347_rgbf000139-resize_1/000866_2014-06-09_20-45-42_260595134347_rgbf000139-resize_1-target.png,125,3.2155,8.0,4365,125,feet,jsons/VE125_randls_31_rotated.json,1272903,2931106,51,Woman
155,233997,DepthScenes,duration_manipulation_targetAtFixation,jsons/VE125_randls_31_rotated.json,http://54.235.29.9/FacialAge/BNav_EC2/DepthDuration/v2_depth_duration_MTurk/v2_DepthDuration_HTML.html#67,67,1366,768,1366,768,8-21-2022,8-36-2,156,depth_duration_stimuli/002989_2014-06-15_12-25-03_094959634447_rgbf000150-resize_3/002989_2014-06-15_12-25-03_094959634447_rgbf000150-resize_3-target.png,125,4.1975,8.0,2002,125,feet,jsons/VE125_randls_31_rotated.json,1272903,2931106,51,Woman
156,233997,DepthScenes,duration_manipulation_targetAtFixation,jsons/VE125_randls_31_rotated.json,http://54.235.29.9/FacialAge/BNav_EC2/DepthDuration/v2_depth_duration_MTurk/v2_DepthDuration_HTML.html#67,67,1366,768,1366,768,8-21-2022,8-36-2,157,depth_duration_stimuli/000780_2014-06-08_22-28-29_260595134347_rgbf000126-resize_1/000780_2014-06-08_22-28-29_260595134347_rgbf000126-resize_1-target.png,125,3.3825,10.0,2077,124,feet,jsons/VE125_randls_31_rotated.json,1272903,2931106,51,Woman
157,233997,DepthScenes,duration_manipulation_targetAtFixation,jsons/VE125_randls_31_rotated.json,http://54.235.29.9/FacialAge/BNav_EC2/DepthDuration/v2_depth_duration_MTurk/v2_DepthDuration_HTML.html#67,67,1366,768,1366,768,8-21-2022,8-36-2,158,depth_duration_stimuli/002445_2014-06-28_20-32-16_260595134347_rgbf000029-resize_4/002445_2014-06-28_20-32-16_260595134347_rgbf000029-resize_4-target.png,125,2.5315,6.0,1772,126,feet,jsons/VE125_randls_31_rotated.json,1272903,2931106,51,Woman
158,233997,DepthScenes,duration_manipulation_targetAtFixation,jsons/VE125_randls_31_rotated.json,http://54.235.29.9/FacialAge/BNav_EC2/DepthDuration/v2_depth_duration_MTurk/v2_DepthDuration_HTML.html#67,67,1366,768,1366,768,8-21-2022,8-36-2,159,depth_duration_stimuli/003228_2014-05-14_13-42-35_094959634447_rgbf000101-resize_1/003228_2014-05-14_13-42-35_094959634447_rgbf000101-resize_1-target.png,125,1.9680000000000002,7.0,2034,124,feet,jsons/VE125_randls_31_rotated.json,1272903,2931106,51,Woman
159,233997,DepthScenes,duration_manipulation_targetAtFixation,jsons/VE125_randls_31_rotated.json,http://54.235.29.9/FacialAge/BNav_EC2/DepthDuration/v2_depth_duration_MTurk/v2_DepthDuration_HTML.html#67,67,1366,768,1366,768,8-21-2022,8-36-2,160,depth_duration_stimuli/002600_2014-06-24_14-27-04_094959634447_rgbf000074-resize_2/002600_2014-06-24_14-27-04_094959634447_rgbf000074-resize_2-target.png,125,2.7575,8.0,4095,118,feet,jsons/VE125_randls_31_rotated.json,1272903,2931106,51,Woman
160,233997,DepthScenes,duration_manipulation_targetAtFixation,jsons/VE125_randls_31_rotated.json,http://54.235.29.9/FacialAge/BNav_EC2/DepthDuration/v2_depth_duration_MTurk/v2_DepthDuration_HTML.html#67,67,1366,768,1366,768,8-21-2022,8-36-2,161,depth_duration_stimuli/002425_2014-06-28_20-27-29_260595134347_rgbf000031-resize_8/002425_2014-06-28_20-27-29_260595134347_rgbf000031-resize_8-target.png,125,3.8960000000000004,8.0,1876,124,feet,jsons/VE125_randls_31_rotated.json,1272903,2931106,51,Woman
161,233997,DepthScenes,duration_manipulation_targetAtFixation,jsons/VE125_randls_31_rotated.json,http://54.235.29.9/FacialAge/BNav_EC2/DepthDuration/v2_depth_duration_MTurk/v2_DepthDuration_HTML.html#67,67,1366,768,1366,768,8-21-2022,8-36-2,162,depth_duration_stimuli/000642_2014-06-08_16-59-25_260595134347_rgbf000098-resize_2/000642_2014-06-08_16-59-25_260595134347_rgbf000098-resize_2-target.png,125,2.8815,8.0,2957,121,feet,jsons/VE125_randls_31_rotated.json,1272903,2931106,51,Woman
162,233997,DepthScenes,duration_manipulation_targetAtFixation,jsons/VE125_randls_31_rotated.json,http://54.235.29.9/FacialAge/BNav_EC2/DepthDuration/v2_depth_duration_MTurk/v2_DepthDuration_HTML.html#67,67,1366,768,1366,768,8-21-2022,8-36-2,163,depth_duration_stimuli/002199_2014-06-28_18-33-56_260595134347_rgbf000074-resize_0/002199_2014-06-28_18-33-56_260595134347_rgbf000074-resize_0-target.png,125,1.996,6.0,2216,140,feet,jsons/VE125_randls_31_rotated.json,1272903,2931106,51,Woman
163,233997,DepthScenes,duration_manipulation_targetAtFixation,jsons/VE125_randls_31_rotated.json,http://54.235.29.9/FacialAge/BNav_EC2/DepthDuration/v2_depth_duration_MTurk/v2_DepthDuration_HTML.html#67,67,1366,768,1366,768,8-21-2022,8-36-2,164,depth_duration_stimuli/001056_2014-06-08_18-46-44_260595134347_rgbf000068-resize_0/001056_2014-06-08_18-46-44_260595134347_rgbf000068-resize_0-target.png,125,2.6625,8.0,1607,126,feet,jsons/VE125_randls_31_rotated.json,1272903,2931106,51,Woman
