,subjID,experimentName,versionName,sequenceName,url,selected_row,windowWidth,windowHeight,screenWidth,screenHeight,startDate,startTime,trial,stimulus,duration,actual_depth,depth_estimate,trial_RT,log_sceneDuration,unitSelection,seq_filepath,experimentTime,totalTime,age,gender
0,234342,DepthScenes,duration_manipulation_targetAtFixation,jsons/VE125_randls_61_rotated.json,http://54.235.29.9/FacialAge/BNav_EC2/DepthDuration/v2_depth_duration_MTurk/v2_DepthDuration_HTML.html#257,257,1536,864,1536,864,9-3-2022,9-50-7,1,depth_duration_stimuli/000734_2014-06-08_17-39-11_260595134347_rgbf000128-resize_2/000734_2014-06-08_17-39-11_260595134347_rgbf000128-resize_2-target.png,125,4.098,4.0,7430,124,feet,jsons/VE125_randls_61_rotated.json,784233,1684236,39,Woman
1,234342,DepthScenes,duration_manipulation_targetAtFixation,jsons/VE125_randls_61_rotated.json,http://54.235.29.9/FacialAge/BNav_EC2/DepthDuration/v2_depth_duration_MTurk/v2_DepthDuration_HTML.html#257,257,1536,864,1536,864,9-3-2022,9-50-7,2,depth_duration_stimuli/000739_2014-06-08_18-45-58_260595134347_rgbf000068-resize_1/000739_2014-06-08_18-45-58_260595134347_rgbf000068-resize_1-target.png,125,3.534,4.0,6531,131,feet,jsons/VE125_randls_61_rotated.json,784233,1684236,39,Woman
2,234342,DepthScenes,duration_manipulation_targetAtFixation,jsons/VE125_randls_61_rotated.json,http://54.235.29.9/FacialAge/BNav_EC2/DepthDuration/v2_depth_duration_MTurk/v2_DepthDuration_HTML.html#257,257,1536,864,1536,864,9-3-2022,9-50-7,3,depth_duration_stimuli/000191_2014-05-12_17-07-38_260595134347_rgbf000199-resize_0/000191_2014-05-12_17-07-38_260595134347_rgbf000199-resize_0-target.png,125,3.7995,5.0,4828,125,feet,jsons/VE125_randls_61_rotated.json,784233,1684236,39,Woman
3,234342,DepthScenes,duration_manipulation_targetAtFixation,jsons/VE125_randls_61_rotated.json,http://54.235.29.9/FacialAge/BNav_EC2/DepthDuration/v2_depth_duration_MTurk/v2_DepthDuration_HTML.html#257,257,1536,864,1536,864,9-3-2022,9-50-7,4,depth_duration_stimuli/000493_2014-06-09_21-01-18_260595134347_rgbf000196-resize_3/000493_2014-06-09_21-01-18_260595134347_rgbf000196-resize_3-target.png,125,3.44,3.0,3418,126,feet,jsons/VE125_randls_61_rotated.json,784233,1684236,39,Woman
4,234342,DepthScenes,duration_manipulation_targetAtFixation,jsons/VE125_randls_61_rotated.json,http://54.235.29.9/FacialAge/BNav_EC2/DepthDuration/v2_depth_duration_MTurk/v2_DepthDuration_HTML.html#257,257,1536,864,1536,864,9-3-2022,9-50-7,5,depth_duration_stimuli/002660_2014-06-13_15-44-18_094959634447_rgbf001878-resize_2/002660_2014-06-13_15-44-18_094959634447_rgbf001878-resize_2-target.png,125,3.576,3.0,4374,123,feet,jsons/VE125_randls_61_rotated.json,784233,1684236,39,Woman
5,234342,DepthScenes,duration_manipulation_targetAtFixation,jsons/VE125_randls_61_rotated.json,http://54.235.29.9/FacialAge/BNav_EC2/DepthDuration/v2_depth_duration_MTurk/v2_DepthDuration_HTML.html#257,257,1536,864,1536,864,9-3-2022,9-50-7,6,depth_duration_stimuli/002153_2014-06-25_21-27-18_260595134347_rgbf000038-resize_5/002153_2014-06-25_21-27-18_260595134347_rgbf000038-resize_5-target.png,125,2.505,2.0,3858,124,feet,jsons/VE125_randls_61_rotated.json,784233,1684236,39,Woman
6,234342,DepthScenes,duration_manipulation_targetAtFixation,jsons/VE125_randls_61_rotated.json,http://54.235.29.9/FacialAge/BNav_EC2/DepthDuration/v2_depth_duration_MTurk/v2_DepthDuration_HTML.html#257,257,1536,864,1536,864,9-3-2022,9-50-7,7,depth_duration_stimuli/000635_2014-06-08_16-38-42_260595134347_rgbf000106-resize_1/000635_2014-06-08_16-38-42_260595134347_rgbf000106-resize_1-target.png,125,2.074,3.0,4655,124,feet,jsons/VE125_randls_61_rotated.json,784233,1684236,39,Woman
7,234342,DepthScenes,duration_manipulation_targetAtFixation,jsons/VE125_randls_61_rotated.json,http://54.235.29.9/FacialAge/BNav_EC2/DepthDuration/v2_depth_duration_MTurk/v2_DepthDuration_HTML.html#257,257,1536,864,1536,864,9-3-2022,9-50-7,8,depth_duration_stimuli/002279_2014-06-28_18-55-32_260595134347_rgbf000040-resize_5/002279_2014-06-28_18-55-32_260595134347_rgbf000040-resize_5-target.png,125,1.5043333333333,1.0,5593,126,feet,jsons/VE125_randls_61_rotated.json,784233,1684236,39,Woman
8,234342,DepthScenes,duration_manipulation_targetAtFixation,jsons/VE125_randls_61_rotated.json,http://54.235.29.9/FacialAge/BNav_EC2/DepthDuration/v2_depth_duration_MTurk/v2_DepthDuration_HTML.html#257,257,1536,864,1536,864,9-3-2022,9-50-7,9,depth_duration_stimuli/002545_2014-06-24_13-38-53_094959634447_rgbf000080-resize_4/002545_2014-06-24_13-38-53_094959634447_rgbf000080-resize_4-target.png,125,1.9205,1.0,3646,124,feet,jsons/VE125_randls_61_rotated.json,784233,1684236,39,Woman
9,234342,DepthScenes,duration_manipulation_targetAtFixation,jsons/VE125_randls_61_rotated.json,http://54.235.29.9/FacialAge/BNav_EC2/DepthDuration/v2_depth_duration_MTurk/v2_DepthDuration_HTML.html#257,257,1536,864,1536,864,9-3-2022,9-50-7,10,depth_duration_stimuli/001092_2014-06-15_17-34-58_260595134347_rgbf000171-resize_3/001092_2014-06-15_17-34-58_260595134347_rgbf000171-resize_3-target.png,125,2.6935,2.0,3725,125,feet,jsons/VE125_randls_61_rotated.json,784233,1684236,39,Woman
10,234342,DepthScenes,duration_manipulation_targetAtFixation,jsons/VE125_randls_61_rotated.json,http://54.235.29.9/FacialAge/BNav_EC2/DepthDuration/v2_depth_duration_MTurk/v2_DepthDuration_HTML.html#257,257,1536,864,1536,864,9-3-2022,9-50-7,11,depth_duration_stimuli/000502_2014-06-08_23-02-32_260595134347_rgbf000063-resize_4/000502_2014-06-08_23-02-32_260595134347_rgbf000063-resize_4-target.png,125,2.431,1.0,4124,125,feet,jsons/VE125_randls_61_rotated.json,784233,1684236,39,Woman
11,234342,DepthScenes,duration_manipulation_targetAtFixation,jsons/VE125_randls_61_rotated.json,http://54.235.29.9/FacialAge/BNav_EC2/DepthDuration/v2_depth_duration_MTurk/v2_DepthDuration_HTML.html#257,257,1536,864,1536,864,9-3-2022,9-50-7,12,depth_duration_stimuli/001199_2014-06-17_16-03-48_260595134347_rgbf000077-resize_0/001199_2014-06-17_16-03-48_260595134347_rgbf000077-resize_0-target.png,125,3.4375,1.5,5070,125,feet,jsons/VE125_randls_61_rotated.json,784233,1684236,39,Woman
12,234342,DepthScenes,duration_manipulation_targetAtFixation,jsons/VE125_randls_61_rotated.json,http://54.235.29.9/FacialAge/BNav_EC2/DepthDuration/v2_depth_duration_MTurk/v2_DepthDuration_HTML.html#257,257,1536,864,1536,864,9-3-2022,9-50-7,13,depth_duration_stimuli/000677_2014-06-08_23-10-32_260595134347_rgbf000158-resize_6/000677_2014-06-08_23-10-32_260595134347_rgbf000158-resize_6-target.png,125,3.556,2.5,3897,125,feet,jsons/VE125_randls_61_rotated.json,784233,1684236,39,Woman
13,234342,DepthScenes,duration_manipulation_targetAtFixation,jsons/VE125_randls_61_rotated.json,http://54.235.29.9/FacialAge/BNav_EC2/DepthDuration/v2_depth_duration_MTurk/v2_DepthDuration_HTML.html#257,257,1536,864,1536,864,9-3-2022,9-50-7,14,depth_duration_stimuli/001029_2014-06-08_13-17-57_260595134347_rgbf000065-resize_1/001029_2014-06-08_13-17-57_260595134347_rgbf000065-resize_1-target.png,125,3.0835,3.8,7034,126,feet,jsons/VE125_randls_61_rotated.json,784233,1684236,39,Woman
14,234342,DepthScenes,duration_manipulation_targetAtFixation,jsons/VE125_randls_61_rotated.json,http://54.235.29.9/FacialAge/BNav_EC2/DepthDuration/v2_depth_duration_MTurk/v2_DepthDuration_HTML.html#257,257,1536,864,1536,864,9-3-2022,9-50-7,15,depth_duration_stimuli/002103_2014-06-25_20-00-40_260595134347_rgbf000049-resize_0/002103_2014-06-25_20-00-40_260595134347_rgbf000049-resize_0-target.png,125,4.105,3.0,3553,124,feet,jsons/VE125_randls_61_rotated.json,784233,1684236,39,Woman
15,234342,DepthScenes,duration_manipulation_targetAtFixation,jsons/VE125_randls_61_rotated.json,http://54.235.29.9/FacialAge/BNav_EC2/DepthDuration/v2_depth_duration_MTurk/v2_DepthDuration_HTML.html#257,257,1536,864,1536,864,9-3-2022,9-50-7,16,depth_duration_stimuli/002039_2014-06-24_20-22-38_260595134347_rgbf000084-resize_1/002039_2014-06-24_20-22-38_260595134347_rgbf000084-resize_1-target.png,125,4.408,2.0,4173,125,feet,jsons/VE125_randls_61_rotated.json,784233,1684236,39,Woman
16,234342,DepthScenes,duration_manipulation_targetAtFixation,jsons/VE125_randls_61_rotated.json,http://54.235.29.9/FacialAge/BNav_EC2/DepthDuration/v2_depth_duration_MTurk/v2_DepthDuration_HTML.html#257,257,1536,864,1536,864,9-3-2022,9-50-7,17,depth_duration_stimuli/002136_2014-06-25_21-18-03_260595134347_rgbf000109-resize_3/002136_2014-06-25_21-18-03_260595134347_rgbf000109-resize_3-target.png,125,1.9569999999999999,0.9,5029,124,feet,jsons/VE125_randls_61_rotated.json,784233,1684236,39,Woman
17,234342,DepthScenes,duration_manipulation_targetAtFixation,jsons/VE125_randls_61_rotated.json,http://54.235.29.9/FacialAge/BNav_EC2/DepthDuration/v2_depth_duration_MTurk/v2_DepthDuration_HTML.html#257,257,1536,864,1536,864,9-3-2022,9-50-7,18,depth_duration_stimuli/002964_2014-06-08_17-46-11_094959634447_rgbf000091-resize_4/002964_2014-06-08_17-46-11_094959634447_rgbf000091-resize_4-target.png,125,1.6909999999999998,0.5,6045,123,feet,jsons/VE125_randls_61_rotated.json,784233,1684236,39,Woman
18,234342,DepthScenes,duration_manipulation_targetAtFixation,jsons/VE125_randls_61_rotated.json,http://54.235.29.9/FacialAge/BNav_EC2/DepthDuration/v2_depth_duration_MTurk/v2_DepthDuration_HTML.html#257,257,1536,864,1536,864,9-3-2022,9-50-7,19,depth_duration_stimuli/001498_2014-06-19_17-45-14_260595134347_rgbf000129-resize_4/001498_2014-06-19_17-45-14_260595134347_rgbf000129-resize-original.jpg,125,1.4075,0.5,3463,125,feet,jsons/VE125_randls_61_rotated.json,784233,1684236,39,Woman
19,234342,DepthScenes,duration_manipulation_targetAtFixation,jsons/VE125_randls_61_rotated.json,http://54.235.29.9/FacialAge/BNav_EC2/DepthDuration/v2_depth_duration_MTurk/v2_DepthDuration_HTML.html#257,257,1536,864,1536,864,9-3-2022,9-50-7,20,depth_duration_stimuli/000943_2014-06-09_19-31-07_260595134347_rgbf000128-resize_1/000943_2014-06-09_19-31-07_260595134347_rgbf000128-resize_1-target.png,125,1.9765,0.02,7460,125,feet,jsons/VE125_randls_61_rotated.json,784233,1684236,39,Woman
20,234342,DepthScenes,duration_manipulation_targetAtFixation,jsons/VE125_randls_61_rotated.json,http://54.235.29.9/FacialAge/BNav_EC2/DepthDuration/v2_depth_duration_MTurk/v2_DepthDuration_HTML.html#257,257,1536,864,1536,864,9-3-2022,9-50-7,21,depth_duration_stimuli/003070_2014-06-15_14-58-27_094959634447_rgbf000150-resize_3/003070_2014-06-15_14-58-27_094959634447_rgbf000150-resize_3-target.png,125,2.9415,2.0,6621,126,feet,jsons/VE125_randls_61_rotated.json,784233,1684236,39,Woman
21,234342,DepthScenes,duration_manipulation_targetAtFixation,jsons/VE125_randls_61_rotated.json,http://54.235.29.9/FacialAge/BNav_EC2/DepthDuration/v2_depth_duration_MTurk/v2_DepthDuration_HTML.html#257,257,1536,864,1536,864,9-3-2022,9-50-7,22,depth_duration_stimuli/001032_2014-06-08_13-23-17_260595134347_rgbf000021-resize_3/001032_2014-06-08_13-23-17_260595134347_rgbf000021-resize_3-target.png,125,3.2725,2.0,3887,123,feet,jsons/VE125_randls_61_rotated.json,784233,1684236,39,Woman
22,234342,DepthScenes,duration_manipulation_targetAtFixation,jsons/VE125_randls_61_rotated.json,http://54.235.29.9/FacialAge/BNav_EC2/DepthDuration/v2_depth_duration_MTurk/v2_DepthDuration_HTML.html#257,257,1536,864,1536,864,9-3-2022,9-50-7,23,depth_duration_stimuli/001059_2014-06-08_21-53-27_260595134347_rgbf000061-resize_4/001059_2014-06-08_21-53-27_260595134347_rgbf000061-resize_4-target.png,125,2.4185,3.0,3191,126,feet,jsons/VE125_randls_61_rotated.json,784233,1684236,39,Woman
23,234342,DepthScenes,duration_manipulation_targetAtFixation,jsons/VE125_randls_61_rotated.json,http://54.235.29.9/FacialAge/BNav_EC2/DepthDuration/v2_depth_duration_MTurk/v2_DepthDuration_HTML.html#257,257,1536,864,1536,864,9-3-2022,9-50-7,24,depth_duration_stimuli/003010_2014-06-15_12-54-35_094959634447_rgbf000112-resize_0/003010_2014-06-15_12-54-35_094959634447_rgbf000112-resize_0-target.png,125,3.1185,3.9,5432,124,feet,jsons/VE125_randls_61_rotated.json,784233,1684236,39,Woman
24,234342,DepthScenes,duration_manipulation_targetAtFixation,jsons/VE125_randls_61_rotated.json,http://54.235.29.9/FacialAge/BNav_EC2/DepthDuration/v2_depth_duration_MTurk/v2_DepthDuration_HTML.html#257,257,1536,864,1536,864,9-3-2022,9-50-7,25,depth_duration_stimuli/001810_2014-06-26_20-51-35_260595134347_rgbf000040-resize_3/001810_2014-06-26_20-51-35_260595134347_rgbf000040-resize_3-target.png,125,2.2525,2.0,4045,123,feet,jsons/VE125_randls_61_rotated.json,784233,1684236,39,Woman
25,234342,DepthScenes,duration_manipulation_targetAtFixation,jsons/VE125_randls_61_rotated.json,http://54.235.29.9/FacialAge/BNav_EC2/DepthDuration/v2_depth_duration_MTurk/v2_DepthDuration_HTML.html#257,257,1536,864,1536,864,9-3-2022,9-50-7,26,depth_duration_stimuli/001214_2014-06-17_16-13-55_260595134347_rgbf000111-resize_0/001214_2014-06-17_16-13-55_260595134347_rgbf000111-resize_0-target.png,125,2.6505,2.0,3627,125,feet,jsons/VE125_randls_61_rotated.json,784233,1684236,39,Woman
26,234342,DepthScenes,duration_manipulation_targetAtFixation,jsons/VE125_randls_61_rotated.json,http://54.235.29.9/FacialAge/BNav_EC2/DepthDuration/v2_depth_duration_MTurk/v2_DepthDuration_HTML.html#257,257,1536,864,1536,864,9-3-2022,9-50-7,27,depth_duration_stimuli/000810_2014-06-08_17-20-01_260595134347_rgbf000105-resize_0/000810_2014-06-08_17-20-01_260595134347_rgbf000105-resize_0-target.png,125,1.4865,0.8,3880,124,feet,jsons/VE125_randls_61_rotated.json,784233,1684236,39,Woman
27,234342,DepthScenes,duration_manipulation_targetAtFixation,jsons/VE125_randls_61_rotated.json,http://54.235.29.9/FacialAge/BNav_EC2/DepthDuration/v2_depth_duration_MTurk/v2_DepthDuration_HTML.html#257,257,1536,864,1536,864,9-3-2022,9-50-7,28,depth_duration_stimuli/002340_2014-06-28_20-05-46_260595134347_rgbf000113-resize_0/002340_2014-06-28_20-05-46_260595134347_rgbf000113-resize_0-target.png,125,2.4735,3.0,3166,124,feet,jsons/VE125_randls_61_rotated.json,784233,1684236,39,Woman
28,234342,DepthScenes,duration_manipulation_targetAtFixation,jsons/VE125_randls_61_rotated.json,http://54.235.29.9/FacialAge/BNav_EC2/DepthDuration/v2_depth_duration_MTurk/v2_DepthDuration_HTML.html#257,257,1536,864,1536,864,9-3-2022,9-50-7,29,depth_duration_stimuli/001016_2014-06-09_16-16-10_260595134347_rgbf000112-resize_5/001016_2014-06-09_16-16-10_260595134347_rgbf000112-resize_5-target.png,125,1.6565,1.2,5441,127,feet,jsons/VE125_randls_61_rotated.json,784233,1684236,39,Woman
29,234342,DepthScenes,duration_manipulation_targetAtFixation,jsons/VE125_randls_61_rotated.json,http://54.235.29.9/FacialAge/BNav_EC2/DepthDuration/v2_depth_duration_MTurk/v2_DepthDuration_HTML.html#257,257,1536,864,1536,864,9-3-2022,9-50-7,30,depth_duration_stimuli/002072_2014-06-24_21-48-06_260595134347_rgbf000115-resize_0/002072_2014-06-24_21-48-06_260595134347_rgbf000115-resize-original.jpg,125,4.702,2.0,3779,125,feet,jsons/VE125_randls_61_rotated.json,784233,1684236,39,Woman
30,234342,DepthScenes,duration_manipulation_targetAtFixation,jsons/VE125_randls_61_rotated.json,http://54.235.29.9/FacialAge/BNav_EC2/DepthDuration/v2_depth_duration_MTurk/v2_DepthDuration_HTML.html#257,257,1536,864,1536,864,9-3-2022,9-50-7,31,depth_duration_stimuli/002805_2014-06-22_19-54-03_094959634447_rgbf000079-resize_1/002805_2014-06-22_19-54-03_094959634447_rgbf000079-resize_1-target.png,125,3.1439999999999997,0.0,11173,124,feet,jsons/VE125_randls_61_rotated.json,784233,1684236,39,Woman
31,234342,DepthScenes,duration_manipulation_targetAtFixation,jsons/VE125_randls_61_rotated.json,http://54.235.29.9/FacialAge/BNav_EC2/DepthDuration/v2_depth_duration_MTurk/v2_DepthDuration_HTML.html#257,257,1536,864,1536,864,9-3-2022,9-50-7,32,depth_duration_stimuli/000906_2014-06-08_13-35-43_260595134347_rgbf000155-resize_1/000906_2014-06-08_13-35-43_260595134347_rgbf000155-resize_1-target.png,125,2.8489999999999998,3.0,4356,123,feet,jsons/VE125_randls_61_rotated.json,784233,1684236,39,Woman
32,234342,DepthScenes,duration_manipulation_targetAtFixation,jsons/VE125_randls_61_rotated.json,http://54.235.29.9/FacialAge/BNav_EC2/DepthDuration/v2_depth_duration_MTurk/v2_DepthDuration_HTML.html#257,257,1536,864,1536,864,9-3-2022,9-50-7,33,depth_duration_stimuli/001571_2014-06-20_17-21-32_260595134347_rgbf000089-resize_1/001571_2014-06-20_17-21-32_260595134347_rgbf000089-resize_1-target.png,125,1.86,0.5,6727,124,feet,jsons/VE125_randls_61_rotated.json,784233,1684236,39,Woman
33,234342,DepthScenes,duration_manipulation_targetAtFixation,jsons/VE125_randls_61_rotated.json,http://54.235.29.9/FacialAge/BNav_EC2/DepthDuration/v2_depth_duration_MTurk/v2_DepthDuration_HTML.html#257,257,1536,864,1536,864,9-3-2022,9-50-7,34,depth_duration_stimuli/002272_2014-06-28_18-53-56_260595134347_rgbf000067-resize_2/002272_2014-06-28_18-53-56_260595134347_rgbf000067-resize_2-target.png,125,1.138,0.2,6499,124,feet,jsons/VE125_randls_61_rotated.json,784233,1684236,39,Woman
34,234342,DepthScenes,duration_manipulation_targetAtFixation,jsons/VE125_randls_61_rotated.json,http://54.235.29.9/FacialAge/BNav_EC2/DepthDuration/v2_depth_duration_MTurk/v2_DepthDuration_HTML.html#257,257,1536,864,1536,864,9-3-2022,9-50-7,35,depth_duration_stimuli/000483_2014-06-09_20-41-45_260595134347_rgbf000116-resize_4/000483_2014-06-09_20-41-45_260595134347_rgbf000116-resize_4-target.png,125,1.337,0.5,4268,124,feet,jsons/VE125_randls_61_rotated.json,784233,1684236,39,Woman
35,234342,DepthScenes,duration_manipulation_targetAtFixation,jsons/VE125_randls_61_rotated.json,http://54.235.29.9/FacialAge/BNav_EC2/DepthDuration/v2_depth_duration_MTurk/v2_DepthDuration_HTML.html#257,257,1536,864,1536,864,9-3-2022,9-50-7,36,depth_duration_stimuli/000469_2014-06-09_19-42-10_260595134347_rgbf000081-resize_1/000469_2014-06-09_19-42-10_260595134347_rgbf000081-resize_1-target.png,125,1.652,0.5,5786,125,feet,jsons/VE125_randls_61_rotated.json,784233,1684236,39,Woman
36,234342,DepthScenes,duration_manipulation_targetAtFixation,jsons/VE125_randls_61_rotated.json,http://54.235.29.9/FacialAge/BNav_EC2/DepthDuration/v2_depth_duration_MTurk/v2_DepthDuration_HTML.html#257,257,1536,864,1536,864,9-3-2022,9-50-7,37,depth_duration_stimuli/000556_2014-06-09_22-42-56_260595134347_rgbf000214-resize_1/000556_2014-06-09_22-42-56_260595134347_rgbf000214-resize_1-target.png,125,4.8415,3.0,5011,124,feet,jsons/VE125_randls_61_rotated.json,784233,1684236,39,Woman
37,234342,DepthScenes,duration_manipulation_targetAtFixation,jsons/VE125_randls_61_rotated.json,http://54.235.29.9/FacialAge/BNav_EC2/DepthDuration/v2_depth_duration_MTurk/v2_DepthDuration_HTML.html#257,257,1536,864,1536,864,9-3-2022,9-50-7,38,depth_duration_stimuli/001158_2014-06-17_15-32-16_260595134347_rgbf000138-resize_2/001158_2014-06-17_15-32-16_260595134347_rgbf000138-resize_2-target.png,125,4.5315,2.0,7187,126,feet,jsons/VE125_randls_61_rotated.json,784233,1684236,39,Woman
38,234342,DepthScenes,duration_manipulation_targetAtFixation,jsons/VE125_randls_61_rotated.json,http://54.235.29.9/FacialAge/BNav_EC2/DepthDuration/v2_depth_duration_MTurk/v2_DepthDuration_HTML.html#257,257,1536,864,1536,864,9-3-2022,9-50-7,39,depth_duration_stimuli/003587_2014-05-23_16-48-02_094959634447_rgbf002384-resize_2/003587_2014-05-23_16-48-02_094959634447_rgbf002384-resize_2-target.png,125,1.357,0.02,6471,124,feet,jsons/VE125_randls_61_rotated.json,784233,1684236,39,Woman
39,234342,DepthScenes,duration_manipulation_targetAtFixation,jsons/VE125_randls_61_rotated.json,http://54.235.29.9/FacialAge/BNav_EC2/DepthDuration/v2_depth_duration_MTurk/v2_DepthDuration_HTML.html#257,257,1536,864,1536,864,9-3-2022,9-50-7,40,depth_duration_stimuli/001167_2014-06-17_15-38-07_260595134347_rgbf000108-resize_0/001167_2014-06-17_15-38-07_260595134347_rgbf000108-resize_0-target.png,125,1.8505,0.03,5778,124,feet,jsons/VE125_randls_61_rotated.json,784233,1684236,39,Woman
40,234342,DepthScenes,duration_manipulation_targetAtFixation,jsons/VE125_randls_61_rotated.json,http://54.235.29.9/FacialAge/BNav_EC2/DepthDuration/v2_depth_duration_MTurk/v2_DepthDuration_HTML.html#257,257,1536,864,1536,864,9-3-2022,9-50-7,41,depth_duration_stimuli/002639_2014-06-24_14-51-37_094959634447_rgbf000074-resize_4/002639_2014-06-24_14-51-37_094959634447_rgbf000074-resize_4-target.png,125,4.0375,1.0,2879,125,feet,jsons/VE125_randls_61_rotated.json,784233,1684236,39,Woman
41,234342,DepthScenes,duration_manipulation_targetAtFixation,jsons/VE125_randls_61_rotated.json,http://54.235.29.9/FacialAge/BNav_EC2/DepthDuration/v2_depth_duration_MTurk/v2_DepthDuration_HTML.html#257,257,1536,864,1536,864,9-3-2022,9-50-7,42,depth_duration_stimuli/003292_2014-05-14_21-53-49_094959634447_rgbf000100-resize_2/003292_2014-05-14_21-53-49_094959634447_rgbf000100-resize_2-target.png,125,3.4815,2.0,4192,122,feet,jsons/VE125_randls_61_rotated.json,784233,1684236,39,Woman
42,234342,DepthScenes,duration_manipulation_targetAtFixation,jsons/VE125_randls_61_rotated.json,http://54.235.29.9/FacialAge/BNav_EC2/DepthDuration/v2_depth_duration_MTurk/v2_DepthDuration_HTML.html#257,257,1536,864,1536,864,9-3-2022,9-50-7,43,depth_duration_stimuli/001132_2014-06-17_14-48-54_260595134347_rgbf000100-resize_2/001132_2014-06-17_14-48-54_260595134347_rgbf000100-resize_2-target.png,125,3.753,2.0,5740,126,feet,jsons/VE125_randls_61_rotated.json,784233,1684236,39,Woman
43,234342,DepthScenes,duration_manipulation_targetAtFixation,jsons/VE125_randls_61_rotated.json,http://54.235.29.9/FacialAge/BNav_EC2/DepthDuration/v2_depth_duration_MTurk/v2_DepthDuration_HTML.html#257,257,1536,864,1536,864,9-3-2022,9-50-7,44,depth_duration_stimuli/001133_2014-06-17_14-49-16_260595134347_rgbf000100-resize_0/001133_2014-06-17_14-49-16_260595134347_rgbf000100-resize_0-target.png,125,4.2115,3.0,3674,125,feet,jsons/VE125_randls_61_rotated.json,784233,1684236,39,Woman
44,234342,DepthScenes,duration_manipulation_targetAtFixation,jsons/VE125_randls_61_rotated.json,http://54.235.29.9/FacialAge/BNav_EC2/DepthDuration/v2_depth_duration_MTurk/v2_DepthDuration_HTML.html#257,257,1536,864,1536,864,9-3-2022,9-50-7,45,depth_duration_stimuli/001828_2014-06-26_21-40-03_260595134347_rgbf000024-resize_0/001828_2014-06-26_21-40-03_260595134347_rgbf000024-resize_0-target.png,125,4.8260000000000005,0.0,5646,125,feet,jsons/VE125_randls_61_rotated.json,784233,1684236,39,Woman
45,234342,DepthScenes,duration_manipulation_targetAtFixation,jsons/VE125_randls_61_rotated.json,http://54.235.29.9/FacialAge/BNav_EC2/DepthDuration/v2_depth_duration_MTurk/v2_DepthDuration_HTML.html#257,257,1536,864,1536,864,9-3-2022,9-50-7,46,depth_duration_stimuli/000009_2014-05-26_14-32-05_260595134347_rgbf000034-resize_3/000009_2014-05-26_14-32-05_260595134347_rgbf000034-resize_3-target.png,125,3.8715,5.0,4069,123,feet,jsons/VE125_randls_61_rotated.json,784233,1684236,39,Woman
46,234342,DepthScenes,duration_manipulation_targetAtFixation,jsons/VE125_randls_61_rotated.json,http://54.235.29.9/FacialAge/BNav_EC2/DepthDuration/v2_depth_duration_MTurk/v2_DepthDuration_HTML.html#257,257,1536,864,1536,864,9-3-2022,9-50-7,47,depth_duration_stimuli/001136_2014-06-17_15-19-41_260595134347_rgbf000076-resize_3/001136_2014-06-17_15-19-41_260595134347_rgbf000076-resize_3-target.png,125,1.8655,2.0,3011,126,feet,jsons/VE125_randls_61_rotated.json,784233,1684236,39,Woman
47,234342,DepthScenes,duration_manipulation_targetAtFixation,jsons/VE125_randls_61_rotated.json,http://54.235.29.9/FacialAge/BNav_EC2/DepthDuration/v2_depth_duration_MTurk/v2_DepthDuration_HTML.html#257,257,1536,864,1536,864,9-3-2022,9-50-7,48,depth_duration_stimuli/001164_2014-06-17_15-35-46_260595134347_rgbf000085-resize_3/001164_2014-06-17_15-35-46_260595134347_rgbf000085-resize_3-target.png,125,2.354,2.4,7732,125,feet,jsons/VE125_randls_61_rotated.json,784233,1684236,39,Woman
48,234342,DepthScenes,duration_manipulation_targetAtFixation,jsons/VE125_randls_61_rotated.json,http://54.235.29.9/FacialAge/BNav_EC2/DepthDuration/v2_depth_duration_MTurk/v2_DepthDuration_HTML.html#257,257,1536,864,1536,864,9-3-2022,9-50-7,49,depth_duration_stimuli/001170_2014-06-17_15-43-44_260595134347_rgbf000096-resize_6/001170_2014-06-17_15-43-44_260595134347_rgbf000096-resize-original.jpg,125,1.1909999999999998,0.0,5052,127,feet,jsons/VE125_randls_61_rotated.json,784233,1684236,39,Woman
49,234342,DepthScenes,duration_manipulation_targetAtFixation,jsons/VE125_randls_61_rotated.json,http://54.235.29.9/FacialAge/BNav_EC2/DepthDuration/v2_depth_duration_MTurk/v2_DepthDuration_HTML.html#257,257,1536,864,1536,864,9-3-2022,9-50-7,50,depth_duration_stimuli/002953_2014-06-08_17-32-18_094959634447_rgbf000059-resize_5/002953_2014-06-08_17-32-18_094959634447_rgbf000059-resize_5-target.png,125,1.551,1.0,3355,124,feet,jsons/VE125_randls_61_rotated.json,784233,1684236,39,Woman
50,234342,DepthScenes,duration_manipulation_targetAtFixation,jsons/VE125_randls_61_rotated.json,http://54.235.29.9/FacialAge/BNav_EC2/DepthDuration/v2_depth_duration_MTurk/v2_DepthDuration_HTML.html#257,257,1536,864,1536,864,9-3-2022,9-50-7,51,depth_duration_stimuli/000878_2014-06-08_22-52-45_260595134347_rgbf000045-resize_2/000878_2014-06-08_22-52-45_260595134347_rgbf000045-resize_2-target.png,125,2.092,3.0,5182,123,feet,jsons/VE125_randls_61_rotated.json,784233,1684236,39,Woman
51,234342,DepthScenes,duration_manipulation_targetAtFixation,jsons/VE125_randls_61_rotated.json,http://54.235.29.9/FacialAge/BNav_EC2/DepthDuration/v2_depth_duration_MTurk/v2_DepthDuration_HTML.html#257,257,1536,864,1536,864,9-3-2022,9-50-7,52,depth_duration_stimuli/001584_2014-06-20_11-07-43_260595134347_rgbf000002-resize_1/001584_2014-06-20_11-07-43_260595134347_rgbf000002-resize_1-target.png,125,3.53,3.0,2935,139,feet,jsons/VE125_randls_61_rotated.json,784233,1684236,39,Woman
52,234342,DepthScenes,duration_manipulation_targetAtFixation,jsons/VE125_randls_61_rotated.json,http://54.235.29.9/FacialAge/BNav_EC2/DepthDuration/v2_depth_duration_MTurk/v2_DepthDuration_HTML.html#257,257,1536,864,1536,864,9-3-2022,9-50-7,53,depth_duration_stimuli/003621_2014-05-23_18-06-08_094959634447_rgbf000101-resize_1/003621_2014-05-23_18-06-08_094959634447_rgbf000101-resize_1-target.png,125,3.9835,4.0,3784,125,feet,jsons/VE125_randls_61_rotated.json,784233,1684236,39,Woman
53,234342,DepthScenes,duration_manipulation_targetAtFixation,jsons/VE125_randls_61_rotated.json,http://54.235.29.9/FacialAge/BNav_EC2/DepthDuration/v2_depth_duration_MTurk/v2_DepthDuration_HTML.html#257,257,1536,864,1536,864,9-3-2022,9-50-7,54,depth_duration_stimuli/002678_2014-06-13_16-15-32_094959634447_rgbf000151-resize_6/002678_2014-06-13_16-15-32_094959634447_rgbf000151-resize_6-target.png,125,2.1830000000000003,6.0,4775,126,feet,jsons/VE125_randls_61_rotated.json,784233,1684236,39,Woman
54,234342,DepthScenes,duration_manipulation_targetAtFixation,jsons/VE125_randls_61_rotated.json,http://54.235.29.9/FacialAge/BNav_EC2/DepthDuration/v2_depth_duration_MTurk/v2_DepthDuration_HTML.html#257,257,1536,864,1536,864,9-3-2022,9-50-7,55,depth_duration_stimuli/000368_2014-06-09_15-53-01_260595134347_rgbf000155-resize_2/000368_2014-06-09_15-53-01_260595134347_rgbf000155-resize_2-target.png,125,2.4859999999999998,3.0,2668,103,feet,jsons/VE125_randls_61_rotated.json,784233,1684236,39,Woman
55,234342,DepthScenes,duration_manipulation_targetAtFixation,jsons/VE125_randls_61_rotated.json,http://54.235.29.9/FacialAge/BNav_EC2/DepthDuration/v2_depth_duration_MTurk/v2_DepthDuration_HTML.html#257,257,1536,864,1536,864,9-3-2022,9-50-7,56,depth_duration_stimuli/002323_2014-06-28_20-01-54_260595134347_rgbf000051-resize_4/002323_2014-06-28_20-01-54_260595134347_rgbf000051-resize_4-target.png,125,3.7310000000000003,6.0,2285,125,feet,jsons/VE125_randls_61_rotated.json,784233,1684236,39,Woman
56,234342,DepthScenes,duration_manipulation_targetAtFixation,jsons/VE125_randls_61_rotated.json,http://54.235.29.9/FacialAge/BNav_EC2/DepthDuration/v2_depth_duration_MTurk/v2_DepthDuration_HTML.html#257,257,1536,864,1536,864,9-3-2022,9-50-7,57,depth_duration_stimuli/000917_2014-06-09_22-45-29_260595134347_rgbf000149-resize_3/000917_2014-06-09_22-45-29_260595134347_rgbf000149-resize_3-target.png,125,4.1865,4.0,3967,124,feet,jsons/VE125_randls_61_rotated.json,784233,1684236,39,Woman
57,234342,DepthScenes,duration_manipulation_targetAtFixation,jsons/VE125_randls_61_rotated.json,http://54.235.29.9/FacialAge/BNav_EC2/DepthDuration/v2_depth_duration_MTurk/v2_DepthDuration_HTML.html#257,257,1536,864,1536,864,9-3-2022,9-50-7,58,depth_duration_stimuli/002995_2014-06-15_12-31-26_094959634447_rgbf000150-resize_1/002995_2014-06-15_12-31-26_094959634447_rgbf000150-resize_1-target.png,125,3.8360000000000003,0.0,8364,124,feet,jsons/VE125_randls_61_rotated.json,784233,1684236,39,Woman
58,234342,DepthScenes,duration_manipulation_targetAtFixation,jsons/VE125_randls_61_rotated.json,http://54.235.29.9/FacialAge/BNav_EC2/DepthDuration/v2_depth_duration_MTurk/v2_DepthDuration_HTML.html#257,257,1536,864,1536,864,9-3-2022,9-50-7,59,depth_duration_stimuli/002748_2014-06-22_19-07-22_094959634447_rgbf000078-resize_1/002748_2014-06-22_19-07-22_094959634447_rgbf000078-resize_1-target.png,125,4.6705,5.7,5764,125,feet,jsons/VE125_randls_61_rotated.json,784233,1684236,39,Woman
59,234342,DepthScenes,duration_manipulation_targetAtFixation,jsons/VE125_randls_61_rotated.json,http://54.235.29.9/FacialAge/BNav_EC2/DepthDuration/v2_depth_duration_MTurk/v2_DepthDuration_HTML.html#257,257,1536,864,1536,864,9-3-2022,9-50-7,60,depth_duration_stimuli/003129_2014-05-12_10-48-10_094959634447_rgbf000100-resize_0/003129_2014-05-12_10-48-10_094959634447_rgbf000100-resize_0-target.png,125,4.9305,5.0,5619,125,feet,jsons/VE125_randls_61_rotated.json,784233,1684236,39,Woman
60,234342,DepthScenes,duration_manipulation_targetAtFixation,jsons/VE125_randls_61_rotated.json,http://54.235.29.9/FacialAge/BNav_EC2/DepthDuration/v2_depth_duration_MTurk/v2_DepthDuration_HTML.html#257,257,1536,864,1536,864,9-3-2022,9-50-7,61,depth_duration_stimuli/000414_2014-06-04_19-49-13_260595134347_rgbf000044-resize_0/000414_2014-06-04_19-49-13_260595134347_rgbf000044-resize_0-target.png,125,4.329,3.7,5985,126,feet,jsons/VE125_randls_61_rotated.json,784233,1684236,39,Woman
61,234342,DepthScenes,duration_manipulation_targetAtFixation,jsons/VE125_randls_61_rotated.json,http://54.235.29.9/FacialAge/BNav_EC2/DepthDuration/v2_depth_duration_MTurk/v2_DepthDuration_HTML.html#257,257,1536,864,1536,864,9-3-2022,9-50-7,62,depth_duration_stimuli/003048_2014-06-15_13-49-43_094959634447_rgbf000150-resize_1/003048_2014-06-15_13-49-43_094959634447_rgbf000150-resize_1-target.png,125,4.0035,3.0,4195,123,feet,jsons/VE125_randls_61_rotated.json,784233,1684236,39,Woman
62,234342,DepthScenes,duration_manipulation_targetAtFixation,jsons/VE125_randls_61_rotated.json,http://54.235.29.9/FacialAge/BNav_EC2/DepthDuration/v2_depth_duration_MTurk/v2_DepthDuration_HTML.html#257,257,1536,864,1536,864,9-3-2022,9-50-7,63,depth_duration_stimuli/002043_2014-06-24_20-29-38_260595134347_rgbf000039-resize_4/002043_2014-06-24_20-29-38_260595134347_rgbf000039-resize_4-target.png,125,2.8435,3.0,2822,125,feet,jsons/VE125_randls_61_rotated.json,784233,1684236,39,Woman
63,234342,DepthScenes,duration_manipulation_targetAtFixation,jsons/VE125_randls_61_rotated.json,http://54.235.29.9/FacialAge/BNav_EC2/DepthDuration/v2_depth_duration_MTurk/v2_DepthDuration_HTML.html#257,257,1536,864,1536,864,9-3-2022,9-50-7,64,depth_duration_stimuli/000409_2014-06-04_19-23-33_260595134347_rgbf000067-resize_0/000409_2014-06-04_19-23-33_260595134347_rgbf000067-resize_0-target.png,125,3.7335,4.0,3682,124,feet,jsons/VE125_randls_61_rotated.json,784233,1684236,39,Woman
64,234342,DepthScenes,duration_manipulation_targetAtFixation,jsons/VE125_randls_61_rotated.json,http://54.235.29.9/FacialAge/BNav_EC2/DepthDuration/v2_depth_duration_MTurk/v2_DepthDuration_HTML.html#257,257,1536,864,1536,864,9-3-2022,9-50-7,65,depth_duration_stimuli/002663_2014-06-13_15-50-26_094959634447_rgbf000075-resize_1/002663_2014-06-13_15-50-26_094959634447_rgbf000075-resize_1-target.png,125,4.7495,4.7,4376,124,feet,jsons/VE125_randls_61_rotated.json,784233,1684236,39,Woman
65,234342,DepthScenes,duration_manipulation_targetAtFixation,jsons/VE125_randls_61_rotated.json,http://54.235.29.9/FacialAge/BNav_EC2/DepthDuration/v2_depth_duration_MTurk/v2_DepthDuration_HTML.html#257,257,1536,864,1536,864,9-3-2022,9-50-7,66,depth_duration_stimuli/001540_2014-06-20_17-01-05_260595134347_rgbf000086-resize_2/001540_2014-06-20_17-01-05_260595134347_rgbf000086-resize-original.jpg,125,1.459,0.0,2714,126,feet,jsons/VE125_randls_61_rotated.json,784233,1684236,39,Woman
66,234342,DepthScenes,duration_manipulation_targetAtFixation,jsons/VE125_randls_61_rotated.json,http://54.235.29.9/FacialAge/BNav_EC2/DepthDuration/v2_depth_duration_MTurk/v2_DepthDuration_HTML.html#257,257,1536,864,1536,864,9-3-2022,9-50-7,67,depth_duration_stimuli/003081_2014-06-15_15-19-16_094959634447_rgbf000150-resize_1/003081_2014-06-15_15-19-16_094959634447_rgbf000150-resize_1-target.png,125,3.9125,3.0,3765,124,feet,jsons/VE125_randls_61_rotated.json,784233,1684236,39,Woman
67,234342,DepthScenes,duration_manipulation_targetAtFixation,jsons/VE125_randls_61_rotated.json,http://54.235.29.9/FacialAge/BNav_EC2/DepthDuration/v2_depth_duration_MTurk/v2_DepthDuration_HTML.html#257,257,1536,864,1536,864,9-3-2022,9-50-7,68,depth_duration_stimuli/001417_2014-06-19_16-25-36_260595134347_rgbf000115-resize_5/001417_2014-06-19_16-25-36_260595134347_rgbf000115-resize_5-target.png,125,4.6255,3.0,2948,123,feet,jsons/VE125_randls_61_rotated.json,784233,1684236,39,Woman
68,234342,DepthScenes,duration_manipulation_targetAtFixation,jsons/VE125_randls_61_rotated.json,http://54.235.29.9/FacialAge/BNav_EC2/DepthDuration/v2_depth_duration_MTurk/v2_DepthDuration_HTML.html#257,257,1536,864,1536,864,9-3-2022,9-50-7,69,depth_duration_stimuli/003338_2014-05-20_11-01-23_094959634447_rgbf000051-resize_6/003338_2014-05-20_11-01-23_094959634447_rgbf000051-resize_6-target.png,125,1.693,1.0,2712,123,feet,jsons/VE125_randls_61_rotated.json,784233,1684236,39,Woman
69,234342,DepthScenes,duration_manipulation_targetAtFixation,jsons/VE125_randls_61_rotated.json,http://54.235.29.9/FacialAge/BNav_EC2/DepthDuration/v2_depth_duration_MTurk/v2_DepthDuration_HTML.html#257,257,1536,864,1536,864,9-3-2022,9-50-7,70,depth_duration_stimuli/002509_2014-06-24_13-19-22_094959634447_rgbf000077-resize_0/002509_2014-06-24_13-19-22_094959634447_rgbf000077-resize_0-target.png,125,1.3065,1.0,2776,124,feet,jsons/VE125_randls_61_rotated.json,784233,1684236,39,Woman
70,234342,DepthScenes,duration_manipulation_targetAtFixation,jsons/VE125_randls_61_rotated.json,http://54.235.29.9/FacialAge/BNav_EC2/DepthDuration/v2_depth_duration_MTurk/v2_DepthDuration_HTML.html#257,257,1536,864,1536,864,9-3-2022,9-50-7,71,depth_duration_stimuli/000137_2014-05-20_17-04-49_260595134347_rgbf000120-resize_1/000137_2014-05-20_17-04-49_260595134347_rgbf000120-resize_1-target.png,125,3.786,2.8,4431,124,feet,jsons/VE125_randls_61_rotated.json,784233,1684236,39,Woman
71,234342,DepthScenes,duration_manipulation_targetAtFixation,jsons/VE125_randls_61_rotated.json,http://54.235.29.9/FacialAge/BNav_EC2/DepthDuration/v2_depth_duration_MTurk/v2_DepthDuration_HTML.html#257,257,1536,864,1536,864,9-3-2022,9-50-7,72,depth_duration_stimuli/000736_2014-06-08_18-24-15_260595134347_rgbf000206-resize_3/000736_2014-06-08_18-24-15_260595134347_rgbf000206-resize_3-target.png,125,3.515,2.2,4688,125,feet,jsons/VE125_randls_61_rotated.json,784233,1684236,39,Woman
72,234342,DepthScenes,duration_manipulation_targetAtFixation,jsons/VE125_randls_61_rotated.json,http://54.235.29.9/FacialAge/BNav_EC2/DepthDuration/v2_depth_duration_MTurk/v2_DepthDuration_HTML.html#257,257,1536,864,1536,864,9-3-2022,9-50-7,73,depth_duration_stimuli/001617_2014-06-20_11-35-32_260595134347_rgbf000066-resize_1/001617_2014-06-20_11-35-32_260595134347_rgbf000066-resize_1-target.png,125,3.7910000000000004,2.9,6455,125,feet,jsons/VE125_randls_61_rotated.json,784233,1684236,39,Woman
73,234342,DepthScenes,duration_manipulation_targetAtFixation,jsons/VE125_randls_61_rotated.json,http://54.235.29.9/FacialAge/BNav_EC2/DepthDuration/v2_depth_duration_MTurk/v2_DepthDuration_HTML.html#257,257,1536,864,1536,864,9-3-2022,9-50-7,74,depth_duration_stimuli/001806_2014-06-26_20-50-20_260595134347_rgbf000091-resize_1/001806_2014-06-26_20-50-20_260595134347_rgbf000091-resize_1-target.png,125,2.7305,1.1,4861,124,feet,jsons/VE125_randls_61_rotated.json,784233,1684236,39,Woman
74,234342,DepthScenes,duration_manipulation_targetAtFixation,jsons/VE125_randls_61_rotated.json,http://54.235.29.9/FacialAge/BNav_EC2/DepthDuration/v2_depth_duration_MTurk/v2_DepthDuration_HTML.html#257,257,1536,864,1536,864,9-3-2022,9-50-7,75,depth_duration_stimuli/000866_2014-06-09_20-45-42_260595134347_rgbf000139-resize_1/000866_2014-06-09_20-45-42_260595134347_rgbf000139-resize_1-target.png,125,3.2155,1.0,4277,124,feet,jsons/VE125_randls_61_rotated.json,784233,1684236,39,Woman
75,234342,DepthScenes,duration_manipulation_targetAtFixation,jsons/VE125_randls_61_rotated.json,http://54.235.29.9/FacialAge/BNav_EC2/DepthDuration/v2_depth_duration_MTurk/v2_DepthDuration_HTML.html#257,257,1536,864,1536,864,9-3-2022,9-50-7,76,depth_duration_stimuli/002989_2014-06-15_12-25-03_094959634447_rgbf000150-resize_3/002989_2014-06-15_12-25-03_094959634447_rgbf000150-resize_3-target.png,125,4.1975,4.0,3680,124,feet,jsons/VE125_randls_61_rotated.json,784233,1684236,39,Woman
76,234342,DepthScenes,duration_manipulation_targetAtFixation,jsons/VE125_randls_61_rotated.json,http://54.235.29.9/FacialAge/BNav_EC2/DepthDuration/v2_depth_duration_MTurk/v2_DepthDuration_HTML.html#257,257,1536,864,1536,864,9-3-2022,9-50-7,77,depth_duration_stimuli/000103_2014-05-14_22-01-17_260595134347_rgbf000152-resize_5/000103_2014-05-14_22-01-17_260595134347_rgbf000152-resize_5-target.png,125,1.993,5.0,3589,123,feet,jsons/VE125_randls_61_rotated.json,784233,1684236,39,Woman
77,234342,DepthScenes,duration_manipulation_targetAtFixation,jsons/VE125_randls_61_rotated.json,http://54.235.29.9/FacialAge/BNav_EC2/DepthDuration/v2_depth_duration_MTurk/v2_DepthDuration_HTML.html#257,257,1536,864,1536,864,9-3-2022,9-50-7,78,depth_duration_stimuli/001555_2014-06-20_17-12-10_260595134347_rgbf000065-resize_4/001555_2014-06-20_17-12-10_260595134347_rgbf000065-resize_4-target.png,125,1.633,0.3,5051,124,feet,jsons/VE125_randls_61_rotated.json,784233,1684236,39,Woman
78,234342,DepthScenes,duration_manipulation_targetAtFixation,jsons/VE125_randls_61_rotated.json,http://54.235.29.9/FacialAge/BNav_EC2/DepthDuration/v2_depth_duration_MTurk/v2_DepthDuration_HTML.html#257,257,1536,864,1536,864,9-3-2022,9-50-7,79,depth_duration_stimuli/000457_2014-06-08_16-52-43_260595134347_rgbf000199-resize_1/000457_2014-06-08_16-52-43_260595134347_rgbf000199-resize_1-target.png,125,3.6489999999999996,3.0,3450,125,feet,jsons/VE125_randls_61_rotated.json,784233,1684236,39,Woman
79,234342,DepthScenes,duration_manipulation_targetAtFixation,jsons/VE125_randls_61_rotated.json,http://54.235.29.9/FacialAge/BNav_EC2/DepthDuration/v2_depth_duration_MTurk/v2_DepthDuration_HTML.html#257,257,1536,864,1536,864,9-3-2022,9-50-7,80,depth_duration_stimuli/000929_2014-06-09_16-33-19_260595134347_rgbf000139-resize_0/000929_2014-06-09_16-33-19_260595134347_rgbf000139-resize_0-target.png,125,2.8680000000000003,3.0,4625,123,feet,jsons/VE125_randls_61_rotated.json,784233,1684236,39,Woman
80,234342,DepthScenes,duration_manipulation_targetAtFixation,jsons/VE125_randls_61_rotated.json,http://54.235.29.9/FacialAge/BNav_EC2/DepthDuration/v2_depth_duration_MTurk/v2_DepthDuration_HTML.html#257,257,1536,864,1536,864,9-3-2022,9-50-7,81,depth_duration_stimuli/002949_2014-06-26_15-57-42_094959634447_rgbf000079-resize_1/002949_2014-06-26_15-57-42_094959634447_rgbf000079-resize_1-target.png,125,1.8915,0.5,5820,122,feet,jsons/VE125_randls_61_rotated.json,784233,1684236,39,Woman
81,234342,DepthScenes,duration_manipulation_targetAtFixation,jsons/VE125_randls_61_rotated.json,http://54.235.29.9/FacialAge/BNav_EC2/DepthDuration/v2_depth_duration_MTurk/v2_DepthDuration_HTML.html#257,257,1536,864,1536,864,9-3-2022,9-50-7,82,depth_duration_stimuli/000522_2014-06-08_13-35-06_260595134347_rgbf000244-resize_1/000522_2014-06-08_13-35-06_260595134347_rgbf000244-resize_1-target.png,125,2.3715,0.5,3706,126,feet,jsons/VE125_randls_61_rotated.json,784233,1684236,39,Woman
82,234342,DepthScenes,duration_manipulation_targetAtFixation,jsons/VE125_randls_61_rotated.json,http://54.235.29.9/FacialAge/BNav_EC2/DepthDuration/v2_depth_duration_MTurk/v2_DepthDuration_HTML.html#257,257,1536,864,1536,864,9-3-2022,9-50-7,83,depth_duration_stimuli/000665_2014-06-09_20-42-35_260595134347_rgbf000110-resize_1/000665_2014-06-09_20-42-35_260595134347_rgbf000110-resize_1-target.png,125,3.057,2.0,4078,124,feet,jsons/VE125_randls_61_rotated.json,784233,1684236,39,Woman
83,234342,DepthScenes,duration_manipulation_targetAtFixation,jsons/VE125_randls_61_rotated.json,http://54.235.29.9/FacialAge/BNav_EC2/DepthDuration/v2_depth_duration_MTurk/v2_DepthDuration_HTML.html#257,257,1536,864,1536,864,9-3-2022,9-50-7,84,depth_duration_stimuli/001150_2014-06-17_15-27-34_260595134347_rgbf000108-resize_2/001150_2014-06-17_15-27-34_260595134347_rgbf000108-resize_2-target.png,125,4.0325,2.9,4160,126,feet,jsons/VE125_randls_61_rotated.json,784233,1684236,39,Woman
84,234342,DepthScenes,duration_manipulation_targetAtFixation,jsons/VE125_randls_61_rotated.json,http://54.235.29.9/FacialAge/BNav_EC2/DepthDuration/v2_depth_duration_MTurk/v2_DepthDuration_HTML.html#257,257,1536,864,1536,864,9-3-2022,9-50-7,85,depth_duration_stimuli/000109_2014-05-14_23-41-52_260595134347_rgbf000035-resize_9/000109_2014-05-14_23-41-52_260595134347_rgbf000035-resize_9-target.png,125,1.3545,1.0,2767,126,feet,jsons/VE125_randls_61_rotated.json,784233,1684236,39,Woman
85,234342,DepthScenes,duration_manipulation_targetAtFixation,jsons/VE125_randls_61_rotated.json,http://54.235.29.9/FacialAge/BNav_EC2/DepthDuration/v2_depth_duration_MTurk/v2_DepthDuration_HTML.html#257,257,1536,864,1536,864,9-3-2022,9-50-7,86,depth_duration_stimuli/000470_2014-06-09_19-42-40_260595134347_rgbf000094-resize_1/000470_2014-06-09_19-42-40_260595134347_rgbf000094-resize_1-target.png,125,1.831,1.0,2264,125,feet,jsons/VE125_randls_61_rotated.json,784233,1684236,39,Woman
86,234342,DepthScenes,duration_manipulation_targetAtFixation,jsons/VE125_randls_61_rotated.json,http://54.235.29.9/FacialAge/BNav_EC2/DepthDuration/v2_depth_duration_MTurk/v2_DepthDuration_HTML.html#257,257,1536,864,1536,864,9-3-2022,9-50-7,87,depth_duration_stimuli/001235_2014-06-17_16-37-36_260595134347_rgbf000084-resize_4/001235_2014-06-17_16-37-36_260595134347_rgbf000084-resize_4-target.png,125,3.6605,3.0,2374,118,feet,jsons/VE125_randls_61_rotated.json,784233,1684236,39,Woman
87,234342,DepthScenes,duration_manipulation_targetAtFixation,jsons/VE125_randls_61_rotated.json,http://54.235.29.9/FacialAge/BNav_EC2/DepthDuration/v2_depth_duration_MTurk/v2_DepthDuration_HTML.html#257,257,1536,864,1536,864,9-3-2022,9-50-7,88,depth_duration_stimuli/000788_2014-06-08_22-34-36_260595134347_rgbf000131-resize_1/000788_2014-06-08_22-34-36_260595134347_rgbf000131-resize_1-target.png,125,3.359,2.0,3794,128,feet,jsons/VE125_randls_61_rotated.json,784233,1684236,39,Woman
88,234342,DepthScenes,duration_manipulation_targetAtFixation,jsons/VE125_randls_61_rotated.json,http://54.235.29.9/FacialAge/BNav_EC2/DepthDuration/v2_depth_duration_MTurk/v2_DepthDuration_HTML.html#257,257,1536,864,1536,864,9-3-2022,9-50-7,89,depth_duration_stimuli/001815_2014-06-26_20-52-55_260595134347_rgbf000020-resize_0/001815_2014-06-26_20-52-55_260595134347_rgbf000020-resize_0-target.png,125,3.3865,2.0,2459,125,feet,jsons/VE125_randls_61_rotated.json,784233,1684236,39,Woman
89,234342,DepthScenes,duration_manipulation_targetAtFixation,jsons/VE125_randls_61_rotated.json,http://54.235.29.9/FacialAge/BNav_EC2/DepthDuration/v2_depth_duration_MTurk/v2_DepthDuration_HTML.html#257,257,1536,864,1536,864,9-3-2022,9-50-7,90,depth_duration_stimuli/001808_2014-06-26_20-50-58_260595134347_rgbf000029-resize_1/001808_2014-06-26_20-50-58_260595134347_rgbf000029-resize_1-target.png,125,4.249,4.0,5121,125,feet,jsons/VE125_randls_61_rotated.json,784233,1684236,39,Woman
90,234342,DepthScenes,duration_manipulation_targetAtFixation,jsons/VE125_randls_61_rotated.json,http://54.235.29.9/FacialAge/BNav_EC2/DepthDuration/v2_depth_duration_MTurk/v2_DepthDuration_HTML.html#257,257,1536,864,1536,864,9-3-2022,9-50-7,91,depth_duration_stimuli/002209_2014-06-28_18-36-10_260595134347_rgbf000051-resize_1/002209_2014-06-28_18-36-10_260595134347_rgbf000051-resize_1-target.png,125,2.057,2.0,4403,110,feet,jsons/VE125_randls_61_rotated.json,784233,1684236,39,Woman
91,234342,DepthScenes,duration_manipulation_targetAtFixation,jsons/VE125_randls_61_rotated.json,http://54.235.29.9/FacialAge/BNav_EC2/DepthDuration/v2_depth_duration_MTurk/v2_DepthDuration_HTML.html#257,257,1536,864,1536,864,9-3-2022,9-50-7,92,depth_duration_stimuli/002763_2014-06-22_19-13-10_094959634447_rgbf000075-resize_4/002763_2014-06-22_19-13-10_094959634447_rgbf000075-resize_4-target.png,125,1.68375,1.5,4572,125,feet,jsons/VE125_randls_61_rotated.json,784233,1684236,39,Woman
92,234342,DepthScenes,duration_manipulation_targetAtFixation,jsons/VE125_randls_61_rotated.json,http://54.235.29.9/FacialAge/BNav_EC2/DepthDuration/v2_depth_duration_MTurk/v2_DepthDuration_HTML.html#257,257,1536,864,1536,864,9-3-2022,9-50-7,93,depth_duration_stimuli/002568_2014-06-24_13-59-21_094959634447_rgbf000062-resize_4/002568_2014-06-24_13-59-21_094959634447_rgbf000062-resize_4-target.png,125,3.015,3.0,5037,125,feet,jsons/VE125_randls_61_rotated.json,784233,1684236,39,Woman
93,234342,DepthScenes,duration_manipulation_targetAtFixation,jsons/VE125_randls_61_rotated.json,http://54.235.29.9/FacialAge/BNav_EC2/DepthDuration/v2_depth_duration_MTurk/v2_DepthDuration_HTML.html#257,257,1536,864,1536,864,9-3-2022,9-50-7,94,depth_duration_stimuli/003492_2014-05-21_15-50-55_094959634447_rgbf000828-resize_1/003492_2014-05-21_15-50-55_094959634447_rgbf000828-resize_1-target.png,125,4.06875,3.0,6219,125,feet,jsons/VE125_randls_61_rotated.json,784233,1684236,39,Woman
94,234342,DepthScenes,duration_manipulation_targetAtFixation,jsons/VE125_randls_61_rotated.json,http://54.235.29.9/FacialAge/BNav_EC2/DepthDuration/v2_depth_duration_MTurk/v2_DepthDuration_HTML.html#257,257,1536,864,1536,864,9-3-2022,9-50-7,95,depth_duration_stimuli/002657_2014-06-13_15-29-54_094959634447_rgbf000150-resize_1/002657_2014-06-13_15-29-54_094959634447_rgbf000150-resize_1-target.png,125,4.919,1.0,3441,110,feet,jsons/VE125_randls_61_rotated.json,784233,1684236,39,Woman
95,234342,DepthScenes,duration_manipulation_targetAtFixation,jsons/VE125_randls_61_rotated.json,http://54.235.29.9/FacialAge/BNav_EC2/DepthDuration/v2_depth_duration_MTurk/v2_DepthDuration_HTML.html#257,257,1536,864,1536,864,9-3-2022,9-50-7,96,depth_duration_stimuli/002375_2014-06-28_20-13-44_260595134347_rgbf000032-resize_1/002375_2014-06-28_20-13-44_260595134347_rgbf000032-resize_1-target.png,125,4.0175,2.0,3232,125,feet,jsons/VE125_randls_61_rotated.json,784233,1684236,39,Woman
96,234342,DepthScenes,duration_manipulation_targetAtFixation,jsons/VE125_randls_61_rotated.json,http://54.235.29.9/FacialAge/BNav_EC2/DepthDuration/v2_depth_duration_MTurk/v2_DepthDuration_HTML.html#257,257,1536,864,1536,864,9-3-2022,9-50-7,97,depth_duration_stimuli/002758_2014-06-22_19-11-20_094959634447_rgbf000128-resize_1/002758_2014-06-22_19-11-20_094959634447_rgbf000128-resize_1-target.png,125,2.555,1.0,3904,126,feet,jsons/VE125_randls_61_rotated.json,784233,1684236,39,Woman
97,234342,DepthScenes,duration_manipulation_targetAtFixation,jsons/VE125_randls_61_rotated.json,http://54.235.29.9/FacialAge/BNav_EC2/DepthDuration/v2_depth_duration_MTurk/v2_DepthDuration_HTML.html#257,257,1536,864,1536,864,9-3-2022,9-50-7,98,depth_duration_stimuli/002630_2014-06-24_14-47-50_094959634447_rgbf000055-resize_1/002630_2014-06-24_14-47-50_094959634447_rgbf000055-resize_1-target.png,125,3.0095,4.0,3929,114,feet,jsons/VE125_randls_61_rotated.json,784233,1684236,39,Woman
98,234342,DepthScenes,duration_manipulation_targetAtFixation,jsons/VE125_randls_61_rotated.json,http://54.235.29.9/FacialAge/BNav_EC2/DepthDuration/v2_depth_duration_MTurk/v2_DepthDuration_HTML.html#257,257,1536,864,1536,864,9-3-2022,9-50-7,99,depth_duration_stimuli/001222_2014-06-17_16-24-06_260595134347_rgbf000073-resize_0/001222_2014-06-17_16-24-06_260595134347_rgbf000073-resize-original.jpg,125,1.4385,0.0,7066,139,feet,jsons/VE125_randls_61_rotated.json,784233,1684236,39,Woman
99,234342,DepthScenes,duration_manipulation_targetAtFixation,jsons/VE125_randls_61_rotated.json,http://54.235.29.9/FacialAge/BNav_EC2/DepthDuration/v2_depth_duration_MTurk/v2_DepthDuration_HTML.html#257,257,1536,864,1536,864,9-3-2022,9-50-7,100,depth_duration_stimuli/001100_2014-06-15_17-46-26_260595134347_rgbf000225-resize_2/001100_2014-06-15_17-46-26_260595134347_rgbf000225-resize_2-target.png,125,2.24,2.0,4033,123,feet,jsons/VE125_randls_61_rotated.json,784233,1684236,39,Woman
100,234342,DepthScenes,duration_manipulation_targetAtFixation,jsons/VE125_randls_61_rotated.json,http://54.235.29.9/FacialAge/BNav_EC2/DepthDuration/v2_depth_duration_MTurk/v2_DepthDuration_HTML.html#257,257,1536,864,1536,864,9-3-2022,9-50-7,101,depth_duration_stimuli/002784_2014-06-22_19-26-30_094959634447_rgbf000083-resize_3/002784_2014-06-22_19-26-30_094959634447_rgbf000083-resize_3-target.png,125,1.8046666666667,0.0,8372,125,feet,jsons/VE125_randls_61_rotated.json,784233,1684236,39,Woman
101,234342,DepthScenes,duration_manipulation_targetAtFixation,jsons/VE125_randls_61_rotated.json,http://54.235.29.9/FacialAge/BNav_EC2/DepthDuration/v2_depth_duration_MTurk/v2_DepthDuration_HTML.html#257,257,1536,864,1536,864,9-3-2022,9-50-7,102,depth_duration_stimuli/000709_2014-06-08_13-51-55_260595134347_rgbf000068-resize_3/000709_2014-06-08_13-51-55_260595134347_rgbf000068-resize_3-target.png,125,1.8030000000000002,3.8,6355,124,feet,jsons/VE125_randls_61_rotated.json,784233,1684236,39,Woman
102,234342,DepthScenes,duration_manipulation_targetAtFixation,jsons/VE125_randls_61_rotated.json,http://54.235.29.9/FacialAge/BNav_EC2/DepthDuration/v2_depth_duration_MTurk/v2_DepthDuration_HTML.html#257,257,1536,864,1536,864,9-3-2022,9-50-7,103,depth_duration_stimuli/002057_2014-06-24_21-00-13_260595134347_rgbf000120-resize_1/002057_2014-06-24_21-00-13_260595134347_rgbf000120-resize_1-target.png,125,2.967,4.6,7905,127,feet,jsons/VE125_randls_61_rotated.json,784233,1684236,39,Woman
103,234342,DepthScenes,duration_manipulation_targetAtFixation,jsons/VE125_randls_61_rotated.json,http://54.235.29.9/FacialAge/BNav_EC2/DepthDuration/v2_depth_duration_MTurk/v2_DepthDuration_HTML.html#257,257,1536,864,1536,864,9-3-2022,9-50-7,104,depth_duration_stimuli/002199_2014-06-28_18-33-56_260595134347_rgbf000074-resize_0/002199_2014-06-28_18-33-56_260595134347_rgbf000074-resize_0-target.png,125,1.996,0.5,4230,113,feet,jsons/VE125_randls_61_rotated.json,784233,1684236,39,Woman
104,234342,DepthScenes,duration_manipulation_targetAtFixation,jsons/VE125_randls_61_rotated.json,http://54.235.29.9/FacialAge/BNav_EC2/DepthDuration/v2_depth_duration_MTurk/v2_DepthDuration_HTML.html#257,257,1536,864,1536,864,9-3-2022,9-50-7,105,depth_duration_stimuli/001056_2014-06-08_18-46-44_260595134347_rgbf000068-resize_0/001056_2014-06-08_18-46-44_260595134347_rgbf000068-resize_0-target.png,125,2.6625,2.8,4635,125,feet,jsons/VE125_randls_61_rotated.json,784233,1684236,39,Woman
105,234342,DepthScenes,duration_manipulation_targetAtFixation,jsons/VE125_randls_61_rotated.json,http://54.235.29.9/FacialAge/BNav_EC2/DepthDuration/v2_depth_duration_MTurk/v2_DepthDuration_HTML.html#257,257,1536,864,1536,864,9-3-2022,9-50-7,106,depth_duration_stimuli/000927_2014-06-09_16-32-30_260595134347_rgbf000123-resize_3/000927_2014-06-09_16-32-30_260595134347_rgbf000123-resize_3-target.png,125,2.6785,2.0,3086,126,feet,jsons/VE125_randls_61_rotated.json,784233,1684236,39,Woman
106,234342,DepthScenes,duration_manipulation_targetAtFixation,jsons/VE125_randls_61_rotated.json,http://54.235.29.9/FacialAge/BNav_EC2/DepthDuration/v2_depth_duration_MTurk/v2_DepthDuration_HTML.html#257,257,1536,864,1536,864,9-3-2022,9-50-7,107,depth_duration_stimuli/001110_2014-06-15_17-25-28_260595134347_rgbf000150-resize_1/001110_2014-06-15_17-25-28_260595134347_rgbf000150-resize_1-target.png,125,1.7115,1.0,3321,125,feet,jsons/VE125_randls_61_rotated.json,784233,1684236,39,Woman
107,234342,DepthScenes,duration_manipulation_targetAtFixation,jsons/VE125_randls_61_rotated.json,http://54.235.29.9/FacialAge/BNav_EC2/DepthDuration/v2_depth_duration_MTurk/v2_DepthDuration_HTML.html#257,257,1536,864,1536,864,9-3-2022,9-50-7,108,depth_duration_stimuli/002425_2014-06-28_20-27-29_260595134347_rgbf000031-resize_8/002425_2014-06-28_20-27-29_260595134347_rgbf000031-resize_8-target.png,125,3.8960000000000004,4.0,3871,126,feet,jsons/VE125_randls_61_rotated.json,784233,1684236,39,Woman
108,234342,DepthScenes,duration_manipulation_targetAtFixation,jsons/VE125_randls_61_rotated.json,http://54.235.29.9/FacialAge/BNav_EC2/DepthDuration/v2_depth_duration_MTurk/v2_DepthDuration_HTML.html#257,257,1536,864,1536,864,9-3-2022,9-50-7,109,depth_duration_stimuli/000642_2014-06-08_16-59-25_260595134347_rgbf000098-resize_2/000642_2014-06-08_16-59-25_260595134347_rgbf000098-resize_2-target.png,125,2.8815,3.0,2665,124,feet,jsons/VE125_randls_61_rotated.json,784233,1684236,39,Woman
109,234342,DepthScenes,duration_manipulation_targetAtFixation,jsons/VE125_randls_61_rotated.json,http://54.235.29.9/FacialAge/BNav_EC2/DepthDuration/v2_depth_duration_MTurk/v2_DepthDuration_HTML.html#257,257,1536,864,1536,864,9-3-2022,9-50-7,110,depth_duration_stimuli/003079_2014-06-15_15-18-20_094959634447_rgbf000152-resize_8/003079_2014-06-15_15-18-20_094959634447_rgbf000152-resize_8-target.png,125,2.8775,4.0,3367,123,feet,jsons/VE125_randls_61_rotated.json,784233,1684236,39,Woman
110,234342,DepthScenes,duration_manipulation_targetAtFixation,jsons/VE125_randls_61_rotated.json,http://54.235.29.9/FacialAge/BNav_EC2/DepthDuration/v2_depth_duration_MTurk/v2_DepthDuration_HTML.html#257,257,1536,864,1536,864,9-3-2022,9-50-7,111,depth_duration_stimuli/000506_2014-06-08_23-21-00_260595134347_rgbf000070-resize_7/000506_2014-06-08_23-21-00_260595134347_rgbf000070-resize_7-target.png,125,4.0585,3.0,2895,125,feet,jsons/VE125_randls_61_rotated.json,784233,1684236,39,Woman
111,234342,DepthScenes,duration_manipulation_targetAtFixation,jsons/VE125_randls_61_rotated.json,http://54.235.29.9/FacialAge/BNav_EC2/DepthDuration/v2_depth_duration_MTurk/v2_DepthDuration_HTML.html#257,257,1536,864,1536,864,9-3-2022,9-50-7,112,depth_duration_stimuli/002414_2014-06-28_20-24-58_260595134347_rgbf000067-resize_4/002414_2014-06-28_20-24-58_260595134347_rgbf000067-resize_4-target.png,125,4.363,6.0,3487,127,feet,jsons/VE125_randls_61_rotated.json,784233,1684236,39,Woman
112,234342,DepthScenes,duration_manipulation_targetAtFixation,jsons/VE125_randls_61_rotated.json,http://54.235.29.9/FacialAge/BNav_EC2/DepthDuration/v2_depth_duration_MTurk/v2_DepthDuration_HTML.html#257,257,1536,864,1536,864,9-3-2022,9-50-7,113,depth_duration_stimuli/000773_2014-06-08_22-24-54_260595134347_rgbf000093-resize_1/000773_2014-06-08_22-24-54_260595134347_rgbf000093-resize_1-target.png,125,4.973,3.0,2189,124,feet,jsons/VE125_randls_61_rotated.json,784233,1684236,39,Woman
113,234342,DepthScenes,duration_manipulation_targetAtFixation,jsons/VE125_randls_61_rotated.json,http://54.235.29.9/FacialAge/BNav_EC2/DepthDuration/v2_depth_duration_MTurk/v2_DepthDuration_HTML.html#257,257,1536,864,1536,864,9-3-2022,9-50-7,114,depth_duration_stimuli/003083_2014-06-15_15-21-03_094959634447_rgbf000063-resize_1/003083_2014-06-15_15-21-03_094959634447_rgbf000063-resize_1-target.png,125,4.1405,3.0,3072,116,feet,jsons/VE125_randls_61_rotated.json,784233,1684236,39,Woman
114,234342,DepthScenes,duration_manipulation_targetAtFixation,jsons/VE125_randls_61_rotated.json,http://54.235.29.9/FacialAge/BNav_EC2/DepthDuration/v2_depth_duration_MTurk/v2_DepthDuration_HTML.html#257,257,1536,864,1536,864,9-3-2022,9-50-7,115,depth_duration_stimuli/000486_2014-06-09_20-47-20_260595134347_rgbf000143-resize_2/000486_2014-06-09_20-47-20_260595134347_rgbf000143-resize_2-target.png,125,4.8325,3.0,2351,125,feet,jsons/VE125_randls_61_rotated.json,784233,1684236,39,Woman
115,234342,DepthScenes,duration_manipulation_targetAtFixation,jsons/VE125_randls_61_rotated.json,http://54.235.29.9/FacialAge/BNav_EC2/DepthDuration/v2_depth_duration_MTurk/v2_DepthDuration_HTML.html#257,257,1536,864,1536,864,9-3-2022,9-50-7,116,depth_duration_stimuli/002637_2014-06-24_14-51-13_094959634447_rgbf000066-resize_4/002637_2014-06-24_14-51-13_094959634447_rgbf000066-resize_4-target.png,125,1.9955,3.8,5010,122,feet,jsons/VE125_randls_61_rotated.json,784233,1684236,39,Woman
116,234342,DepthScenes,duration_manipulation_targetAtFixation,jsons/VE125_randls_61_rotated.json,http://54.235.29.9/FacialAge/BNav_EC2/DepthDuration/v2_depth_duration_MTurk/v2_DepthDuration_HTML.html#257,257,1536,864,1536,864,9-3-2022,9-50-7,117,depth_duration_stimuli/003534_2014-05-22_15-06-10_094959634447_rgbf000102-resize_4/003534_2014-05-22_15-06-10_094959634447_rgbf000102-resize_4-target.png,125,1.426,0.3,6675,123,feet,jsons/VE125_randls_61_rotated.json,784233,1684236,39,Woman
117,234342,DepthScenes,duration_manipulation_targetAtFixation,jsons/VE125_randls_61_rotated.json,http://54.235.29.9/FacialAge/BNav_EC2/DepthDuration/v2_depth_duration_MTurk/v2_DepthDuration_HTML.html#257,257,1536,864,1536,864,9-3-2022,9-50-7,118,depth_duration_stimuli/002467_2014-06-28_20-38-07_260595134347_rgbf000026-resize_2/002467_2014-06-28_20-38-07_260595134347_rgbf000026-resize_2-target.png,125,4.742,3.0,4145,124,feet,jsons/VE125_randls_61_rotated.json,784233,1684236,39,Woman
118,234342,DepthScenes,duration_manipulation_targetAtFixation,jsons/VE125_randls_61_rotated.json,http://54.235.29.9/FacialAge/BNav_EC2/DepthDuration/v2_depth_duration_MTurk/v2_DepthDuration_HTML.html#257,257,1536,864,1536,864,9-3-2022,9-50-7,119,depth_duration_stimuli/002570_2014-06-24_13-59-54_094959634447_rgbf000059-resize_0/002570_2014-06-24_13-59-54_094959634447_rgbf000059-resize_0-target.png,125,4.037,2.0,2957,125,feet,jsons/VE125_randls_61_rotated.json,784233,1684236,39,Woman
119,234342,DepthScenes,duration_manipulation_targetAtFixation,jsons/VE125_randls_61_rotated.json,http://54.235.29.9/FacialAge/BNav_EC2/DepthDuration/v2_depth_duration_MTurk/v2_DepthDuration_HTML.html#257,257,1536,864,1536,864,9-3-2022,9-50-7,120,depth_duration_stimuli/000787_2014-06-08_22-33-53_260595134347_rgbf000175-resize_1/000787_2014-06-08_22-33-53_260595134347_rgbf000175-resize-original.jpg,125,4.784,0.0,3186,139,feet,jsons/VE125_randls_61_rotated.json,784233,1684236,39,Woman
120,234342,DepthScenes,duration_manipulation_targetAtFixation,jsons/VE125_randls_61_rotated.json,http://54.235.29.9/FacialAge/BNav_EC2/DepthDuration/v2_depth_duration_MTurk/v2_DepthDuration_HTML.html#257,257,1536,864,1536,864,9-3-2022,9-50-7,121,depth_duration_stimuli/000549_2014-06-08_22-10-24_260595134347_rgbf000247-resize_3/000549_2014-06-08_22-10-24_260595134347_rgbf000247-resize_3-target.png,125,1.841,0.2,5870,123,feet,jsons/VE125_randls_61_rotated.json,784233,1684236,39,Woman
121,234342,DepthScenes,duration_manipulation_targetAtFixation,jsons/VE125_randls_61_rotated.json,http://54.235.29.9/FacialAge/BNav_EC2/DepthDuration/v2_depth_duration_MTurk/v2_DepthDuration_HTML.html#257,257,1536,864,1536,864,9-3-2022,9-50-7,122,depth_duration_stimuli/001055_2014-06-08_18-45-35_260595134347_rgbf000111-resize_4/001055_2014-06-08_18-45-35_260595134347_rgbf000111-resize_4-target.png,125,2.4290000000000003,5.0,3707,124,feet,jsons/VE125_randls_61_rotated.json,784233,1684236,39,Woman
122,234342,DepthScenes,duration_manipulation_targetAtFixation,jsons/VE125_randls_61_rotated.json,http://54.235.29.9/FacialAge/BNav_EC2/DepthDuration/v2_depth_duration_MTurk/v2_DepthDuration_HTML.html#257,257,1536,864,1536,864,9-3-2022,9-50-7,123,depth_duration_stimuli/000780_2014-06-08_22-28-29_260595134347_rgbf000126-resize_1/000780_2014-06-08_22-28-29_260595134347_rgbf000126-resize_1-target.png,125,3.3825,4.0,2994,127,feet,jsons/VE125_randls_61_rotated.json,784233,1684236,39,Woman
123,234342,DepthScenes,duration_manipulation_targetAtFixation,jsons/VE125_randls_61_rotated.json,http://54.235.29.9/FacialAge/BNav_EC2/DepthDuration/v2_depth_duration_MTurk/v2_DepthDuration_HTML.html#257,257,1536,864,1536,864,9-3-2022,9-50-7,124,depth_duration_stimuli/002445_2014-06-28_20-32-16_260595134347_rgbf000029-resize_4/002445_2014-06-28_20-32-16_260595134347_rgbf000029-resize_4-target.png,125,2.5315,2.0,3976,123,feet,jsons/VE125_randls_61_rotated.json,784233,1684236,39,Woman
124,234342,DepthScenes,duration_manipulation_targetAtFixation,jsons/VE125_randls_61_rotated.json,http://54.235.29.9/FacialAge/BNav_EC2/DepthDuration/v2_depth_duration_MTurk/v2_DepthDuration_HTML.html#257,257,1536,864,1536,864,9-3-2022,9-50-7,125,depth_duration_stimuli/000749_2014-06-08_21-55-06_260595134347_rgbf000070-resize_2/000749_2014-06-08_21-55-06_260595134347_rgbf000070-resize_2-target.png,125,2.331,3.0,3833,125,feet,jsons/VE125_randls_61_rotated.json,784233,1684236,39,Woman
125,234342,DepthScenes,duration_manipulation_targetAtFixation,jsons/VE125_randls_61_rotated.json,http://54.235.29.9/FacialAge/BNav_EC2/DepthDuration/v2_depth_duration_MTurk/v2_DepthDuration_HTML.html#257,257,1536,864,1536,864,9-3-2022,9-50-7,126,depth_duration_stimuli/002788_2014-06-22_19-36-03_094959634447_rgbf000088-resize_2/002788_2014-06-22_19-36-03_094959634447_rgbf000088-resize_2-target.png,125,1.6465,3.9,4000,123,feet,jsons/VE125_randls_61_rotated.json,784233,1684236,39,Woman
126,234342,DepthScenes,duration_manipulation_targetAtFixation,jsons/VE125_randls_61_rotated.json,http://54.235.29.9/FacialAge/BNav_EC2/DepthDuration/v2_depth_duration_MTurk/v2_DepthDuration_HTML.html#257,257,1536,864,1536,864,9-3-2022,9-50-7,127,depth_duration_stimuli/001516_2014-06-20_16-25-09_260595134347_rgbf000076-resize_2/001516_2014-06-20_16-25-09_260595134347_rgbf000076-resize_2-target.png,125,1.7445,2.7,5107,126,feet,jsons/VE125_randls_61_rotated.json,784233,1684236,39,Woman
127,234342,DepthScenes,duration_manipulation_targetAtFixation,jsons/VE125_randls_61_rotated.json,http://54.235.29.9/FacialAge/BNav_EC2/DepthDuration/v2_depth_duration_MTurk/v2_DepthDuration_HTML.html#257,257,1536,864,1536,864,9-3-2022,9-50-7,128,depth_duration_stimuli/002118_2014-06-25_20-32-08_260595134347_rgbf000078-resize_1/002118_2014-06-25_20-32-08_260595134347_rgbf000078-resize_1-target.png,125,2.6460000000000004,3.0,4169,127,feet,jsons/VE125_randls_61_rotated.json,784233,1684236,39,Woman
128,234342,DepthScenes,duration_manipulation_targetAtFixation,jsons/VE125_randls_61_rotated.json,http://54.235.29.9/FacialAge/BNav_EC2/DepthDuration/v2_depth_duration_MTurk/v2_DepthDuration_HTML.html#257,257,1536,864,1536,864,9-3-2022,9-50-7,129,depth_duration_stimuli/002750_2014-06-22_19-08-03_094959634447_rgbf000094-resize_4/002750_2014-06-22_19-08-03_094959634447_rgbf000094-resize_4-target.png,125,2.354,2.0,3808,125,feet,jsons/VE125_randls_61_rotated.json,784233,1684236,39,Woman
129,234342,DepthScenes,duration_manipulation_targetAtFixation,jsons/VE125_randls_61_rotated.json,http://54.235.29.9/FacialAge/BNav_EC2/DepthDuration/v2_depth_duration_MTurk/v2_DepthDuration_HTML.html#257,257,1536,864,1536,864,9-3-2022,9-50-7,130,depth_duration_stimuli/002549_2014-06-24_13-41-39_094959634447_rgbf000022-resize_3/002549_2014-06-24_13-41-39_094959634447_rgbf000022-resize_3-target.png,125,1.476,1.5,9237,126,feet,jsons/VE125_randls_61_rotated.json,784233,1684236,39,Woman
130,234342,DepthScenes,duration_manipulation_targetAtFixation,jsons/VE125_randls_61_rotated.json,http://54.235.29.9/FacialAge/BNav_EC2/DepthDuration/v2_depth_duration_MTurk/v2_DepthDuration_HTML.html#257,257,1536,864,1536,864,9-3-2022,9-50-7,131,depth_duration_stimuli/001052_2014-06-08_18-24-54_260595134347_rgbf000130-resize_1/001052_2014-06-08_18-24-54_260595134347_rgbf000130-resize_1-target.png,125,4.1045,3.8,3885,126,feet,jsons/VE125_randls_61_rotated.json,784233,1684236,39,Woman
131,234342,DepthScenes,duration_manipulation_targetAtFixation,jsons/VE125_randls_61_rotated.json,http://54.235.29.9/FacialAge/BNav_EC2/DepthDuration/v2_depth_duration_MTurk/v2_DepthDuration_HTML.html#257,257,1536,864,1536,864,9-3-2022,9-50-7,132,depth_duration_stimuli/002988_2014-06-15_12-24-20_094959634447_rgbf000150-resize_1/002988_2014-06-15_12-24-20_094959634447_rgbf000150-resize_1-target.png,125,4.7669999999999995,5.0,3345,125,feet,jsons/VE125_randls_61_rotated.json,784233,1684236,39,Woman
132,234342,DepthScenes,duration_manipulation_targetAtFixation,jsons/VE125_randls_61_rotated.json,http://54.235.29.9/FacialAge/BNav_EC2/DepthDuration/v2_depth_duration_MTurk/v2_DepthDuration_HTML.html#257,257,1536,864,1536,864,9-3-2022,9-50-7,133,depth_duration_stimuli/002875_2014-06-01_15-19-00_094959634447_rgbf000151-resize_1/002875_2014-06-01_15-19-00_094959634447_rgbf000151-resize_1-target.png,125,1.9675,2.0,4501,124,feet,jsons/VE125_randls_61_rotated.json,784233,1684236,39,Woman
133,234342,DepthScenes,duration_manipulation_targetAtFixation,jsons/VE125_randls_61_rotated.json,http://54.235.29.9/FacialAge/BNav_EC2/DepthDuration/v2_depth_duration_MTurk/v2_DepthDuration_HTML.html#257,257,1536,864,1536,864,9-3-2022,9-50-7,134,depth_duration_stimuli/001011_2014-06-08_23-18-54_260595134347_rgbf000044-resize_4/001011_2014-06-08_23-18-54_260595134347_rgbf000044-resize_4-target.png,125,2.4730000000000003,3.0,3329,116,feet,jsons/VE125_randls_61_rotated.json,784233,1684236,39,Woman
134,234342,DepthScenes,duration_manipulation_targetAtFixation,jsons/VE125_randls_61_rotated.json,http://54.235.29.9/FacialAge/BNav_EC2/DepthDuration/v2_depth_duration_MTurk/v2_DepthDuration_HTML.html#257,257,1536,864,1536,864,9-3-2022,9-50-7,135,depth_duration_stimuli/000375_2014-06-08_11-17-29_260595134347_rgbf000133-resize_2/000375_2014-06-08_11-17-29_260595134347_rgbf000133-resize-original.jpg,125,4.718,0.0,5395,125,feet,jsons/VE125_randls_61_rotated.json,784233,1684236,39,Woman
135,234342,DepthScenes,duration_manipulation_targetAtFixation,jsons/VE125_randls_61_rotated.json,http://54.235.29.9/FacialAge/BNav_EC2/DepthDuration/v2_depth_duration_MTurk/v2_DepthDuration_HTML.html#257,257,1536,864,1536,864,9-3-2022,9-50-7,136,depth_duration_stimuli/003490_2014-05-21_15-50-11_094959634447_rgbf000101-resize_3/003490_2014-05-21_15-50-11_094959634447_rgbf000101-resize_3-target.png,125,3.6445,4.0,3235,117,feet,jsons/VE125_randls_61_rotated.json,784233,1684236,39,Woman
136,234342,DepthScenes,duration_manipulation_targetAtFixation,jsons/VE125_randls_61_rotated.json,http://54.235.29.9/FacialAge/BNav_EC2/DepthDuration/v2_depth_duration_MTurk/v2_DepthDuration_HTML.html#257,257,1536,864,1536,864,9-3-2022,9-50-7,137,depth_duration_stimuli/001175_2014-06-17_15-45-55_260595134347_rgbf000129-resize_4/001175_2014-06-17_15-45-55_260595134347_rgbf000129-resize_4-target.png,125,4.255,5.0,2326,123,feet,jsons/VE125_randls_61_rotated.json,784233,1684236,39,Woman
137,234342,DepthScenes,duration_manipulation_targetAtFixation,jsons/VE125_randls_61_rotated.json,http://54.235.29.9/FacialAge/BNav_EC2/DepthDuration/v2_depth_duration_MTurk/v2_DepthDuration_HTML.html#257,257,1536,864,1536,864,9-3-2022,9-50-7,138,depth_duration_stimuli/001650_2014-06-20_12-09-00_260595134347_rgbf000087-resize_3/001650_2014-06-20_12-09-00_260595134347_rgbf000087-resize_3-target.png,125,1.9505,1.0,2276,124,feet,jsons/VE125_randls_61_rotated.json,784233,1684236,39,Woman
138,234342,DepthScenes,duration_manipulation_targetAtFixation,jsons/VE125_randls_61_rotated.json,http://54.235.29.9/FacialAge/BNav_EC2/DepthDuration/v2_depth_duration_MTurk/v2_DepthDuration_HTML.html#257,257,1536,864,1536,864,9-3-2022,9-50-7,139,depth_duration_stimuli/000682_2014-06-08_23-14-58_260595134347_rgbf000041-resize_5/000682_2014-06-08_23-14-58_260595134347_rgbf000041-resize_5-target.png,125,2.7239999999999998,2.0,2354,124,feet,jsons/VE125_randls_61_rotated.json,784233,1684236,39,Woman
139,234342,DepthScenes,duration_manipulation_targetAtFixation,jsons/VE125_randls_61_rotated.json,http://54.235.29.9/FacialAge/BNav_EC2/DepthDuration/v2_depth_duration_MTurk/v2_DepthDuration_HTML.html#257,257,1536,864,1536,864,9-3-2022,9-50-7,140,depth_duration_stimuli/001392_2014-06-19_16-07-59_260595134347_rgbf000046-resize_1/001392_2014-06-19_16-07-59_260595134347_rgbf000046-resize_1-target.png,125,4.135,5.0,2458,125,feet,jsons/VE125_randls_61_rotated.json,784233,1684236,39,Woman
140,234342,DepthScenes,duration_manipulation_targetAtFixation,jsons/VE125_randls_61_rotated.json,http://54.235.29.9/FacialAge/BNav_EC2/DepthDuration/v2_depth_duration_MTurk/v2_DepthDuration_HTML.html#257,257,1536,864,1536,864,9-3-2022,9-50-7,141,depth_duration_stimuli/001570_2014-06-20_17-21-09_260595134347_rgbf000135-resize_4/001570_2014-06-20_17-21-09_260595134347_rgbf000135-resize_4-target.png,125,4.467,4.0,3517,125,feet,jsons/VE125_randls_61_rotated.json,784233,1684236,39,Woman
141,234342,DepthScenes,duration_manipulation_targetAtFixation,jsons/VE125_randls_61_rotated.json,http://54.235.29.9/FacialAge/BNav_EC2/DepthDuration/v2_depth_duration_MTurk/v2_DepthDuration_HTML.html#257,257,1536,864,1536,864,9-3-2022,9-50-7,142,depth_duration_stimuli/000854_2014-06-09_19-43-13_260595134347_rgbf000066-resize_0/000854_2014-06-09_19-43-13_260595134347_rgbf000066-resize_0-target.png,125,3.068,1.0,4626,125,feet,jsons/VE125_randls_61_rotated.json,784233,1684236,39,Woman
142,234342,DepthScenes,duration_manipulation_targetAtFixation,jsons/VE125_randls_61_rotated.json,http://54.235.29.9/FacialAge/BNav_EC2/DepthDuration/v2_depth_duration_MTurk/v2_DepthDuration_HTML.html#257,257,1536,864,1536,864,9-3-2022,9-50-7,143,depth_duration_stimuli/000758_2014-06-08_22-05-08_260595134347_rgbf000085-resize_0/000758_2014-06-08_22-05-08_260595134347_rgbf000085-resize_0-target.png,125,3.3810000000000002,3.0,4246,125,feet,jsons/VE125_randls_61_rotated.json,784233,1684236,39,Woman
143,234342,DepthScenes,duration_manipulation_targetAtFixation,jsons/VE125_randls_61_rotated.json,http://54.235.29.9/FacialAge/BNav_EC2/DepthDuration/v2_depth_duration_MTurk/v2_DepthDuration_HTML.html#257,257,1536,864,1536,864,9-3-2022,9-50-7,144,depth_duration_stimuli/002444_2014-06-28_20-32-08_260595134347_rgbf000027-resize_0/002444_2014-06-28_20-32-08_260595134347_rgbf000027-resize_0-target.png,125,4.388999999999999,4.0,3045,124,feet,jsons/VE125_randls_61_rotated.json,784233,1684236,39,Woman
144,234342,DepthScenes,duration_manipulation_targetAtFixation,jsons/VE125_randls_61_rotated.json,http://54.235.29.9/FacialAge/BNav_EC2/DepthDuration/v2_depth_duration_MTurk/v2_DepthDuration_HTML.html#257,257,1536,864,1536,864,9-3-2022,9-50-7,145,depth_duration_stimuli/000436_2014-06-09_22-25-11_260595134347_rgbf000137-resize_1/000436_2014-06-09_22-25-11_260595134347_rgbf000137-resize_1-target.png,125,4.0705,5.0,3474,124,feet,jsons/VE125_randls_61_rotated.json,784233,1684236,39,Woman
145,234342,DepthScenes,duration_manipulation_targetAtFixation,jsons/VE125_randls_61_rotated.json,http://54.235.29.9/FacialAge/BNav_EC2/DepthDuration/v2_depth_duration_MTurk/v2_DepthDuration_HTML.html#257,257,1536,864,1536,864,9-3-2022,9-50-7,146,depth_duration_stimuli/000691_2014-06-08_13-08-50_260595134347_rgbf000132-resize_3/000691_2014-06-08_13-08-50_260595134347_rgbf000132-resize_3-target.png,125,4.1530000000000005,5.0,3458,125,feet,jsons/VE125_randls_61_rotated.json,784233,1684236,39,Woman
146,234342,DepthScenes,duration_manipulation_targetAtFixation,jsons/VE125_randls_61_rotated.json,http://54.235.29.9/FacialAge/BNav_EC2/DepthDuration/v2_depth_duration_MTurk/v2_DepthDuration_HTML.html#257,257,1536,864,1536,864,9-3-2022,9-50-7,147,depth_duration_stimuli/002213_2014-06-28_18-37-58_260595134347_rgbf000055-resize_1/002213_2014-06-28_18-37-58_260595134347_rgbf000055-resize_1-target.png,125,3.62,5.0,2615,126,feet,jsons/VE125_randls_61_rotated.json,784233,1684236,39,Woman
147,234342,DepthScenes,duration_manipulation_targetAtFixation,jsons/VE125_randls_61_rotated.json,http://54.235.29.9/FacialAge/BNav_EC2/DepthDuration/v2_depth_duration_MTurk/v2_DepthDuration_HTML.html#257,257,1536,864,1536,864,9-3-2022,9-50-7,148,depth_duration_stimuli/002344_2014-06-28_20-06-29_260595134347_rgbf000030-resize_1/002344_2014-06-28_20-06-29_260595134347_rgbf000030-resize_1-target.png,125,1.5795,2.0,2261,107,feet,jsons/VE125_randls_61_rotated.json,784233,1684236,39,Woman
148,234342,DepthScenes,duration_manipulation_targetAtFixation,jsons/VE125_randls_61_rotated.json,http://54.235.29.9/FacialAge/BNav_EC2/DepthDuration/v2_depth_duration_MTurk/v2_DepthDuration_HTML.html#257,257,1536,864,1536,864,9-3-2022,9-50-7,149,depth_duration_stimuli/002725_2014-06-22_11-47-51_094959634447_rgbf000070-resize_1/002725_2014-06-22_11-47-51_094959634447_rgbf000070-resize_1-target.png,125,2.195,3.0,2321,126,feet,jsons/VE125_randls_61_rotated.json,784233,1684236,39,Woman
149,234342,DepthScenes,duration_manipulation_targetAtFixation,jsons/VE125_randls_61_rotated.json,http://54.235.29.9/FacialAge/BNav_EC2/DepthDuration/v2_depth_duration_MTurk/v2_DepthDuration_HTML.html#257,257,1536,864,1536,864,9-3-2022,9-50-7,150,depth_duration_stimuli/001450_2014-06-19_17-02-03_260595134347_rgbf000203-resize_4/001450_2014-06-19_17-02-03_260595134347_rgbf000203-resize_4-target.png,125,4.0106666666667,5.0,2610,124,feet,jsons/VE125_randls_61_rotated.json,784233,1684236,39,Woman
150,234342,DepthScenes,duration_manipulation_targetAtFixation,jsons/VE125_randls_61_rotated.json,http://54.235.29.9/FacialAge/BNav_EC2/DepthDuration/v2_depth_duration_MTurk/v2_DepthDuration_HTML.html#257,257,1536,864,1536,864,9-3-2022,9-50-7,151,depth_duration_stimuli/001449_2014-06-19_17-01-27_260595134347_rgbf000116-resize_2/001449_2014-06-19_17-01-27_260595134347_rgbf000116-resize_2-target.png,125,3.452,3.0,2372,138,feet,jsons/VE125_randls_61_rotated.json,784233,1684236,39,Woman
151,234342,DepthScenes,duration_manipulation_targetAtFixation,jsons/VE125_randls_61_rotated.json,http://54.235.29.9/FacialAge/BNav_EC2/DepthDuration/v2_depth_duration_MTurk/v2_DepthDuration_HTML.html#257,257,1536,864,1536,864,9-3-2022,9-50-7,152,depth_duration_stimuli/000569_2014-06-09_22-51-47_260595134347_rgbf000141-resize_3/000569_2014-06-09_22-51-47_260595134347_rgbf000141-resize-original.jpg,125,4.512,0.0,5469,125,feet,jsons/VE125_randls_61_rotated.json,784233,1684236,39,Woman
152,234342,DepthScenes,duration_manipulation_targetAtFixation,jsons/VE125_randls_61_rotated.json,http://54.235.29.9/FacialAge/BNav_EC2/DepthDuration/v2_depth_duration_MTurk/v2_DepthDuration_HTML.html#257,257,1536,864,1536,864,9-3-2022,9-50-7,153,depth_duration_stimuli/003228_2014-05-14_13-42-35_094959634447_rgbf000101-resize_1/003228_2014-05-14_13-42-35_094959634447_rgbf000101-resize_1-target.png,125,1.9680000000000002,2.0,5453,123,feet,jsons/VE125_randls_61_rotated.json,784233,1684236,39,Woman
153,234342,DepthScenes,duration_manipulation_targetAtFixation,jsons/VE125_randls_61_rotated.json,http://54.235.29.9/FacialAge/BNav_EC2/DepthDuration/v2_depth_duration_MTurk/v2_DepthDuration_HTML.html#257,257,1536,864,1536,864,9-3-2022,9-50-7,154,depth_duration_stimuli/002600_2014-06-24_14-27-04_094959634447_rgbf000074-resize_2/002600_2014-06-24_14-27-04_094959634447_rgbf000074-resize_2-target.png,125,2.7575,3.0,2653,124,feet,jsons/VE125_randls_61_rotated.json,784233,1684236,39,Woman
154,234342,DepthScenes,duration_manipulation_targetAtFixation,jsons/VE125_randls_61_rotated.json,http://54.235.29.9/FacialAge/BNav_EC2/DepthDuration/v2_depth_duration_MTurk/v2_DepthDuration_HTML.html#257,257,1536,864,1536,864,9-3-2022,9-50-7,155,depth_duration_stimuli/001094_2014-06-15_17-36-00_260595134347_rgbf000205-resize_0/001094_2014-06-15_17-36-00_260595134347_rgbf000205-resize_0-target.png,125,4.2175,3.0,2482,125,feet,jsons/VE125_randls_61_rotated.json,784233,1684236,39,Woman
155,234342,DepthScenes,duration_manipulation_targetAtFixation,jsons/VE125_randls_61_rotated.json,http://54.235.29.9/FacialAge/BNav_EC2/DepthDuration/v2_depth_duration_MTurk/v2_DepthDuration_HTML.html#257,257,1536,864,1536,864,9-3-2022,9-50-7,156,depth_duration_stimuli/000692_2014-06-08_13-09-42_260595134347_rgbf000199-resize_2/000692_2014-06-08_13-09-42_260595134347_rgbf000199-resize_2-target.png,125,3.661,5.0,2226,130,feet,jsons/VE125_randls_61_rotated.json,784233,1684236,39,Woman
156,234342,DepthScenes,duration_manipulation_targetAtFixation,jsons/VE125_randls_61_rotated.json,http://54.235.29.9/FacialAge/BNav_EC2/DepthDuration/v2_depth_duration_MTurk/v2_DepthDuration_HTML.html#257,257,1536,864,1536,864,9-3-2022,9-50-7,157,depth_duration_stimuli/003423_2014-05-21_10-23-26_094959634447_rgbf002665-resize_2/003423_2014-05-21_10-23-26_094959634447_rgbf002665-resize_2-target.png,125,3.2575,4.5,5442,125,feet,jsons/VE125_randls_61_rotated.json,784233,1684236,39,Woman
157,234342,DepthScenes,duration_manipulation_targetAtFixation,jsons/VE125_randls_61_rotated.json,http://54.235.29.9/FacialAge/BNav_EC2/DepthDuration/v2_depth_duration_MTurk/v2_DepthDuration_HTML.html#257,257,1536,864,1536,864,9-3-2022,9-50-7,158,depth_duration_stimuli/002905_2014-06-03_18-04-43_094959634447_rgbf000151-resize_2/002905_2014-06-03_18-04-43_094959634447_rgbf000151-resize_2-target.png,125,2.0295,2.0,3854,124,feet,jsons/VE125_randls_61_rotated.json,784233,1684236,39,Woman
158,234342,DepthScenes,duration_manipulation_targetAtFixation,jsons/VE125_randls_61_rotated.json,http://54.235.29.9/FacialAge/BNav_EC2/DepthDuration/v2_depth_duration_MTurk/v2_DepthDuration_HTML.html#257,257,1536,864,1536,864,9-3-2022,9-50-7,159,depth_duration_stimuli/000742_2014-06-08_18-48-09_260595134347_rgbf000164-resize_4/000742_2014-06-08_18-48-09_260595134347_rgbf000164-resize_4-target.png,125,4.632,5.0,2273,110,feet,jsons/VE125_randls_61_rotated.json,784233,1684236,39,Woman
159,234342,DepthScenes,duration_manipulation_targetAtFixation,jsons/VE125_randls_61_rotated.json,http://54.235.29.9/FacialAge/BNav_EC2/DepthDuration/v2_depth_duration_MTurk/v2_DepthDuration_HTML.html#257,257,1536,864,1536,864,9-3-2022,9-50-7,160,depth_duration_stimuli/001066_2014-06-08_22-03-20_260595134347_rgbf000066-resize_4/001066_2014-06-08_22-03-20_260595134347_rgbf000066-resize_4-target.png,125,4.2330000000000005,3.0,2487,125,feet,jsons/VE125_randls_61_rotated.json,784233,1684236,39,Woman
160,234342,DepthScenes,duration_manipulation_targetAtFixation,jsons/VE125_randls_61_rotated.json,http://54.235.29.9/FacialAge/BNav_EC2/DepthDuration/v2_depth_duration_MTurk/v2_DepthDuration_HTML.html#257,257,1536,864,1536,864,9-3-2022,9-50-7,161,depth_duration_stimuli/003495_2014-05-21_16-01-51_094959634447_rgbf000100-resize_3/003495_2014-05-21_16-01-51_094959634447_rgbf000100-resize_3-target.png,125,1.6255,1.0,2510,124,feet,jsons/VE125_randls_61_rotated.json,784233,1684236,39,Woman
161,234342,DepthScenes,duration_manipulation_targetAtFixation,jsons/VE125_randls_61_rotated.json,http://54.235.29.9/FacialAge/BNav_EC2/DepthDuration/v2_depth_duration_MTurk/v2_DepthDuration_HTML.html#257,257,1536,864,1536,864,9-3-2022,9-50-7,162,depth_duration_stimuli/001244_2014-06-17_16-47-45_260595134347_rgbf000030-resize_4/001244_2014-06-17_16-47-45_260595134347_rgbf000030-resize_4-target.png,125,2.0425,1.3,4216,138,feet,jsons/VE125_randls_61_rotated.json,784233,1684236,39,Woman
162,234342,DepthScenes,duration_manipulation_targetAtFixation,jsons/VE125_randls_61_rotated.json,http://54.235.29.9/FacialAge/BNav_EC2/DepthDuration/v2_depth_duration_MTurk/v2_DepthDuration_HTML.html#257,257,1536,864,1536,864,9-3-2022,9-50-7,163,depth_duration_stimuli/001447_2014-06-19_17-00-32_260595134347_rgbf000082-resize_5/001447_2014-06-19_17-00-32_260595134347_rgbf000082-resize_5-target.png,125,4.13775,2.0,2571,123,feet,jsons/VE125_randls_61_rotated.json,784233,1684236,39,Woman
163,234342,DepthScenes,duration_manipulation_targetAtFixation,jsons/VE125_randls_61_rotated.json,http://54.235.29.9/FacialAge/BNav_EC2/DepthDuration/v2_depth_duration_MTurk/v2_DepthDuration_HTML.html#257,257,1536,864,1536,864,9-3-2022,9-50-7,164,depth_duration_stimuli/000447_2014-06-08_16-15-46_260595134347_rgbf000130-resize_1/000447_2014-06-08_16-15-46_260595134347_rgbf000130-resize_1-target.png,125,4.479,5.0,2521,124,feet,jsons/VE125_randls_61_rotated.json,784233,1684236,39,Woman
