,subjID,experimentName,versionName,sequenceName,url,selected_row,windowWidth,windowHeight,screenWidth,screenHeight,startDate,startTime,trial,stimulus,duration,actual_depth,depth_estimate,trial_RT,log_sceneDuration,unitSelection,seq_filepath,experimentTime,totalTime,age,gender
0,235277,DepthScenes,duration_manipulation_targetAtFixation,jsons/v1_VE1000_randls_43_rotated.json,http://54.235.29.9/FacialAge/BNav_EC2/DepthDuration/v2_depth_duration_MTurk/v2_DepthDuration_HTML.html#130,130,1152,631,1440,900,8-22-2022,8-17-6,1,depth_duration_stimuli/002467_2014-06-28_20-38-07_260595134347_rgbf000026-resize_2/002467_2014-06-28_20-38-07_260595134347_rgbf000026-resize_2-target.png,1000,4.742,40,4417,1000,meters,jsons/v1_VE1000_randls_43_rotated.json,1394783,1596981,35,Man
1,235277,DepthScenes,duration_manipulation_targetAtFixation,jsons/v1_VE1000_randls_43_rotated.json,http://54.235.29.9/FacialAge/BNav_EC2/DepthDuration/v2_depth_duration_MTurk/v2_DepthDuration_HTML.html#130,130,1152,631,1440,900,8-22-2022,8-17-6,2,depth_duration_stimuli/002570_2014-06-24_13-59-54_094959634447_rgbf000059-resize_0/002570_2014-06-24_13-59-54_094959634447_rgbf000059-resize_0-target.png,1000,4.037,42,3595,999,meters,jsons/v1_VE1000_randls_43_rotated.json,1394783,1596981,35,Man
2,235277,DepthScenes,duration_manipulation_targetAtFixation,jsons/v1_VE1000_randls_43_rotated.json,http://54.235.29.9/FacialAge/BNav_EC2/DepthDuration/v2_depth_duration_MTurk/v2_DepthDuration_HTML.html#130,130,1152,631,1440,900,8-22-2022,8-17-6,3,depth_duration_stimuli/000137_2014-05-20_17-04-49_260595134347_rgbf000120-resize_1/000137_2014-05-20_17-04-49_260595134347_rgbf000120-resize_1-target.png,1000,3.786,43,3994,1000,meters,jsons/v1_VE1000_randls_43_rotated.json,1394783,1596981,35,Man
3,235277,DepthScenes,duration_manipulation_targetAtFixation,jsons/v1_VE1000_randls_43_rotated.json,http://54.235.29.9/FacialAge/BNav_EC2/DepthDuration/v2_depth_duration_MTurk/v2_DepthDuration_HTML.html#130,130,1152,631,1440,900,8-22-2022,8-17-6,4,depth_duration_stimuli/000736_2014-06-08_18-24-15_260595134347_rgbf000206-resize_3/000736_2014-06-08_18-24-15_260595134347_rgbf000206-resize_3-target.png,1000,3.515,25,3635,1000,meters,jsons/v1_VE1000_randls_43_rotated.json,1394783,1596981,35,Man
4,235277,DepthScenes,duration_manipulation_targetAtFixation,jsons/v1_VE1000_randls_43_rotated.json,http://54.235.29.9/FacialAge/BNav_EC2/DepthDuration/v2_depth_duration_MTurk/v2_DepthDuration_HTML.html#130,130,1152,631,1440,900,8-22-2022,8-17-6,5,depth_duration_stimuli/002103_2014-06-25_20-00-40_260595134347_rgbf000049-resize_0/002103_2014-06-25_20-00-40_260595134347_rgbf000049-resize_0-target.png,1000,4.105,43,4916,1000,meters,jsons/v1_VE1000_randls_43_rotated.json,1394783,1596981,35,Man
5,235277,DepthScenes,duration_manipulation_targetAtFixation,jsons/v1_VE1000_randls_43_rotated.json,http://54.235.29.9/FacialAge/BNav_EC2/DepthDuration/v2_depth_duration_MTurk/v2_DepthDuration_HTML.html#130,130,1152,631,1440,900,8-22-2022,8-17-6,6,depth_duration_stimuli/002039_2014-06-24_20-22-38_260595134347_rgbf000084-resize_1/002039_2014-06-24_20-22-38_260595134347_rgbf000084-resize_1-target.png,1000,4.408,45,36676,1000,meters,jsons/v1_VE1000_randls_43_rotated.json,1394783,1596981,35,Man
6,235277,DepthScenes,duration_manipulation_targetAtFixation,jsons/v1_VE1000_randls_43_rotated.json,http://54.235.29.9/FacialAge/BNav_EC2/DepthDuration/v2_depth_duration_MTurk/v2_DepthDuration_HTML.html#130,130,1152,631,1440,900,8-22-2022,8-17-6,7,depth_duration_stimuli/002758_2014-06-22_19-11-20_094959634447_rgbf000128-resize_1/002758_2014-06-22_19-11-20_094959634447_rgbf000128-resize_1-target.png,1000,2.555,20,4171,1001,meters,jsons/v1_VE1000_randls_43_rotated.json,1394783,1596981,35,Man
7,235277,DepthScenes,duration_manipulation_targetAtFixation,jsons/v1_VE1000_randls_43_rotated.json,http://54.235.29.9/FacialAge/BNav_EC2/DepthDuration/v2_depth_duration_MTurk/v2_DepthDuration_HTML.html#130,130,1152,631,1440,900,8-22-2022,8-17-6,8,depth_duration_stimuli/002630_2014-06-24_14-47-50_094959634447_rgbf000055-resize_1/002630_2014-06-24_14-47-50_094959634447_rgbf000055-resize_1-target.png,1000,3.0095,47,4459,1000,meters,jsons/v1_VE1000_randls_43_rotated.json,1394783,1596981,35,Man
8,235277,DepthScenes,duration_manipulation_targetAtFixation,jsons/v1_VE1000_randls_43_rotated.json,http://54.235.29.9/FacialAge/BNav_EC2/DepthDuration/v2_depth_duration_MTurk/v2_DepthDuration_HTML.html#130,130,1152,631,1440,900,8-22-2022,8-17-6,9,depth_duration_stimuli/002136_2014-06-25_21-18-03_260595134347_rgbf000109-resize_3/002136_2014-06-25_21-18-03_260595134347_rgbf000109-resize_3-target.png,1000,1.9569999999999999,26,6531,1001,meters,jsons/v1_VE1000_randls_43_rotated.json,1394783,1596981,35,Man
9,235277,DepthScenes,duration_manipulation_targetAtFixation,jsons/v1_VE1000_randls_43_rotated.json,http://54.235.29.9/FacialAge/BNav_EC2/DepthDuration/v2_depth_duration_MTurk/v2_DepthDuration_HTML.html#130,130,1152,631,1440,900,8-22-2022,8-17-6,10,depth_duration_stimuli/002964_2014-06-08_17-46-11_094959634447_rgbf000091-resize_4/002964_2014-06-08_17-46-11_094959634447_rgbf000091-resize_4-target.png,1000,1.6909999999999998,15,5593,999,meters,jsons/v1_VE1000_randls_43_rotated.json,1394783,1596981,35,Man
10,235277,DepthScenes,duration_manipulation_targetAtFixation,jsons/v1_VE1000_randls_43_rotated.json,http://54.235.29.9/FacialAge/BNav_EC2/DepthDuration/v2_depth_duration_MTurk/v2_DepthDuration_HTML.html#130,130,1152,631,1440,900,8-22-2022,8-17-6,11,depth_duration_stimuli/000103_2014-05-14_22-01-17_260595134347_rgbf000152-resize_5/000103_2014-05-14_22-01-17_260595134347_rgbf000152-resize_5-target.png,1000,1.993,40,4987,1000,meters,jsons/v1_VE1000_randls_43_rotated.json,1394783,1596981,35,Man
11,235277,DepthScenes,duration_manipulation_targetAtFixation,jsons/v1_VE1000_randls_43_rotated.json,http://54.235.29.9/FacialAge/BNav_EC2/DepthDuration/v2_depth_duration_MTurk/v2_DepthDuration_HTML.html#130,130,1152,631,1440,900,8-22-2022,8-17-6,12,depth_duration_stimuli/001555_2014-06-20_17-12-10_260595134347_rgbf000065-resize_4/001555_2014-06-20_17-12-10_260595134347_rgbf000065-resize_4-target.png,1000,1.633,20,4241,1000,meters,jsons/v1_VE1000_randls_43_rotated.json,1394783,1596981,35,Man
12,235277,DepthScenes,duration_manipulation_targetAtFixation,jsons/v1_VE1000_randls_43_rotated.json,http://54.235.29.9/FacialAge/BNav_EC2/DepthDuration/v2_depth_duration_MTurk/v2_DepthDuration_HTML.html#130,130,1152,631,1440,900,8-22-2022,8-17-6,13,depth_duration_stimuli/001032_2014-06-08_13-23-17_260595134347_rgbf000021-resize_3/001032_2014-06-08_13-23-17_260595134347_rgbf000021-resize_3-target.png,1000,3.2725,30,5970,999,meters,jsons/v1_VE1000_randls_43_rotated.json,1394783,1596981,35,Man
13,235277,DepthScenes,duration_manipulation_targetAtFixation,jsons/v1_VE1000_randls_43_rotated.json,http://54.235.29.9/FacialAge/BNav_EC2/DepthDuration/v2_depth_duration_MTurk/v2_DepthDuration_HTML.html#130,130,1152,631,1440,900,8-22-2022,8-17-6,14,depth_duration_stimuli/001059_2014-06-08_21-53-27_260595134347_rgbf000061-resize_4/001059_2014-06-08_21-53-27_260595134347_rgbf000061-resize_4-target.png,1000,2.4185,30,5601,999,meters,jsons/v1_VE1000_randls_43_rotated.json,1394783,1596981,35,Man
14,235277,DepthScenes,duration_manipulation_targetAtFixation,jsons/v1_VE1000_randls_43_rotated.json,http://54.235.29.9/FacialAge/BNav_EC2/DepthDuration/v2_depth_duration_MTurk/v2_DepthDuration_HTML.html#130,130,1152,631,1440,900,8-22-2022,8-17-6,15,depth_duration_stimuli/001617_2014-06-20_11-35-32_260595134347_rgbf000066-resize_1/001617_2014-06-20_11-35-32_260595134347_rgbf000066-resize_1-target.png,1000,3.7910000000000004,46,6149,1000,meters,jsons/v1_VE1000_randls_43_rotated.json,1394783,1596981,35,Man
15,235277,DepthScenes,duration_manipulation_targetAtFixation,jsons/v1_VE1000_randls_43_rotated.json,http://54.235.29.9/FacialAge/BNav_EC2/DepthDuration/v2_depth_duration_MTurk/v2_DepthDuration_HTML.html#130,130,1152,631,1440,900,8-22-2022,8-17-6,16,depth_duration_stimuli/001806_2014-06-26_20-50-20_260595134347_rgbf000091-resize_1/001806_2014-06-26_20-50-20_260595134347_rgbf000091-resize_1-target.png,1000,2.7305,30,4490,1001,meters,jsons/v1_VE1000_randls_43_rotated.json,1394783,1596981,35,Man
16,235277,DepthScenes,duration_manipulation_targetAtFixation,jsons/v1_VE1000_randls_43_rotated.json,http://54.235.29.9/FacialAge/BNav_EC2/DepthDuration/v2_depth_duration_MTurk/v2_DepthDuration_HTML.html#130,130,1152,631,1440,900,8-22-2022,8-17-6,17,depth_duration_stimuli/002637_2014-06-24_14-51-13_094959634447_rgbf000066-resize_4/002637_2014-06-24_14-51-13_094959634447_rgbf000066-resize_4-target.png,1000,1.9955,45,4139,1001,meters,jsons/v1_VE1000_randls_43_rotated.json,1394783,1596981,35,Man
17,235277,DepthScenes,duration_manipulation_targetAtFixation,jsons/v1_VE1000_randls_43_rotated.json,http://54.235.29.9/FacialAge/BNav_EC2/DepthDuration/v2_depth_duration_MTurk/v2_DepthDuration_HTML.html#130,130,1152,631,1440,900,8-22-2022,8-17-6,18,depth_duration_stimuli/003534_2014-05-22_15-06-10_094959634447_rgbf000102-resize_4/003534_2014-05-22_15-06-10_094959634447_rgbf000102-resize_4-target.png,1000,1.426,16,41529,1000,meters,jsons/v1_VE1000_randls_43_rotated.json,1394783,1596981,35,Man
18,235277,DepthScenes,duration_manipulation_targetAtFixation,jsons/v1_VE1000_randls_43_rotated.json,http://54.235.29.9/FacialAge/BNav_EC2/DepthDuration/v2_depth_duration_MTurk/v2_DepthDuration_HTML.html#130,130,1152,631,1440,900,8-22-2022,8-17-6,19,depth_duration_stimuli/001498_2014-06-19_17-45-14_260595134347_rgbf000129-resize_4/001498_2014-06-19_17-45-14_260595134347_rgbf000129-resize-original.jpg,1000,1.4075,0,3579,1000,meters,jsons/v1_VE1000_randls_43_rotated.json,1394783,1596981,35,Man
19,235277,DepthScenes,duration_manipulation_targetAtFixation,jsons/v1_VE1000_randls_43_rotated.json,http://54.235.29.9/FacialAge/BNav_EC2/DepthDuration/v2_depth_duration_MTurk/v2_DepthDuration_HTML.html#130,130,1152,631,1440,900,8-22-2022,8-17-6,20,depth_duration_stimuli/001094_2014-06-15_17-36-00_260595134347_rgbf000205-resize_0/001094_2014-06-15_17-36-00_260595134347_rgbf000205-resize_0-target.png,1000,4.2175,45,4243,997,meters,jsons/v1_VE1000_randls_43_rotated.json,1394783,1596981,35,Man
20,235277,DepthScenes,duration_manipulation_targetAtFixation,jsons/v1_VE1000_randls_43_rotated.json,http://54.235.29.9/FacialAge/BNav_EC2/DepthDuration/v2_depth_duration_MTurk/v2_DepthDuration_HTML.html#130,130,1152,631,1440,900,8-22-2022,8-17-6,21,depth_duration_stimuli/000692_2014-06-08_13-09-42_260595134347_rgbf000199-resize_2/000692_2014-06-08_13-09-42_260595134347_rgbf000199-resize_2-target.png,1000,3.661,40,4273,999,meters,jsons/v1_VE1000_randls_43_rotated.json,1394783,1596981,35,Man
21,235277,DepthScenes,duration_manipulation_targetAtFixation,jsons/v1_VE1000_randls_43_rotated.json,http://54.235.29.9/FacialAge/BNav_EC2/DepthDuration/v2_depth_duration_MTurk/v2_DepthDuration_HTML.html#130,130,1152,631,1440,900,8-22-2022,8-17-6,22,depth_duration_stimuli/000502_2014-06-08_23-02-32_260595134347_rgbf000063-resize_4/000502_2014-06-08_23-02-32_260595134347_rgbf000063-resize_4-target.png,1000,2.431,27,5715,1001,meters,jsons/v1_VE1000_randls_43_rotated.json,1394783,1596981,35,Man
22,235277,DepthScenes,duration_manipulation_targetAtFixation,jsons/v1_VE1000_randls_43_rotated.json,http://54.235.29.9/FacialAge/BNav_EC2/DepthDuration/v2_depth_duration_MTurk/v2_DepthDuration_HTML.html#130,130,1152,631,1440,900,8-22-2022,8-17-6,23,depth_duration_stimuli/001199_2014-06-17_16-03-48_260595134347_rgbf000077-resize_0/001199_2014-06-17_16-03-48_260595134347_rgbf000077-resize_0-target.png,1000,3.4375,47,5107,1000,meters,jsons/v1_VE1000_randls_43_rotated.json,1394783,1596981,35,Man
23,235277,DepthScenes,duration_manipulation_targetAtFixation,jsons/v1_VE1000_randls_43_rotated.json,http://54.235.29.9/FacialAge/BNav_EC2/DepthDuration/v2_depth_duration_MTurk/v2_DepthDuration_HTML.html#130,130,1152,631,1440,900,8-22-2022,8-17-6,24,depth_duration_stimuli/002657_2014-06-13_15-29-54_094959634447_rgbf000150-resize_1/002657_2014-06-13_15-29-54_094959634447_rgbf000150-resize_1-target.png,1000,4.919,30,4715,1000,meters,jsons/v1_VE1000_randls_43_rotated.json,1394783,1596981,35,Man
24,235277,DepthScenes,duration_manipulation_targetAtFixation,jsons/v1_VE1000_randls_43_rotated.json,http://54.235.29.9/FacialAge/BNav_EC2/DepthDuration/v2_depth_duration_MTurk/v2_DepthDuration_HTML.html#130,130,1152,631,1440,900,8-22-2022,8-17-6,25,depth_duration_stimuli/002375_2014-06-28_20-13-44_260595134347_rgbf000032-resize_1/002375_2014-06-28_20-13-44_260595134347_rgbf000032-resize_1-target.png,1000,4.0175,26,4346,1000,meters,jsons/v1_VE1000_randls_43_rotated.json,1394783,1596981,35,Man
25,235277,DepthScenes,duration_manipulation_targetAtFixation,jsons/v1_VE1000_randls_43_rotated.json,http://54.235.29.9/FacialAge/BNav_EC2/DepthDuration/v2_depth_duration_MTurk/v2_DepthDuration_HTML.html#130,130,1152,631,1440,900,8-22-2022,8-17-6,26,depth_duration_stimuli/002340_2014-06-28_20-05-46_260595134347_rgbf000113-resize_0/002340_2014-06-28_20-05-46_260595134347_rgbf000113-resize_0-target.png,1000,2.4735,45,4738,999,meters,jsons/v1_VE1000_randls_43_rotated.json,1394783,1596981,35,Man
26,235277,DepthScenes,duration_manipulation_targetAtFixation,jsons/v1_VE1000_randls_43_rotated.json,http://54.235.29.9/FacialAge/BNav_EC2/DepthDuration/v2_depth_duration_MTurk/v2_DepthDuration_HTML.html#130,130,1152,631,1440,900,8-22-2022,8-17-6,27,depth_duration_stimuli/001016_2014-06-09_16-16-10_260595134347_rgbf000112-resize_5/001016_2014-06-09_16-16-10_260595134347_rgbf000112-resize_5-target.png,1000,1.6565,43,6771,1000,meters,jsons/v1_VE1000_randls_43_rotated.json,1394783,1596981,35,Man
27,235277,DepthScenes,duration_manipulation_targetAtFixation,jsons/v1_VE1000_randls_43_rotated.json,http://54.235.29.9/FacialAge/BNav_EC2/DepthDuration/v2_depth_duration_MTurk/v2_DepthDuration_HTML.html#130,130,1152,631,1440,900,8-22-2022,8-17-6,28,depth_duration_stimuli/002344_2014-06-28_20-06-29_260595134347_rgbf000030-resize_1/002344_2014-06-28_20-06-29_260595134347_rgbf000030-resize_1-target.png,1000,1.5795,12,7124,1001,meters,jsons/v1_VE1000_randls_43_rotated.json,1394783,1596981,35,Man
28,235277,DepthScenes,duration_manipulation_targetAtFixation,jsons/v1_VE1000_randls_43_rotated.json,http://54.235.29.9/FacialAge/BNav_EC2/DepthDuration/v2_depth_duration_MTurk/v2_DepthDuration_HTML.html#130,130,1152,631,1440,900,8-22-2022,8-17-6,29,depth_duration_stimuli/002725_2014-06-22_11-47-51_094959634447_rgbf000070-resize_1/002725_2014-06-22_11-47-51_094959634447_rgbf000070-resize_1-target.png,1000,2.195,40,94820,1001,meters,jsons/v1_VE1000_randls_43_rotated.json,1394783,1596981,35,Man
29,235277,DepthScenes,duration_manipulation_targetAtFixation,jsons/v1_VE1000_randls_43_rotated.json,http://54.235.29.9/FacialAge/BNav_EC2/DepthDuration/v2_depth_duration_MTurk/v2_DepthDuration_HTML.html#130,130,1152,631,1440,900,8-22-2022,8-17-6,30,depth_duration_stimuli/002072_2014-06-24_21-48-06_260595134347_rgbf000115-resize_0/002072_2014-06-24_21-48-06_260595134347_rgbf000115-resize-original.jpg,1000,4.702,0,3778,998,meters,jsons/v1_VE1000_randls_43_rotated.json,1394783,1596981,35,Man
30,235277,DepthScenes,duration_manipulation_targetAtFixation,jsons/v1_VE1000_randls_43_rotated.json,http://54.235.29.9/FacialAge/BNav_EC2/DepthDuration/v2_depth_duration_MTurk/v2_DepthDuration_HTML.html#130,130,1152,631,1440,900,8-22-2022,8-17-6,31,depth_duration_stimuli/000854_2014-06-09_19-43-13_260595134347_rgbf000066-resize_0/000854_2014-06-09_19-43-13_260595134347_rgbf000066-resize_0-target.png,1000,3.068,32,5315,1000,meters,jsons/v1_VE1000_randls_43_rotated.json,1394783,1596981,35,Man
31,235277,DepthScenes,duration_manipulation_targetAtFixation,jsons/v1_VE1000_randls_43_rotated.json,http://54.235.29.9/FacialAge/BNav_EC2/DepthDuration/v2_depth_duration_MTurk/v2_DepthDuration_HTML.html#130,130,1152,631,1440,900,8-22-2022,8-17-6,32,depth_duration_stimuli/000758_2014-06-08_22-05-08_260595134347_rgbf000085-resize_0/000758_2014-06-08_22-05-08_260595134347_rgbf000085-resize_0-target.png,1000,3.3810000000000002,42,4882,999,meters,jsons/v1_VE1000_randls_43_rotated.json,1394783,1596981,35,Man
32,235277,DepthScenes,duration_manipulation_targetAtFixation,jsons/v1_VE1000_randls_43_rotated.json,http://54.235.29.9/FacialAge/BNav_EC2/DepthDuration/v2_depth_duration_MTurk/v2_DepthDuration_HTML.html#130,130,1152,631,1440,900,8-22-2022,8-17-6,33,depth_duration_stimuli/000749_2014-06-08_21-55-06_260595134347_rgbf000070-resize_2/000749_2014-06-08_21-55-06_260595134347_rgbf000070-resize_2-target.png,1000,2.331,38,6577,999,meters,jsons/v1_VE1000_randls_43_rotated.json,1394783,1596981,35,Man
33,235277,DepthScenes,duration_manipulation_targetAtFixation,jsons/v1_VE1000_randls_43_rotated.json,http://54.235.29.9/FacialAge/BNav_EC2/DepthDuration/v2_depth_duration_MTurk/v2_DepthDuration_HTML.html#130,130,1152,631,1440,900,8-22-2022,8-17-6,34,depth_duration_stimuli/002788_2014-06-22_19-36-03_094959634447_rgbf000088-resize_2/002788_2014-06-22_19-36-03_094959634447_rgbf000088-resize_2-target.png,1000,1.6465,40,5450,998,meters,jsons/v1_VE1000_randls_43_rotated.json,1394783,1596981,35,Man
34,235277,DepthScenes,duration_manipulation_targetAtFixation,jsons/v1_VE1000_randls_43_rotated.json,http://54.235.29.9/FacialAge/BNav_EC2/DepthDuration/v2_depth_duration_MTurk/v2_DepthDuration_HTML.html#130,130,1152,631,1440,900,8-22-2022,8-17-6,35,depth_duration_stimuli/001132_2014-06-17_14-48-54_260595134347_rgbf000100-resize_2/001132_2014-06-17_14-48-54_260595134347_rgbf000100-resize_2-target.png,1000,3.753,43,83556,1000,meters,jsons/v1_VE1000_randls_43_rotated.json,1394783,1596981,35,Man
35,235277,DepthScenes,duration_manipulation_targetAtFixation,jsons/v1_VE1000_randls_43_rotated.json,http://54.235.29.9/FacialAge/BNav_EC2/DepthDuration/v2_depth_duration_MTurk/v2_DepthDuration_HTML.html#130,130,1152,631,1440,900,8-22-2022,8-17-6,36,depth_duration_stimuli/001133_2014-06-17_14-49-16_260595134347_rgbf000100-resize_0/001133_2014-06-17_14-49-16_260595134347_rgbf000100-resize_0-target.png,1000,4.2115,37,60132,1001,meters,jsons/v1_VE1000_randls_43_rotated.json,1394783,1596981,35,Man
36,235277,DepthScenes,duration_manipulation_targetAtFixation,jsons/v1_VE1000_randls_43_rotated.json,http://54.235.29.9/FacialAge/BNav_EC2/DepthDuration/v2_depth_duration_MTurk/v2_DepthDuration_HTML.html#130,130,1152,631,1440,900,8-22-2022,8-17-6,37,depth_duration_stimuli/003048_2014-06-15_13-49-43_094959634447_rgbf000150-resize_1/003048_2014-06-15_13-49-43_094959634447_rgbf000150-resize_1-target.png,1000,4.0035,40,10458,1000,meters,jsons/v1_VE1000_randls_43_rotated.json,1394783,1596981,35,Man
37,235277,DepthScenes,duration_manipulation_targetAtFixation,jsons/v1_VE1000_randls_43_rotated.json,http://54.235.29.9/FacialAge/BNav_EC2/DepthDuration/v2_depth_duration_MTurk/v2_DepthDuration_HTML.html#130,130,1152,631,1440,900,8-22-2022,8-17-6,38,depth_duration_stimuli/002043_2014-06-24_20-29-38_260595134347_rgbf000039-resize_4/002043_2014-06-24_20-29-38_260595134347_rgbf000039-resize_4-target.png,1000,2.8435,30,5154,1000,meters,jsons/v1_VE1000_randls_43_rotated.json,1394783,1596981,35,Man
38,235277,DepthScenes,duration_manipulation_targetAtFixation,jsons/v1_VE1000_randls_43_rotated.json,http://54.235.29.9/FacialAge/BNav_EC2/DepthDuration/v2_depth_duration_MTurk/v2_DepthDuration_HTML.html#130,130,1152,631,1440,900,8-22-2022,8-17-6,39,depth_duration_stimuli/002949_2014-06-26_15-57-42_094959634447_rgbf000079-resize_1/002949_2014-06-26_15-57-42_094959634447_rgbf000079-resize_1-target.png,1000,1.8915,25,3947,1001,meters,jsons/v1_VE1000_randls_43_rotated.json,1394783,1596981,35,Man
39,235277,DepthScenes,duration_manipulation_targetAtFixation,jsons/v1_VE1000_randls_43_rotated.json,http://54.235.29.9/FacialAge/BNav_EC2/DepthDuration/v2_depth_duration_MTurk/v2_DepthDuration_HTML.html#130,130,1152,631,1440,900,8-22-2022,8-17-6,40,depth_duration_stimuli/000522_2014-06-08_13-35-06_260595134347_rgbf000244-resize_1/000522_2014-06-08_13-35-06_260595134347_rgbf000244-resize_1-target.png,1000,2.3715,21,6914,1000,meters,jsons/v1_VE1000_randls_43_rotated.json,1394783,1596981,35,Man
40,235277,DepthScenes,duration_manipulation_targetAtFixation,jsons/v1_VE1000_randls_43_rotated.json,http://54.235.29.9/FacialAge/BNav_EC2/DepthDuration/v2_depth_duration_MTurk/v2_DepthDuration_HTML.html#130,130,1152,631,1440,900,8-22-2022,8-17-6,41,depth_duration_stimuli/001828_2014-06-26_21-40-03_260595134347_rgbf000024-resize_0/001828_2014-06-26_21-40-03_260595134347_rgbf000024-resize_0-target.png,1000,4.8260000000000005,40,4259,1001,meters,jsons/v1_VE1000_randls_43_rotated.json,1394783,1596981,35,Man
41,235277,DepthScenes,duration_manipulation_targetAtFixation,jsons/v1_VE1000_randls_43_rotated.json,http://54.235.29.9/FacialAge/BNav_EC2/DepthDuration/v2_depth_duration_MTurk/v2_DepthDuration_HTML.html#130,130,1152,631,1440,900,8-22-2022,8-17-6,42,depth_duration_stimuli/000009_2014-05-26_14-32-05_260595134347_rgbf000034-resize_3/000009_2014-05-26_14-32-05_260595134347_rgbf000034-resize_3-target.png,1000,3.8715,45,4540,1000,meters,jsons/v1_VE1000_randls_43_rotated.json,1394783,1596981,35,Man
42,235277,DepthScenes,duration_manipulation_targetAtFixation,jsons/v1_VE1000_randls_43_rotated.json,http://54.235.29.9/FacialAge/BNav_EC2/DepthDuration/v2_depth_duration_MTurk/v2_DepthDuration_HTML.html#130,130,1152,631,1440,900,8-22-2022,8-17-6,43,depth_duration_stimuli/003495_2014-05-21_16-01-51_094959634447_rgbf000100-resize_3/003495_2014-05-21_16-01-51_094959634447_rgbf000100-resize_3-target.png,1000,1.6255,18,5764,1002,meters,jsons/v1_VE1000_randls_43_rotated.json,1394783,1596981,35,Man
43,235277,DepthScenes,duration_manipulation_targetAtFixation,jsons/v1_VE1000_randls_43_rotated.json,http://54.235.29.9/FacialAge/BNav_EC2/DepthDuration/v2_depth_duration_MTurk/v2_DepthDuration_HTML.html#130,130,1152,631,1440,900,8-22-2022,8-17-6,44,depth_duration_stimuli/001244_2014-06-17_16-47-45_260595134347_rgbf000030-resize_4/001244_2014-06-17_16-47-45_260595134347_rgbf000030-resize_4-target.png,1000,2.0425,38,7684,1001,meters,jsons/v1_VE1000_randls_43_rotated.json,1394783,1596981,35,Man
44,235277,DepthScenes,duration_manipulation_targetAtFixation,jsons/v1_VE1000_randls_43_rotated.json,http://54.235.29.9/FacialAge/BNav_EC2/DepthDuration/v2_depth_duration_MTurk/v2_DepthDuration_HTML.html#130,130,1152,631,1440,900,8-22-2022,8-17-6,45,depth_duration_stimuli/001450_2014-06-19_17-02-03_260595134347_rgbf000203-resize_4/001450_2014-06-19_17-02-03_260595134347_rgbf000203-resize_4-target.png,1000,4.0106666666667,46,4250,1000,meters,jsons/v1_VE1000_randls_43_rotated.json,1394783,1596981,35,Man
45,235277,DepthScenes,duration_manipulation_targetAtFixation,jsons/v1_VE1000_randls_43_rotated.json,http://54.235.29.9/FacialAge/BNav_EC2/DepthDuration/v2_depth_duration_MTurk/v2_DepthDuration_HTML.html#130,130,1152,631,1440,900,8-22-2022,8-17-6,46,depth_duration_stimuli/001449_2014-06-19_17-01-27_260595134347_rgbf000116-resize_2/001449_2014-06-19_17-01-27_260595134347_rgbf000116-resize_2-target.png,1000,3.452,38,4953,999,meters,jsons/v1_VE1000_randls_43_rotated.json,1394783,1596981,35,Man
46,235277,DepthScenes,duration_manipulation_targetAtFixation,jsons/v1_VE1000_randls_43_rotated.json,http://54.235.29.9/FacialAge/BNav_EC2/DepthDuration/v2_depth_duration_MTurk/v2_DepthDuration_HTML.html#130,130,1152,631,1440,900,8-22-2022,8-17-6,47,depth_duration_stimuli/000483_2014-06-09_20-41-45_260595134347_rgbf000116-resize_4/000483_2014-06-09_20-41-45_260595134347_rgbf000116-resize_4-target.png,1000,1.337,18,6010,999,meters,jsons/v1_VE1000_randls_43_rotated.json,1394783,1596981,35,Man
47,235277,DepthScenes,duration_manipulation_targetAtFixation,jsons/v1_VE1000_randls_43_rotated.json,http://54.235.29.9/FacialAge/BNav_EC2/DepthDuration/v2_depth_duration_MTurk/v2_DepthDuration_HTML.html#130,130,1152,631,1440,900,8-22-2022,8-17-6,48,depth_duration_stimuli/000469_2014-06-09_19-42-10_260595134347_rgbf000081-resize_1/000469_2014-06-09_19-42-10_260595134347_rgbf000081-resize_1-target.png,1000,1.652,25,34242,1000,meters,jsons/v1_VE1000_randls_43_rotated.json,1394783,1596981,35,Man
48,235277,DepthScenes,duration_manipulation_targetAtFixation,jsons/v1_VE1000_randls_43_rotated.json,http://54.235.29.9/FacialAge/BNav_EC2/DepthDuration/v2_depth_duration_MTurk/v2_DepthDuration_HTML.html#130,130,1152,631,1440,900,8-22-2022,8-17-6,49,depth_duration_stimuli/001170_2014-06-17_15-43-44_260595134347_rgbf000096-resize_6/001170_2014-06-17_15-43-44_260595134347_rgbf000096-resize-original.jpg,1000,1.1909999999999998,0,3698,999,meters,jsons/v1_VE1000_randls_43_rotated.json,1394783,1596981,35,Man
49,235277,DepthScenes,duration_manipulation_targetAtFixation,jsons/v1_VE1000_randls_43_rotated.json,http://54.235.29.9/FacialAge/BNav_EC2/DepthDuration/v2_depth_duration_MTurk/v2_DepthDuration_HTML.html#130,130,1152,631,1440,900,8-22-2022,8-17-6,50,depth_duration_stimuli/003083_2014-06-15_15-21-03_094959634447_rgbf000063-resize_1/003083_2014-06-15_15-21-03_094959634447_rgbf000063-resize_1-target.png,1000,4.1405,40,6045,1002,meters,jsons/v1_VE1000_randls_43_rotated.json,1394783,1596981,35,Man
50,235277,DepthScenes,duration_manipulation_targetAtFixation,jsons/v1_VE1000_randls_43_rotated.json,http://54.235.29.9/FacialAge/BNav_EC2/DepthDuration/v2_depth_duration_MTurk/v2_DepthDuration_HTML.html#130,130,1152,631,1440,900,8-22-2022,8-17-6,51,depth_duration_stimuli/000486_2014-06-09_20-47-20_260595134347_rgbf000143-resize_2/000486_2014-06-09_20-47-20_260595134347_rgbf000143-resize_2-target.png,1000,4.8325,40,5067,999,meters,jsons/v1_VE1000_randls_43_rotated.json,1394783,1596981,35,Man
51,235277,DepthScenes,duration_manipulation_targetAtFixation,jsons/v1_VE1000_randls_43_rotated.json,http://54.235.29.9/FacialAge/BNav_EC2/DepthDuration/v2_depth_duration_MTurk/v2_DepthDuration_HTML.html#130,130,1152,631,1440,900,8-22-2022,8-17-6,52,depth_duration_stimuli/000191_2014-05-12_17-07-38_260595134347_rgbf000199-resize_0/000191_2014-05-12_17-07-38_260595134347_rgbf000199-resize_0-target.png,1000,3.7995,48,4810,1000,meters,jsons/v1_VE1000_randls_43_rotated.json,1394783,1596981,35,Man
52,235277,DepthScenes,duration_manipulation_targetAtFixation,jsons/v1_VE1000_randls_43_rotated.json,http://54.235.29.9/FacialAge/BNav_EC2/DepthDuration/v2_depth_duration_MTurk/v2_DepthDuration_HTML.html#130,130,1152,631,1440,900,8-22-2022,8-17-6,53,depth_duration_stimuli/000493_2014-06-09_21-01-18_260595134347_rgbf000196-resize_3/000493_2014-06-09_21-01-18_260595134347_rgbf000196-resize_3-target.png,1000,3.44,40,4394,1001,meters,jsons/v1_VE1000_randls_43_rotated.json,1394783,1596981,35,Man
53,235277,DepthScenes,duration_manipulation_targetAtFixation,jsons/v1_VE1000_randls_43_rotated.json,http://54.235.29.9/FacialAge/BNav_EC2/DepthDuration/v2_depth_duration_MTurk/v2_DepthDuration_HTML.html#130,130,1152,631,1440,900,8-22-2022,8-17-6,54,depth_duration_stimuli/003079_2014-06-15_15-18-20_094959634447_rgbf000152-resize_8/003079_2014-06-15_15-18-20_094959634447_rgbf000152-resize_8-target.png,1000,2.8775,45,4028,1001,meters,jsons/v1_VE1000_randls_43_rotated.json,1394783,1596981,35,Man
54,235277,DepthScenes,duration_manipulation_targetAtFixation,jsons/v1_VE1000_randls_43_rotated.json,http://54.235.29.9/FacialAge/BNav_EC2/DepthDuration/v2_depth_duration_MTurk/v2_DepthDuration_HTML.html#130,130,1152,631,1440,900,8-22-2022,8-17-6,55,depth_duration_stimuli/000506_2014-06-08_23-21-00_260595134347_rgbf000070-resize_7/000506_2014-06-08_23-21-00_260595134347_rgbf000070-resize_7-target.png,1000,4.0585,32,9322,1000,meters,jsons/v1_VE1000_randls_43_rotated.json,1394783,1596981,35,Man
55,235277,DepthScenes,duration_manipulation_targetAtFixation,jsons/v1_VE1000_randls_43_rotated.json,http://54.235.29.9/FacialAge/BNav_EC2/DepthDuration/v2_depth_duration_MTurk/v2_DepthDuration_HTML.html#130,130,1152,631,1440,900,8-22-2022,8-17-6,56,depth_duration_stimuli/001136_2014-06-17_15-19-41_260595134347_rgbf000076-resize_3/001136_2014-06-17_15-19-41_260595134347_rgbf000076-resize_3-target.png,1000,1.8655,35,22713,1000,meters,jsons/v1_VE1000_randls_43_rotated.json,1394783,1596981,35,Man
56,235277,DepthScenes,duration_manipulation_targetAtFixation,jsons/v1_VE1000_randls_43_rotated.json,http://54.235.29.9/FacialAge/BNav_EC2/DepthDuration/v2_depth_duration_MTurk/v2_DepthDuration_HTML.html#130,130,1152,631,1440,900,8-22-2022,8-17-6,57,depth_duration_stimuli/001164_2014-06-17_15-35-46_260595134347_rgbf000085-resize_3/001164_2014-06-17_15-35-46_260595134347_rgbf000085-resize_3-target.png,1000,2.354,41,9525,1001,meters,jsons/v1_VE1000_randls_43_rotated.json,1394783,1596981,35,Man
57,235277,DepthScenes,duration_manipulation_targetAtFixation,jsons/v1_VE1000_randls_43_rotated.json,http://54.235.29.9/FacialAge/BNav_EC2/DepthDuration/v2_depth_duration_MTurk/v2_DepthDuration_HTML.html#130,130,1152,631,1440,900,8-22-2022,8-17-6,58,depth_duration_stimuli/002568_2014-06-24_13-59-21_094959634447_rgbf000062-resize_4/002568_2014-06-24_13-59-21_094959634447_rgbf000062-resize_4-target.png,1000,3.015,36,4476,1000,meters,jsons/v1_VE1000_randls_43_rotated.json,1394783,1596981,35,Man
58,235277,DepthScenes,duration_manipulation_targetAtFixation,jsons/v1_VE1000_randls_43_rotated.json,http://54.235.29.9/FacialAge/BNav_EC2/DepthDuration/v2_depth_duration_MTurk/v2_DepthDuration_HTML.html#130,130,1152,631,1440,900,8-22-2022,8-17-6,59,depth_duration_stimuli/003492_2014-05-21_15-50-55_094959634447_rgbf000828-resize_1/003492_2014-05-21_15-50-55_094959634447_rgbf000828-resize_1-target.png,1000,4.06875,353,3866,998,meters,jsons/v1_VE1000_randls_43_rotated.json,1394783,1596981,35,Man
59,235277,DepthScenes,duration_manipulation_targetAtFixation,jsons/v1_VE1000_randls_43_rotated.json,http://54.235.29.9/FacialAge/BNav_EC2/DepthDuration/v2_depth_duration_MTurk/v2_DepthDuration_HTML.html#130,130,1152,631,1440,900,8-22-2022,8-17-6,60,depth_duration_stimuli/002875_2014-06-01_15-19-00_094959634447_rgbf000151-resize_1/002875_2014-06-01_15-19-00_094959634447_rgbf000151-resize_1-target.png,1000,1.9675,44,9706,1001,meters,jsons/v1_VE1000_randls_43_rotated.json,1394783,1596981,35,Man
60,235277,DepthScenes,duration_manipulation_targetAtFixation,jsons/v1_VE1000_randls_43_rotated.json,http://54.235.29.9/FacialAge/BNav_EC2/DepthDuration/v2_depth_duration_MTurk/v2_DepthDuration_HTML.html#130,130,1152,631,1440,900,8-22-2022,8-17-6,61,depth_duration_stimuli/001011_2014-06-08_23-18-54_260595134347_rgbf000044-resize_4/001011_2014-06-08_23-18-54_260595134347_rgbf000044-resize_4-target.png,1000,2.4730000000000003,35,8107,1000,meters,jsons/v1_VE1000_randls_43_rotated.json,1394783,1596981,35,Man
61,235277,DepthScenes,duration_manipulation_targetAtFixation,jsons/v1_VE1000_randls_43_rotated.json,http://54.235.29.9/FacialAge/BNav_EC2/DepthDuration/v2_depth_duration_MTurk/v2_DepthDuration_HTML.html#130,130,1152,631,1440,900,8-22-2022,8-17-6,62,depth_duration_stimuli/002444_2014-06-28_20-32-08_260595134347_rgbf000027-resize_0/002444_2014-06-28_20-32-08_260595134347_rgbf000027-resize_0-target.png,1000,4.388999999999999,42,8368,999,meters,jsons/v1_VE1000_randls_43_rotated.json,1394783,1596981,35,Man
62,235277,DepthScenes,duration_manipulation_targetAtFixation,jsons/v1_VE1000_randls_43_rotated.json,http://54.235.29.9/FacialAge/BNav_EC2/DepthDuration/v2_depth_duration_MTurk/v2_DepthDuration_HTML.html#130,130,1152,631,1440,900,8-22-2022,8-17-6,63,depth_duration_stimuli/000436_2014-06-09_22-25-11_260595134347_rgbf000137-resize_1/000436_2014-06-09_22-25-11_260595134347_rgbf000137-resize_1-target.png,1000,4.0705,40,4964,1001,meters,jsons/v1_VE1000_randls_43_rotated.json,1394783,1596981,35,Man
63,235277,DepthScenes,duration_manipulation_targetAtFixation,jsons/v1_VE1000_randls_43_rotated.json,http://54.235.29.9/FacialAge/BNav_EC2/DepthDuration/v2_depth_duration_MTurk/v2_DepthDuration_HTML.html#130,130,1152,631,1440,900,8-22-2022,8-17-6,64,depth_duration_stimuli/000556_2014-06-09_22-42-56_260595134347_rgbf000214-resize_1/000556_2014-06-09_22-42-56_260595134347_rgbf000214-resize_1-target.png,1000,4.8415,38,6922,1000,meters,jsons/v1_VE1000_randls_43_rotated.json,1394783,1596981,35,Man
64,235277,DepthScenes,duration_manipulation_targetAtFixation,jsons/v1_VE1000_randls_43_rotated.json,http://54.235.29.9/FacialAge/BNav_EC2/DepthDuration/v2_depth_duration_MTurk/v2_DepthDuration_HTML.html#130,130,1152,631,1440,900,8-22-2022,8-17-6,65,depth_duration_stimuli/001158_2014-06-17_15-32-16_260595134347_rgbf000138-resize_2/001158_2014-06-17_15-32-16_260595134347_rgbf000138-resize_2-target.png,1000,4.5315,40,4841,999,meters,jsons/v1_VE1000_randls_43_rotated.json,1394783,1596981,35,Man
65,235277,DepthScenes,duration_manipulation_targetAtFixation,jsons/v1_VE1000_randls_43_rotated.json,http://54.235.29.9/FacialAge/BNav_EC2/DepthDuration/v2_depth_duration_MTurk/v2_DepthDuration_HTML.html#130,130,1152,631,1440,900,8-22-2022,8-17-6,66,depth_duration_stimuli/001540_2014-06-20_17-01-05_260595134347_rgbf000086-resize_2/001540_2014-06-20_17-01-05_260595134347_rgbf000086-resize-original.jpg,1000,1.459,0,4861,1001,meters,jsons/v1_VE1000_randls_43_rotated.json,1394783,1596981,35,Man
66,235277,DepthScenes,duration_manipulation_targetAtFixation,jsons/v1_VE1000_randls_43_rotated.json,http://54.235.29.9/FacialAge/BNav_EC2/DepthDuration/v2_depth_duration_MTurk/v2_DepthDuration_HTML.html#130,130,1152,631,1440,900,8-22-2022,8-17-6,67,depth_duration_stimuli/002323_2014-06-28_20-01-54_260595134347_rgbf000051-resize_4/002323_2014-06-28_20-01-54_260595134347_rgbf000051-resize_4-target.png,1000,3.7310000000000003,42,4720,999,meters,jsons/v1_VE1000_randls_43_rotated.json,1394783,1596981,35,Man
67,235277,DepthScenes,duration_manipulation_targetAtFixation,jsons/v1_VE1000_randls_43_rotated.json,http://54.235.29.9/FacialAge/BNav_EC2/DepthDuration/v2_depth_duration_MTurk/v2_DepthDuration_HTML.html#130,130,1152,631,1440,900,8-22-2022,8-17-6,68,depth_duration_stimuli/000917_2014-06-09_22-45-29_260595134347_rgbf000149-resize_3/000917_2014-06-09_22-45-29_260595134347_rgbf000149-resize_3-target.png,1000,4.1865,47,12004,1000,meters,jsons/v1_VE1000_randls_43_rotated.json,1394783,1596981,35,Man
68,235277,DepthScenes,duration_manipulation_targetAtFixation,jsons/v1_VE1000_randls_43_rotated.json,http://54.235.29.9/FacialAge/BNav_EC2/DepthDuration/v2_depth_duration_MTurk/v2_DepthDuration_HTML.html#130,130,1152,631,1440,900,8-22-2022,8-17-6,69,depth_duration_stimuli/003228_2014-05-14_13-42-35_094959634447_rgbf000101-resize_1/003228_2014-05-14_13-42-35_094959634447_rgbf000101-resize_1-target.png,1000,1.9680000000000002,25,8203,1000,meters,jsons/v1_VE1000_randls_43_rotated.json,1394783,1596981,35,Man
69,235277,DepthScenes,duration_manipulation_targetAtFixation,jsons/v1_VE1000_randls_43_rotated.json,http://54.235.29.9/FacialAge/BNav_EC2/DepthDuration/v2_depth_duration_MTurk/v2_DepthDuration_HTML.html#130,130,1152,631,1440,900,8-22-2022,8-17-6,70,depth_duration_stimuli/002600_2014-06-24_14-27-04_094959634447_rgbf000074-resize_2/002600_2014-06-24_14-27-04_094959634447_rgbf000074-resize_2-target.png,1000,2.7575,32,5467,1001,meters,jsons/v1_VE1000_randls_43_rotated.json,1394783,1596981,35,Man
70,235277,DepthScenes,duration_manipulation_targetAtFixation,jsons/v1_VE1000_randls_43_rotated.json,http://54.235.29.9/FacialAge/BNav_EC2/DepthDuration/v2_depth_duration_MTurk/v2_DepthDuration_HTML.html#130,130,1152,631,1440,900,8-22-2022,8-17-6,71,depth_duration_stimuli/000927_2014-06-09_16-32-30_260595134347_rgbf000123-resize_3/000927_2014-06-09_16-32-30_260595134347_rgbf000123-resize_3-target.png,1000,2.6785,40,3651,1001,meters,jsons/v1_VE1000_randls_43_rotated.json,1394783,1596981,35,Man
71,235277,DepthScenes,duration_manipulation_targetAtFixation,jsons/v1_VE1000_randls_43_rotated.json,http://54.235.29.9/FacialAge/BNav_EC2/DepthDuration/v2_depth_duration_MTurk/v2_DepthDuration_HTML.html#130,130,1152,631,1440,900,8-22-2022,8-17-6,72,depth_duration_stimuli/001110_2014-06-15_17-25-28_260595134347_rgbf000150-resize_1/001110_2014-06-15_17-25-28_260595134347_rgbf000150-resize_1-target.png,1000,1.7115,25,3715,1000,meters,jsons/v1_VE1000_randls_43_rotated.json,1394783,1596981,35,Man
72,235277,DepthScenes,duration_manipulation_targetAtFixation,jsons/v1_VE1000_randls_43_rotated.json,http://54.235.29.9/FacialAge/BNav_EC2/DepthDuration/v2_depth_duration_MTurk/v2_DepthDuration_HTML.html#130,130,1152,631,1440,900,8-22-2022,8-17-6,73,depth_duration_stimuli/000635_2014-06-08_16-38-42_260595134347_rgbf000106-resize_1/000635_2014-06-08_16-38-42_260595134347_rgbf000106-resize_1-target.png,1000,2.074,38,4618,999,meters,jsons/v1_VE1000_randls_43_rotated.json,1394783,1596981,35,Man
73,235277,DepthScenes,duration_manipulation_targetAtFixation,jsons/v1_VE1000_randls_43_rotated.json,http://54.235.29.9/FacialAge/BNav_EC2/DepthDuration/v2_depth_duration_MTurk/v2_DepthDuration_HTML.html#130,130,1152,631,1440,900,8-22-2022,8-17-6,74,depth_duration_stimuli/002279_2014-06-28_18-55-32_260595134347_rgbf000040-resize_5/002279_2014-06-28_18-55-32_260595134347_rgbf000040-resize_5-target.png,1000,1.5043333333333,23,4097,1000,meters,jsons/v1_VE1000_randls_43_rotated.json,1394783,1596981,35,Man
74,235277,DepthScenes,duration_manipulation_targetAtFixation,jsons/v1_VE1000_randls_43_rotated.json,http://54.235.29.9/FacialAge/BNav_EC2/DepthDuration/v2_depth_duration_MTurk/v2_DepthDuration_HTML.html#130,130,1152,631,1440,900,8-22-2022,8-17-6,75,depth_duration_stimuli/001214_2014-06-17_16-13-55_260595134347_rgbf000111-resize_0/001214_2014-06-17_16-13-55_260595134347_rgbf000111-resize_0-target.png,1000,2.6505,24,3756,1000,meters,jsons/v1_VE1000_randls_43_rotated.json,1394783,1596981,35,Man
75,235277,DepthScenes,duration_manipulation_targetAtFixation,jsons/v1_VE1000_randls_43_rotated.json,http://54.235.29.9/FacialAge/BNav_EC2/DepthDuration/v2_depth_duration_MTurk/v2_DepthDuration_HTML.html#130,130,1152,631,1440,900,8-22-2022,8-17-6,76,depth_duration_stimuli/000810_2014-06-08_17-20-01_260595134347_rgbf000105-resize_0/000810_2014-06-08_17-20-01_260595134347_rgbf000105-resize_0-target.png,1000,1.4865,24,6108,1001,meters,jsons/v1_VE1000_randls_43_rotated.json,1394783,1596981,35,Man
76,235277,DepthScenes,duration_manipulation_targetAtFixation,jsons/v1_VE1000_randls_43_rotated.json,http://54.235.29.9/FacialAge/BNav_EC2/DepthDuration/v2_depth_duration_MTurk/v2_DepthDuration_HTML.html#130,130,1152,631,1440,900,8-22-2022,8-17-6,77,depth_duration_stimuli/001235_2014-06-17_16-37-36_260595134347_rgbf000084-resize_4/001235_2014-06-17_16-37-36_260595134347_rgbf000084-resize_4-target.png,1000,3.6605,40,4193,999,meters,jsons/v1_VE1000_randls_43_rotated.json,1394783,1596981,35,Man
77,235277,DepthScenes,duration_manipulation_targetAtFixation,jsons/v1_VE1000_randls_43_rotated.json,http://54.235.29.9/FacialAge/BNav_EC2/DepthDuration/v2_depth_duration_MTurk/v2_DepthDuration_HTML.html#130,130,1152,631,1440,900,8-22-2022,8-17-6,78,depth_duration_stimuli/000788_2014-06-08_22-34-36_260595134347_rgbf000131-resize_1/000788_2014-06-08_22-34-36_260595134347_rgbf000131-resize_1-target.png,1000,3.359,27,6179,999,meters,jsons/v1_VE1000_randls_43_rotated.json,1394783,1596981,35,Man
78,235277,DepthScenes,duration_manipulation_targetAtFixation,jsons/v1_VE1000_randls_43_rotated.json,http://54.235.29.9/FacialAge/BNav_EC2/DepthDuration/v2_depth_duration_MTurk/v2_DepthDuration_HTML.html#130,130,1152,631,1440,900,8-22-2022,8-17-6,79,depth_duration_stimuli/003490_2014-05-21_15-50-11_094959634447_rgbf000101-resize_3/003490_2014-05-21_15-50-11_094959634447_rgbf000101-resize_3-target.png,1000,3.6445,37,4601,999,meters,jsons/v1_VE1000_randls_43_rotated.json,1394783,1596981,35,Man
79,235277,DepthScenes,duration_manipulation_targetAtFixation,jsons/v1_VE1000_randls_43_rotated.json,http://54.235.29.9/FacialAge/BNav_EC2/DepthDuration/v2_depth_duration_MTurk/v2_DepthDuration_HTML.html#130,130,1152,631,1440,900,8-22-2022,8-17-6,80,depth_duration_stimuli/001175_2014-06-17_15-45-55_260595134347_rgbf000129-resize_4/001175_2014-06-17_15-45-55_260595134347_rgbf000129-resize_4-target.png,1000,4.255,46,4762,1000,meters,jsons/v1_VE1000_randls_43_rotated.json,1394783,1596981,35,Man
80,235277,DepthScenes,duration_manipulation_targetAtFixation,jsons/v1_VE1000_randls_43_rotated.json,http://54.235.29.9/FacialAge/BNav_EC2/DepthDuration/v2_depth_duration_MTurk/v2_DepthDuration_HTML.html#130,130,1152,631,1440,900,8-22-2022,8-17-6,81,depth_duration_stimuli/003081_2014-06-15_15-19-16_094959634447_rgbf000150-resize_1/003081_2014-06-15_15-19-16_094959634447_rgbf000150-resize_1-target.png,1000,3.9125,40,3969,999,meters,jsons/v1_VE1000_randls_43_rotated.json,1394783,1596981,35,Man
81,235277,DepthScenes,duration_manipulation_targetAtFixation,jsons/v1_VE1000_randls_43_rotated.json,http://54.235.29.9/FacialAge/BNav_EC2/DepthDuration/v2_depth_duration_MTurk/v2_DepthDuration_HTML.html#130,130,1152,631,1440,900,8-22-2022,8-17-6,82,depth_duration_stimuli/001417_2014-06-19_16-25-36_260595134347_rgbf000115-resize_5/001417_2014-06-19_16-25-36_260595134347_rgbf000115-resize_5-target.png,1000,4.6255,40,4395,1000,meters,jsons/v1_VE1000_randls_43_rotated.json,1394783,1596981,35,Man
82,235277,DepthScenes,duration_manipulation_targetAtFixation,jsons/v1_VE1000_randls_43_rotated.json,http://54.235.29.9/FacialAge/BNav_EC2/DepthDuration/v2_depth_duration_MTurk/v2_DepthDuration_HTML.html#130,130,1152,631,1440,900,8-22-2022,8-17-6,83,depth_duration_stimuli/000866_2014-06-09_20-45-42_260595134347_rgbf000139-resize_1/000866_2014-06-09_20-45-42_260595134347_rgbf000139-resize_1-target.png,1000,3.2155,42,4659,1001,meters,jsons/v1_VE1000_randls_43_rotated.json,1394783,1596981,35,Man
83,235277,DepthScenes,duration_manipulation_targetAtFixation,jsons/v1_VE1000_randls_43_rotated.json,http://54.235.29.9/FacialAge/BNav_EC2/DepthDuration/v2_depth_duration_MTurk/v2_DepthDuration_HTML.html#130,130,1152,631,1440,900,8-22-2022,8-17-6,84,depth_duration_stimuli/002989_2014-06-15_12-25-03_094959634447_rgbf000150-resize_3/002989_2014-06-15_12-25-03_094959634447_rgbf000150-resize_3-target.png,1000,4.1975,44,5866,999,meters,jsons/v1_VE1000_randls_43_rotated.json,1394783,1596981,35,Man
84,235277,DepthScenes,duration_manipulation_targetAtFixation,jsons/v1_VE1000_randls_43_rotated.json,http://54.235.29.9/FacialAge/BNav_EC2/DepthDuration/v2_depth_duration_MTurk/v2_DepthDuration_HTML.html#130,130,1152,631,1440,900,8-22-2022,8-17-6,85,depth_duration_stimuli/000742_2014-06-08_18-48-09_260595134347_rgbf000164-resize_4/000742_2014-06-08_18-48-09_260595134347_rgbf000164-resize_4-target.png,1000,4.632,43,17133,1000,meters,jsons/v1_VE1000_randls_43_rotated.json,1394783,1596981,35,Man
85,235277,DepthScenes,duration_manipulation_targetAtFixation,jsons/v1_VE1000_randls_43_rotated.json,http://54.235.29.9/FacialAge/BNav_EC2/DepthDuration/v2_depth_duration_MTurk/v2_DepthDuration_HTML.html#130,130,1152,631,1440,900,8-22-2022,8-17-6,86,depth_duration_stimuli/001066_2014-06-08_22-03-20_260595134347_rgbf000066-resize_4/001066_2014-06-08_22-03-20_260595134347_rgbf000066-resize_4-target.png,1000,4.2330000000000005,46,4706,1000,meters,jsons/v1_VE1000_randls_43_rotated.json,1394783,1596981,35,Man
86,235277,DepthScenes,duration_manipulation_targetAtFixation,jsons/v1_VE1000_randls_43_rotated.json,http://54.235.29.9/FacialAge/BNav_EC2/DepthDuration/v2_depth_duration_MTurk/v2_DepthDuration_HTML.html#130,130,1152,631,1440,900,8-22-2022,8-17-6,87,depth_duration_stimuli/001650_2014-06-20_12-09-00_260595134347_rgbf000087-resize_3/001650_2014-06-20_12-09-00_260595134347_rgbf000087-resize_3-target.png,1000,1.9505,18,4946,1000,meters,jsons/v1_VE1000_randls_43_rotated.json,1394783,1596981,35,Man
87,235277,DepthScenes,duration_manipulation_targetAtFixation,jsons/v1_VE1000_randls_43_rotated.json,http://54.235.29.9/FacialAge/BNav_EC2/DepthDuration/v2_depth_duration_MTurk/v2_DepthDuration_HTML.html#130,130,1152,631,1440,900,8-22-2022,8-17-6,88,depth_duration_stimuli/000682_2014-06-08_23-14-58_260595134347_rgbf000041-resize_5/000682_2014-06-08_23-14-58_260595134347_rgbf000041-resize_5-target.png,1000,2.7239999999999998,28,6650,1000,meters,jsons/v1_VE1000_randls_43_rotated.json,1394783,1596981,35,Man
88,235277,DepthScenes,duration_manipulation_targetAtFixation,jsons/v1_VE1000_randls_43_rotated.json,http://54.235.29.9/FacialAge/BNav_EC2/DepthDuration/v2_depth_duration_MTurk/v2_DepthDuration_HTML.html#130,130,1152,631,1440,900,8-22-2022,8-17-6,89,depth_duration_stimuli/003338_2014-05-20_11-01-23_094959634447_rgbf000051-resize_6/003338_2014-05-20_11-01-23_094959634447_rgbf000051-resize_6-target.png,1000,1.693,24,4426,999,meters,jsons/v1_VE1000_randls_43_rotated.json,1394783,1596981,35,Man
89,235277,DepthScenes,duration_manipulation_targetAtFixation,jsons/v1_VE1000_randls_43_rotated.json,http://54.235.29.9/FacialAge/BNav_EC2/DepthDuration/v2_depth_duration_MTurk/v2_DepthDuration_HTML.html#130,130,1152,631,1440,900,8-22-2022,8-17-6,90,depth_duration_stimuli/002509_2014-06-24_13-19-22_094959634447_rgbf000077-resize_0/002509_2014-06-24_13-19-22_094959634447_rgbf000077-resize_0-target.png,1000,1.3065,23,5722,1000,meters,jsons/v1_VE1000_randls_43_rotated.json,1394783,1596981,35,Man
90,235277,DepthScenes,duration_manipulation_targetAtFixation,jsons/v1_VE1000_randls_43_rotated.json,http://54.235.29.9/FacialAge/BNav_EC2/DepthDuration/v2_depth_duration_MTurk/v2_DepthDuration_HTML.html#130,130,1152,631,1440,900,8-22-2022,8-17-6,91,depth_duration_stimuli/001392_2014-06-19_16-07-59_260595134347_rgbf000046-resize_1/001392_2014-06-19_16-07-59_260595134347_rgbf000046-resize_1-target.png,1000,4.135,40,5226,999,meters,jsons/v1_VE1000_randls_43_rotated.json,1394783,1596981,35,Man
91,235277,DepthScenes,duration_manipulation_targetAtFixation,jsons/v1_VE1000_randls_43_rotated.json,http://54.235.29.9/FacialAge/BNav_EC2/DepthDuration/v2_depth_duration_MTurk/v2_DepthDuration_HTML.html#130,130,1152,631,1440,900,8-22-2022,8-17-6,92,depth_duration_stimuli/001570_2014-06-20_17-21-09_260595134347_rgbf000135-resize_4/001570_2014-06-20_17-21-09_260595134347_rgbf000135-resize_4-target.png,1000,4.467,48,4595,1001,meters,jsons/v1_VE1000_randls_43_rotated.json,1394783,1596981,35,Man
92,235277,DepthScenes,duration_manipulation_targetAtFixation,jsons/v1_VE1000_randls_43_rotated.json,http://54.235.29.9/FacialAge/BNav_EC2/DepthDuration/v2_depth_duration_MTurk/v2_DepthDuration_HTML.html#130,130,1152,631,1440,900,8-22-2022,8-17-6,93,depth_duration_stimuli/002209_2014-06-28_18-36-10_260595134347_rgbf000051-resize_1/002209_2014-06-28_18-36-10_260595134347_rgbf000051-resize_1-target.png,1000,2.057,25,4147,1000,meters,jsons/v1_VE1000_randls_43_rotated.json,1394783,1596981,35,Man
93,235277,DepthScenes,duration_manipulation_targetAtFixation,jsons/v1_VE1000_randls_43_rotated.json,http://54.235.29.9/FacialAge/BNav_EC2/DepthDuration/v2_depth_duration_MTurk/v2_DepthDuration_HTML.html#130,130,1152,631,1440,900,8-22-2022,8-17-6,94,depth_duration_stimuli/002763_2014-06-22_19-13-10_094959634447_rgbf000075-resize_4/002763_2014-06-22_19-13-10_094959634447_rgbf000075-resize_4-target.png,1000,1.68375,30,4513,1000,meters,jsons/v1_VE1000_randls_43_rotated.json,1394783,1596981,35,Man
94,235277,DepthScenes,duration_manipulation_targetAtFixation,jsons/v1_VE1000_randls_43_rotated.json,http://54.235.29.9/FacialAge/BNav_EC2/DepthDuration/v2_depth_duration_MTurk/v2_DepthDuration_HTML.html#130,130,1152,631,1440,900,8-22-2022,8-17-6,95,depth_duration_stimuli/001516_2014-06-20_16-25-09_260595134347_rgbf000076-resize_2/001516_2014-06-20_16-25-09_260595134347_rgbf000076-resize_2-target.png,1000,1.7445,34,6945,999,meters,jsons/v1_VE1000_randls_43_rotated.json,1394783,1596981,35,Man
95,235277,DepthScenes,duration_manipulation_targetAtFixation,jsons/v1_VE1000_randls_43_rotated.json,http://54.235.29.9/FacialAge/BNav_EC2/DepthDuration/v2_depth_duration_MTurk/v2_DepthDuration_HTML.html#130,130,1152,631,1440,900,8-22-2022,8-17-6,96,depth_duration_stimuli/002118_2014-06-25_20-32-08_260595134347_rgbf000078-resize_1/002118_2014-06-25_20-32-08_260595134347_rgbf000078-resize_1-target.png,1000,2.6460000000000004,25,5034,999,meters,jsons/v1_VE1000_randls_43_rotated.json,1394783,1596981,35,Man
96,235277,DepthScenes,duration_manipulation_targetAtFixation,jsons/v1_VE1000_randls_43_rotated.json,http://54.235.29.9/FacialAge/BNav_EC2/DepthDuration/v2_depth_duration_MTurk/v2_DepthDuration_HTML.html#130,130,1152,631,1440,900,8-22-2022,8-17-6,97,depth_duration_stimuli/001571_2014-06-20_17-21-32_260595134347_rgbf000089-resize_1/001571_2014-06-20_17-21-32_260595134347_rgbf000089-resize_1-target.png,1000,1.86,23,5858,999,meters,jsons/v1_VE1000_randls_43_rotated.json,1394783,1596981,35,Man
97,235277,DepthScenes,duration_manipulation_targetAtFixation,jsons/v1_VE1000_randls_43_rotated.json,http://54.235.29.9/FacialAge/BNav_EC2/DepthDuration/v2_depth_duration_MTurk/v2_DepthDuration_HTML.html#130,130,1152,631,1440,900,8-22-2022,8-17-6,98,depth_duration_stimuli/002272_2014-06-28_18-53-56_260595134347_rgbf000067-resize_2/002272_2014-06-28_18-53-56_260595134347_rgbf000067-resize_2-target.png,1000,1.138,20,3938,999,meters,jsons/v1_VE1000_randls_43_rotated.json,1394783,1596981,35,Man
98,235277,DepthScenes,duration_manipulation_targetAtFixation,jsons/v1_VE1000_randls_43_rotated.json,http://54.235.29.9/FacialAge/BNav_EC2/DepthDuration/v2_depth_duration_MTurk/v2_DepthDuration_HTML.html#130,130,1152,631,1440,900,8-22-2022,8-17-6,99,depth_duration_stimuli/001222_2014-06-17_16-24-06_260595134347_rgbf000073-resize_0/001222_2014-06-17_16-24-06_260595134347_rgbf000073-resize-original.jpg,1000,1.4385,0,3939,999,meters,jsons/v1_VE1000_randls_43_rotated.json,1394783,1596981,35,Man
99,235277,DepthScenes,duration_manipulation_targetAtFixation,jsons/v1_VE1000_randls_43_rotated.json,http://54.235.29.9/FacialAge/BNav_EC2/DepthDuration/v2_depth_duration_MTurk/v2_DepthDuration_HTML.html#130,130,1152,631,1440,900,8-22-2022,8-17-6,100,depth_duration_stimuli/003423_2014-05-21_10-23-26_094959634447_rgbf002665-resize_2/003423_2014-05-21_10-23-26_094959634447_rgbf002665-resize_2-target.png,1000,3.2575,25,4322,999,meters,jsons/v1_VE1000_randls_43_rotated.json,1394783,1596981,35,Man
100,235277,DepthScenes,duration_manipulation_targetAtFixation,jsons/v1_VE1000_randls_43_rotated.json,http://54.235.29.9/FacialAge/BNav_EC2/DepthDuration/v2_depth_duration_MTurk/v2_DepthDuration_HTML.html#130,130,1152,631,1440,900,8-22-2022,8-17-6,101,depth_duration_stimuli/002905_2014-06-03_18-04-43_094959634447_rgbf000151-resize_2/002905_2014-06-03_18-04-43_094959634447_rgbf000151-resize_2-target.png,1000,2.0295,25,4145,1000,meters,jsons/v1_VE1000_randls_43_rotated.json,1394783,1596981,35,Man
101,235277,DepthScenes,duration_manipulation_targetAtFixation,jsons/v1_VE1000_randls_43_rotated.json,http://54.235.29.9/FacialAge/BNav_EC2/DepthDuration/v2_depth_duration_MTurk/v2_DepthDuration_HTML.html#130,130,1152,631,1440,900,8-22-2022,8-17-6,102,depth_duration_stimuli/003129_2014-05-12_10-48-10_094959634447_rgbf000100-resize_0/003129_2014-05-12_10-48-10_094959634447_rgbf000100-resize_0-target.png,1000,4.9305,40,3626,999,meters,jsons/v1_VE1000_randls_43_rotated.json,1394783,1596981,35,Man
102,235277,DepthScenes,duration_manipulation_targetAtFixation,jsons/v1_VE1000_randls_43_rotated.json,http://54.235.29.9/FacialAge/BNav_EC2/DepthDuration/v2_depth_duration_MTurk/v2_DepthDuration_HTML.html#130,130,1152,631,1440,900,8-22-2022,8-17-6,103,depth_duration_stimuli/000414_2014-06-04_19-49-13_260595134347_rgbf000044-resize_0/000414_2014-06-04_19-49-13_260595134347_rgbf000044-resize_0-target.png,1000,4.329,45,4378,1001,meters,jsons/v1_VE1000_randls_43_rotated.json,1394783,1596981,35,Man
103,235277,DepthScenes,duration_manipulation_targetAtFixation,jsons/v1_VE1000_randls_43_rotated.json,http://54.235.29.9/FacialAge/BNav_EC2/DepthDuration/v2_depth_duration_MTurk/v2_DepthDuration_HTML.html#130,130,1152,631,1440,900,8-22-2022,8-17-6,104,depth_duration_stimuli/000691_2014-06-08_13-08-50_260595134347_rgbf000132-resize_3/000691_2014-06-08_13-08-50_260595134347_rgbf000132-resize_3-target.png,1000,4.1530000000000005,25,4787,998,meters,jsons/v1_VE1000_randls_43_rotated.json,1394783,1596981,35,Man
104,235277,DepthScenes,duration_manipulation_targetAtFixation,jsons/v1_VE1000_randls_43_rotated.json,http://54.235.29.9/FacialAge/BNav_EC2/DepthDuration/v2_depth_duration_MTurk/v2_DepthDuration_HTML.html#130,130,1152,631,1440,900,8-22-2022,8-17-6,105,depth_duration_stimuli/002213_2014-06-28_18-37-58_260595134347_rgbf000055-resize_1/002213_2014-06-28_18-37-58_260595134347_rgbf000055-resize_1-target.png,1000,3.62,44,4977,999,meters,jsons/v1_VE1000_randls_43_rotated.json,1394783,1596981,35,Man
105,235277,DepthScenes,duration_manipulation_targetAtFixation,jsons/v1_VE1000_randls_43_rotated.json,http://54.235.29.9/FacialAge/BNav_EC2/DepthDuration/v2_depth_duration_MTurk/v2_DepthDuration_HTML.html#130,130,1152,631,1440,900,8-22-2022,8-17-6,106,depth_duration_stimuli/001100_2014-06-15_17-46-26_260595134347_rgbf000225-resize_2/001100_2014-06-15_17-46-26_260595134347_rgbf000225-resize_2-target.png,1000,2.24,24,5482,1001,meters,jsons/v1_VE1000_randls_43_rotated.json,1394783,1596981,35,Man
106,235277,DepthScenes,duration_manipulation_targetAtFixation,jsons/v1_VE1000_randls_43_rotated.json,http://54.235.29.9/FacialAge/BNav_EC2/DepthDuration/v2_depth_duration_MTurk/v2_DepthDuration_HTML.html#130,130,1152,631,1440,900,8-22-2022,8-17-6,107,depth_duration_stimuli/002784_2014-06-22_19-26-30_094959634447_rgbf000083-resize_3/002784_2014-06-22_19-26-30_094959634447_rgbf000083-resize_3-target.png,1000,1.8046666666667,18,5035,1000,meters,jsons/v1_VE1000_randls_43_rotated.json,1394783,1596981,35,Man
107,235277,DepthScenes,duration_manipulation_targetAtFixation,jsons/v1_VE1000_randls_43_rotated.json,http://54.235.29.9/FacialAge/BNav_EC2/DepthDuration/v2_depth_duration_MTurk/v2_DepthDuration_HTML.html#130,130,1152,631,1440,900,8-22-2022,8-17-6,108,depth_duration_stimuli/002199_2014-06-28_18-33-56_260595134347_rgbf000074-resize_0/002199_2014-06-28_18-33-56_260595134347_rgbf000074-resize_0-target.png,1000,1.996,19,3610,1000,meters,jsons/v1_VE1000_randls_43_rotated.json,1394783,1596981,35,Man
108,235277,DepthScenes,duration_manipulation_targetAtFixation,jsons/v1_VE1000_randls_43_rotated.json,http://54.235.29.9/FacialAge/BNav_EC2/DepthDuration/v2_depth_duration_MTurk/v2_DepthDuration_HTML.html#130,130,1152,631,1440,900,8-22-2022,8-17-6,109,depth_duration_stimuli/001056_2014-06-08_18-46-44_260595134347_rgbf000068-resize_0/001056_2014-06-08_18-46-44_260595134347_rgbf000068-resize_0-target.png,1000,2.6625,30,3971,999,meters,jsons/v1_VE1000_randls_43_rotated.json,1394783,1596981,35,Man
109,235277,DepthScenes,duration_manipulation_targetAtFixation,jsons/v1_VE1000_randls_43_rotated.json,http://54.235.29.9/FacialAge/BNav_EC2/DepthDuration/v2_depth_duration_MTurk/v2_DepthDuration_HTML.html#130,130,1152,631,1440,900,8-22-2022,8-17-6,110,depth_duration_stimuli/000665_2014-06-09_20-42-35_260595134347_rgbf000110-resize_1/000665_2014-06-09_20-42-35_260595134347_rgbf000110-resize_1-target.png,1000,3.057,25,4081,1000,meters,jsons/v1_VE1000_randls_43_rotated.json,1394783,1596981,35,Man
110,235277,DepthScenes,duration_manipulation_targetAtFixation,jsons/v1_VE1000_randls_43_rotated.json,http://54.235.29.9/FacialAge/BNav_EC2/DepthDuration/v2_depth_duration_MTurk/v2_DepthDuration_HTML.html#130,130,1152,631,1440,900,8-22-2022,8-17-6,111,depth_duration_stimuli/001150_2014-06-17_15-27-34_260595134347_rgbf000108-resize_2/001150_2014-06-17_15-27-34_260595134347_rgbf000108-resize_2-target.png,1000,4.0325,45,7330,1000,meters,jsons/v1_VE1000_randls_43_rotated.json,1394783,1596981,35,Man
111,235277,DepthScenes,duration_manipulation_targetAtFixation,jsons/v1_VE1000_randls_43_rotated.json,http://54.235.29.9/FacialAge/BNav_EC2/DepthDuration/v2_depth_duration_MTurk/v2_DepthDuration_HTML.html#130,130,1152,631,1440,900,8-22-2022,8-17-6,112,depth_duration_stimuli/002660_2014-06-13_15-44-18_094959634447_rgbf001878-resize_2/002660_2014-06-13_15-44-18_094959634447_rgbf001878-resize_2-target.png,1000,3.576,33,6154,999,meters,jsons/v1_VE1000_randls_43_rotated.json,1394783,1596981,35,Man
112,235277,DepthScenes,duration_manipulation_targetAtFixation,jsons/v1_VE1000_randls_43_rotated.json,http://54.235.29.9/FacialAge/BNav_EC2/DepthDuration/v2_depth_duration_MTurk/v2_DepthDuration_HTML.html#130,130,1152,631,1440,900,8-22-2022,8-17-6,113,depth_duration_stimuli/002153_2014-06-25_21-27-18_260595134347_rgbf000038-resize_5/002153_2014-06-25_21-27-18_260595134347_rgbf000038-resize_5-target.png,1000,2.505,26,9452,1000,meters,jsons/v1_VE1000_randls_43_rotated.json,1394783,1596981,35,Man
113,235277,DepthScenes,duration_manipulation_targetAtFixation,jsons/v1_VE1000_randls_43_rotated.json,http://54.235.29.9/FacialAge/BNav_EC2/DepthDuration/v2_depth_duration_MTurk/v2_DepthDuration_HTML.html#130,130,1152,631,1440,900,8-22-2022,8-17-6,114,depth_duration_stimuli/001052_2014-06-08_18-24-54_260595134347_rgbf000130-resize_1/001052_2014-06-08_18-24-54_260595134347_rgbf000130-resize_1-target.png,1000,4.1045,45,5201,1000,meters,jsons/v1_VE1000_randls_43_rotated.json,1394783,1596981,35,Man
114,235277,DepthScenes,duration_manipulation_targetAtFixation,jsons/v1_VE1000_randls_43_rotated.json,http://54.235.29.9/FacialAge/BNav_EC2/DepthDuration/v2_depth_duration_MTurk/v2_DepthDuration_HTML.html#130,130,1152,631,1440,900,8-22-2022,8-17-6,115,depth_duration_stimuli/002988_2014-06-15_12-24-20_094959634447_rgbf000150-resize_1/002988_2014-06-15_12-24-20_094959634447_rgbf000150-resize_1-target.png,1000,4.7669999999999995,45,4930,999,meters,jsons/v1_VE1000_randls_43_rotated.json,1394783,1596981,35,Man
115,235277,DepthScenes,duration_manipulation_targetAtFixation,jsons/v1_VE1000_randls_43_rotated.json,http://54.235.29.9/FacialAge/BNav_EC2/DepthDuration/v2_depth_duration_MTurk/v2_DepthDuration_HTML.html#130,130,1152,631,1440,900,8-22-2022,8-17-6,116,depth_duration_stimuli/001447_2014-06-19_17-00-32_260595134347_rgbf000082-resize_5/001447_2014-06-19_17-00-32_260595134347_rgbf000082-resize_5-target.png,1000,4.13775,36,6602,1000,meters,jsons/v1_VE1000_randls_43_rotated.json,1394783,1596981,35,Man
116,235277,DepthScenes,duration_manipulation_targetAtFixation,jsons/v1_VE1000_randls_43_rotated.json,http://54.235.29.9/FacialAge/BNav_EC2/DepthDuration/v2_depth_duration_MTurk/v2_DepthDuration_HTML.html#130,130,1152,631,1440,900,8-22-2022,8-17-6,117,depth_duration_stimuli/000447_2014-06-08_16-15-46_260595134347_rgbf000130-resize_1/000447_2014-06-08_16-15-46_260595134347_rgbf000130-resize_1-target.png,1000,4.479,38,6012,999,meters,jsons/v1_VE1000_randls_43_rotated.json,1394783,1596981,35,Man
117,235277,DepthScenes,duration_manipulation_targetAtFixation,jsons/v1_VE1000_randls_43_rotated.json,http://54.235.29.9/FacialAge/BNav_EC2/DepthDuration/v2_depth_duration_MTurk/v2_DepthDuration_HTML.html#130,130,1152,631,1440,900,8-22-2022,8-17-6,118,depth_duration_stimuli/000709_2014-06-08_13-51-55_260595134347_rgbf000068-resize_3/000709_2014-06-08_13-51-55_260595134347_rgbf000068-resize_3-target.png,1000,1.8030000000000002,40,5082,1000,meters,jsons/v1_VE1000_randls_43_rotated.json,1394783,1596981,35,Man
118,235277,DepthScenes,duration_manipulation_targetAtFixation,jsons/v1_VE1000_randls_43_rotated.json,http://54.235.29.9/FacialAge/BNav_EC2/DepthDuration/v2_depth_duration_MTurk/v2_DepthDuration_HTML.html#130,130,1152,631,1440,900,8-22-2022,8-17-6,119,depth_duration_stimuli/002057_2014-06-24_21-00-13_260595134347_rgbf000120-resize_1/002057_2014-06-24_21-00-13_260595134347_rgbf000120-resize_1-target.png,1000,2.967,45,5377,999,meters,jsons/v1_VE1000_randls_43_rotated.json,1394783,1596981,35,Man
119,235277,DepthScenes,duration_manipulation_targetAtFixation,jsons/v1_VE1000_randls_43_rotated.json,http://54.235.29.9/FacialAge/BNav_EC2/DepthDuration/v2_depth_duration_MTurk/v2_DepthDuration_HTML.html#130,130,1152,631,1440,900,8-22-2022,8-17-6,120,depth_duration_stimuli/000787_2014-06-08_22-33-53_260595134347_rgbf000175-resize_1/000787_2014-06-08_22-33-53_260595134347_rgbf000175-resize-original.jpg,1000,4.784,0,4369,1000,meters,jsons/v1_VE1000_randls_43_rotated.json,1394783,1596981,35,Man
120,235277,DepthScenes,duration_manipulation_targetAtFixation,jsons/v1_VE1000_randls_43_rotated.json,http://54.235.29.9/FacialAge/BNav_EC2/DepthDuration/v2_depth_duration_MTurk/v2_DepthDuration_HTML.html#130,130,1152,631,1440,900,8-22-2022,8-17-6,121,depth_duration_stimuli/000780_2014-06-08_22-28-29_260595134347_rgbf000126-resize_1/000780_2014-06-08_22-28-29_260595134347_rgbf000126-resize_1-target.png,1000,3.3825,45,6139,999,meters,jsons/v1_VE1000_randls_43_rotated.json,1394783,1596981,35,Man
121,235277,DepthScenes,duration_manipulation_targetAtFixation,jsons/v1_VE1000_randls_43_rotated.json,http://54.235.29.9/FacialAge/BNav_EC2/DepthDuration/v2_depth_duration_MTurk/v2_DepthDuration_HTML.html#130,130,1152,631,1440,900,8-22-2022,8-17-6,122,depth_duration_stimuli/002445_2014-06-28_20-32-16_260595134347_rgbf000029-resize_4/002445_2014-06-28_20-32-16_260595134347_rgbf000029-resize_4-target.png,1000,2.5315,22,4570,1000,meters,jsons/v1_VE1000_randls_43_rotated.json,1394783,1596981,35,Man
122,235277,DepthScenes,duration_manipulation_targetAtFixation,jsons/v1_VE1000_randls_43_rotated.json,http://54.235.29.9/FacialAge/BNav_EC2/DepthDuration/v2_depth_duration_MTurk/v2_DepthDuration_HTML.html#130,130,1152,631,1440,900,8-22-2022,8-17-6,123,depth_duration_stimuli/002425_2014-06-28_20-27-29_260595134347_rgbf000031-resize_8/002425_2014-06-28_20-27-29_260595134347_rgbf000031-resize_8-target.png,1000,3.8960000000000004,38,5139,999,meters,jsons/v1_VE1000_randls_43_rotated.json,1394783,1596981,35,Man
123,235277,DepthScenes,duration_manipulation_targetAtFixation,jsons/v1_VE1000_randls_43_rotated.json,http://54.235.29.9/FacialAge/BNav_EC2/DepthDuration/v2_depth_duration_MTurk/v2_DepthDuration_HTML.html#130,130,1152,631,1440,900,8-22-2022,8-17-6,124,depth_duration_stimuli/000642_2014-06-08_16-59-25_260595134347_rgbf000098-resize_2/000642_2014-06-08_16-59-25_260595134347_rgbf000098-resize_2-target.png,1000,2.8815,30,4114,1000,meters,jsons/v1_VE1000_randls_43_rotated.json,1394783,1596981,35,Man
124,235277,DepthScenes,duration_manipulation_targetAtFixation,jsons/v1_VE1000_randls_43_rotated.json,http://54.235.29.9/FacialAge/BNav_EC2/DepthDuration/v2_depth_duration_MTurk/v2_DepthDuration_HTML.html#130,130,1152,631,1440,900,8-22-2022,8-17-6,125,depth_duration_stimuli/002805_2014-06-22_19-54-03_094959634447_rgbf000079-resize_1/002805_2014-06-22_19-54-03_094959634447_rgbf000079-resize_1-target.png,1000,3.1439999999999997,40,3968,999,meters,jsons/v1_VE1000_randls_43_rotated.json,1394783,1596981,35,Man
125,235277,DepthScenes,duration_manipulation_targetAtFixation,jsons/v1_VE1000_randls_43_rotated.json,http://54.235.29.9/FacialAge/BNav_EC2/DepthDuration/v2_depth_duration_MTurk/v2_DepthDuration_HTML.html#130,130,1152,631,1440,900,8-22-2022,8-17-6,126,depth_duration_stimuli/000906_2014-06-08_13-35-43_260595134347_rgbf000155-resize_1/000906_2014-06-08_13-35-43_260595134347_rgbf000155-resize_1-target.png,1000,2.8489999999999998,40,3994,1000,meters,jsons/v1_VE1000_randls_43_rotated.json,1394783,1596981,35,Man
126,235277,DepthScenes,duration_manipulation_targetAtFixation,jsons/v1_VE1000_randls_43_rotated.json,http://54.235.29.9/FacialAge/BNav_EC2/DepthDuration/v2_depth_duration_MTurk/v2_DepthDuration_HTML.html#130,130,1152,631,1440,900,8-22-2022,8-17-6,127,depth_duration_stimuli/002750_2014-06-22_19-08-03_094959634447_rgbf000094-resize_4/002750_2014-06-22_19-08-03_094959634447_rgbf000094-resize_4-target.png,1000,2.354,36,3874,999,meters,jsons/v1_VE1000_randls_43_rotated.json,1394783,1596981,35,Man
127,235277,DepthScenes,duration_manipulation_targetAtFixation,jsons/v1_VE1000_randls_43_rotated.json,http://54.235.29.9/FacialAge/BNav_EC2/DepthDuration/v2_depth_duration_MTurk/v2_DepthDuration_HTML.html#130,130,1152,631,1440,900,8-22-2022,8-17-6,128,depth_duration_stimuli/002549_2014-06-24_13-41-39_094959634447_rgbf000022-resize_3/002549_2014-06-24_13-41-39_094959634447_rgbf000022-resize_3-target.png,1000,1.476,25,4441,999,meters,jsons/v1_VE1000_randls_43_rotated.json,1394783,1596981,35,Man
128,235277,DepthScenes,duration_manipulation_targetAtFixation,jsons/v1_VE1000_randls_43_rotated.json,http://54.235.29.9/FacialAge/BNav_EC2/DepthDuration/v2_depth_duration_MTurk/v2_DepthDuration_HTML.html#130,130,1152,631,1440,900,8-22-2022,8-17-6,129,depth_duration_stimuli/000457_2014-06-08_16-52-43_260595134347_rgbf000199-resize_1/000457_2014-06-08_16-52-43_260595134347_rgbf000199-resize_1-target.png,1000,3.6489999999999996,34,4596,1003,meters,jsons/v1_VE1000_randls_43_rotated.json,1394783,1596981,35,Man
129,235277,DepthScenes,duration_manipulation_targetAtFixation,jsons/v1_VE1000_randls_43_rotated.json,http://54.235.29.9/FacialAge/BNav_EC2/DepthDuration/v2_depth_duration_MTurk/v2_DepthDuration_HTML.html#130,130,1152,631,1440,900,8-22-2022,8-17-6,130,depth_duration_stimuli/000929_2014-06-09_16-33-19_260595134347_rgbf000139-resize_0/000929_2014-06-09_16-33-19_260595134347_rgbf000139-resize_0-target.png,1000,2.8680000000000003,32,6242,999,meters,jsons/v1_VE1000_randls_43_rotated.json,1394783,1596981,35,Man
130,235277,DepthScenes,duration_manipulation_targetAtFixation,jsons/v1_VE1000_randls_43_rotated.json,http://54.235.29.9/FacialAge/BNav_EC2/DepthDuration/v2_depth_duration_MTurk/v2_DepthDuration_HTML.html#130,130,1152,631,1440,900,8-22-2022,8-17-6,131,depth_duration_stimuli/000409_2014-06-04_19-23-33_260595134347_rgbf000067-resize_0/000409_2014-06-04_19-23-33_260595134347_rgbf000067-resize_0-target.png,1000,3.7335,25,4019,1000,meters,jsons/v1_VE1000_randls_43_rotated.json,1394783,1596981,35,Man
131,235277,DepthScenes,duration_manipulation_targetAtFixation,jsons/v1_VE1000_randls_43_rotated.json,http://54.235.29.9/FacialAge/BNav_EC2/DepthDuration/v2_depth_duration_MTurk/v2_DepthDuration_HTML.html#130,130,1152,631,1440,900,8-22-2022,8-17-6,132,depth_duration_stimuli/002663_2014-06-13_15-50-26_094959634447_rgbf000075-resize_1/002663_2014-06-13_15-50-26_094959634447_rgbf000075-resize_1-target.png,1000,4.7495,45,4833,1000,meters,jsons/v1_VE1000_randls_43_rotated.json,1394783,1596981,35,Man
132,235277,DepthScenes,duration_manipulation_targetAtFixation,jsons/v1_VE1000_randls_43_rotated.json,http://54.235.29.9/FacialAge/BNav_EC2/DepthDuration/v2_depth_duration_MTurk/v2_DepthDuration_HTML.html#130,130,1152,631,1440,900,8-22-2022,8-17-6,133,depth_duration_stimuli/002953_2014-06-08_17-32-18_094959634447_rgbf000059-resize_5/002953_2014-06-08_17-32-18_094959634447_rgbf000059-resize_5-target.png,1000,1.551,20,4025,1000,meters,jsons/v1_VE1000_randls_43_rotated.json,1394783,1596981,35,Man
133,235277,DepthScenes,duration_manipulation_targetAtFixation,jsons/v1_VE1000_randls_43_rotated.json,http://54.235.29.9/FacialAge/BNav_EC2/DepthDuration/v2_depth_duration_MTurk/v2_DepthDuration_HTML.html#130,130,1152,631,1440,900,8-22-2022,8-17-6,134,depth_duration_stimuli/000878_2014-06-08_22-52-45_260595134347_rgbf000045-resize_2/000878_2014-06-08_22-52-45_260595134347_rgbf000045-resize_2-target.png,1000,2.092,40,8538,998,meters,jsons/v1_VE1000_randls_43_rotated.json,1394783,1596981,35,Man
134,235277,DepthScenes,duration_manipulation_targetAtFixation,jsons/v1_VE1000_randls_43_rotated.json,http://54.235.29.9/FacialAge/BNav_EC2/DepthDuration/v2_depth_duration_MTurk/v2_DepthDuration_HTML.html#130,130,1152,631,1440,900,8-22-2022,8-17-6,135,depth_duration_stimuli/000375_2014-06-08_11-17-29_260595134347_rgbf000133-resize_2/000375_2014-06-08_11-17-29_260595134347_rgbf000133-resize-original.jpg,1000,4.718,35,101818,999,meters,jsons/v1_VE1000_randls_43_rotated.json,1394783,1596981,35,Man
135,235277,DepthScenes,duration_manipulation_targetAtFixation,jsons/v1_VE1000_randls_43_rotated.json,http://54.235.29.9/FacialAge/BNav_EC2/DepthDuration/v2_depth_duration_MTurk/v2_DepthDuration_HTML.html#130,130,1152,631,1440,900,8-22-2022,8-17-6,136,depth_duration_stimuli/000677_2014-06-08_23-10-32_260595134347_rgbf000158-resize_6/000677_2014-06-08_23-10-32_260595134347_rgbf000158-resize_6-target.png,1000,3.556,30,3912,999,meters,jsons/v1_VE1000_randls_43_rotated.json,1394783,1596981,35,Man
136,235277,DepthScenes,duration_manipulation_targetAtFixation,jsons/v1_VE1000_randls_43_rotated.json,http://54.235.29.9/FacialAge/BNav_EC2/DepthDuration/v2_depth_duration_MTurk/v2_DepthDuration_HTML.html#130,130,1152,631,1440,900,8-22-2022,8-17-6,137,depth_duration_stimuli/001029_2014-06-08_13-17-57_260595134347_rgbf000065-resize_1/001029_2014-06-08_13-17-57_260595134347_rgbf000065-resize_1-target.png,1000,3.0835,42,3979,1000,meters,jsons/v1_VE1000_randls_43_rotated.json,1394783,1596981,35,Man
137,235277,DepthScenes,duration_manipulation_targetAtFixation,jsons/v1_VE1000_randls_43_rotated.json,http://54.235.29.9/FacialAge/BNav_EC2/DepthDuration/v2_depth_duration_MTurk/v2_DepthDuration_HTML.html#130,130,1152,631,1440,900,8-22-2022,8-17-6,138,depth_duration_stimuli/000943_2014-06-09_19-31-07_260595134347_rgbf000128-resize_1/000943_2014-06-09_19-31-07_260595134347_rgbf000128-resize_1-target.png,1000,1.9765,24,4834,1000,meters,jsons/v1_VE1000_randls_43_rotated.json,1394783,1596981,35,Man
138,235277,DepthScenes,duration_manipulation_targetAtFixation,jsons/v1_VE1000_randls_43_rotated.json,http://54.235.29.9/FacialAge/BNav_EC2/DepthDuration/v2_depth_duration_MTurk/v2_DepthDuration_HTML.html#130,130,1152,631,1440,900,8-22-2022,8-17-6,139,depth_duration_stimuli/003070_2014-06-15_14-58-27_094959634447_rgbf000150-resize_3/003070_2014-06-15_14-58-27_094959634447_rgbf000150-resize_3-target.png,1000,2.9415,27,5785,999,meters,jsons/v1_VE1000_randls_43_rotated.json,1394783,1596981,35,Man
139,235277,DepthScenes,duration_manipulation_targetAtFixation,jsons/v1_VE1000_randls_43_rotated.json,http://54.235.29.9/FacialAge/BNav_EC2/DepthDuration/v2_depth_duration_MTurk/v2_DepthDuration_HTML.html#130,130,1152,631,1440,900,8-22-2022,8-17-6,140,depth_duration_stimuli/001584_2014-06-20_11-07-43_260595134347_rgbf000002-resize_1/001584_2014-06-20_11-07-43_260595134347_rgbf000002-resize_1-target.png,1000,3.53,47,4778,1000,meters,jsons/v1_VE1000_randls_43_rotated.json,1394783,1596981,35,Man
140,235277,DepthScenes,duration_manipulation_targetAtFixation,jsons/v1_VE1000_randls_43_rotated.json,http://54.235.29.9/FacialAge/BNav_EC2/DepthDuration/v2_depth_duration_MTurk/v2_DepthDuration_HTML.html#130,130,1152,631,1440,900,8-22-2022,8-17-6,141,depth_duration_stimuli/003621_2014-05-23_18-06-08_094959634447_rgbf000101-resize_1/003621_2014-05-23_18-06-08_094959634447_rgbf000101-resize_1-target.png,1000,3.9835,46,5323,1001,meters,jsons/v1_VE1000_randls_43_rotated.json,1394783,1596981,35,Man
141,235277,DepthScenes,duration_manipulation_targetAtFixation,jsons/v1_VE1000_randls_43_rotated.json,http://54.235.29.9/FacialAge/BNav_EC2/DepthDuration/v2_depth_duration_MTurk/v2_DepthDuration_HTML.html#130,130,1152,631,1440,900,8-22-2022,8-17-6,142,depth_duration_stimuli/000734_2014-06-08_17-39-11_260595134347_rgbf000128-resize_2/000734_2014-06-08_17-39-11_260595134347_rgbf000128-resize_2-target.png,1000,4.098,47,7649,998,meters,jsons/v1_VE1000_randls_43_rotated.json,1394783,1596981,35,Man
142,235277,DepthScenes,duration_manipulation_targetAtFixation,jsons/v1_VE1000_randls_43_rotated.json,http://54.235.29.9/FacialAge/BNav_EC2/DepthDuration/v2_depth_duration_MTurk/v2_DepthDuration_HTML.html#130,130,1152,631,1440,900,8-22-2022,8-17-6,143,depth_duration_stimuli/000739_2014-06-08_18-45-58_260595134347_rgbf000068-resize_1/000739_2014-06-08_18-45-58_260595134347_rgbf000068-resize_1-target.png,1000,3.534,38,5496,999,meters,jsons/v1_VE1000_randls_43_rotated.json,1394783,1596981,35,Man
143,235277,DepthScenes,duration_manipulation_targetAtFixation,jsons/v1_VE1000_randls_43_rotated.json,http://54.235.29.9/FacialAge/BNav_EC2/DepthDuration/v2_depth_duration_MTurk/v2_DepthDuration_HTML.html#130,130,1152,631,1440,900,8-22-2022,8-17-6,144,depth_duration_stimuli/001815_2014-06-26_20-52-55_260595134347_rgbf000020-resize_0/001815_2014-06-26_20-52-55_260595134347_rgbf000020-resize_0-target.png,1000,3.3865,47,4451,999,meters,jsons/v1_VE1000_randls_43_rotated.json,1394783,1596981,35,Man
144,235277,DepthScenes,duration_manipulation_targetAtFixation,jsons/v1_VE1000_randls_43_rotated.json,http://54.235.29.9/FacialAge/BNav_EC2/DepthDuration/v2_depth_duration_MTurk/v2_DepthDuration_HTML.html#130,130,1152,631,1440,900,8-22-2022,8-17-6,145,depth_duration_stimuli/001808_2014-06-26_20-50-58_260595134347_rgbf000029-resize_1/001808_2014-06-26_20-50-58_260595134347_rgbf000029-resize_1-target.png,1000,4.249,46,4201,1000,meters,jsons/v1_VE1000_randls_43_rotated.json,1394783,1596981,35,Man
145,235277,DepthScenes,duration_manipulation_targetAtFixation,jsons/v1_VE1000_randls_43_rotated.json,http://54.235.29.9/FacialAge/BNav_EC2/DepthDuration/v2_depth_duration_MTurk/v2_DepthDuration_HTML.html#130,130,1152,631,1440,900,8-22-2022,8-17-6,146,depth_duration_stimuli/003010_2014-06-15_12-54-35_094959634447_rgbf000112-resize_0/003010_2014-06-15_12-54-35_094959634447_rgbf000112-resize_0-target.png,1000,3.1185,38,5233,1000,meters,jsons/v1_VE1000_randls_43_rotated.json,1394783,1596981,35,Man
146,235277,DepthScenes,duration_manipulation_targetAtFixation,jsons/v1_VE1000_randls_43_rotated.json,http://54.235.29.9/FacialAge/BNav_EC2/DepthDuration/v2_depth_duration_MTurk/v2_DepthDuration_HTML.html#130,130,1152,631,1440,900,8-22-2022,8-17-6,147,depth_duration_stimuli/001810_2014-06-26_20-51-35_260595134347_rgbf000040-resize_3/001810_2014-06-26_20-51-35_260595134347_rgbf000040-resize_3-target.png,1000,2.2525,34,7107,999,meters,jsons/v1_VE1000_randls_43_rotated.json,1394783,1596981,35,Man
147,235277,DepthScenes,duration_manipulation_targetAtFixation,jsons/v1_VE1000_randls_43_rotated.json,http://54.235.29.9/FacialAge/BNav_EC2/DepthDuration/v2_depth_duration_MTurk/v2_DepthDuration_HTML.html#130,130,1152,631,1440,900,8-22-2022,8-17-6,148,depth_duration_stimuli/000109_2014-05-14_23-41-52_260595134347_rgbf000035-resize_9/000109_2014-05-14_23-41-52_260595134347_rgbf000035-resize_9-target.png,1000,1.3545,20,5298,1001,meters,jsons/v1_VE1000_randls_43_rotated.json,1394783,1596981,35,Man
148,235277,DepthScenes,duration_manipulation_targetAtFixation,jsons/v1_VE1000_randls_43_rotated.json,http://54.235.29.9/FacialAge/BNav_EC2/DepthDuration/v2_depth_duration_MTurk/v2_DepthDuration_HTML.html#130,130,1152,631,1440,900,8-22-2022,8-17-6,149,depth_duration_stimuli/000470_2014-06-09_19-42-40_260595134347_rgbf000094-resize_1/000470_2014-06-09_19-42-40_260595134347_rgbf000094-resize_1-target.png,1000,1.831,25,4347,1001,meters,jsons/v1_VE1000_randls_43_rotated.json,1394783,1596981,35,Man
149,235277,DepthScenes,duration_manipulation_targetAtFixation,jsons/v1_VE1000_randls_43_rotated.json,http://54.235.29.9/FacialAge/BNav_EC2/DepthDuration/v2_depth_duration_MTurk/v2_DepthDuration_HTML.html#130,130,1152,631,1440,900,8-22-2022,8-17-6,150,depth_duration_stimuli/002995_2014-06-15_12-31-26_094959634447_rgbf000150-resize_1/002995_2014-06-15_12-31-26_094959634447_rgbf000150-resize_1-target.png,1000,3.8360000000000003,42,4706,1000,meters,jsons/v1_VE1000_randls_43_rotated.json,1394783,1596981,35,Man
150,235277,DepthScenes,duration_manipulation_targetAtFixation,jsons/v1_VE1000_randls_43_rotated.json,http://54.235.29.9/FacialAge/BNav_EC2/DepthDuration/v2_depth_duration_MTurk/v2_DepthDuration_HTML.html#130,130,1152,631,1440,900,8-22-2022,8-17-6,151,depth_duration_stimuli/002748_2014-06-22_19-07-22_094959634447_rgbf000078-resize_1/002748_2014-06-22_19-07-22_094959634447_rgbf000078-resize_1-target.png,1000,4.6705,48,4490,999,meters,jsons/v1_VE1000_randls_43_rotated.json,1394783,1596981,35,Man
151,235277,DepthScenes,duration_manipulation_targetAtFixation,jsons/v1_VE1000_randls_43_rotated.json,http://54.235.29.9/FacialAge/BNav_EC2/DepthDuration/v2_depth_duration_MTurk/v2_DepthDuration_HTML.html#130,130,1152,631,1440,900,8-22-2022,8-17-6,152,depth_duration_stimuli/000569_2014-06-09_22-51-47_260595134347_rgbf000141-resize_3/000569_2014-06-09_22-51-47_260595134347_rgbf000141-resize-original.jpg,1000,4.512,0,3786,999,meters,jsons/v1_VE1000_randls_43_rotated.json,1394783,1596981,35,Man
152,235277,DepthScenes,duration_manipulation_targetAtFixation,jsons/v1_VE1000_randls_43_rotated.json,http://54.235.29.9/FacialAge/BNav_EC2/DepthDuration/v2_depth_duration_MTurk/v2_DepthDuration_HTML.html#130,130,1152,631,1440,900,8-22-2022,8-17-6,153,depth_duration_stimuli/003587_2014-05-23_16-48-02_094959634447_rgbf002384-resize_2/003587_2014-05-23_16-48-02_094959634447_rgbf002384-resize_2-target.png,1000,1.357,16,5929,1000,meters,jsons/v1_VE1000_randls_43_rotated.json,1394783,1596981,35,Man
153,235277,DepthScenes,duration_manipulation_targetAtFixation,jsons/v1_VE1000_randls_43_rotated.json,http://54.235.29.9/FacialAge/BNav_EC2/DepthDuration/v2_depth_duration_MTurk/v2_DepthDuration_HTML.html#130,130,1152,631,1440,900,8-22-2022,8-17-6,154,depth_duration_stimuli/001167_2014-06-17_15-38-07_260595134347_rgbf000108-resize_0/001167_2014-06-17_15-38-07_260595134347_rgbf000108-resize_0-target.png,1000,1.8505,22,3810,999,meters,jsons/v1_VE1000_randls_43_rotated.json,1394783,1596981,35,Man
154,235277,DepthScenes,duration_manipulation_targetAtFixation,jsons/v1_VE1000_randls_43_rotated.json,http://54.235.29.9/FacialAge/BNav_EC2/DepthDuration/v2_depth_duration_MTurk/v2_DepthDuration_HTML.html#130,130,1152,631,1440,900,8-22-2022,8-17-6,155,depth_duration_stimuli/002639_2014-06-24_14-51-37_094959634447_rgbf000074-resize_4/002639_2014-06-24_14-51-37_094959634447_rgbf000074-resize_4-target.png,1000,4.0375,40,3578,1000,meters,jsons/v1_VE1000_randls_43_rotated.json,1394783,1596981,35,Man
155,235277,DepthScenes,duration_manipulation_targetAtFixation,jsons/v1_VE1000_randls_43_rotated.json,http://54.235.29.9/FacialAge/BNav_EC2/DepthDuration/v2_depth_duration_MTurk/v2_DepthDuration_HTML.html#130,130,1152,631,1440,900,8-22-2022,8-17-6,156,depth_duration_stimuli/003292_2014-05-14_21-53-49_094959634447_rgbf000100-resize_2/003292_2014-05-14_21-53-49_094959634447_rgbf000100-resize_2-target.png,1000,3.4815,30,6594,1000,meters,jsons/v1_VE1000_randls_43_rotated.json,1394783,1596981,35,Man
156,235277,DepthScenes,duration_manipulation_targetAtFixation,jsons/v1_VE1000_randls_43_rotated.json,http://54.235.29.9/FacialAge/BNav_EC2/DepthDuration/v2_depth_duration_MTurk/v2_DepthDuration_HTML.html#130,130,1152,631,1440,900,8-22-2022,8-17-6,157,depth_duration_stimuli/002414_2014-06-28_20-24-58_260595134347_rgbf000067-resize_4/002414_2014-06-28_20-24-58_260595134347_rgbf000067-resize_4-target.png,1000,4.363,34,4074,999,meters,jsons/v1_VE1000_randls_43_rotated.json,1394783,1596981,35,Man
157,235277,DepthScenes,duration_manipulation_targetAtFixation,jsons/v1_VE1000_randls_43_rotated.json,http://54.235.29.9/FacialAge/BNav_EC2/DepthDuration/v2_depth_duration_MTurk/v2_DepthDuration_HTML.html#130,130,1152,631,1440,900,8-22-2022,8-17-6,158,depth_duration_stimuli/000773_2014-06-08_22-24-54_260595134347_rgbf000093-resize_1/000773_2014-06-08_22-24-54_260595134347_rgbf000093-resize_1-target.png,1000,4.973,36,8754,1000,meters,jsons/v1_VE1000_randls_43_rotated.json,1394783,1596981,35,Man
158,235277,DepthScenes,duration_manipulation_targetAtFixation,jsons/v1_VE1000_randls_43_rotated.json,http://54.235.29.9/FacialAge/BNav_EC2/DepthDuration/v2_depth_duration_MTurk/v2_DepthDuration_HTML.html#130,130,1152,631,1440,900,8-22-2022,8-17-6,159,depth_duration_stimuli/000549_2014-06-08_22-10-24_260595134347_rgbf000247-resize_3/000549_2014-06-08_22-10-24_260595134347_rgbf000247-resize_3-target.png,1000,1.841,22,7562,998,meters,jsons/v1_VE1000_randls_43_rotated.json,1394783,1596981,35,Man
159,235277,DepthScenes,duration_manipulation_targetAtFixation,jsons/v1_VE1000_randls_43_rotated.json,http://54.235.29.9/FacialAge/BNav_EC2/DepthDuration/v2_depth_duration_MTurk/v2_DepthDuration_HTML.html#130,130,1152,631,1440,900,8-22-2022,8-17-6,160,depth_duration_stimuli/001055_2014-06-08_18-45-35_260595134347_rgbf000111-resize_4/001055_2014-06-08_18-45-35_260595134347_rgbf000111-resize_4-target.png,1000,2.4290000000000003,47,5313,1000,meters,jsons/v1_VE1000_randls_43_rotated.json,1394783,1596981,35,Man
160,235277,DepthScenes,duration_manipulation_targetAtFixation,jsons/v1_VE1000_randls_43_rotated.json,http://54.235.29.9/FacialAge/BNav_EC2/DepthDuration/v2_depth_duration_MTurk/v2_DepthDuration_HTML.html#130,130,1152,631,1440,900,8-22-2022,8-17-6,161,depth_duration_stimuli/002678_2014-06-13_16-15-32_094959634447_rgbf000151-resize_6/002678_2014-06-13_16-15-32_094959634447_rgbf000151-resize_6-target.png,1000,2.1830000000000003,40,4147,999,meters,jsons/v1_VE1000_randls_43_rotated.json,1394783,1596981,35,Man
161,235277,DepthScenes,duration_manipulation_targetAtFixation,jsons/v1_VE1000_randls_43_rotated.json,http://54.235.29.9/FacialAge/BNav_EC2/DepthDuration/v2_depth_duration_MTurk/v2_DepthDuration_HTML.html#130,130,1152,631,1440,900,8-22-2022,8-17-6,162,depth_duration_stimuli/000368_2014-06-09_15-53-01_260595134347_rgbf000155-resize_2/000368_2014-06-09_15-53-01_260595134347_rgbf000155-resize_2-target.png,1000,2.4859999999999998,23,6161,999,meters,jsons/v1_VE1000_randls_43_rotated.json,1394783,1596981,35,Man
162,235277,DepthScenes,duration_manipulation_targetAtFixation,jsons/v1_VE1000_randls_43_rotated.json,http://54.235.29.9/FacialAge/BNav_EC2/DepthDuration/v2_depth_duration_MTurk/v2_DepthDuration_HTML.html#130,130,1152,631,1440,900,8-22-2022,8-17-6,163,depth_duration_stimuli/002545_2014-06-24_13-38-53_094959634447_rgbf000080-resize_4/002545_2014-06-24_13-38-53_094959634447_rgbf000080-resize_4-target.png,1000,1.9205,37,5697,999,meters,jsons/v1_VE1000_randls_43_rotated.json,1394783,1596981,35,Man
163,235277,DepthScenes,duration_manipulation_targetAtFixation,jsons/v1_VE1000_randls_43_rotated.json,http://54.235.29.9/FacialAge/BNav_EC2/DepthDuration/v2_depth_duration_MTurk/v2_DepthDuration_HTML.html#130,130,1152,631,1440,900,8-22-2022,8-17-6,164,depth_duration_stimuli/001092_2014-06-15_17-34-58_260595134347_rgbf000171-resize_3/001092_2014-06-15_17-34-58_260595134347_rgbf000171-resize_3-target.png,1000,2.6935,25,9435,999,meters,jsons/v1_VE1000_randls_43_rotated.json,1394783,1596981,35,Man
