,subjID,experimentName,versionName,sequenceName,url,selected_row,windowWidth,windowHeight,screenWidth,screenHeight,startDate,startTime,trial,stimulus,duration,actual_depth,depth_estimate,trial_RT,log_sceneDuration,unitSelection,seq_filepath,experimentTime,totalTime,age,gender
0,235866,DepthScenes,duration_manipulation_targetAtFixation,jsons/v1_VE1000_randls_42_rotated.json,http://54.235.29.9/FacialAge/BNav_EC2/DepthDuration/v2_depth_duration_MTurk/v2_DepthDuration_HTML.html#92,92,1280,1024,1280,1024,8-22-2022,5-42-9,1,depth_duration_stimuli/002199_2014-06-28_18-33-56_260595134347_rgbf000074-resize_0/002199_2014-06-28_18-33-56_260595134347_rgbf000074-resize_0-target.png,1000,1.996,2,5346,1000,meters,jsons/v1_VE1000_randls_42_rotated.json,1310105,1597247,33,Woman
1,235866,DepthScenes,duration_manipulation_targetAtFixation,jsons/v1_VE1000_randls_42_rotated.json,http://54.235.29.9/FacialAge/BNav_EC2/DepthDuration/v2_depth_duration_MTurk/v2_DepthDuration_HTML.html#92,92,1280,1024,1280,1024,8-22-2022,5-42-9,2,depth_duration_stimuli/001056_2014-06-08_18-46-44_260595134347_rgbf000068-resize_0/001056_2014-06-08_18-46-44_260595134347_rgbf000068-resize_0-target.png,1000,2.6625,1,9682,999,meters,jsons/v1_VE1000_randls_42_rotated.json,1310105,1597247,33,Woman
2,235866,DepthScenes,duration_manipulation_targetAtFixation,jsons/v1_VE1000_randls_42_rotated.json,http://54.235.29.9/FacialAge/BNav_EC2/DepthDuration/v2_depth_duration_MTurk/v2_DepthDuration_HTML.html#92,92,1280,1024,1280,1024,8-22-2022,5-42-9,3,depth_duration_stimuli/003010_2014-06-15_12-54-35_094959634447_rgbf000112-resize_0/003010_2014-06-15_12-54-35_094959634447_rgbf000112-resize_0-target.png,1000,3.1185,2,5997,1000,meters,jsons/v1_VE1000_randls_42_rotated.json,1310105,1597247,33,Woman
3,235866,DepthScenes,duration_manipulation_targetAtFixation,jsons/v1_VE1000_randls_42_rotated.json,http://54.235.29.9/FacialAge/BNav_EC2/DepthDuration/v2_depth_duration_MTurk/v2_DepthDuration_HTML.html#92,92,1280,1024,1280,1024,8-22-2022,5-42-9,4,depth_duration_stimuli/001810_2014-06-26_20-51-35_260595134347_rgbf000040-resize_3/001810_2014-06-26_20-51-35_260595134347_rgbf000040-resize_3-target.png,1000,2.2525,2,6706,1001,meters,jsons/v1_VE1000_randls_42_rotated.json,1310105,1597247,33,Woman
4,235866,DepthScenes,duration_manipulation_targetAtFixation,jsons/v1_VE1000_randls_42_rotated.json,http://54.235.29.9/FacialAge/BNav_EC2/DepthDuration/v2_depth_duration_MTurk/v2_DepthDuration_HTML.html#92,92,1280,1024,1280,1024,8-22-2022,5-42-9,5,depth_duration_stimuli/000780_2014-06-08_22-28-29_260595134347_rgbf000126-resize_1/000780_2014-06-08_22-28-29_260595134347_rgbf000126-resize_1-target.png,1000,3.3825,2,7573,998,meters,jsons/v1_VE1000_randls_42_rotated.json,1310105,1597247,33,Woman
5,235866,DepthScenes,duration_manipulation_targetAtFixation,jsons/v1_VE1000_randls_42_rotated.json,http://54.235.29.9/FacialAge/BNav_EC2/DepthDuration/v2_depth_duration_MTurk/v2_DepthDuration_HTML.html#92,92,1280,1024,1280,1024,8-22-2022,5-42-9,6,depth_duration_stimuli/002445_2014-06-28_20-32-16_260595134347_rgbf000029-resize_4/002445_2014-06-28_20-32-16_260595134347_rgbf000029-resize_4-target.png,1000,2.5315,2,6448,1000,meters,jsons/v1_VE1000_randls_42_rotated.json,1310105,1597247,33,Woman
6,235866,DepthScenes,duration_manipulation_targetAtFixation,jsons/v1_VE1000_randls_42_rotated.json,http://54.235.29.9/FacialAge/BNav_EC2/DepthDuration/v2_depth_duration_MTurk/v2_DepthDuration_HTML.html#92,92,1280,1024,1280,1024,8-22-2022,5-42-9,7,depth_duration_stimuli/001100_2014-06-15_17-46-26_260595134347_rgbf000225-resize_2/001100_2014-06-15_17-46-26_260595134347_rgbf000225-resize_2-target.png,1000,2.24,2,6988,998,meters,jsons/v1_VE1000_randls_42_rotated.json,1310105,1597247,33,Woman
7,235866,DepthScenes,duration_manipulation_targetAtFixation,jsons/v1_VE1000_randls_42_rotated.json,http://54.235.29.9/FacialAge/BNav_EC2/DepthDuration/v2_depth_duration_MTurk/v2_DepthDuration_HTML.html#92,92,1280,1024,1280,1024,8-22-2022,5-42-9,8,depth_duration_stimuli/002784_2014-06-22_19-26-30_094959634447_rgbf000083-resize_3/002784_2014-06-22_19-26-30_094959634447_rgbf000083-resize_3-target.png,1000,1.8046666666667,2,7867,1000,meters,jsons/v1_VE1000_randls_42_rotated.json,1310105,1597247,33,Woman
8,235866,DepthScenes,duration_manipulation_targetAtFixation,jsons/v1_VE1000_randls_42_rotated.json,http://54.235.29.9/FacialAge/BNav_EC2/DepthDuration/v2_depth_duration_MTurk/v2_DepthDuration_HTML.html#92,92,1280,1024,1280,1024,8-22-2022,5-42-9,9,depth_duration_stimuli/001235_2014-06-17_16-37-36_260595134347_rgbf000084-resize_4/001235_2014-06-17_16-37-36_260595134347_rgbf000084-resize_4-target.png,1000,3.6605,2,12692,1000,meters,jsons/v1_VE1000_randls_42_rotated.json,1310105,1597247,33,Woman
9,235866,DepthScenes,duration_manipulation_targetAtFixation,jsons/v1_VE1000_randls_42_rotated.json,http://54.235.29.9/FacialAge/BNav_EC2/DepthDuration/v2_depth_duration_MTurk/v2_DepthDuration_HTML.html#92,92,1280,1024,1280,1024,8-22-2022,5-42-9,10,depth_duration_stimuli/000788_2014-06-08_22-34-36_260595134347_rgbf000131-resize_1/000788_2014-06-08_22-34-36_260595134347_rgbf000131-resize_1-target.png,1000,3.359,2,10140,999,meters,jsons/v1_VE1000_randls_42_rotated.json,1310105,1597247,33,Woman
10,235866,DepthScenes,duration_manipulation_targetAtFixation,jsons/v1_VE1000_randls_42_rotated.json,http://54.235.29.9/FacialAge/BNav_EC2/DepthDuration/v2_depth_duration_MTurk/v2_DepthDuration_HTML.html#92,92,1280,1024,1280,1024,8-22-2022,5-42-9,11,depth_duration_stimuli/002639_2014-06-24_14-51-37_094959634447_rgbf000074-resize_4/002639_2014-06-24_14-51-37_094959634447_rgbf000074-resize_4-target.png,1000,4.0375,2,5561,1000,meters,jsons/v1_VE1000_randls_42_rotated.json,1310105,1597247,33,Woman
11,235866,DepthScenes,duration_manipulation_targetAtFixation,jsons/v1_VE1000_randls_42_rotated.json,http://54.235.29.9/FacialAge/BNav_EC2/DepthDuration/v2_depth_duration_MTurk/v2_DepthDuration_HTML.html#92,92,1280,1024,1280,1024,8-22-2022,5-42-9,12,depth_duration_stimuli/003292_2014-05-14_21-53-49_094959634447_rgbf000100-resize_2/003292_2014-05-14_21-53-49_094959634447_rgbf000100-resize_2-target.png,1000,3.4815,2,10035,1000,meters,jsons/v1_VE1000_randls_42_rotated.json,1310105,1597247,33,Woman
12,235866,DepthScenes,duration_manipulation_targetAtFixation,jsons/v1_VE1000_randls_42_rotated.json,http://54.235.29.9/FacialAge/BNav_EC2/DepthDuration/v2_depth_duration_MTurk/v2_DepthDuration_HTML.html#92,92,1280,1024,1280,1024,8-22-2022,5-42-9,13,depth_duration_stimuli/001052_2014-06-08_18-24-54_260595134347_rgbf000130-resize_1/001052_2014-06-08_18-24-54_260595134347_rgbf000130-resize_1-target.png,1000,4.1045,2,8868,1012,meters,jsons/v1_VE1000_randls_42_rotated.json,1310105,1597247,33,Woman
13,235866,DepthScenes,duration_manipulation_targetAtFixation,jsons/v1_VE1000_randls_42_rotated.json,http://54.235.29.9/FacialAge/BNav_EC2/DepthDuration/v2_depth_duration_MTurk/v2_DepthDuration_HTML.html#92,92,1280,1024,1280,1024,8-22-2022,5-42-9,14,depth_duration_stimuli/002988_2014-06-15_12-24-20_094959634447_rgbf000150-resize_1/002988_2014-06-15_12-24-20_094959634447_rgbf000150-resize_1-target.png,1000,4.7669999999999995,2,12582,1000,meters,jsons/v1_VE1000_randls_42_rotated.json,1310105,1597247,33,Woman
14,235866,DepthScenes,duration_manipulation_targetAtFixation,jsons/v1_VE1000_randls_42_rotated.json,http://54.235.29.9/FacialAge/BNav_EC2/DepthDuration/v2_depth_duration_MTurk/v2_DepthDuration_HTML.html#92,92,1280,1024,1280,1024,8-22-2022,5-42-9,15,depth_duration_stimuli/000137_2014-05-20_17-04-49_260595134347_rgbf000120-resize_1/000137_2014-05-20_17-04-49_260595134347_rgbf000120-resize_1-target.png,1000,3.786,1,5885,1001,meters,jsons/v1_VE1000_randls_42_rotated.json,1310105,1597247,33,Woman
15,235866,DepthScenes,duration_manipulation_targetAtFixation,jsons/v1_VE1000_randls_42_rotated.json,http://54.235.29.9/FacialAge/BNav_EC2/DepthDuration/v2_depth_duration_MTurk/v2_DepthDuration_HTML.html#92,92,1280,1024,1280,1024,8-22-2022,5-42-9,16,depth_duration_stimuli/000736_2014-06-08_18-24-15_260595134347_rgbf000206-resize_3/000736_2014-06-08_18-24-15_260595134347_rgbf000206-resize_3-target.png,1000,3.515,2,6043,1001,meters,jsons/v1_VE1000_randls_42_rotated.json,1310105,1597247,33,Woman
16,235866,DepthScenes,duration_manipulation_targetAtFixation,jsons/v1_VE1000_randls_42_rotated.json,http://54.235.29.9/FacialAge/BNav_EC2/DepthDuration/v2_depth_duration_MTurk/v2_DepthDuration_HTML.html#92,92,1280,1024,1280,1024,8-22-2022,5-42-9,17,depth_duration_stimuli/002805_2014-06-22_19-54-03_094959634447_rgbf000079-resize_1/002805_2014-06-22_19-54-03_094959634447_rgbf000079-resize_1-target.png,1000,3.1439999999999997,2,6103,1000,meters,jsons/v1_VE1000_randls_42_rotated.json,1310105,1597247,33,Woman
17,235866,DepthScenes,duration_manipulation_targetAtFixation,jsons/v1_VE1000_randls_42_rotated.json,http://54.235.29.9/FacialAge/BNav_EC2/DepthDuration/v2_depth_duration_MTurk/v2_DepthDuration_HTML.html#92,92,1280,1024,1280,1024,8-22-2022,5-42-9,18,depth_duration_stimuli/000906_2014-06-08_13-35-43_260595134347_rgbf000155-resize_1/000906_2014-06-08_13-35-43_260595134347_rgbf000155-resize_1-target.png,1000,2.8489999999999998,2,7175,999,meters,jsons/v1_VE1000_randls_42_rotated.json,1310105,1597247,33,Woman
18,235866,DepthScenes,duration_manipulation_targetAtFixation,jsons/v1_VE1000_randls_42_rotated.json,http://54.235.29.9/FacialAge/BNav_EC2/DepthDuration/v2_depth_duration_MTurk/v2_DepthDuration_HTML.html#92,92,1280,1024,1280,1024,8-22-2022,5-42-9,19,depth_duration_stimuli/001498_2014-06-19_17-45-14_260595134347_rgbf000129-resize_4/001498_2014-06-19_17-45-14_260595134347_rgbf000129-resize-original.jpg,1000,1.4075,2,6069,1012,meters,jsons/v1_VE1000_randls_42_rotated.json,1310105,1597247,33,Woman
19,235866,DepthScenes,duration_manipulation_targetAtFixation,jsons/v1_VE1000_randls_42_rotated.json,http://54.235.29.9/FacialAge/BNav_EC2/DepthDuration/v2_depth_duration_MTurk/v2_DepthDuration_HTML.html#92,92,1280,1024,1280,1024,8-22-2022,5-42-9,20,depth_duration_stimuli/001828_2014-06-26_21-40-03_260595134347_rgbf000024-resize_0/001828_2014-06-26_21-40-03_260595134347_rgbf000024-resize_0-target.png,1000,4.8260000000000005,3,7536,1001,meters,jsons/v1_VE1000_randls_42_rotated.json,1310105,1597247,33,Woman
20,235866,DepthScenes,duration_manipulation_targetAtFixation,jsons/v1_VE1000_randls_42_rotated.json,http://54.235.29.9/FacialAge/BNav_EC2/DepthDuration/v2_depth_duration_MTurk/v2_DepthDuration_HTML.html#92,92,1280,1024,1280,1024,8-22-2022,5-42-9,21,depth_duration_stimuli/000009_2014-05-26_14-32-05_260595134347_rgbf000034-resize_3/000009_2014-05-26_14-32-05_260595134347_rgbf000034-resize_3-target.png,1000,3.8715,2,11400,990,meters,jsons/v1_VE1000_randls_42_rotated.json,1310105,1597247,33,Woman
21,235866,DepthScenes,duration_manipulation_targetAtFixation,jsons/v1_VE1000_randls_42_rotated.json,http://54.235.29.9/FacialAge/BNav_EC2/DepthDuration/v2_depth_duration_MTurk/v2_DepthDuration_HTML.html#92,92,1280,1024,1280,1024,8-22-2022,5-42-9,22,depth_duration_stimuli/001516_2014-06-20_16-25-09_260595134347_rgbf000076-resize_2/001516_2014-06-20_16-25-09_260595134347_rgbf000076-resize_2-target.png,1000,1.7445,2,7733,999,meters,jsons/v1_VE1000_randls_42_rotated.json,1310105,1597247,33,Woman
22,235866,DepthScenes,duration_manipulation_targetAtFixation,jsons/v1_VE1000_randls_42_rotated.json,http://54.235.29.9/FacialAge/BNav_EC2/DepthDuration/v2_depth_duration_MTurk/v2_DepthDuration_HTML.html#92,92,1280,1024,1280,1024,8-22-2022,5-42-9,23,depth_duration_stimuli/002118_2014-06-25_20-32-08_260595134347_rgbf000078-resize_1/002118_2014-06-25_20-32-08_260595134347_rgbf000078-resize_1-target.png,1000,2.6460000000000004,2,7106,1000,meters,jsons/v1_VE1000_randls_42_rotated.json,1310105,1597247,33,Woman
23,235866,DepthScenes,duration_manipulation_targetAtFixation,jsons/v1_VE1000_randls_42_rotated.json,http://54.235.29.9/FacialAge/BNav_EC2/DepthDuration/v2_depth_duration_MTurk/v2_DepthDuration_HTML.html#92,92,1280,1024,1280,1024,8-22-2022,5-42-9,24,depth_duration_stimuli/002875_2014-06-01_15-19-00_094959634447_rgbf000151-resize_1/002875_2014-06-01_15-19-00_094959634447_rgbf000151-resize_1-target.png,1000,1.9675,2,7506,1000,meters,jsons/v1_VE1000_randls_42_rotated.json,1310105,1597247,33,Woman
24,235866,DepthScenes,duration_manipulation_targetAtFixation,jsons/v1_VE1000_randls_42_rotated.json,http://54.235.29.9/FacialAge/BNav_EC2/DepthDuration/v2_depth_duration_MTurk/v2_DepthDuration_HTML.html#92,92,1280,1024,1280,1024,8-22-2022,5-42-9,25,depth_duration_stimuli/001011_2014-06-08_23-18-54_260595134347_rgbf000044-resize_4/001011_2014-06-08_23-18-54_260595134347_rgbf000044-resize_4-target.png,1000,2.4730000000000003,2,10648,995,meters,jsons/v1_VE1000_randls_42_rotated.json,1310105,1597247,33,Woman
25,235866,DepthScenes,duration_manipulation_targetAtFixation,jsons/v1_VE1000_randls_42_rotated.json,http://54.235.29.9/FacialAge/BNav_EC2/DepthDuration/v2_depth_duration_MTurk/v2_DepthDuration_HTML.html#92,92,1280,1024,1280,1024,8-22-2022,5-42-9,26,depth_duration_stimuli/002568_2014-06-24_13-59-21_094959634447_rgbf000062-resize_4/002568_2014-06-24_13-59-21_094959634447_rgbf000062-resize_4-target.png,1000,3.015,2,7757,999,meters,jsons/v1_VE1000_randls_42_rotated.json,1310105,1597247,33,Woman
26,235866,DepthScenes,duration_manipulation_targetAtFixation,jsons/v1_VE1000_randls_42_rotated.json,http://54.235.29.9/FacialAge/BNav_EC2/DepthDuration/v2_depth_duration_MTurk/v2_DepthDuration_HTML.html#92,92,1280,1024,1280,1024,8-22-2022,5-42-9,27,depth_duration_stimuli/003492_2014-05-21_15-50-55_094959634447_rgbf000828-resize_1/003492_2014-05-21_15-50-55_094959634447_rgbf000828-resize_1-target.png,1000,4.06875,2,5625,999,meters,jsons/v1_VE1000_randls_42_rotated.json,1310105,1597247,33,Woman
27,235866,DepthScenes,duration_manipulation_targetAtFixation,jsons/v1_VE1000_randls_42_rotated.json,http://54.235.29.9/FacialAge/BNav_EC2/DepthDuration/v2_depth_duration_MTurk/v2_DepthDuration_HTML.html#92,92,1280,1024,1280,1024,8-22-2022,5-42-9,28,depth_duration_stimuli/000502_2014-06-08_23-02-32_260595134347_rgbf000063-resize_4/000502_2014-06-08_23-02-32_260595134347_rgbf000063-resize_4-target.png,1000,2.431,2,5308,999,meters,jsons/v1_VE1000_randls_42_rotated.json,1310105,1597247,33,Woman
28,235866,DepthScenes,duration_manipulation_targetAtFixation,jsons/v1_VE1000_randls_42_rotated.json,http://54.235.29.9/FacialAge/BNav_EC2/DepthDuration/v2_depth_duration_MTurk/v2_DepthDuration_HTML.html#92,92,1280,1024,1280,1024,8-22-2022,5-42-9,29,depth_duration_stimuli/001199_2014-06-17_16-03-48_260595134347_rgbf000077-resize_0/001199_2014-06-17_16-03-48_260595134347_rgbf000077-resize_0-target.png,1000,3.4375,2,9049,1001,meters,jsons/v1_VE1000_randls_42_rotated.json,1310105,1597247,33,Woman
29,235866,DepthScenes,duration_manipulation_targetAtFixation,jsons/v1_VE1000_randls_42_rotated.json,http://54.235.29.9/FacialAge/BNav_EC2/DepthDuration/v2_depth_duration_MTurk/v2_DepthDuration_HTML.html#92,92,1280,1024,1280,1024,8-22-2022,5-42-9,30,depth_duration_stimuli/002072_2014-06-24_21-48-06_260595134347_rgbf000115-resize_0/002072_2014-06-24_21-48-06_260595134347_rgbf000115-resize-original.jpg,1000,4.702,2,7310,1000,meters,jsons/v1_VE1000_randls_42_rotated.json,1310105,1597247,33,Woman
30,235866,DepthScenes,duration_manipulation_targetAtFixation,jsons/v1_VE1000_randls_42_rotated.json,http://54.235.29.9/FacialAge/BNav_EC2/DepthDuration/v2_depth_duration_MTurk/v2_DepthDuration_HTML.html#92,92,1280,1024,1280,1024,8-22-2022,5-42-9,31,depth_duration_stimuli/001617_2014-06-20_11-35-32_260595134347_rgbf000066-resize_1/001617_2014-06-20_11-35-32_260595134347_rgbf000066-resize_1-target.png,1000,3.7910000000000004,2,7391,1000,meters,jsons/v1_VE1000_randls_42_rotated.json,1310105,1597247,33,Woman
31,235866,DepthScenes,duration_manipulation_targetAtFixation,jsons/v1_VE1000_randls_42_rotated.json,http://54.235.29.9/FacialAge/BNav_EC2/DepthDuration/v2_depth_duration_MTurk/v2_DepthDuration_HTML.html#92,92,1280,1024,1280,1024,8-22-2022,5-42-9,32,depth_duration_stimuli/001806_2014-06-26_20-50-20_260595134347_rgbf000091-resize_1/001806_2014-06-26_20-50-20_260595134347_rgbf000091-resize_1-target.png,1000,2.7305,2,6037,1001,meters,jsons/v1_VE1000_randls_42_rotated.json,1310105,1597247,33,Woman
32,235866,DepthScenes,duration_manipulation_targetAtFixation,jsons/v1_VE1000_randls_42_rotated.json,http://54.235.29.9/FacialAge/BNav_EC2/DepthDuration/v2_depth_duration_MTurk/v2_DepthDuration_HTML.html#92,92,1280,1024,1280,1024,8-22-2022,5-42-9,33,depth_duration_stimuli/002323_2014-06-28_20-01-54_260595134347_rgbf000051-resize_4/002323_2014-06-28_20-01-54_260595134347_rgbf000051-resize_4-target.png,1000,3.7310000000000003,2,6005,1001,meters,jsons/v1_VE1000_randls_42_rotated.json,1310105,1597247,33,Woman
33,235866,DepthScenes,duration_manipulation_targetAtFixation,jsons/v1_VE1000_randls_42_rotated.json,http://54.235.29.9/FacialAge/BNav_EC2/DepthDuration/v2_depth_duration_MTurk/v2_DepthDuration_HTML.html#92,92,1280,1024,1280,1024,8-22-2022,5-42-9,34,depth_duration_stimuli/000917_2014-06-09_22-45-29_260595134347_rgbf000149-resize_3/000917_2014-06-09_22-45-29_260595134347_rgbf000149-resize_3-target.png,1000,4.1865,2,6626,999,meters,jsons/v1_VE1000_randls_42_rotated.json,1310105,1597247,33,Woman
34,235866,DepthScenes,duration_manipulation_targetAtFixation,jsons/v1_VE1000_randls_42_rotated.json,http://54.235.29.9/FacialAge/BNav_EC2/DepthDuration/v2_depth_duration_MTurk/v2_DepthDuration_HTML.html#92,92,1280,1024,1280,1024,8-22-2022,5-42-9,35,depth_duration_stimuli/002758_2014-06-22_19-11-20_094959634447_rgbf000128-resize_1/002758_2014-06-22_19-11-20_094959634447_rgbf000128-resize_1-target.png,1000,2.555,2,9109,1001,meters,jsons/v1_VE1000_randls_42_rotated.json,1310105,1597247,33,Woman
35,235866,DepthScenes,duration_manipulation_targetAtFixation,jsons/v1_VE1000_randls_42_rotated.json,http://54.235.29.9/FacialAge/BNav_EC2/DepthDuration/v2_depth_duration_MTurk/v2_DepthDuration_HTML.html#92,92,1280,1024,1280,1024,8-22-2022,5-42-9,36,depth_duration_stimuli/002630_2014-06-24_14-47-50_094959634447_rgbf000055-resize_1/002630_2014-06-24_14-47-50_094959634447_rgbf000055-resize_1-target.png,1000,3.0095,0,7344,1000,meters,jsons/v1_VE1000_randls_42_rotated.json,1310105,1597247,33,Woman
36,235866,DepthScenes,duration_manipulation_targetAtFixation,jsons/v1_VE1000_randls_42_rotated.json,http://54.235.29.9/FacialAge/BNav_EC2/DepthDuration/v2_depth_duration_MTurk/v2_DepthDuration_HTML.html#92,92,1280,1024,1280,1024,8-22-2022,5-42-9,37,depth_duration_stimuli/003129_2014-05-12_10-48-10_094959634447_rgbf000100-resize_0/003129_2014-05-12_10-48-10_094959634447_rgbf000100-resize_0-target.png,1000,4.9305,2,13554,1000,meters,jsons/v1_VE1000_randls_42_rotated.json,1310105,1597247,33,Woman
37,235866,DepthScenes,duration_manipulation_targetAtFixation,jsons/v1_VE1000_randls_42_rotated.json,http://54.235.29.9/FacialAge/BNav_EC2/DepthDuration/v2_depth_duration_MTurk/v2_DepthDuration_HTML.html#92,92,1280,1024,1280,1024,8-22-2022,5-42-9,38,depth_duration_stimuli/000414_2014-06-04_19-49-13_260595134347_rgbf000044-resize_0/000414_2014-06-04_19-49-13_260595134347_rgbf000044-resize_0-target.png,1000,4.329,2,8740,1000,meters,jsons/v1_VE1000_randls_42_rotated.json,1310105,1597247,33,Woman
38,235866,DepthScenes,duration_manipulation_targetAtFixation,jsons/v1_VE1000_randls_42_rotated.json,http://54.235.29.9/FacialAge/BNav_EC2/DepthDuration/v2_depth_duration_MTurk/v2_DepthDuration_HTML.html#92,92,1280,1024,1280,1024,8-22-2022,5-42-9,39,depth_duration_stimuli/002545_2014-06-24_13-38-53_094959634447_rgbf000080-resize_4/002545_2014-06-24_13-38-53_094959634447_rgbf000080-resize_4-target.png,1000,1.9205,2,6840,999,meters,jsons/v1_VE1000_randls_42_rotated.json,1310105,1597247,33,Woman
39,235866,DepthScenes,duration_manipulation_targetAtFixation,jsons/v1_VE1000_randls_42_rotated.json,http://54.235.29.9/FacialAge/BNav_EC2/DepthDuration/v2_depth_duration_MTurk/v2_DepthDuration_HTML.html#92,92,1280,1024,1280,1024,8-22-2022,5-42-9,40,depth_duration_stimuli/001092_2014-06-15_17-34-58_260595134347_rgbf000171-resize_3/001092_2014-06-15_17-34-58_260595134347_rgbf000171-resize_3-target.png,1000,2.6935,2,6906,999,meters,jsons/v1_VE1000_randls_42_rotated.json,1310105,1597247,33,Woman
40,235866,DepthScenes,duration_manipulation_targetAtFixation,jsons/v1_VE1000_randls_42_rotated.json,http://54.235.29.9/FacialAge/BNav_EC2/DepthDuration/v2_depth_duration_MTurk/v2_DepthDuration_HTML.html#92,92,1280,1024,1280,1024,8-22-2022,5-42-9,41,depth_duration_stimuli/001214_2014-06-17_16-13-55_260595134347_rgbf000111-resize_0/001214_2014-06-17_16-13-55_260595134347_rgbf000111-resize_0-target.png,1000,2.6505,2,5652,999,meters,jsons/v1_VE1000_randls_42_rotated.json,1310105,1597247,33,Woman
41,235866,DepthScenes,duration_manipulation_targetAtFixation,jsons/v1_VE1000_randls_42_rotated.json,http://54.235.29.9/FacialAge/BNav_EC2/DepthDuration/v2_depth_duration_MTurk/v2_DepthDuration_HTML.html#92,92,1280,1024,1280,1024,8-22-2022,5-42-9,42,depth_duration_stimuli/000810_2014-06-08_17-20-01_260595134347_rgbf000105-resize_0/000810_2014-06-08_17-20-01_260595134347_rgbf000105-resize_0-target.png,1000,1.4865,2,8154,1000,meters,jsons/v1_VE1000_randls_42_rotated.json,1310105,1597247,33,Woman
42,235866,DepthScenes,duration_manipulation_targetAtFixation,jsons/v1_VE1000_randls_42_rotated.json,http://54.235.29.9/FacialAge/BNav_EC2/DepthDuration/v2_depth_duration_MTurk/v2_DepthDuration_HTML.html#92,92,1280,1024,1280,1024,8-22-2022,5-42-9,43,depth_duration_stimuli/000665_2014-06-09_20-42-35_260595134347_rgbf000110-resize_1/000665_2014-06-09_20-42-35_260595134347_rgbf000110-resize_1-target.png,1000,3.057,1,30010,990,meters,jsons/v1_VE1000_randls_42_rotated.json,1310105,1597247,33,Woman
43,235866,DepthScenes,duration_manipulation_targetAtFixation,jsons/v1_VE1000_randls_42_rotated.json,http://54.235.29.9/FacialAge/BNav_EC2/DepthDuration/v2_depth_duration_MTurk/v2_DepthDuration_HTML.html#92,92,1280,1024,1280,1024,8-22-2022,5-42-9,44,depth_duration_stimuli/001150_2014-06-17_15-27-34_260595134347_rgbf000108-resize_2/001150_2014-06-17_15-27-34_260595134347_rgbf000108-resize_2-target.png,1000,4.0325,2,4768,1000,meters,jsons/v1_VE1000_randls_42_rotated.json,1310105,1597247,33,Woman
44,235866,DepthScenes,duration_manipulation_targetAtFixation,jsons/v1_VE1000_randls_42_rotated.json,http://54.235.29.9/FacialAge/BNav_EC2/DepthDuration/v2_depth_duration_MTurk/v2_DepthDuration_HTML.html#92,92,1280,1024,1280,1024,8-22-2022,5-42-9,45,depth_duration_stimuli/003490_2014-05-21_15-50-11_094959634447_rgbf000101-resize_3/003490_2014-05-21_15-50-11_094959634447_rgbf000101-resize_3-target.png,1000,3.6445,2,5651,999,meters,jsons/v1_VE1000_randls_42_rotated.json,1310105,1597247,33,Woman
45,235866,DepthScenes,duration_manipulation_targetAtFixation,jsons/v1_VE1000_randls_42_rotated.json,http://54.235.29.9/FacialAge/BNav_EC2/DepthDuration/v2_depth_duration_MTurk/v2_DepthDuration_HTML.html#92,92,1280,1024,1280,1024,8-22-2022,5-42-9,46,depth_duration_stimuli/001175_2014-06-17_15-45-55_260595134347_rgbf000129-resize_4/001175_2014-06-17_15-45-55_260595134347_rgbf000129-resize_4-target.png,1000,4.255,1,5636,999,meters,jsons/v1_VE1000_randls_42_rotated.json,1310105,1597247,33,Woman
46,235866,DepthScenes,duration_manipulation_targetAtFixation,jsons/v1_VE1000_randls_42_rotated.json,http://54.235.29.9/FacialAge/BNav_EC2/DepthDuration/v2_depth_duration_MTurk/v2_DepthDuration_HTML.html#92,92,1280,1024,1280,1024,8-22-2022,5-42-9,47,depth_duration_stimuli/000635_2014-06-08_16-38-42_260595134347_rgbf000106-resize_1/000635_2014-06-08_16-38-42_260595134347_rgbf000106-resize_1-target.png,1000,2.074,1,5909,1000,meters,jsons/v1_VE1000_randls_42_rotated.json,1310105,1597247,33,Woman
47,235866,DepthScenes,duration_manipulation_targetAtFixation,jsons/v1_VE1000_randls_42_rotated.json,http://54.235.29.9/FacialAge/BNav_EC2/DepthDuration/v2_depth_duration_MTurk/v2_DepthDuration_HTML.html#92,92,1280,1024,1280,1024,8-22-2022,5-42-9,48,depth_duration_stimuli/002279_2014-06-28_18-55-32_260595134347_rgbf000040-resize_5/002279_2014-06-28_18-55-32_260595134347_rgbf000040-resize_5-target.png,1000,1.5043333333333,1,7042,999,meters,jsons/v1_VE1000_randls_42_rotated.json,1310105,1597247,33,Woman
48,235866,DepthScenes,duration_manipulation_targetAtFixation,jsons/v1_VE1000_randls_42_rotated.json,http://54.235.29.9/FacialAge/BNav_EC2/DepthDuration/v2_depth_duration_MTurk/v2_DepthDuration_HTML.html#92,92,1280,1024,1280,1024,8-22-2022,5-42-9,49,depth_duration_stimuli/001170_2014-06-17_15-43-44_260595134347_rgbf000096-resize_6/001170_2014-06-17_15-43-44_260595134347_rgbf000096-resize-original.jpg,1000,1.1909999999999998,1,8153,999,meters,jsons/v1_VE1000_randls_42_rotated.json,1310105,1597247,33,Woman
49,235866,DepthScenes,duration_manipulation_targetAtFixation,jsons/v1_VE1000_randls_42_rotated.json,http://54.235.29.9/FacialAge/BNav_EC2/DepthDuration/v2_depth_duration_MTurk/v2_DepthDuration_HTML.html#92,92,1280,1024,1280,1024,8-22-2022,5-42-9,50,depth_duration_stimuli/000191_2014-05-12_17-07-38_260595134347_rgbf000199-resize_0/000191_2014-05-12_17-07-38_260595134347_rgbf000199-resize_0-target.png,1000,3.7995,1,6196,1000,meters,jsons/v1_VE1000_randls_42_rotated.json,1310105,1597247,33,Woman
50,235866,DepthScenes,duration_manipulation_targetAtFixation,jsons/v1_VE1000_randls_42_rotated.json,http://54.235.29.9/FacialAge/BNav_EC2/DepthDuration/v2_depth_duration_MTurk/v2_DepthDuration_HTML.html#92,92,1280,1024,1280,1024,8-22-2022,5-42-9,51,depth_duration_stimuli/000493_2014-06-09_21-01-18_260595134347_rgbf000196-resize_3/000493_2014-06-09_21-01-18_260595134347_rgbf000196-resize_3-target.png,1000,3.44,1,6956,1000,meters,jsons/v1_VE1000_randls_42_rotated.json,1310105,1597247,33,Woman
51,235866,DepthScenes,duration_manipulation_targetAtFixation,jsons/v1_VE1000_randls_42_rotated.json,http://54.235.29.9/FacialAge/BNav_EC2/DepthDuration/v2_depth_duration_MTurk/v2_DepthDuration_HTML.html#92,92,1280,1024,1280,1024,8-22-2022,5-42-9,52,depth_duration_stimuli/001447_2014-06-19_17-00-32_260595134347_rgbf000082-resize_5/001447_2014-06-19_17-00-32_260595134347_rgbf000082-resize_5-target.png,1000,4.13775,2,7123,1000,meters,jsons/v1_VE1000_randls_42_rotated.json,1310105,1597247,33,Woman
52,235866,DepthScenes,duration_manipulation_targetAtFixation,jsons/v1_VE1000_randls_42_rotated.json,http://54.235.29.9/FacialAge/BNav_EC2/DepthDuration/v2_depth_duration_MTurk/v2_DepthDuration_HTML.html#92,92,1280,1024,1280,1024,8-22-2022,5-42-9,53,depth_duration_stimuli/000447_2014-06-08_16-15-46_260595134347_rgbf000130-resize_1/000447_2014-06-08_16-15-46_260595134347_rgbf000130-resize_1-target.png,1000,4.479,2,6456,1000,meters,jsons/v1_VE1000_randls_42_rotated.json,1310105,1597247,33,Woman
53,235866,DepthScenes,duration_manipulation_targetAtFixation,jsons/v1_VE1000_randls_42_rotated.json,http://54.235.29.9/FacialAge/BNav_EC2/DepthDuration/v2_depth_duration_MTurk/v2_DepthDuration_HTML.html#92,92,1280,1024,1280,1024,8-22-2022,5-42-9,54,depth_duration_stimuli/000457_2014-06-08_16-52-43_260595134347_rgbf000199-resize_1/000457_2014-06-08_16-52-43_260595134347_rgbf000199-resize_1-target.png,1000,3.6489999999999996,2,5429,1001,meters,jsons/v1_VE1000_randls_42_rotated.json,1310105,1597247,33,Woman
54,235866,DepthScenes,duration_manipulation_targetAtFixation,jsons/v1_VE1000_randls_42_rotated.json,http://54.235.29.9/FacialAge/BNav_EC2/DepthDuration/v2_depth_duration_MTurk/v2_DepthDuration_HTML.html#92,92,1280,1024,1280,1024,8-22-2022,5-42-9,55,depth_duration_stimuli/000929_2014-06-09_16-33-19_260595134347_rgbf000139-resize_0/000929_2014-06-09_16-33-19_260595134347_rgbf000139-resize_0-target.png,1000,2.8680000000000003,2,7779,1000,meters,jsons/v1_VE1000_randls_42_rotated.json,1310105,1597247,33,Woman
55,235866,DepthScenes,duration_manipulation_targetAtFixation,jsons/v1_VE1000_randls_42_rotated.json,http://54.235.29.9/FacialAge/BNav_EC2/DepthDuration/v2_depth_duration_MTurk/v2_DepthDuration_HTML.html#92,92,1280,1024,1280,1024,8-22-2022,5-42-9,56,depth_duration_stimuli/001815_2014-06-26_20-52-55_260595134347_rgbf000020-resize_0/001815_2014-06-26_20-52-55_260595134347_rgbf000020-resize_0-target.png,1000,3.3865,2,6540,1000,meters,jsons/v1_VE1000_randls_42_rotated.json,1310105,1597247,33,Woman
56,235866,DepthScenes,duration_manipulation_targetAtFixation,jsons/v1_VE1000_randls_42_rotated.json,http://54.235.29.9/FacialAge/BNav_EC2/DepthDuration/v2_depth_duration_MTurk/v2_DepthDuration_HTML.html#92,92,1280,1024,1280,1024,8-22-2022,5-42-9,57,depth_duration_stimuli/001808_2014-06-26_20-50-58_260595134347_rgbf000029-resize_1/001808_2014-06-26_20-50-58_260595134347_rgbf000029-resize_1-target.png,1000,4.249,2,6834,999,meters,jsons/v1_VE1000_randls_42_rotated.json,1310105,1597247,33,Woman
57,235866,DepthScenes,duration_manipulation_targetAtFixation,jsons/v1_VE1000_randls_42_rotated.json,http://54.235.29.9/FacialAge/BNav_EC2/DepthDuration/v2_depth_duration_MTurk/v2_DepthDuration_HTML.html#92,92,1280,1024,1280,1024,8-22-2022,5-42-9,58,depth_duration_stimuli/002136_2014-06-25_21-18-03_260595134347_rgbf000109-resize_3/002136_2014-06-25_21-18-03_260595134347_rgbf000109-resize_3-target.png,1000,1.9569999999999999,2,5753,999,meters,jsons/v1_VE1000_randls_42_rotated.json,1310105,1597247,33,Woman
58,235866,DepthScenes,duration_manipulation_targetAtFixation,jsons/v1_VE1000_randls_42_rotated.json,http://54.235.29.9/FacialAge/BNav_EC2/DepthDuration/v2_depth_duration_MTurk/v2_DepthDuration_HTML.html#92,92,1280,1024,1280,1024,8-22-2022,5-42-9,59,depth_duration_stimuli/002964_2014-06-08_17-46-11_094959634447_rgbf000091-resize_4/002964_2014-06-08_17-46-11_094959634447_rgbf000091-resize_4-target.png,1000,1.6909999999999998,2,7634,1000,meters,jsons/v1_VE1000_randls_42_rotated.json,1310105,1597247,33,Woman
59,235866,DepthScenes,duration_manipulation_targetAtFixation,jsons/v1_VE1000_randls_42_rotated.json,http://54.235.29.9/FacialAge/BNav_EC2/DepthDuration/v2_depth_duration_MTurk/v2_DepthDuration_HTML.html#92,92,1280,1024,1280,1024,8-22-2022,5-42-9,60,depth_duration_stimuli/001132_2014-06-17_14-48-54_260595134347_rgbf000100-resize_2/001132_2014-06-17_14-48-54_260595134347_rgbf000100-resize_2-target.png,1000,3.753,1,7540,1000,meters,jsons/v1_VE1000_randls_42_rotated.json,1310105,1597247,33,Woman
60,235866,DepthScenes,duration_manipulation_targetAtFixation,jsons/v1_VE1000_randls_42_rotated.json,http://54.235.29.9/FacialAge/BNav_EC2/DepthDuration/v2_depth_duration_MTurk/v2_DepthDuration_HTML.html#92,92,1280,1024,1280,1024,8-22-2022,5-42-9,61,depth_duration_stimuli/001133_2014-06-17_14-49-16_260595134347_rgbf000100-resize_0/001133_2014-06-17_14-49-16_260595134347_rgbf000100-resize_0-target.png,1000,4.2115,1,7269,998,meters,jsons/v1_VE1000_randls_42_rotated.json,1310105,1597247,33,Woman
61,235866,DepthScenes,duration_manipulation_targetAtFixation,jsons/v1_VE1000_randls_42_rotated.json,http://54.235.29.9/FacialAge/BNav_EC2/DepthDuration/v2_depth_duration_MTurk/v2_DepthDuration_HTML.html#92,92,1280,1024,1280,1024,8-22-2022,5-42-9,62,depth_duration_stimuli/000677_2014-06-08_23-10-32_260595134347_rgbf000158-resize_6/000677_2014-06-08_23-10-32_260595134347_rgbf000158-resize_6-target.png,1000,3.556,2,5755,1000,meters,jsons/v1_VE1000_randls_42_rotated.json,1310105,1597247,33,Woman
62,235866,DepthScenes,duration_manipulation_targetAtFixation,jsons/v1_VE1000_randls_42_rotated.json,http://54.235.29.9/FacialAge/BNav_EC2/DepthDuration/v2_depth_duration_MTurk/v2_DepthDuration_HTML.html#92,92,1280,1024,1280,1024,8-22-2022,5-42-9,63,depth_duration_stimuli/001029_2014-06-08_13-17-57_260595134347_rgbf000065-resize_1/001029_2014-06-08_13-17-57_260595134347_rgbf000065-resize_1-target.png,1000,3.0835,2,9499,999,meters,jsons/v1_VE1000_randls_42_rotated.json,1310105,1597247,33,Woman
63,235866,DepthScenes,duration_manipulation_targetAtFixation,jsons/v1_VE1000_randls_42_rotated.json,http://54.235.29.9/FacialAge/BNav_EC2/DepthDuration/v2_depth_duration_MTurk/v2_DepthDuration_HTML.html#92,92,1280,1024,1280,1024,8-22-2022,5-42-9,64,depth_duration_stimuli/002660_2014-06-13_15-44-18_094959634447_rgbf001878-resize_2/002660_2014-06-13_15-44-18_094959634447_rgbf001878-resize_2-target.png,1000,3.576,3,7663,1000,meters,jsons/v1_VE1000_randls_42_rotated.json,1310105,1597247,33,Woman
64,235866,DepthScenes,duration_manipulation_targetAtFixation,jsons/v1_VE1000_randls_42_rotated.json,http://54.235.29.9/FacialAge/BNav_EC2/DepthDuration/v2_depth_duration_MTurk/v2_DepthDuration_HTML.html#92,92,1280,1024,1280,1024,8-22-2022,5-42-9,65,depth_duration_stimuli/002153_2014-06-25_21-27-18_260595134347_rgbf000038-resize_5/002153_2014-06-25_21-27-18_260595134347_rgbf000038-resize_5-target.png,1000,2.505,2,5645,1000,meters,jsons/v1_VE1000_randls_42_rotated.json,1310105,1597247,33,Woman
65,235866,DepthScenes,duration_manipulation_targetAtFixation,jsons/v1_VE1000_randls_42_rotated.json,http://54.235.29.9/FacialAge/BNav_EC2/DepthDuration/v2_depth_duration_MTurk/v2_DepthDuration_HTML.html#92,92,1280,1024,1280,1024,8-22-2022,5-42-9,66,depth_duration_stimuli/001540_2014-06-20_17-01-05_260595134347_rgbf000086-resize_2/001540_2014-06-20_17-01-05_260595134347_rgbf000086-resize-original.jpg,1000,1.459,0,5051,1000,meters,jsons/v1_VE1000_randls_42_rotated.json,1310105,1597247,33,Woman
66,235866,DepthScenes,duration_manipulation_targetAtFixation,jsons/v1_VE1000_randls_42_rotated.json,http://54.235.29.9/FacialAge/BNav_EC2/DepthDuration/v2_depth_duration_MTurk/v2_DepthDuration_HTML.html#92,92,1280,1024,1280,1024,8-22-2022,5-42-9,67,depth_duration_stimuli/002414_2014-06-28_20-24-58_260595134347_rgbf000067-resize_4/002414_2014-06-28_20-24-58_260595134347_rgbf000067-resize_4-target.png,1000,4.363,2,6361,1000,meters,jsons/v1_VE1000_randls_42_rotated.json,1310105,1597247,33,Woman
67,235866,DepthScenes,duration_manipulation_targetAtFixation,jsons/v1_VE1000_randls_42_rotated.json,http://54.235.29.9/FacialAge/BNav_EC2/DepthDuration/v2_depth_duration_MTurk/v2_DepthDuration_HTML.html#92,92,1280,1024,1280,1024,8-22-2022,5-42-9,68,depth_duration_stimuli/000773_2014-06-08_22-24-54_260595134347_rgbf000093-resize_1/000773_2014-06-08_22-24-54_260595134347_rgbf000093-resize_1-target.png,1000,4.973,2,5589,999,meters,jsons/v1_VE1000_randls_42_rotated.json,1310105,1597247,33,Woman
68,235866,DepthScenes,duration_manipulation_targetAtFixation,jsons/v1_VE1000_randls_42_rotated.json,http://54.235.29.9/FacialAge/BNav_EC2/DepthDuration/v2_depth_duration_MTurk/v2_DepthDuration_HTML.html#92,92,1280,1024,1280,1024,8-22-2022,5-42-9,69,depth_duration_stimuli/003423_2014-05-21_10-23-26_094959634447_rgbf002665-resize_2/003423_2014-05-21_10-23-26_094959634447_rgbf002665-resize_2-target.png,1000,3.2575,2,9832,1000,meters,jsons/v1_VE1000_randls_42_rotated.json,1310105,1597247,33,Woman
69,235866,DepthScenes,duration_manipulation_targetAtFixation,jsons/v1_VE1000_randls_42_rotated.json,http://54.235.29.9/FacialAge/BNav_EC2/DepthDuration/v2_depth_duration_MTurk/v2_DepthDuration_HTML.html#92,92,1280,1024,1280,1024,8-22-2022,5-42-9,70,depth_duration_stimuli/002905_2014-06-03_18-04-43_094959634447_rgbf000151-resize_2/002905_2014-06-03_18-04-43_094959634447_rgbf000151-resize_2-target.png,1000,2.0295,2,6906,1002,meters,jsons/v1_VE1000_randls_42_rotated.json,1310105,1597247,33,Woman
70,235866,DepthScenes,duration_manipulation_targetAtFixation,jsons/v1_VE1000_randls_42_rotated.json,http://54.235.29.9/FacialAge/BNav_EC2/DepthDuration/v2_depth_duration_MTurk/v2_DepthDuration_HTML.html#92,92,1280,1024,1280,1024,8-22-2022,5-42-9,71,depth_duration_stimuli/002750_2014-06-22_19-08-03_094959634447_rgbf000094-resize_4/002750_2014-06-22_19-08-03_094959634447_rgbf000094-resize_4-target.png,1000,2.354,3,7875,999,meters,jsons/v1_VE1000_randls_42_rotated.json,1310105,1597247,33,Woman
71,235866,DepthScenes,duration_manipulation_targetAtFixation,jsons/v1_VE1000_randls_42_rotated.json,http://54.235.29.9/FacialAge/BNav_EC2/DepthDuration/v2_depth_duration_MTurk/v2_DepthDuration_HTML.html#92,92,1280,1024,1280,1024,8-22-2022,5-42-9,72,depth_duration_stimuli/002549_2014-06-24_13-41-39_094959634447_rgbf000022-resize_3/002549_2014-06-24_13-41-39_094959634447_rgbf000022-resize_3-target.png,1000,1.476,2,6893,999,meters,jsons/v1_VE1000_randls_42_rotated.json,1310105,1597247,33,Woman
72,235866,DepthScenes,duration_manipulation_targetAtFixation,jsons/v1_VE1000_randls_42_rotated.json,http://54.235.29.9/FacialAge/BNav_EC2/DepthDuration/v2_depth_duration_MTurk/v2_DepthDuration_HTML.html#92,92,1280,1024,1280,1024,8-22-2022,5-42-9,73,depth_duration_stimuli/000109_2014-05-14_23-41-52_260595134347_rgbf000035-resize_9/000109_2014-05-14_23-41-52_260595134347_rgbf000035-resize_9-target.png,1000,1.3545,3,5585,999,meters,jsons/v1_VE1000_randls_42_rotated.json,1310105,1597247,33,Woman
73,235866,DepthScenes,duration_manipulation_targetAtFixation,jsons/v1_VE1000_randls_42_rotated.json,http://54.235.29.9/FacialAge/BNav_EC2/DepthDuration/v2_depth_duration_MTurk/v2_DepthDuration_HTML.html#92,92,1280,1024,1280,1024,8-22-2022,5-42-9,74,depth_duration_stimuli/000470_2014-06-09_19-42-40_260595134347_rgbf000094-resize_1/000470_2014-06-09_19-42-40_260595134347_rgbf000094-resize_1-target.png,1000,1.831,3,8114,1000,meters,jsons/v1_VE1000_randls_42_rotated.json,1310105,1597247,33,Woman
74,235866,DepthScenes,duration_manipulation_targetAtFixation,jsons/v1_VE1000_randls_42_rotated.json,http://54.235.29.9/FacialAge/BNav_EC2/DepthDuration/v2_depth_duration_MTurk/v2_DepthDuration_HTML.html#92,92,1280,1024,1280,1024,8-22-2022,5-42-9,75,depth_duration_stimuli/000943_2014-06-09_19-31-07_260595134347_rgbf000128-resize_1/000943_2014-06-09_19-31-07_260595134347_rgbf000128-resize_1-target.png,1000,1.9765,1,5725,1001,meters,jsons/v1_VE1000_randls_42_rotated.json,1310105,1597247,33,Woman
75,235866,DepthScenes,duration_manipulation_targetAtFixation,jsons/v1_VE1000_randls_42_rotated.json,http://54.235.29.9/FacialAge/BNav_EC2/DepthDuration/v2_depth_duration_MTurk/v2_DepthDuration_HTML.html#92,92,1280,1024,1280,1024,8-22-2022,5-42-9,76,depth_duration_stimuli/003070_2014-06-15_14-58-27_094959634447_rgbf000150-resize_3/003070_2014-06-15_14-58-27_094959634447_rgbf000150-resize_3-target.png,1000,2.9415,3,5164,1000,meters,jsons/v1_VE1000_randls_42_rotated.json,1310105,1597247,33,Woman
76,235866,DepthScenes,duration_manipulation_targetAtFixation,jsons/v1_VE1000_randls_42_rotated.json,http://54.235.29.9/FacialAge/BNav_EC2/DepthDuration/v2_depth_duration_MTurk/v2_DepthDuration_HTML.html#92,92,1280,1024,1280,1024,8-22-2022,5-42-9,77,depth_duration_stimuli/002444_2014-06-28_20-32-08_260595134347_rgbf000027-resize_0/002444_2014-06-28_20-32-08_260595134347_rgbf000027-resize_0-target.png,1000,4.388999999999999,2,11585,1000,meters,jsons/v1_VE1000_randls_42_rotated.json,1310105,1597247,33,Woman
77,235866,DepthScenes,duration_manipulation_targetAtFixation,jsons/v1_VE1000_randls_42_rotated.json,http://54.235.29.9/FacialAge/BNav_EC2/DepthDuration/v2_depth_duration_MTurk/v2_DepthDuration_HTML.html#92,92,1280,1024,1280,1024,8-22-2022,5-42-9,78,depth_duration_stimuli/000436_2014-06-09_22-25-11_260595134347_rgbf000137-resize_1/000436_2014-06-09_22-25-11_260595134347_rgbf000137-resize_1-target.png,1000,4.0705,3,10691,1000,meters,jsons/v1_VE1000_randls_42_rotated.json,1310105,1597247,33,Woman
78,235866,DepthScenes,duration_manipulation_targetAtFixation,jsons/v1_VE1000_randls_42_rotated.json,http://54.235.29.9/FacialAge/BNav_EC2/DepthDuration/v2_depth_duration_MTurk/v2_DepthDuration_HTML.html#92,92,1280,1024,1280,1024,8-22-2022,5-42-9,79,depth_duration_stimuli/001584_2014-06-20_11-07-43_260595134347_rgbf000002-resize_1/001584_2014-06-20_11-07-43_260595134347_rgbf000002-resize_1-target.png,1000,3.53,3,8312,1000,meters,jsons/v1_VE1000_randls_42_rotated.json,1310105,1597247,33,Woman
79,235866,DepthScenes,duration_manipulation_targetAtFixation,jsons/v1_VE1000_randls_42_rotated.json,http://54.235.29.9/FacialAge/BNav_EC2/DepthDuration/v2_depth_duration_MTurk/v2_DepthDuration_HTML.html#92,92,1280,1024,1280,1024,8-22-2022,5-42-9,80,depth_duration_stimuli/003621_2014-05-23_18-06-08_094959634447_rgbf000101-resize_1/003621_2014-05-23_18-06-08_094959634447_rgbf000101-resize_1-target.png,1000,3.9835,2,6905,999,meters,jsons/v1_VE1000_randls_42_rotated.json,1310105,1597247,33,Woman
80,235866,DepthScenes,duration_manipulation_targetAtFixation,jsons/v1_VE1000_randls_42_rotated.json,http://54.235.29.9/FacialAge/BNav_EC2/DepthDuration/v2_depth_duration_MTurk/v2_DepthDuration_HTML.html#92,92,1280,1024,1280,1024,8-22-2022,5-42-9,81,depth_duration_stimuli/001392_2014-06-19_16-07-59_260595134347_rgbf000046-resize_1/001392_2014-06-19_16-07-59_260595134347_rgbf000046-resize_1-target.png,1000,4.135,2,11367,1000,meters,jsons/v1_VE1000_randls_42_rotated.json,1310105,1597247,33,Woman
81,235866,DepthScenes,duration_manipulation_targetAtFixation,jsons/v1_VE1000_randls_42_rotated.json,http://54.235.29.9/FacialAge/BNav_EC2/DepthDuration/v2_depth_duration_MTurk/v2_DepthDuration_HTML.html#92,92,1280,1024,1280,1024,8-22-2022,5-42-9,82,depth_duration_stimuli/001570_2014-06-20_17-21-09_260595134347_rgbf000135-resize_4/001570_2014-06-20_17-21-09_260595134347_rgbf000135-resize_4-target.png,1000,4.467,3,11054,1001,meters,jsons/v1_VE1000_randls_42_rotated.json,1310105,1597247,33,Woman
82,235866,DepthScenes,duration_manipulation_targetAtFixation,jsons/v1_VE1000_randls_42_rotated.json,http://54.235.29.9/FacialAge/BNav_EC2/DepthDuration/v2_depth_duration_MTurk/v2_DepthDuration_HTML.html#92,92,1280,1024,1280,1024,8-22-2022,5-42-9,83,depth_duration_stimuli/002103_2014-06-25_20-00-40_260595134347_rgbf000049-resize_0/002103_2014-06-25_20-00-40_260595134347_rgbf000049-resize_0-target.png,1000,4.105,3,6445,999,meters,jsons/v1_VE1000_randls_42_rotated.json,1310105,1597247,33,Woman
83,235866,DepthScenes,duration_manipulation_targetAtFixation,jsons/v1_VE1000_randls_42_rotated.json,http://54.235.29.9/FacialAge/BNav_EC2/DepthDuration/v2_depth_duration_MTurk/v2_DepthDuration_HTML.html#92,92,1280,1024,1280,1024,8-22-2022,5-42-9,84,depth_duration_stimuli/002039_2014-06-24_20-22-38_260595134347_rgbf000084-resize_1/002039_2014-06-24_20-22-38_260595134347_rgbf000084-resize_1-target.png,1000,4.408,3,8437,1000,meters,jsons/v1_VE1000_randls_42_rotated.json,1310105,1597247,33,Woman
84,235866,DepthScenes,duration_manipulation_targetAtFixation,jsons/v1_VE1000_randls_42_rotated.json,http://54.235.29.9/FacialAge/BNav_EC2/DepthDuration/v2_depth_duration_MTurk/v2_DepthDuration_HTML.html#92,92,1280,1024,1280,1024,8-22-2022,5-42-9,85,depth_duration_stimuli/001450_2014-06-19_17-02-03_260595134347_rgbf000203-resize_4/001450_2014-06-19_17-02-03_260595134347_rgbf000203-resize_4-target.png,1000,4.0106666666667,3,8675,999,meters,jsons/v1_VE1000_randls_42_rotated.json,1310105,1597247,33,Woman
85,235866,DepthScenes,duration_manipulation_targetAtFixation,jsons/v1_VE1000_randls_42_rotated.json,http://54.235.29.9/FacialAge/BNav_EC2/DepthDuration/v2_depth_duration_MTurk/v2_DepthDuration_HTML.html#92,92,1280,1024,1280,1024,8-22-2022,5-42-9,86,depth_duration_stimuli/001449_2014-06-19_17-01-27_260595134347_rgbf000116-resize_2/001449_2014-06-19_17-01-27_260595134347_rgbf000116-resize_2-target.png,1000,3.452,3,6098,1002,meters,jsons/v1_VE1000_randls_42_rotated.json,1310105,1597247,33,Woman
86,235866,DepthScenes,duration_manipulation_targetAtFixation,jsons/v1_VE1000_randls_42_rotated.json,http://54.235.29.9/FacialAge/BNav_EC2/DepthDuration/v2_depth_duration_MTurk/v2_DepthDuration_HTML.html#92,92,1280,1024,1280,1024,8-22-2022,5-42-9,87,depth_duration_stimuli/000483_2014-06-09_20-41-45_260595134347_rgbf000116-resize_4/000483_2014-06-09_20-41-45_260595134347_rgbf000116-resize_4-target.png,1000,1.337,2,4858,999,meters,jsons/v1_VE1000_randls_42_rotated.json,1310105,1597247,33,Woman
87,235866,DepthScenes,duration_manipulation_targetAtFixation,jsons/v1_VE1000_randls_42_rotated.json,http://54.235.29.9/FacialAge/BNav_EC2/DepthDuration/v2_depth_duration_MTurk/v2_DepthDuration_HTML.html#92,92,1280,1024,1280,1024,8-22-2022,5-42-9,88,depth_duration_stimuli/000469_2014-06-09_19-42-10_260595134347_rgbf000081-resize_1/000469_2014-06-09_19-42-10_260595134347_rgbf000081-resize_1-target.png,1000,1.652,2,8263,999,meters,jsons/v1_VE1000_randls_42_rotated.json,1310105,1597247,33,Woman
88,235866,DepthScenes,duration_manipulation_targetAtFixation,jsons/v1_VE1000_randls_42_rotated.json,http://54.235.29.9/FacialAge/BNav_EC2/DepthDuration/v2_depth_duration_MTurk/v2_DepthDuration_HTML.html#92,92,1280,1024,1280,1024,8-22-2022,5-42-9,89,depth_duration_stimuli/000409_2014-06-04_19-23-33_260595134347_rgbf000067-resize_0/000409_2014-06-04_19-23-33_260595134347_rgbf000067-resize_0-target.png,1000,3.7335,2,6552,1000,meters,jsons/v1_VE1000_randls_42_rotated.json,1310105,1597247,33,Woman
89,235866,DepthScenes,duration_manipulation_targetAtFixation,jsons/v1_VE1000_randls_42_rotated.json,http://54.235.29.9/FacialAge/BNav_EC2/DepthDuration/v2_depth_duration_MTurk/v2_DepthDuration_HTML.html#92,92,1280,1024,1280,1024,8-22-2022,5-42-9,90,depth_duration_stimuli/002663_2014-06-13_15-50-26_094959634447_rgbf000075-resize_1/002663_2014-06-13_15-50-26_094959634447_rgbf000075-resize_1-target.png,1000,4.7495,2,5447,1012,meters,jsons/v1_VE1000_randls_42_rotated.json,1310105,1597247,33,Woman
90,235866,DepthScenes,duration_manipulation_targetAtFixation,jsons/v1_VE1000_randls_42_rotated.json,http://54.235.29.9/FacialAge/BNav_EC2/DepthDuration/v2_depth_duration_MTurk/v2_DepthDuration_HTML.html#92,92,1280,1024,1280,1024,8-22-2022,5-42-9,91,depth_duration_stimuli/002949_2014-06-26_15-57-42_094959634447_rgbf000079-resize_1/002949_2014-06-26_15-57-42_094959634447_rgbf000079-resize_1-target.png,1000,1.8915,2,7105,1000,meters,jsons/v1_VE1000_randls_42_rotated.json,1310105,1597247,33,Woman
91,235866,DepthScenes,duration_manipulation_targetAtFixation,jsons/v1_VE1000_randls_42_rotated.json,http://54.235.29.9/FacialAge/BNav_EC2/DepthDuration/v2_depth_duration_MTurk/v2_DepthDuration_HTML.html#92,92,1280,1024,1280,1024,8-22-2022,5-42-9,92,depth_duration_stimuli/000522_2014-06-08_13-35-06_260595134347_rgbf000244-resize_1/000522_2014-06-08_13-35-06_260595134347_rgbf000244-resize_1-target.png,1000,2.3715,2,8090,1001,meters,jsons/v1_VE1000_randls_42_rotated.json,1310105,1597247,33,Woman
92,235866,DepthScenes,duration_manipulation_targetAtFixation,jsons/v1_VE1000_randls_42_rotated.json,http://54.235.29.9/FacialAge/BNav_EC2/DepthDuration/v2_depth_duration_MTurk/v2_DepthDuration_HTML.html#92,92,1280,1024,1280,1024,8-22-2022,5-42-9,93,depth_duration_stimuli/000691_2014-06-08_13-08-50_260595134347_rgbf000132-resize_3/000691_2014-06-08_13-08-50_260595134347_rgbf000132-resize_3-target.png,1000,4.1530000000000005,2,7633,1000,meters,jsons/v1_VE1000_randls_42_rotated.json,1310105,1597247,33,Woman
93,235866,DepthScenes,duration_manipulation_targetAtFixation,jsons/v1_VE1000_randls_42_rotated.json,http://54.235.29.9/FacialAge/BNav_EC2/DepthDuration/v2_depth_duration_MTurk/v2_DepthDuration_HTML.html#92,92,1280,1024,1280,1024,8-22-2022,5-42-9,94,depth_duration_stimuli/002213_2014-06-28_18-37-58_260595134347_rgbf000055-resize_1/002213_2014-06-28_18-37-58_260595134347_rgbf000055-resize_1-target.png,1000,3.62,2,5645,1001,meters,jsons/v1_VE1000_randls_42_rotated.json,1310105,1597247,33,Woman
94,235866,DepthScenes,duration_manipulation_targetAtFixation,jsons/v1_VE1000_randls_42_rotated.json,http://54.235.29.9/FacialAge/BNav_EC2/DepthDuration/v2_depth_duration_MTurk/v2_DepthDuration_HTML.html#92,92,1280,1024,1280,1024,8-22-2022,5-42-9,95,depth_duration_stimuli/002467_2014-06-28_20-38-07_260595134347_rgbf000026-resize_2/002467_2014-06-28_20-38-07_260595134347_rgbf000026-resize_2-target.png,1000,4.742,2,7751,1000,meters,jsons/v1_VE1000_randls_42_rotated.json,1310105,1597247,33,Woman
95,235866,DepthScenes,duration_manipulation_targetAtFixation,jsons/v1_VE1000_randls_42_rotated.json,http://54.235.29.9/FacialAge/BNav_EC2/DepthDuration/v2_depth_duration_MTurk/v2_DepthDuration_HTML.html#92,92,1280,1024,1280,1024,8-22-2022,5-42-9,96,depth_duration_stimuli/002570_2014-06-24_13-59-54_094959634447_rgbf000059-resize_0/002570_2014-06-24_13-59-54_094959634447_rgbf000059-resize_0-target.png,1000,4.037,2,10317,1001,meters,jsons/v1_VE1000_randls_42_rotated.json,1310105,1597247,33,Woman
96,235866,DepthScenes,duration_manipulation_targetAtFixation,jsons/v1_VE1000_randls_42_rotated.json,http://54.235.29.9/FacialAge/BNav_EC2/DepthDuration/v2_depth_duration_MTurk/v2_DepthDuration_HTML.html#92,92,1280,1024,1280,1024,8-22-2022,5-42-9,97,depth_duration_stimuli/003048_2014-06-15_13-49-43_094959634447_rgbf000150-resize_1/003048_2014-06-15_13-49-43_094959634447_rgbf000150-resize_1-target.png,1000,4.0035,3,6342,1000,meters,jsons/v1_VE1000_randls_42_rotated.json,1310105,1597247,33,Woman
97,235866,DepthScenes,duration_manipulation_targetAtFixation,jsons/v1_VE1000_randls_42_rotated.json,http://54.235.29.9/FacialAge/BNav_EC2/DepthDuration/v2_depth_duration_MTurk/v2_DepthDuration_HTML.html#92,92,1280,1024,1280,1024,8-22-2022,5-42-9,98,depth_duration_stimuli/002043_2014-06-24_20-29-38_260595134347_rgbf000039-resize_4/002043_2014-06-24_20-29-38_260595134347_rgbf000039-resize_4-target.png,1000,2.8435,2,6035,1000,meters,jsons/v1_VE1000_randls_42_rotated.json,1310105,1597247,33,Woman
98,235866,DepthScenes,duration_manipulation_targetAtFixation,jsons/v1_VE1000_randls_42_rotated.json,http://54.235.29.9/FacialAge/BNav_EC2/DepthDuration/v2_depth_duration_MTurk/v2_DepthDuration_HTML.html#92,92,1280,1024,1280,1024,8-22-2022,5-42-9,99,depth_duration_stimuli/001222_2014-06-17_16-24-06_260595134347_rgbf000073-resize_0/001222_2014-06-17_16-24-06_260595134347_rgbf000073-resize-original.jpg,1000,1.4385,2,7246,1001,meters,jsons/v1_VE1000_randls_42_rotated.json,1310105,1597247,33,Woman
99,235866,DepthScenes,duration_manipulation_targetAtFixation,jsons/v1_VE1000_randls_42_rotated.json,http://54.235.29.9/FacialAge/BNav_EC2/DepthDuration/v2_depth_duration_MTurk/v2_DepthDuration_HTML.html#92,92,1280,1024,1280,1024,8-22-2022,5-42-9,100,depth_duration_stimuli/001032_2014-06-08_13-23-17_260595134347_rgbf000021-resize_3/001032_2014-06-08_13-23-17_260595134347_rgbf000021-resize_3-target.png,1000,3.2725,2,7291,997,meters,jsons/v1_VE1000_randls_42_rotated.json,1310105,1597247,33,Woman
100,235866,DepthScenes,duration_manipulation_targetAtFixation,jsons/v1_VE1000_randls_42_rotated.json,http://54.235.29.9/FacialAge/BNav_EC2/DepthDuration/v2_depth_duration_MTurk/v2_DepthDuration_HTML.html#92,92,1280,1024,1280,1024,8-22-2022,5-42-9,101,depth_duration_stimuli/001059_2014-06-08_21-53-27_260595134347_rgbf000061-resize_4/001059_2014-06-08_21-53-27_260595134347_rgbf000061-resize_4-target.png,1000,2.4185,2,4989,999,meters,jsons/v1_VE1000_randls_42_rotated.json,1310105,1597247,33,Woman
101,235866,DepthScenes,duration_manipulation_targetAtFixation,jsons/v1_VE1000_randls_42_rotated.json,http://54.235.29.9/FacialAge/BNav_EC2/DepthDuration/v2_depth_duration_MTurk/v2_DepthDuration_HTML.html#92,92,1280,1024,1280,1024,8-22-2022,5-42-9,102,depth_duration_stimuli/002340_2014-06-28_20-05-46_260595134347_rgbf000113-resize_0/002340_2014-06-28_20-05-46_260595134347_rgbf000113-resize_0-target.png,1000,2.4735,3,8706,999,meters,jsons/v1_VE1000_randls_42_rotated.json,1310105,1597247,33,Woman
102,235866,DepthScenes,duration_manipulation_targetAtFixation,jsons/v1_VE1000_randls_42_rotated.json,http://54.235.29.9/FacialAge/BNav_EC2/DepthDuration/v2_depth_duration_MTurk/v2_DepthDuration_HTML.html#92,92,1280,1024,1280,1024,8-22-2022,5-42-9,103,depth_duration_stimuli/001016_2014-06-09_16-16-10_260595134347_rgbf000112-resize_5/001016_2014-06-09_16-16-10_260595134347_rgbf000112-resize_5-target.png,1000,1.6565,3,8106,1001,meters,jsons/v1_VE1000_randls_42_rotated.json,1310105,1597247,33,Woman
103,235866,DepthScenes,duration_manipulation_targetAtFixation,jsons/v1_VE1000_randls_42_rotated.json,http://54.235.29.9/FacialAge/BNav_EC2/DepthDuration/v2_depth_duration_MTurk/v2_DepthDuration_HTML.html#92,92,1280,1024,1280,1024,8-22-2022,5-42-9,104,depth_duration_stimuli/003587_2014-05-23_16-48-02_094959634447_rgbf002384-resize_2/003587_2014-05-23_16-48-02_094959634447_rgbf002384-resize_2-target.png,1000,1.357,3,5302,1000,meters,jsons/v1_VE1000_randls_42_rotated.json,1310105,1597247,33,Woman
104,235866,DepthScenes,duration_manipulation_targetAtFixation,jsons/v1_VE1000_randls_42_rotated.json,http://54.235.29.9/FacialAge/BNav_EC2/DepthDuration/v2_depth_duration_MTurk/v2_DepthDuration_HTML.html#92,92,1280,1024,1280,1024,8-22-2022,5-42-9,105,depth_duration_stimuli/001167_2014-06-17_15-38-07_260595134347_rgbf000108-resize_0/001167_2014-06-17_15-38-07_260595134347_rgbf000108-resize_0-target.png,1000,1.8505,2,6090,1000,meters,jsons/v1_VE1000_randls_42_rotated.json,1310105,1597247,33,Woman
105,235866,DepthScenes,duration_manipulation_targetAtFixation,jsons/v1_VE1000_randls_42_rotated.json,http://54.235.29.9/FacialAge/BNav_EC2/DepthDuration/v2_depth_duration_MTurk/v2_DepthDuration_HTML.html#92,92,1280,1024,1280,1024,8-22-2022,5-42-9,106,depth_duration_stimuli/000749_2014-06-08_21-55-06_260595134347_rgbf000070-resize_2/000749_2014-06-08_21-55-06_260595134347_rgbf000070-resize_2-target.png,1000,2.331,3,6516,1000,meters,jsons/v1_VE1000_randls_42_rotated.json,1310105,1597247,33,Woman
106,235866,DepthScenes,duration_manipulation_targetAtFixation,jsons/v1_VE1000_randls_42_rotated.json,http://54.235.29.9/FacialAge/BNav_EC2/DepthDuration/v2_depth_duration_MTurk/v2_DepthDuration_HTML.html#92,92,1280,1024,1280,1024,8-22-2022,5-42-9,107,depth_duration_stimuli/002788_2014-06-22_19-36-03_094959634447_rgbf000088-resize_2/002788_2014-06-22_19-36-03_094959634447_rgbf000088-resize_2-target.png,1000,1.6465,1,5482,1000,meters,jsons/v1_VE1000_randls_42_rotated.json,1310105,1597247,33,Woman
107,235866,DepthScenes,duration_manipulation_targetAtFixation,jsons/v1_VE1000_randls_42_rotated.json,http://54.235.29.9/FacialAge/BNav_EC2/DepthDuration/v2_depth_duration_MTurk/v2_DepthDuration_HTML.html#92,92,1280,1024,1280,1024,8-22-2022,5-42-9,108,depth_duration_stimuli/001094_2014-06-15_17-36-00_260595134347_rgbf000205-resize_0/001094_2014-06-15_17-36-00_260595134347_rgbf000205-resize_0-target.png,1000,4.2175,2,5570,1001,meters,jsons/v1_VE1000_randls_42_rotated.json,1310105,1597247,33,Woman
108,235866,DepthScenes,duration_manipulation_targetAtFixation,jsons/v1_VE1000_randls_42_rotated.json,http://54.235.29.9/FacialAge/BNav_EC2/DepthDuration/v2_depth_duration_MTurk/v2_DepthDuration_HTML.html#92,92,1280,1024,1280,1024,8-22-2022,5-42-9,109,depth_duration_stimuli/000692_2014-06-08_13-09-42_260595134347_rgbf000199-resize_2/000692_2014-06-08_13-09-42_260595134347_rgbf000199-resize_2-target.png,1000,3.661,2,8972,1000,meters,jsons/v1_VE1000_randls_42_rotated.json,1310105,1597247,33,Woman
109,235866,DepthScenes,duration_manipulation_targetAtFixation,jsons/v1_VE1000_randls_42_rotated.json,http://54.235.29.9/FacialAge/BNav_EC2/DepthDuration/v2_depth_duration_MTurk/v2_DepthDuration_HTML.html#92,92,1280,1024,1280,1024,8-22-2022,5-42-9,110,depth_duration_stimuli/002953_2014-06-08_17-32-18_094959634447_rgbf000059-resize_5/002953_2014-06-08_17-32-18_094959634447_rgbf000059-resize_5-target.png,1000,1.551,2,6378,1000,meters,jsons/v1_VE1000_randls_42_rotated.json,1310105,1597247,33,Woman
110,235866,DepthScenes,duration_manipulation_targetAtFixation,jsons/v1_VE1000_randls_42_rotated.json,http://54.235.29.9/FacialAge/BNav_EC2/DepthDuration/v2_depth_duration_MTurk/v2_DepthDuration_HTML.html#92,92,1280,1024,1280,1024,8-22-2022,5-42-9,111,depth_duration_stimuli/000878_2014-06-08_22-52-45_260595134347_rgbf000045-resize_2/000878_2014-06-08_22-52-45_260595134347_rgbf000045-resize_2-target.png,1000,2.092,2,6725,1000,meters,jsons/v1_VE1000_randls_42_rotated.json,1310105,1597247,33,Woman
111,235866,DepthScenes,duration_manipulation_targetAtFixation,jsons/v1_VE1000_randls_42_rotated.json,http://54.235.29.9/FacialAge/BNav_EC2/DepthDuration/v2_depth_duration_MTurk/v2_DepthDuration_HTML.html#92,92,1280,1024,1280,1024,8-22-2022,5-42-9,112,depth_duration_stimuli/002425_2014-06-28_20-27-29_260595134347_rgbf000031-resize_8/002425_2014-06-28_20-27-29_260595134347_rgbf000031-resize_8-target.png,1000,3.8960000000000004,2,6707,1000,meters,jsons/v1_VE1000_randls_42_rotated.json,1310105,1597247,33,Woman
112,235866,DepthScenes,duration_manipulation_targetAtFixation,jsons/v1_VE1000_randls_42_rotated.json,http://54.235.29.9/FacialAge/BNav_EC2/DepthDuration/v2_depth_duration_MTurk/v2_DepthDuration_HTML.html#92,92,1280,1024,1280,1024,8-22-2022,5-42-9,113,depth_duration_stimuli/000642_2014-06-08_16-59-25_260595134347_rgbf000098-resize_2/000642_2014-06-08_16-59-25_260595134347_rgbf000098-resize_2-target.png,1000,2.8815,2,6634,1000,meters,jsons/v1_VE1000_randls_42_rotated.json,1310105,1597247,33,Woman
113,235866,DepthScenes,duration_manipulation_targetAtFixation,jsons/v1_VE1000_randls_42_rotated.json,http://54.235.29.9/FacialAge/BNav_EC2/DepthDuration/v2_depth_duration_MTurk/v2_DepthDuration_HTML.html#92,92,1280,1024,1280,1024,8-22-2022,5-42-9,114,depth_duration_stimuli/000734_2014-06-08_17-39-11_260595134347_rgbf000128-resize_2/000734_2014-06-08_17-39-11_260595134347_rgbf000128-resize_2-target.png,1000,4.098,3,9214,1000,meters,jsons/v1_VE1000_randls_42_rotated.json,1310105,1597247,33,Woman
114,235866,DepthScenes,duration_manipulation_targetAtFixation,jsons/v1_VE1000_randls_42_rotated.json,http://54.235.29.9/FacialAge/BNav_EC2/DepthDuration/v2_depth_duration_MTurk/v2_DepthDuration_HTML.html#92,92,1280,1024,1280,1024,8-22-2022,5-42-9,115,depth_duration_stimuli/000739_2014-06-08_18-45-58_260595134347_rgbf000068-resize_1/000739_2014-06-08_18-45-58_260595134347_rgbf000068-resize_1-target.png,1000,3.534,2,5893,998,meters,jsons/v1_VE1000_randls_42_rotated.json,1310105,1597247,33,Woman
115,235866,DepthScenes,duration_manipulation_targetAtFixation,jsons/v1_VE1000_randls_42_rotated.json,http://54.235.29.9/FacialAge/BNav_EC2/DepthDuration/v2_depth_duration_MTurk/v2_DepthDuration_HTML.html#92,92,1280,1024,1280,1024,8-22-2022,5-42-9,116,depth_duration_stimuli/000927_2014-06-09_16-32-30_260595134347_rgbf000123-resize_3/000927_2014-06-09_16-32-30_260595134347_rgbf000123-resize_3-target.png,1000,2.6785,2,7743,999,meters,jsons/v1_VE1000_randls_42_rotated.json,1310105,1597247,33,Woman
116,235866,DepthScenes,duration_manipulation_targetAtFixation,jsons/v1_VE1000_randls_42_rotated.json,http://54.235.29.9/FacialAge/BNav_EC2/DepthDuration/v2_depth_duration_MTurk/v2_DepthDuration_HTML.html#92,92,1280,1024,1280,1024,8-22-2022,5-42-9,117,depth_duration_stimuli/001110_2014-06-15_17-25-28_260595134347_rgbf000150-resize_1/001110_2014-06-15_17-25-28_260595134347_rgbf000150-resize_1-target.png,1000,1.7115,2,6062,1001,meters,jsons/v1_VE1000_randls_42_rotated.json,1310105,1597247,33,Woman
117,235866,DepthScenes,duration_manipulation_targetAtFixation,jsons/v1_VE1000_randls_42_rotated.json,http://54.235.29.9/FacialAge/BNav_EC2/DepthDuration/v2_depth_duration_MTurk/v2_DepthDuration_HTML.html#92,92,1280,1024,1280,1024,8-22-2022,5-42-9,118,depth_duration_stimuli/003079_2014-06-15_15-18-20_094959634447_rgbf000152-resize_8/003079_2014-06-15_15-18-20_094959634447_rgbf000152-resize_8-target.png,1000,2.8775,3,7100,1000,meters,jsons/v1_VE1000_randls_42_rotated.json,1310105,1597247,33,Woman
118,235866,DepthScenes,duration_manipulation_targetAtFixation,jsons/v1_VE1000_randls_42_rotated.json,http://54.235.29.9/FacialAge/BNav_EC2/DepthDuration/v2_depth_duration_MTurk/v2_DepthDuration_HTML.html#92,92,1280,1024,1280,1024,8-22-2022,5-42-9,119,depth_duration_stimuli/000506_2014-06-08_23-21-00_260595134347_rgbf000070-resize_7/000506_2014-06-08_23-21-00_260595134347_rgbf000070-resize_7-target.png,1000,4.0585,2,6617,1000,meters,jsons/v1_VE1000_randls_42_rotated.json,1310105,1597247,33,Woman
119,235866,DepthScenes,duration_manipulation_targetAtFixation,jsons/v1_VE1000_randls_42_rotated.json,http://54.235.29.9/FacialAge/BNav_EC2/DepthDuration/v2_depth_duration_MTurk/v2_DepthDuration_HTML.html#92,92,1280,1024,1280,1024,8-22-2022,5-42-9,120,depth_duration_stimuli/000787_2014-06-08_22-33-53_260595134347_rgbf000175-resize_1/000787_2014-06-08_22-33-53_260595134347_rgbf000175-resize-original.jpg,1000,4.784,1,5478,1001,meters,jsons/v1_VE1000_randls_42_rotated.json,1310105,1597247,33,Woman
120,235866,DepthScenes,duration_manipulation_targetAtFixation,jsons/v1_VE1000_randls_42_rotated.json,http://54.235.29.9/FacialAge/BNav_EC2/DepthDuration/v2_depth_duration_MTurk/v2_DepthDuration_HTML.html#92,92,1280,1024,1280,1024,8-22-2022,5-42-9,121,depth_duration_stimuli/002637_2014-06-24_14-51-13_094959634447_rgbf000066-resize_4/002637_2014-06-24_14-51-13_094959634447_rgbf000066-resize_4-target.png,1000,1.9955,2,6592,1000,meters,jsons/v1_VE1000_randls_42_rotated.json,1310105,1597247,33,Woman
121,235866,DepthScenes,duration_manipulation_targetAtFixation,jsons/v1_VE1000_randls_42_rotated.json,http://54.235.29.9/FacialAge/BNav_EC2/DepthDuration/v2_depth_duration_MTurk/v2_DepthDuration_HTML.html#92,92,1280,1024,1280,1024,8-22-2022,5-42-9,122,depth_duration_stimuli/003534_2014-05-22_15-06-10_094959634447_rgbf000102-resize_4/003534_2014-05-22_15-06-10_094959634447_rgbf000102-resize_4-target.png,1000,1.426,1,12177,999,meters,jsons/v1_VE1000_randls_42_rotated.json,1310105,1597247,33,Woman
122,235866,DepthScenes,duration_manipulation_targetAtFixation,jsons/v1_VE1000_randls_42_rotated.json,http://54.235.29.9/FacialAge/BNav_EC2/DepthDuration/v2_depth_duration_MTurk/v2_DepthDuration_HTML.html#92,92,1280,1024,1280,1024,8-22-2022,5-42-9,123,depth_duration_stimuli/002995_2014-06-15_12-31-26_094959634447_rgbf000150-resize_1/002995_2014-06-15_12-31-26_094959634447_rgbf000150-resize_1-target.png,1000,3.8360000000000003,1,8946,999,meters,jsons/v1_VE1000_randls_42_rotated.json,1310105,1597247,33,Woman
123,235866,DepthScenes,duration_manipulation_targetAtFixation,jsons/v1_VE1000_randls_42_rotated.json,http://54.235.29.9/FacialAge/BNav_EC2/DepthDuration/v2_depth_duration_MTurk/v2_DepthDuration_HTML.html#92,92,1280,1024,1280,1024,8-22-2022,5-42-9,124,depth_duration_stimuli/002748_2014-06-22_19-07-22_094959634447_rgbf000078-resize_1/002748_2014-06-22_19-07-22_094959634447_rgbf000078-resize_1-target.png,1000,4.6705,2,7992,999,meters,jsons/v1_VE1000_randls_42_rotated.json,1310105,1597247,33,Woman
124,235866,DepthScenes,duration_manipulation_targetAtFixation,jsons/v1_VE1000_randls_42_rotated.json,http://54.235.29.9/FacialAge/BNav_EC2/DepthDuration/v2_depth_duration_MTurk/v2_DepthDuration_HTML.html#92,92,1280,1024,1280,1024,8-22-2022,5-42-9,125,depth_duration_stimuli/000549_2014-06-08_22-10-24_260595134347_rgbf000247-resize_3/000549_2014-06-08_22-10-24_260595134347_rgbf000247-resize_3-target.png,1000,1.841,2,10302,999,meters,jsons/v1_VE1000_randls_42_rotated.json,1310105,1597247,33,Woman
125,235866,DepthScenes,duration_manipulation_targetAtFixation,jsons/v1_VE1000_randls_42_rotated.json,http://54.235.29.9/FacialAge/BNav_EC2/DepthDuration/v2_depth_duration_MTurk/v2_DepthDuration_HTML.html#92,92,1280,1024,1280,1024,8-22-2022,5-42-9,126,depth_duration_stimuli/001055_2014-06-08_18-45-35_260595134347_rgbf000111-resize_4/001055_2014-06-08_18-45-35_260595134347_rgbf000111-resize_4-target.png,1000,2.4290000000000003,2,6329,999,meters,jsons/v1_VE1000_randls_42_rotated.json,1310105,1597247,33,Woman
126,235866,DepthScenes,duration_manipulation_targetAtFixation,jsons/v1_VE1000_randls_42_rotated.json,http://54.235.29.9/FacialAge/BNav_EC2/DepthDuration/v2_depth_duration_MTurk/v2_DepthDuration_HTML.html#92,92,1280,1024,1280,1024,8-22-2022,5-42-9,127,depth_duration_stimuli/002209_2014-06-28_18-36-10_260595134347_rgbf000051-resize_1/002209_2014-06-28_18-36-10_260595134347_rgbf000051-resize_1-target.png,1000,2.057,2,5280,999,meters,jsons/v1_VE1000_randls_42_rotated.json,1310105,1597247,33,Woman
127,235866,DepthScenes,duration_manipulation_targetAtFixation,jsons/v1_VE1000_randls_42_rotated.json,http://54.235.29.9/FacialAge/BNav_EC2/DepthDuration/v2_depth_duration_MTurk/v2_DepthDuration_HTML.html#92,92,1280,1024,1280,1024,8-22-2022,5-42-9,128,depth_duration_stimuli/002763_2014-06-22_19-13-10_094959634447_rgbf000075-resize_4/002763_2014-06-22_19-13-10_094959634447_rgbf000075-resize_4-target.png,1000,1.68375,2,3676,999,meters,jsons/v1_VE1000_randls_42_rotated.json,1310105,1597247,33,Woman
128,235866,DepthScenes,duration_manipulation_targetAtFixation,jsons/v1_VE1000_randls_42_rotated.json,http://54.235.29.9/FacialAge/BNav_EC2/DepthDuration/v2_depth_duration_MTurk/v2_DepthDuration_HTML.html#92,92,1280,1024,1280,1024,8-22-2022,5-42-9,129,depth_duration_stimuli/002678_2014-06-13_16-15-32_094959634447_rgbf000151-resize_6/002678_2014-06-13_16-15-32_094959634447_rgbf000151-resize_6-target.png,1000,2.1830000000000003,2,6740,1000,meters,jsons/v1_VE1000_randls_42_rotated.json,1310105,1597247,33,Woman
129,235866,DepthScenes,duration_manipulation_targetAtFixation,jsons/v1_VE1000_randls_42_rotated.json,http://54.235.29.9/FacialAge/BNav_EC2/DepthDuration/v2_depth_duration_MTurk/v2_DepthDuration_HTML.html#92,92,1280,1024,1280,1024,8-22-2022,5-42-9,130,depth_duration_stimuli/000368_2014-06-09_15-53-01_260595134347_rgbf000155-resize_2/000368_2014-06-09_15-53-01_260595134347_rgbf000155-resize_2-target.png,1000,2.4859999999999998,2,5045,1000,meters,jsons/v1_VE1000_randls_42_rotated.json,1310105,1597247,33,Woman
130,235866,DepthScenes,duration_manipulation_targetAtFixation,jsons/v1_VE1000_randls_42_rotated.json,http://54.235.29.9/FacialAge/BNav_EC2/DepthDuration/v2_depth_duration_MTurk/v2_DepthDuration_HTML.html#92,92,1280,1024,1280,1024,8-22-2022,5-42-9,131,depth_duration_stimuli/003081_2014-06-15_15-19-16_094959634447_rgbf000150-resize_1/003081_2014-06-15_15-19-16_094959634447_rgbf000150-resize_1-target.png,1000,3.9125,2,6048,999,meters,jsons/v1_VE1000_randls_42_rotated.json,1310105,1597247,33,Woman
131,235866,DepthScenes,duration_manipulation_targetAtFixation,jsons/v1_VE1000_randls_42_rotated.json,http://54.235.29.9/FacialAge/BNav_EC2/DepthDuration/v2_depth_duration_MTurk/v2_DepthDuration_HTML.html#92,92,1280,1024,1280,1024,8-22-2022,5-42-9,132,depth_duration_stimuli/001417_2014-06-19_16-25-36_260595134347_rgbf000115-resize_5/001417_2014-06-19_16-25-36_260595134347_rgbf000115-resize_5-target.png,1000,4.6255,3,6347,1000,meters,jsons/v1_VE1000_randls_42_rotated.json,1310105,1597247,33,Woman
132,235866,DepthScenes,duration_manipulation_targetAtFixation,jsons/v1_VE1000_randls_42_rotated.json,http://54.235.29.9/FacialAge/BNav_EC2/DepthDuration/v2_depth_duration_MTurk/v2_DepthDuration_HTML.html#92,92,1280,1024,1280,1024,8-22-2022,5-42-9,133,depth_duration_stimuli/003083_2014-06-15_15-21-03_094959634447_rgbf000063-resize_1/003083_2014-06-15_15-21-03_094959634447_rgbf000063-resize_1-target.png,1000,4.1405,3,6995,1000,meters,jsons/v1_VE1000_randls_42_rotated.json,1310105,1597247,33,Woman
133,235866,DepthScenes,duration_manipulation_targetAtFixation,jsons/v1_VE1000_randls_42_rotated.json,http://54.235.29.9/FacialAge/BNav_EC2/DepthDuration/v2_depth_duration_MTurk/v2_DepthDuration_HTML.html#92,92,1280,1024,1280,1024,8-22-2022,5-42-9,134,depth_duration_stimuli/000486_2014-06-09_20-47-20_260595134347_rgbf000143-resize_2/000486_2014-06-09_20-47-20_260595134347_rgbf000143-resize_2-target.png,1000,4.8325,2,54372,1000,meters,jsons/v1_VE1000_randls_42_rotated.json,1310105,1597247,33,Woman
134,235866,DepthScenes,duration_manipulation_targetAtFixation,jsons/v1_VE1000_randls_42_rotated.json,http://54.235.29.9/FacialAge/BNav_EC2/DepthDuration/v2_depth_duration_MTurk/v2_DepthDuration_HTML.html#92,92,1280,1024,1280,1024,8-22-2022,5-42-9,135,depth_duration_stimuli/000375_2014-06-08_11-17-29_260595134347_rgbf000133-resize_2/000375_2014-06-08_11-17-29_260595134347_rgbf000133-resize-original.jpg,1000,4.718,0,5321,1000,meters,jsons/v1_VE1000_randls_42_rotated.json,1310105,1597247,33,Woman
135,235866,DepthScenes,duration_manipulation_targetAtFixation,jsons/v1_VE1000_randls_42_rotated.json,http://54.235.29.9/FacialAge/BNav_EC2/DepthDuration/v2_depth_duration_MTurk/v2_DepthDuration_HTML.html#92,92,1280,1024,1280,1024,8-22-2022,5-42-9,136,depth_duration_stimuli/002344_2014-06-28_20-06-29_260595134347_rgbf000030-resize_1/002344_2014-06-28_20-06-29_260595134347_rgbf000030-resize_1-target.png,1000,1.5795,2,5131,999,meters,jsons/v1_VE1000_randls_42_rotated.json,1310105,1597247,33,Woman
136,235866,DepthScenes,duration_manipulation_targetAtFixation,jsons/v1_VE1000_randls_42_rotated.json,http://54.235.29.9/FacialAge/BNav_EC2/DepthDuration/v2_depth_duration_MTurk/v2_DepthDuration_HTML.html#92,92,1280,1024,1280,1024,8-22-2022,5-42-9,137,depth_duration_stimuli/002725_2014-06-22_11-47-51_094959634447_rgbf000070-resize_1/002725_2014-06-22_11-47-51_094959634447_rgbf000070-resize_1-target.png,1000,2.195,3,5981,1000,meters,jsons/v1_VE1000_randls_42_rotated.json,1310105,1597247,33,Woman
137,235866,DepthScenes,duration_manipulation_targetAtFixation,jsons/v1_VE1000_randls_42_rotated.json,http://54.235.29.9/FacialAge/BNav_EC2/DepthDuration/v2_depth_duration_MTurk/v2_DepthDuration_HTML.html#92,92,1280,1024,1280,1024,8-22-2022,5-42-9,138,depth_duration_stimuli/000742_2014-06-08_18-48-09_260595134347_rgbf000164-resize_4/000742_2014-06-08_18-48-09_260595134347_rgbf000164-resize_4-target.png,1000,4.632,2,10588,999,meters,jsons/v1_VE1000_randls_42_rotated.json,1310105,1597247,33,Woman
138,235866,DepthScenes,duration_manipulation_targetAtFixation,jsons/v1_VE1000_randls_42_rotated.json,http://54.235.29.9/FacialAge/BNav_EC2/DepthDuration/v2_depth_duration_MTurk/v2_DepthDuration_HTML.html#92,92,1280,1024,1280,1024,8-22-2022,5-42-9,139,depth_duration_stimuli/001066_2014-06-08_22-03-20_260595134347_rgbf000066-resize_4/001066_2014-06-08_22-03-20_260595134347_rgbf000066-resize_4-target.png,1000,4.2330000000000005,3,4052,1001,meters,jsons/v1_VE1000_randls_42_rotated.json,1310105,1597247,33,Woman
139,235866,DepthScenes,duration_manipulation_targetAtFixation,jsons/v1_VE1000_randls_42_rotated.json,http://54.235.29.9/FacialAge/BNav_EC2/DepthDuration/v2_depth_duration_MTurk/v2_DepthDuration_HTML.html#92,92,1280,1024,1280,1024,8-22-2022,5-42-9,140,depth_duration_stimuli/003495_2014-05-21_16-01-51_094959634447_rgbf000100-resize_3/003495_2014-05-21_16-01-51_094959634447_rgbf000100-resize_3-target.png,1000,1.6255,2,4552,1000,meters,jsons/v1_VE1000_randls_42_rotated.json,1310105,1597247,33,Woman
140,235866,DepthScenes,duration_manipulation_targetAtFixation,jsons/v1_VE1000_randls_42_rotated.json,http://54.235.29.9/FacialAge/BNav_EC2/DepthDuration/v2_depth_duration_MTurk/v2_DepthDuration_HTML.html#92,92,1280,1024,1280,1024,8-22-2022,5-42-9,141,depth_duration_stimuli/001244_2014-06-17_16-47-45_260595134347_rgbf000030-resize_4/001244_2014-06-17_16-47-45_260595134347_rgbf000030-resize_4-target.png,1000,2.0425,1,3923,999,meters,jsons/v1_VE1000_randls_42_rotated.json,1310105,1597247,33,Woman
141,235866,DepthScenes,duration_manipulation_targetAtFixation,jsons/v1_VE1000_randls_42_rotated.json,http://54.235.29.9/FacialAge/BNav_EC2/DepthDuration/v2_depth_duration_MTurk/v2_DepthDuration_HTML.html#92,92,1280,1024,1280,1024,8-22-2022,5-42-9,142,depth_duration_stimuli/003338_2014-05-20_11-01-23_094959634447_rgbf000051-resize_6/003338_2014-05-20_11-01-23_094959634447_rgbf000051-resize_6-target.png,1000,1.693,1,4532,1000,meters,jsons/v1_VE1000_randls_42_rotated.json,1310105,1597247,33,Woman
142,235866,DepthScenes,duration_manipulation_targetAtFixation,jsons/v1_VE1000_randls_42_rotated.json,http://54.235.29.9/FacialAge/BNav_EC2/DepthDuration/v2_depth_duration_MTurk/v2_DepthDuration_HTML.html#92,92,1280,1024,1280,1024,8-22-2022,5-42-9,143,depth_duration_stimuli/002509_2014-06-24_13-19-22_094959634447_rgbf000077-resize_0/002509_2014-06-24_13-19-22_094959634447_rgbf000077-resize_0-target.png,1000,1.3065,2,3898,999,meters,jsons/v1_VE1000_randls_42_rotated.json,1310105,1597247,33,Woman
143,235866,DepthScenes,duration_manipulation_targetAtFixation,jsons/v1_VE1000_randls_42_rotated.json,http://54.235.29.9/FacialAge/BNav_EC2/DepthDuration/v2_depth_duration_MTurk/v2_DepthDuration_HTML.html#92,92,1280,1024,1280,1024,8-22-2022,5-42-9,144,depth_duration_stimuli/000556_2014-06-09_22-42-56_260595134347_rgbf000214-resize_1/000556_2014-06-09_22-42-56_260595134347_rgbf000214-resize_1-target.png,1000,4.8415,2,8348,999,meters,jsons/v1_VE1000_randls_42_rotated.json,1310105,1597247,33,Woman
144,235866,DepthScenes,duration_manipulation_targetAtFixation,jsons/v1_VE1000_randls_42_rotated.json,http://54.235.29.9/FacialAge/BNav_EC2/DepthDuration/v2_depth_duration_MTurk/v2_DepthDuration_HTML.html#92,92,1280,1024,1280,1024,8-22-2022,5-42-9,145,depth_duration_stimuli/001158_2014-06-17_15-32-16_260595134347_rgbf000138-resize_2/001158_2014-06-17_15-32-16_260595134347_rgbf000138-resize_2-target.png,1000,4.5315,1,4281,1001,meters,jsons/v1_VE1000_randls_42_rotated.json,1310105,1597247,33,Woman
145,235866,DepthScenes,duration_manipulation_targetAtFixation,jsons/v1_VE1000_randls_42_rotated.json,http://54.235.29.9/FacialAge/BNav_EC2/DepthDuration/v2_depth_duration_MTurk/v2_DepthDuration_HTML.html#92,92,1280,1024,1280,1024,8-22-2022,5-42-9,146,depth_duration_stimuli/001136_2014-06-17_15-19-41_260595134347_rgbf000076-resize_3/001136_2014-06-17_15-19-41_260595134347_rgbf000076-resize_3-target.png,1000,1.8655,2,6805,998,meters,jsons/v1_VE1000_randls_42_rotated.json,1310105,1597247,33,Woman
146,235866,DepthScenes,duration_manipulation_targetAtFixation,jsons/v1_VE1000_randls_42_rotated.json,http://54.235.29.9/FacialAge/BNav_EC2/DepthDuration/v2_depth_duration_MTurk/v2_DepthDuration_HTML.html#92,92,1280,1024,1280,1024,8-22-2022,5-42-9,147,depth_duration_stimuli/001164_2014-06-17_15-35-46_260595134347_rgbf000085-resize_3/001164_2014-06-17_15-35-46_260595134347_rgbf000085-resize_3-target.png,1000,2.354,0,4097,999,meters,jsons/v1_VE1000_randls_42_rotated.json,1310105,1597247,33,Woman
147,235866,DepthScenes,duration_manipulation_targetAtFixation,jsons/v1_VE1000_randls_42_rotated.json,http://54.235.29.9/FacialAge/BNav_EC2/DepthDuration/v2_depth_duration_MTurk/v2_DepthDuration_HTML.html#92,92,1280,1024,1280,1024,8-22-2022,5-42-9,148,depth_duration_stimuli/000103_2014-05-14_22-01-17_260595134347_rgbf000152-resize_5/000103_2014-05-14_22-01-17_260595134347_rgbf000152-resize_5-target.png,1000,1.993,1,5254,999,meters,jsons/v1_VE1000_randls_42_rotated.json,1310105,1597247,33,Woman
148,235866,DepthScenes,duration_manipulation_targetAtFixation,jsons/v1_VE1000_randls_42_rotated.json,http://54.235.29.9/FacialAge/BNav_EC2/DepthDuration/v2_depth_duration_MTurk/v2_DepthDuration_HTML.html#92,92,1280,1024,1280,1024,8-22-2022,5-42-9,149,depth_duration_stimuli/001555_2014-06-20_17-12-10_260595134347_rgbf000065-resize_4/001555_2014-06-20_17-12-10_260595134347_rgbf000065-resize_4-target.png,1000,1.633,2,5385,1001,meters,jsons/v1_VE1000_randls_42_rotated.json,1310105,1597247,33,Woman
149,235866,DepthScenes,duration_manipulation_targetAtFixation,jsons/v1_VE1000_randls_42_rotated.json,http://54.235.29.9/FacialAge/BNav_EC2/DepthDuration/v2_depth_duration_MTurk/v2_DepthDuration_HTML.html#92,92,1280,1024,1280,1024,8-22-2022,5-42-9,150,depth_duration_stimuli/000709_2014-06-08_13-51-55_260595134347_rgbf000068-resize_3/000709_2014-06-08_13-51-55_260595134347_rgbf000068-resize_3-target.png,1000,1.8030000000000002,2,5381,1001,meters,jsons/v1_VE1000_randls_42_rotated.json,1310105,1597247,33,Woman
150,235866,DepthScenes,duration_manipulation_targetAtFixation,jsons/v1_VE1000_randls_42_rotated.json,http://54.235.29.9/FacialAge/BNav_EC2/DepthDuration/v2_depth_duration_MTurk/v2_DepthDuration_HTML.html#92,92,1280,1024,1280,1024,8-22-2022,5-42-9,151,depth_duration_stimuli/002057_2014-06-24_21-00-13_260595134347_rgbf000120-resize_1/002057_2014-06-24_21-00-13_260595134347_rgbf000120-resize_1-target.png,1000,2.967,1,4357,1000,meters,jsons/v1_VE1000_randls_42_rotated.json,1310105,1597247,33,Woman
151,235866,DepthScenes,duration_manipulation_targetAtFixation,jsons/v1_VE1000_randls_42_rotated.json,http://54.235.29.9/FacialAge/BNav_EC2/DepthDuration/v2_depth_duration_MTurk/v2_DepthDuration_HTML.html#92,92,1280,1024,1280,1024,8-22-2022,5-42-9,152,depth_duration_stimuli/000569_2014-06-09_22-51-47_260595134347_rgbf000141-resize_3/000569_2014-06-09_22-51-47_260595134347_rgbf000141-resize-original.jpg,1000,4.512,0,7446,1000,meters,jsons/v1_VE1000_randls_42_rotated.json,1310105,1597247,33,Woman
152,235866,DepthScenes,duration_manipulation_targetAtFixation,jsons/v1_VE1000_randls_42_rotated.json,http://54.235.29.9/FacialAge/BNav_EC2/DepthDuration/v2_depth_duration_MTurk/v2_DepthDuration_HTML.html#92,92,1280,1024,1280,1024,8-22-2022,5-42-9,153,depth_duration_stimuli/000866_2014-06-09_20-45-42_260595134347_rgbf000139-resize_1/000866_2014-06-09_20-45-42_260595134347_rgbf000139-resize_1-target.png,1000,3.2155,2,7861,1000,meters,jsons/v1_VE1000_randls_42_rotated.json,1310105,1597247,33,Woman
153,235866,DepthScenes,duration_manipulation_targetAtFixation,jsons/v1_VE1000_randls_42_rotated.json,http://54.235.29.9/FacialAge/BNav_EC2/DepthDuration/v2_depth_duration_MTurk/v2_DepthDuration_HTML.html#92,92,1280,1024,1280,1024,8-22-2022,5-42-9,154,depth_duration_stimuli/002989_2014-06-15_12-25-03_094959634447_rgbf000150-resize_3/002989_2014-06-15_12-25-03_094959634447_rgbf000150-resize_3-target.png,1000,4.1975,2,3963,1001,meters,jsons/v1_VE1000_randls_42_rotated.json,1310105,1597247,33,Woman
154,235866,DepthScenes,duration_manipulation_targetAtFixation,jsons/v1_VE1000_randls_42_rotated.json,http://54.235.29.9/FacialAge/BNav_EC2/DepthDuration/v2_depth_duration_MTurk/v2_DepthDuration_HTML.html#92,92,1280,1024,1280,1024,8-22-2022,5-42-9,155,depth_duration_stimuli/002657_2014-06-13_15-29-54_094959634447_rgbf000150-resize_1/002657_2014-06-13_15-29-54_094959634447_rgbf000150-resize_1-target.png,1000,4.919,2,5685,1001,meters,jsons/v1_VE1000_randls_42_rotated.json,1310105,1597247,33,Woman
155,235866,DepthScenes,duration_manipulation_targetAtFixation,jsons/v1_VE1000_randls_42_rotated.json,http://54.235.29.9/FacialAge/BNav_EC2/DepthDuration/v2_depth_duration_MTurk/v2_DepthDuration_HTML.html#92,92,1280,1024,1280,1024,8-22-2022,5-42-9,156,depth_duration_stimuli/002375_2014-06-28_20-13-44_260595134347_rgbf000032-resize_1/002375_2014-06-28_20-13-44_260595134347_rgbf000032-resize_1-target.png,1000,4.0175,2,4880,1000,meters,jsons/v1_VE1000_randls_42_rotated.json,1310105,1597247,33,Woman
156,235866,DepthScenes,duration_manipulation_targetAtFixation,jsons/v1_VE1000_randls_42_rotated.json,http://54.235.29.9/FacialAge/BNav_EC2/DepthDuration/v2_depth_duration_MTurk/v2_DepthDuration_HTML.html#92,92,1280,1024,1280,1024,8-22-2022,5-42-9,157,depth_duration_stimuli/001571_2014-06-20_17-21-32_260595134347_rgbf000089-resize_1/001571_2014-06-20_17-21-32_260595134347_rgbf000089-resize_1-target.png,1000,1.86,2,5100,999,meters,jsons/v1_VE1000_randls_42_rotated.json,1310105,1597247,33,Woman
157,235866,DepthScenes,duration_manipulation_targetAtFixation,jsons/v1_VE1000_randls_42_rotated.json,http://54.235.29.9/FacialAge/BNav_EC2/DepthDuration/v2_depth_duration_MTurk/v2_DepthDuration_HTML.html#92,92,1280,1024,1280,1024,8-22-2022,5-42-9,158,depth_duration_stimuli/002272_2014-06-28_18-53-56_260595134347_rgbf000067-resize_2/002272_2014-06-28_18-53-56_260595134347_rgbf000067-resize_2-target.png,1000,1.138,3,4393,999,meters,jsons/v1_VE1000_randls_42_rotated.json,1310105,1597247,33,Woman
158,235866,DepthScenes,duration_manipulation_targetAtFixation,jsons/v1_VE1000_randls_42_rotated.json,http://54.235.29.9/FacialAge/BNav_EC2/DepthDuration/v2_depth_duration_MTurk/v2_DepthDuration_HTML.html#92,92,1280,1024,1280,1024,8-22-2022,5-42-9,159,depth_duration_stimuli/001650_2014-06-20_12-09-00_260595134347_rgbf000087-resize_3/001650_2014-06-20_12-09-00_260595134347_rgbf000087-resize_3-target.png,1000,1.9505,2,5482,1000,meters,jsons/v1_VE1000_randls_42_rotated.json,1310105,1597247,33,Woman
159,235866,DepthScenes,duration_manipulation_targetAtFixation,jsons/v1_VE1000_randls_42_rotated.json,http://54.235.29.9/FacialAge/BNav_EC2/DepthDuration/v2_depth_duration_MTurk/v2_DepthDuration_HTML.html#92,92,1280,1024,1280,1024,8-22-2022,5-42-9,160,depth_duration_stimuli/000682_2014-06-08_23-14-58_260595134347_rgbf000041-resize_5/000682_2014-06-08_23-14-58_260595134347_rgbf000041-resize_5-target.png,1000,2.7239999999999998,2,8840,999,meters,jsons/v1_VE1000_randls_42_rotated.json,1310105,1597247,33,Woman
160,235866,DepthScenes,duration_manipulation_targetAtFixation,jsons/v1_VE1000_randls_42_rotated.json,http://54.235.29.9/FacialAge/BNav_EC2/DepthDuration/v2_depth_duration_MTurk/v2_DepthDuration_HTML.html#92,92,1280,1024,1280,1024,8-22-2022,5-42-9,161,depth_duration_stimuli/003228_2014-05-14_13-42-35_094959634447_rgbf000101-resize_1/003228_2014-05-14_13-42-35_094959634447_rgbf000101-resize_1-target.png,1000,1.9680000000000002,2,4554,999,meters,jsons/v1_VE1000_randls_42_rotated.json,1310105,1597247,33,Woman
161,235866,DepthScenes,duration_manipulation_targetAtFixation,jsons/v1_VE1000_randls_42_rotated.json,http://54.235.29.9/FacialAge/BNav_EC2/DepthDuration/v2_depth_duration_MTurk/v2_DepthDuration_HTML.html#92,92,1280,1024,1280,1024,8-22-2022,5-42-9,162,depth_duration_stimuli/002600_2014-06-24_14-27-04_094959634447_rgbf000074-resize_2/002600_2014-06-24_14-27-04_094959634447_rgbf000074-resize_2-target.png,1000,2.7575,3,5492,999,meters,jsons/v1_VE1000_randls_42_rotated.json,1310105,1597247,33,Woman
162,235866,DepthScenes,duration_manipulation_targetAtFixation,jsons/v1_VE1000_randls_42_rotated.json,http://54.235.29.9/FacialAge/BNav_EC2/DepthDuration/v2_depth_duration_MTurk/v2_DepthDuration_HTML.html#92,92,1280,1024,1280,1024,8-22-2022,5-42-9,163,depth_duration_stimuli/000854_2014-06-09_19-43-13_260595134347_rgbf000066-resize_0/000854_2014-06-09_19-43-13_260595134347_rgbf000066-resize_0-target.png,1000,3.068,2,9153,999,meters,jsons/v1_VE1000_randls_42_rotated.json,1310105,1597247,33,Woman
163,235866,DepthScenes,duration_manipulation_targetAtFixation,jsons/v1_VE1000_randls_42_rotated.json,http://54.235.29.9/FacialAge/BNav_EC2/DepthDuration/v2_depth_duration_MTurk/v2_DepthDuration_HTML.html#92,92,1280,1024,1280,1024,8-22-2022,5-42-9,164,depth_duration_stimuli/000758_2014-06-08_22-05-08_260595134347_rgbf000085-resize_0/000758_2014-06-08_22-05-08_260595134347_rgbf000085-resize_0-target.png,1000,3.3810000000000002,3,16161,1000,meters,jsons/v1_VE1000_randls_42_rotated.json,1310105,1597247,33,Woman
