,subjID,experimentName,versionName,sequenceName,url,selected_row,windowWidth,windowHeight,screenWidth,screenHeight,startDate,startTime,trial,stimulus,duration,actual_depth,depth_estimate,trial_RT,log_sceneDuration,unitSelection,seq_filepath,experimentTime,totalTime,age,gender
0,236494,DepthScenes,duration_manipulation_targetAtFixation,jsons/v1_VE250_randls_61.json,http://54.235.29.9/FacialAge/BNav_EC2/DepthDuration/v2_depth_duration_MTurk/v2_DepthDuration_HTML.html#381,381,1366,657,1366,768,9-21-2022,15-56-43,1,depth_duration_stimuli/000447_2014-06-08_16-15-46_260595134347_rgbf000130-resize_1/000447_2014-06-08_16-15-46_260595134347_rgbf000130-resize_1-target.png,250,4.479,10,6329,248,meters,jsons/v1_VE250_randls_61.json,1158465,1369210,40,Woman
1,236494,DepthScenes,duration_manipulation_targetAtFixation,jsons/v1_VE250_randls_61.json,http://54.235.29.9/FacialAge/BNav_EC2/DepthDuration/v2_depth_duration_MTurk/v2_DepthDuration_HTML.html#381,381,1366,657,1366,768,9-21-2022,15-56-43,2,depth_duration_stimuli/001447_2014-06-19_17-00-32_260595134347_rgbf000082-resize_5/001447_2014-06-19_17-00-32_260595134347_rgbf000082-resize_5-target.png,250,4.13775,8,3771,249,meters,jsons/v1_VE250_randls_61.json,1158465,1369210,40,Woman
2,236494,DepthScenes,duration_manipulation_targetAtFixation,jsons/v1_VE250_randls_61.json,http://54.235.29.9/FacialAge/BNav_EC2/DepthDuration/v2_depth_duration_MTurk/v2_DepthDuration_HTML.html#381,381,1366,657,1366,768,9-21-2022,15-56-43,3,depth_duration_stimuli/001244_2014-06-17_16-47-45_260595134347_rgbf000030-resize_4/001244_2014-06-17_16-47-45_260595134347_rgbf000030-resize_4-target.png,250,2.0425,10,8520,248,meters,jsons/v1_VE250_randls_61.json,1158465,1369210,40,Woman
3,236494,DepthScenes,duration_manipulation_targetAtFixation,jsons/v1_VE250_randls_61.json,http://54.235.29.9/FacialAge/BNav_EC2/DepthDuration/v2_depth_duration_MTurk/v2_DepthDuration_HTML.html#381,381,1366,657,1366,768,9-21-2022,15-56-43,4,depth_duration_stimuli/003495_2014-05-21_16-01-51_094959634447_rgbf000100-resize_3/003495_2014-05-21_16-01-51_094959634447_rgbf000100-resize_3-target.png,250,1.6255,4,3354,158,meters,jsons/v1_VE250_randls_61.json,1158465,1369210,40,Woman
4,236494,DepthScenes,duration_manipulation_targetAtFixation,jsons/v1_VE250_randls_61.json,http://54.235.29.9/FacialAge/BNav_EC2/DepthDuration/v2_depth_duration_MTurk/v2_DepthDuration_HTML.html#381,381,1366,657,1366,768,9-21-2022,15-56-43,5,depth_duration_stimuli/001066_2014-06-08_22-03-20_260595134347_rgbf000066-resize_4/001066_2014-06-08_22-03-20_260595134347_rgbf000066-resize_4-target.png,250,4.2330000000000005,12,5617,84,meters,jsons/v1_VE250_randls_61.json,1158465,1369210,40,Woman
5,236494,DepthScenes,duration_manipulation_targetAtFixation,jsons/v1_VE250_randls_61.json,http://54.235.29.9/FacialAge/BNav_EC2/DepthDuration/v2_depth_duration_MTurk/v2_DepthDuration_HTML.html#381,381,1366,657,1366,768,9-21-2022,15-56-43,6,depth_duration_stimuli/000742_2014-06-08_18-48-09_260595134347_rgbf000164-resize_4/000742_2014-06-08_18-48-09_260595134347_rgbf000164-resize_4-target.png,250,4.632,6,5542,248,meters,jsons/v1_VE250_randls_61.json,1158465,1369210,40,Woman
6,236494,DepthScenes,duration_manipulation_targetAtFixation,jsons/v1_VE250_randls_61.json,http://54.235.29.9/FacialAge/BNav_EC2/DepthDuration/v2_depth_duration_MTurk/v2_DepthDuration_HTML.html#381,381,1366,657,1366,768,9-21-2022,15-56-43,7,depth_duration_stimuli/002905_2014-06-03_18-04-43_094959634447_rgbf000151-resize_2/002905_2014-06-03_18-04-43_094959634447_rgbf000151-resize_2-target.png,250,2.0295,8,3924,250,meters,jsons/v1_VE250_randls_61.json,1158465,1369210,40,Woman
7,236494,DepthScenes,duration_manipulation_targetAtFixation,jsons/v1_VE250_randls_61.json,http://54.235.29.9/FacialAge/BNav_EC2/DepthDuration/v2_depth_duration_MTurk/v2_DepthDuration_HTML.html#381,381,1366,657,1366,768,9-21-2022,15-56-43,8,depth_duration_stimuli/003423_2014-05-21_10-23-26_094959634447_rgbf002665-resize_2/003423_2014-05-21_10-23-26_094959634447_rgbf002665-resize_2-target.png,250,3.2575,6,3531,249,meters,jsons/v1_VE250_randls_61.json,1158465,1369210,40,Woman
8,236494,DepthScenes,duration_manipulation_targetAtFixation,jsons/v1_VE250_randls_61.json,http://54.235.29.9/FacialAge/BNav_EC2/DepthDuration/v2_depth_duration_MTurk/v2_DepthDuration_HTML.html#381,381,1366,657,1366,768,9-21-2022,15-56-43,9,depth_duration_stimuli/000692_2014-06-08_13-09-42_260595134347_rgbf000199-resize_2/000692_2014-06-08_13-09-42_260595134347_rgbf000199-resize_2-target.png,250,3.661,6,4009,247,meters,jsons/v1_VE250_randls_61.json,1158465,1369210,40,Woman
9,236494,DepthScenes,duration_manipulation_targetAtFixation,jsons/v1_VE250_randls_61.json,http://54.235.29.9/FacialAge/BNav_EC2/DepthDuration/v2_depth_duration_MTurk/v2_DepthDuration_HTML.html#381,381,1366,657,1366,768,9-21-2022,15-56-43,10,depth_duration_stimuli/001094_2014-06-15_17-36-00_260595134347_rgbf000205-resize_0/001094_2014-06-15_17-36-00_260595134347_rgbf000205-resize_0-target.png,250,4.2175,10,6819,249,meters,jsons/v1_VE250_randls_61.json,1158465,1369210,40,Woman
10,236494,DepthScenes,duration_manipulation_targetAtFixation,jsons/v1_VE250_randls_61.json,http://54.235.29.9/FacialAge/BNav_EC2/DepthDuration/v2_depth_duration_MTurk/v2_DepthDuration_HTML.html#381,381,1366,657,1366,768,9-21-2022,15-56-43,11,depth_duration_stimuli/002600_2014-06-24_14-27-04_094959634447_rgbf000074-resize_2/002600_2014-06-24_14-27-04_094959634447_rgbf000074-resize_2-target.png,250,2.7575,8,3800,302,meters,jsons/v1_VE250_randls_61.json,1158465,1369210,40,Woman
11,236494,DepthScenes,duration_manipulation_targetAtFixation,jsons/v1_VE250_randls_61.json,http://54.235.29.9/FacialAge/BNav_EC2/DepthDuration/v2_depth_duration_MTurk/v2_DepthDuration_HTML.html#381,381,1366,657,1366,768,9-21-2022,15-56-43,12,depth_duration_stimuli/003228_2014-05-14_13-42-35_094959634447_rgbf000101-resize_1/003228_2014-05-14_13-42-35_094959634447_rgbf000101-resize_1-target.png,250,1.9680000000000002,12,5823,135,meters,jsons/v1_VE250_randls_61.json,1158465,1369210,40,Woman
12,236494,DepthScenes,duration_manipulation_targetAtFixation,jsons/v1_VE250_randls_61.json,http://54.235.29.9/FacialAge/BNav_EC2/DepthDuration/v2_depth_duration_MTurk/v2_DepthDuration_HTML.html#381,381,1366,657,1366,768,9-21-2022,15-56-43,13,depth_duration_stimuli/000569_2014-06-09_22-51-47_260595134347_rgbf000141-resize_3/000569_2014-06-09_22-51-47_260595134347_rgbf000141-resize-original.jpg,250,4.512,12,5466,249,meters,jsons/v1_VE250_randls_61.json,1158465,1369210,40,Woman
13,236494,DepthScenes,duration_manipulation_targetAtFixation,jsons/v1_VE250_randls_61.json,http://54.235.29.9/FacialAge/BNav_EC2/DepthDuration/v2_depth_duration_MTurk/v2_DepthDuration_HTML.html#381,381,1366,657,1366,768,9-21-2022,15-56-43,14,depth_duration_stimuli/001449_2014-06-19_17-01-27_260595134347_rgbf000116-resize_2/001449_2014-06-19_17-01-27_260595134347_rgbf000116-resize_2-target.png,250,3.452,6,30954,248,meters,jsons/v1_VE250_randls_61.json,1158465,1369210,40,Woman
14,236494,DepthScenes,duration_manipulation_targetAtFixation,jsons/v1_VE250_randls_61.json,http://54.235.29.9/FacialAge/BNav_EC2/DepthDuration/v2_depth_duration_MTurk/v2_DepthDuration_HTML.html#381,381,1366,657,1366,768,9-21-2022,15-56-43,15,depth_duration_stimuli/001450_2014-06-19_17-02-03_260595134347_rgbf000203-resize_4/001450_2014-06-19_17-02-03_260595134347_rgbf000203-resize_4-target.png,250,4.0106666666667,10,3911,248,meters,jsons/v1_VE250_randls_61.json,1158465,1369210,40,Woman
15,236494,DepthScenes,duration_manipulation_targetAtFixation,jsons/v1_VE250_randls_61.json,http://54.235.29.9/FacialAge/BNav_EC2/DepthDuration/v2_depth_duration_MTurk/v2_DepthDuration_HTML.html#381,381,1366,657,1366,768,9-21-2022,15-56-43,16,depth_duration_stimuli/002725_2014-06-22_11-47-51_094959634447_rgbf000070-resize_1/002725_2014-06-22_11-47-51_094959634447_rgbf000070-resize_1-target.png,250,2.195,6,3460,251,meters,jsons/v1_VE250_randls_61.json,1158465,1369210,40,Woman
16,236494,DepthScenes,duration_manipulation_targetAtFixation,jsons/v1_VE250_randls_61.json,http://54.235.29.9/FacialAge/BNav_EC2/DepthDuration/v2_depth_duration_MTurk/v2_DepthDuration_HTML.html#381,381,1366,657,1366,768,9-21-2022,15-56-43,17,depth_duration_stimuli/002344_2014-06-28_20-06-29_260595134347_rgbf000030-resize_1/002344_2014-06-28_20-06-29_260595134347_rgbf000030-resize_1-target.png,250,1.5795,6,3522,248,meters,jsons/v1_VE250_randls_61.json,1158465,1369210,40,Woman
17,236494,DepthScenes,duration_manipulation_targetAtFixation,jsons/v1_VE250_randls_61.json,http://54.235.29.9/FacialAge/BNav_EC2/DepthDuration/v2_depth_duration_MTurk/v2_DepthDuration_HTML.html#381,381,1366,657,1366,768,9-21-2022,15-56-43,18,depth_duration_stimuli/002213_2014-06-28_18-37-58_260595134347_rgbf000055-resize_1/002213_2014-06-28_18-37-58_260595134347_rgbf000055-resize_1-target.png,250,3.62,5,4616,247,meters,jsons/v1_VE250_randls_61.json,1158465,1369210,40,Woman
18,236494,DepthScenes,duration_manipulation_targetAtFixation,jsons/v1_VE250_randls_61.json,http://54.235.29.9/FacialAge/BNav_EC2/DepthDuration/v2_depth_duration_MTurk/v2_DepthDuration_HTML.html#381,381,1366,657,1366,768,9-21-2022,15-56-43,19,depth_duration_stimuli/000691_2014-06-08_13-08-50_260595134347_rgbf000132-resize_3/000691_2014-06-08_13-08-50_260595134347_rgbf000132-resize_3-target.png,250,4.1530000000000005,7,3049,237,meters,jsons/v1_VE250_randls_61.json,1158465,1369210,40,Woman
19,236494,DepthScenes,duration_manipulation_targetAtFixation,jsons/v1_VE250_randls_61.json,http://54.235.29.9/FacialAge/BNav_EC2/DepthDuration/v2_depth_duration_MTurk/v2_DepthDuration_HTML.html#381,381,1366,657,1366,768,9-21-2022,15-56-43,20,depth_duration_stimuli/000436_2014-06-09_22-25-11_260595134347_rgbf000137-resize_1/000436_2014-06-09_22-25-11_260595134347_rgbf000137-resize_1-target.png,250,4.0705,8,3732,249,meters,jsons/v1_VE250_randls_61.json,1158465,1369210,40,Woman
20,236494,DepthScenes,duration_manipulation_targetAtFixation,jsons/v1_VE250_randls_61.json,http://54.235.29.9/FacialAge/BNav_EC2/DepthDuration/v2_depth_duration_MTurk/v2_DepthDuration_HTML.html#381,381,1366,657,1366,768,9-21-2022,15-56-43,21,depth_duration_stimuli/002444_2014-06-28_20-32-08_260595134347_rgbf000027-resize_0/002444_2014-06-28_20-32-08_260595134347_rgbf000027-resize_0-target.png,250,4.388999999999999,6,3368,250,meters,jsons/v1_VE250_randls_61.json,1158465,1369210,40,Woman
21,236494,DepthScenes,duration_manipulation_targetAtFixation,jsons/v1_VE250_randls_61.json,http://54.235.29.9/FacialAge/BNav_EC2/DepthDuration/v2_depth_duration_MTurk/v2_DepthDuration_HTML.html#381,381,1366,657,1366,768,9-21-2022,15-56-43,22,depth_duration_stimuli/000758_2014-06-08_22-05-08_260595134347_rgbf000085-resize_0/000758_2014-06-08_22-05-08_260595134347_rgbf000085-resize_0-target.png,250,3.3810000000000002,8,7145,211,meters,jsons/v1_VE250_randls_61.json,1158465,1369210,40,Woman
22,236494,DepthScenes,duration_manipulation_targetAtFixation,jsons/v1_VE250_randls_61.json,http://54.235.29.9/FacialAge/BNav_EC2/DepthDuration/v2_depth_duration_MTurk/v2_DepthDuration_HTML.html#381,381,1366,657,1366,768,9-21-2022,15-56-43,23,depth_duration_stimuli/000854_2014-06-09_19-43-13_260595134347_rgbf000066-resize_0/000854_2014-06-09_19-43-13_260595134347_rgbf000066-resize_0-target.png,250,3.068,7,29263,300,meters,jsons/v1_VE250_randls_61.json,1158465,1369210,40,Woman
23,236494,DepthScenes,duration_manipulation_targetAtFixation,jsons/v1_VE250_randls_61.json,http://54.235.29.9/FacialAge/BNav_EC2/DepthDuration/v2_depth_duration_MTurk/v2_DepthDuration_HTML.html#381,381,1366,657,1366,768,9-21-2022,15-56-43,24,depth_duration_stimuli/001570_2014-06-20_17-21-09_260595134347_rgbf000135-resize_4/001570_2014-06-20_17-21-09_260595134347_rgbf000135-resize_4-target.png,250,4.467,8,3141,249,meters,jsons/v1_VE250_randls_61.json,1158465,1369210,40,Woman
24,236494,DepthScenes,duration_manipulation_targetAtFixation,jsons/v1_VE250_randls_61.json,http://54.235.29.9/FacialAge/BNav_EC2/DepthDuration/v2_depth_duration_MTurk/v2_DepthDuration_HTML.html#381,381,1366,657,1366,768,9-21-2022,15-56-43,25,depth_duration_stimuli/001392_2014-06-19_16-07-59_260595134347_rgbf000046-resize_1/001392_2014-06-19_16-07-59_260595134347_rgbf000046-resize_1-target.png,250,4.135,10,6264,250,meters,jsons/v1_VE250_randls_61.json,1158465,1369210,40,Woman
25,236494,DepthScenes,duration_manipulation_targetAtFixation,jsons/v1_VE250_randls_61.json,http://54.235.29.9/FacialAge/BNav_EC2/DepthDuration/v2_depth_duration_MTurk/v2_DepthDuration_HTML.html#381,381,1366,657,1366,768,9-21-2022,15-56-43,26,depth_duration_stimuli/000682_2014-06-08_23-14-58_260595134347_rgbf000041-resize_5/000682_2014-06-08_23-14-58_260595134347_rgbf000041-resize_5-target.png,250,2.7239999999999998,6,3336,255,meters,jsons/v1_VE250_randls_61.json,1158465,1369210,40,Woman
26,236494,DepthScenes,duration_manipulation_targetAtFixation,jsons/v1_VE250_randls_61.json,http://54.235.29.9/FacialAge/BNav_EC2/DepthDuration/v2_depth_duration_MTurk/v2_DepthDuration_HTML.html#381,381,1366,657,1366,768,9-21-2022,15-56-43,27,depth_duration_stimuli/001650_2014-06-20_12-09-00_260595134347_rgbf000087-resize_3/001650_2014-06-20_12-09-00_260595134347_rgbf000087-resize_3-target.png,250,1.9505,5,3289,248,meters,jsons/v1_VE250_randls_61.json,1158465,1369210,40,Woman
27,236494,DepthScenes,duration_manipulation_targetAtFixation,jsons/v1_VE250_randls_61.json,http://54.235.29.9/FacialAge/BNav_EC2/DepthDuration/v2_depth_duration_MTurk/v2_DepthDuration_HTML.html#381,381,1366,657,1366,768,9-21-2022,15-56-43,28,depth_duration_stimuli/001175_2014-06-17_15-45-55_260595134347_rgbf000129-resize_4/001175_2014-06-17_15-45-55_260595134347_rgbf000129-resize_4-target.png,250,4.255,8,3252,250,meters,jsons/v1_VE250_randls_61.json,1158465,1369210,40,Woman
28,236494,DepthScenes,duration_manipulation_targetAtFixation,jsons/v1_VE250_randls_61.json,http://54.235.29.9/FacialAge/BNav_EC2/DepthDuration/v2_depth_duration_MTurk/v2_DepthDuration_HTML.html#381,381,1366,657,1366,768,9-21-2022,15-56-43,29,depth_duration_stimuli/003490_2014-05-21_15-50-11_094959634447_rgbf000101-resize_3/003490_2014-05-21_15-50-11_094959634447_rgbf000101-resize_3-target.png,250,3.6445,8,4843,248,meters,jsons/v1_VE250_randls_61.json,1158465,1369210,40,Woman
29,236494,DepthScenes,duration_manipulation_targetAtFixation,jsons/v1_VE250_randls_61.json,http://54.235.29.9/FacialAge/BNav_EC2/DepthDuration/v2_depth_duration_MTurk/v2_DepthDuration_HTML.html#381,381,1366,657,1366,768,9-21-2022,15-56-43,30,depth_duration_stimuli/000375_2014-06-08_11-17-29_260595134347_rgbf000133-resize_2/000375_2014-06-08_11-17-29_260595134347_rgbf000133-resize-original.jpg,250,4.718,9,3515,401,meters,jsons/v1_VE250_randls_61.json,1158465,1369210,40,Woman
30,236494,DepthScenes,duration_manipulation_targetAtFixation,jsons/v1_VE250_randls_61.json,http://54.235.29.9/FacialAge/BNav_EC2/DepthDuration/v2_depth_duration_MTurk/v2_DepthDuration_HTML.html#381,381,1366,657,1366,768,9-21-2022,15-56-43,31,depth_duration_stimuli/001011_2014-06-08_23-18-54_260595134347_rgbf000044-resize_4/001011_2014-06-08_23-18-54_260595134347_rgbf000044-resize_4-target.png,250,2.4730000000000003,7,3907,327,meters,jsons/v1_VE250_randls_61.json,1158465,1369210,40,Woman
31,236494,DepthScenes,duration_manipulation_targetAtFixation,jsons/v1_VE250_randls_61.json,http://54.235.29.9/FacialAge/BNav_EC2/DepthDuration/v2_depth_duration_MTurk/v2_DepthDuration_HTML.html#381,381,1366,657,1366,768,9-21-2022,15-56-43,32,depth_duration_stimuli/002875_2014-06-01_15-19-00_094959634447_rgbf000151-resize_1/002875_2014-06-01_15-19-00_094959634447_rgbf000151-resize_1-target.png,250,1.9675,5,3502,260,meters,jsons/v1_VE250_randls_61.json,1158465,1369210,40,Woman
32,236494,DepthScenes,duration_manipulation_targetAtFixation,jsons/v1_VE250_randls_61.json,http://54.235.29.9/FacialAge/BNav_EC2/DepthDuration/v2_depth_duration_MTurk/v2_DepthDuration_HTML.html#381,381,1366,657,1366,768,9-21-2022,15-56-43,33,depth_duration_stimuli/002988_2014-06-15_12-24-20_094959634447_rgbf000150-resize_1/002988_2014-06-15_12-24-20_094959634447_rgbf000150-resize_1-target.png,250,4.7669999999999995,9,3867,250,meters,jsons/v1_VE250_randls_61.json,1158465,1369210,40,Woman
33,236494,DepthScenes,duration_manipulation_targetAtFixation,jsons/v1_VE250_randls_61.json,http://54.235.29.9/FacialAge/BNav_EC2/DepthDuration/v2_depth_duration_MTurk/v2_DepthDuration_HTML.html#381,381,1366,657,1366,768,9-21-2022,15-56-43,34,depth_duration_stimuli/001052_2014-06-08_18-24-54_260595134347_rgbf000130-resize_1/001052_2014-06-08_18-24-54_260595134347_rgbf000130-resize_1-target.png,250,4.1045,10,5887,246,meters,jsons/v1_VE250_randls_61.json,1158465,1369210,40,Woman
34,236494,DepthScenes,duration_manipulation_targetAtFixation,jsons/v1_VE250_randls_61.json,http://54.235.29.9/FacialAge/BNav_EC2/DepthDuration/v2_depth_duration_MTurk/v2_DepthDuration_HTML.html#381,381,1366,657,1366,768,9-21-2022,15-56-43,35,depth_duration_stimuli/002549_2014-06-24_13-41-39_094959634447_rgbf000022-resize_3/002549_2014-06-24_13-41-39_094959634447_rgbf000022-resize_3-target.png,250,1.476,7,21912,248,meters,jsons/v1_VE250_randls_61.json,1158465,1369210,40,Woman
35,236494,DepthScenes,duration_manipulation_targetAtFixation,jsons/v1_VE250_randls_61.json,http://54.235.29.9/FacialAge/BNav_EC2/DepthDuration/v2_depth_duration_MTurk/v2_DepthDuration_HTML.html#381,381,1366,657,1366,768,9-21-2022,15-56-43,36,depth_duration_stimuli/002750_2014-06-22_19-08-03_094959634447_rgbf000094-resize_4/002750_2014-06-22_19-08-03_094959634447_rgbf000094-resize_4-target.png,250,2.354,8,4891,250,meters,jsons/v1_VE250_randls_61.json,1158465,1369210,40,Woman
36,236494,DepthScenes,duration_manipulation_targetAtFixation,jsons/v1_VE250_randls_61.json,http://54.235.29.9/FacialAge/BNav_EC2/DepthDuration/v2_depth_duration_MTurk/v2_DepthDuration_HTML.html#381,381,1366,657,1366,768,9-21-2022,15-56-43,37,depth_duration_stimuli/002118_2014-06-25_20-32-08_260595134347_rgbf000078-resize_1/002118_2014-06-25_20-32-08_260595134347_rgbf000078-resize_1-target.png,250,2.6460000000000004,8,18933,174,meters,jsons/v1_VE250_randls_61.json,1158465,1369210,40,Woman
37,236494,DepthScenes,duration_manipulation_targetAtFixation,jsons/v1_VE250_randls_61.json,http://54.235.29.9/FacialAge/BNav_EC2/DepthDuration/v2_depth_duration_MTurk/v2_DepthDuration_HTML.html#381,381,1366,657,1366,768,9-21-2022,15-56-43,38,depth_duration_stimuli/001516_2014-06-20_16-25-09_260595134347_rgbf000076-resize_2/001516_2014-06-20_16-25-09_260595134347_rgbf000076-resize_2-target.png,250,1.7445,8,12628,306,meters,jsons/v1_VE250_randls_61.json,1158465,1369210,40,Woman
38,236494,DepthScenes,duration_manipulation_targetAtFixation,jsons/v1_VE250_randls_61.json,http://54.235.29.9/FacialAge/BNav_EC2/DepthDuration/v2_depth_duration_MTurk/v2_DepthDuration_HTML.html#381,381,1366,657,1366,768,9-21-2022,15-56-43,39,depth_duration_stimuli/002788_2014-06-22_19-36-03_094959634447_rgbf000088-resize_2/002788_2014-06-22_19-36-03_094959634447_rgbf000088-resize_2-target.png,250,1.6465,9,4743,244,meters,jsons/v1_VE250_randls_61.json,1158465,1369210,40,Woman
39,236494,DepthScenes,duration_manipulation_targetAtFixation,jsons/v1_VE250_randls_61.json,http://54.235.29.9/FacialAge/BNav_EC2/DepthDuration/v2_depth_duration_MTurk/v2_DepthDuration_HTML.html#381,381,1366,657,1366,768,9-21-2022,15-56-43,40,depth_duration_stimuli/000749_2014-06-08_21-55-06_260595134347_rgbf000070-resize_2/000749_2014-06-08_21-55-06_260595134347_rgbf000070-resize_2-target.png,250,2.331,8,3772,250,meters,jsons/v1_VE250_randls_61.json,1158465,1369210,40,Woman
40,236494,DepthScenes,duration_manipulation_targetAtFixation,jsons/v1_VE250_randls_61.json,http://54.235.29.9/FacialAge/BNav_EC2/DepthDuration/v2_depth_duration_MTurk/v2_DepthDuration_HTML.html#381,381,1366,657,1366,768,9-21-2022,15-56-43,41,depth_duration_stimuli/002445_2014-06-28_20-32-16_260595134347_rgbf000029-resize_4/002445_2014-06-28_20-32-16_260595134347_rgbf000029-resize_4-target.png,250,2.5315,5,3168,275,meters,jsons/v1_VE250_randls_61.json,1158465,1369210,40,Woman
41,236494,DepthScenes,duration_manipulation_targetAtFixation,jsons/v1_VE250_randls_61.json,http://54.235.29.9/FacialAge/BNav_EC2/DepthDuration/v2_depth_duration_MTurk/v2_DepthDuration_HTML.html#381,381,1366,657,1366,768,9-21-2022,15-56-43,42,depth_duration_stimuli/000780_2014-06-08_22-28-29_260595134347_rgbf000126-resize_1/000780_2014-06-08_22-28-29_260595134347_rgbf000126-resize_1-target.png,250,3.3825,7,3594,248,meters,jsons/v1_VE250_randls_61.json,1158465,1369210,40,Woman
42,236494,DepthScenes,duration_manipulation_targetAtFixation,jsons/v1_VE250_randls_61.json,http://54.235.29.9/FacialAge/BNav_EC2/DepthDuration/v2_depth_duration_MTurk/v2_DepthDuration_HTML.html#381,381,1366,657,1366,768,9-21-2022,15-56-43,43,depth_duration_stimuli/001055_2014-06-08_18-45-35_260595134347_rgbf000111-resize_4/001055_2014-06-08_18-45-35_260595134347_rgbf000111-resize_4-target.png,250,2.4290000000000003,7,3688,245,meters,jsons/v1_VE250_randls_61.json,1158465,1369210,40,Woman
43,236494,DepthScenes,duration_manipulation_targetAtFixation,jsons/v1_VE250_randls_61.json,http://54.235.29.9/FacialAge/BNav_EC2/DepthDuration/v2_depth_duration_MTurk/v2_DepthDuration_HTML.html#381,381,1366,657,1366,768,9-21-2022,15-56-43,44,depth_duration_stimuli/000549_2014-06-08_22-10-24_260595134347_rgbf000247-resize_3/000549_2014-06-08_22-10-24_260595134347_rgbf000247-resize_3-target.png,250,1.841,4,3433,255,meters,jsons/v1_VE250_randls_61.json,1158465,1369210,40,Woman
44,236494,DepthScenes,duration_manipulation_targetAtFixation,jsons/v1_VE250_randls_61.json,http://54.235.29.9/FacialAge/BNav_EC2/DepthDuration/v2_depth_duration_MTurk/v2_DepthDuration_HTML.html#381,381,1366,657,1366,768,9-21-2022,15-56-43,45,depth_duration_stimuli/000787_2014-06-08_22-33-53_260595134347_rgbf000175-resize_1/000787_2014-06-08_22-33-53_260595134347_rgbf000175-resize-original.jpg,250,4.784,12,3444,311,meters,jsons/v1_VE250_randls_61.json,1158465,1369210,40,Woman
45,236494,DepthScenes,duration_manipulation_targetAtFixation,jsons/v1_VE250_randls_61.json,http://54.235.29.9/FacialAge/BNav_EC2/DepthDuration/v2_depth_duration_MTurk/v2_DepthDuration_HTML.html#381,381,1366,657,1366,768,9-21-2022,15-56-43,46,depth_duration_stimuli/002570_2014-06-24_13-59-54_094959634447_rgbf000059-resize_0/002570_2014-06-24_13-59-54_094959634447_rgbf000059-resize_0-target.png,250,4.037,8,3103,428,meters,jsons/v1_VE250_randls_61.json,1158465,1369210,40,Woman
46,236494,DepthScenes,duration_manipulation_targetAtFixation,jsons/v1_VE250_randls_61.json,http://54.235.29.9/FacialAge/BNav_EC2/DepthDuration/v2_depth_duration_MTurk/v2_DepthDuration_HTML.html#381,381,1366,657,1366,768,9-21-2022,15-56-43,47,depth_duration_stimuli/002467_2014-06-28_20-38-07_260595134347_rgbf000026-resize_2/002467_2014-06-28_20-38-07_260595134347_rgbf000026-resize_2-target.png,250,4.742,7,29050,248,meters,jsons/v1_VE250_randls_61.json,1158465,1369210,40,Woman
47,236494,DepthScenes,duration_manipulation_targetAtFixation,jsons/v1_VE250_randls_61.json,http://54.235.29.9/FacialAge/BNav_EC2/DepthDuration/v2_depth_duration_MTurk/v2_DepthDuration_HTML.html#381,381,1366,657,1366,768,9-21-2022,15-56-43,48,depth_duration_stimuli/003534_2014-05-22_15-06-10_094959634447_rgbf000102-resize_4/003534_2014-05-22_15-06-10_094959634447_rgbf000102-resize_4-target.png,250,1.426,4,3419,250,meters,jsons/v1_VE250_randls_61.json,1158465,1369210,40,Woman
48,236494,DepthScenes,duration_manipulation_targetAtFixation,jsons/v1_VE250_randls_61.json,http://54.235.29.9/FacialAge/BNav_EC2/DepthDuration/v2_depth_duration_MTurk/v2_DepthDuration_HTML.html#381,381,1366,657,1366,768,9-21-2022,15-56-43,49,depth_duration_stimuli/002637_2014-06-24_14-51-13_094959634447_rgbf000066-resize_4/002637_2014-06-24_14-51-13_094959634447_rgbf000066-resize_4-target.png,250,1.9955,7,3659,249,meters,jsons/v1_VE250_randls_61.json,1158465,1369210,40,Woman
49,236494,DepthScenes,duration_manipulation_targetAtFixation,jsons/v1_VE250_randls_61.json,http://54.235.29.9/FacialAge/BNav_EC2/DepthDuration/v2_depth_duration_MTurk/v2_DepthDuration_HTML.html#381,381,1366,657,1366,768,9-21-2022,15-56-43,50,depth_duration_stimuli/000486_2014-06-09_20-47-20_260595134347_rgbf000143-resize_2/000486_2014-06-09_20-47-20_260595134347_rgbf000143-resize_2-target.png,250,4.8325,7,3358,112,meters,jsons/v1_VE250_randls_61.json,1158465,1369210,40,Woman
50,236494,DepthScenes,duration_manipulation_targetAtFixation,jsons/v1_VE250_randls_61.json,http://54.235.29.9/FacialAge/BNav_EC2/DepthDuration/v2_depth_duration_MTurk/v2_DepthDuration_HTML.html#381,381,1366,657,1366,768,9-21-2022,15-56-43,51,depth_duration_stimuli/003083_2014-06-15_15-21-03_094959634447_rgbf000063-resize_1/003083_2014-06-15_15-21-03_094959634447_rgbf000063-resize_1-target.png,250,4.1405,8,6700,250,meters,jsons/v1_VE250_randls_61.json,1158465,1369210,40,Woman
51,236494,DepthScenes,duration_manipulation_targetAtFixation,jsons/v1_VE250_randls_61.json,http://54.235.29.9/FacialAge/BNav_EC2/DepthDuration/v2_depth_duration_MTurk/v2_DepthDuration_HTML.html#381,381,1366,657,1366,768,9-21-2022,15-56-43,52,depth_duration_stimuli/000773_2014-06-08_22-24-54_260595134347_rgbf000093-resize_1/000773_2014-06-08_22-24-54_260595134347_rgbf000093-resize_1-target.png,250,4.973,9,4633,248,meters,jsons/v1_VE250_randls_61.json,1158465,1369210,40,Woman
52,236494,DepthScenes,duration_manipulation_targetAtFixation,jsons/v1_VE250_randls_61.json,http://54.235.29.9/FacialAge/BNav_EC2/DepthDuration/v2_depth_duration_MTurk/v2_DepthDuration_HTML.html#381,381,1366,657,1366,768,9-21-2022,15-56-43,53,depth_duration_stimuli/002414_2014-06-28_20-24-58_260595134347_rgbf000067-resize_4/002414_2014-06-28_20-24-58_260595134347_rgbf000067-resize_4-target.png,250,4.363,8,3548,202,meters,jsons/v1_VE250_randls_61.json,1158465,1369210,40,Woman
53,236494,DepthScenes,duration_manipulation_targetAtFixation,jsons/v1_VE250_randls_61.json,http://54.235.29.9/FacialAge/BNav_EC2/DepthDuration/v2_depth_duration_MTurk/v2_DepthDuration_HTML.html#381,381,1366,657,1366,768,9-21-2022,15-56-43,54,depth_duration_stimuli/000506_2014-06-08_23-21-00_260595134347_rgbf000070-resize_7/000506_2014-06-08_23-21-00_260595134347_rgbf000070-resize_7-target.png,250,4.0585,8,2912,248,meters,jsons/v1_VE250_randls_61.json,1158465,1369210,40,Woman
54,236494,DepthScenes,duration_manipulation_targetAtFixation,jsons/v1_VE250_randls_61.json,http://54.235.29.9/FacialAge/BNav_EC2/DepthDuration/v2_depth_duration_MTurk/v2_DepthDuration_HTML.html#381,381,1366,657,1366,768,9-21-2022,15-56-43,55,depth_duration_stimuli/003079_2014-06-15_15-18-20_094959634447_rgbf000152-resize_8/003079_2014-06-15_15-18-20_094959634447_rgbf000152-resize_8-target.png,250,2.8775,9,3228,338,meters,jsons/v1_VE250_randls_61.json,1158465,1369210,40,Woman
55,236494,DepthScenes,duration_manipulation_targetAtFixation,jsons/v1_VE250_randls_61.json,http://54.235.29.9/FacialAge/BNav_EC2/DepthDuration/v2_depth_duration_MTurk/v2_DepthDuration_HTML.html#381,381,1366,657,1366,768,9-21-2022,15-56-43,56,depth_duration_stimuli/000642_2014-06-08_16-59-25_260595134347_rgbf000098-resize_2/000642_2014-06-08_16-59-25_260595134347_rgbf000098-resize_2-target.png,250,2.8815,5,3081,194,meters,jsons/v1_VE250_randls_61.json,1158465,1369210,40,Woman
56,236494,DepthScenes,duration_manipulation_targetAtFixation,jsons/v1_VE250_randls_61.json,http://54.235.29.9/FacialAge/BNav_EC2/DepthDuration/v2_depth_duration_MTurk/v2_DepthDuration_HTML.html#381,381,1366,657,1366,768,9-21-2022,15-56-43,57,depth_duration_stimuli/002425_2014-06-28_20-27-29_260595134347_rgbf000031-resize_8/002425_2014-06-28_20-27-29_260595134347_rgbf000031-resize_8-target.png,250,3.8960000000000004,7,3002,403,meters,jsons/v1_VE250_randls_61.json,1158465,1369210,40,Woman
57,236494,DepthScenes,duration_manipulation_targetAtFixation,jsons/v1_VE250_randls_61.json,http://54.235.29.9/FacialAge/BNav_EC2/DepthDuration/v2_depth_duration_MTurk/v2_DepthDuration_HTML.html#381,381,1366,657,1366,768,9-21-2022,15-56-43,58,depth_duration_stimuli/001110_2014-06-15_17-25-28_260595134347_rgbf000150-resize_1/001110_2014-06-15_17-25-28_260595134347_rgbf000150-resize_1-target.png,250,1.7115,7,30562,250,meters,jsons/v1_VE250_randls_61.json,1158465,1369210,40,Woman
58,236494,DepthScenes,duration_manipulation_targetAtFixation,jsons/v1_VE250_randls_61.json,http://54.235.29.9/FacialAge/BNav_EC2/DepthDuration/v2_depth_duration_MTurk/v2_DepthDuration_HTML.html#381,381,1366,657,1366,768,9-21-2022,15-56-43,59,depth_duration_stimuli/000927_2014-06-09_16-32-30_260595134347_rgbf000123-resize_3/000927_2014-06-09_16-32-30_260595134347_rgbf000123-resize_3-target.png,250,2.6785,8,4810,279,meters,jsons/v1_VE250_randls_61.json,1158465,1369210,40,Woman
59,236494,DepthScenes,duration_manipulation_targetAtFixation,jsons/v1_VE250_randls_61.json,http://54.235.29.9/FacialAge/BNav_EC2/DepthDuration/v2_depth_duration_MTurk/v2_DepthDuration_HTML.html#381,381,1366,657,1366,768,9-21-2022,15-56-43,60,depth_duration_stimuli/001056_2014-06-08_18-46-44_260595134347_rgbf000068-resize_0/001056_2014-06-08_18-46-44_260595134347_rgbf000068-resize_0-target.png,250,2.6625,7,3107,250,meters,jsons/v1_VE250_randls_61.json,1158465,1369210,40,Woman
60,236494,DepthScenes,duration_manipulation_targetAtFixation,jsons/v1_VE250_randls_61.json,http://54.235.29.9/FacialAge/BNav_EC2/DepthDuration/v2_depth_duration_MTurk/v2_DepthDuration_HTML.html#381,381,1366,657,1366,768,9-21-2022,15-56-43,61,depth_duration_stimuli/002199_2014-06-28_18-33-56_260595134347_rgbf000074-resize_0/002199_2014-06-28_18-33-56_260595134347_rgbf000074-resize_0-target.png,250,1.996,5,3578,245,meters,jsons/v1_VE250_randls_61.json,1158465,1369210,40,Woman
61,236494,DepthScenes,duration_manipulation_targetAtFixation,jsons/v1_VE250_randls_61.json,http://54.235.29.9/FacialAge/BNav_EC2/DepthDuration/v2_depth_duration_MTurk/v2_DepthDuration_HTML.html#381,381,1366,657,1366,768,9-21-2022,15-56-43,62,depth_duration_stimuli/002057_2014-06-24_21-00-13_260595134347_rgbf000120-resize_1/002057_2014-06-24_21-00-13_260595134347_rgbf000120-resize_1-target.png,250,2.967,8,3027,249,meters,jsons/v1_VE250_randls_61.json,1158465,1369210,40,Woman
62,236494,DepthScenes,duration_manipulation_targetAtFixation,jsons/v1_VE250_randls_61.json,http://54.235.29.9/FacialAge/BNav_EC2/DepthDuration/v2_depth_duration_MTurk/v2_DepthDuration_HTML.html#381,381,1366,657,1366,768,9-21-2022,15-56-43,63,depth_duration_stimuli/000709_2014-06-08_13-51-55_260595134347_rgbf000068-resize_3/000709_2014-06-08_13-51-55_260595134347_rgbf000068-resize_3-target.png,250,1.8030000000000002,4,6251,104,meters,jsons/v1_VE250_randls_61.json,1158465,1369210,40,Woman
63,236494,DepthScenes,duration_manipulation_targetAtFixation,jsons/v1_VE250_randls_61.json,http://54.235.29.9/FacialAge/BNav_EC2/DepthDuration/v2_depth_duration_MTurk/v2_DepthDuration_HTML.html#381,381,1366,657,1366,768,9-21-2022,15-56-43,64,depth_duration_stimuli/002784_2014-06-22_19-26-30_094959634447_rgbf000083-resize_3/002784_2014-06-22_19-26-30_094959634447_rgbf000083-resize_3-target.png,250,1.8046666666667,5,3698,250,meters,jsons/v1_VE250_randls_61.json,1158465,1369210,40,Woman
64,236494,DepthScenes,duration_manipulation_targetAtFixation,jsons/v1_VE250_randls_61.json,http://54.235.29.9/FacialAge/BNav_EC2/DepthDuration/v2_depth_duration_MTurk/v2_DepthDuration_HTML.html#381,381,1366,657,1366,768,9-21-2022,15-56-43,65,depth_duration_stimuli/001100_2014-06-15_17-46-26_260595134347_rgbf000225-resize_2/001100_2014-06-15_17-46-26_260595134347_rgbf000225-resize_2-target.png,250,2.24,4,3257,301,meters,jsons/v1_VE250_randls_61.json,1158465,1369210,40,Woman
65,236494,DepthScenes,duration_manipulation_targetAtFixation,jsons/v1_VE250_randls_61.json,http://54.235.29.9/FacialAge/BNav_EC2/DepthDuration/v2_depth_duration_MTurk/v2_DepthDuration_HTML.html#381,381,1366,657,1366,768,9-21-2022,15-56-43,66,depth_duration_stimuli/001222_2014-06-17_16-24-06_260595134347_rgbf000073-resize_0/001222_2014-06-17_16-24-06_260595134347_rgbf000073-resize-original.jpg,250,1.4385,12,3697,196,meters,jsons/v1_VE250_randls_61.json,1158465,1369210,40,Woman
66,236494,DepthScenes,duration_manipulation_targetAtFixation,jsons/v1_VE250_randls_61.json,http://54.235.29.9/FacialAge/BNav_EC2/DepthDuration/v2_depth_duration_MTurk/v2_DepthDuration_HTML.html#381,381,1366,657,1366,768,9-21-2022,15-56-43,67,depth_duration_stimuli/002630_2014-06-24_14-47-50_094959634447_rgbf000055-resize_1/002630_2014-06-24_14-47-50_094959634447_rgbf000055-resize_1-target.png,250,3.0095,7,29574,142,meters,jsons/v1_VE250_randls_61.json,1158465,1369210,40,Woman
67,236494,DepthScenes,duration_manipulation_targetAtFixation,jsons/v1_VE250_randls_61.json,http://54.235.29.9/FacialAge/BNav_EC2/DepthDuration/v2_depth_duration_MTurk/v2_DepthDuration_HTML.html#381,381,1366,657,1366,768,9-21-2022,15-56-43,68,depth_duration_stimuli/002758_2014-06-22_19-11-20_094959634447_rgbf000128-resize_1/002758_2014-06-22_19-11-20_094959634447_rgbf000128-resize_1-target.png,250,2.555,7,4806,254,meters,jsons/v1_VE250_randls_61.json,1158465,1369210,40,Woman
68,236494,DepthScenes,duration_manipulation_targetAtFixation,jsons/v1_VE250_randls_61.json,http://54.235.29.9/FacialAge/BNav_EC2/DepthDuration/v2_depth_duration_MTurk/v2_DepthDuration_HTML.html#381,381,1366,657,1366,768,9-21-2022,15-56-43,69,depth_duration_stimuli/002375_2014-06-28_20-13-44_260595134347_rgbf000032-resize_1/002375_2014-06-28_20-13-44_260595134347_rgbf000032-resize_1-target.png,250,4.0175,8,3166,250,meters,jsons/v1_VE250_randls_61.json,1158465,1369210,40,Woman
69,236494,DepthScenes,duration_manipulation_targetAtFixation,jsons/v1_VE250_randls_61.json,http://54.235.29.9/FacialAge/BNav_EC2/DepthDuration/v2_depth_duration_MTurk/v2_DepthDuration_HTML.html#381,381,1366,657,1366,768,9-21-2022,15-56-43,70,depth_duration_stimuli/002657_2014-06-13_15-29-54_094959634447_rgbf000150-resize_1/002657_2014-06-13_15-29-54_094959634447_rgbf000150-resize_1-target.png,250,4.919,1,7462,249,meters,jsons/v1_VE250_randls_61.json,1158465,1369210,40,Woman
70,236494,DepthScenes,duration_manipulation_targetAtFixation,jsons/v1_VE250_randls_61.json,http://54.235.29.9/FacialAge/BNav_EC2/DepthDuration/v2_depth_duration_MTurk/v2_DepthDuration_HTML.html#381,381,1366,657,1366,768,9-21-2022,15-56-43,71,depth_duration_stimuli/003492_2014-05-21_15-50-55_094959634447_rgbf000828-resize_1/003492_2014-05-21_15-50-55_094959634447_rgbf000828-resize_1-target.png,250,4.06875,8,3611,248,meters,jsons/v1_VE250_randls_61.json,1158465,1369210,40,Woman
71,236494,DepthScenes,duration_manipulation_targetAtFixation,jsons/v1_VE250_randls_61.json,http://54.235.29.9/FacialAge/BNav_EC2/DepthDuration/v2_depth_duration_MTurk/v2_DepthDuration_HTML.html#381,381,1366,657,1366,768,9-21-2022,15-56-43,72,depth_duration_stimuli/002568_2014-06-24_13-59-21_094959634447_rgbf000062-resize_4/002568_2014-06-24_13-59-21_094959634447_rgbf000062-resize_4-target.png,250,3.015,3,31914,248,meters,jsons/v1_VE250_randls_61.json,1158465,1369210,40,Woman
72,236494,DepthScenes,duration_manipulation_targetAtFixation,jsons/v1_VE250_randls_61.json,http://54.235.29.9/FacialAge/BNav_EC2/DepthDuration/v2_depth_duration_MTurk/v2_DepthDuration_HTML.html#381,381,1366,657,1366,768,9-21-2022,15-56-43,73,depth_duration_stimuli/002763_2014-06-22_19-13-10_094959634447_rgbf000075-resize_4/002763_2014-06-22_19-13-10_094959634447_rgbf000075-resize_4-target.png,250,1.68375,6,2742,249,meters,jsons/v1_VE250_randls_61.json,1158465,1369210,40,Woman
73,236494,DepthScenes,duration_manipulation_targetAtFixation,jsons/v1_VE250_randls_61.json,http://54.235.29.9/FacialAge/BNav_EC2/DepthDuration/v2_depth_duration_MTurk/v2_DepthDuration_HTML.html#381,381,1366,657,1366,768,9-21-2022,15-56-43,74,depth_duration_stimuli/002209_2014-06-28_18-36-10_260595134347_rgbf000051-resize_1/002209_2014-06-28_18-36-10_260595134347_rgbf000051-resize_1-target.png,250,2.057,5,3045,244,meters,jsons/v1_VE250_randls_61.json,1158465,1369210,40,Woman
74,236494,DepthScenes,duration_manipulation_targetAtFixation,jsons/v1_VE250_randls_61.json,http://54.235.29.9/FacialAge/BNav_EC2/DepthDuration/v2_depth_duration_MTurk/v2_DepthDuration_HTML.html#381,381,1366,657,1366,768,9-21-2022,15-56-43,75,depth_duration_stimuli/001808_2014-06-26_20-50-58_260595134347_rgbf000029-resize_1/001808_2014-06-26_20-50-58_260595134347_rgbf000029-resize_1-target.png,250,4.249,7,2604,248,meters,jsons/v1_VE250_randls_61.json,1158465,1369210,40,Woman
75,236494,DepthScenes,duration_manipulation_targetAtFixation,jsons/v1_VE250_randls_61.json,http://54.235.29.9/FacialAge/BNav_EC2/DepthDuration/v2_depth_duration_MTurk/v2_DepthDuration_HTML.html#381,381,1366,657,1366,768,9-21-2022,15-56-43,76,depth_duration_stimuli/001815_2014-06-26_20-52-55_260595134347_rgbf000020-resize_0/001815_2014-06-26_20-52-55_260595134347_rgbf000020-resize_0-target.png,250,3.3865,9,3532,317,meters,jsons/v1_VE250_randls_61.json,1158465,1369210,40,Woman
76,236494,DepthScenes,duration_manipulation_targetAtFixation,jsons/v1_VE250_randls_61.json,http://54.235.29.9/FacialAge/BNav_EC2/DepthDuration/v2_depth_duration_MTurk/v2_DepthDuration_HTML.html#381,381,1366,657,1366,768,9-21-2022,15-56-43,77,depth_duration_stimuli/000788_2014-06-08_22-34-36_260595134347_rgbf000131-resize_1/000788_2014-06-08_22-34-36_260595134347_rgbf000131-resize_1-target.png,250,3.359,8,3369,250,meters,jsons/v1_VE250_randls_61.json,1158465,1369210,40,Woman
77,236494,DepthScenes,duration_manipulation_targetAtFixation,jsons/v1_VE250_randls_61.json,http://54.235.29.9/FacialAge/BNav_EC2/DepthDuration/v2_depth_duration_MTurk/v2_DepthDuration_HTML.html#381,381,1366,657,1366,768,9-21-2022,15-56-43,78,depth_duration_stimuli/001235_2014-06-17_16-37-36_260595134347_rgbf000084-resize_4/001235_2014-06-17_16-37-36_260595134347_rgbf000084-resize_4-target.png,250,3.6605,6,26945,248,meters,jsons/v1_VE250_randls_61.json,1158465,1369210,40,Woman
78,236494,DepthScenes,duration_manipulation_targetAtFixation,jsons/v1_VE250_randls_61.json,http://54.235.29.9/FacialAge/BNav_EC2/DepthDuration/v2_depth_duration_MTurk/v2_DepthDuration_HTML.html#381,381,1366,657,1366,768,9-21-2022,15-56-43,79,depth_duration_stimuli/000470_2014-06-09_19-42-40_260595134347_rgbf000094-resize_1/000470_2014-06-09_19-42-40_260595134347_rgbf000094-resize_1-target.png,250,1.831,6,3666,249,meters,jsons/v1_VE250_randls_61.json,1158465,1369210,40,Woman
79,236494,DepthScenes,duration_manipulation_targetAtFixation,jsons/v1_VE250_randls_61.json,http://54.235.29.9/FacialAge/BNav_EC2/DepthDuration/v2_depth_duration_MTurk/v2_DepthDuration_HTML.html#381,381,1366,657,1366,768,9-21-2022,15-56-43,80,depth_duration_stimuli/000109_2014-05-14_23-41-52_260595134347_rgbf000035-resize_9/000109_2014-05-14_23-41-52_260595134347_rgbf000035-resize_9-target.png,250,1.3545,5,3337,249,meters,jsons/v1_VE250_randls_61.json,1158465,1369210,40,Woman
80,236494,DepthScenes,duration_manipulation_targetAtFixation,jsons/v1_VE250_randls_61.json,http://54.235.29.9/FacialAge/BNav_EC2/DepthDuration/v2_depth_duration_MTurk/v2_DepthDuration_HTML.html#381,381,1366,657,1366,768,9-21-2022,15-56-43,81,depth_duration_stimuli/001150_2014-06-17_15-27-34_260595134347_rgbf000108-resize_2/001150_2014-06-17_15-27-34_260595134347_rgbf000108-resize_2-target.png,250,4.0325,7,2818,249,meters,jsons/v1_VE250_randls_61.json,1158465,1369210,40,Woman
81,236494,DepthScenes,duration_manipulation_targetAtFixation,jsons/v1_VE250_randls_61.json,http://54.235.29.9/FacialAge/BNav_EC2/DepthDuration/v2_depth_duration_MTurk/v2_DepthDuration_HTML.html#381,381,1366,657,1366,768,9-21-2022,15-56-43,82,depth_duration_stimuli/000665_2014-06-09_20-42-35_260595134347_rgbf000110-resize_1/000665_2014-06-09_20-42-35_260595134347_rgbf000110-resize_1-target.png,250,3.057,6,3778,250,meters,jsons/v1_VE250_randls_61.json,1158465,1369210,40,Woman
82,236494,DepthScenes,duration_manipulation_targetAtFixation,jsons/v1_VE250_randls_61.json,http://54.235.29.9/FacialAge/BNav_EC2/DepthDuration/v2_depth_duration_MTurk/v2_DepthDuration_HTML.html#381,381,1366,657,1366,768,9-21-2022,15-56-43,83,depth_duration_stimuli/000522_2014-06-08_13-35-06_260595134347_rgbf000244-resize_1/000522_2014-06-08_13-35-06_260595134347_rgbf000244-resize_1-target.png,250,2.3715,5,3120,168,meters,jsons/v1_VE250_randls_61.json,1158465,1369210,40,Woman
83,236494,DepthScenes,duration_manipulation_targetAtFixation,jsons/v1_VE250_randls_61.json,http://54.235.29.9/FacialAge/BNav_EC2/DepthDuration/v2_depth_duration_MTurk/v2_DepthDuration_HTML.html#381,381,1366,657,1366,768,9-21-2022,15-56-43,84,depth_duration_stimuli/002949_2014-06-26_15-57-42_094959634447_rgbf000079-resize_1/002949_2014-06-26_15-57-42_094959634447_rgbf000079-resize_1-target.png,250,1.8915,5,2866,238,meters,jsons/v1_VE250_randls_61.json,1158465,1369210,40,Woman
84,236494,DepthScenes,duration_manipulation_targetAtFixation,jsons/v1_VE250_randls_61.json,http://54.235.29.9/FacialAge/BNav_EC2/DepthDuration/v2_depth_duration_MTurk/v2_DepthDuration_HTML.html#381,381,1366,657,1366,768,9-21-2022,15-56-43,85,depth_duration_stimuli/000929_2014-06-09_16-33-19_260595134347_rgbf000139-resize_0/000929_2014-06-09_16-33-19_260595134347_rgbf000139-resize_0-target.png,250,2.8680000000000003,6,3771,261,meters,jsons/v1_VE250_randls_61.json,1158465,1369210,40,Woman
85,236494,DepthScenes,duration_manipulation_targetAtFixation,jsons/v1_VE250_randls_61.json,http://54.235.29.9/FacialAge/BNav_EC2/DepthDuration/v2_depth_duration_MTurk/v2_DepthDuration_HTML.html#381,381,1366,657,1366,768,9-21-2022,15-56-43,86,depth_duration_stimuli/000457_2014-06-08_16-52-43_260595134347_rgbf000199-resize_1/000457_2014-06-08_16-52-43_260595134347_rgbf000199-resize_1-target.png,250,3.6489999999999996,7,2614,263,meters,jsons/v1_VE250_randls_61.json,1158465,1369210,40,Woman
86,236494,DepthScenes,duration_manipulation_targetAtFixation,jsons/v1_VE250_randls_61.json,http://54.235.29.9/FacialAge/BNav_EC2/DepthDuration/v2_depth_duration_MTurk/v2_DepthDuration_HTML.html#381,381,1366,657,1366,768,9-21-2022,15-56-43,87,depth_duration_stimuli/001555_2014-06-20_17-12-10_260595134347_rgbf000065-resize_4/001555_2014-06-20_17-12-10_260595134347_rgbf000065-resize_4-target.png,250,1.633,6,2883,250,meters,jsons/v1_VE250_randls_61.json,1158465,1369210,40,Woman
87,236494,DepthScenes,duration_manipulation_targetAtFixation,jsons/v1_VE250_randls_61.json,http://54.235.29.9/FacialAge/BNav_EC2/DepthDuration/v2_depth_duration_MTurk/v2_DepthDuration_HTML.html#381,381,1366,657,1366,768,9-21-2022,15-56-43,88,depth_duration_stimuli/000103_2014-05-14_22-01-17_260595134347_rgbf000152-resize_5/000103_2014-05-14_22-01-17_260595134347_rgbf000152-resize_5-target.png,250,1.993,7,29891,328,meters,jsons/v1_VE250_randls_61.json,1158465,1369210,40,Woman
88,236494,DepthScenes,duration_manipulation_targetAtFixation,jsons/v1_VE250_randls_61.json,http://54.235.29.9/FacialAge/BNav_EC2/DepthDuration/v2_depth_duration_MTurk/v2_DepthDuration_HTML.html#381,381,1366,657,1366,768,9-21-2022,15-56-43,89,depth_duration_stimuli/002989_2014-06-15_12-25-03_094959634447_rgbf000150-resize_3/002989_2014-06-15_12-25-03_094959634447_rgbf000150-resize_3-target.png,250,4.1975,8,4794,251,meters,jsons/v1_VE250_randls_61.json,1158465,1369210,40,Woman
89,236494,DepthScenes,duration_manipulation_targetAtFixation,jsons/v1_VE250_randls_61.json,http://54.235.29.9/FacialAge/BNav_EC2/DepthDuration/v2_depth_duration_MTurk/v2_DepthDuration_HTML.html#381,381,1366,657,1366,768,9-21-2022,15-56-43,90,depth_duration_stimuli/000866_2014-06-09_20-45-42_260595134347_rgbf000139-resize_1/000866_2014-06-09_20-45-42_260595134347_rgbf000139-resize_1-target.png,250,3.2155,8,4779,248,meters,jsons/v1_VE250_randls_61.json,1158465,1369210,40,Woman
90,236494,DepthScenes,duration_manipulation_targetAtFixation,jsons/v1_VE250_randls_61.json,http://54.235.29.9/FacialAge/BNav_EC2/DepthDuration/v2_depth_duration_MTurk/v2_DepthDuration_HTML.html#381,381,1366,657,1366,768,9-21-2022,15-56-43,91,depth_duration_stimuli/001806_2014-06-26_20-50-20_260595134347_rgbf000091-resize_1/001806_2014-06-26_20-50-20_260595134347_rgbf000091-resize_1-target.png,250,2.7305,6,6168,130,meters,jsons/v1_VE250_randls_61.json,1158465,1369210,40,Woman
91,236494,DepthScenes,duration_manipulation_targetAtFixation,jsons/v1_VE250_randls_61.json,http://54.235.29.9/FacialAge/BNav_EC2/DepthDuration/v2_depth_duration_MTurk/v2_DepthDuration_HTML.html#381,381,1366,657,1366,768,9-21-2022,15-56-43,92,depth_duration_stimuli/001617_2014-06-20_11-35-32_260595134347_rgbf000066-resize_1/001617_2014-06-20_11-35-32_260595134347_rgbf000066-resize_1-target.png,250,3.7910000000000004,7,5005,248,meters,jsons/v1_VE250_randls_61.json,1158465,1369210,40,Woman
92,236494,DepthScenes,duration_manipulation_targetAtFixation,jsons/v1_VE250_randls_61.json,http://54.235.29.9/FacialAge/BNav_EC2/DepthDuration/v2_depth_duration_MTurk/v2_DepthDuration_HTML.html#381,381,1366,657,1366,768,9-21-2022,15-56-43,93,depth_duration_stimuli/000736_2014-06-08_18-24-15_260595134347_rgbf000206-resize_3/000736_2014-06-08_18-24-15_260595134347_rgbf000206-resize_3-target.png,250,3.515,8,17008,254,meters,jsons/v1_VE250_randls_61.json,1158465,1369210,40,Woman
93,236494,DepthScenes,duration_manipulation_targetAtFixation,jsons/v1_VE250_randls_61.json,http://54.235.29.9/FacialAge/BNav_EC2/DepthDuration/v2_depth_duration_MTurk/v2_DepthDuration_HTML.html#381,381,1366,657,1366,768,9-21-2022,15-56-43,94,depth_duration_stimuli/000137_2014-05-20_17-04-49_260595134347_rgbf000120-resize_1/000137_2014-05-20_17-04-49_260595134347_rgbf000120-resize_1-target.png,250,3.786,9,20770,248,meters,jsons/v1_VE250_randls_61.json,1158465,1369210,40,Woman
94,236494,DepthScenes,duration_manipulation_targetAtFixation,jsons/v1_VE250_randls_61.json,http://54.235.29.9/FacialAge/BNav_EC2/DepthDuration/v2_depth_duration_MTurk/v2_DepthDuration_HTML.html#381,381,1366,657,1366,768,9-21-2022,15-56-43,95,depth_duration_stimuli/002509_2014-06-24_13-19-22_094959634447_rgbf000077-resize_0/002509_2014-06-24_13-19-22_094959634447_rgbf000077-resize_0-target.png,250,1.3065,5,4554,251,meters,jsons/v1_VE250_randls_61.json,1158465,1369210,40,Woman
95,236494,DepthScenes,duration_manipulation_targetAtFixation,jsons/v1_VE250_randls_61.json,http://54.235.29.9/FacialAge/BNav_EC2/DepthDuration/v2_depth_duration_MTurk/v2_DepthDuration_HTML.html#381,381,1366,657,1366,768,9-21-2022,15-56-43,96,depth_duration_stimuli/003338_2014-05-20_11-01-23_094959634447_rgbf000051-resize_6/003338_2014-05-20_11-01-23_094959634447_rgbf000051-resize_6-target.png,250,1.693,6,5730,249,meters,jsons/v1_VE250_randls_61.json,1158465,1369210,40,Woman
96,236494,DepthScenes,duration_manipulation_targetAtFixation,jsons/v1_VE250_randls_61.json,http://54.235.29.9/FacialAge/BNav_EC2/DepthDuration/v2_depth_duration_MTurk/v2_DepthDuration_HTML.html#381,381,1366,657,1366,768,9-21-2022,15-56-43,97,depth_duration_stimuli/001417_2014-06-19_16-25-36_260595134347_rgbf000115-resize_5/001417_2014-06-19_16-25-36_260595134347_rgbf000115-resize_5-target.png,250,4.6255,6,35497,249,meters,jsons/v1_VE250_randls_61.json,1158465,1369210,40,Woman
97,236494,DepthScenes,duration_manipulation_targetAtFixation,jsons/v1_VE250_randls_61.json,http://54.235.29.9/FacialAge/BNav_EC2/DepthDuration/v2_depth_duration_MTurk/v2_DepthDuration_HTML.html#381,381,1366,657,1366,768,9-21-2022,15-56-43,98,depth_duration_stimuli/003081_2014-06-15_15-19-16_094959634447_rgbf000150-resize_1/003081_2014-06-15_15-19-16_094959634447_rgbf000150-resize_1-target.png,250,3.9125,8,7577,249,meters,jsons/v1_VE250_randls_61.json,1158465,1369210,40,Woman
98,236494,DepthScenes,duration_manipulation_targetAtFixation,jsons/v1_VE250_randls_61.json,http://54.235.29.9/FacialAge/BNav_EC2/DepthDuration/v2_depth_duration_MTurk/v2_DepthDuration_HTML.html#381,381,1366,657,1366,768,9-21-2022,15-56-43,99,depth_duration_stimuli/001540_2014-06-20_17-01-05_260595134347_rgbf000086-resize_2/001540_2014-06-20_17-01-05_260595134347_rgbf000086-resize-original.jpg,250,1.459,12,5217,250,meters,jsons/v1_VE250_randls_61.json,1158465,1369210,40,Woman
99,236494,DepthScenes,duration_manipulation_targetAtFixation,jsons/v1_VE250_randls_61.json,http://54.235.29.9/FacialAge/BNav_EC2/DepthDuration/v2_depth_duration_MTurk/v2_DepthDuration_HTML.html#381,381,1366,657,1366,768,9-21-2022,15-56-43,100,depth_duration_stimuli/002663_2014-06-13_15-50-26_094959634447_rgbf000075-resize_1/002663_2014-06-13_15-50-26_094959634447_rgbf000075-resize_1-target.png,250,4.7495,8,5158,249,meters,jsons/v1_VE250_randls_61.json,1158465,1369210,40,Woman
100,236494,DepthScenes,duration_manipulation_targetAtFixation,jsons/v1_VE250_randls_61.json,http://54.235.29.9/FacialAge/BNav_EC2/DepthDuration/v2_depth_duration_MTurk/v2_DepthDuration_HTML.html#381,381,1366,657,1366,768,9-21-2022,15-56-43,101,depth_duration_stimuli/000409_2014-06-04_19-23-33_260595134347_rgbf000067-resize_0/000409_2014-06-04_19-23-33_260595134347_rgbf000067-resize_0-target.png,250,3.7335,6,21294,250,meters,jsons/v1_VE250_randls_61.json,1158465,1369210,40,Woman
101,236494,DepthScenes,duration_manipulation_targetAtFixation,jsons/v1_VE250_randls_61.json,http://54.235.29.9/FacialAge/BNav_EC2/DepthDuration/v2_depth_duration_MTurk/v2_DepthDuration_HTML.html#381,381,1366,657,1366,768,9-21-2022,15-56-43,102,depth_duration_stimuli/002043_2014-06-24_20-29-38_260595134347_rgbf000039-resize_4/002043_2014-06-24_20-29-38_260595134347_rgbf000039-resize_4-target.png,250,2.8435,7,2970,250,meters,jsons/v1_VE250_randls_61.json,1158465,1369210,40,Woman
102,236494,DepthScenes,duration_manipulation_targetAtFixation,jsons/v1_VE250_randls_61.json,http://54.235.29.9/FacialAge/BNav_EC2/DepthDuration/v2_depth_duration_MTurk/v2_DepthDuration_HTML.html#381,381,1366,657,1366,768,9-21-2022,15-56-43,103,depth_duration_stimuli/003048_2014-06-15_13-49-43_094959634447_rgbf000150-resize_1/003048_2014-06-15_13-49-43_094959634447_rgbf000150-resize_1-target.png,250,4.0035,8,2626,283,meters,jsons/v1_VE250_randls_61.json,1158465,1369210,40,Woman
103,236494,DepthScenes,duration_manipulation_targetAtFixation,jsons/v1_VE250_randls_61.json,http://54.235.29.9/FacialAge/BNav_EC2/DepthDuration/v2_depth_duration_MTurk/v2_DepthDuration_HTML.html#381,381,1366,657,1366,768,9-21-2022,15-56-43,104,depth_duration_stimuli/000414_2014-06-04_19-49-13_260595134347_rgbf000044-resize_0/000414_2014-06-04_19-49-13_260595134347_rgbf000044-resize_0-target.png,250,4.329,9,2899,249,meters,jsons/v1_VE250_randls_61.json,1158465,1369210,40,Woman
104,236494,DepthScenes,duration_manipulation_targetAtFixation,jsons/v1_VE250_randls_61.json,http://54.235.29.9/FacialAge/BNav_EC2/DepthDuration/v2_depth_duration_MTurk/v2_DepthDuration_HTML.html#381,381,1366,657,1366,768,9-21-2022,15-56-43,105,depth_duration_stimuli/003129_2014-05-12_10-48-10_094959634447_rgbf000100-resize_0/003129_2014-05-12_10-48-10_094959634447_rgbf000100-resize_0-target.png,250,4.9305,6,2843,249,meters,jsons/v1_VE250_randls_61.json,1158465,1369210,40,Woman
105,236494,DepthScenes,duration_manipulation_targetAtFixation,jsons/v1_VE250_randls_61.json,http://54.235.29.9/FacialAge/BNav_EC2/DepthDuration/v2_depth_duration_MTurk/v2_DepthDuration_HTML.html#381,381,1366,657,1366,768,9-21-2022,15-56-43,106,depth_duration_stimuli/002748_2014-06-22_19-07-22_094959634447_rgbf000078-resize_1/002748_2014-06-22_19-07-22_094959634447_rgbf000078-resize_1-target.png,250,4.6705,12,6104,315,meters,jsons/v1_VE250_randls_61.json,1158465,1369210,40,Woman
106,236494,DepthScenes,duration_manipulation_targetAtFixation,jsons/v1_VE250_randls_61.json,http://54.235.29.9/FacialAge/BNav_EC2/DepthDuration/v2_depth_duration_MTurk/v2_DepthDuration_HTML.html#381,381,1366,657,1366,768,9-21-2022,15-56-43,107,depth_duration_stimuli/002995_2014-06-15_12-31-26_094959634447_rgbf000150-resize_1/002995_2014-06-15_12-31-26_094959634447_rgbf000150-resize_1-target.png,250,3.8360000000000003,7,3267,249,meters,jsons/v1_VE250_randls_61.json,1158465,1369210,40,Woman
107,236494,DepthScenes,duration_manipulation_targetAtFixation,jsons/v1_VE250_randls_61.json,http://54.235.29.9/FacialAge/BNav_EC2/DepthDuration/v2_depth_duration_MTurk/v2_DepthDuration_HTML.html#381,381,1366,657,1366,768,9-21-2022,15-56-43,108,depth_duration_stimuli/000917_2014-06-09_22-45-29_260595134347_rgbf000149-resize_3/000917_2014-06-09_22-45-29_260595134347_rgbf000149-resize_3-target.png,250,4.1865,8,2793,247,meters,jsons/v1_VE250_randls_61.json,1158465,1369210,40,Woman
108,236494,DepthScenes,duration_manipulation_targetAtFixation,jsons/v1_VE250_randls_61.json,http://54.235.29.9/FacialAge/BNav_EC2/DepthDuration/v2_depth_duration_MTurk/v2_DepthDuration_HTML.html#381,381,1366,657,1366,768,9-21-2022,15-56-43,109,depth_duration_stimuli/002323_2014-06-28_20-01-54_260595134347_rgbf000051-resize_4/002323_2014-06-28_20-01-54_260595134347_rgbf000051-resize_4-target.png,250,3.7310000000000003,8,3891,249,meters,jsons/v1_VE250_randls_61.json,1158465,1369210,40,Woman
109,236494,DepthScenes,duration_manipulation_targetAtFixation,jsons/v1_VE250_randls_61.json,http://54.235.29.9/FacialAge/BNav_EC2/DepthDuration/v2_depth_duration_MTurk/v2_DepthDuration_HTML.html#381,381,1366,657,1366,768,9-21-2022,15-56-43,110,depth_duration_stimuli/000368_2014-06-09_15-53-01_260595134347_rgbf000155-resize_2/000368_2014-06-09_15-53-01_260595134347_rgbf000155-resize_2-target.png,250,2.4859999999999998,6,3263,287,meters,jsons/v1_VE250_randls_61.json,1158465,1369210,40,Woman
110,236494,DepthScenes,duration_manipulation_targetAtFixation,jsons/v1_VE250_randls_61.json,http://54.235.29.9/FacialAge/BNav_EC2/DepthDuration/v2_depth_duration_MTurk/v2_DepthDuration_HTML.html#381,381,1366,657,1366,768,9-21-2022,15-56-43,111,depth_duration_stimuli/002678_2014-06-13_16-15-32_094959634447_rgbf000151-resize_6/002678_2014-06-13_16-15-32_094959634447_rgbf000151-resize_6-target.png,250,2.1830000000000003,8,3492,249,meters,jsons/v1_VE250_randls_61.json,1158465,1369210,40,Woman
111,236494,DepthScenes,duration_manipulation_targetAtFixation,jsons/v1_VE250_randls_61.json,http://54.235.29.9/FacialAge/BNav_EC2/DepthDuration/v2_depth_duration_MTurk/v2_DepthDuration_HTML.html#381,381,1366,657,1366,768,9-21-2022,15-56-43,112,depth_duration_stimuli/003621_2014-05-23_18-06-08_094959634447_rgbf000101-resize_1/003621_2014-05-23_18-06-08_094959634447_rgbf000101-resize_1-target.png,250,3.9835,8,6255,230,meters,jsons/v1_VE250_randls_61.json,1158465,1369210,40,Woman
112,236494,DepthScenes,duration_manipulation_targetAtFixation,jsons/v1_VE250_randls_61.json,http://54.235.29.9/FacialAge/BNav_EC2/DepthDuration/v2_depth_duration_MTurk/v2_DepthDuration_HTML.html#381,381,1366,657,1366,768,9-21-2022,15-56-43,113,depth_duration_stimuli/001584_2014-06-20_11-07-43_260595134347_rgbf000002-resize_1/001584_2014-06-20_11-07-43_260595134347_rgbf000002-resize_1-target.png,250,3.53,6,5151,247,meters,jsons/v1_VE250_randls_61.json,1158465,1369210,40,Woman
113,236494,DepthScenes,duration_manipulation_targetAtFixation,jsons/v1_VE250_randls_61.json,http://54.235.29.9/FacialAge/BNav_EC2/DepthDuration/v2_depth_duration_MTurk/v2_DepthDuration_HTML.html#381,381,1366,657,1366,768,9-21-2022,15-56-43,114,depth_duration_stimuli/000878_2014-06-08_22-52-45_260595134347_rgbf000045-resize_2/000878_2014-06-08_22-52-45_260595134347_rgbf000045-resize_2-target.png,250,2.092,7,5040,301,meters,jsons/v1_VE250_randls_61.json,1158465,1369210,40,Woman
114,236494,DepthScenes,duration_manipulation_targetAtFixation,jsons/v1_VE250_randls_61.json,http://54.235.29.9/FacialAge/BNav_EC2/DepthDuration/v2_depth_duration_MTurk/v2_DepthDuration_HTML.html#381,381,1366,657,1366,768,9-21-2022,15-56-43,115,depth_duration_stimuli/002953_2014-06-08_17-32-18_094959634447_rgbf000059-resize_5/002953_2014-06-08_17-32-18_094959634447_rgbf000059-resize_5-target.png,250,1.551,6,3203,248,meters,jsons/v1_VE250_randls_61.json,1158465,1369210,40,Woman
115,236494,DepthScenes,duration_manipulation_targetAtFixation,jsons/v1_VE250_randls_61.json,http://54.235.29.9/FacialAge/BNav_EC2/DepthDuration/v2_depth_duration_MTurk/v2_DepthDuration_HTML.html#381,381,1366,657,1366,768,9-21-2022,15-56-43,116,depth_duration_stimuli/001170_2014-06-17_15-43-44_260595134347_rgbf000096-resize_6/001170_2014-06-17_15-43-44_260595134347_rgbf000096-resize-original.jpg,250,1.1909999999999998,8,30575,249,meters,jsons/v1_VE250_randls_61.json,1158465,1369210,40,Woman
116,236494,DepthScenes,duration_manipulation_targetAtFixation,jsons/v1_VE250_randls_61.json,http://54.235.29.9/FacialAge/BNav_EC2/DepthDuration/v2_depth_duration_MTurk/v2_DepthDuration_HTML.html#381,381,1366,657,1366,768,9-21-2022,15-56-43,117,depth_duration_stimuli/001164_2014-06-17_15-35-46_260595134347_rgbf000085-resize_3/001164_2014-06-17_15-35-46_260595134347_rgbf000085-resize_3-target.png,250,2.354,7,4434,249,meters,jsons/v1_VE250_randls_61.json,1158465,1369210,40,Woman
117,236494,DepthScenes,duration_manipulation_targetAtFixation,jsons/v1_VE250_randls_61.json,http://54.235.29.9/FacialAge/BNav_EC2/DepthDuration/v2_depth_duration_MTurk/v2_DepthDuration_HTML.html#381,381,1366,657,1366,768,9-21-2022,15-56-43,118,depth_duration_stimuli/001136_2014-06-17_15-19-41_260595134347_rgbf000076-resize_3/001136_2014-06-17_15-19-41_260595134347_rgbf000076-resize_3-target.png,250,1.8655,8,2868,269,meters,jsons/v1_VE250_randls_61.json,1158465,1369210,40,Woman
118,236494,DepthScenes,duration_manipulation_targetAtFixation,jsons/v1_VE250_randls_61.json,http://54.235.29.9/FacialAge/BNav_EC2/DepthDuration/v2_depth_duration_MTurk/v2_DepthDuration_HTML.html#381,381,1366,657,1366,768,9-21-2022,15-56-43,119,depth_duration_stimuli/000009_2014-05-26_14-32-05_260595134347_rgbf000034-resize_3/000009_2014-05-26_14-32-05_260595134347_rgbf000034-resize_3-target.png,250,3.8715,8,2835,249,meters,jsons/v1_VE250_randls_61.json,1158465,1369210,40,Woman
119,236494,DepthScenes,duration_manipulation_targetAtFixation,jsons/v1_VE250_randls_61.json,http://54.235.29.9/FacialAge/BNav_EC2/DepthDuration/v2_depth_duration_MTurk/v2_DepthDuration_HTML.html#381,381,1366,657,1366,768,9-21-2022,15-56-43,120,depth_duration_stimuli/001828_2014-06-26_21-40-03_260595134347_rgbf000024-resize_0/001828_2014-06-26_21-40-03_260595134347_rgbf000024-resize_0-target.png,250,4.8260000000000005,8,35763,249,meters,jsons/v1_VE250_randls_61.json,1158465,1369210,40,Woman
120,236494,DepthScenes,duration_manipulation_targetAtFixation,jsons/v1_VE250_randls_61.json,http://54.235.29.9/FacialAge/BNav_EC2/DepthDuration/v2_depth_duration_MTurk/v2_DepthDuration_HTML.html#381,381,1366,657,1366,768,9-21-2022,15-56-43,121,depth_duration_stimuli/001133_2014-06-17_14-49-16_260595134347_rgbf000100-resize_0/001133_2014-06-17_14-49-16_260595134347_rgbf000100-resize_0-target.png,250,4.2115,9,2833,248,meters,jsons/v1_VE250_randls_61.json,1158465,1369210,40,Woman
121,236494,DepthScenes,duration_manipulation_targetAtFixation,jsons/v1_VE250_randls_61.json,http://54.235.29.9/FacialAge/BNav_EC2/DepthDuration/v2_depth_duration_MTurk/v2_DepthDuration_HTML.html#381,381,1366,657,1366,768,9-21-2022,15-56-43,122,depth_duration_stimuli/001132_2014-06-17_14-48-54_260595134347_rgbf000100-resize_2/001132_2014-06-17_14-48-54_260595134347_rgbf000100-resize_2-target.png,250,3.753,8,2911,197,meters,jsons/v1_VE250_randls_61.json,1158465,1369210,40,Woman
122,236494,DepthScenes,duration_manipulation_targetAtFixation,jsons/v1_VE250_randls_61.json,http://54.235.29.9/FacialAge/BNav_EC2/DepthDuration/v2_depth_duration_MTurk/v2_DepthDuration_HTML.html#381,381,1366,657,1366,768,9-21-2022,15-56-43,123,depth_duration_stimuli/003292_2014-05-14_21-53-49_094959634447_rgbf000100-resize_2/003292_2014-05-14_21-53-49_094959634447_rgbf000100-resize_2-target.png,250,3.4815,7,2722,249,meters,jsons/v1_VE250_randls_61.json,1158465,1369210,40,Woman
123,236494,DepthScenes,duration_manipulation_targetAtFixation,jsons/v1_VE250_randls_61.json,http://54.235.29.9/FacialAge/BNav_EC2/DepthDuration/v2_depth_duration_MTurk/v2_DepthDuration_HTML.html#381,381,1366,657,1366,768,9-21-2022,15-56-43,124,depth_duration_stimuli/002639_2014-06-24_14-51-37_094959634447_rgbf000074-resize_4/002639_2014-06-24_14-51-37_094959634447_rgbf000074-resize_4-target.png,250,4.0375,9,3235,249,meters,jsons/v1_VE250_randls_61.json,1158465,1369210,40,Woman
124,236494,DepthScenes,duration_manipulation_targetAtFixation,jsons/v1_VE250_randls_61.json,http://54.235.29.9/FacialAge/BNav_EC2/DepthDuration/v2_depth_duration_MTurk/v2_DepthDuration_HTML.html#381,381,1366,657,1366,768,9-21-2022,15-56-43,125,depth_duration_stimuli/001167_2014-06-17_15-38-07_260595134347_rgbf000108-resize_0/001167_2014-06-17_15-38-07_260595134347_rgbf000108-resize_0-target.png,250,1.8505,6,3233,259,meters,jsons/v1_VE250_randls_61.json,1158465,1369210,40,Woman
125,236494,DepthScenes,duration_manipulation_targetAtFixation,jsons/v1_VE250_randls_61.json,http://54.235.29.9/FacialAge/BNav_EC2/DepthDuration/v2_depth_duration_MTurk/v2_DepthDuration_HTML.html#381,381,1366,657,1366,768,9-21-2022,15-56-43,126,depth_duration_stimuli/003587_2014-05-23_16-48-02_094959634447_rgbf002384-resize_2/003587_2014-05-23_16-48-02_094959634447_rgbf002384-resize_2-target.png,250,1.357,5,2678,336,meters,jsons/v1_VE250_randls_61.json,1158465,1369210,40,Woman
126,236494,DepthScenes,duration_manipulation_targetAtFixation,jsons/v1_VE250_randls_61.json,http://54.235.29.9/FacialAge/BNav_EC2/DepthDuration/v2_depth_duration_MTurk/v2_DepthDuration_HTML.html#381,381,1366,657,1366,768,9-21-2022,15-56-43,127,depth_duration_stimuli/001158_2014-06-17_15-32-16_260595134347_rgbf000138-resize_2/001158_2014-06-17_15-32-16_260595134347_rgbf000138-resize_2-target.png,250,4.5315,8,3563,249,meters,jsons/v1_VE250_randls_61.json,1158465,1369210,40,Woman
127,236494,DepthScenes,duration_manipulation_targetAtFixation,jsons/v1_VE250_randls_61.json,http://54.235.29.9/FacialAge/BNav_EC2/DepthDuration/v2_depth_duration_MTurk/v2_DepthDuration_HTML.html#381,381,1366,657,1366,768,9-21-2022,15-56-43,128,depth_duration_stimuli/000556_2014-06-09_22-42-56_260595134347_rgbf000214-resize_1/000556_2014-06-09_22-42-56_260595134347_rgbf000214-resize_1-target.png,250,4.8415,7,3331,160,meters,jsons/v1_VE250_randls_61.json,1158465,1369210,40,Woman
128,236494,DepthScenes,duration_manipulation_targetAtFixation,jsons/v1_VE250_randls_61.json,http://54.235.29.9/FacialAge/BNav_EC2/DepthDuration/v2_depth_duration_MTurk/v2_DepthDuration_HTML.html#381,381,1366,657,1366,768,9-21-2022,15-56-43,129,depth_duration_stimuli/000469_2014-06-09_19-42-10_260595134347_rgbf000081-resize_1/000469_2014-06-09_19-42-10_260595134347_rgbf000081-resize_1-target.png,250,1.652,6,3536,248,meters,jsons/v1_VE250_randls_61.json,1158465,1369210,40,Woman
129,236494,DepthScenes,duration_manipulation_targetAtFixation,jsons/v1_VE250_randls_61.json,http://54.235.29.9/FacialAge/BNav_EC2/DepthDuration/v2_depth_duration_MTurk/v2_DepthDuration_HTML.html#381,381,1366,657,1366,768,9-21-2022,15-56-43,130,depth_duration_stimuli/000483_2014-06-09_20-41-45_260595134347_rgbf000116-resize_4/000483_2014-06-09_20-41-45_260595134347_rgbf000116-resize_4-target.png,250,1.337,5,3120,252,meters,jsons/v1_VE250_randls_61.json,1158465,1369210,40,Woman
130,236494,DepthScenes,duration_manipulation_targetAtFixation,jsons/v1_VE250_randls_61.json,http://54.235.29.9/FacialAge/BNav_EC2/DepthDuration/v2_depth_duration_MTurk/v2_DepthDuration_HTML.html#381,381,1366,657,1366,768,9-21-2022,15-56-43,131,depth_duration_stimuli/002272_2014-06-28_18-53-56_260595134347_rgbf000067-resize_2/002272_2014-06-28_18-53-56_260595134347_rgbf000067-resize_2-target.png,250,1.138,5,2973,243,meters,jsons/v1_VE250_randls_61.json,1158465,1369210,40,Woman
131,236494,DepthScenes,duration_manipulation_targetAtFixation,jsons/v1_VE250_randls_61.json,http://54.235.29.9/FacialAge/BNav_EC2/DepthDuration/v2_depth_duration_MTurk/v2_DepthDuration_HTML.html#381,381,1366,657,1366,768,9-21-2022,15-56-43,132,depth_duration_stimuli/001571_2014-06-20_17-21-32_260595134347_rgbf000089-resize_1/001571_2014-06-20_17-21-32_260595134347_rgbf000089-resize_1-target.png,250,1.86,6,2998,250,meters,jsons/v1_VE250_randls_61.json,1158465,1369210,40,Woman
132,236494,DepthScenes,duration_manipulation_targetAtFixation,jsons/v1_VE250_randls_61.json,http://54.235.29.9/FacialAge/BNav_EC2/DepthDuration/v2_depth_duration_MTurk/v2_DepthDuration_HTML.html#381,381,1366,657,1366,768,9-21-2022,15-56-43,133,depth_duration_stimuli/000906_2014-06-08_13-35-43_260595134347_rgbf000155-resize_1/000906_2014-06-08_13-35-43_260595134347_rgbf000155-resize_1-target.png,250,2.8489999999999998,8,2769,248,meters,jsons/v1_VE250_randls_61.json,1158465,1369210,40,Woman
133,236494,DepthScenes,duration_manipulation_targetAtFixation,jsons/v1_VE250_randls_61.json,http://54.235.29.9/FacialAge/BNav_EC2/DepthDuration/v2_depth_duration_MTurk/v2_DepthDuration_HTML.html#381,381,1366,657,1366,768,9-21-2022,15-56-43,134,depth_duration_stimuli/002805_2014-06-22_19-54-03_094959634447_rgbf000079-resize_1/002805_2014-06-22_19-54-03_094959634447_rgbf000079-resize_1-target.png,250,3.1439999999999997,9,2905,250,meters,jsons/v1_VE250_randls_61.json,1158465,1369210,40,Woman
134,236494,DepthScenes,duration_manipulation_targetAtFixation,jsons/v1_VE250_randls_61.json,http://54.235.29.9/FacialAge/BNav_EC2/DepthDuration/v2_depth_duration_MTurk/v2_DepthDuration_HTML.html#381,381,1366,657,1366,768,9-21-2022,15-56-43,135,depth_duration_stimuli/002072_2014-06-24_21-48-06_260595134347_rgbf000115-resize_0/002072_2014-06-24_21-48-06_260595134347_rgbf000115-resize-original.jpg,250,4.702,10,4708,245,meters,jsons/v1_VE250_randls_61.json,1158465,1369210,40,Woman
135,236494,DepthScenes,duration_manipulation_targetAtFixation,jsons/v1_VE250_randls_61.json,http://54.235.29.9/FacialAge/BNav_EC2/DepthDuration/v2_depth_duration_MTurk/v2_DepthDuration_HTML.html#381,381,1366,657,1366,768,9-21-2022,15-56-43,136,depth_duration_stimuli/001016_2014-06-09_16-16-10_260595134347_rgbf000112-resize_5/001016_2014-06-09_16-16-10_260595134347_rgbf000112-resize_5-target.png,250,1.6565,5,6397,177,meters,jsons/v1_VE250_randls_61.json,1158465,1369210,40,Woman
136,236494,DepthScenes,duration_manipulation_targetAtFixation,jsons/v1_VE250_randls_61.json,http://54.235.29.9/FacialAge/BNav_EC2/DepthDuration/v2_depth_duration_MTurk/v2_DepthDuration_HTML.html#381,381,1366,657,1366,768,9-21-2022,15-56-43,137,depth_duration_stimuli/002340_2014-06-28_20-05-46_260595134347_rgbf000113-resize_0/002340_2014-06-28_20-05-46_260595134347_rgbf000113-resize_0-target.png,250,2.4735,8,2949,138,meters,jsons/v1_VE250_randls_61.json,1158465,1369210,40,Woman
137,236494,DepthScenes,duration_manipulation_targetAtFixation,jsons/v1_VE250_randls_61.json,http://54.235.29.9/FacialAge/BNav_EC2/DepthDuration/v2_depth_duration_MTurk/v2_DepthDuration_HTML.html#381,381,1366,657,1366,768,9-21-2022,15-56-43,138,depth_duration_stimuli/000810_2014-06-08_17-20-01_260595134347_rgbf000105-resize_0/000810_2014-06-08_17-20-01_260595134347_rgbf000105-resize_0-target.png,250,1.4865,7,8606,247,meters,jsons/v1_VE250_randls_61.json,1158465,1369210,40,Woman
138,236494,DepthScenes,duration_manipulation_targetAtFixation,jsons/v1_VE250_randls_61.json,http://54.235.29.9/FacialAge/BNav_EC2/DepthDuration/v2_depth_duration_MTurk/v2_DepthDuration_HTML.html#381,381,1366,657,1366,768,9-21-2022,15-56-43,139,depth_duration_stimuli/001214_2014-06-17_16-13-55_260595134347_rgbf000111-resize_0/001214_2014-06-17_16-13-55_260595134347_rgbf000111-resize_0-target.png,250,2.6505,7,3344,249,meters,jsons/v1_VE250_randls_61.json,1158465,1369210,40,Woman
139,236494,DepthScenes,duration_manipulation_targetAtFixation,jsons/v1_VE250_randls_61.json,http://54.235.29.9/FacialAge/BNav_EC2/DepthDuration/v2_depth_duration_MTurk/v2_DepthDuration_HTML.html#381,381,1366,657,1366,768,9-21-2022,15-56-43,140,depth_duration_stimuli/001810_2014-06-26_20-51-35_260595134347_rgbf000040-resize_3/001810_2014-06-26_20-51-35_260595134347_rgbf000040-resize_3-target.png,250,2.2525,5,3078,249,meters,jsons/v1_VE250_randls_61.json,1158465,1369210,40,Woman
140,236494,DepthScenes,duration_manipulation_targetAtFixation,jsons/v1_VE250_randls_61.json,http://54.235.29.9/FacialAge/BNav_EC2/DepthDuration/v2_depth_duration_MTurk/v2_DepthDuration_HTML.html#381,381,1366,657,1366,768,9-21-2022,15-56-43,141,depth_duration_stimuli/003010_2014-06-15_12-54-35_094959634447_rgbf000112-resize_0/003010_2014-06-15_12-54-35_094959634447_rgbf000112-resize_0-target.png,250,3.1185,10,5807,249,meters,jsons/v1_VE250_randls_61.json,1158465,1369210,40,Woman
141,236494,DepthScenes,duration_manipulation_targetAtFixation,jsons/v1_VE250_randls_61.json,http://54.235.29.9/FacialAge/BNav_EC2/DepthDuration/v2_depth_duration_MTurk/v2_DepthDuration_HTML.html#381,381,1366,657,1366,768,9-21-2022,15-56-43,142,depth_duration_stimuli/001059_2014-06-08_21-53-27_260595134347_rgbf000061-resize_4/001059_2014-06-08_21-53-27_260595134347_rgbf000061-resize_4-target.png,250,2.4185,6,3914,245,meters,jsons/v1_VE250_randls_61.json,1158465,1369210,40,Woman
142,236494,DepthScenes,duration_manipulation_targetAtFixation,jsons/v1_VE250_randls_61.json,http://54.235.29.9/FacialAge/BNav_EC2/DepthDuration/v2_depth_duration_MTurk/v2_DepthDuration_HTML.html#381,381,1366,657,1366,768,9-21-2022,15-56-43,143,depth_duration_stimuli/001032_2014-06-08_13-23-17_260595134347_rgbf000021-resize_3/001032_2014-06-08_13-23-17_260595134347_rgbf000021-resize_3-target.png,250,3.2725,5,3977,250,meters,jsons/v1_VE250_randls_61.json,1158465,1369210,40,Woman
143,236494,DepthScenes,duration_manipulation_targetAtFixation,jsons/v1_VE250_randls_61.json,http://54.235.29.9/FacialAge/BNav_EC2/DepthDuration/v2_depth_duration_MTurk/v2_DepthDuration_HTML.html#381,381,1366,657,1366,768,9-21-2022,15-56-43,144,depth_duration_stimuli/003070_2014-06-15_14-58-27_094959634447_rgbf000150-resize_3/003070_2014-06-15_14-58-27_094959634447_rgbf000150-resize_3-target.png,250,2.9415,7,3330,261,meters,jsons/v1_VE250_randls_61.json,1158465,1369210,40,Woman
144,236494,DepthScenes,duration_manipulation_targetAtFixation,jsons/v1_VE250_randls_61.json,http://54.235.29.9/FacialAge/BNav_EC2/DepthDuration/v2_depth_duration_MTurk/v2_DepthDuration_HTML.html#381,381,1366,657,1366,768,9-21-2022,15-56-43,145,depth_duration_stimuli/000943_2014-06-09_19-31-07_260595134347_rgbf000128-resize_1/000943_2014-06-09_19-31-07_260595134347_rgbf000128-resize_1-target.png,250,1.9765,6,3600,250,meters,jsons/v1_VE250_randls_61.json,1158465,1369210,40,Woman
145,236494,DepthScenes,duration_manipulation_targetAtFixation,jsons/v1_VE250_randls_61.json,http://54.235.29.9/FacialAge/BNav_EC2/DepthDuration/v2_depth_duration_MTurk/v2_DepthDuration_HTML.html#381,381,1366,657,1366,768,9-21-2022,15-56-43,146,depth_duration_stimuli/001498_2014-06-19_17-45-14_260595134347_rgbf000129-resize_4/001498_2014-06-19_17-45-14_260595134347_rgbf000129-resize-original.jpg,250,1.4075,5,3102,212,meters,jsons/v1_VE250_randls_61.json,1158465,1369210,40,Woman
146,236494,DepthScenes,duration_manipulation_targetAtFixation,jsons/v1_VE250_randls_61.json,http://54.235.29.9/FacialAge/BNav_EC2/DepthDuration/v2_depth_duration_MTurk/v2_DepthDuration_HTML.html#381,381,1366,657,1366,768,9-21-2022,15-56-43,147,depth_duration_stimuli/002964_2014-06-08_17-46-11_094959634447_rgbf000091-resize_4/002964_2014-06-08_17-46-11_094959634447_rgbf000091-resize_4-target.png,250,1.6909999999999998,6,3279,249,meters,jsons/v1_VE250_randls_61.json,1158465,1369210,40,Woman
147,236494,DepthScenes,duration_manipulation_targetAtFixation,jsons/v1_VE250_randls_61.json,http://54.235.29.9/FacialAge/BNav_EC2/DepthDuration/v2_depth_duration_MTurk/v2_DepthDuration_HTML.html#381,381,1366,657,1366,768,9-21-2022,15-56-43,148,depth_duration_stimuli/002136_2014-06-25_21-18-03_260595134347_rgbf000109-resize_3/002136_2014-06-25_21-18-03_260595134347_rgbf000109-resize_3-target.png,250,1.9569999999999999,5,3451,249,meters,jsons/v1_VE250_randls_61.json,1158465,1369210,40,Woman
148,236494,DepthScenes,duration_manipulation_targetAtFixation,jsons/v1_VE250_randls_61.json,http://54.235.29.9/FacialAge/BNav_EC2/DepthDuration/v2_depth_duration_MTurk/v2_DepthDuration_HTML.html#381,381,1366,657,1366,768,9-21-2022,15-56-43,149,depth_duration_stimuli/002039_2014-06-24_20-22-38_260595134347_rgbf000084-resize_1/002039_2014-06-24_20-22-38_260595134347_rgbf000084-resize_1-target.png,250,4.408,7,6123,248,meters,jsons/v1_VE250_randls_61.json,1158465,1369210,40,Woman
149,236494,DepthScenes,duration_manipulation_targetAtFixation,jsons/v1_VE250_randls_61.json,http://54.235.29.9/FacialAge/BNav_EC2/DepthDuration/v2_depth_duration_MTurk/v2_DepthDuration_HTML.html#381,381,1366,657,1366,768,9-21-2022,15-56-43,150,depth_duration_stimuli/002103_2014-06-25_20-00-40_260595134347_rgbf000049-resize_0/002103_2014-06-25_20-00-40_260595134347_rgbf000049-resize_0-target.png,250,4.105,8,4000,275,meters,jsons/v1_VE250_randls_61.json,1158465,1369210,40,Woman
150,236494,DepthScenes,duration_manipulation_targetAtFixation,jsons/v1_VE250_randls_61.json,http://54.235.29.9/FacialAge/BNav_EC2/DepthDuration/v2_depth_duration_MTurk/v2_DepthDuration_HTML.html#381,381,1366,657,1366,768,9-21-2022,15-56-43,151,depth_duration_stimuli/001029_2014-06-08_13-17-57_260595134347_rgbf000065-resize_1/001029_2014-06-08_13-17-57_260595134347_rgbf000065-resize_1-target.png,250,3.0835,8,3637,249,meters,jsons/v1_VE250_randls_61.json,1158465,1369210,40,Woman
151,236494,DepthScenes,duration_manipulation_targetAtFixation,jsons/v1_VE250_randls_61.json,http://54.235.29.9/FacialAge/BNav_EC2/DepthDuration/v2_depth_duration_MTurk/v2_DepthDuration_HTML.html#381,381,1366,657,1366,768,9-21-2022,15-56-43,152,depth_duration_stimuli/000677_2014-06-08_23-10-32_260595134347_rgbf000158-resize_6/000677_2014-06-08_23-10-32_260595134347_rgbf000158-resize_6-target.png,250,3.556,8,6465,248,meters,jsons/v1_VE250_randls_61.json,1158465,1369210,40,Woman
152,236494,DepthScenes,duration_manipulation_targetAtFixation,jsons/v1_VE250_randls_61.json,http://54.235.29.9/FacialAge/BNav_EC2/DepthDuration/v2_depth_duration_MTurk/v2_DepthDuration_HTML.html#381,381,1366,657,1366,768,9-21-2022,15-56-43,153,depth_duration_stimuli/001199_2014-06-17_16-03-48_260595134347_rgbf000077-resize_0/001199_2014-06-17_16-03-48_260595134347_rgbf000077-resize_0-target.png,250,3.4375,6,9104,249,meters,jsons/v1_VE250_randls_61.json,1158465,1369210,40,Woman
153,236494,DepthScenes,duration_manipulation_targetAtFixation,jsons/v1_VE250_randls_61.json,http://54.235.29.9/FacialAge/BNav_EC2/DepthDuration/v2_depth_duration_MTurk/v2_DepthDuration_HTML.html#381,381,1366,657,1366,768,9-21-2022,15-56-43,154,depth_duration_stimuli/000502_2014-06-08_23-02-32_260595134347_rgbf000063-resize_4/000502_2014-06-08_23-02-32_260595134347_rgbf000063-resize_4-target.png,250,2.431,6,13122,248,meters,jsons/v1_VE250_randls_61.json,1158465,1369210,40,Woman
154,236494,DepthScenes,duration_manipulation_targetAtFixation,jsons/v1_VE250_randls_61.json,http://54.235.29.9/FacialAge/BNav_EC2/DepthDuration/v2_depth_duration_MTurk/v2_DepthDuration_HTML.html#381,381,1366,657,1366,768,9-21-2022,15-56-43,155,depth_duration_stimuli/001092_2014-06-15_17-34-58_260595134347_rgbf000171-resize_3/001092_2014-06-15_17-34-58_260595134347_rgbf000171-resize_3-target.png,250,2.6935,6,4685,247,meters,jsons/v1_VE250_randls_61.json,1158465,1369210,40,Woman
155,236494,DepthScenes,duration_manipulation_targetAtFixation,jsons/v1_VE250_randls_61.json,http://54.235.29.9/FacialAge/BNav_EC2/DepthDuration/v2_depth_duration_MTurk/v2_DepthDuration_HTML.html#381,381,1366,657,1366,768,9-21-2022,15-56-43,156,depth_duration_stimuli/002545_2014-06-24_13-38-53_094959634447_rgbf000080-resize_4/002545_2014-06-24_13-38-53_094959634447_rgbf000080-resize_4-target.png,250,1.9205,5,4169,378,meters,jsons/v1_VE250_randls_61.json,1158465,1369210,40,Woman
156,236494,DepthScenes,duration_manipulation_targetAtFixation,jsons/v1_VE250_randls_61.json,http://54.235.29.9/FacialAge/BNav_EC2/DepthDuration/v2_depth_duration_MTurk/v2_DepthDuration_HTML.html#381,381,1366,657,1366,768,9-21-2022,15-56-43,157,depth_duration_stimuli/002279_2014-06-28_18-55-32_260595134347_rgbf000040-resize_5/002279_2014-06-28_18-55-32_260595134347_rgbf000040-resize_5-target.png,250,1.5043333333333,6,4175,250,meters,jsons/v1_VE250_randls_61.json,1158465,1369210,40,Woman
157,236494,DepthScenes,duration_manipulation_targetAtFixation,jsons/v1_VE250_randls_61.json,http://54.235.29.9/FacialAge/BNav_EC2/DepthDuration/v2_depth_duration_MTurk/v2_DepthDuration_HTML.html#381,381,1366,657,1366,768,9-21-2022,15-56-43,158,depth_duration_stimuli/000635_2014-06-08_16-38-42_260595134347_rgbf000106-resize_1/000635_2014-06-08_16-38-42_260595134347_rgbf000106-resize_1-target.png,250,2.074,7,5848,248,meters,jsons/v1_VE250_randls_61.json,1158465,1369210,40,Woman
158,236494,DepthScenes,duration_manipulation_targetAtFixation,jsons/v1_VE250_randls_61.json,http://54.235.29.9/FacialAge/BNav_EC2/DepthDuration/v2_depth_duration_MTurk/v2_DepthDuration_HTML.html#381,381,1366,657,1366,768,9-21-2022,15-56-43,159,depth_duration_stimuli/002153_2014-06-25_21-27-18_260595134347_rgbf000038-resize_5/002153_2014-06-25_21-27-18_260595134347_rgbf000038-resize_5-target.png,250,2.505,7,4822,246,meters,jsons/v1_VE250_randls_61.json,1158465,1369210,40,Woman
159,236494,DepthScenes,duration_manipulation_targetAtFixation,jsons/v1_VE250_randls_61.json,http://54.235.29.9/FacialAge/BNav_EC2/DepthDuration/v2_depth_duration_MTurk/v2_DepthDuration_HTML.html#381,381,1366,657,1366,768,9-21-2022,15-56-43,160,depth_duration_stimuli/002660_2014-06-13_15-44-18_094959634447_rgbf001878-resize_2/002660_2014-06-13_15-44-18_094959634447_rgbf001878-resize_2-target.png,250,3.576,5,5176,247,meters,jsons/v1_VE250_randls_61.json,1158465,1369210,40,Woman
160,236494,DepthScenes,duration_manipulation_targetAtFixation,jsons/v1_VE250_randls_61.json,http://54.235.29.9/FacialAge/BNav_EC2/DepthDuration/v2_depth_duration_MTurk/v2_DepthDuration_HTML.html#381,381,1366,657,1366,768,9-21-2022,15-56-43,161,depth_duration_stimuli/000493_2014-06-09_21-01-18_260595134347_rgbf000196-resize_3/000493_2014-06-09_21-01-18_260595134347_rgbf000196-resize_3-target.png,250,3.44,5,5115,249,meters,jsons/v1_VE250_randls_61.json,1158465,1369210,40,Woman
161,236494,DepthScenes,duration_manipulation_targetAtFixation,jsons/v1_VE250_randls_61.json,http://54.235.29.9/FacialAge/BNav_EC2/DepthDuration/v2_depth_duration_MTurk/v2_DepthDuration_HTML.html#381,381,1366,657,1366,768,9-21-2022,15-56-43,162,depth_duration_stimuli/000191_2014-05-12_17-07-38_260595134347_rgbf000199-resize_0/000191_2014-05-12_17-07-38_260595134347_rgbf000199-resize_0-target.png,250,3.7995,6,6830,247,meters,jsons/v1_VE250_randls_61.json,1158465,1369210,40,Woman
162,236494,DepthScenes,duration_manipulation_targetAtFixation,jsons/v1_VE250_randls_61.json,http://54.235.29.9/FacialAge/BNav_EC2/DepthDuration/v2_depth_duration_MTurk/v2_DepthDuration_HTML.html#381,381,1366,657,1366,768,9-21-2022,15-56-43,163,depth_duration_stimuli/000739_2014-06-08_18-45-58_260595134347_rgbf000068-resize_1/000739_2014-06-08_18-45-58_260595134347_rgbf000068-resize_1-target.png,250,3.534,5,5214,249,meters,jsons/v1_VE250_randls_61.json,1158465,1369210,40,Woman
163,236494,DepthScenes,duration_manipulation_targetAtFixation,jsons/v1_VE250_randls_61.json,http://54.235.29.9/FacialAge/BNav_EC2/DepthDuration/v2_depth_duration_MTurk/v2_DepthDuration_HTML.html#381,381,1366,657,1366,768,9-21-2022,15-56-43,164,depth_duration_stimuli/000734_2014-06-08_17-39-11_260595134347_rgbf000128-resize_2/000734_2014-06-08_17-39-11_260595134347_rgbf000128-resize_2-target.png,250,4.098,7,7672,249,meters,jsons/v1_VE250_randls_61.json,1158465,1369210,40,Woman
