,subjID,experimentName,versionName,sequenceName,url,selected_row,windowWidth,windowHeight,screenWidth,screenHeight,startDate,startTime,trial,stimulus,duration,actual_depth,depth_estimate,trial_RT,log_sceneDuration,unitSelection,seq_filepath,experimentTime,totalTime,age,gender
0,237101,DepthScenes,duration_manipulation_targetAtFixation,jsons/v1_VE250_randls_7_rotated.json,http://54.235.29.9/FacialAge/BNav_EC2/DepthDuration/v2_depth_duration_MTurk/v2_DepthDuration_HTML.html#460,460,958,927,1920,1080,8-29-2022,10-5-42,1,depth_duration_stimuli/000502_2014-06-08_23-02-32_260595134347_rgbf000063-resize_4/000502_2014-06-08_23-02-32_260595134347_rgbf000063-resize_4-target.png,250,2.431,5,5025,250,feet,jsons/v1_VE250_randls_7_rotated.json,1078148,1291432,45,Man
1,237101,DepthScenes,duration_manipulation_targetAtFixation,jsons/v1_VE250_randls_7_rotated.json,http://54.235.29.9/FacialAge/BNav_EC2/DepthDuration/v2_depth_duration_MTurk/v2_DepthDuration_HTML.html#460,460,958,927,1920,1080,8-29-2022,10-5-42,2,depth_duration_stimuli/001199_2014-06-17_16-03-48_260595134347_rgbf000077-resize_0/001199_2014-06-17_16-03-48_260595134347_rgbf000077-resize_0-target.png,250,3.4375,12,5880,249,feet,jsons/v1_VE250_randls_7_rotated.json,1078148,1291432,45,Man
2,237101,DepthScenes,duration_manipulation_targetAtFixation,jsons/v1_VE250_randls_7_rotated.json,http://54.235.29.9/FacialAge/BNav_EC2/DepthDuration/v2_depth_duration_MTurk/v2_DepthDuration_HTML.html#460,460,958,927,1920,1080,8-29-2022,10-5-42,3,depth_duration_stimuli/000943_2014-06-09_19-31-07_260595134347_rgbf000128-resize_1/000943_2014-06-09_19-31-07_260595134347_rgbf000128-resize_1-target.png,250,1.9765,3,5703,249,feet,jsons/v1_VE250_randls_7_rotated.json,1078148,1291432,45,Man
3,237101,DepthScenes,duration_manipulation_targetAtFixation,jsons/v1_VE250_randls_7_rotated.json,http://54.235.29.9/FacialAge/BNav_EC2/DepthDuration/v2_depth_duration_MTurk/v2_DepthDuration_HTML.html#460,460,958,927,1920,1080,8-29-2022,10-5-42,4,depth_duration_stimuli/003070_2014-06-15_14-58-27_094959634447_rgbf000150-resize_3/003070_2014-06-15_14-58-27_094959634447_rgbf000150-resize_3-target.png,250,2.9415,8,6336,249,feet,jsons/v1_VE250_randls_7_rotated.json,1078148,1291432,45,Man
4,237101,DepthScenes,duration_manipulation_targetAtFixation,jsons/v1_VE250_randls_7_rotated.json,http://54.235.29.9/FacialAge/BNav_EC2/DepthDuration/v2_depth_duration_MTurk/v2_DepthDuration_HTML.html#460,460,958,927,1920,1080,8-29-2022,10-5-42,5,depth_duration_stimuli/002639_2014-06-24_14-51-37_094959634447_rgbf000074-resize_4/002639_2014-06-24_14-51-37_094959634447_rgbf000074-resize_4-target.png,250,4.0375,16,10694,250,feet,jsons/v1_VE250_randls_7_rotated.json,1078148,1291432,45,Man
5,237101,DepthScenes,duration_manipulation_targetAtFixation,jsons/v1_VE250_randls_7_rotated.json,http://54.235.29.9/FacialAge/BNav_EC2/DepthDuration/v2_depth_duration_MTurk/v2_DepthDuration_HTML.html#460,460,958,927,1920,1080,8-29-2022,10-5-42,6,depth_duration_stimuli/003292_2014-05-14_21-53-49_094959634447_rgbf000100-resize_2/003292_2014-05-14_21-53-49_094959634447_rgbf000100-resize_2-target.png,250,3.4815,8,7551,250,feet,jsons/v1_VE250_randls_7_rotated.json,1078148,1291432,45,Man
6,237101,DepthScenes,duration_manipulation_targetAtFixation,jsons/v1_VE250_randls_7_rotated.json,http://54.235.29.9/FacialAge/BNav_EC2/DepthDuration/v2_depth_duration_MTurk/v2_DepthDuration_HTML.html#460,460,958,927,1920,1080,8-29-2022,10-5-42,7,depth_duration_stimuli/000191_2014-05-12_17-07-38_260595134347_rgbf000199-resize_0/000191_2014-05-12_17-07-38_260595134347_rgbf000199-resize_0-target.png,250,3.7995,14,6567,249,feet,jsons/v1_VE250_randls_7_rotated.json,1078148,1291432,45,Man
7,237101,DepthScenes,duration_manipulation_targetAtFixation,jsons/v1_VE250_randls_7_rotated.json,http://54.235.29.9/FacialAge/BNav_EC2/DepthDuration/v2_depth_duration_MTurk/v2_DepthDuration_HTML.html#460,460,958,927,1920,1080,8-29-2022,10-5-42,8,depth_duration_stimuli/000493_2014-06-09_21-01-18_260595134347_rgbf000196-resize_3/000493_2014-06-09_21-01-18_260595134347_rgbf000196-resize_3-target.png,250,3.44,11,5361,250,feet,jsons/v1_VE250_randls_7_rotated.json,1078148,1291432,45,Man
8,237101,DepthScenes,duration_manipulation_targetAtFixation,jsons/v1_VE250_randls_7_rotated.json,http://54.235.29.9/FacialAge/BNav_EC2/DepthDuration/v2_depth_duration_MTurk/v2_DepthDuration_HTML.html#460,460,958,927,1920,1080,8-29-2022,10-5-42,9,depth_duration_stimuli/000483_2014-06-09_20-41-45_260595134347_rgbf000116-resize_4/000483_2014-06-09_20-41-45_260595134347_rgbf000116-resize_4-target.png,250,1.337,7,5976,250,feet,jsons/v1_VE250_randls_7_rotated.json,1078148,1291432,45,Man
9,237101,DepthScenes,duration_manipulation_targetAtFixation,jsons/v1_VE250_randls_7_rotated.json,http://54.235.29.9/FacialAge/BNav_EC2/DepthDuration/v2_depth_duration_MTurk/v2_DepthDuration_HTML.html#460,460,958,927,1920,1080,8-29-2022,10-5-42,10,depth_duration_stimuli/000469_2014-06-09_19-42-10_260595134347_rgbf000081-resize_1/000469_2014-06-09_19-42-10_260595134347_rgbf000081-resize_1-target.png,250,1.652,5,4880,250,feet,jsons/v1_VE250_randls_7_rotated.json,1078148,1291432,45,Man
10,237101,DepthScenes,duration_manipulation_targetAtFixation,jsons/v1_VE250_randls_7_rotated.json,http://54.235.29.9/FacialAge/BNav_EC2/DepthDuration/v2_depth_duration_MTurk/v2_DepthDuration_HTML.html#460,460,958,927,1920,1080,8-29-2022,10-5-42,11,depth_duration_stimuli/003423_2014-05-21_10-23-26_094959634447_rgbf002665-resize_2/003423_2014-05-21_10-23-26_094959634447_rgbf002665-resize_2-target.png,250,3.2575,18,5897,249,feet,jsons/v1_VE250_randls_7_rotated.json,1078148,1291432,45,Man
11,237101,DepthScenes,duration_manipulation_targetAtFixation,jsons/v1_VE250_randls_7_rotated.json,http://54.235.29.9/FacialAge/BNav_EC2/DepthDuration/v2_depth_duration_MTurk/v2_DepthDuration_HTML.html#460,460,958,927,1920,1080,8-29-2022,10-5-42,12,depth_duration_stimuli/002905_2014-06-03_18-04-43_094959634447_rgbf000151-resize_2/002905_2014-06-03_18-04-43_094959634447_rgbf000151-resize_2-target.png,250,2.0295,5,5369,250,feet,jsons/v1_VE250_randls_7_rotated.json,1078148,1291432,45,Man
12,237101,DepthScenes,duration_manipulation_targetAtFixation,jsons/v1_VE250_randls_7_rotated.json,http://54.235.29.9/FacialAge/BNav_EC2/DepthDuration/v2_depth_duration_MTurk/v2_DepthDuration_HTML.html#460,460,958,927,1920,1080,8-29-2022,10-5-42,13,depth_duration_stimuli/003081_2014-06-15_15-19-16_094959634447_rgbf000150-resize_1/003081_2014-06-15_15-19-16_094959634447_rgbf000150-resize_1-target.png,250,3.9125,15,6440,250,feet,jsons/v1_VE250_randls_7_rotated.json,1078148,1291432,45,Man
13,237101,DepthScenes,duration_manipulation_targetAtFixation,jsons/v1_VE250_randls_7_rotated.json,http://54.235.29.9/FacialAge/BNav_EC2/DepthDuration/v2_depth_duration_MTurk/v2_DepthDuration_HTML.html#460,460,958,927,1920,1080,8-29-2022,10-5-42,14,depth_duration_stimuli/001417_2014-06-19_16-25-36_260595134347_rgbf000115-resize_5/001417_2014-06-19_16-25-36_260595134347_rgbf000115-resize_5-target.png,250,4.6255,18,7151,250,feet,jsons/v1_VE250_randls_7_rotated.json,1078148,1291432,45,Man
14,237101,DepthScenes,duration_manipulation_targetAtFixation,jsons/v1_VE250_randls_7_rotated.json,http://54.235.29.9/FacialAge/BNav_EC2/DepthDuration/v2_depth_duration_MTurk/v2_DepthDuration_HTML.html#460,460,958,927,1920,1080,8-29-2022,10-5-42,15,depth_duration_stimuli/002657_2014-06-13_15-29-54_094959634447_rgbf000150-resize_1/002657_2014-06-13_15-29-54_094959634447_rgbf000150-resize_1-target.png,250,4.919,15,6480,249,feet,jsons/v1_VE250_randls_7_rotated.json,1078148,1291432,45,Man
15,237101,DepthScenes,duration_manipulation_targetAtFixation,jsons/v1_VE250_randls_7_rotated.json,http://54.235.29.9/FacialAge/BNav_EC2/DepthDuration/v2_depth_duration_MTurk/v2_DepthDuration_HTML.html#460,460,958,927,1920,1080,8-29-2022,10-5-42,16,depth_duration_stimuli/002375_2014-06-28_20-13-44_260595134347_rgbf000032-resize_1/002375_2014-06-28_20-13-44_260595134347_rgbf000032-resize_1-target.png,250,4.0175,7,6191,249,feet,jsons/v1_VE250_randls_7_rotated.json,1078148,1291432,45,Man
16,237101,DepthScenes,duration_manipulation_targetAtFixation,jsons/v1_VE250_randls_7_rotated.json,http://54.235.29.9/FacialAge/BNav_EC2/DepthDuration/v2_depth_duration_MTurk/v2_DepthDuration_HTML.html#460,460,958,927,1920,1080,8-29-2022,10-5-42,17,depth_duration_stimuli/002323_2014-06-28_20-01-54_260595134347_rgbf000051-resize_4/002323_2014-06-28_20-01-54_260595134347_rgbf000051-resize_4-target.png,250,3.7310000000000003,21,5656,250,feet,jsons/v1_VE250_randls_7_rotated.json,1078148,1291432,45,Man
17,237101,DepthScenes,duration_manipulation_targetAtFixation,jsons/v1_VE250_randls_7_rotated.json,http://54.235.29.9/FacialAge/BNav_EC2/DepthDuration/v2_depth_duration_MTurk/v2_DepthDuration_HTML.html#460,460,958,927,1920,1080,8-29-2022,10-5-42,18,depth_duration_stimuli/000917_2014-06-09_22-45-29_260595134347_rgbf000149-resize_3/000917_2014-06-09_22-45-29_260595134347_rgbf000149-resize_3-target.png,250,4.1865,22,6265,250,feet,jsons/v1_VE250_randls_7_rotated.json,1078148,1291432,45,Man
18,237101,DepthScenes,duration_manipulation_targetAtFixation,jsons/v1_VE250_randls_7_rotated.json,http://54.235.29.9/FacialAge/BNav_EC2/DepthDuration/v2_depth_duration_MTurk/v2_DepthDuration_HTML.html#460,460,958,927,1920,1080,8-29-2022,10-5-42,19,depth_duration_stimuli/001498_2014-06-19_17-45-14_260595134347_rgbf000129-resize_4/001498_2014-06-19_17-45-14_260595134347_rgbf000129-resize-original.jpg,250,1.4075,0,5922,250,feet,jsons/v1_VE250_randls_7_rotated.json,1078148,1291432,45,Man
19,237101,DepthScenes,duration_manipulation_targetAtFixation,jsons/v1_VE250_randls_7_rotated.json,http://54.235.29.9/FacialAge/BNav_EC2/DepthDuration/v2_depth_duration_MTurk/v2_DepthDuration_HTML.html#460,460,958,927,1920,1080,8-29-2022,10-5-42,20,depth_duration_stimuli/003338_2014-05-20_11-01-23_094959634447_rgbf000051-resize_6/003338_2014-05-20_11-01-23_094959634447_rgbf000051-resize_6-target.png,250,1.693,4,5689,250,feet,jsons/v1_VE250_randls_7_rotated.json,1078148,1291432,45,Man
20,237101,DepthScenes,duration_manipulation_targetAtFixation,jsons/v1_VE250_randls_7_rotated.json,http://54.235.29.9/FacialAge/BNav_EC2/DepthDuration/v2_depth_duration_MTurk/v2_DepthDuration_HTML.html#460,460,958,927,1920,1080,8-29-2022,10-5-42,21,depth_duration_stimuli/002509_2014-06-24_13-19-22_094959634447_rgbf000077-resize_0/002509_2014-06-24_13-19-22_094959634447_rgbf000077-resize_0-target.png,250,1.3065,2,5864,249,feet,jsons/v1_VE250_randls_7_rotated.json,1078148,1291432,45,Man
21,237101,DepthScenes,duration_manipulation_targetAtFixation,jsons/v1_VE250_randls_7_rotated.json,http://54.235.29.9/FacialAge/BNav_EC2/DepthDuration/v2_depth_duration_MTurk/v2_DepthDuration_HTML.html#460,460,958,927,1920,1080,8-29-2022,10-5-42,22,depth_duration_stimuli/000103_2014-05-14_22-01-17_260595134347_rgbf000152-resize_5/000103_2014-05-14_22-01-17_260595134347_rgbf000152-resize_5-target.png,250,1.993,9,5320,249,feet,jsons/v1_VE250_randls_7_rotated.json,1078148,1291432,45,Man
22,237101,DepthScenes,duration_manipulation_targetAtFixation,jsons/v1_VE250_randls_7_rotated.json,http://54.235.29.9/FacialAge/BNav_EC2/DepthDuration/v2_depth_duration_MTurk/v2_DepthDuration_HTML.html#460,460,958,927,1920,1080,8-29-2022,10-5-42,23,depth_duration_stimuli/001555_2014-06-20_17-12-10_260595134347_rgbf000065-resize_4/001555_2014-06-20_17-12-10_260595134347_rgbf000065-resize_4-target.png,250,1.633,4,4736,250,feet,jsons/v1_VE250_randls_7_rotated.json,1078148,1291432,45,Man
23,237101,DepthScenes,duration_manipulation_targetAtFixation,jsons/v1_VE250_randls_7_rotated.json,http://54.235.29.9/FacialAge/BNav_EC2/DepthDuration/v2_depth_duration_MTurk/v2_DepthDuration_HTML.html#460,460,958,927,1920,1080,8-29-2022,10-5-42,24,depth_duration_stimuli/003079_2014-06-15_15-18-20_094959634447_rgbf000152-resize_8/003079_2014-06-15_15-18-20_094959634447_rgbf000152-resize_8-target.png,250,2.8775,12,7033,249,feet,jsons/v1_VE250_randls_7_rotated.json,1078148,1291432,45,Man
24,237101,DepthScenes,duration_manipulation_targetAtFixation,jsons/v1_VE250_randls_7_rotated.json,http://54.235.29.9/FacialAge/BNav_EC2/DepthDuration/v2_depth_duration_MTurk/v2_DepthDuration_HTML.html#460,460,958,927,1920,1080,8-29-2022,10-5-42,25,depth_duration_stimuli/000506_2014-06-08_23-21-00_260595134347_rgbf000070-resize_7/000506_2014-06-08_23-21-00_260595134347_rgbf000070-resize_7-target.png,250,4.0585,14,14963,249,feet,jsons/v1_VE250_randls_7_rotated.json,1078148,1291432,45,Man
25,237101,DepthScenes,duration_manipulation_targetAtFixation,jsons/v1_VE250_randls_7_rotated.json,http://54.235.29.9/FacialAge/BNav_EC2/DepthDuration/v2_depth_duration_MTurk/v2_DepthDuration_HTML.html#460,460,958,927,1920,1080,8-29-2022,10-5-42,26,depth_duration_stimuli/002414_2014-06-28_20-24-58_260595134347_rgbf000067-resize_4/002414_2014-06-28_20-24-58_260595134347_rgbf000067-resize_4-target.png,250,4.363,11,4799,250,feet,jsons/v1_VE250_randls_7_rotated.json,1078148,1291432,45,Man
26,237101,DepthScenes,duration_manipulation_targetAtFixation,jsons/v1_VE250_randls_7_rotated.json,http://54.235.29.9/FacialAge/BNav_EC2/DepthDuration/v2_depth_duration_MTurk/v2_DepthDuration_HTML.html#460,460,958,927,1920,1080,8-29-2022,10-5-42,27,depth_duration_stimuli/000773_2014-06-08_22-24-54_260595134347_rgbf000093-resize_1/000773_2014-06-08_22-24-54_260595134347_rgbf000093-resize_1-target.png,250,4.973,16,5857,249,feet,jsons/v1_VE250_randls_7_rotated.json,1078148,1291432,45,Man
27,237101,DepthScenes,duration_manipulation_targetAtFixation,jsons/v1_VE250_randls_7_rotated.json,http://54.235.29.9/FacialAge/BNav_EC2/DepthDuration/v2_depth_duration_MTurk/v2_DepthDuration_HTML.html#460,460,958,927,1920,1080,8-29-2022,10-5-42,28,depth_duration_stimuli/000665_2014-06-09_20-42-35_260595134347_rgbf000110-resize_1/000665_2014-06-09_20-42-35_260595134347_rgbf000110-resize_1-target.png,250,3.057,8,5376,248,feet,jsons/v1_VE250_randls_7_rotated.json,1078148,1291432,45,Man
28,237101,DepthScenes,duration_manipulation_targetAtFixation,jsons/v1_VE250_randls_7_rotated.json,http://54.235.29.9/FacialAge/BNav_EC2/DepthDuration/v2_depth_duration_MTurk/v2_DepthDuration_HTML.html#460,460,958,927,1920,1080,8-29-2022,10-5-42,29,depth_duration_stimuli/001150_2014-06-17_15-27-34_260595134347_rgbf000108-resize_2/001150_2014-06-17_15-27-34_260595134347_rgbf000108-resize_2-target.png,250,4.0325,13,5424,249,feet,jsons/v1_VE250_randls_7_rotated.json,1078148,1291432,45,Man
29,237101,DepthScenes,duration_manipulation_targetAtFixation,jsons/v1_VE250_randls_7_rotated.json,http://54.235.29.9/FacialAge/BNav_EC2/DepthDuration/v2_depth_duration_MTurk/v2_DepthDuration_HTML.html#460,460,958,927,1920,1080,8-29-2022,10-5-42,30,depth_duration_stimuli/002072_2014-06-24_21-48-06_260595134347_rgbf000115-resize_0/002072_2014-06-24_21-48-06_260595134347_rgbf000115-resize-original.jpg,250,4.702,12,5816,250,feet,jsons/v1_VE250_randls_7_rotated.json,1078148,1291432,45,Man
30,237101,DepthScenes,duration_manipulation_targetAtFixation,jsons/v1_VE250_randls_7_rotated.json,http://54.235.29.9/FacialAge/BNav_EC2/DepthDuration/v2_depth_duration_MTurk/v2_DepthDuration_HTML.html#460,460,958,927,1920,1080,8-29-2022,10-5-42,31,depth_duration_stimuli/000742_2014-06-08_18-48-09_260595134347_rgbf000164-resize_4/000742_2014-06-08_18-48-09_260595134347_rgbf000164-resize_4-target.png,250,4.632,14,5968,251,feet,jsons/v1_VE250_randls_7_rotated.json,1078148,1291432,45,Man
31,237101,DepthScenes,duration_manipulation_targetAtFixation,jsons/v1_VE250_randls_7_rotated.json,http://54.235.29.9/FacialAge/BNav_EC2/DepthDuration/v2_depth_duration_MTurk/v2_DepthDuration_HTML.html#460,460,958,927,1920,1080,8-29-2022,10-5-42,32,depth_duration_stimuli/001066_2014-06-08_22-03-20_260595134347_rgbf000066-resize_4/001066_2014-06-08_22-03-20_260595134347_rgbf000066-resize_4-target.png,250,4.2330000000000005,17,5457,249,feet,jsons/v1_VE250_randls_7_rotated.json,1078148,1291432,45,Man
32,237101,DepthScenes,duration_manipulation_targetAtFixation,jsons/v1_VE250_randls_7_rotated.json,http://54.235.29.9/FacialAge/BNav_EC2/DepthDuration/v2_depth_duration_MTurk/v2_DepthDuration_HTML.html#460,460,958,927,1920,1080,8-29-2022,10-5-42,33,depth_duration_stimuli/000409_2014-06-04_19-23-33_260595134347_rgbf000067-resize_0/000409_2014-06-04_19-23-33_260595134347_rgbf000067-resize_0-target.png,250,3.7335,8,5928,249,feet,jsons/v1_VE250_randls_7_rotated.json,1078148,1291432,45,Man
33,237101,DepthScenes,duration_manipulation_targetAtFixation,jsons/v1_VE250_randls_7_rotated.json,http://54.235.29.9/FacialAge/BNav_EC2/DepthDuration/v2_depth_duration_MTurk/v2_DepthDuration_HTML.html#460,460,958,927,1920,1080,8-29-2022,10-5-42,34,depth_duration_stimuli/002663_2014-06-13_15-50-26_094959634447_rgbf000075-resize_1/002663_2014-06-13_15-50-26_094959634447_rgbf000075-resize_1-target.png,250,4.7495,14,6496,249,feet,jsons/v1_VE250_randls_7_rotated.json,1078148,1291432,45,Man
34,237101,DepthScenes,duration_manipulation_targetAtFixation,jsons/v1_VE250_randls_7_rotated.json,http://54.235.29.9/FacialAge/BNav_EC2/DepthDuration/v2_depth_duration_MTurk/v2_DepthDuration_HTML.html#460,460,958,927,1920,1080,8-29-2022,10-5-42,35,depth_duration_stimuli/001392_2014-06-19_16-07-59_260595134347_rgbf000046-resize_1/001392_2014-06-19_16-07-59_260595134347_rgbf000046-resize_1-target.png,250,4.135,13,6808,250,feet,jsons/v1_VE250_randls_7_rotated.json,1078148,1291432,45,Man
35,237101,DepthScenes,duration_manipulation_targetAtFixation,jsons/v1_VE250_randls_7_rotated.json,http://54.235.29.9/FacialAge/BNav_EC2/DepthDuration/v2_depth_duration_MTurk/v2_DepthDuration_HTML.html#460,460,958,927,1920,1080,8-29-2022,10-5-42,36,depth_duration_stimuli/001570_2014-06-20_17-21-09_260595134347_rgbf000135-resize_4/001570_2014-06-20_17-21-09_260595134347_rgbf000135-resize_4-target.png,250,4.467,18,8311,249,feet,jsons/v1_VE250_randls_7_rotated.json,1078148,1291432,45,Man
36,237101,DepthScenes,duration_manipulation_targetAtFixation,jsons/v1_VE250_randls_7_rotated.json,http://54.235.29.9/FacialAge/BNav_EC2/DepthDuration/v2_depth_duration_MTurk/v2_DepthDuration_HTML.html#460,460,958,927,1920,1080,8-29-2022,10-5-42,37,depth_duration_stimuli/000927_2014-06-09_16-32-30_260595134347_rgbf000123-resize_3/000927_2014-06-09_16-32-30_260595134347_rgbf000123-resize_3-target.png,250,2.6785,11,5256,250,feet,jsons/v1_VE250_randls_7_rotated.json,1078148,1291432,45,Man
37,237101,DepthScenes,duration_manipulation_targetAtFixation,jsons/v1_VE250_randls_7_rotated.json,http://54.235.29.9/FacialAge/BNav_EC2/DepthDuration/v2_depth_duration_MTurk/v2_DepthDuration_HTML.html#460,460,958,927,1920,1080,8-29-2022,10-5-42,38,depth_duration_stimuli/001110_2014-06-15_17-25-28_260595134347_rgbf000150-resize_1/001110_2014-06-15_17-25-28_260595134347_rgbf000150-resize_1-target.png,250,1.7115,5,4825,250,feet,jsons/v1_VE250_randls_7_rotated.json,1078148,1291432,45,Man
38,237101,DepthScenes,duration_manipulation_targetAtFixation,jsons/v1_VE250_randls_7_rotated.json,http://54.235.29.9/FacialAge/BNav_EC2/DepthDuration/v2_depth_duration_MTurk/v2_DepthDuration_HTML.html#460,460,958,927,1920,1080,8-29-2022,10-5-42,39,depth_duration_stimuli/001136_2014-06-17_15-19-41_260595134347_rgbf000076-resize_3/001136_2014-06-17_15-19-41_260595134347_rgbf000076-resize_3-target.png,250,1.8655,7,5097,249,feet,jsons/v1_VE250_randls_7_rotated.json,1078148,1291432,45,Man
39,237101,DepthScenes,duration_manipulation_targetAtFixation,jsons/v1_VE250_randls_7_rotated.json,http://54.235.29.9/FacialAge/BNav_EC2/DepthDuration/v2_depth_duration_MTurk/v2_DepthDuration_HTML.html#460,460,958,927,1920,1080,8-29-2022,10-5-42,40,depth_duration_stimuli/001164_2014-06-17_15-35-46_260595134347_rgbf000085-resize_3/001164_2014-06-17_15-35-46_260595134347_rgbf000085-resize_3-target.png,250,2.354,8,5695,249,feet,jsons/v1_VE250_randls_7_rotated.json,1078148,1291432,45,Man
40,237101,DepthScenes,duration_manipulation_targetAtFixation,jsons/v1_VE250_randls_7_rotated.json,http://54.235.29.9/FacialAge/BNav_EC2/DepthDuration/v2_depth_duration_MTurk/v2_DepthDuration_HTML.html#460,460,958,927,1920,1080,8-29-2022,10-5-42,41,depth_duration_stimuli/000709_2014-06-08_13-51-55_260595134347_rgbf000068-resize_3/000709_2014-06-08_13-51-55_260595134347_rgbf000068-resize_3-target.png,250,1.8030000000000002,5,5032,249,feet,jsons/v1_VE250_randls_7_rotated.json,1078148,1291432,45,Man
41,237101,DepthScenes,duration_manipulation_targetAtFixation,jsons/v1_VE250_randls_7_rotated.json,http://54.235.29.9/FacialAge/BNav_EC2/DepthDuration/v2_depth_duration_MTurk/v2_DepthDuration_HTML.html#460,460,958,927,1920,1080,8-29-2022,10-5-42,42,depth_duration_stimuli/002057_2014-06-24_21-00-13_260595134347_rgbf000120-resize_1/002057_2014-06-24_21-00-13_260595134347_rgbf000120-resize_1-target.png,250,2.967,11,6944,250,feet,jsons/v1_VE250_randls_7_rotated.json,1078148,1291432,45,Man
42,237101,DepthScenes,duration_manipulation_targetAtFixation,jsons/v1_VE250_randls_7_rotated.json,http://54.235.29.9/FacialAge/BNav_EC2/DepthDuration/v2_depth_duration_MTurk/v2_DepthDuration_HTML.html#460,460,958,927,1920,1080,8-29-2022,10-5-42,43,depth_duration_stimuli/001650_2014-06-20_12-09-00_260595134347_rgbf000087-resize_3/001650_2014-06-20_12-09-00_260595134347_rgbf000087-resize_3-target.png,250,1.9505,2,6295,250,feet,jsons/v1_VE250_randls_7_rotated.json,1078148,1291432,45,Man
43,237101,DepthScenes,duration_manipulation_targetAtFixation,jsons/v1_VE250_randls_7_rotated.json,http://54.235.29.9/FacialAge/BNav_EC2/DepthDuration/v2_depth_duration_MTurk/v2_DepthDuration_HTML.html#460,460,958,927,1920,1080,8-29-2022,10-5-42,44,depth_duration_stimuli/000682_2014-06-08_23-14-58_260595134347_rgbf000041-resize_5/000682_2014-06-08_23-14-58_260595134347_rgbf000041-resize_5-target.png,250,2.7239999999999998,5,10806,249,feet,jsons/v1_VE250_randls_7_rotated.json,1078148,1291432,45,Man
44,237101,DepthScenes,duration_manipulation_targetAtFixation,jsons/v1_VE250_randls_7_rotated.json,http://54.235.29.9/FacialAge/BNav_EC2/DepthDuration/v2_depth_duration_MTurk/v2_DepthDuration_HTML.html#460,460,958,927,1920,1080,8-29-2022,10-5-42,45,depth_duration_stimuli/002344_2014-06-28_20-06-29_260595134347_rgbf000030-resize_1/002344_2014-06-28_20-06-29_260595134347_rgbf000030-resize_1-target.png,250,1.5795,2,6985,235,feet,jsons/v1_VE250_randls_7_rotated.json,1078148,1291432,45,Man
45,237101,DepthScenes,duration_manipulation_targetAtFixation,jsons/v1_VE250_randls_7_rotated.json,http://54.235.29.9/FacialAge/BNav_EC2/DepthDuration/v2_depth_duration_MTurk/v2_DepthDuration_HTML.html#460,460,958,927,1920,1080,8-29-2022,10-5-42,46,depth_duration_stimuli/002725_2014-06-22_11-47-51_094959634447_rgbf000070-resize_1/002725_2014-06-22_11-47-51_094959634447_rgbf000070-resize_1-target.png,250,2.195,6,4802,251,feet,jsons/v1_VE250_randls_7_rotated.json,1078148,1291432,45,Man
46,237101,DepthScenes,duration_manipulation_targetAtFixation,jsons/v1_VE250_randls_7_rotated.json,http://54.235.29.9/FacialAge/BNav_EC2/DepthDuration/v2_depth_duration_MTurk/v2_DepthDuration_HTML.html#460,460,958,927,1920,1080,8-29-2022,10-5-42,47,depth_duration_stimuli/000549_2014-06-08_22-10-24_260595134347_rgbf000247-resize_3/000549_2014-06-08_22-10-24_260595134347_rgbf000247-resize_3-target.png,250,1.841,2,6888,249,feet,jsons/v1_VE250_randls_7_rotated.json,1078148,1291432,45,Man
47,237101,DepthScenes,duration_manipulation_targetAtFixation,jsons/v1_VE250_randls_7_rotated.json,http://54.235.29.9/FacialAge/BNav_EC2/DepthDuration/v2_depth_duration_MTurk/v2_DepthDuration_HTML.html#460,460,958,927,1920,1080,8-29-2022,10-5-42,48,depth_duration_stimuli/001055_2014-06-08_18-45-35_260595134347_rgbf000111-resize_4/001055_2014-06-08_18-45-35_260595134347_rgbf000111-resize_4-target.png,250,2.4290000000000003,9,6952,250,feet,jsons/v1_VE250_randls_7_rotated.json,1078148,1291432,45,Man
48,237101,DepthScenes,duration_manipulation_targetAtFixation,jsons/v1_VE250_randls_7_rotated.json,http://54.235.29.9/FacialAge/BNav_EC2/DepthDuration/v2_depth_duration_MTurk/v2_DepthDuration_HTML.html#460,460,958,927,1920,1080,8-29-2022,10-5-42,49,depth_duration_stimuli/001170_2014-06-17_15-43-44_260595134347_rgbf000096-resize_6/001170_2014-06-17_15-43-44_260595134347_rgbf000096-resize-original.jpg,250,1.1909999999999998,0,6055,250,feet,jsons/v1_VE250_randls_7_rotated.json,1078148,1291432,45,Man
49,237101,DepthScenes,duration_manipulation_targetAtFixation,jsons/v1_VE250_randls_7_rotated.json,http://54.235.29.9/FacialAge/BNav_EC2/DepthDuration/v2_depth_duration_MTurk/v2_DepthDuration_HTML.html#460,460,958,927,1920,1080,8-29-2022,10-5-42,50,depth_duration_stimuli/001450_2014-06-19_17-02-03_260595134347_rgbf000203-resize_4/001450_2014-06-19_17-02-03_260595134347_rgbf000203-resize_4-target.png,250,4.0106666666667,9,6704,249,feet,jsons/v1_VE250_randls_7_rotated.json,1078148,1291432,45,Man
50,237101,DepthScenes,duration_manipulation_targetAtFixation,jsons/v1_VE250_randls_7_rotated.json,http://54.235.29.9/FacialAge/BNav_EC2/DepthDuration/v2_depth_duration_MTurk/v2_DepthDuration_HTML.html#460,460,958,927,1920,1080,8-29-2022,10-5-42,51,depth_duration_stimuli/001449_2014-06-19_17-01-27_260595134347_rgbf000116-resize_2/001449_2014-06-19_17-01-27_260595134347_rgbf000116-resize_2-target.png,250,3.452,6,6160,249,feet,jsons/v1_VE250_randls_7_rotated.json,1078148,1291432,45,Man
51,237101,DepthScenes,duration_manipulation_targetAtFixation,jsons/v1_VE250_randls_7_rotated.json,http://54.235.29.9/FacialAge/BNav_EC2/DepthDuration/v2_depth_duration_MTurk/v2_DepthDuration_HTML.html#460,460,958,927,1920,1080,8-29-2022,10-5-42,52,depth_duration_stimuli/002875_2014-06-01_15-19-00_094959634447_rgbf000151-resize_1/002875_2014-06-01_15-19-00_094959634447_rgbf000151-resize_1-target.png,250,1.9675,3,5464,249,feet,jsons/v1_VE250_randls_7_rotated.json,1078148,1291432,45,Man
52,237101,DepthScenes,duration_manipulation_targetAtFixation,jsons/v1_VE250_randls_7_rotated.json,http://54.235.29.9/FacialAge/BNav_EC2/DepthDuration/v2_depth_duration_MTurk/v2_DepthDuration_HTML.html#460,460,958,927,1920,1080,8-29-2022,10-5-42,53,depth_duration_stimuli/001011_2014-06-08_23-18-54_260595134347_rgbf000044-resize_4/001011_2014-06-08_23-18-54_260595134347_rgbf000044-resize_4-target.png,250,2.4730000000000003,7,6063,250,feet,jsons/v1_VE250_randls_7_rotated.json,1078148,1291432,45,Man
53,237101,DepthScenes,duration_manipulation_targetAtFixation,jsons/v1_VE250_randls_7_rotated.json,http://54.235.29.9/FacialAge/BNav_EC2/DepthDuration/v2_depth_duration_MTurk/v2_DepthDuration_HTML.html#460,460,958,927,1920,1080,8-29-2022,10-5-42,54,depth_duration_stimuli/002103_2014-06-25_20-00-40_260595134347_rgbf000049-resize_0/002103_2014-06-25_20-00-40_260595134347_rgbf000049-resize_0-target.png,250,4.105,5,5745,250,feet,jsons/v1_VE250_randls_7_rotated.json,1078148,1291432,45,Man
54,237101,DepthScenes,duration_manipulation_targetAtFixation,jsons/v1_VE250_randls_7_rotated.json,http://54.235.29.9/FacialAge/BNav_EC2/DepthDuration/v2_depth_duration_MTurk/v2_DepthDuration_HTML.html#460,460,958,927,1920,1080,8-29-2022,10-5-42,55,depth_duration_stimuli/002039_2014-06-24_20-22-38_260595134347_rgbf000084-resize_1/002039_2014-06-24_20-22-38_260595134347_rgbf000084-resize_1-target.png,250,4.408,14,10142,251,feet,jsons/v1_VE250_randls_7_rotated.json,1078148,1291432,45,Man
55,237101,DepthScenes,duration_manipulation_targetAtFixation,jsons/v1_VE250_randls_7_rotated.json,http://54.235.29.9/FacialAge/BNav_EC2/DepthDuration/v2_depth_duration_MTurk/v2_DepthDuration_HTML.html#460,460,958,927,1920,1080,8-29-2022,10-5-42,56,depth_duration_stimuli/001235_2014-06-17_16-37-36_260595134347_rgbf000084-resize_4/001235_2014-06-17_16-37-36_260595134347_rgbf000084-resize_4-target.png,250,3.6605,11,6640,249,feet,jsons/v1_VE250_randls_7_rotated.json,1078148,1291432,45,Man
56,237101,DepthScenes,duration_manipulation_targetAtFixation,jsons/v1_VE250_randls_7_rotated.json,http://54.235.29.9/FacialAge/BNav_EC2/DepthDuration/v2_depth_duration_MTurk/v2_DepthDuration_HTML.html#460,460,958,927,1920,1080,8-29-2022,10-5-42,57,depth_duration_stimuli/000788_2014-06-08_22-34-36_260595134347_rgbf000131-resize_1/000788_2014-06-08_22-34-36_260595134347_rgbf000131-resize_1-target.png,250,3.359,11,5752,249,feet,jsons/v1_VE250_randls_7_rotated.json,1078148,1291432,45,Man
57,237101,DepthScenes,duration_manipulation_targetAtFixation,jsons/v1_VE250_randls_7_rotated.json,http://54.235.29.9/FacialAge/BNav_EC2/DepthDuration/v2_depth_duration_MTurk/v2_DepthDuration_HTML.html#460,460,958,927,1920,1080,8-29-2022,10-5-42,58,depth_duration_stimuli/003587_2014-05-23_16-48-02_094959634447_rgbf002384-resize_2/003587_2014-05-23_16-48-02_094959634447_rgbf002384-resize_2-target.png,250,1.357,2,5888,250,feet,jsons/v1_VE250_randls_7_rotated.json,1078148,1291432,45,Man
58,237101,DepthScenes,duration_manipulation_targetAtFixation,jsons/v1_VE250_randls_7_rotated.json,http://54.235.29.9/FacialAge/BNav_EC2/DepthDuration/v2_depth_duration_MTurk/v2_DepthDuration_HTML.html#460,460,958,927,1920,1080,8-29-2022,10-5-42,59,depth_duration_stimuli/001167_2014-06-17_15-38-07_260595134347_rgbf000108-resize_0/001167_2014-06-17_15-38-07_260595134347_rgbf000108-resize_0-target.png,250,1.8505,4,5160,249,feet,jsons/v1_VE250_randls_7_rotated.json,1078148,1291432,45,Man
59,237101,DepthScenes,duration_manipulation_targetAtFixation,jsons/v1_VE250_randls_7_rotated.json,http://54.235.29.9/FacialAge/BNav_EC2/DepthDuration/v2_depth_duration_MTurk/v2_DepthDuration_HTML.html#460,460,958,927,1920,1080,8-29-2022,10-5-42,60,depth_duration_stimuli/000749_2014-06-08_21-55-06_260595134347_rgbf000070-resize_2/000749_2014-06-08_21-55-06_260595134347_rgbf000070-resize_2-target.png,250,2.331,7,9151,250,feet,jsons/v1_VE250_randls_7_rotated.json,1078148,1291432,45,Man
60,237101,DepthScenes,duration_manipulation_targetAtFixation,jsons/v1_VE250_randls_7_rotated.json,http://54.235.29.9/FacialAge/BNav_EC2/DepthDuration/v2_depth_duration_MTurk/v2_DepthDuration_HTML.html#460,460,958,927,1920,1080,8-29-2022,10-5-42,61,depth_duration_stimuli/002788_2014-06-22_19-36-03_094959634447_rgbf000088-resize_2/002788_2014-06-22_19-36-03_094959634447_rgbf000088-resize_2-target.png,250,1.6465,8,5697,249,feet,jsons/v1_VE250_randls_7_rotated.json,1078148,1291432,45,Man
61,237101,DepthScenes,duration_manipulation_targetAtFixation,jsons/v1_VE250_randls_7_rotated.json,http://54.235.29.9/FacialAge/BNav_EC2/DepthDuration/v2_depth_duration_MTurk/v2_DepthDuration_HTML.html#460,460,958,927,1920,1080,8-29-2022,10-5-42,62,depth_duration_stimuli/001584_2014-06-20_11-07-43_260595134347_rgbf000002-resize_1/001584_2014-06-20_11-07-43_260595134347_rgbf000002-resize_1-target.png,250,3.53,9,5873,249,feet,jsons/v1_VE250_randls_7_rotated.json,1078148,1291432,45,Man
62,237101,DepthScenes,duration_manipulation_targetAtFixation,jsons/v1_VE250_randls_7_rotated.json,http://54.235.29.9/FacialAge/BNav_EC2/DepthDuration/v2_depth_duration_MTurk/v2_DepthDuration_HTML.html#460,460,958,927,1920,1080,8-29-2022,10-5-42,63,depth_duration_stimuli/003621_2014-05-23_18-06-08_094959634447_rgbf000101-resize_1/003621_2014-05-23_18-06-08_094959634447_rgbf000101-resize_1-target.png,250,3.9835,14,8527,250,feet,jsons/v1_VE250_randls_7_rotated.json,1078148,1291432,45,Man
63,237101,DepthScenes,duration_manipulation_targetAtFixation,jsons/v1_VE250_randls_7_rotated.json,http://54.235.29.9/FacialAge/BNav_EC2/DepthDuration/v2_depth_duration_MTurk/v2_DepthDuration_HTML.html#460,460,958,927,1920,1080,8-29-2022,10-5-42,64,depth_duration_stimuli/002136_2014-06-25_21-18-03_260595134347_rgbf000109-resize_3/002136_2014-06-25_21-18-03_260595134347_rgbf000109-resize_3-target.png,250,1.9569999999999999,7,25520,249,feet,jsons/v1_VE250_randls_7_rotated.json,1078148,1291432,45,Man
64,237101,DepthScenes,duration_manipulation_targetAtFixation,jsons/v1_VE250_randls_7_rotated.json,http://54.235.29.9/FacialAge/BNav_EC2/DepthDuration/v2_depth_duration_MTurk/v2_DepthDuration_HTML.html#460,460,958,927,1920,1080,8-29-2022,10-5-42,65,depth_duration_stimuli/002964_2014-06-08_17-46-11_094959634447_rgbf000091-resize_4/002964_2014-06-08_17-46-11_094959634447_rgbf000091-resize_4-target.png,250,1.6909999999999998,2,4712,249,feet,jsons/v1_VE250_randls_7_rotated.json,1078148,1291432,45,Man
65,237101,DepthScenes,duration_manipulation_targetAtFixation,jsons/v1_VE250_randls_7_rotated.json,http://54.235.29.9/FacialAge/BNav_EC2/DepthDuration/v2_depth_duration_MTurk/v2_DepthDuration_HTML.html#460,460,958,927,1920,1080,8-29-2022,10-5-42,66,depth_duration_stimuli/001540_2014-06-20_17-01-05_260595134347_rgbf000086-resize_2/001540_2014-06-20_17-01-05_260595134347_rgbf000086-resize-original.jpg,250,1.459,0,4793,249,feet,jsons/v1_VE250_randls_7_rotated.json,1078148,1291432,45,Man
66,237101,DepthScenes,duration_manipulation_targetAtFixation,jsons/v1_VE250_randls_7_rotated.json,http://54.235.29.9/FacialAge/BNav_EC2/DepthDuration/v2_depth_duration_MTurk/v2_DepthDuration_HTML.html#460,460,958,927,1920,1080,8-29-2022,10-5-42,67,depth_duration_stimuli/002340_2014-06-28_20-05-46_260595134347_rgbf000113-resize_0/002340_2014-06-28_20-05-46_260595134347_rgbf000113-resize_0-target.png,250,2.4735,12,5687,250,feet,jsons/v1_VE250_randls_7_rotated.json,1078148,1291432,45,Man
67,237101,DepthScenes,duration_manipulation_targetAtFixation,jsons/v1_VE250_randls_7_rotated.json,http://54.235.29.9/FacialAge/BNav_EC2/DepthDuration/v2_depth_duration_MTurk/v2_DepthDuration_HTML.html#460,460,958,927,1920,1080,8-29-2022,10-5-42,68,depth_duration_stimuli/001016_2014-06-09_16-16-10_260595134347_rgbf000112-resize_5/001016_2014-06-09_16-16-10_260595134347_rgbf000112-resize_5-target.png,250,1.6565,5,4602,250,feet,jsons/v1_VE250_randls_7_rotated.json,1078148,1291432,45,Man
68,237101,DepthScenes,duration_manipulation_targetAtFixation,jsons/v1_VE250_randls_7_rotated.json,http://54.235.29.9/FacialAge/BNav_EC2/DepthDuration/v2_depth_duration_MTurk/v2_DepthDuration_HTML.html#460,460,958,927,1920,1080,8-29-2022,10-5-42,69,depth_duration_stimuli/003129_2014-05-12_10-48-10_094959634447_rgbf000100-resize_0/003129_2014-05-12_10-48-10_094959634447_rgbf000100-resize_0-target.png,250,4.9305,13,6767,249,feet,jsons/v1_VE250_randls_7_rotated.json,1078148,1291432,45,Man
69,237101,DepthScenes,duration_manipulation_targetAtFixation,jsons/v1_VE250_randls_7_rotated.json,http://54.235.29.9/FacialAge/BNav_EC2/DepthDuration/v2_depth_duration_MTurk/v2_DepthDuration_HTML.html#460,460,958,927,1920,1080,8-29-2022,10-5-42,70,depth_duration_stimuli/000414_2014-06-04_19-49-13_260595134347_rgbf000044-resize_0/000414_2014-06-04_19-49-13_260595134347_rgbf000044-resize_0-target.png,250,4.329,16,8839,250,feet,jsons/v1_VE250_randls_7_rotated.json,1078148,1291432,45,Man
70,237101,DepthScenes,duration_manipulation_targetAtFixation,jsons/v1_VE250_randls_7_rotated.json,http://54.235.29.9/FacialAge/BNav_EC2/DepthDuration/v2_depth_duration_MTurk/v2_DepthDuration_HTML.html#460,460,958,927,1920,1080,8-29-2022,10-5-42,71,depth_duration_stimuli/001132_2014-06-17_14-48-54_260595134347_rgbf000100-resize_2/001132_2014-06-17_14-48-54_260595134347_rgbf000100-resize_2-target.png,250,3.753,9,5402,249,feet,jsons/v1_VE250_randls_7_rotated.json,1078148,1291432,45,Man
71,237101,DepthScenes,duration_manipulation_targetAtFixation,jsons/v1_VE250_randls_7_rotated.json,http://54.235.29.9/FacialAge/BNav_EC2/DepthDuration/v2_depth_duration_MTurk/v2_DepthDuration_HTML.html#460,460,958,927,1920,1080,8-29-2022,10-5-42,72,depth_duration_stimuli/001133_2014-06-17_14-49-16_260595134347_rgbf000100-resize_0/001133_2014-06-17_14-49-16_260595134347_rgbf000100-resize_0-target.png,250,4.2115,16,6454,250,feet,jsons/v1_VE250_randls_7_rotated.json,1078148,1291432,45,Man
72,237101,DepthScenes,duration_manipulation_targetAtFixation,jsons/v1_VE250_randls_7_rotated.json,http://54.235.29.9/FacialAge/BNav_EC2/DepthDuration/v2_depth_duration_MTurk/v2_DepthDuration_HTML.html#460,460,958,927,1920,1080,8-29-2022,10-5-42,73,depth_duration_stimuli/001214_2014-06-17_16-13-55_260595134347_rgbf000111-resize_0/001214_2014-06-17_16-13-55_260595134347_rgbf000111-resize_0-target.png,250,2.6505,7,5392,250,feet,jsons/v1_VE250_randls_7_rotated.json,1078148,1291432,45,Man
73,237101,DepthScenes,duration_manipulation_targetAtFixation,jsons/v1_VE250_randls_7_rotated.json,http://54.235.29.9/FacialAge/BNav_EC2/DepthDuration/v2_depth_duration_MTurk/v2_DepthDuration_HTML.html#460,460,958,927,1920,1080,8-29-2022,10-5-42,74,depth_duration_stimuli/000810_2014-06-08_17-20-01_260595134347_rgbf000105-resize_0/000810_2014-06-08_17-20-01_260595134347_rgbf000105-resize_0-target.png,250,1.4865,5,5671,248,feet,jsons/v1_VE250_randls_7_rotated.json,1078148,1291432,45,Man
74,237101,DepthScenes,duration_manipulation_targetAtFixation,jsons/v1_VE250_randls_7_rotated.json,http://54.235.29.9/FacialAge/BNav_EC2/DepthDuration/v2_depth_duration_MTurk/v2_DepthDuration_HTML.html#460,460,958,927,1920,1080,8-29-2022,10-5-42,75,depth_duration_stimuli/002758_2014-06-22_19-11-20_094959634447_rgbf000128-resize_1/002758_2014-06-22_19-11-20_094959634447_rgbf000128-resize_1-target.png,250,2.555,6,6033,249,feet,jsons/v1_VE250_randls_7_rotated.json,1078148,1291432,45,Man
75,237101,DepthScenes,duration_manipulation_targetAtFixation,jsons/v1_VE250_randls_7_rotated.json,http://54.235.29.9/FacialAge/BNav_EC2/DepthDuration/v2_depth_duration_MTurk/v2_DepthDuration_HTML.html#460,460,958,927,1920,1080,8-29-2022,10-5-42,76,depth_duration_stimuli/002630_2014-06-24_14-47-50_094959634447_rgbf000055-resize_1/002630_2014-06-24_14-47-50_094959634447_rgbf000055-resize_1-target.png,250,3.0095,15,6598,249,feet,jsons/v1_VE250_randls_7_rotated.json,1078148,1291432,45,Man
76,237101,DepthScenes,duration_manipulation_targetAtFixation,jsons/v1_VE250_randls_7_rotated.json,http://54.235.29.9/FacialAge/BNav_EC2/DepthDuration/v2_depth_duration_MTurk/v2_DepthDuration_HTML.html#460,460,958,927,1920,1080,8-29-2022,10-5-42,77,depth_duration_stimuli/000457_2014-06-08_16-52-43_260595134347_rgbf000199-resize_1/000457_2014-06-08_16-52-43_260595134347_rgbf000199-resize_1-target.png,250,3.6489999999999996,9,5737,249,feet,jsons/v1_VE250_randls_7_rotated.json,1078148,1291432,45,Man
77,237101,DepthScenes,duration_manipulation_targetAtFixation,jsons/v1_VE250_randls_7_rotated.json,http://54.235.29.9/FacialAge/BNav_EC2/DepthDuration/v2_depth_duration_MTurk/v2_DepthDuration_HTML.html#460,460,958,927,1920,1080,8-29-2022,10-5-42,78,depth_duration_stimuli/000929_2014-06-09_16-33-19_260595134347_rgbf000139-resize_0/000929_2014-06-09_16-33-19_260595134347_rgbf000139-resize_0-target.png,250,2.8680000000000003,8,5433,250,feet,jsons/v1_VE250_randls_7_rotated.json,1078148,1291432,45,Man
78,237101,DepthScenes,duration_manipulation_targetAtFixation,jsons/v1_VE250_randls_7_rotated.json,http://54.235.29.9/FacialAge/BNav_EC2/DepthDuration/v2_depth_duration_MTurk/v2_DepthDuration_HTML.html#460,460,958,927,1920,1080,8-29-2022,10-5-42,79,depth_duration_stimuli/002568_2014-06-24_13-59-21_094959634447_rgbf000062-resize_4/002568_2014-06-24_13-59-21_094959634447_rgbf000062-resize_4-target.png,250,3.015,7,5393,249,feet,jsons/v1_VE250_randls_7_rotated.json,1078148,1291432,45,Man
79,237101,DepthScenes,duration_manipulation_targetAtFixation,jsons/v1_VE250_randls_7_rotated.json,http://54.235.29.9/FacialAge/BNav_EC2/DepthDuration/v2_depth_duration_MTurk/v2_DepthDuration_HTML.html#460,460,958,927,1920,1080,8-29-2022,10-5-42,80,depth_duration_stimuli/003492_2014-05-21_15-50-55_094959634447_rgbf000828-resize_1/003492_2014-05-21_15-50-55_094959634447_rgbf000828-resize_1-target.png,250,4.06875,18,6568,250,feet,jsons/v1_VE250_randls_7_rotated.json,1078148,1291432,45,Man
80,237101,DepthScenes,duration_manipulation_targetAtFixation,jsons/v1_VE250_randls_7_rotated.json,http://54.235.29.9/FacialAge/BNav_EC2/DepthDuration/v2_depth_duration_MTurk/v2_DepthDuration_HTML.html#460,460,958,927,1920,1080,8-29-2022,10-5-42,81,depth_duration_stimuli/002660_2014-06-13_15-44-18_094959634447_rgbf001878-resize_2/002660_2014-06-13_15-44-18_094959634447_rgbf001878-resize_2-target.png,250,3.576,9,8854,249,feet,jsons/v1_VE250_randls_7_rotated.json,1078148,1291432,45,Man
81,237101,DepthScenes,duration_manipulation_targetAtFixation,jsons/v1_VE250_randls_7_rotated.json,http://54.235.29.9/FacialAge/BNav_EC2/DepthDuration/v2_depth_duration_MTurk/v2_DepthDuration_HTML.html#460,460,958,927,1920,1080,8-29-2022,10-5-42,82,depth_duration_stimuli/002153_2014-06-25_21-27-18_260595134347_rgbf000038-resize_5/002153_2014-06-25_21-27-18_260595134347_rgbf000038-resize_5-target.png,250,2.505,5,7143,250,feet,jsons/v1_VE250_randls_7_rotated.json,1078148,1291432,45,Man
82,237101,DepthScenes,duration_manipulation_targetAtFixation,jsons/v1_VE250_randls_7_rotated.json,http://54.235.29.9/FacialAge/BNav_EC2/DepthDuration/v2_depth_duration_MTurk/v2_DepthDuration_HTML.html#460,460,958,927,1920,1080,8-29-2022,10-5-42,83,depth_duration_stimuli/002750_2014-06-22_19-08-03_094959634447_rgbf000094-resize_4/002750_2014-06-22_19-08-03_094959634447_rgbf000094-resize_4-target.png,250,2.354,8,8750,250,feet,jsons/v1_VE250_randls_7_rotated.json,1078148,1291432,45,Man
83,237101,DepthScenes,duration_manipulation_targetAtFixation,jsons/v1_VE250_randls_7_rotated.json,http://54.235.29.9/FacialAge/BNav_EC2/DepthDuration/v2_depth_duration_MTurk/v2_DepthDuration_HTML.html#460,460,958,927,1920,1080,8-29-2022,10-5-42,84,depth_duration_stimuli/002549_2014-06-24_13-41-39_094959634447_rgbf000022-resize_3/002549_2014-06-24_13-41-39_094959634447_rgbf000022-resize_3-target.png,250,1.476,3,5041,250,feet,jsons/v1_VE250_randls_7_rotated.json,1078148,1291432,45,Man
84,237101,DepthScenes,duration_manipulation_targetAtFixation,jsons/v1_VE250_randls_7_rotated.json,http://54.235.29.9/FacialAge/BNav_EC2/DepthDuration/v2_depth_duration_MTurk/v2_DepthDuration_HTML.html#460,460,958,927,1920,1080,8-29-2022,10-5-42,85,depth_duration_stimuli/002209_2014-06-28_18-36-10_260595134347_rgbf000051-resize_1/002209_2014-06-28_18-36-10_260595134347_rgbf000051-resize_1-target.png,250,2.057,5,5857,249,feet,jsons/v1_VE250_randls_7_rotated.json,1078148,1291432,45,Man
85,237101,DepthScenes,duration_manipulation_targetAtFixation,jsons/v1_VE250_randls_7_rotated.json,http://54.235.29.9/FacialAge/BNav_EC2/DepthDuration/v2_depth_duration_MTurk/v2_DepthDuration_HTML.html#460,460,958,927,1920,1080,8-29-2022,10-5-42,86,depth_duration_stimuli/002763_2014-06-22_19-13-10_094959634447_rgbf000075-resize_4/002763_2014-06-22_19-13-10_094959634447_rgbf000075-resize_4-target.png,250,1.68375,5,7241,250,feet,jsons/v1_VE250_randls_7_rotated.json,1078148,1291432,45,Man
86,237101,DepthScenes,duration_manipulation_targetAtFixation,jsons/v1_VE250_randls_7_rotated.json,http://54.235.29.9/FacialAge/BNav_EC2/DepthDuration/v2_depth_duration_MTurk/v2_DepthDuration_HTML.html#460,460,958,927,1920,1080,8-29-2022,10-5-42,87,depth_duration_stimuli/003083_2014-06-15_15-21-03_094959634447_rgbf000063-resize_1/003083_2014-06-15_15-21-03_094959634447_rgbf000063-resize_1-target.png,250,4.1405,14,5759,249,feet,jsons/v1_VE250_randls_7_rotated.json,1078148,1291432,45,Man
87,237101,DepthScenes,duration_manipulation_targetAtFixation,jsons/v1_VE250_randls_7_rotated.json,http://54.235.29.9/FacialAge/BNav_EC2/DepthDuration/v2_depth_duration_MTurk/v2_DepthDuration_HTML.html#460,460,958,927,1920,1080,8-29-2022,10-5-42,88,depth_duration_stimuli/000486_2014-06-09_20-47-20_260595134347_rgbf000143-resize_2/000486_2014-06-09_20-47-20_260595134347_rgbf000143-resize_2-target.png,250,4.8325,11,5904,250,feet,jsons/v1_VE250_randls_7_rotated.json,1078148,1291432,45,Man
88,237101,DepthScenes,duration_manipulation_targetAtFixation,jsons/v1_VE250_randls_7_rotated.json,http://54.235.29.9/FacialAge/BNav_EC2/DepthDuration/v2_depth_duration_MTurk/v2_DepthDuration_HTML.html#460,460,958,927,1920,1080,8-29-2022,10-5-42,89,depth_duration_stimuli/000137_2014-05-20_17-04-49_260595134347_rgbf000120-resize_1/000137_2014-05-20_17-04-49_260595134347_rgbf000120-resize_1-target.png,250,3.786,9,11118,250,feet,jsons/v1_VE250_randls_7_rotated.json,1078148,1291432,45,Man
89,237101,DepthScenes,duration_manipulation_targetAtFixation,jsons/v1_VE250_randls_7_rotated.json,http://54.235.29.9/FacialAge/BNav_EC2/DepthDuration/v2_depth_duration_MTurk/v2_DepthDuration_HTML.html#460,460,958,927,1920,1080,8-29-2022,10-5-42,90,depth_duration_stimuli/000736_2014-06-08_18-24-15_260595134347_rgbf000206-resize_3/000736_2014-06-08_18-24-15_260595134347_rgbf000206-resize_3-target.png,250,3.515,7,4863,248,feet,jsons/v1_VE250_randls_7_rotated.json,1078148,1291432,45,Man
90,237101,DepthScenes,duration_manipulation_targetAtFixation,jsons/v1_VE250_randls_7_rotated.json,http://54.235.29.9/FacialAge/BNav_EC2/DepthDuration/v2_depth_duration_MTurk/v2_DepthDuration_HTML.html#460,460,958,927,1920,1080,8-29-2022,10-5-42,91,depth_duration_stimuli/000635_2014-06-08_16-38-42_260595134347_rgbf000106-resize_1/000635_2014-06-08_16-38-42_260595134347_rgbf000106-resize_1-target.png,250,2.074,8,6689,249,feet,jsons/v1_VE250_randls_7_rotated.json,1078148,1291432,45,Man
91,237101,DepthScenes,duration_manipulation_targetAtFixation,jsons/v1_VE250_randls_7_rotated.json,http://54.235.29.9/FacialAge/BNav_EC2/DepthDuration/v2_depth_duration_MTurk/v2_DepthDuration_HTML.html#460,460,958,927,1920,1080,8-29-2022,10-5-42,92,depth_duration_stimuli/002279_2014-06-28_18-55-32_260595134347_rgbf000040-resize_5/002279_2014-06-28_18-55-32_260595134347_rgbf000040-resize_5-target.png,250,1.5043333333333,0,5313,250,feet,jsons/v1_VE250_randls_7_rotated.json,1078148,1291432,45,Man
92,237101,DepthScenes,duration_manipulation_targetAtFixation,jsons/v1_VE250_randls_7_rotated.json,http://54.235.29.9/FacialAge/BNav_EC2/DepthDuration/v2_depth_duration_MTurk/v2_DepthDuration_HTML.html#460,460,958,927,1920,1080,8-29-2022,10-5-42,93,depth_duration_stimuli/000866_2014-06-09_20-45-42_260595134347_rgbf000139-resize_1/000866_2014-06-09_20-45-42_260595134347_rgbf000139-resize_1-target.png,250,3.2155,8,5600,250,feet,jsons/v1_VE250_randls_7_rotated.json,1078148,1291432,45,Man
93,237101,DepthScenes,duration_manipulation_targetAtFixation,jsons/v1_VE250_randls_7_rotated.json,http://54.235.29.9/FacialAge/BNav_EC2/DepthDuration/v2_depth_duration_MTurk/v2_DepthDuration_HTML.html#460,460,958,927,1920,1080,8-29-2022,10-5-42,94,depth_duration_stimuli/002989_2014-06-15_12-25-03_094959634447_rgbf000150-resize_3/002989_2014-06-15_12-25-03_094959634447_rgbf000150-resize_3-target.png,250,4.1975,11,5297,250,feet,jsons/v1_VE250_randls_7_rotated.json,1078148,1291432,45,Man
94,237101,DepthScenes,duration_manipulation_targetAtFixation,jsons/v1_VE250_randls_7_rotated.json,http://54.235.29.9/FacialAge/BNav_EC2/DepthDuration/v2_depth_duration_MTurk/v2_DepthDuration_HTML.html#460,460,958,927,1920,1080,8-29-2022,10-5-42,95,depth_duration_stimuli/002805_2014-06-22_19-54-03_094959634447_rgbf000079-resize_1/002805_2014-06-22_19-54-03_094959634447_rgbf000079-resize_1-target.png,250,3.1439999999999997,9,4809,249,feet,jsons/v1_VE250_randls_7_rotated.json,1078148,1291432,45,Man
95,237101,DepthScenes,duration_manipulation_targetAtFixation,jsons/v1_VE250_randls_7_rotated.json,http://54.235.29.9/FacialAge/BNav_EC2/DepthDuration/v2_depth_duration_MTurk/v2_DepthDuration_HTML.html#460,460,958,927,1920,1080,8-29-2022,10-5-42,96,depth_duration_stimuli/000906_2014-06-08_13-35-43_260595134347_rgbf000155-resize_1/000906_2014-06-08_13-35-43_260595134347_rgbf000155-resize_1-target.png,250,2.8489999999999998,12,5592,250,feet,jsons/v1_VE250_randls_7_rotated.json,1078148,1291432,45,Man
96,237101,DepthScenes,duration_manipulation_targetAtFixation,jsons/v1_VE250_randls_7_rotated.json,http://54.235.29.9/FacialAge/BNav_EC2/DepthDuration/v2_depth_duration_MTurk/v2_DepthDuration_HTML.html#460,460,958,927,1920,1080,8-29-2022,10-5-42,97,depth_duration_stimuli/001052_2014-06-08_18-24-54_260595134347_rgbf000130-resize_1/001052_2014-06-08_18-24-54_260595134347_rgbf000130-resize_1-target.png,250,4.1045,11,6239,250,feet,jsons/v1_VE250_randls_7_rotated.json,1078148,1291432,45,Man
97,237101,DepthScenes,duration_manipulation_targetAtFixation,jsons/v1_VE250_randls_7_rotated.json,http://54.235.29.9/FacialAge/BNav_EC2/DepthDuration/v2_depth_duration_MTurk/v2_DepthDuration_HTML.html#460,460,958,927,1920,1080,8-29-2022,10-5-42,98,depth_duration_stimuli/002988_2014-06-15_12-24-20_094959634447_rgbf000150-resize_1/002988_2014-06-15_12-24-20_094959634447_rgbf000150-resize_1-target.png,250,4.7669999999999995,10,6033,250,feet,jsons/v1_VE250_randls_7_rotated.json,1078148,1291432,45,Man
98,237101,DepthScenes,duration_manipulation_targetAtFixation,jsons/v1_VE250_randls_7_rotated.json,http://54.235.29.9/FacialAge/BNav_EC2/DepthDuration/v2_depth_duration_MTurk/v2_DepthDuration_HTML.html#460,460,958,927,1920,1080,8-29-2022,10-5-42,99,depth_duration_stimuli/001222_2014-06-17_16-24-06_260595134347_rgbf000073-resize_0/001222_2014-06-17_16-24-06_260595134347_rgbf000073-resize-original.jpg,250,1.4385,0,7096,250,feet,jsons/v1_VE250_randls_7_rotated.json,1078148,1291432,45,Man
99,237101,DepthScenes,duration_manipulation_targetAtFixation,jsons/v1_VE250_randls_7_rotated.json,http://54.235.29.9/FacialAge/BNav_EC2/DepthDuration/v2_depth_duration_MTurk/v2_DepthDuration_HTML.html#460,460,958,927,1920,1080,8-29-2022,10-5-42,100,depth_duration_stimuli/003228_2014-05-14_13-42-35_094959634447_rgbf000101-resize_1/003228_2014-05-14_13-42-35_094959634447_rgbf000101-resize_1-target.png,250,1.9680000000000002,4,5112,249,feet,jsons/v1_VE250_randls_7_rotated.json,1078148,1291432,45,Man
100,237101,DepthScenes,duration_manipulation_targetAtFixation,jsons/v1_VE250_randls_7_rotated.json,http://54.235.29.9/FacialAge/BNav_EC2/DepthDuration/v2_depth_duration_MTurk/v2_DepthDuration_HTML.html#460,460,958,927,1920,1080,8-29-2022,10-5-42,101,depth_duration_stimuli/002600_2014-06-24_14-27-04_094959634447_rgbf000074-resize_2/002600_2014-06-24_14-27-04_094959634447_rgbf000074-resize_2-target.png,250,2.7575,7,6016,249,feet,jsons/v1_VE250_randls_7_rotated.json,1078148,1291432,45,Man
101,237101,DepthScenes,duration_manipulation_targetAtFixation,jsons/v1_VE250_randls_7_rotated.json,http://54.235.29.9/FacialAge/BNav_EC2/DepthDuration/v2_depth_duration_MTurk/v2_DepthDuration_HTML.html#460,460,958,927,1920,1080,8-29-2022,10-5-42,102,depth_duration_stimuli/002953_2014-06-08_17-32-18_094959634447_rgbf000059-resize_5/002953_2014-06-08_17-32-18_094959634447_rgbf000059-resize_5-target.png,250,1.551,4,5530,249,feet,jsons/v1_VE250_randls_7_rotated.json,1078148,1291432,45,Man
102,237101,DepthScenes,duration_manipulation_targetAtFixation,jsons/v1_VE250_randls_7_rotated.json,http://54.235.29.9/FacialAge/BNav_EC2/DepthDuration/v2_depth_duration_MTurk/v2_DepthDuration_HTML.html#460,460,958,927,1920,1080,8-29-2022,10-5-42,103,depth_duration_stimuli/000878_2014-06-08_22-52-45_260595134347_rgbf000045-resize_2/000878_2014-06-08_22-52-45_260595134347_rgbf000045-resize_2-target.png,250,2.092,7,5455,250,feet,jsons/v1_VE250_randls_7_rotated.json,1078148,1291432,45,Man
103,237101,DepthScenes,duration_manipulation_targetAtFixation,jsons/v1_VE250_randls_7_rotated.json,http://54.235.29.9/FacialAge/BNav_EC2/DepthDuration/v2_depth_duration_MTurk/v2_DepthDuration_HTML.html#460,460,958,927,1920,1080,8-29-2022,10-5-42,104,depth_duration_stimuli/000109_2014-05-14_23-41-52_260595134347_rgbf000035-resize_9/000109_2014-05-14_23-41-52_260595134347_rgbf000035-resize_9-target.png,250,1.3545,5,3930,249,feet,jsons/v1_VE250_randls_7_rotated.json,1078148,1291432,45,Man
104,237101,DepthScenes,duration_manipulation_targetAtFixation,jsons/v1_VE250_randls_7_rotated.json,http://54.235.29.9/FacialAge/BNav_EC2/DepthDuration/v2_depth_duration_MTurk/v2_DepthDuration_HTML.html#460,460,958,927,1920,1080,8-29-2022,10-5-42,105,depth_duration_stimuli/000470_2014-06-09_19-42-40_260595134347_rgbf000094-resize_1/000470_2014-06-09_19-42-40_260595134347_rgbf000094-resize_1-target.png,250,1.831,5,5567,249,feet,jsons/v1_VE250_randls_7_rotated.json,1078148,1291432,45,Man
105,237101,DepthScenes,duration_manipulation_targetAtFixation,jsons/v1_VE250_randls_7_rotated.json,http://54.235.29.9/FacialAge/BNav_EC2/DepthDuration/v2_depth_duration_MTurk/v2_DepthDuration_HTML.html#460,460,958,927,1920,1080,8-29-2022,10-5-42,106,depth_duration_stimuli/000556_2014-06-09_22-42-56_260595134347_rgbf000214-resize_1/000556_2014-06-09_22-42-56_260595134347_rgbf000214-resize_1-target.png,250,4.8415,19,6560,249,feet,jsons/v1_VE250_randls_7_rotated.json,1078148,1291432,45,Man
106,237101,DepthScenes,duration_manipulation_targetAtFixation,jsons/v1_VE250_randls_7_rotated.json,http://54.235.29.9/FacialAge/BNav_EC2/DepthDuration/v2_depth_duration_MTurk/v2_DepthDuration_HTML.html#460,460,958,927,1920,1080,8-29-2022,10-5-42,107,depth_duration_stimuli/001158_2014-06-17_15-32-16_260595134347_rgbf000138-resize_2/001158_2014-06-17_15-32-16_260595134347_rgbf000138-resize_2-target.png,250,4.5315,13,5432,250,feet,jsons/v1_VE250_randls_7_rotated.json,1078148,1291432,45,Man
107,237101,DepthScenes,duration_manipulation_targetAtFixation,jsons/v1_VE250_randls_7_rotated.json,http://54.235.29.9/FacialAge/BNav_EC2/DepthDuration/v2_depth_duration_MTurk/v2_DepthDuration_HTML.html#460,460,958,927,1920,1080,8-29-2022,10-5-42,108,depth_duration_stimuli/003490_2014-05-21_15-50-11_094959634447_rgbf000101-resize_3/003490_2014-05-21_15-50-11_094959634447_rgbf000101-resize_3-target.png,250,3.6445,11,5562,250,feet,jsons/v1_VE250_randls_7_rotated.json,1078148,1291432,45,Man
108,237101,DepthScenes,duration_manipulation_targetAtFixation,jsons/v1_VE250_randls_7_rotated.json,http://54.235.29.9/FacialAge/BNav_EC2/DepthDuration/v2_depth_duration_MTurk/v2_DepthDuration_HTML.html#460,460,958,927,1920,1080,8-29-2022,10-5-42,109,depth_duration_stimuli/001175_2014-06-17_15-45-55_260595134347_rgbf000129-resize_4/001175_2014-06-17_15-45-55_260595134347_rgbf000129-resize_4-target.png,250,4.255,15,7438,248,feet,jsons/v1_VE250_randls_7_rotated.json,1078148,1291432,45,Man
109,237101,DepthScenes,duration_manipulation_targetAtFixation,jsons/v1_VE250_randls_7_rotated.json,http://54.235.29.9/FacialAge/BNav_EC2/DepthDuration/v2_depth_duration_MTurk/v2_DepthDuration_HTML.html#460,460,958,927,1920,1080,8-29-2022,10-5-42,110,depth_duration_stimuli/002545_2014-06-24_13-38-53_094959634447_rgbf000080-resize_4/002545_2014-06-24_13-38-53_094959634447_rgbf000080-resize_4-target.png,250,1.9205,9,26335,250,feet,jsons/v1_VE250_randls_7_rotated.json,1078148,1291432,45,Man
110,237101,DepthScenes,duration_manipulation_targetAtFixation,jsons/v1_VE250_randls_7_rotated.json,http://54.235.29.9/FacialAge/BNav_EC2/DepthDuration/v2_depth_duration_MTurk/v2_DepthDuration_HTML.html#460,460,958,927,1920,1080,8-29-2022,10-5-42,111,depth_duration_stimuli/001092_2014-06-15_17-34-58_260595134347_rgbf000171-resize_3/001092_2014-06-15_17-34-58_260595134347_rgbf000171-resize_3-target.png,250,2.6935,6,5065,250,feet,jsons/v1_VE250_randls_7_rotated.json,1078148,1291432,45,Man
111,237101,DepthScenes,duration_manipulation_targetAtFixation,jsons/v1_VE250_randls_7_rotated.json,http://54.235.29.9/FacialAge/BNav_EC2/DepthDuration/v2_depth_duration_MTurk/v2_DepthDuration_HTML.html#460,460,958,927,1920,1080,8-29-2022,10-5-42,112,depth_duration_stimuli/000691_2014-06-08_13-08-50_260595134347_rgbf000132-resize_3/000691_2014-06-08_13-08-50_260595134347_rgbf000132-resize_3-target.png,250,4.1530000000000005,11,5472,249,feet,jsons/v1_VE250_randls_7_rotated.json,1078148,1291432,45,Man
112,237101,DepthScenes,duration_manipulation_targetAtFixation,jsons/v1_VE250_randls_7_rotated.json,http://54.235.29.9/FacialAge/BNav_EC2/DepthDuration/v2_depth_duration_MTurk/v2_DepthDuration_HTML.html#460,460,958,927,1920,1080,8-29-2022,10-5-42,113,depth_duration_stimuli/002213_2014-06-28_18-37-58_260595134347_rgbf000055-resize_1/002213_2014-06-28_18-37-58_260595134347_rgbf000055-resize_1-target.png,250,3.62,13,5672,251,feet,jsons/v1_VE250_randls_7_rotated.json,1078148,1291432,45,Man
113,237101,DepthScenes,duration_manipulation_targetAtFixation,jsons/v1_VE250_randls_7_rotated.json,http://54.235.29.9/FacialAge/BNav_EC2/DepthDuration/v2_depth_duration_MTurk/v2_DepthDuration_HTML.html#460,460,958,927,1920,1080,8-29-2022,10-5-42,114,depth_duration_stimuli/001447_2014-06-19_17-00-32_260595134347_rgbf000082-resize_5/001447_2014-06-19_17-00-32_260595134347_rgbf000082-resize_5-target.png,250,4.13775,7,4865,249,feet,jsons/v1_VE250_randls_7_rotated.json,1078148,1291432,45,Man
114,237101,DepthScenes,duration_manipulation_targetAtFixation,jsons/v1_VE250_randls_7_rotated.json,http://54.235.29.9/FacialAge/BNav_EC2/DepthDuration/v2_depth_duration_MTurk/v2_DepthDuration_HTML.html#460,460,958,927,1920,1080,8-29-2022,10-5-42,115,depth_duration_stimuli/000447_2014-06-08_16-15-46_260595134347_rgbf000130-resize_1/000447_2014-06-08_16-15-46_260595134347_rgbf000130-resize_1-target.png,250,4.479,12,5448,250,feet,jsons/v1_VE250_randls_7_rotated.json,1078148,1291432,45,Man
115,237101,DepthScenes,duration_manipulation_targetAtFixation,jsons/v1_VE250_randls_7_rotated.json,http://54.235.29.9/FacialAge/BNav_EC2/DepthDuration/v2_depth_duration_MTurk/v2_DepthDuration_HTML.html#460,460,958,927,1920,1080,8-29-2022,10-5-42,116,depth_duration_stimuli/000677_2014-06-08_23-10-32_260595134347_rgbf000158-resize_6/000677_2014-06-08_23-10-32_260595134347_rgbf000158-resize_6-target.png,250,3.556,7,4416,250,feet,jsons/v1_VE250_randls_7_rotated.json,1078148,1291432,45,Man
116,237101,DepthScenes,duration_manipulation_targetAtFixation,jsons/v1_VE250_randls_7_rotated.json,http://54.235.29.9/FacialAge/BNav_EC2/DepthDuration/v2_depth_duration_MTurk/v2_DepthDuration_HTML.html#460,460,958,927,1920,1080,8-29-2022,10-5-42,117,depth_duration_stimuli/001029_2014-06-08_13-17-57_260595134347_rgbf000065-resize_1/001029_2014-06-08_13-17-57_260595134347_rgbf000065-resize_1-target.png,250,3.0835,5,4201,249,feet,jsons/v1_VE250_randls_7_rotated.json,1078148,1291432,45,Man
117,237101,DepthScenes,duration_manipulation_targetAtFixation,jsons/v1_VE250_randls_7_rotated.json,http://54.235.29.9/FacialAge/BNav_EC2/DepthDuration/v2_depth_duration_MTurk/v2_DepthDuration_HTML.html#460,460,958,927,1920,1080,8-29-2022,10-5-42,118,depth_duration_stimuli/002444_2014-06-28_20-32-08_260595134347_rgbf000027-resize_0/002444_2014-06-28_20-32-08_260595134347_rgbf000027-resize_0-target.png,250,4.388999999999999,9,7647,250,feet,jsons/v1_VE250_randls_7_rotated.json,1078148,1291432,45,Man
118,237101,DepthScenes,duration_manipulation_targetAtFixation,jsons/v1_VE250_randls_7_rotated.json,http://54.235.29.9/FacialAge/BNav_EC2/DepthDuration/v2_depth_duration_MTurk/v2_DepthDuration_HTML.html#460,460,958,927,1920,1080,8-29-2022,10-5-42,119,depth_duration_stimuli/000436_2014-06-09_22-25-11_260595134347_rgbf000137-resize_1/000436_2014-06-09_22-25-11_260595134347_rgbf000137-resize_1-target.png,250,4.0705,12,5529,250,feet,jsons/v1_VE250_randls_7_rotated.json,1078148,1291432,45,Man
119,237101,DepthScenes,duration_manipulation_targetAtFixation,jsons/v1_VE250_randls_7_rotated.json,http://54.235.29.9/FacialAge/BNav_EC2/DepthDuration/v2_depth_duration_MTurk/v2_DepthDuration_HTML.html#460,460,958,927,1920,1080,8-29-2022,10-5-42,120,depth_duration_stimuli/000787_2014-06-08_22-33-53_260595134347_rgbf000175-resize_1/000787_2014-06-08_22-33-53_260595134347_rgbf000175-resize-original.jpg,250,4.784,0,3904,250,feet,jsons/v1_VE250_randls_7_rotated.json,1078148,1291432,45,Man
120,237101,DepthScenes,duration_manipulation_targetAtFixation,jsons/v1_VE250_randls_7_rotated.json,http://54.235.29.9/FacialAge/BNav_EC2/DepthDuration/v2_depth_duration_MTurk/v2_DepthDuration_HTML.html#460,460,958,927,1920,1080,8-29-2022,10-5-42,121,depth_duration_stimuli/003495_2014-05-21_16-01-51_094959634447_rgbf000100-resize_3/003495_2014-05-21_16-01-51_094959634447_rgbf000100-resize_3-target.png,250,1.6255,4,5472,248,feet,jsons/v1_VE250_randls_7_rotated.json,1078148,1291432,45,Man
121,237101,DepthScenes,duration_manipulation_targetAtFixation,jsons/v1_VE250_randls_7_rotated.json,http://54.235.29.9/FacialAge/BNav_EC2/DepthDuration/v2_depth_duration_MTurk/v2_DepthDuration_HTML.html#460,460,958,927,1920,1080,8-29-2022,10-5-42,122,depth_duration_stimuli/001244_2014-06-17_16-47-45_260595134347_rgbf000030-resize_4/001244_2014-06-17_16-47-45_260595134347_rgbf000030-resize_4-target.png,250,2.0425,5,4824,250,feet,jsons/v1_VE250_randls_7_rotated.json,1078148,1291432,45,Man
122,237101,DepthScenes,duration_manipulation_targetAtFixation,jsons/v1_VE250_randls_7_rotated.json,http://54.235.29.9/FacialAge/BNav_EC2/DepthDuration/v2_depth_duration_MTurk/v2_DepthDuration_HTML.html#460,460,958,927,1920,1080,8-29-2022,10-5-42,123,depth_duration_stimuli/000854_2014-06-09_19-43-13_260595134347_rgbf000066-resize_0/000854_2014-06-09_19-43-13_260595134347_rgbf000066-resize_0-target.png,250,3.068,4,5169,251,feet,jsons/v1_VE250_randls_7_rotated.json,1078148,1291432,45,Man
123,237101,DepthScenes,duration_manipulation_targetAtFixation,jsons/v1_VE250_randls_7_rotated.json,http://54.235.29.9/FacialAge/BNav_EC2/DepthDuration/v2_depth_duration_MTurk/v2_DepthDuration_HTML.html#460,460,958,927,1920,1080,8-29-2022,10-5-42,124,depth_duration_stimuli/000758_2014-06-08_22-05-08_260595134347_rgbf000085-resize_0/000758_2014-06-08_22-05-08_260595134347_rgbf000085-resize_0-target.png,250,3.3810000000000002,13,4849,249,feet,jsons/v1_VE250_randls_7_rotated.json,1078148,1291432,45,Man
124,237101,DepthScenes,duration_manipulation_targetAtFixation,jsons/v1_VE250_randls_7_rotated.json,http://54.235.29.9/FacialAge/BNav_EC2/DepthDuration/v2_depth_duration_MTurk/v2_DepthDuration_HTML.html#460,460,958,927,1920,1080,8-29-2022,10-5-42,125,depth_duration_stimuli/002995_2014-06-15_12-31-26_094959634447_rgbf000150-resize_1/002995_2014-06-15_12-31-26_094959634447_rgbf000150-resize_1-target.png,250,3.8360000000000003,14,5928,249,feet,jsons/v1_VE250_randls_7_rotated.json,1078148,1291432,45,Man
125,237101,DepthScenes,duration_manipulation_targetAtFixation,jsons/v1_VE250_randls_7_rotated.json,http://54.235.29.9/FacialAge/BNav_EC2/DepthDuration/v2_depth_duration_MTurk/v2_DepthDuration_HTML.html#460,460,958,927,1920,1080,8-29-2022,10-5-42,126,depth_duration_stimuli/002748_2014-06-22_19-07-22_094959634447_rgbf000078-resize_1/002748_2014-06-22_19-07-22_094959634447_rgbf000078-resize_1-target.png,250,4.6705,16,4991,249,feet,jsons/v1_VE250_randls_7_rotated.json,1078148,1291432,45,Man
126,237101,DepthScenes,duration_manipulation_targetAtFixation,jsons/v1_VE250_randls_7_rotated.json,http://54.235.29.9/FacialAge/BNav_EC2/DepthDuration/v2_depth_duration_MTurk/v2_DepthDuration_HTML.html#460,460,958,927,1920,1080,8-29-2022,10-5-42,127,depth_duration_stimuli/002949_2014-06-26_15-57-42_094959634447_rgbf000079-resize_1/002949_2014-06-26_15-57-42_094959634447_rgbf000079-resize_1-target.png,250,1.8915,5,4384,249,feet,jsons/v1_VE250_randls_7_rotated.json,1078148,1291432,45,Man
127,237101,DepthScenes,duration_manipulation_targetAtFixation,jsons/v1_VE250_randls_7_rotated.json,http://54.235.29.9/FacialAge/BNav_EC2/DepthDuration/v2_depth_duration_MTurk/v2_DepthDuration_HTML.html#460,460,958,927,1920,1080,8-29-2022,10-5-42,128,depth_duration_stimuli/000522_2014-06-08_13-35-06_260595134347_rgbf000244-resize_1/000522_2014-06-08_13-35-06_260595134347_rgbf000244-resize_1-target.png,250,2.3715,2,9918,251,feet,jsons/v1_VE250_randls_7_rotated.json,1078148,1291432,45,Man
128,237101,DepthScenes,duration_manipulation_targetAtFixation,jsons/v1_VE250_randls_7_rotated.json,http://54.235.29.9/FacialAge/BNav_EC2/DepthDuration/v2_depth_duration_MTurk/v2_DepthDuration_HTML.html#460,460,958,927,1920,1080,8-29-2022,10-5-42,129,depth_duration_stimuli/002467_2014-06-28_20-38-07_260595134347_rgbf000026-resize_2/002467_2014-06-28_20-38-07_260595134347_rgbf000026-resize_2-target.png,250,4.742,13,3746,250,feet,jsons/v1_VE250_randls_7_rotated.json,1078148,1291432,45,Man
129,237101,DepthScenes,duration_manipulation_targetAtFixation,jsons/v1_VE250_randls_7_rotated.json,http://54.235.29.9/FacialAge/BNav_EC2/DepthDuration/v2_depth_duration_MTurk/v2_DepthDuration_HTML.html#460,460,958,927,1920,1080,8-29-2022,10-5-42,130,depth_duration_stimuli/002570_2014-06-24_13-59-54_094959634447_rgbf000059-resize_0/002570_2014-06-24_13-59-54_094959634447_rgbf000059-resize_0-target.png,250,4.037,7,4017,250,feet,jsons/v1_VE250_randls_7_rotated.json,1078148,1291432,45,Man
130,237101,DepthScenes,duration_manipulation_targetAtFixation,jsons/v1_VE250_randls_7_rotated.json,http://54.235.29.9/FacialAge/BNav_EC2/DepthDuration/v2_depth_duration_MTurk/v2_DepthDuration_HTML.html#460,460,958,927,1920,1080,8-29-2022,10-5-42,131,depth_duration_stimuli/001094_2014-06-15_17-36-00_260595134347_rgbf000205-resize_0/001094_2014-06-15_17-36-00_260595134347_rgbf000205-resize_0-target.png,250,4.2175,14,4720,249,feet,jsons/v1_VE250_randls_7_rotated.json,1078148,1291432,45,Man
131,237101,DepthScenes,duration_manipulation_targetAtFixation,jsons/v1_VE250_randls_7_rotated.json,http://54.235.29.9/FacialAge/BNav_EC2/DepthDuration/v2_depth_duration_MTurk/v2_DepthDuration_HTML.html#460,460,958,927,1920,1080,8-29-2022,10-5-42,132,depth_duration_stimuli/000692_2014-06-08_13-09-42_260595134347_rgbf000199-resize_2/000692_2014-06-08_13-09-42_260595134347_rgbf000199-resize_2-target.png,250,3.661,9,4529,250,feet,jsons/v1_VE250_randls_7_rotated.json,1078148,1291432,45,Man
132,237101,DepthScenes,duration_manipulation_targetAtFixation,jsons/v1_VE250_randls_7_rotated.json,http://54.235.29.9/FacialAge/BNav_EC2/DepthDuration/v2_depth_duration_MTurk/v2_DepthDuration_HTML.html#460,460,958,927,1920,1080,8-29-2022,10-5-42,133,depth_duration_stimuli/001100_2014-06-15_17-46-26_260595134347_rgbf000225-resize_2/001100_2014-06-15_17-46-26_260595134347_rgbf000225-resize_2-target.png,250,2.24,3,3792,249,feet,jsons/v1_VE250_randls_7_rotated.json,1078148,1291432,45,Man
133,237101,DepthScenes,duration_manipulation_targetAtFixation,jsons/v1_VE250_randls_7_rotated.json,http://54.235.29.9/FacialAge/BNav_EC2/DepthDuration/v2_depth_duration_MTurk/v2_DepthDuration_HTML.html#460,460,958,927,1920,1080,8-29-2022,10-5-42,134,depth_duration_stimuli/002784_2014-06-22_19-26-30_094959634447_rgbf000083-resize_3/002784_2014-06-22_19-26-30_094959634447_rgbf000083-resize_3-target.png,250,1.8046666666667,5,3882,250,feet,jsons/v1_VE250_randls_7_rotated.json,1078148,1291432,45,Man
134,237101,DepthScenes,duration_manipulation_targetAtFixation,jsons/v1_VE250_randls_7_rotated.json,http://54.235.29.9/FacialAge/BNav_EC2/DepthDuration/v2_depth_duration_MTurk/v2_DepthDuration_HTML.html#460,460,958,927,1920,1080,8-29-2022,10-5-42,135,depth_duration_stimuli/000375_2014-06-08_11-17-29_260595134347_rgbf000133-resize_2/000375_2014-06-08_11-17-29_260595134347_rgbf000133-resize-original.jpg,250,4.718,0,4193,250,feet,jsons/v1_VE250_randls_7_rotated.json,1078148,1291432,45,Man
135,237101,DepthScenes,duration_manipulation_targetAtFixation,jsons/v1_VE250_randls_7_rotated.json,http://54.235.29.9/FacialAge/BNav_EC2/DepthDuration/v2_depth_duration_MTurk/v2_DepthDuration_HTML.html#460,460,958,927,1920,1080,8-29-2022,10-5-42,136,depth_duration_stimuli/001571_2014-06-20_17-21-32_260595134347_rgbf000089-resize_1/001571_2014-06-20_17-21-32_260595134347_rgbf000089-resize_1-target.png,250,1.86,3,4441,249,feet,jsons/v1_VE250_randls_7_rotated.json,1078148,1291432,45,Man
136,237101,DepthScenes,duration_manipulation_targetAtFixation,jsons/v1_VE250_randls_7_rotated.json,http://54.235.29.9/FacialAge/BNav_EC2/DepthDuration/v2_depth_duration_MTurk/v2_DepthDuration_HTML.html#460,460,958,927,1920,1080,8-29-2022,10-5-42,137,depth_duration_stimuli/002272_2014-06-28_18-53-56_260595134347_rgbf000067-resize_2/002272_2014-06-28_18-53-56_260595134347_rgbf000067-resize_2-target.png,250,1.138,2,3720,250,feet,jsons/v1_VE250_randls_7_rotated.json,1078148,1291432,45,Man
137,237101,DepthScenes,duration_manipulation_targetAtFixation,jsons/v1_VE250_randls_7_rotated.json,http://54.235.29.9/FacialAge/BNav_EC2/DepthDuration/v2_depth_duration_MTurk/v2_DepthDuration_HTML.html#460,460,958,927,1920,1080,8-29-2022,10-5-42,138,depth_duration_stimuli/002678_2014-06-13_16-15-32_094959634447_rgbf000151-resize_6/002678_2014-06-13_16-15-32_094959634447_rgbf000151-resize_6-target.png,250,2.1830000000000003,6,4768,249,feet,jsons/v1_VE250_randls_7_rotated.json,1078148,1291432,45,Man
138,237101,DepthScenes,duration_manipulation_targetAtFixation,jsons/v1_VE250_randls_7_rotated.json,http://54.235.29.9/FacialAge/BNav_EC2/DepthDuration/v2_depth_duration_MTurk/v2_DepthDuration_HTML.html#460,460,958,927,1920,1080,8-29-2022,10-5-42,139,depth_duration_stimuli/000368_2014-06-09_15-53-01_260595134347_rgbf000155-resize_2/000368_2014-06-09_15-53-01_260595134347_rgbf000155-resize_2-target.png,250,2.4859999999999998,5,4640,249,feet,jsons/v1_VE250_randls_7_rotated.json,1078148,1291432,45,Man
139,237101,DepthScenes,duration_manipulation_targetAtFixation,jsons/v1_VE250_randls_7_rotated.json,http://54.235.29.9/FacialAge/BNav_EC2/DepthDuration/v2_depth_duration_MTurk/v2_DepthDuration_HTML.html#460,460,958,927,1920,1080,8-29-2022,10-5-42,140,depth_duration_stimuli/002199_2014-06-28_18-33-56_260595134347_rgbf000074-resize_0/002199_2014-06-28_18-33-56_260595134347_rgbf000074-resize_0-target.png,250,1.996,2,4129,249,feet,jsons/v1_VE250_randls_7_rotated.json,1078148,1291432,45,Man
140,237101,DepthScenes,duration_manipulation_targetAtFixation,jsons/v1_VE250_randls_7_rotated.json,http://54.235.29.9/FacialAge/BNav_EC2/DepthDuration/v2_depth_duration_MTurk/v2_DepthDuration_HTML.html#460,460,958,927,1920,1080,8-29-2022,10-5-42,141,depth_duration_stimuli/001056_2014-06-08_18-46-44_260595134347_rgbf000068-resize_0/001056_2014-06-08_18-46-44_260595134347_rgbf000068-resize_0-target.png,250,2.6625,7,4568,249,feet,jsons/v1_VE250_randls_7_rotated.json,1078148,1291432,45,Man
141,237101,DepthScenes,duration_manipulation_targetAtFixation,jsons/v1_VE250_randls_7_rotated.json,http://54.235.29.9/FacialAge/BNav_EC2/DepthDuration/v2_depth_duration_MTurk/v2_DepthDuration_HTML.html#460,460,958,927,1920,1080,8-29-2022,10-5-42,142,depth_duration_stimuli/002425_2014-06-28_20-27-29_260595134347_rgbf000031-resize_8/002425_2014-06-28_20-27-29_260595134347_rgbf000031-resize_8-target.png,250,3.8960000000000004,9,5281,249,feet,jsons/v1_VE250_randls_7_rotated.json,1078148,1291432,45,Man
142,237101,DepthScenes,duration_manipulation_targetAtFixation,jsons/v1_VE250_randls_7_rotated.json,http://54.235.29.9/FacialAge/BNav_EC2/DepthDuration/v2_depth_duration_MTurk/v2_DepthDuration_HTML.html#460,460,958,927,1920,1080,8-29-2022,10-5-42,143,depth_duration_stimuli/000642_2014-06-08_16-59-25_260595134347_rgbf000098-resize_2/000642_2014-06-08_16-59-25_260595134347_rgbf000098-resize_2-target.png,250,2.8815,8,4563,250,feet,jsons/v1_VE250_randls_7_rotated.json,1078148,1291432,45,Man
143,237101,DepthScenes,duration_manipulation_targetAtFixation,jsons/v1_VE250_randls_7_rotated.json,http://54.235.29.9/FacialAge/BNav_EC2/DepthDuration/v2_depth_duration_MTurk/v2_DepthDuration_HTML.html#460,460,958,927,1920,1080,8-29-2022,10-5-42,144,depth_duration_stimuli/000734_2014-06-08_17-39-11_260595134347_rgbf000128-resize_2/000734_2014-06-08_17-39-11_260595134347_rgbf000128-resize_2-target.png,250,4.098,9,5208,250,feet,jsons/v1_VE250_randls_7_rotated.json,1078148,1291432,45,Man
144,237101,DepthScenes,duration_manipulation_targetAtFixation,jsons/v1_VE250_randls_7_rotated.json,http://54.235.29.9/FacialAge/BNav_EC2/DepthDuration/v2_depth_duration_MTurk/v2_DepthDuration_HTML.html#460,460,958,927,1920,1080,8-29-2022,10-5-42,145,depth_duration_stimuli/000739_2014-06-08_18-45-58_260595134347_rgbf000068-resize_1/000739_2014-06-08_18-45-58_260595134347_rgbf000068-resize_1-target.png,250,3.534,11,5408,249,feet,jsons/v1_VE250_randls_7_rotated.json,1078148,1291432,45,Man
145,237101,DepthScenes,duration_manipulation_targetAtFixation,jsons/v1_VE250_randls_7_rotated.json,http://54.235.29.9/FacialAge/BNav_EC2/DepthDuration/v2_depth_duration_MTurk/v2_DepthDuration_HTML.html#460,460,958,927,1920,1080,8-29-2022,10-5-42,146,depth_duration_stimuli/001815_2014-06-26_20-52-55_260595134347_rgbf000020-resize_0/001815_2014-06-26_20-52-55_260595134347_rgbf000020-resize_0-target.png,250,3.3865,13,4984,250,feet,jsons/v1_VE250_randls_7_rotated.json,1078148,1291432,45,Man
146,237101,DepthScenes,duration_manipulation_targetAtFixation,jsons/v1_VE250_randls_7_rotated.json,http://54.235.29.9/FacialAge/BNav_EC2/DepthDuration/v2_depth_duration_MTurk/v2_DepthDuration_HTML.html#460,460,958,927,1920,1080,8-29-2022,10-5-42,147,depth_duration_stimuli/001808_2014-06-26_20-50-58_260595134347_rgbf000029-resize_1/001808_2014-06-26_20-50-58_260595134347_rgbf000029-resize_1-target.png,250,4.249,13,6049,249,feet,jsons/v1_VE250_randls_7_rotated.json,1078148,1291432,45,Man
147,237101,DepthScenes,duration_manipulation_targetAtFixation,jsons/v1_VE250_randls_7_rotated.json,http://54.235.29.9/FacialAge/BNav_EC2/DepthDuration/v2_depth_duration_MTurk/v2_DepthDuration_HTML.html#460,460,958,927,1920,1080,8-29-2022,10-5-42,148,depth_duration_stimuli/002637_2014-06-24_14-51-13_094959634447_rgbf000066-resize_4/002637_2014-06-24_14-51-13_094959634447_rgbf000066-resize_4-target.png,250,1.9955,7,4721,249,feet,jsons/v1_VE250_randls_7_rotated.json,1078148,1291432,45,Man
148,237101,DepthScenes,duration_manipulation_targetAtFixation,jsons/v1_VE250_randls_7_rotated.json,http://54.235.29.9/FacialAge/BNav_EC2/DepthDuration/v2_depth_duration_MTurk/v2_DepthDuration_HTML.html#460,460,958,927,1920,1080,8-29-2022,10-5-42,149,depth_duration_stimuli/003534_2014-05-22_15-06-10_094959634447_rgbf000102-resize_4/003534_2014-05-22_15-06-10_094959634447_rgbf000102-resize_4-target.png,250,1.426,3,4601,250,feet,jsons/v1_VE250_randls_7_rotated.json,1078148,1291432,45,Man
149,237101,DepthScenes,duration_manipulation_targetAtFixation,jsons/v1_VE250_randls_7_rotated.json,http://54.235.29.9/FacialAge/BNav_EC2/DepthDuration/v2_depth_duration_MTurk/v2_DepthDuration_HTML.html#460,460,958,927,1920,1080,8-29-2022,10-5-42,150,depth_duration_stimuli/003048_2014-06-15_13-49-43_094959634447_rgbf000150-resize_1/003048_2014-06-15_13-49-43_094959634447_rgbf000150-resize_1-target.png,250,4.0035,9,5200,249,feet,jsons/v1_VE250_randls_7_rotated.json,1078148,1291432,45,Man
150,237101,DepthScenes,duration_manipulation_targetAtFixation,jsons/v1_VE250_randls_7_rotated.json,http://54.235.29.9/FacialAge/BNav_EC2/DepthDuration/v2_depth_duration_MTurk/v2_DepthDuration_HTML.html#460,460,958,927,1920,1080,8-29-2022,10-5-42,151,depth_duration_stimuli/002043_2014-06-24_20-29-38_260595134347_rgbf000039-resize_4/002043_2014-06-24_20-29-38_260595134347_rgbf000039-resize_4-target.png,250,2.8435,7,4874,250,feet,jsons/v1_VE250_randls_7_rotated.json,1078148,1291432,45,Man
151,237101,DepthScenes,duration_manipulation_targetAtFixation,jsons/v1_VE250_randls_7_rotated.json,http://54.235.29.9/FacialAge/BNav_EC2/DepthDuration/v2_depth_duration_MTurk/v2_DepthDuration_HTML.html#460,460,958,927,1920,1080,8-29-2022,10-5-42,152,depth_duration_stimuli/000569_2014-06-09_22-51-47_260595134347_rgbf000141-resize_3/000569_2014-06-09_22-51-47_260595134347_rgbf000141-resize-original.jpg,250,4.512,0,8415,249,feet,jsons/v1_VE250_randls_7_rotated.json,1078148,1291432,45,Man
152,237101,DepthScenes,duration_manipulation_targetAtFixation,jsons/v1_VE250_randls_7_rotated.json,http://54.235.29.9/FacialAge/BNav_EC2/DepthDuration/v2_depth_duration_MTurk/v2_DepthDuration_HTML.html#460,460,958,927,1920,1080,8-29-2022,10-5-42,153,depth_duration_stimuli/001516_2014-06-20_16-25-09_260595134347_rgbf000076-resize_2/001516_2014-06-20_16-25-09_260595134347_rgbf000076-resize_2-target.png,250,1.7445,7,4482,250,feet,jsons/v1_VE250_randls_7_rotated.json,1078148,1291432,45,Man
153,237101,DepthScenes,duration_manipulation_targetAtFixation,jsons/v1_VE250_randls_7_rotated.json,http://54.235.29.9/FacialAge/BNav_EC2/DepthDuration/v2_depth_duration_MTurk/v2_DepthDuration_HTML.html#460,460,958,927,1920,1080,8-29-2022,10-5-42,154,depth_duration_stimuli/002118_2014-06-25_20-32-08_260595134347_rgbf000078-resize_1/002118_2014-06-25_20-32-08_260595134347_rgbf000078-resize_1-target.png,250,2.6460000000000004,8,3715,250,feet,jsons/v1_VE250_randls_7_rotated.json,1078148,1291432,45,Man
154,237101,DepthScenes,duration_manipulation_targetAtFixation,jsons/v1_VE250_randls_7_rotated.json,http://54.235.29.9/FacialAge/BNav_EC2/DepthDuration/v2_depth_duration_MTurk/v2_DepthDuration_HTML.html#460,460,958,927,1920,1080,8-29-2022,10-5-42,155,depth_duration_stimuli/001617_2014-06-20_11-35-32_260595134347_rgbf000066-resize_1/001617_2014-06-20_11-35-32_260595134347_rgbf000066-resize_1-target.png,250,3.7910000000000004,11,5159,250,feet,jsons/v1_VE250_randls_7_rotated.json,1078148,1291432,45,Man
155,237101,DepthScenes,duration_manipulation_targetAtFixation,jsons/v1_VE250_randls_7_rotated.json,http://54.235.29.9/FacialAge/BNav_EC2/DepthDuration/v2_depth_duration_MTurk/v2_DepthDuration_HTML.html#460,460,958,927,1920,1080,8-29-2022,10-5-42,156,depth_duration_stimuli/001806_2014-06-26_20-50-20_260595134347_rgbf000091-resize_1/001806_2014-06-26_20-50-20_260595134347_rgbf000091-resize_1-target.png,250,2.7305,5,3952,249,feet,jsons/v1_VE250_randls_7_rotated.json,1078148,1291432,45,Man
156,237101,DepthScenes,duration_manipulation_targetAtFixation,jsons/v1_VE250_randls_7_rotated.json,http://54.235.29.9/FacialAge/BNav_EC2/DepthDuration/v2_depth_duration_MTurk/v2_DepthDuration_HTML.html#460,460,958,927,1920,1080,8-29-2022,10-5-42,157,depth_duration_stimuli/001032_2014-06-08_13-23-17_260595134347_rgbf000021-resize_3/001032_2014-06-08_13-23-17_260595134347_rgbf000021-resize_3-target.png,250,3.2725,7,4265,251,feet,jsons/v1_VE250_randls_7_rotated.json,1078148,1291432,45,Man
157,237101,DepthScenes,duration_manipulation_targetAtFixation,jsons/v1_VE250_randls_7_rotated.json,http://54.235.29.9/FacialAge/BNav_EC2/DepthDuration/v2_depth_duration_MTurk/v2_DepthDuration_HTML.html#460,460,958,927,1920,1080,8-29-2022,10-5-42,158,depth_duration_stimuli/001059_2014-06-08_21-53-27_260595134347_rgbf000061-resize_4/001059_2014-06-08_21-53-27_260595134347_rgbf000061-resize_4-target.png,250,2.4185,5,4193,251,feet,jsons/v1_VE250_randls_7_rotated.json,1078148,1291432,45,Man
158,237101,DepthScenes,duration_manipulation_targetAtFixation,jsons/v1_VE250_randls_7_rotated.json,http://54.235.29.9/FacialAge/BNav_EC2/DepthDuration/v2_depth_duration_MTurk/v2_DepthDuration_HTML.html#460,460,958,927,1920,1080,8-29-2022,10-5-42,159,depth_duration_stimuli/003010_2014-06-15_12-54-35_094959634447_rgbf000112-resize_0/003010_2014-06-15_12-54-35_094959634447_rgbf000112-resize_0-target.png,250,3.1185,9,4504,249,feet,jsons/v1_VE250_randls_7_rotated.json,1078148,1291432,45,Man
159,237101,DepthScenes,duration_manipulation_targetAtFixation,jsons/v1_VE250_randls_7_rotated.json,http://54.235.29.9/FacialAge/BNav_EC2/DepthDuration/v2_depth_duration_MTurk/v2_DepthDuration_HTML.html#460,460,958,927,1920,1080,8-29-2022,10-5-42,160,depth_duration_stimuli/001810_2014-06-26_20-51-35_260595134347_rgbf000040-resize_3/001810_2014-06-26_20-51-35_260595134347_rgbf000040-resize_3-target.png,250,2.2525,5,4976,249,feet,jsons/v1_VE250_randls_7_rotated.json,1078148,1291432,45,Man
160,237101,DepthScenes,duration_manipulation_targetAtFixation,jsons/v1_VE250_randls_7_rotated.json,http://54.235.29.9/FacialAge/BNav_EC2/DepthDuration/v2_depth_duration_MTurk/v2_DepthDuration_HTML.html#460,460,958,927,1920,1080,8-29-2022,10-5-42,161,depth_duration_stimuli/001828_2014-06-26_21-40-03_260595134347_rgbf000024-resize_0/001828_2014-06-26_21-40-03_260595134347_rgbf000024-resize_0-target.png,250,4.8260000000000005,11,5121,251,feet,jsons/v1_VE250_randls_7_rotated.json,1078148,1291432,45,Man
161,237101,DepthScenes,duration_manipulation_targetAtFixation,jsons/v1_VE250_randls_7_rotated.json,http://54.235.29.9/FacialAge/BNav_EC2/DepthDuration/v2_depth_duration_MTurk/v2_DepthDuration_HTML.html#460,460,958,927,1920,1080,8-29-2022,10-5-42,162,depth_duration_stimuli/000009_2014-05-26_14-32-05_260595134347_rgbf000034-resize_3/000009_2014-05-26_14-32-05_260595134347_rgbf000034-resize_3-target.png,250,3.8715,12,5136,250,feet,jsons/v1_VE250_randls_7_rotated.json,1078148,1291432,45,Man
162,237101,DepthScenes,duration_manipulation_targetAtFixation,jsons/v1_VE250_randls_7_rotated.json,http://54.235.29.9/FacialAge/BNav_EC2/DepthDuration/v2_depth_duration_MTurk/v2_DepthDuration_HTML.html#460,460,958,927,1920,1080,8-29-2022,10-5-42,163,depth_duration_stimuli/000780_2014-06-08_22-28-29_260595134347_rgbf000126-resize_1/000780_2014-06-08_22-28-29_260595134347_rgbf000126-resize_1-target.png,250,3.3825,9,4945,250,feet,jsons/v1_VE250_randls_7_rotated.json,1078148,1291432,45,Man
163,237101,DepthScenes,duration_manipulation_targetAtFixation,jsons/v1_VE250_randls_7_rotated.json,http://54.235.29.9/FacialAge/BNav_EC2/DepthDuration/v2_depth_duration_MTurk/v2_DepthDuration_HTML.html#460,460,958,927,1920,1080,8-29-2022,10-5-42,164,depth_duration_stimuli/002445_2014-06-28_20-32-16_260595134347_rgbf000029-resize_4/002445_2014-06-28_20-32-16_260595134347_rgbf000029-resize_4-target.png,250,2.5315,5,3785,250,feet,jsons/v1_VE250_randls_7_rotated.json,1078148,1291432,45,Man
