,subjID,experimentName,versionName,sequenceName,url,selected_row,windowWidth,windowHeight,screenWidth,screenHeight,startDate,startTime,trial,stimulus,duration,actual_depth,depth_estimate,trial_RT,log_sceneDuration,unitSelection,seq_filepath,experimentTime,totalTime,age,gender
0,240085,DepthScenes,duration_manipulation_targetAtFixation,jsons/v1_VE1000_randls_2_rotated.json,http://54.235.29.9/FacialAge/BNav_EC2/DepthDuration/v2_depth_duration_MTurk/v2_DepthDuration_HTML.html#187,187,1364,657,1364,768,8-29-2022,9-41-7,1,depth_duration_stimuli/002209_2014-06-28_18-36-10_260595134347_rgbf000051-resize_1/002209_2014-06-28_18-36-10_260595134347_rgbf000051-resize_1-target.png,1000,2.057,9,184421,997,meters,jsons/v1_VE1000_randls_2_rotated.json,1512848,2250311,47,Man
1,240085,DepthScenes,duration_manipulation_targetAtFixation,jsons/v1_VE1000_randls_2_rotated.json,http://54.235.29.9/FacialAge/BNav_EC2/DepthDuration/v2_depth_duration_MTurk/v2_DepthDuration_HTML.html#187,187,1364,657,1364,768,8-29-2022,9-41-7,2,depth_duration_stimuli/002763_2014-06-22_19-13-10_094959634447_rgbf000075-resize_4/002763_2014-06-22_19-13-10_094959634447_rgbf000075-resize_4-target.png,1000,1.68375,8,7292,1008,meters,jsons/v1_VE1000_randls_2_rotated.json,1512848,2250311,47,Man
2,240085,DepthScenes,duration_manipulation_targetAtFixation,jsons/v1_VE1000_randls_2_rotated.json,http://54.235.29.9/FacialAge/BNav_EC2/DepthDuration/v2_depth_duration_MTurk/v2_DepthDuration_HTML.html#187,187,1364,657,1364,768,8-29-2022,9-41-7,3,depth_duration_stimuli/000780_2014-06-08_22-28-29_260595134347_rgbf000126-resize_1/000780_2014-06-08_22-28-29_260595134347_rgbf000126-resize_1-target.png,1000,3.3825,9,11115,1001,meters,jsons/v1_VE1000_randls_2_rotated.json,1512848,2250311,47,Man
3,240085,DepthScenes,duration_manipulation_targetAtFixation,jsons/v1_VE1000_randls_2_rotated.json,http://54.235.29.9/FacialAge/BNav_EC2/DepthDuration/v2_depth_duration_MTurk/v2_DepthDuration_HTML.html#187,187,1364,657,1364,768,8-29-2022,9-41-7,4,depth_duration_stimuli/002445_2014-06-28_20-32-16_260595134347_rgbf000029-resize_4/002445_2014-06-28_20-32-16_260595134347_rgbf000029-resize_4-target.png,1000,2.5315,8,20658,1006,meters,jsons/v1_VE1000_randls_2_rotated.json,1512848,2250311,47,Man
4,240085,DepthScenes,duration_manipulation_targetAtFixation,jsons/v1_VE1000_randls_2_rotated.json,http://54.235.29.9/FacialAge/BNav_EC2/DepthDuration/v2_depth_duration_MTurk/v2_DepthDuration_HTML.html#187,187,1364,657,1364,768,8-29-2022,9-41-7,5,depth_duration_stimuli/002805_2014-06-22_19-54-03_094959634447_rgbf000079-resize_1/002805_2014-06-22_19-54-03_094959634447_rgbf000079-resize_1-target.png,1000,3.1439999999999997,8,6206,1942,meters,jsons/v1_VE1000_randls_2_rotated.json,1512848,2250311,47,Man
5,240085,DepthScenes,duration_manipulation_targetAtFixation,jsons/v1_VE1000_randls_2_rotated.json,http://54.235.29.9/FacialAge/BNav_EC2/DepthDuration/v2_depth_duration_MTurk/v2_DepthDuration_HTML.html#187,187,1364,657,1364,768,8-29-2022,9-41-7,6,depth_duration_stimuli/000906_2014-06-08_13-35-43_260595134347_rgbf000155-resize_1/000906_2014-06-08_13-35-43_260595134347_rgbf000155-resize_1-target.png,1000,2.8489999999999998,8,48252,1007,meters,jsons/v1_VE1000_randls_2_rotated.json,1512848,2250311,47,Man
6,240085,DepthScenes,duration_manipulation_targetAtFixation,jsons/v1_VE1000_randls_2_rotated.json,http://54.235.29.9/FacialAge/BNav_EC2/DepthDuration/v2_depth_duration_MTurk/v2_DepthDuration_HTML.html#187,187,1364,657,1364,768,8-29-2022,9-41-7,7,depth_duration_stimuli/000556_2014-06-09_22-42-56_260595134347_rgbf000214-resize_1/000556_2014-06-09_22-42-56_260595134347_rgbf000214-resize_1-target.png,1000,4.8415,9,7509,1009,meters,jsons/v1_VE1000_randls_2_rotated.json,1512848,2250311,47,Man
7,240085,DepthScenes,duration_manipulation_targetAtFixation,jsons/v1_VE1000_randls_2_rotated.json,http://54.235.29.9/FacialAge/BNav_EC2/DepthDuration/v2_depth_duration_MTurk/v2_DepthDuration_HTML.html#187,187,1364,657,1364,768,8-29-2022,9-41-7,8,depth_duration_stimuli/001158_2014-06-17_15-32-16_260595134347_rgbf000138-resize_2/001158_2014-06-17_15-32-16_260595134347_rgbf000138-resize_2-target.png,1000,4.5315,8,4776,993,meters,jsons/v1_VE1000_randls_2_rotated.json,1512848,2250311,47,Man
8,240085,DepthScenes,duration_manipulation_targetAtFixation,jsons/v1_VE1000_randls_2_rotated.json,http://54.235.29.9/FacialAge/BNav_EC2/DepthDuration/v2_depth_duration_MTurk/v2_DepthDuration_HTML.html#187,187,1364,657,1364,768,8-29-2022,9-41-7,9,depth_duration_stimuli/002444_2014-06-28_20-32-08_260595134347_rgbf000027-resize_0/002444_2014-06-28_20-32-08_260595134347_rgbf000027-resize_0-target.png,1000,4.388999999999999,9,4730,990,meters,jsons/v1_VE1000_randls_2_rotated.json,1512848,2250311,47,Man
9,240085,DepthScenes,duration_manipulation_targetAtFixation,jsons/v1_VE1000_randls_2_rotated.json,http://54.235.29.9/FacialAge/BNav_EC2/DepthDuration/v2_depth_duration_MTurk/v2_DepthDuration_HTML.html#187,187,1364,657,1364,768,8-29-2022,9-41-7,10,depth_duration_stimuli/000436_2014-06-09_22-25-11_260595134347_rgbf000137-resize_1/000436_2014-06-09_22-25-11_260595134347_rgbf000137-resize_1-target.png,1000,4.0705,8,4440,997,meters,jsons/v1_VE1000_randls_2_rotated.json,1512848,2250311,47,Man
10,240085,DepthScenes,duration_manipulation_targetAtFixation,jsons/v1_VE1000_randls_2_rotated.json,http://54.235.29.9/FacialAge/BNav_EC2/DepthDuration/v2_depth_duration_MTurk/v2_DepthDuration_HTML.html#187,187,1364,657,1364,768,8-29-2022,9-41-7,11,depth_duration_stimuli/002953_2014-06-08_17-32-18_094959634447_rgbf000059-resize_5/002953_2014-06-08_17-32-18_094959634447_rgbf000059-resize_5-target.png,1000,1.551,8,5438,998,meters,jsons/v1_VE1000_randls_2_rotated.json,1512848,2250311,47,Man
11,240085,DepthScenes,duration_manipulation_targetAtFixation,jsons/v1_VE1000_randls_2_rotated.json,http://54.235.29.9/FacialAge/BNav_EC2/DepthDuration/v2_depth_duration_MTurk/v2_DepthDuration_HTML.html#187,187,1364,657,1364,768,8-29-2022,9-41-7,12,depth_duration_stimuli/000878_2014-06-08_22-52-45_260595134347_rgbf000045-resize_2/000878_2014-06-08_22-52-45_260595134347_rgbf000045-resize_2-target.png,1000,2.092,9,3772,997,meters,jsons/v1_VE1000_randls_2_rotated.json,1512848,2250311,47,Man
12,240085,DepthScenes,duration_manipulation_targetAtFixation,jsons/v1_VE1000_randls_2_rotated.json,http://54.235.29.9/FacialAge/BNav_EC2/DepthDuration/v2_depth_duration_MTurk/v2_DepthDuration_HTML.html#187,187,1364,657,1364,768,8-29-2022,9-41-7,13,depth_duration_stimuli/001516_2014-06-20_16-25-09_260595134347_rgbf000076-resize_2/001516_2014-06-20_16-25-09_260595134347_rgbf000076-resize_2-target.png,1000,1.7445,8,4914,1001,meters,jsons/v1_VE1000_randls_2_rotated.json,1512848,2250311,47,Man
13,240085,DepthScenes,duration_manipulation_targetAtFixation,jsons/v1_VE1000_randls_2_rotated.json,http://54.235.29.9/FacialAge/BNav_EC2/DepthDuration/v2_depth_duration_MTurk/v2_DepthDuration_HTML.html#187,187,1364,657,1364,768,8-29-2022,9-41-7,14,depth_duration_stimuli/002118_2014-06-25_20-32-08_260595134347_rgbf000078-resize_1/002118_2014-06-25_20-32-08_260595134347_rgbf000078-resize_1-target.png,1000,2.6460000000000004,9,3412,990,meters,jsons/v1_VE1000_randls_2_rotated.json,1512848,2250311,47,Man
14,240085,DepthScenes,duration_manipulation_targetAtFixation,jsons/v1_VE1000_randls_2_rotated.json,http://54.235.29.9/FacialAge/BNav_EC2/DepthDuration/v2_depth_duration_MTurk/v2_DepthDuration_HTML.html#187,187,1364,657,1364,768,8-29-2022,9-41-7,15,depth_duration_stimuli/003083_2014-06-15_15-21-03_094959634447_rgbf000063-resize_1/003083_2014-06-15_15-21-03_094959634447_rgbf000063-resize_1-target.png,1000,4.1405,7,5727,1004,meters,jsons/v1_VE1000_randls_2_rotated.json,1512848,2250311,47,Man
15,240085,DepthScenes,duration_manipulation_targetAtFixation,jsons/v1_VE1000_randls_2_rotated.json,http://54.235.29.9/FacialAge/BNav_EC2/DepthDuration/v2_depth_duration_MTurk/v2_DepthDuration_HTML.html#187,187,1364,657,1364,768,8-29-2022,9-41-7,16,depth_duration_stimuli/000486_2014-06-09_20-47-20_260595134347_rgbf000143-resize_2/000486_2014-06-09_20-47-20_260595134347_rgbf000143-resize_2-target.png,1000,4.8325,8,3535,1010,meters,jsons/v1_VE1000_randls_2_rotated.json,1512848,2250311,47,Man
16,240085,DepthScenes,duration_manipulation_targetAtFixation,jsons/v1_VE1000_randls_2_rotated.json,http://54.235.29.9/FacialAge/BNav_EC2/DepthDuration/v2_depth_duration_MTurk/v2_DepthDuration_HTML.html#187,187,1364,657,1364,768,8-29-2022,9-41-7,17,depth_duration_stimuli/000691_2014-06-08_13-08-50_260595134347_rgbf000132-resize_3/000691_2014-06-08_13-08-50_260595134347_rgbf000132-resize_3-target.png,1000,4.1530000000000005,9,4654,986,meters,jsons/v1_VE1000_randls_2_rotated.json,1512848,2250311,47,Man
17,240085,DepthScenes,duration_manipulation_targetAtFixation,jsons/v1_VE1000_randls_2_rotated.json,http://54.235.29.9/FacialAge/BNav_EC2/DepthDuration/v2_depth_duration_MTurk/v2_DepthDuration_HTML.html#187,187,1364,657,1364,768,8-29-2022,9-41-7,18,depth_duration_stimuli/002213_2014-06-28_18-37-58_260595134347_rgbf000055-resize_1/002213_2014-06-28_18-37-58_260595134347_rgbf000055-resize_1-target.png,1000,3.62,9,3656,999,meters,jsons/v1_VE1000_randls_2_rotated.json,1512848,2250311,47,Man
18,240085,DepthScenes,duration_manipulation_targetAtFixation,jsons/v1_VE1000_randls_2_rotated.json,http://54.235.29.9/FacialAge/BNav_EC2/DepthDuration/v2_depth_duration_MTurk/v2_DepthDuration_HTML.html#187,187,1364,657,1364,768,8-29-2022,9-41-7,19,depth_duration_stimuli/001498_2014-06-19_17-45-14_260595134347_rgbf000129-resize_4/001498_2014-06-19_17-45-14_260595134347_rgbf000129-resize-original.jpg,1000,1.4075,8,8679,991,meters,jsons/v1_VE1000_randls_2_rotated.json,1512848,2250311,47,Man
19,240085,DepthScenes,duration_manipulation_targetAtFixation,jsons/v1_VE1000_randls_2_rotated.json,http://54.235.29.9/FacialAge/BNav_EC2/DepthDuration/v2_depth_duration_MTurk/v2_DepthDuration_HTML.html#187,187,1364,657,1364,768,8-29-2022,9-41-7,20,depth_duration_stimuli/003129_2014-05-12_10-48-10_094959634447_rgbf000100-resize_0/003129_2014-05-12_10-48-10_094959634447_rgbf000100-resize_0-target.png,1000,4.9305,9,5346,1002,meters,jsons/v1_VE1000_randls_2_rotated.json,1512848,2250311,47,Man
20,240085,DepthScenes,duration_manipulation_targetAtFixation,jsons/v1_VE1000_randls_2_rotated.json,http://54.235.29.9/FacialAge/BNav_EC2/DepthDuration/v2_depth_duration_MTurk/v2_DepthDuration_HTML.html#187,187,1364,657,1364,768,8-29-2022,9-41-7,21,depth_duration_stimuli/000414_2014-06-04_19-49-13_260595134347_rgbf000044-resize_0/000414_2014-06-04_19-49-13_260595134347_rgbf000044-resize_0-target.png,1000,4.329,8,4550,1002,meters,jsons/v1_VE1000_randls_2_rotated.json,1512848,2250311,47,Man
21,240085,DepthScenes,duration_manipulation_targetAtFixation,jsons/v1_VE1000_randls_2_rotated.json,http://54.235.29.9/FacialAge/BNav_EC2/DepthDuration/v2_depth_duration_MTurk/v2_DepthDuration_HTML.html#187,187,1364,657,1364,768,8-29-2022,9-41-7,22,depth_duration_stimuli/002103_2014-06-25_20-00-40_260595134347_rgbf000049-resize_0/002103_2014-06-25_20-00-40_260595134347_rgbf000049-resize_0-target.png,1000,4.105,9,5677,993,meters,jsons/v1_VE1000_randls_2_rotated.json,1512848,2250311,47,Man
22,240085,DepthScenes,duration_manipulation_targetAtFixation,jsons/v1_VE1000_randls_2_rotated.json,http://54.235.29.9/FacialAge/BNav_EC2/DepthDuration/v2_depth_duration_MTurk/v2_DepthDuration_HTML.html#187,187,1364,657,1364,768,8-29-2022,9-41-7,23,depth_duration_stimuli/002039_2014-06-24_20-22-38_260595134347_rgbf000084-resize_1/002039_2014-06-24_20-22-38_260595134347_rgbf000084-resize_1-target.png,1000,4.408,9,3951,993,meters,jsons/v1_VE1000_randls_2_rotated.json,1512848,2250311,47,Man
23,240085,DepthScenes,duration_manipulation_targetAtFixation,jsons/v1_VE1000_randls_2_rotated.json,http://54.235.29.9/FacialAge/BNav_EC2/DepthDuration/v2_depth_duration_MTurk/v2_DepthDuration_HTML.html#187,187,1364,657,1364,768,8-29-2022,9-41-7,24,depth_duration_stimuli/002414_2014-06-28_20-24-58_260595134347_rgbf000067-resize_4/002414_2014-06-28_20-24-58_260595134347_rgbf000067-resize_4-target.png,1000,4.363,8,7100,1004,meters,jsons/v1_VE1000_randls_2_rotated.json,1512848,2250311,47,Man
24,240085,DepthScenes,duration_manipulation_targetAtFixation,jsons/v1_VE1000_randls_2_rotated.json,http://54.235.29.9/FacialAge/BNav_EC2/DepthDuration/v2_depth_duration_MTurk/v2_DepthDuration_HTML.html#187,187,1364,657,1364,768,8-29-2022,9-41-7,25,depth_duration_stimuli/000773_2014-06-08_22-24-54_260595134347_rgbf000093-resize_1/000773_2014-06-08_22-24-54_260595134347_rgbf000093-resize_1-target.png,1000,4.973,9,4089,999,meters,jsons/v1_VE1000_randls_2_rotated.json,1512848,2250311,47,Man
25,240085,DepthScenes,duration_manipulation_targetAtFixation,jsons/v1_VE1000_randls_2_rotated.json,http://54.235.29.9/FacialAge/BNav_EC2/DepthDuration/v2_depth_duration_MTurk/v2_DepthDuration_HTML.html#187,187,1364,657,1364,768,8-29-2022,9-41-7,26,depth_duration_stimuli/003010_2014-06-15_12-54-35_094959634447_rgbf000112-resize_0/003010_2014-06-15_12-54-35_094959634447_rgbf000112-resize_0-target.png,1000,3.1185,8,5892,1009,meters,jsons/v1_VE1000_randls_2_rotated.json,1512848,2250311,47,Man
26,240085,DepthScenes,duration_manipulation_targetAtFixation,jsons/v1_VE1000_randls_2_rotated.json,http://54.235.29.9/FacialAge/BNav_EC2/DepthDuration/v2_depth_duration_MTurk/v2_DepthDuration_HTML.html#187,187,1364,657,1364,768,8-29-2022,9-41-7,27,depth_duration_stimuli/001810_2014-06-26_20-51-35_260595134347_rgbf000040-resize_3/001810_2014-06-26_20-51-35_260595134347_rgbf000040-resize_3-target.png,1000,2.2525,8,7246,1007,meters,jsons/v1_VE1000_randls_2_rotated.json,1512848,2250311,47,Man
27,240085,DepthScenes,duration_manipulation_targetAtFixation,jsons/v1_VE1000_randls_2_rotated.json,http://54.235.29.9/FacialAge/BNav_EC2/DepthDuration/v2_depth_duration_MTurk/v2_DepthDuration_HTML.html#187,187,1364,657,1364,768,8-29-2022,9-41-7,28,depth_duration_stimuli/001100_2014-06-15_17-46-26_260595134347_rgbf000225-resize_2/001100_2014-06-15_17-46-26_260595134347_rgbf000225-resize_2-target.png,1000,2.24,9,6564,1006,meters,jsons/v1_VE1000_randls_2_rotated.json,1512848,2250311,47,Man
28,240085,DepthScenes,duration_manipulation_targetAtFixation,jsons/v1_VE1000_randls_2_rotated.json,http://54.235.29.9/FacialAge/BNav_EC2/DepthDuration/v2_depth_duration_MTurk/v2_DepthDuration_HTML.html#187,187,1364,657,1364,768,8-29-2022,9-41-7,29,depth_duration_stimuli/002784_2014-06-22_19-26-30_094959634447_rgbf000083-resize_3/002784_2014-06-22_19-26-30_094959634447_rgbf000083-resize_3-target.png,1000,1.8046666666667,8,4839,994,meters,jsons/v1_VE1000_randls_2_rotated.json,1512848,2250311,47,Man
29,240085,DepthScenes,duration_manipulation_targetAtFixation,jsons/v1_VE1000_randls_2_rotated.json,http://54.235.29.9/FacialAge/BNav_EC2/DepthDuration/v2_depth_duration_MTurk/v2_DepthDuration_HTML.html#187,187,1364,657,1364,768,8-29-2022,9-41-7,30,depth_duration_stimuli/002072_2014-06-24_21-48-06_260595134347_rgbf000115-resize_0/002072_2014-06-24_21-48-06_260595134347_rgbf000115-resize-original.jpg,1000,4.702,9,7904,1008,meters,jsons/v1_VE1000_randls_2_rotated.json,1512848,2250311,47,Man
30,240085,DepthScenes,duration_manipulation_targetAtFixation,jsons/v1_VE1000_randls_2_rotated.json,http://54.235.29.9/FacialAge/BNav_EC2/DepthDuration/v2_depth_duration_MTurk/v2_DepthDuration_HTML.html#187,187,1364,657,1364,768,8-29-2022,9-41-7,31,depth_duration_stimuli/001392_2014-06-19_16-07-59_260595134347_rgbf000046-resize_1/001392_2014-06-19_16-07-59_260595134347_rgbf000046-resize_1-target.png,1000,4.135,9,8111,1001,meters,jsons/v1_VE1000_randls_2_rotated.json,1512848,2250311,47,Man
31,240085,DepthScenes,duration_manipulation_targetAtFixation,jsons/v1_VE1000_randls_2_rotated.json,http://54.235.29.9/FacialAge/BNav_EC2/DepthDuration/v2_depth_duration_MTurk/v2_DepthDuration_HTML.html#187,187,1364,657,1364,768,8-29-2022,9-41-7,32,depth_duration_stimuli/001570_2014-06-20_17-21-09_260595134347_rgbf000135-resize_4/001570_2014-06-20_17-21-09_260595134347_rgbf000135-resize_4-target.png,1000,4.467,8,3575,1000,meters,jsons/v1_VE1000_randls_2_rotated.json,1512848,2250311,47,Man
32,240085,DepthScenes,duration_manipulation_targetAtFixation,jsons/v1_VE1000_randls_2_rotated.json,http://54.235.29.9/FacialAge/BNav_EC2/DepthDuration/v2_depth_duration_MTurk/v2_DepthDuration_HTML.html#187,187,1364,657,1364,768,8-29-2022,9-41-7,33,depth_duration_stimuli/001052_2014-06-08_18-24-54_260595134347_rgbf000130-resize_1/001052_2014-06-08_18-24-54_260595134347_rgbf000130-resize_1-target.png,1000,4.1045,8,12745,1009,meters,jsons/v1_VE1000_randls_2_rotated.json,1512848,2250311,47,Man
33,240085,DepthScenes,duration_manipulation_targetAtFixation,jsons/v1_VE1000_randls_2_rotated.json,http://54.235.29.9/FacialAge/BNav_EC2/DepthDuration/v2_depth_duration_MTurk/v2_DepthDuration_HTML.html#187,187,1364,657,1364,768,8-29-2022,9-41-7,34,depth_duration_stimuli/002988_2014-06-15_12-24-20_094959634447_rgbf000150-resize_1/002988_2014-06-15_12-24-20_094959634447_rgbf000150-resize_1-target.png,1000,4.7669999999999995,9,6513,1929,meters,jsons/v1_VE1000_randls_2_rotated.json,1512848,2250311,47,Man
34,240085,DepthScenes,duration_manipulation_targetAtFixation,jsons/v1_VE1000_randls_2_rotated.json,http://54.235.29.9/FacialAge/BNav_EC2/DepthDuration/v2_depth_duration_MTurk/v2_DepthDuration_HTML.html#187,187,1364,657,1364,768,8-29-2022,9-41-7,35,depth_duration_stimuli/000665_2014-06-09_20-42-35_260595134347_rgbf000110-resize_1/000665_2014-06-09_20-42-35_260595134347_rgbf000110-resize_1-target.png,1000,3.057,9,6972,1000,meters,jsons/v1_VE1000_randls_2_rotated.json,1512848,2250311,47,Man
35,240085,DepthScenes,duration_manipulation_targetAtFixation,jsons/v1_VE1000_randls_2_rotated.json,http://54.235.29.9/FacialAge/BNav_EC2/DepthDuration/v2_depth_duration_MTurk/v2_DepthDuration_HTML.html#187,187,1364,657,1364,768,8-29-2022,9-41-7,36,depth_duration_stimuli/001150_2014-06-17_15-27-34_260595134347_rgbf000108-resize_2/001150_2014-06-17_15-27-34_260595134347_rgbf000108-resize_2-target.png,1000,4.0325,9,3498,1004,meters,jsons/v1_VE1000_randls_2_rotated.json,1512848,2250311,47,Man
36,240085,DepthScenes,duration_manipulation_targetAtFixation,jsons/v1_VE1000_randls_2_rotated.json,http://54.235.29.9/FacialAge/BNav_EC2/DepthDuration/v2_depth_duration_MTurk/v2_DepthDuration_HTML.html#187,187,1364,657,1364,768,8-29-2022,9-41-7,37,depth_duration_stimuli/000137_2014-05-20_17-04-49_260595134347_rgbf000120-resize_1/000137_2014-05-20_17-04-49_260595134347_rgbf000120-resize_1-target.png,1000,3.786,8,4924,998,meters,jsons/v1_VE1000_randls_2_rotated.json,1512848,2250311,47,Man
37,240085,DepthScenes,duration_manipulation_targetAtFixation,jsons/v1_VE1000_randls_2_rotated.json,http://54.235.29.9/FacialAge/BNav_EC2/DepthDuration/v2_depth_duration_MTurk/v2_DepthDuration_HTML.html#187,187,1364,657,1364,768,8-29-2022,9-41-7,38,depth_duration_stimuli/000736_2014-06-08_18-24-15_260595134347_rgbf000206-resize_3/000736_2014-06-08_18-24-15_260595134347_rgbf000206-resize_3-target.png,1000,3.515,8,3703,1000,meters,jsons/v1_VE1000_randls_2_rotated.json,1512848,2250311,47,Man
38,240085,DepthScenes,duration_manipulation_targetAtFixation,jsons/v1_VE1000_randls_2_rotated.json,http://54.235.29.9/FacialAge/BNav_EC2/DepthDuration/v2_depth_duration_MTurk/v2_DepthDuration_HTML.html#187,187,1364,657,1364,768,8-29-2022,9-41-7,39,depth_duration_stimuli/001235_2014-06-17_16-37-36_260595134347_rgbf000084-resize_4/001235_2014-06-17_16-37-36_260595134347_rgbf000084-resize_4-target.png,1000,3.6605,9,5767,999,meters,jsons/v1_VE1000_randls_2_rotated.json,1512848,2250311,47,Man
39,240085,DepthScenes,duration_manipulation_targetAtFixation,jsons/v1_VE1000_randls_2_rotated.json,http://54.235.29.9/FacialAge/BNav_EC2/DepthDuration/v2_depth_duration_MTurk/v2_DepthDuration_HTML.html#187,187,1364,657,1364,768,8-29-2022,9-41-7,40,depth_duration_stimuli/000788_2014-06-08_22-34-36_260595134347_rgbf000131-resize_1/000788_2014-06-08_22-34-36_260595134347_rgbf000131-resize_1-target.png,1000,3.359,8,135082,1525,meters,jsons/v1_VE1000_randls_2_rotated.json,1512848,2250311,47,Man
40,240085,DepthScenes,duration_manipulation_targetAtFixation,jsons/v1_VE1000_randls_2_rotated.json,http://54.235.29.9/FacialAge/BNav_EC2/DepthDuration/v2_depth_duration_MTurk/v2_DepthDuration_HTML.html#187,187,1364,657,1364,768,8-29-2022,9-41-7,41,depth_duration_stimuli/002995_2014-06-15_12-31-26_094959634447_rgbf000150-resize_1/002995_2014-06-15_12-31-26_094959634447_rgbf000150-resize_1-target.png,1000,3.8360000000000003,8,14818,1947,meters,jsons/v1_VE1000_randls_2_rotated.json,1512848,2250311,47,Man
41,240085,DepthScenes,duration_manipulation_targetAtFixation,jsons/v1_VE1000_randls_2_rotated.json,http://54.235.29.9/FacialAge/BNav_EC2/DepthDuration/v2_depth_duration_MTurk/v2_DepthDuration_HTML.html#187,187,1364,657,1364,768,8-29-2022,9-41-7,42,depth_duration_stimuli/002748_2014-06-22_19-07-22_094959634447_rgbf000078-resize_1/002748_2014-06-22_19-07-22_094959634447_rgbf000078-resize_1-target.png,1000,4.6705,9,6085,1004,meters,jsons/v1_VE1000_randls_2_rotated.json,1512848,2250311,47,Man
42,240085,DepthScenes,duration_manipulation_targetAtFixation,jsons/v1_VE1000_randls_2_rotated.json,http://54.235.29.9/FacialAge/BNav_EC2/DepthDuration/v2_depth_duration_MTurk/v2_DepthDuration_HTML.html#187,187,1364,657,1364,768,8-29-2022,9-41-7,43,depth_duration_stimuli/000854_2014-06-09_19-43-13_260595134347_rgbf000066-resize_0/000854_2014-06-09_19-43-13_260595134347_rgbf000066-resize_0-target.png,1000,3.068,9,8915,999,meters,jsons/v1_VE1000_randls_2_rotated.json,1512848,2250311,47,Man
43,240085,DepthScenes,duration_manipulation_targetAtFixation,jsons/v1_VE1000_randls_2_rotated.json,http://54.235.29.9/FacialAge/BNav_EC2/DepthDuration/v2_depth_duration_MTurk/v2_DepthDuration_HTML.html#187,187,1364,657,1364,768,8-29-2022,9-41-7,44,depth_duration_stimuli/000758_2014-06-08_22-05-08_260595134347_rgbf000085-resize_0/000758_2014-06-08_22-05-08_260595134347_rgbf000085-resize_0-target.png,1000,3.3810000000000002,8,4583,1000,meters,jsons/v1_VE1000_randls_2_rotated.json,1512848,2250311,47,Man
44,240085,DepthScenes,duration_manipulation_targetAtFixation,jsons/v1_VE1000_randls_2_rotated.json,http://54.235.29.9/FacialAge/BNav_EC2/DepthDuration/v2_depth_duration_MTurk/v2_DepthDuration_HTML.html#187,187,1364,657,1364,768,8-29-2022,9-41-7,45,depth_duration_stimuli/001584_2014-06-20_11-07-43_260595134347_rgbf000002-resize_1/001584_2014-06-20_11-07-43_260595134347_rgbf000002-resize_1-target.png,1000,3.53,9,5127,987,meters,jsons/v1_VE1000_randls_2_rotated.json,1512848,2250311,47,Man
45,240085,DepthScenes,duration_manipulation_targetAtFixation,jsons/v1_VE1000_randls_2_rotated.json,http://54.235.29.9/FacialAge/BNav_EC2/DepthDuration/v2_depth_duration_MTurk/v2_DepthDuration_HTML.html#187,187,1364,657,1364,768,8-29-2022,9-41-7,46,depth_duration_stimuli/003621_2014-05-23_18-06-08_094959634447_rgbf000101-resize_1/003621_2014-05-23_18-06-08_094959634447_rgbf000101-resize_1-target.png,1000,3.9835,8,4476,1002,meters,jsons/v1_VE1000_randls_2_rotated.json,1512848,2250311,47,Man
46,240085,DepthScenes,duration_manipulation_targetAtFixation,jsons/v1_VE1000_randls_2_rotated.json,http://54.235.29.9/FacialAge/BNav_EC2/DepthDuration/v2_depth_duration_MTurk/v2_DepthDuration_HTML.html#187,187,1364,657,1364,768,8-29-2022,9-41-7,47,depth_duration_stimuli/000409_2014-06-04_19-23-33_260595134347_rgbf000067-resize_0/000409_2014-06-04_19-23-33_260595134347_rgbf000067-resize_0-target.png,1000,3.7335,8,6679,994,meters,jsons/v1_VE1000_randls_2_rotated.json,1512848,2250311,47,Man
47,240085,DepthScenes,duration_manipulation_targetAtFixation,jsons/v1_VE1000_randls_2_rotated.json,http://54.235.29.9/FacialAge/BNav_EC2/DepthDuration/v2_depth_duration_MTurk/v2_DepthDuration_HTML.html#187,187,1364,657,1364,768,8-29-2022,9-41-7,48,depth_duration_stimuli/002663_2014-06-13_15-50-26_094959634447_rgbf000075-resize_1/002663_2014-06-13_15-50-26_094959634447_rgbf000075-resize_1-target.png,1000,4.7495,9,5710,1003,meters,jsons/v1_VE1000_randls_2_rotated.json,1512848,2250311,47,Man
48,240085,DepthScenes,duration_manipulation_targetAtFixation,jsons/v1_VE1000_randls_2_rotated.json,http://54.235.29.9/FacialAge/BNav_EC2/DepthDuration/v2_depth_duration_MTurk/v2_DepthDuration_HTML.html#187,187,1364,657,1364,768,8-29-2022,9-41-7,49,depth_duration_stimuli/001170_2014-06-17_15-43-44_260595134347_rgbf000096-resize_6/001170_2014-06-17_15-43-44_260595134347_rgbf000096-resize-original.jpg,1000,1.1909999999999998,9,4861,999,meters,jsons/v1_VE1000_randls_2_rotated.json,1512848,2250311,47,Man
49,240085,DepthScenes,duration_manipulation_targetAtFixation,jsons/v1_VE1000_randls_2_rotated.json,http://54.235.29.9/FacialAge/BNav_EC2/DepthDuration/v2_depth_duration_MTurk/v2_DepthDuration_HTML.html#187,187,1364,657,1364,768,8-29-2022,9-41-7,50,depth_duration_stimuli/003079_2014-06-15_15-18-20_094959634447_rgbf000152-resize_8/003079_2014-06-15_15-18-20_094959634447_rgbf000152-resize_8-target.png,1000,2.8775,9,5495,1000,meters,jsons/v1_VE1000_randls_2_rotated.json,1512848,2250311,47,Man
50,240085,DepthScenes,duration_manipulation_targetAtFixation,jsons/v1_VE1000_randls_2_rotated.json,http://54.235.29.9/FacialAge/BNav_EC2/DepthDuration/v2_depth_duration_MTurk/v2_DepthDuration_HTML.html#187,187,1364,657,1364,768,8-29-2022,9-41-7,51,depth_duration_stimuli/000506_2014-06-08_23-21-00_260595134347_rgbf000070-resize_7/000506_2014-06-08_23-21-00_260595134347_rgbf000070-resize_7-target.png,1000,4.0585,9,3499,994,meters,jsons/v1_VE1000_randls_2_rotated.json,1512848,2250311,47,Man
51,240085,DepthScenes,duration_manipulation_targetAtFixation,jsons/v1_VE1000_randls_2_rotated.json,http://54.235.29.9/FacialAge/BNav_EC2/DepthDuration/v2_depth_duration_MTurk/v2_DepthDuration_HTML.html#187,187,1364,657,1364,768,8-29-2022,9-41-7,52,depth_duration_stimuli/001617_2014-06-20_11-35-32_260595134347_rgbf000066-resize_1/001617_2014-06-20_11-35-32_260595134347_rgbf000066-resize_1-target.png,1000,3.7910000000000004,9,5220,1104,meters,jsons/v1_VE1000_randls_2_rotated.json,1512848,2250311,47,Man
52,240085,DepthScenes,duration_manipulation_targetAtFixation,jsons/v1_VE1000_randls_2_rotated.json,http://54.235.29.9/FacialAge/BNav_EC2/DepthDuration/v2_depth_duration_MTurk/v2_DepthDuration_HTML.html#187,187,1364,657,1364,768,8-29-2022,9-41-7,53,depth_duration_stimuli/001806_2014-06-26_20-50-20_260595134347_rgbf000091-resize_1/001806_2014-06-26_20-50-20_260595134347_rgbf000091-resize_1-target.png,1000,2.7305,9,44415,1003,meters,jsons/v1_VE1000_randls_2_rotated.json,1512848,2250311,47,Man
53,240085,DepthScenes,duration_manipulation_targetAtFixation,jsons/v1_VE1000_randls_2_rotated.json,http://54.235.29.9/FacialAge/BNav_EC2/DepthDuration/v2_depth_duration_MTurk/v2_DepthDuration_HTML.html#187,187,1364,657,1364,768,8-29-2022,9-41-7,54,depth_duration_stimuli/000709_2014-06-08_13-51-55_260595134347_rgbf000068-resize_3/000709_2014-06-08_13-51-55_260595134347_rgbf000068-resize_3-target.png,1000,1.8030000000000002,9,14941,1460,meters,jsons/v1_VE1000_randls_2_rotated.json,1512848,2250311,47,Man
54,240085,DepthScenes,duration_manipulation_targetAtFixation,jsons/v1_VE1000_randls_2_rotated.json,http://54.235.29.9/FacialAge/BNav_EC2/DepthDuration/v2_depth_duration_MTurk/v2_DepthDuration_HTML.html#187,187,1364,657,1364,768,8-29-2022,9-41-7,55,depth_duration_stimuli/002057_2014-06-24_21-00-13_260595134347_rgbf000120-resize_1/002057_2014-06-24_21-00-13_260595134347_rgbf000120-resize_1-target.png,1000,2.967,7,7222,992,meters,jsons/v1_VE1000_randls_2_rotated.json,1512848,2250311,47,Man
55,240085,DepthScenes,duration_manipulation_targetAtFixation,jsons/v1_VE1000_randls_2_rotated.json,http://54.235.29.9/FacialAge/BNav_EC2/DepthDuration/v2_depth_duration_MTurk/v2_DepthDuration_HTML.html#187,187,1364,657,1364,768,8-29-2022,9-41-7,56,depth_duration_stimuli/001032_2014-06-08_13-23-17_260595134347_rgbf000021-resize_3/001032_2014-06-08_13-23-17_260595134347_rgbf000021-resize_3-target.png,1000,3.2725,8,7703,988,meters,jsons/v1_VE1000_randls_2_rotated.json,1512848,2250311,47,Man
56,240085,DepthScenes,duration_manipulation_targetAtFixation,jsons/v1_VE1000_randls_2_rotated.json,http://54.235.29.9/FacialAge/BNav_EC2/DepthDuration/v2_depth_duration_MTurk/v2_DepthDuration_HTML.html#187,187,1364,657,1364,768,8-29-2022,9-41-7,57,depth_duration_stimuli/001059_2014-06-08_21-53-27_260595134347_rgbf000061-resize_4/001059_2014-06-08_21-53-27_260595134347_rgbf000061-resize_4-target.png,1000,2.4185,8,3657,1005,meters,jsons/v1_VE1000_randls_2_rotated.json,1512848,2250311,47,Man
57,240085,DepthScenes,duration_manipulation_targetAtFixation,jsons/v1_VE1000_randls_2_rotated.json,http://54.235.29.9/FacialAge/BNav_EC2/DepthDuration/v2_depth_duration_MTurk/v2_DepthDuration_HTML.html#187,187,1364,657,1364,768,8-29-2022,9-41-7,58,depth_duration_stimuli/001094_2014-06-15_17-36-00_260595134347_rgbf000205-resize_0/001094_2014-06-15_17-36-00_260595134347_rgbf000205-resize_0-target.png,1000,4.2175,8,6454,998,meters,jsons/v1_VE1000_randls_2_rotated.json,1512848,2250311,47,Man
58,240085,DepthScenes,duration_manipulation_targetAtFixation,jsons/v1_VE1000_randls_2_rotated.json,http://54.235.29.9/FacialAge/BNav_EC2/DepthDuration/v2_depth_duration_MTurk/v2_DepthDuration_HTML.html#187,187,1364,657,1364,768,8-29-2022,9-41-7,59,depth_duration_stimuli/000692_2014-06-08_13-09-42_260595134347_rgbf000199-resize_2/000692_2014-06-08_13-09-42_260595134347_rgbf000199-resize_2-target.png,1000,3.661,9,7447,1005,meters,jsons/v1_VE1000_randls_2_rotated.json,1512848,2250311,47,Man
59,240085,DepthScenes,duration_manipulation_targetAtFixation,jsons/v1_VE1000_randls_2_rotated.json,http://54.235.29.9/FacialAge/BNav_EC2/DepthDuration/v2_depth_duration_MTurk/v2_DepthDuration_HTML.html#187,187,1364,657,1364,768,8-29-2022,9-41-7,60,depth_duration_stimuli/002344_2014-06-28_20-06-29_260595134347_rgbf000030-resize_1/002344_2014-06-28_20-06-29_260595134347_rgbf000030-resize_1-target.png,1000,1.5795,8,37370,1147,meters,jsons/v1_VE1000_randls_2_rotated.json,1512848,2250311,47,Man
60,240085,DepthScenes,duration_manipulation_targetAtFixation,jsons/v1_VE1000_randls_2_rotated.json,http://54.235.29.9/FacialAge/BNav_EC2/DepthDuration/v2_depth_duration_MTurk/v2_DepthDuration_HTML.html#187,187,1364,657,1364,768,8-29-2022,9-41-7,61,depth_duration_stimuli/002725_2014-06-22_11-47-51_094959634447_rgbf000070-resize_1/002725_2014-06-22_11-47-51_094959634447_rgbf000070-resize_1-target.png,1000,2.195,9,6340,998,meters,jsons/v1_VE1000_randls_2_rotated.json,1512848,2250311,47,Man
61,240085,DepthScenes,duration_manipulation_targetAtFixation,jsons/v1_VE1000_randls_2_rotated.json,http://54.235.29.9/FacialAge/BNav_EC2/DepthDuration/v2_depth_duration_MTurk/v2_DepthDuration_HTML.html#187,187,1364,657,1364,768,8-29-2022,9-41-7,62,depth_duration_stimuli/000635_2014-06-08_16-38-42_260595134347_rgbf000106-resize_1/000635_2014-06-08_16-38-42_260595134347_rgbf000106-resize_1-target.png,1000,2.074,9,5667,1011,meters,jsons/v1_VE1000_randls_2_rotated.json,1512848,2250311,47,Man
62,240085,DepthScenes,duration_manipulation_targetAtFixation,jsons/v1_VE1000_randls_2_rotated.json,http://54.235.29.9/FacialAge/BNav_EC2/DepthDuration/v2_depth_duration_MTurk/v2_DepthDuration_HTML.html#187,187,1364,657,1364,768,8-29-2022,9-41-7,63,depth_duration_stimuli/002279_2014-06-28_18-55-32_260595134347_rgbf000040-resize_5/002279_2014-06-28_18-55-32_260595134347_rgbf000040-resize_5-target.png,1000,1.5043333333333,9,3564,990,meters,jsons/v1_VE1000_randls_2_rotated.json,1512848,2250311,47,Man
63,240085,DepthScenes,duration_manipulation_targetAtFixation,jsons/v1_VE1000_randls_2_rotated.json,http://54.235.29.9/FacialAge/BNav_EC2/DepthDuration/v2_depth_duration_MTurk/v2_DepthDuration_HTML.html#187,187,1364,657,1364,768,8-29-2022,9-41-7,64,depth_duration_stimuli/001828_2014-06-26_21-40-03_260595134347_rgbf000024-resize_0/001828_2014-06-26_21-40-03_260595134347_rgbf000024-resize_0-target.png,1000,4.8260000000000005,9,5587,999,meters,jsons/v1_VE1000_randls_2_rotated.json,1512848,2250311,47,Man
64,240085,DepthScenes,duration_manipulation_targetAtFixation,jsons/v1_VE1000_randls_2_rotated.json,http://54.235.29.9/FacialAge/BNav_EC2/DepthDuration/v2_depth_duration_MTurk/v2_DepthDuration_HTML.html#187,187,1364,657,1364,768,8-29-2022,9-41-7,65,depth_duration_stimuli/000009_2014-05-26_14-32-05_260595134347_rgbf000034-resize_3/000009_2014-05-26_14-32-05_260595134347_rgbf000034-resize_3-target.png,1000,3.8715,8,4187,998,meters,jsons/v1_VE1000_randls_2_rotated.json,1512848,2250311,47,Man
65,240085,DepthScenes,duration_manipulation_targetAtFixation,jsons/v1_VE1000_randls_2_rotated.json,http://54.235.29.9/FacialAge/BNav_EC2/DepthDuration/v2_depth_duration_MTurk/v2_DepthDuration_HTML.html#187,187,1364,657,1364,768,8-29-2022,9-41-7,66,depth_duration_stimuli/001540_2014-06-20_17-01-05_260595134347_rgbf000086-resize_2/001540_2014-06-20_17-01-05_260595134347_rgbf000086-resize-original.jpg,1000,1.459,9,5672,1011,meters,jsons/v1_VE1000_randls_2_rotated.json,1512848,2250311,47,Man
66,240085,DepthScenes,duration_manipulation_targetAtFixation,jsons/v1_VE1000_randls_2_rotated.json,http://54.235.29.9/FacialAge/BNav_EC2/DepthDuration/v2_depth_duration_MTurk/v2_DepthDuration_HTML.html#187,187,1364,657,1364,768,8-29-2022,9-41-7,67,depth_duration_stimuli/003228_2014-05-14_13-42-35_094959634447_rgbf000101-resize_1/003228_2014-05-14_13-42-35_094959634447_rgbf000101-resize_1-target.png,1000,1.9680000000000002,8,6366,1010,meters,jsons/v1_VE1000_randls_2_rotated.json,1512848,2250311,47,Man
67,240085,DepthScenes,duration_manipulation_targetAtFixation,jsons/v1_VE1000_randls_2_rotated.json,http://54.235.29.9/FacialAge/BNav_EC2/DepthDuration/v2_depth_duration_MTurk/v2_DepthDuration_HTML.html#187,187,1364,657,1364,768,8-29-2022,9-41-7,68,depth_duration_stimuli/002600_2014-06-24_14-27-04_094959634447_rgbf000074-resize_2/002600_2014-06-24_14-27-04_094959634447_rgbf000074-resize_2-target.png,1000,2.7575,8,3617,997,meters,jsons/v1_VE1000_randls_2_rotated.json,1512848,2250311,47,Man
68,240085,DepthScenes,duration_manipulation_targetAtFixation,jsons/v1_VE1000_randls_2_rotated.json,http://54.235.29.9/FacialAge/BNav_EC2/DepthDuration/v2_depth_duration_MTurk/v2_DepthDuration_HTML.html#187,187,1364,657,1364,768,8-29-2022,9-41-7,69,depth_duration_stimuli/003490_2014-05-21_15-50-11_094959634447_rgbf000101-resize_3/003490_2014-05-21_15-50-11_094959634447_rgbf000101-resize_3-target.png,1000,3.6445,9,4427,1002,meters,jsons/v1_VE1000_randls_2_rotated.json,1512848,2250311,47,Man
69,240085,DepthScenes,duration_manipulation_targetAtFixation,jsons/v1_VE1000_randls_2_rotated.json,http://54.235.29.9/FacialAge/BNav_EC2/DepthDuration/v2_depth_duration_MTurk/v2_DepthDuration_HTML.html#187,187,1364,657,1364,768,8-29-2022,9-41-7,70,depth_duration_stimuli/001175_2014-06-17_15-45-55_260595134347_rgbf000129-resize_4/001175_2014-06-17_15-45-55_260595134347_rgbf000129-resize_4-target.png,1000,4.255,8,3227,1015,meters,jsons/v1_VE1000_randls_2_rotated.json,1512848,2250311,47,Man
70,240085,DepthScenes,duration_manipulation_targetAtFixation,jsons/v1_VE1000_randls_2_rotated.json,http://54.235.29.9/FacialAge/BNav_EC2/DepthDuration/v2_depth_duration_MTurk/v2_DepthDuration_HTML.html#187,187,1364,657,1364,768,8-29-2022,9-41-7,71,depth_duration_stimuli/000749_2014-06-08_21-55-06_260595134347_rgbf000070-resize_2/000749_2014-06-08_21-55-06_260595134347_rgbf000070-resize_2-target.png,1000,2.331,9,4657,1001,meters,jsons/v1_VE1000_randls_2_rotated.json,1512848,2250311,47,Man
71,240085,DepthScenes,duration_manipulation_targetAtFixation,jsons/v1_VE1000_randls_2_rotated.json,http://54.235.29.9/FacialAge/BNav_EC2/DepthDuration/v2_depth_duration_MTurk/v2_DepthDuration_HTML.html#187,187,1364,657,1364,768,8-29-2022,9-41-7,72,depth_duration_stimuli/002788_2014-06-22_19-36-03_094959634447_rgbf000088-resize_2/002788_2014-06-22_19-36-03_094959634447_rgbf000088-resize_2-target.png,1000,1.6465,9,3207,984,meters,jsons/v1_VE1000_randls_2_rotated.json,1512848,2250311,47,Man
72,240085,DepthScenes,duration_manipulation_targetAtFixation,jsons/v1_VE1000_randls_2_rotated.json,http://54.235.29.9/FacialAge/BNav_EC2/DepthDuration/v2_depth_duration_MTurk/v2_DepthDuration_HTML.html#187,187,1364,657,1364,768,8-29-2022,9-41-7,73,depth_duration_stimuli/002199_2014-06-28_18-33-56_260595134347_rgbf000074-resize_0/002199_2014-06-28_18-33-56_260595134347_rgbf000074-resize_0-target.png,1000,1.996,8,6274,998,meters,jsons/v1_VE1000_randls_2_rotated.json,1512848,2250311,47,Man
73,240085,DepthScenes,duration_manipulation_targetAtFixation,jsons/v1_VE1000_randls_2_rotated.json,http://54.235.29.9/FacialAge/BNav_EC2/DepthDuration/v2_depth_duration_MTurk/v2_DepthDuration_HTML.html#187,187,1364,657,1364,768,8-29-2022,9-41-7,74,depth_duration_stimuli/001056_2014-06-08_18-46-44_260595134347_rgbf000068-resize_0/001056_2014-06-08_18-46-44_260595134347_rgbf000068-resize_0-target.png,1000,2.6625,9,14743,1749,meters,jsons/v1_VE1000_randls_2_rotated.json,1512848,2250311,47,Man
74,240085,DepthScenes,duration_manipulation_targetAtFixation,jsons/v1_VE1000_randls_2_rotated.json,http://54.235.29.9/FacialAge/BNav_EC2/DepthDuration/v2_depth_duration_MTurk/v2_DepthDuration_HTML.html#187,187,1364,657,1364,768,8-29-2022,9-41-7,75,depth_duration_stimuli/001571_2014-06-20_17-21-32_260595134347_rgbf000089-resize_1/001571_2014-06-20_17-21-32_260595134347_rgbf000089-resize_1-target.png,1000,1.86,9,4605,998,meters,jsons/v1_VE1000_randls_2_rotated.json,1512848,2250311,47,Man
75,240085,DepthScenes,duration_manipulation_targetAtFixation,jsons/v1_VE1000_randls_2_rotated.json,http://54.235.29.9/FacialAge/BNav_EC2/DepthDuration/v2_depth_duration_MTurk/v2_DepthDuration_HTML.html#187,187,1364,657,1364,768,8-29-2022,9-41-7,76,depth_duration_stimuli/002272_2014-06-28_18-53-56_260595134347_rgbf000067-resize_2/002272_2014-06-28_18-53-56_260595134347_rgbf000067-resize_2-target.png,1000,1.138,8,4161,1000,meters,jsons/v1_VE1000_randls_2_rotated.json,1512848,2250311,47,Man
76,240085,DepthScenes,duration_manipulation_targetAtFixation,jsons/v1_VE1000_randls_2_rotated.json,http://54.235.29.9/FacialAge/BNav_EC2/DepthDuration/v2_depth_duration_MTurk/v2_DepthDuration_HTML.html#187,187,1364,657,1364,768,8-29-2022,9-41-7,77,depth_duration_stimuli/003587_2014-05-23_16-48-02_094959634447_rgbf002384-resize_2/003587_2014-05-23_16-48-02_094959634447_rgbf002384-resize_2-target.png,1000,1.357,9,5822,995,meters,jsons/v1_VE1000_randls_2_rotated.json,1512848,2250311,47,Man
77,240085,DepthScenes,duration_manipulation_targetAtFixation,jsons/v1_VE1000_randls_2_rotated.json,http://54.235.29.9/FacialAge/BNav_EC2/DepthDuration/v2_depth_duration_MTurk/v2_DepthDuration_HTML.html#187,187,1364,657,1364,768,8-29-2022,9-41-7,78,depth_duration_stimuli/001167_2014-06-17_15-38-07_260595134347_rgbf000108-resize_0/001167_2014-06-17_15-38-07_260595134347_rgbf000108-resize_0-target.png,1000,1.8505,9,4940,993,meters,jsons/v1_VE1000_randls_2_rotated.json,1512848,2250311,47,Man
78,240085,DepthScenes,duration_manipulation_targetAtFixation,jsons/v1_VE1000_randls_2_rotated.json,http://54.235.29.9/FacialAge/BNav_EC2/DepthDuration/v2_depth_duration_MTurk/v2_DepthDuration_HTML.html#187,187,1364,657,1364,768,8-29-2022,9-41-7,79,depth_duration_stimuli/001650_2014-06-20_12-09-00_260595134347_rgbf000087-resize_3/001650_2014-06-20_12-09-00_260595134347_rgbf000087-resize_3-target.png,1000,1.9505,9,4429,988,meters,jsons/v1_VE1000_randls_2_rotated.json,1512848,2250311,47,Man
79,240085,DepthScenes,duration_manipulation_targetAtFixation,jsons/v1_VE1000_randls_2_rotated.json,http://54.235.29.9/FacialAge/BNav_EC2/DepthDuration/v2_depth_duration_MTurk/v2_DepthDuration_HTML.html#187,187,1364,657,1364,768,8-29-2022,9-41-7,80,depth_duration_stimuli/000682_2014-06-08_23-14-58_260595134347_rgbf000041-resize_5/000682_2014-06-08_23-14-58_260595134347_rgbf000041-resize_5-target.png,1000,2.7239999999999998,8,5514,997,meters,jsons/v1_VE1000_randls_2_rotated.json,1512848,2250311,47,Man
80,240085,DepthScenes,duration_manipulation_targetAtFixation,jsons/v1_VE1000_randls_2_rotated.json,http://54.235.29.9/FacialAge/BNav_EC2/DepthDuration/v2_depth_duration_MTurk/v2_DepthDuration_HTML.html#187,187,1364,657,1364,768,8-29-2022,9-41-7,81,depth_duration_stimuli/002323_2014-06-28_20-01-54_260595134347_rgbf000051-resize_4/002323_2014-06-28_20-01-54_260595134347_rgbf000051-resize_4-target.png,1000,3.7310000000000003,9,4775,1011,meters,jsons/v1_VE1000_randls_2_rotated.json,1512848,2250311,47,Man
81,240085,DepthScenes,duration_manipulation_targetAtFixation,jsons/v1_VE1000_randls_2_rotated.json,http://54.235.29.9/FacialAge/BNav_EC2/DepthDuration/v2_depth_duration_MTurk/v2_DepthDuration_HTML.html#187,187,1364,657,1364,768,8-29-2022,9-41-7,82,depth_duration_stimuli/000917_2014-06-09_22-45-29_260595134347_rgbf000149-resize_3/000917_2014-06-09_22-45-29_260595134347_rgbf000149-resize_3-target.png,1000,4.1865,8,3435,997,meters,jsons/v1_VE1000_randls_2_rotated.json,1512848,2250311,47,Man
82,240085,DepthScenes,duration_manipulation_targetAtFixation,jsons/v1_VE1000_randls_2_rotated.json,http://54.235.29.9/FacialAge/BNav_EC2/DepthDuration/v2_depth_duration_MTurk/v2_DepthDuration_HTML.html#187,187,1364,657,1364,768,8-29-2022,9-41-7,83,depth_duration_stimuli/001447_2014-06-19_17-00-32_260595134347_rgbf000082-resize_5/001447_2014-06-19_17-00-32_260595134347_rgbf000082-resize_5-target.png,1000,4.13775,8,4176,999,meters,jsons/v1_VE1000_randls_2_rotated.json,1512848,2250311,47,Man
83,240085,DepthScenes,duration_manipulation_targetAtFixation,jsons/v1_VE1000_randls_2_rotated.json,http://54.235.29.9/FacialAge/BNav_EC2/DepthDuration/v2_depth_duration_MTurk/v2_DepthDuration_HTML.html#187,187,1364,657,1364,768,8-29-2022,9-41-7,84,depth_duration_stimuli/000447_2014-06-08_16-15-46_260595134347_rgbf000130-resize_1/000447_2014-06-08_16-15-46_260595134347_rgbf000130-resize_1-target.png,1000,4.479,9,3679,1005,meters,jsons/v1_VE1000_randls_2_rotated.json,1512848,2250311,47,Man
84,240085,DepthScenes,duration_manipulation_targetAtFixation,jsons/v1_VE1000_randls_2_rotated.json,http://54.235.29.9/FacialAge/BNav_EC2/DepthDuration/v2_depth_duration_MTurk/v2_DepthDuration_HTML.html#187,187,1364,657,1364,768,8-29-2022,9-41-7,85,depth_duration_stimuli/002425_2014-06-28_20-27-29_260595134347_rgbf000031-resize_8/002425_2014-06-28_20-27-29_260595134347_rgbf000031-resize_8-target.png,1000,3.8960000000000004,9,15724,992,meters,jsons/v1_VE1000_randls_2_rotated.json,1512848,2250311,47,Man
85,240085,DepthScenes,duration_manipulation_targetAtFixation,jsons/v1_VE1000_randls_2_rotated.json,http://54.235.29.9/FacialAge/BNav_EC2/DepthDuration/v2_depth_duration_MTurk/v2_DepthDuration_HTML.html#187,187,1364,657,1364,768,8-29-2022,9-41-7,86,depth_duration_stimuli/000642_2014-06-08_16-59-25_260595134347_rgbf000098-resize_2/000642_2014-06-08_16-59-25_260595134347_rgbf000098-resize_2-target.png,1000,2.8815,9,19410,1003,meters,jsons/v1_VE1000_randls_2_rotated.json,1512848,2250311,47,Man
86,240085,DepthScenes,duration_manipulation_targetAtFixation,jsons/v1_VE1000_randls_2_rotated.json,http://54.235.29.9/FacialAge/BNav_EC2/DepthDuration/v2_depth_duration_MTurk/v2_DepthDuration_HTML.html#187,187,1364,657,1364,768,8-29-2022,9-41-7,87,depth_duration_stimuli/000103_2014-05-14_22-01-17_260595134347_rgbf000152-resize_5/000103_2014-05-14_22-01-17_260595134347_rgbf000152-resize_5-target.png,1000,1.993,9,5842,1000,meters,jsons/v1_VE1000_randls_2_rotated.json,1512848,2250311,47,Man
87,240085,DepthScenes,duration_manipulation_targetAtFixation,jsons/v1_VE1000_randls_2_rotated.json,http://54.235.29.9/FacialAge/BNav_EC2/DepthDuration/v2_depth_duration_MTurk/v2_DepthDuration_HTML.html#187,187,1364,657,1364,768,8-29-2022,9-41-7,88,depth_duration_stimuli/001555_2014-06-20_17-12-10_260595134347_rgbf000065-resize_4/001555_2014-06-20_17-12-10_260595134347_rgbf000065-resize_4-target.png,1000,1.633,7,3815,999,meters,jsons/v1_VE1000_randls_2_rotated.json,1512848,2250311,47,Man
88,240085,DepthScenes,duration_manipulation_targetAtFixation,jsons/v1_VE1000_randls_2_rotated.json,http://54.235.29.9/FacialAge/BNav_EC2/DepthDuration/v2_depth_duration_MTurk/v2_DepthDuration_HTML.html#187,187,1364,657,1364,768,8-29-2022,9-41-7,89,depth_duration_stimuli/003048_2014-06-15_13-49-43_094959634447_rgbf000150-resize_1/003048_2014-06-15_13-49-43_094959634447_rgbf000150-resize_1-target.png,1000,4.0035,8,4526,999,meters,jsons/v1_VE1000_randls_2_rotated.json,1512848,2250311,47,Man
89,240085,DepthScenes,duration_manipulation_targetAtFixation,jsons/v1_VE1000_randls_2_rotated.json,http://54.235.29.9/FacialAge/BNav_EC2/DepthDuration/v2_depth_duration_MTurk/v2_DepthDuration_HTML.html#187,187,1364,657,1364,768,8-29-2022,9-41-7,90,depth_duration_stimuli/002043_2014-06-24_20-29-38_260595134347_rgbf000039-resize_4/002043_2014-06-24_20-29-38_260595134347_rgbf000039-resize_4-target.png,1000,2.8435,9,3487,994,meters,jsons/v1_VE1000_randls_2_rotated.json,1512848,2250311,47,Man
90,240085,DepthScenes,duration_manipulation_targetAtFixation,jsons/v1_VE1000_randls_2_rotated.json,http://54.235.29.9/FacialAge/BNav_EC2/DepthDuration/v2_depth_duration_MTurk/v2_DepthDuration_HTML.html#187,187,1364,657,1364,768,8-29-2022,9-41-7,91,depth_duration_stimuli/002758_2014-06-22_19-11-20_094959634447_rgbf000128-resize_1/002758_2014-06-22_19-11-20_094959634447_rgbf000128-resize_1-target.png,1000,2.555,9,3835,997,meters,jsons/v1_VE1000_randls_2_rotated.json,1512848,2250311,47,Man
91,240085,DepthScenes,duration_manipulation_targetAtFixation,jsons/v1_VE1000_randls_2_rotated.json,http://54.235.29.9/FacialAge/BNav_EC2/DepthDuration/v2_depth_duration_MTurk/v2_DepthDuration_HTML.html#187,187,1364,657,1364,768,8-29-2022,9-41-7,92,depth_duration_stimuli/002630_2014-06-24_14-47-50_094959634447_rgbf000055-resize_1/002630_2014-06-24_14-47-50_094959634447_rgbf000055-resize_1-target.png,1000,3.0095,9,3065,989,meters,jsons/v1_VE1000_randls_2_rotated.json,1512848,2250311,47,Man
92,240085,DepthScenes,duration_manipulation_targetAtFixation,jsons/v1_VE1000_randls_2_rotated.json,http://54.235.29.9/FacialAge/BNav_EC2/DepthDuration/v2_depth_duration_MTurk/v2_DepthDuration_HTML.html#187,187,1364,657,1364,768,8-29-2022,9-41-7,93,depth_duration_stimuli/003495_2014-05-21_16-01-51_094959634447_rgbf000100-resize_3/003495_2014-05-21_16-01-51_094959634447_rgbf000100-resize_3-target.png,1000,1.6255,8,3799,1009,meters,jsons/v1_VE1000_randls_2_rotated.json,1512848,2250311,47,Man
93,240085,DepthScenes,duration_manipulation_targetAtFixation,jsons/v1_VE1000_randls_2_rotated.json,http://54.235.29.9/FacialAge/BNav_EC2/DepthDuration/v2_depth_duration_MTurk/v2_DepthDuration_HTML.html#187,187,1364,657,1364,768,8-29-2022,9-41-7,94,depth_duration_stimuli/001244_2014-06-17_16-47-45_260595134347_rgbf000030-resize_4/001244_2014-06-17_16-47-45_260595134347_rgbf000030-resize_4-target.png,1000,2.0425,8,3007,1000,meters,jsons/v1_VE1000_randls_2_rotated.json,1512848,2250311,47,Man
94,240085,DepthScenes,duration_manipulation_targetAtFixation,jsons/v1_VE1000_randls_2_rotated.json,http://54.235.29.9/FacialAge/BNav_EC2/DepthDuration/v2_depth_duration_MTurk/v2_DepthDuration_HTML.html#187,187,1364,657,1364,768,8-29-2022,9-41-7,95,depth_duration_stimuli/002639_2014-06-24_14-51-37_094959634447_rgbf000074-resize_4/002639_2014-06-24_14-51-37_094959634447_rgbf000074-resize_4-target.png,1000,4.0375,9,4125,989,meters,jsons/v1_VE1000_randls_2_rotated.json,1512848,2250311,47,Man
95,240085,DepthScenes,duration_manipulation_targetAtFixation,jsons/v1_VE1000_randls_2_rotated.json,http://54.235.29.9/FacialAge/BNav_EC2/DepthDuration/v2_depth_duration_MTurk/v2_DepthDuration_HTML.html#187,187,1364,657,1364,768,8-29-2022,9-41-7,96,depth_duration_stimuli/003292_2014-05-14_21-53-49_094959634447_rgbf000100-resize_2/003292_2014-05-14_21-53-49_094959634447_rgbf000100-resize_2-target.png,1000,3.4815,8,3131,1000,meters,jsons/v1_VE1000_randls_2_rotated.json,1512848,2250311,47,Man
96,240085,DepthScenes,duration_manipulation_targetAtFixation,jsons/v1_VE1000_randls_2_rotated.json,http://54.235.29.9/FacialAge/BNav_EC2/DepthDuration/v2_depth_duration_MTurk/v2_DepthDuration_HTML.html#187,187,1364,657,1364,768,8-29-2022,9-41-7,97,depth_duration_stimuli/000457_2014-06-08_16-52-43_260595134347_rgbf000199-resize_1/000457_2014-06-08_16-52-43_260595134347_rgbf000199-resize_1-target.png,1000,3.6489999999999996,8,7050,985,meters,jsons/v1_VE1000_randls_2_rotated.json,1512848,2250311,47,Man
97,240085,DepthScenes,duration_manipulation_targetAtFixation,jsons/v1_VE1000_randls_2_rotated.json,http://54.235.29.9/FacialAge/BNav_EC2/DepthDuration/v2_depth_duration_MTurk/v2_DepthDuration_HTML.html#187,187,1364,657,1364,768,8-29-2022,9-41-7,98,depth_duration_stimuli/000929_2014-06-09_16-33-19_260595134347_rgbf000139-resize_0/000929_2014-06-09_16-33-19_260595134347_rgbf000139-resize_0-target.png,1000,2.8680000000000003,8,3348,995,meters,jsons/v1_VE1000_randls_2_rotated.json,1512848,2250311,47,Man
98,240085,DepthScenes,duration_manipulation_targetAtFixation,jsons/v1_VE1000_randls_2_rotated.json,http://54.235.29.9/FacialAge/BNav_EC2/DepthDuration/v2_depth_duration_MTurk/v2_DepthDuration_HTML.html#187,187,1364,657,1364,768,8-29-2022,9-41-7,99,depth_duration_stimuli/001222_2014-06-17_16-24-06_260595134347_rgbf000073-resize_0/001222_2014-06-17_16-24-06_260595134347_rgbf000073-resize-original.jpg,1000,1.4385,8,8084,999,meters,jsons/v1_VE1000_randls_2_rotated.json,1512848,2250311,47,Man
99,240085,DepthScenes,duration_manipulation_targetAtFixation,jsons/v1_VE1000_randls_2_rotated.json,http://54.235.29.9/FacialAge/BNav_EC2/DepthDuration/v2_depth_duration_MTurk/v2_DepthDuration_HTML.html#187,187,1364,657,1364,768,8-29-2022,9-41-7,100,depth_duration_stimuli/003338_2014-05-20_11-01-23_094959634447_rgbf000051-resize_6/003338_2014-05-20_11-01-23_094959634447_rgbf000051-resize_6-target.png,1000,1.693,8,7153,1002,meters,jsons/v1_VE1000_randls_2_rotated.json,1512848,2250311,47,Man
100,240085,DepthScenes,duration_manipulation_targetAtFixation,jsons/v1_VE1000_randls_2_rotated.json,http://54.235.29.9/FacialAge/BNav_EC2/DepthDuration/v2_depth_duration_MTurk/v2_DepthDuration_HTML.html#187,187,1364,657,1364,768,8-29-2022,9-41-7,101,depth_duration_stimuli/002509_2014-06-24_13-19-22_094959634447_rgbf000077-resize_0/002509_2014-06-24_13-19-22_094959634447_rgbf000077-resize_0-target.png,1000,1.3065,8,4043,1003,meters,jsons/v1_VE1000_randls_2_rotated.json,1512848,2250311,47,Man
101,240085,DepthScenes,duration_manipulation_targetAtFixation,jsons/v1_VE1000_randls_2_rotated.json,http://54.235.29.9/FacialAge/BNav_EC2/DepthDuration/v2_depth_duration_MTurk/v2_DepthDuration_HTML.html#187,187,1364,657,1364,768,8-29-2022,9-41-7,102,depth_duration_stimuli/002750_2014-06-22_19-08-03_094959634447_rgbf000094-resize_4/002750_2014-06-22_19-08-03_094959634447_rgbf000094-resize_4-target.png,1000,2.354,8,3925,1012,meters,jsons/v1_VE1000_randls_2_rotated.json,1512848,2250311,47,Man
102,240085,DepthScenes,duration_manipulation_targetAtFixation,jsons/v1_VE1000_randls_2_rotated.json,http://54.235.29.9/FacialAge/BNav_EC2/DepthDuration/v2_depth_duration_MTurk/v2_DepthDuration_HTML.html#187,187,1364,657,1364,768,8-29-2022,9-41-7,103,depth_duration_stimuli/002549_2014-06-24_13-41-39_094959634447_rgbf000022-resize_3/002549_2014-06-24_13-41-39_094959634447_rgbf000022-resize_3-target.png,1000,1.476,9,3625,995,meters,jsons/v1_VE1000_randls_2_rotated.json,1512848,2250311,47,Man
103,240085,DepthScenes,duration_manipulation_targetAtFixation,jsons/v1_VE1000_randls_2_rotated.json,http://54.235.29.9/FacialAge/BNav_EC2/DepthDuration/v2_depth_duration_MTurk/v2_DepthDuration_HTML.html#187,187,1364,657,1364,768,8-29-2022,9-41-7,104,depth_duration_stimuli/000483_2014-06-09_20-41-45_260595134347_rgbf000116-resize_4/000483_2014-06-09_20-41-45_260595134347_rgbf000116-resize_4-target.png,1000,1.337,8,4225,1006,meters,jsons/v1_VE1000_randls_2_rotated.json,1512848,2250311,47,Man
104,240085,DepthScenes,duration_manipulation_targetAtFixation,jsons/v1_VE1000_randls_2_rotated.json,http://54.235.29.9/FacialAge/BNav_EC2/DepthDuration/v2_depth_duration_MTurk/v2_DepthDuration_HTML.html#187,187,1364,657,1364,768,8-29-2022,9-41-7,105,depth_duration_stimuli/000469_2014-06-09_19-42-10_260595134347_rgbf000081-resize_1/000469_2014-06-09_19-42-10_260595134347_rgbf000081-resize_1-target.png,1000,1.652,9,3632,998,meters,jsons/v1_VE1000_randls_2_rotated.json,1512848,2250311,47,Man
105,240085,DepthScenes,duration_manipulation_targetAtFixation,jsons/v1_VE1000_randls_2_rotated.json,http://54.235.29.9/FacialAge/BNav_EC2/DepthDuration/v2_depth_duration_MTurk/v2_DepthDuration_HTML.html#187,187,1364,657,1364,768,8-29-2022,9-41-7,106,depth_duration_stimuli/002949_2014-06-26_15-57-42_094959634447_rgbf000079-resize_1/002949_2014-06-26_15-57-42_094959634447_rgbf000079-resize_1-target.png,1000,1.8915,8,3971,992,meters,jsons/v1_VE1000_randls_2_rotated.json,1512848,2250311,47,Man
106,240085,DepthScenes,duration_manipulation_targetAtFixation,jsons/v1_VE1000_randls_2_rotated.json,http://54.235.29.9/FacialAge/BNav_EC2/DepthDuration/v2_depth_duration_MTurk/v2_DepthDuration_HTML.html#187,187,1364,657,1364,768,8-29-2022,9-41-7,107,depth_duration_stimuli/000522_2014-06-08_13-35-06_260595134347_rgbf000244-resize_1/000522_2014-06-08_13-35-06_260595134347_rgbf000244-resize_1-target.png,1000,2.3715,9,3529,1009,meters,jsons/v1_VE1000_randls_2_rotated.json,1512848,2250311,47,Man
107,240085,DepthScenes,duration_manipulation_targetAtFixation,jsons/v1_VE1000_randls_2_rotated.json,http://54.235.29.9/FacialAge/BNav_EC2/DepthDuration/v2_depth_duration_MTurk/v2_DepthDuration_HTML.html#187,187,1364,657,1364,768,8-29-2022,9-41-7,108,depth_duration_stimuli/003081_2014-06-15_15-19-16_094959634447_rgbf000150-resize_1/003081_2014-06-15_15-19-16_094959634447_rgbf000150-resize_1-target.png,1000,3.9125,9,4130,993,meters,jsons/v1_VE1000_randls_2_rotated.json,1512848,2250311,47,Man
108,240085,DepthScenes,duration_manipulation_targetAtFixation,jsons/v1_VE1000_randls_2_rotated.json,http://54.235.29.9/FacialAge/BNav_EC2/DepthDuration/v2_depth_duration_MTurk/v2_DepthDuration_HTML.html#187,187,1364,657,1364,768,8-29-2022,9-41-7,109,depth_duration_stimuli/001417_2014-06-19_16-25-36_260595134347_rgbf000115-resize_5/001417_2014-06-19_16-25-36_260595134347_rgbf000115-resize_5-target.png,1000,4.6255,9,5756,1007,meters,jsons/v1_VE1000_randls_2_rotated.json,1512848,2250311,47,Man
109,240085,DepthScenes,duration_manipulation_targetAtFixation,jsons/v1_VE1000_randls_2_rotated.json,http://54.235.29.9/FacialAge/BNav_EC2/DepthDuration/v2_depth_duration_MTurk/v2_DepthDuration_HTML.html#187,187,1364,657,1364,768,8-29-2022,9-41-7,110,depth_duration_stimuli/001132_2014-06-17_14-48-54_260595134347_rgbf000100-resize_2/001132_2014-06-17_14-48-54_260595134347_rgbf000100-resize_2-target.png,1000,3.753,9,3778,1056,meters,jsons/v1_VE1000_randls_2_rotated.json,1512848,2250311,47,Man
110,240085,DepthScenes,duration_manipulation_targetAtFixation,jsons/v1_VE1000_randls_2_rotated.json,http://54.235.29.9/FacialAge/BNav_EC2/DepthDuration/v2_depth_duration_MTurk/v2_DepthDuration_HTML.html#187,187,1364,657,1364,768,8-29-2022,9-41-7,111,depth_duration_stimuli/001133_2014-06-17_14-49-16_260595134347_rgbf000100-resize_0/001133_2014-06-17_14-49-16_260595134347_rgbf000100-resize_0-target.png,1000,4.2115,9,7249,1000,meters,jsons/v1_VE1000_randls_2_rotated.json,1512848,2250311,47,Man
111,240085,DepthScenes,duration_manipulation_targetAtFixation,jsons/v1_VE1000_randls_2_rotated.json,http://54.235.29.9/FacialAge/BNav_EC2/DepthDuration/v2_depth_duration_MTurk/v2_DepthDuration_HTML.html#187,187,1364,657,1364,768,8-29-2022,9-41-7,112,depth_duration_stimuli/000742_2014-06-08_18-48-09_260595134347_rgbf000164-resize_4/000742_2014-06-08_18-48-09_260595134347_rgbf000164-resize_4-target.png,1000,4.632,9,5736,997,meters,jsons/v1_VE1000_randls_2_rotated.json,1512848,2250311,47,Man
112,240085,DepthScenes,duration_manipulation_targetAtFixation,jsons/v1_VE1000_randls_2_rotated.json,http://54.235.29.9/FacialAge/BNav_EC2/DepthDuration/v2_depth_duration_MTurk/v2_DepthDuration_HTML.html#187,187,1364,657,1364,768,8-29-2022,9-41-7,113,depth_duration_stimuli/001066_2014-06-08_22-03-20_260595134347_rgbf000066-resize_4/001066_2014-06-08_22-03-20_260595134347_rgbf000066-resize_4-target.png,1000,4.2330000000000005,9,5277,997,meters,jsons/v1_VE1000_randls_2_rotated.json,1512848,2250311,47,Man
113,240085,DepthScenes,duration_manipulation_targetAtFixation,jsons/v1_VE1000_randls_2_rotated.json,http://54.235.29.9/FacialAge/BNav_EC2/DepthDuration/v2_depth_duration_MTurk/v2_DepthDuration_HTML.html#187,187,1364,657,1364,768,8-29-2022,9-41-7,114,depth_duration_stimuli/002136_2014-06-25_21-18-03_260595134347_rgbf000109-resize_3/002136_2014-06-25_21-18-03_260595134347_rgbf000109-resize_3-target.png,1000,1.9569999999999999,9,8337,1000,meters,jsons/v1_VE1000_randls_2_rotated.json,1512848,2250311,47,Man
114,240085,DepthScenes,duration_manipulation_targetAtFixation,jsons/v1_VE1000_randls_2_rotated.json,http://54.235.29.9/FacialAge/BNav_EC2/DepthDuration/v2_depth_duration_MTurk/v2_DepthDuration_HTML.html#187,187,1364,657,1364,768,8-29-2022,9-41-7,115,depth_duration_stimuli/002964_2014-06-08_17-46-11_094959634447_rgbf000091-resize_4/002964_2014-06-08_17-46-11_094959634447_rgbf000091-resize_4-target.png,1000,1.6909999999999998,8,3527,998,meters,jsons/v1_VE1000_randls_2_rotated.json,1512848,2250311,47,Man
115,240085,DepthScenes,duration_manipulation_targetAtFixation,jsons/v1_VE1000_randls_2_rotated.json,http://54.235.29.9/FacialAge/BNav_EC2/DepthDuration/v2_depth_duration_MTurk/v2_DepthDuration_HTML.html#187,187,1364,657,1364,768,8-29-2022,9-41-7,116,depth_duration_stimuli/001136_2014-06-17_15-19-41_260595134347_rgbf000076-resize_3/001136_2014-06-17_15-19-41_260595134347_rgbf000076-resize_3-target.png,1000,1.8655,9,4468,996,meters,jsons/v1_VE1000_randls_2_rotated.json,1512848,2250311,47,Man
116,240085,DepthScenes,duration_manipulation_targetAtFixation,jsons/v1_VE1000_randls_2_rotated.json,http://54.235.29.9/FacialAge/BNav_EC2/DepthDuration/v2_depth_duration_MTurk/v2_DepthDuration_HTML.html#187,187,1364,657,1364,768,8-29-2022,9-41-7,117,depth_duration_stimuli/001164_2014-06-17_15-35-46_260595134347_rgbf000085-resize_3/001164_2014-06-17_15-35-46_260595134347_rgbf000085-resize_3-target.png,1000,2.354,9,5267,997,meters,jsons/v1_VE1000_randls_2_rotated.json,1512848,2250311,47,Man
117,240085,DepthScenes,duration_manipulation_targetAtFixation,jsons/v1_VE1000_randls_2_rotated.json,http://54.235.29.9/FacialAge/BNav_EC2/DepthDuration/v2_depth_duration_MTurk/v2_DepthDuration_HTML.html#187,187,1364,657,1364,768,8-29-2022,9-41-7,118,depth_duration_stimuli/002568_2014-06-24_13-59-21_094959634447_rgbf000062-resize_4/002568_2014-06-24_13-59-21_094959634447_rgbf000062-resize_4-target.png,1000,3.015,9,6122,991,meters,jsons/v1_VE1000_randls_2_rotated.json,1512848,2250311,47,Man
118,240085,DepthScenes,duration_manipulation_targetAtFixation,jsons/v1_VE1000_randls_2_rotated.json,http://54.235.29.9/FacialAge/BNav_EC2/DepthDuration/v2_depth_duration_MTurk/v2_DepthDuration_HTML.html#187,187,1364,657,1364,768,8-29-2022,9-41-7,119,depth_duration_stimuli/003492_2014-05-21_15-50-55_094959634447_rgbf000828-resize_1/003492_2014-05-21_15-50-55_094959634447_rgbf000828-resize_1-target.png,1000,4.06875,9,3453,988,meters,jsons/v1_VE1000_randls_2_rotated.json,1512848,2250311,47,Man
119,240085,DepthScenes,duration_manipulation_targetAtFixation,jsons/v1_VE1000_randls_2_rotated.json,http://54.235.29.9/FacialAge/BNav_EC2/DepthDuration/v2_depth_duration_MTurk/v2_DepthDuration_HTML.html#187,187,1364,657,1364,768,8-29-2022,9-41-7,120,depth_duration_stimuli/000787_2014-06-08_22-33-53_260595134347_rgbf000175-resize_1/000787_2014-06-08_22-33-53_260595134347_rgbf000175-resize-original.jpg,1000,4.784,9,5033,987,meters,jsons/v1_VE1000_randls_2_rotated.json,1512848,2250311,47,Man
120,240085,DepthScenes,duration_manipulation_targetAtFixation,jsons/v1_VE1000_randls_2_rotated.json,http://54.235.29.9/FacialAge/BNav_EC2/DepthDuration/v2_depth_duration_MTurk/v2_DepthDuration_HTML.html#187,187,1364,657,1364,768,8-29-2022,9-41-7,121,depth_duration_stimuli/002467_2014-06-28_20-38-07_260595134347_rgbf000026-resize_2/002467_2014-06-28_20-38-07_260595134347_rgbf000026-resize_2-target.png,1000,4.742,9,4140,985,meters,jsons/v1_VE1000_randls_2_rotated.json,1512848,2250311,47,Man
121,240085,DepthScenes,duration_manipulation_targetAtFixation,jsons/v1_VE1000_randls_2_rotated.json,http://54.235.29.9/FacialAge/BNav_EC2/DepthDuration/v2_depth_duration_MTurk/v2_DepthDuration_HTML.html#187,187,1364,657,1364,768,8-29-2022,9-41-7,122,depth_duration_stimuli/002570_2014-06-24_13-59-54_094959634447_rgbf000059-resize_0/002570_2014-06-24_13-59-54_094959634447_rgbf000059-resize_0-target.png,1000,4.037,9,3729,1481,meters,jsons/v1_VE1000_randls_2_rotated.json,1512848,2250311,47,Man
122,240085,DepthScenes,duration_manipulation_targetAtFixation,jsons/v1_VE1000_randls_2_rotated.json,http://54.235.29.9/FacialAge/BNav_EC2/DepthDuration/v2_depth_duration_MTurk/v2_DepthDuration_HTML.html#187,187,1364,657,1364,768,8-29-2022,9-41-7,123,depth_duration_stimuli/000866_2014-06-09_20-45-42_260595134347_rgbf000139-resize_1/000866_2014-06-09_20-45-42_260595134347_rgbf000139-resize_1-target.png,1000,3.2155,9,7571,993,meters,jsons/v1_VE1000_randls_2_rotated.json,1512848,2250311,47,Man
123,240085,DepthScenes,duration_manipulation_targetAtFixation,jsons/v1_VE1000_randls_2_rotated.json,http://54.235.29.9/FacialAge/BNav_EC2/DepthDuration/v2_depth_duration_MTurk/v2_DepthDuration_HTML.html#187,187,1364,657,1364,768,8-29-2022,9-41-7,124,depth_duration_stimuli/002989_2014-06-15_12-25-03_094959634447_rgbf000150-resize_3/002989_2014-06-15_12-25-03_094959634447_rgbf000150-resize_3-target.png,1000,4.1975,9,3372,1002,meters,jsons/v1_VE1000_randls_2_rotated.json,1512848,2250311,47,Man
124,240085,DepthScenes,duration_manipulation_targetAtFixation,jsons/v1_VE1000_randls_2_rotated.json,http://54.235.29.9/FacialAge/BNav_EC2/DepthDuration/v2_depth_duration_MTurk/v2_DepthDuration_HTML.html#187,187,1364,657,1364,768,8-29-2022,9-41-7,125,depth_duration_stimuli/002678_2014-06-13_16-15-32_094959634447_rgbf000151-resize_6/002678_2014-06-13_16-15-32_094959634447_rgbf000151-resize_6-target.png,1000,2.1830000000000003,8,5175,1014,meters,jsons/v1_VE1000_randls_2_rotated.json,1512848,2250311,47,Man
125,240085,DepthScenes,duration_manipulation_targetAtFixation,jsons/v1_VE1000_randls_2_rotated.json,http://54.235.29.9/FacialAge/BNav_EC2/DepthDuration/v2_depth_duration_MTurk/v2_DepthDuration_HTML.html#187,187,1364,657,1364,768,8-29-2022,9-41-7,126,depth_duration_stimuli/000368_2014-06-09_15-53-01_260595134347_rgbf000155-resize_2/000368_2014-06-09_15-53-01_260595134347_rgbf000155-resize_2-target.png,1000,2.4859999999999998,8,4456,994,meters,jsons/v1_VE1000_randls_2_rotated.json,1512848,2250311,47,Man
126,240085,DepthScenes,duration_manipulation_targetAtFixation,jsons/v1_VE1000_randls_2_rotated.json,http://54.235.29.9/FacialAge/BNav_EC2/DepthDuration/v2_depth_duration_MTurk/v2_DepthDuration_HTML.html#187,187,1364,657,1364,768,8-29-2022,9-41-7,127,depth_duration_stimuli/000502_2014-06-08_23-02-32_260595134347_rgbf000063-resize_4/000502_2014-06-08_23-02-32_260595134347_rgbf000063-resize_4-target.png,1000,2.431,9,3999,1017,meters,jsons/v1_VE1000_randls_2_rotated.json,1512848,2250311,47,Man
127,240085,DepthScenes,duration_manipulation_targetAtFixation,jsons/v1_VE1000_randls_2_rotated.json,http://54.235.29.9/FacialAge/BNav_EC2/DepthDuration/v2_depth_duration_MTurk/v2_DepthDuration_HTML.html#187,187,1364,657,1364,768,8-29-2022,9-41-7,128,depth_duration_stimuli/001199_2014-06-17_16-03-48_260595134347_rgbf000077-resize_0/001199_2014-06-17_16-03-48_260595134347_rgbf000077-resize_0-target.png,1000,3.4375,8,4193,988,meters,jsons/v1_VE1000_randls_2_rotated.json,1512848,2250311,47,Man
128,240085,DepthScenes,duration_manipulation_targetAtFixation,jsons/v1_VE1000_randls_2_rotated.json,http://54.235.29.9/FacialAge/BNav_EC2/DepthDuration/v2_depth_duration_MTurk/v2_DepthDuration_HTML.html#187,187,1364,657,1364,768,8-29-2022,9-41-7,129,depth_duration_stimuli/000943_2014-06-09_19-31-07_260595134347_rgbf000128-resize_1/000943_2014-06-09_19-31-07_260595134347_rgbf000128-resize_1-target.png,1000,1.9765,8,6203,1001,meters,jsons/v1_VE1000_randls_2_rotated.json,1512848,2250311,47,Man
129,240085,DepthScenes,duration_manipulation_targetAtFixation,jsons/v1_VE1000_randls_2_rotated.json,http://54.235.29.9/FacialAge/BNav_EC2/DepthDuration/v2_depth_duration_MTurk/v2_DepthDuration_HTML.html#187,187,1364,657,1364,768,8-29-2022,9-41-7,130,depth_duration_stimuli/003070_2014-06-15_14-58-27_094959634447_rgbf000150-resize_3/003070_2014-06-15_14-58-27_094959634447_rgbf000150-resize_3-target.png,1000,2.9415,9,3631,1007,meters,jsons/v1_VE1000_randls_2_rotated.json,1512848,2250311,47,Man
130,240085,DepthScenes,duration_manipulation_targetAtFixation,jsons/v1_VE1000_randls_2_rotated.json,http://54.235.29.9/FacialAge/BNav_EC2/DepthDuration/v2_depth_duration_MTurk/v2_DepthDuration_HTML.html#187,187,1364,657,1364,768,8-29-2022,9-41-7,131,depth_duration_stimuli/000191_2014-05-12_17-07-38_260595134347_rgbf000199-resize_0/000191_2014-05-12_17-07-38_260595134347_rgbf000199-resize_0-target.png,1000,3.7995,8,4446,996,meters,jsons/v1_VE1000_randls_2_rotated.json,1512848,2250311,47,Man
131,240085,DepthScenes,duration_manipulation_targetAtFixation,jsons/v1_VE1000_randls_2_rotated.json,http://54.235.29.9/FacialAge/BNav_EC2/DepthDuration/v2_depth_duration_MTurk/v2_DepthDuration_HTML.html#187,187,1364,657,1364,768,8-29-2022,9-41-7,132,depth_duration_stimuli/000493_2014-06-09_21-01-18_260595134347_rgbf000196-resize_3/000493_2014-06-09_21-01-18_260595134347_rgbf000196-resize_3-target.png,1000,3.44,8,3288,1009,meters,jsons/v1_VE1000_randls_2_rotated.json,1512848,2250311,47,Man
132,240085,DepthScenes,duration_manipulation_targetAtFixation,jsons/v1_VE1000_randls_2_rotated.json,http://54.235.29.9/FacialAge/BNav_EC2/DepthDuration/v2_depth_duration_MTurk/v2_DepthDuration_HTML.html#187,187,1364,657,1364,768,8-29-2022,9-41-7,133,depth_duration_stimuli/001214_2014-06-17_16-13-55_260595134347_rgbf000111-resize_0/001214_2014-06-17_16-13-55_260595134347_rgbf000111-resize_0-target.png,1000,2.6505,8,4201,990,meters,jsons/v1_VE1000_randls_2_rotated.json,1512848,2250311,47,Man
133,240085,DepthScenes,duration_manipulation_targetAtFixation,jsons/v1_VE1000_randls_2_rotated.json,http://54.235.29.9/FacialAge/BNav_EC2/DepthDuration/v2_depth_duration_MTurk/v2_DepthDuration_HTML.html#187,187,1364,657,1364,768,8-29-2022,9-41-7,134,depth_duration_stimuli/000810_2014-06-08_17-20-01_260595134347_rgbf000105-resize_0/000810_2014-06-08_17-20-01_260595134347_rgbf000105-resize_0-target.png,1000,1.4865,8,3106,997,meters,jsons/v1_VE1000_randls_2_rotated.json,1512848,2250311,47,Man
134,240085,DepthScenes,duration_manipulation_targetAtFixation,jsons/v1_VE1000_randls_2_rotated.json,http://54.235.29.9/FacialAge/BNav_EC2/DepthDuration/v2_depth_duration_MTurk/v2_DepthDuration_HTML.html#187,187,1364,657,1364,768,8-29-2022,9-41-7,135,depth_duration_stimuli/000375_2014-06-08_11-17-29_260595134347_rgbf000133-resize_2/000375_2014-06-08_11-17-29_260595134347_rgbf000133-resize-original.jpg,1000,4.718,9,4234,999,meters,jsons/v1_VE1000_randls_2_rotated.json,1512848,2250311,47,Man
135,240085,DepthScenes,duration_manipulation_targetAtFixation,jsons/v1_VE1000_randls_2_rotated.json,http://54.235.29.9/FacialAge/BNav_EC2/DepthDuration/v2_depth_duration_MTurk/v2_DepthDuration_HTML.html#187,187,1364,657,1364,768,8-29-2022,9-41-7,136,depth_duration_stimuli/001815_2014-06-26_20-52-55_260595134347_rgbf000020-resize_0/001815_2014-06-26_20-52-55_260595134347_rgbf000020-resize_0-target.png,1000,3.3865,9,5798,989,meters,jsons/v1_VE1000_randls_2_rotated.json,1512848,2250311,47,Man
136,240085,DepthScenes,duration_manipulation_targetAtFixation,jsons/v1_VE1000_randls_2_rotated.json,http://54.235.29.9/FacialAge/BNav_EC2/DepthDuration/v2_depth_duration_MTurk/v2_DepthDuration_HTML.html#187,187,1364,657,1364,768,8-29-2022,9-41-7,137,depth_duration_stimuli/001808_2014-06-26_20-50-58_260595134347_rgbf000029-resize_1/001808_2014-06-26_20-50-58_260595134347_rgbf000029-resize_1-target.png,1000,4.249,8,4567,1011,meters,jsons/v1_VE1000_randls_2_rotated.json,1512848,2250311,47,Man
137,240085,DepthScenes,duration_manipulation_targetAtFixation,jsons/v1_VE1000_randls_2_rotated.json,http://54.235.29.9/FacialAge/BNav_EC2/DepthDuration/v2_depth_duration_MTurk/v2_DepthDuration_HTML.html#187,187,1364,657,1364,768,8-29-2022,9-41-7,138,depth_duration_stimuli/002545_2014-06-24_13-38-53_094959634447_rgbf000080-resize_4/002545_2014-06-24_13-38-53_094959634447_rgbf000080-resize_4-target.png,1000,1.9205,8,6580,998,meters,jsons/v1_VE1000_randls_2_rotated.json,1512848,2250311,47,Man
138,240085,DepthScenes,duration_manipulation_targetAtFixation,jsons/v1_VE1000_randls_2_rotated.json,http://54.235.29.9/FacialAge/BNav_EC2/DepthDuration/v2_depth_duration_MTurk/v2_DepthDuration_HTML.html#187,187,1364,657,1364,768,8-29-2022,9-41-7,139,depth_duration_stimuli/001092_2014-06-15_17-34-58_260595134347_rgbf000171-resize_3/001092_2014-06-15_17-34-58_260595134347_rgbf000171-resize_3-target.png,1000,2.6935,0,3899,987,meters,jsons/v1_VE1000_randls_2_rotated.json,1512848,2250311,47,Man
139,240085,DepthScenes,duration_manipulation_targetAtFixation,jsons/v1_VE1000_randls_2_rotated.json,http://54.235.29.9/FacialAge/BNav_EC2/DepthDuration/v2_depth_duration_MTurk/v2_DepthDuration_HTML.html#187,187,1364,657,1364,768,8-29-2022,9-41-7,140,depth_duration_stimuli/003423_2014-05-21_10-23-26_094959634447_rgbf002665-resize_2/003423_2014-05-21_10-23-26_094959634447_rgbf002665-resize_2-target.png,1000,3.2575,9,11539,1014,meters,jsons/v1_VE1000_randls_2_rotated.json,1512848,2250311,47,Man
140,240085,DepthScenes,duration_manipulation_targetAtFixation,jsons/v1_VE1000_randls_2_rotated.json,http://54.235.29.9/FacialAge/BNav_EC2/DepthDuration/v2_depth_duration_MTurk/v2_DepthDuration_HTML.html#187,187,1364,657,1364,768,8-29-2022,9-41-7,141,depth_duration_stimuli/002905_2014-06-03_18-04-43_094959634447_rgbf000151-resize_2/002905_2014-06-03_18-04-43_094959634447_rgbf000151-resize_2-target.png,1000,2.0295,0,3864,1004,meters,jsons/v1_VE1000_randls_2_rotated.json,1512848,2250311,47,Man
141,240085,DepthScenes,duration_manipulation_targetAtFixation,jsons/v1_VE1000_randls_2_rotated.json,http://54.235.29.9/FacialAge/BNav_EC2/DepthDuration/v2_depth_duration_MTurk/v2_DepthDuration_HTML.html#187,187,1364,657,1364,768,8-29-2022,9-41-7,142,depth_duration_stimuli/000677_2014-06-08_23-10-32_260595134347_rgbf000158-resize_6/000677_2014-06-08_23-10-32_260595134347_rgbf000158-resize_6-target.png,1000,3.556,6,4394,999,meters,jsons/v1_VE1000_randls_2_rotated.json,1512848,2250311,47,Man
142,240085,DepthScenes,duration_manipulation_targetAtFixation,jsons/v1_VE1000_randls_2_rotated.json,http://54.235.29.9/FacialAge/BNav_EC2/DepthDuration/v2_depth_duration_MTurk/v2_DepthDuration_HTML.html#187,187,1364,657,1364,768,8-29-2022,9-41-7,143,depth_duration_stimuli/001029_2014-06-08_13-17-57_260595134347_rgbf000065-resize_1/001029_2014-06-08_13-17-57_260595134347_rgbf000065-resize_1-target.png,1000,3.0835,5,3850,999,meters,jsons/v1_VE1000_randls_2_rotated.json,1512848,2250311,47,Man
143,240085,DepthScenes,duration_manipulation_targetAtFixation,jsons/v1_VE1000_randls_2_rotated.json,http://54.235.29.9/FacialAge/BNav_EC2/DepthDuration/v2_depth_duration_MTurk/v2_DepthDuration_HTML.html#187,187,1364,657,1364,768,8-29-2022,9-41-7,144,depth_duration_stimuli/001450_2014-06-19_17-02-03_260595134347_rgbf000203-resize_4/001450_2014-06-19_17-02-03_260595134347_rgbf000203-resize_4-target.png,1000,4.0106666666667,7,4517,998,meters,jsons/v1_VE1000_randls_2_rotated.json,1512848,2250311,47,Man
144,240085,DepthScenes,duration_manipulation_targetAtFixation,jsons/v1_VE1000_randls_2_rotated.json,http://54.235.29.9/FacialAge/BNav_EC2/DepthDuration/v2_depth_duration_MTurk/v2_DepthDuration_HTML.html#187,187,1364,657,1364,768,8-29-2022,9-41-7,145,depth_duration_stimuli/001449_2014-06-19_17-01-27_260595134347_rgbf000116-resize_2/001449_2014-06-19_17-01-27_260595134347_rgbf000116-resize_2-target.png,1000,3.452,8,5467,1005,meters,jsons/v1_VE1000_randls_2_rotated.json,1512848,2250311,47,Man
145,240085,DepthScenes,duration_manipulation_targetAtFixation,jsons/v1_VE1000_randls_2_rotated.json,http://54.235.29.9/FacialAge/BNav_EC2/DepthDuration/v2_depth_duration_MTurk/v2_DepthDuration_HTML.html#187,187,1364,657,1364,768,8-29-2022,9-41-7,146,depth_duration_stimuli/002875_2014-06-01_15-19-00_094959634447_rgbf000151-resize_1/002875_2014-06-01_15-19-00_094959634447_rgbf000151-resize_1-target.png,1000,1.9675,0,5182,999,meters,jsons/v1_VE1000_randls_2_rotated.json,1512848,2250311,47,Man
146,240085,DepthScenes,duration_manipulation_targetAtFixation,jsons/v1_VE1000_randls_2_rotated.json,http://54.235.29.9/FacialAge/BNav_EC2/DepthDuration/v2_depth_duration_MTurk/v2_DepthDuration_HTML.html#187,187,1364,657,1364,768,8-29-2022,9-41-7,147,depth_duration_stimuli/001011_2014-06-08_23-18-54_260595134347_rgbf000044-resize_4/001011_2014-06-08_23-18-54_260595134347_rgbf000044-resize_4-target.png,1000,2.4730000000000003,9,4475,1002,meters,jsons/v1_VE1000_randls_2_rotated.json,1512848,2250311,47,Man
147,240085,DepthScenes,duration_manipulation_targetAtFixation,jsons/v1_VE1000_randls_2_rotated.json,http://54.235.29.9/FacialAge/BNav_EC2/DepthDuration/v2_depth_duration_MTurk/v2_DepthDuration_HTML.html#187,187,1364,657,1364,768,8-29-2022,9-41-7,148,depth_duration_stimuli/000927_2014-06-09_16-32-30_260595134347_rgbf000123-resize_3/000927_2014-06-09_16-32-30_260595134347_rgbf000123-resize_3-target.png,1000,2.6785,9,7526,991,meters,jsons/v1_VE1000_randls_2_rotated.json,1512848,2250311,47,Man
148,240085,DepthScenes,duration_manipulation_targetAtFixation,jsons/v1_VE1000_randls_2_rotated.json,http://54.235.29.9/FacialAge/BNav_EC2/DepthDuration/v2_depth_duration_MTurk/v2_DepthDuration_HTML.html#187,187,1364,657,1364,768,8-29-2022,9-41-7,149,depth_duration_stimuli/001110_2014-06-15_17-25-28_260595134347_rgbf000150-resize_1/001110_2014-06-15_17-25-28_260595134347_rgbf000150-resize_1-target.png,1000,1.7115,9,4155,1002,meters,jsons/v1_VE1000_randls_2_rotated.json,1512848,2250311,47,Man
149,240085,DepthScenes,duration_manipulation_targetAtFixation,jsons/v1_VE1000_randls_2_rotated.json,http://54.235.29.9/FacialAge/BNav_EC2/DepthDuration/v2_depth_duration_MTurk/v2_DepthDuration_HTML.html#187,187,1364,657,1364,768,8-29-2022,9-41-7,150,depth_duration_stimuli/000549_2014-06-08_22-10-24_260595134347_rgbf000247-resize_3/000549_2014-06-08_22-10-24_260595134347_rgbf000247-resize_3-target.png,1000,1.841,8,4836,988,meters,jsons/v1_VE1000_randls_2_rotated.json,1512848,2250311,47,Man
150,240085,DepthScenes,duration_manipulation_targetAtFixation,jsons/v1_VE1000_randls_2_rotated.json,http://54.235.29.9/FacialAge/BNav_EC2/DepthDuration/v2_depth_duration_MTurk/v2_DepthDuration_HTML.html#187,187,1364,657,1364,768,8-29-2022,9-41-7,151,depth_duration_stimuli/001055_2014-06-08_18-45-35_260595134347_rgbf000111-resize_4/001055_2014-06-08_18-45-35_260595134347_rgbf000111-resize_4-target.png,1000,2.4290000000000003,8,61206,999,meters,jsons/v1_VE1000_randls_2_rotated.json,1512848,2250311,47,Man
151,240085,DepthScenes,duration_manipulation_targetAtFixation,jsons/v1_VE1000_randls_2_rotated.json,http://54.235.29.9/FacialAge/BNav_EC2/DepthDuration/v2_depth_duration_MTurk/v2_DepthDuration_HTML.html#187,187,1364,657,1364,768,8-29-2022,9-41-7,152,depth_duration_stimuli/000569_2014-06-09_22-51-47_260595134347_rgbf000141-resize_3/000569_2014-06-09_22-51-47_260595134347_rgbf000141-resize-original.jpg,1000,4.512,8,6327,1014,meters,jsons/v1_VE1000_randls_2_rotated.json,1512848,2250311,47,Man
152,240085,DepthScenes,duration_manipulation_targetAtFixation,jsons/v1_VE1000_randls_2_rotated.json,http://54.235.29.9/FacialAge/BNav_EC2/DepthDuration/v2_depth_duration_MTurk/v2_DepthDuration_HTML.html#187,187,1364,657,1364,768,8-29-2022,9-41-7,153,depth_duration_stimuli/000734_2014-06-08_17-39-11_260595134347_rgbf000128-resize_2/000734_2014-06-08_17-39-11_260595134347_rgbf000128-resize_2-target.png,1000,4.098,9,4411,999,meters,jsons/v1_VE1000_randls_2_rotated.json,1512848,2250311,47,Man
153,240085,DepthScenes,duration_manipulation_targetAtFixation,jsons/v1_VE1000_randls_2_rotated.json,http://54.235.29.9/FacialAge/BNav_EC2/DepthDuration/v2_depth_duration_MTurk/v2_DepthDuration_HTML.html#187,187,1364,657,1364,768,8-29-2022,9-41-7,154,depth_duration_stimuli/000739_2014-06-08_18-45-58_260595134347_rgbf000068-resize_1/000739_2014-06-08_18-45-58_260595134347_rgbf000068-resize_1-target.png,1000,3.534,8,3355,993,meters,jsons/v1_VE1000_randls_2_rotated.json,1512848,2250311,47,Man
154,240085,DepthScenes,duration_manipulation_targetAtFixation,jsons/v1_VE1000_randls_2_rotated.json,http://54.235.29.9/FacialAge/BNav_EC2/DepthDuration/v2_depth_duration_MTurk/v2_DepthDuration_HTML.html#187,187,1364,657,1364,768,8-29-2022,9-41-7,155,depth_duration_stimuli/002637_2014-06-24_14-51-13_094959634447_rgbf000066-resize_4/002637_2014-06-24_14-51-13_094959634447_rgbf000066-resize_4-target.png,1000,1.9955,7,4388,999,meters,jsons/v1_VE1000_randls_2_rotated.json,1512848,2250311,47,Man
155,240085,DepthScenes,duration_manipulation_targetAtFixation,jsons/v1_VE1000_randls_2_rotated.json,http://54.235.29.9/FacialAge/BNav_EC2/DepthDuration/v2_depth_duration_MTurk/v2_DepthDuration_HTML.html#187,187,1364,657,1364,768,8-29-2022,9-41-7,156,depth_duration_stimuli/003534_2014-05-22_15-06-10_094959634447_rgbf000102-resize_4/003534_2014-05-22_15-06-10_094959634447_rgbf000102-resize_4-target.png,1000,1.426,8,3257,1004,meters,jsons/v1_VE1000_randls_2_rotated.json,1512848,2250311,47,Man
156,240085,DepthScenes,duration_manipulation_targetAtFixation,jsons/v1_VE1000_randls_2_rotated.json,http://54.235.29.9/FacialAge/BNav_EC2/DepthDuration/v2_depth_duration_MTurk/v2_DepthDuration_HTML.html#187,187,1364,657,1364,768,8-29-2022,9-41-7,157,depth_duration_stimuli/002660_2014-06-13_15-44-18_094959634447_rgbf001878-resize_2/002660_2014-06-13_15-44-18_094959634447_rgbf001878-resize_2-target.png,1000,3.576,9,4702,995,meters,jsons/v1_VE1000_randls_2_rotated.json,1512848,2250311,47,Man
157,240085,DepthScenes,duration_manipulation_targetAtFixation,jsons/v1_VE1000_randls_2_rotated.json,http://54.235.29.9/FacialAge/BNav_EC2/DepthDuration/v2_depth_duration_MTurk/v2_DepthDuration_HTML.html#187,187,1364,657,1364,768,8-29-2022,9-41-7,158,depth_duration_stimuli/002153_2014-06-25_21-27-18_260595134347_rgbf000038-resize_5/002153_2014-06-25_21-27-18_260595134347_rgbf000038-resize_5-target.png,1000,2.505,8,7951,992,meters,jsons/v1_VE1000_randls_2_rotated.json,1512848,2250311,47,Man
158,240085,DepthScenes,duration_manipulation_targetAtFixation,jsons/v1_VE1000_randls_2_rotated.json,http://54.235.29.9/FacialAge/BNav_EC2/DepthDuration/v2_depth_duration_MTurk/v2_DepthDuration_HTML.html#187,187,1364,657,1364,768,8-29-2022,9-41-7,159,depth_duration_stimuli/002340_2014-06-28_20-05-46_260595134347_rgbf000113-resize_0/002340_2014-06-28_20-05-46_260595134347_rgbf000113-resize_0-target.png,1000,2.4735,8,3890,986,meters,jsons/v1_VE1000_randls_2_rotated.json,1512848,2250311,47,Man
159,240085,DepthScenes,duration_manipulation_targetAtFixation,jsons/v1_VE1000_randls_2_rotated.json,http://54.235.29.9/FacialAge/BNav_EC2/DepthDuration/v2_depth_duration_MTurk/v2_DepthDuration_HTML.html#187,187,1364,657,1364,768,8-29-2022,9-41-7,160,depth_duration_stimuli/001016_2014-06-09_16-16-10_260595134347_rgbf000112-resize_5/001016_2014-06-09_16-16-10_260595134347_rgbf000112-resize_5-target.png,1000,1.6565,9,3654,1000,meters,jsons/v1_VE1000_randls_2_rotated.json,1512848,2250311,47,Man
160,240085,DepthScenes,duration_manipulation_targetAtFixation,jsons/v1_VE1000_randls_2_rotated.json,http://54.235.29.9/FacialAge/BNav_EC2/DepthDuration/v2_depth_duration_MTurk/v2_DepthDuration_HTML.html#187,187,1364,657,1364,768,8-29-2022,9-41-7,161,depth_duration_stimuli/000109_2014-05-14_23-41-52_260595134347_rgbf000035-resize_9/000109_2014-05-14_23-41-52_260595134347_rgbf000035-resize_9-target.png,1000,1.3545,8,4275,1322,meters,jsons/v1_VE1000_randls_2_rotated.json,1512848,2250311,47,Man
161,240085,DepthScenes,duration_manipulation_targetAtFixation,jsons/v1_VE1000_randls_2_rotated.json,http://54.235.29.9/FacialAge/BNav_EC2/DepthDuration/v2_depth_duration_MTurk/v2_DepthDuration_HTML.html#187,187,1364,657,1364,768,8-29-2022,9-41-7,162,depth_duration_stimuli/000470_2014-06-09_19-42-40_260595134347_rgbf000094-resize_1/000470_2014-06-09_19-42-40_260595134347_rgbf000094-resize_1-target.png,1000,1.831,9,28058,999,meters,jsons/v1_VE1000_randls_2_rotated.json,1512848,2250311,47,Man
162,240085,DepthScenes,duration_manipulation_targetAtFixation,jsons/v1_VE1000_randls_2_rotated.json,http://54.235.29.9/FacialAge/BNav_EC2/DepthDuration/v2_depth_duration_MTurk/v2_DepthDuration_HTML.html#187,187,1364,657,1364,768,8-29-2022,9-41-7,163,depth_duration_stimuli/002657_2014-06-13_15-29-54_094959634447_rgbf000150-resize_1/002657_2014-06-13_15-29-54_094959634447_rgbf000150-resize_1-target.png,1000,4.919,9,21998,999,meters,jsons/v1_VE1000_randls_2_rotated.json,1512848,2250311,47,Man
163,240085,DepthScenes,duration_manipulation_targetAtFixation,jsons/v1_VE1000_randls_2_rotated.json,http://54.235.29.9/FacialAge/BNav_EC2/DepthDuration/v2_depth_duration_MTurk/v2_DepthDuration_HTML.html#187,187,1364,657,1364,768,8-29-2022,9-41-7,164,depth_duration_stimuli/002375_2014-06-28_20-13-44_260595134347_rgbf000032-resize_1/002375_2014-06-28_20-13-44_260595134347_rgbf000032-resize_1-target.png,1000,4.0175,8,6361,998,meters,jsons/v1_VE1000_randls_2_rotated.json,1512848,2250311,47,Man
