,subjID,experimentName,versionName,sequenceName,url,selected_row,windowWidth,windowHeight,screenWidth,screenHeight,startDate,startTime,trial,stimulus,duration,actual_depth,depth_estimate,trial_RT,log_sceneDuration,unitSelection,seq_filepath,experimentTime,totalTime,age,gender
0,240096,DepthScenes,duration_manipulation_targetAtFixation,jsons/VE125_randls_58_rotated.json,http://54.235.29.9/FacialAge/BNav_EC2/DepthDuration/v2_depth_duration_MTurk/v2_DepthDuration_HTML.html#3,3,1366,768,1366,768,9-4-2022,12-57-3,1,depth_duration_stimuli/000742_2014-06-08_18-48-09_260595134347_rgbf000164-resize_4/000742_2014-06-08_18-48-09_260595134347_rgbf000164-resize_4-target.png,125,4.632,50,14577,124,meters,jsons/VE125_randls_58_rotated.json,1989689,2108644,22,Man
1,240096,DepthScenes,duration_manipulation_targetAtFixation,jsons/VE125_randls_58_rotated.json,http://54.235.29.9/FacialAge/BNav_EC2/DepthDuration/v2_depth_duration_MTurk/v2_DepthDuration_HTML.html#3,3,1366,768,1366,768,9-4-2022,12-57-3,2,depth_duration_stimuli/001066_2014-06-08_22-03-20_260595134347_rgbf000066-resize_4/001066_2014-06-08_22-03-20_260595134347_rgbf000066-resize_4-target.png,125,4.2330000000000005,60,3632,125,meters,jsons/VE125_randls_58_rotated.json,1989689,2108644,22,Man
2,240096,DepthScenes,duration_manipulation_targetAtFixation,jsons/VE125_randls_58_rotated.json,http://54.235.29.9/FacialAge/BNav_EC2/DepthDuration/v2_depth_duration_MTurk/v2_DepthDuration_HTML.html#3,3,1366,768,1366,768,9-4-2022,12-57-3,3,depth_duration_stimuli/001392_2014-06-19_16-07-59_260595134347_rgbf000046-resize_1/001392_2014-06-19_16-07-59_260595134347_rgbf000046-resize_1-target.png,125,4.135,78,18686,126,meters,jsons/VE125_randls_58_rotated.json,1989689,2108644,22,Man
3,240096,DepthScenes,duration_manipulation_targetAtFixation,jsons/VE125_randls_58_rotated.json,http://54.235.29.9/FacialAge/BNav_EC2/DepthDuration/v2_depth_duration_MTurk/v2_DepthDuration_HTML.html#3,3,1366,768,1366,768,9-4-2022,12-57-3,4,depth_duration_stimuli/001570_2014-06-20_17-21-09_260595134347_rgbf000135-resize_4/001570_2014-06-20_17-21-09_260595134347_rgbf000135-resize_4-target.png,125,4.467,70,4397,123,meters,jsons/VE125_randls_58_rotated.json,1989689,2108644,22,Man
4,240096,DepthScenes,duration_manipulation_targetAtFixation,jsons/VE125_randls_58_rotated.json,http://54.235.29.9/FacialAge/BNav_EC2/DepthDuration/v2_depth_duration_MTurk/v2_DepthDuration_HTML.html#3,3,1366,768,1366,768,9-4-2022,12-57-3,5,depth_duration_stimuli/001815_2014-06-26_20-52-55_260595134347_rgbf000020-resize_0/001815_2014-06-26_20-52-55_260595134347_rgbf000020-resize_0-target.png,125,3.3865,60,13005,123,meters,jsons/VE125_randls_58_rotated.json,1989689,2108644,22,Man
5,240096,DepthScenes,duration_manipulation_targetAtFixation,jsons/VE125_randls_58_rotated.json,http://54.235.29.9/FacialAge/BNav_EC2/DepthDuration/v2_depth_duration_MTurk/v2_DepthDuration_HTML.html#3,3,1366,768,1366,768,9-4-2022,12-57-3,6,depth_duration_stimuli/001808_2014-06-26_20-50-58_260595134347_rgbf000029-resize_1/001808_2014-06-26_20-50-58_260595134347_rgbf000029-resize_1-target.png,125,4.249,70,4140,126,meters,jsons/VE125_randls_58_rotated.json,1989689,2108644,22,Man
6,240096,DepthScenes,duration_manipulation_targetAtFixation,jsons/VE125_randls_58_rotated.json,http://54.235.29.9/FacialAge/BNav_EC2/DepthDuration/v2_depth_duration_MTurk/v2_DepthDuration_HTML.html#3,3,1366,768,1366,768,9-4-2022,12-57-3,7,depth_duration_stimuli/002660_2014-06-13_15-44-18_094959634447_rgbf001878-resize_2/002660_2014-06-13_15-44-18_094959634447_rgbf001878-resize_2-target.png,125,3.576,85,13983,123,meters,jsons/VE125_randls_58_rotated.json,1989689,2108644,22,Man
7,240096,DepthScenes,duration_manipulation_targetAtFixation,jsons/VE125_randls_58_rotated.json,http://54.235.29.9/FacialAge/BNav_EC2/DepthDuration/v2_depth_duration_MTurk/v2_DepthDuration_HTML.html#3,3,1366,768,1366,768,9-4-2022,12-57-3,8,depth_duration_stimuli/002153_2014-06-25_21-27-18_260595134347_rgbf000038-resize_5/002153_2014-06-25_21-27-18_260595134347_rgbf000038-resize_5-target.png,125,2.505,90,4144,124,meters,jsons/VE125_randls_58_rotated.json,1989689,2108644,22,Man
8,240096,DepthScenes,duration_manipulation_targetAtFixation,jsons/VE125_randls_58_rotated.json,http://54.235.29.9/FacialAge/BNav_EC2/DepthDuration/v2_depth_duration_MTurk/v2_DepthDuration_HTML.html#3,3,1366,768,1366,768,9-4-2022,12-57-3,9,depth_duration_stimuli/000749_2014-06-08_21-55-06_260595134347_rgbf000070-resize_2/000749_2014-06-08_21-55-06_260595134347_rgbf000070-resize_2-target.png,125,2.331,78,14179,126,meters,jsons/VE125_randls_58_rotated.json,1989689,2108644,22,Man
9,240096,DepthScenes,duration_manipulation_targetAtFixation,jsons/VE125_randls_58_rotated.json,http://54.235.29.9/FacialAge/BNav_EC2/DepthDuration/v2_depth_duration_MTurk/v2_DepthDuration_HTML.html#3,3,1366,768,1366,768,9-4-2022,12-57-3,10,depth_duration_stimuli/002788_2014-06-22_19-36-03_094959634447_rgbf000088-resize_2/002788_2014-06-22_19-36-03_094959634447_rgbf000088-resize_2-target.png,125,1.6465,80,4344,126,meters,jsons/VE125_randls_58_rotated.json,1989689,2108644,22,Man
10,240096,DepthScenes,duration_manipulation_targetAtFixation,jsons/VE125_randls_58_rotated.json,http://54.235.29.9/FacialAge/BNav_EC2/DepthDuration/v2_depth_duration_MTurk/v2_DepthDuration_HTML.html#3,3,1366,768,1366,768,9-4-2022,12-57-3,11,depth_duration_stimuli/002323_2014-06-28_20-01-54_260595134347_rgbf000051-resize_4/002323_2014-06-28_20-01-54_260595134347_rgbf000051-resize_4-target.png,125,3.7310000000000003,67,14365,125,meters,jsons/VE125_randls_58_rotated.json,1989689,2108644,22,Man
11,240096,DepthScenes,duration_manipulation_targetAtFixation,jsons/VE125_randls_58_rotated.json,http://54.235.29.9/FacialAge/BNav_EC2/DepthDuration/v2_depth_duration_MTurk/v2_DepthDuration_HTML.html#3,3,1366,768,1366,768,9-4-2022,12-57-3,12,depth_duration_stimuli/000917_2014-06-09_22-45-29_260595134347_rgbf000149-resize_3/000917_2014-06-09_22-45-29_260595134347_rgbf000149-resize_3-target.png,125,4.1865,50,4225,125,meters,jsons/VE125_randls_58_rotated.json,1989689,2108644,22,Man
12,240096,DepthScenes,duration_manipulation_targetAtFixation,jsons/VE125_randls_58_rotated.json,http://54.235.29.9/FacialAge/BNav_EC2/DepthDuration/v2_depth_duration_MTurk/v2_DepthDuration_HTML.html#3,3,1366,768,1366,768,9-4-2022,12-57-3,13,depth_duration_stimuli/002136_2014-06-25_21-18-03_260595134347_rgbf000109-resize_3/002136_2014-06-25_21-18-03_260595134347_rgbf000109-resize_3-target.png,125,1.9569999999999999,80,13330,124,meters,jsons/VE125_randls_58_rotated.json,1989689,2108644,22,Man
13,240096,DepthScenes,duration_manipulation_targetAtFixation,jsons/VE125_randls_58_rotated.json,http://54.235.29.9/FacialAge/BNav_EC2/DepthDuration/v2_depth_duration_MTurk/v2_DepthDuration_HTML.html#3,3,1366,768,1366,768,9-4-2022,12-57-3,14,depth_duration_stimuli/002964_2014-06-08_17-46-11_094959634447_rgbf000091-resize_4/002964_2014-06-08_17-46-11_094959634447_rgbf000091-resize_4-target.png,125,1.6909999999999998,78,4019,123,meters,jsons/VE125_randls_58_rotated.json,1989689,2108644,22,Man
14,240096,DepthScenes,duration_manipulation_targetAtFixation,jsons/VE125_randls_58_rotated.json,http://54.235.29.9/FacialAge/BNav_EC2/DepthDuration/v2_depth_duration_MTurk/v2_DepthDuration_HTML.html#3,3,1366,768,1366,768,9-4-2022,12-57-3,15,depth_duration_stimuli/000635_2014-06-08_16-38-42_260595134347_rgbf000106-resize_1/000635_2014-06-08_16-38-42_260595134347_rgbf000106-resize_1-target.png,125,2.074,90,11616,125,meters,jsons/VE125_randls_58_rotated.json,1989689,2108644,22,Man
15,240096,DepthScenes,duration_manipulation_targetAtFixation,jsons/VE125_randls_58_rotated.json,http://54.235.29.9/FacialAge/BNav_EC2/DepthDuration/v2_depth_duration_MTurk/v2_DepthDuration_HTML.html#3,3,1366,768,1366,768,9-4-2022,12-57-3,16,depth_duration_stimuli/002279_2014-06-28_18-55-32_260595134347_rgbf000040-resize_5/002279_2014-06-28_18-55-32_260595134347_rgbf000040-resize_5-target.png,125,1.5043333333333,75,4026,125,meters,jsons/VE125_randls_58_rotated.json,1989689,2108644,22,Man
16,240096,DepthScenes,duration_manipulation_targetAtFixation,jsons/VE125_randls_58_rotated.json,http://54.235.29.9/FacialAge/BNav_EC2/DepthDuration/v2_depth_duration_MTurk/v2_DepthDuration_HTML.html#3,3,1366,768,1366,768,9-4-2022,12-57-3,17,depth_duration_stimuli/000709_2014-06-08_13-51-55_260595134347_rgbf000068-resize_3/000709_2014-06-08_13-51-55_260595134347_rgbf000068-resize_3-target.png,125,1.8030000000000002,80,10020,124,meters,jsons/VE125_randls_58_rotated.json,1989689,2108644,22,Man
17,240096,DepthScenes,duration_manipulation_targetAtFixation,jsons/VE125_randls_58_rotated.json,http://54.235.29.9/FacialAge/BNav_EC2/DepthDuration/v2_depth_duration_MTurk/v2_DepthDuration_HTML.html#3,3,1366,768,1366,768,9-4-2022,12-57-3,18,depth_duration_stimuli/002057_2014-06-24_21-00-13_260595134347_rgbf000120-resize_1/002057_2014-06-24_21-00-13_260595134347_rgbf000120-resize_1-target.png,125,2.967,79,3576,127,meters,jsons/VE125_randls_58_rotated.json,1989689,2108644,22,Man
18,240096,DepthScenes,duration_manipulation_targetAtFixation,jsons/VE125_randls_58_rotated.json,http://54.235.29.9/FacialAge/BNav_EC2/DepthDuration/v2_depth_duration_MTurk/v2_DepthDuration_HTML.html#3,3,1366,768,1366,768,9-4-2022,12-57-3,19,depth_duration_stimuli/001498_2014-06-19_17-45-14_260595134347_rgbf000129-resize_4/001498_2014-06-19_17-45-14_260595134347_rgbf000129-resize-original.jpg,125,1.4075,0,9092,125,meters,jsons/VE125_randls_58_rotated.json,1989689,2108644,22,Man
19,240096,DepthScenes,duration_manipulation_targetAtFixation,jsons/VE125_randls_58_rotated.json,http://54.235.29.9/FacialAge/BNav_EC2/DepthDuration/v2_depth_duration_MTurk/v2_DepthDuration_HTML.html#3,3,1366,768,1366,768,9-4-2022,12-57-3,20,depth_duration_stimuli/002875_2014-06-01_15-19-00_094959634447_rgbf000151-resize_1/002875_2014-06-01_15-19-00_094959634447_rgbf000151-resize_1-target.png,125,1.9675,85,4366,124,meters,jsons/VE125_randls_58_rotated.json,1989689,2108644,22,Man
20,240096,DepthScenes,duration_manipulation_targetAtFixation,jsons/VE125_randls_58_rotated.json,http://54.235.29.9/FacialAge/BNav_EC2/DepthDuration/v2_depth_duration_MTurk/v2_DepthDuration_HTML.html#3,3,1366,768,1366,768,9-4-2022,12-57-3,21,depth_duration_stimuli/001011_2014-06-08_23-18-54_260595134347_rgbf000044-resize_4/001011_2014-06-08_23-18-54_260595134347_rgbf000044-resize_4-target.png,125,2.4730000000000003,90,3138,125,meters,jsons/VE125_randls_58_rotated.json,1989689,2108644,22,Man
21,240096,DepthScenes,duration_manipulation_targetAtFixation,jsons/VE125_randls_58_rotated.json,http://54.235.29.9/FacialAge/BNav_EC2/DepthDuration/v2_depth_duration_MTurk/v2_DepthDuration_HTML.html#3,3,1366,768,1366,768,9-4-2022,12-57-3,22,depth_duration_stimuli/000866_2014-06-09_20-45-42_260595134347_rgbf000139-resize_1/000866_2014-06-09_20-45-42_260595134347_rgbf000139-resize_1-target.png,125,3.2155,98,5959,124,meters,jsons/VE125_randls_58_rotated.json,1989689,2108644,22,Man
22,240096,DepthScenes,duration_manipulation_targetAtFixation,jsons/VE125_randls_58_rotated.json,http://54.235.29.9/FacialAge/BNav_EC2/DepthDuration/v2_depth_duration_MTurk/v2_DepthDuration_HTML.html#3,3,1366,768,1366,768,9-4-2022,12-57-3,23,depth_duration_stimuli/002989_2014-06-15_12-25-03_094959634447_rgbf000150-resize_3/002989_2014-06-15_12-25-03_094959634447_rgbf000150-resize_3-target.png,125,4.1975,60,6455,125,meters,jsons/VE125_randls_58_rotated.json,1989689,2108644,22,Man
23,240096,DepthScenes,duration_manipulation_targetAtFixation,jsons/VE125_randls_58_rotated.json,http://54.235.29.9/FacialAge/BNav_EC2/DepthDuration/v2_depth_duration_MTurk/v2_DepthDuration_HTML.html#3,3,1366,768,1366,768,9-4-2022,12-57-3,24,depth_duration_stimuli/000109_2014-05-14_23-41-52_260595134347_rgbf000035-resize_9/000109_2014-05-14_23-41-52_260595134347_rgbf000035-resize_9-target.png,125,1.3545,70,11061,124,meters,jsons/VE125_randls_58_rotated.json,1989689,2108644,22,Man
24,240096,DepthScenes,duration_manipulation_targetAtFixation,jsons/VE125_randls_58_rotated.json,http://54.235.29.9/FacialAge/BNav_EC2/DepthDuration/v2_depth_duration_MTurk/v2_DepthDuration_HTML.html#3,3,1366,768,1366,768,9-4-2022,12-57-3,25,depth_duration_stimuli/000470_2014-06-09_19-42-40_260595134347_rgbf000094-resize_1/000470_2014-06-09_19-42-40_260595134347_rgbf000094-resize_1-target.png,125,1.831,90,3773,125,meters,jsons/VE125_randls_58_rotated.json,1989689,2108644,22,Man
25,240096,DepthScenes,duration_manipulation_targetAtFixation,jsons/VE125_randls_58_rotated.json,http://54.235.29.9/FacialAge/BNav_EC2/DepthDuration/v2_depth_duration_MTurk/v2_DepthDuration_HTML.html#3,3,1366,768,1366,768,9-4-2022,12-57-3,26,depth_duration_stimuli/003587_2014-05-23_16-48-02_094959634447_rgbf002384-resize_2/003587_2014-05-23_16-48-02_094959634447_rgbf002384-resize_2-target.png,125,1.357,75,11665,125,meters,jsons/VE125_randls_58_rotated.json,1989689,2108644,22,Man
26,240096,DepthScenes,duration_manipulation_targetAtFixation,jsons/VE125_randls_58_rotated.json,http://54.235.29.9/FacialAge/BNav_EC2/DepthDuration/v2_depth_duration_MTurk/v2_DepthDuration_HTML.html#3,3,1366,768,1366,768,9-4-2022,12-57-3,27,depth_duration_stimuli/001167_2014-06-17_15-38-07_260595134347_rgbf000108-resize_0/001167_2014-06-17_15-38-07_260595134347_rgbf000108-resize_0-target.png,125,1.8505,80,3899,124,meters,jsons/VE125_randls_58_rotated.json,1989689,2108644,22,Man
27,240096,DepthScenes,duration_manipulation_targetAtFixation,jsons/VE125_randls_58_rotated.json,http://54.235.29.9/FacialAge/BNav_EC2/DepthDuration/v2_depth_duration_MTurk/v2_DepthDuration_HTML.html#3,3,1366,768,1366,768,9-4-2022,12-57-3,28,depth_duration_stimuli/002103_2014-06-25_20-00-40_260595134347_rgbf000049-resize_0/002103_2014-06-25_20-00-40_260595134347_rgbf000049-resize_0-target.png,125,4.105,70,15334,125,meters,jsons/VE125_randls_58_rotated.json,1989689,2108644,22,Man
28,240096,DepthScenes,duration_manipulation_targetAtFixation,jsons/VE125_randls_58_rotated.json,http://54.235.29.9/FacialAge/BNav_EC2/DepthDuration/v2_depth_duration_MTurk/v2_DepthDuration_HTML.html#3,3,1366,768,1366,768,9-4-2022,12-57-3,29,depth_duration_stimuli/002039_2014-06-24_20-22-38_260595134347_rgbf000084-resize_1/002039_2014-06-24_20-22-38_260595134347_rgbf000084-resize_1-target.png,125,4.408,69,3811,126,meters,jsons/VE125_randls_58_rotated.json,1989689,2108644,22,Man
29,240096,DepthScenes,duration_manipulation_targetAtFixation,jsons/VE125_randls_58_rotated.json,http://54.235.29.9/FacialAge/BNav_EC2/DepthDuration/v2_depth_duration_MTurk/v2_DepthDuration_HTML.html#3,3,1366,768,1366,768,9-4-2022,12-57-3,30,depth_duration_stimuli/002072_2014-06-24_21-48-06_260595134347_rgbf000115-resize_0/002072_2014-06-24_21-48-06_260595134347_rgbf000115-resize-original.jpg,125,4.702,0,8792,124,meters,jsons/VE125_randls_58_rotated.json,1989689,2108644,22,Man
30,240096,DepthScenes,duration_manipulation_targetAtFixation,jsons/VE125_randls_58_rotated.json,http://54.235.29.9/FacialAge/BNav_EC2/DepthDuration/v2_depth_duration_MTurk/v2_DepthDuration_HTML.html#3,3,1366,768,1366,768,9-4-2022,12-57-3,31,depth_duration_stimuli/003129_2014-05-12_10-48-10_094959634447_rgbf000100-resize_0/003129_2014-05-12_10-48-10_094959634447_rgbf000100-resize_0-target.png,125,4.9305,80,12278,125,meters,jsons/VE125_randls_58_rotated.json,1989689,2108644,22,Man
31,240096,DepthScenes,duration_manipulation_targetAtFixation,jsons/VE125_randls_58_rotated.json,http://54.235.29.9/FacialAge/BNav_EC2/DepthDuration/v2_depth_duration_MTurk/v2_DepthDuration_HTML.html#3,3,1366,768,1366,768,9-4-2022,12-57-3,32,depth_duration_stimuli/000414_2014-06-04_19-49-13_260595134347_rgbf000044-resize_0/000414_2014-06-04_19-49-13_260595134347_rgbf000044-resize_0-target.png,125,4.329,78,3904,123,meters,jsons/VE125_randls_58_rotated.json,1989689,2108644,22,Man
32,240096,DepthScenes,duration_manipulation_targetAtFixation,jsons/VE125_randls_58_rotated.json,http://54.235.29.9/FacialAge/BNav_EC2/DepthDuration/v2_depth_duration_MTurk/v2_DepthDuration_HTML.html#3,3,1366,768,1366,768,9-4-2022,12-57-3,33,depth_duration_stimuli/002637_2014-06-24_14-51-13_094959634447_rgbf000066-resize_4/002637_2014-06-24_14-51-13_094959634447_rgbf000066-resize_4-target.png,125,1.9955,60,11348,125,meters,jsons/VE125_randls_58_rotated.json,1989689,2108644,22,Man
33,240096,DepthScenes,duration_manipulation_targetAtFixation,jsons/VE125_randls_58_rotated.json,http://54.235.29.9/FacialAge/BNav_EC2/DepthDuration/v2_depth_duration_MTurk/v2_DepthDuration_HTML.html#3,3,1366,768,1366,768,9-4-2022,12-57-3,34,depth_duration_stimuli/003534_2014-05-22_15-06-10_094959634447_rgbf000102-resize_4/003534_2014-05-22_15-06-10_094959634447_rgbf000102-resize_4-target.png,125,1.426,70,3661,124,meters,jsons/VE125_randls_58_rotated.json,1989689,2108644,22,Man
34,240096,DepthScenes,duration_manipulation_targetAtFixation,jsons/VE125_randls_58_rotated.json,http://54.235.29.9/FacialAge/BNav_EC2/DepthDuration/v2_depth_duration_MTurk/v2_DepthDuration_HTML.html#3,3,1366,768,1366,768,9-4-2022,12-57-3,35,depth_duration_stimuli/002953_2014-06-08_17-32-18_094959634447_rgbf000059-resize_5/002953_2014-06-08_17-32-18_094959634447_rgbf000059-resize_5-target.png,125,1.551,55,11174,124,meters,jsons/VE125_randls_58_rotated.json,1989689,2108644,22,Man
35,240096,DepthScenes,duration_manipulation_targetAtFixation,jsons/VE125_randls_58_rotated.json,http://54.235.29.9/FacialAge/BNav_EC2/DepthDuration/v2_depth_duration_MTurk/v2_DepthDuration_HTML.html#3,3,1366,768,1366,768,9-4-2022,12-57-3,36,depth_duration_stimuli/000878_2014-06-08_22-52-45_260595134347_rgbf000045-resize_2/000878_2014-06-08_22-52-45_260595134347_rgbf000045-resize_2-target.png,125,2.092,68,4849,125,meters,jsons/VE125_randls_58_rotated.json,1989689,2108644,22,Man
36,240096,DepthScenes,duration_manipulation_targetAtFixation,jsons/VE125_randls_58_rotated.json,http://54.235.29.9/FacialAge/BNav_EC2/DepthDuration/v2_depth_duration_MTurk/v2_DepthDuration_HTML.html#3,3,1366,768,1366,768,9-4-2022,12-57-3,37,depth_duration_stimuli/002750_2014-06-22_19-08-03_094959634447_rgbf000094-resize_4/002750_2014-06-22_19-08-03_094959634447_rgbf000094-resize_4-target.png,125,2.354,85,13390,125,meters,jsons/VE125_randls_58_rotated.json,1989689,2108644,22,Man
37,240096,DepthScenes,duration_manipulation_targetAtFixation,jsons/VE125_randls_58_rotated.json,http://54.235.29.9/FacialAge/BNav_EC2/DepthDuration/v2_depth_duration_MTurk/v2_DepthDuration_HTML.html#3,3,1366,768,1366,768,9-4-2022,12-57-3,38,depth_duration_stimuli/002549_2014-06-24_13-41-39_094959634447_rgbf000022-resize_3/002549_2014-06-24_13-41-39_094959634447_rgbf000022-resize_3-target.png,125,1.476,78,3896,124,meters,jsons/VE125_randls_58_rotated.json,1989689,2108644,22,Man
38,240096,DepthScenes,duration_manipulation_targetAtFixation,jsons/VE125_randls_58_rotated.json,http://54.235.29.9/FacialAge/BNav_EC2/DepthDuration/v2_depth_duration_MTurk/v2_DepthDuration_HTML.html#3,3,1366,768,1366,768,9-4-2022,12-57-3,39,depth_duration_stimuli/003010_2014-06-15_12-54-35_094959634447_rgbf000112-resize_0/003010_2014-06-15_12-54-35_094959634447_rgbf000112-resize_0-target.png,125,3.1185,45,14641,118,meters,jsons/VE125_randls_58_rotated.json,1989689,2108644,22,Man
39,240096,DepthScenes,duration_manipulation_targetAtFixation,jsons/VE125_randls_58_rotated.json,http://54.235.29.9/FacialAge/BNav_EC2/DepthDuration/v2_depth_duration_MTurk/v2_DepthDuration_HTML.html#3,3,1366,768,1366,768,9-4-2022,12-57-3,40,depth_duration_stimuli/001810_2014-06-26_20-51-35_260595134347_rgbf000040-resize_3/001810_2014-06-26_20-51-35_260595134347_rgbf000040-resize_3-target.png,125,2.2525,67,3619,124,meters,jsons/VE125_randls_58_rotated.json,1989689,2108644,22,Man
40,240096,DepthScenes,duration_manipulation_targetAtFixation,jsons/VE125_randls_58_rotated.json,http://54.235.29.9/FacialAge/BNav_EC2/DepthDuration/v2_depth_duration_MTurk/v2_DepthDuration_HTML.html#3,3,1366,768,1366,768,9-4-2022,12-57-3,41,depth_duration_stimuli/000927_2014-06-09_16-32-30_260595134347_rgbf000123-resize_3/000927_2014-06-09_16-32-30_260595134347_rgbf000123-resize_3-target.png,125,2.6785,90,5014,118,meters,jsons/VE125_randls_58_rotated.json,1989689,2108644,22,Man
41,240096,DepthScenes,duration_manipulation_targetAtFixation,jsons/VE125_randls_58_rotated.json,http://54.235.29.9/FacialAge/BNav_EC2/DepthDuration/v2_depth_duration_MTurk/v2_DepthDuration_HTML.html#3,3,1366,768,1366,768,9-4-2022,12-57-3,42,depth_duration_stimuli/001110_2014-06-15_17-25-28_260595134347_rgbf000150-resize_1/001110_2014-06-15_17-25-28_260595134347_rgbf000150-resize_1-target.png,125,1.7115,40,3545,125,meters,jsons/VE125_randls_58_rotated.json,1989689,2108644,22,Man
42,240096,DepthScenes,duration_manipulation_targetAtFixation,jsons/VE125_randls_58_rotated.json,http://54.235.29.9/FacialAge/BNav_EC2/DepthDuration/v2_depth_duration_MTurk/v2_DepthDuration_HTML.html#3,3,1366,768,1366,768,9-4-2022,12-57-3,43,depth_duration_stimuli/000137_2014-05-20_17-04-49_260595134347_rgbf000120-resize_1/000137_2014-05-20_17-04-49_260595134347_rgbf000120-resize_1-target.png,125,3.786,60,16049,124,meters,jsons/VE125_randls_58_rotated.json,1989689,2108644,22,Man
43,240096,DepthScenes,duration_manipulation_targetAtFixation,jsons/VE125_randls_58_rotated.json,http://54.235.29.9/FacialAge/BNav_EC2/DepthDuration/v2_depth_duration_MTurk/v2_DepthDuration_HTML.html#3,3,1366,768,1366,768,9-4-2022,12-57-3,44,depth_duration_stimuli/000736_2014-06-08_18-24-15_260595134347_rgbf000206-resize_3/000736_2014-06-08_18-24-15_260595134347_rgbf000206-resize_3-target.png,125,3.515,55,4182,124,meters,jsons/VE125_randls_58_rotated.json,1989689,2108644,22,Man
44,240096,DepthScenes,duration_manipulation_targetAtFixation,jsons/VE125_randls_58_rotated.json,http://54.235.29.9/FacialAge/BNav_EC2/DepthDuration/v2_depth_duration_MTurk/v2_DepthDuration_HTML.html#3,3,1366,768,1366,768,9-4-2022,12-57-3,45,depth_duration_stimuli/001136_2014-06-17_15-19-41_260595134347_rgbf000076-resize_3/001136_2014-06-17_15-19-41_260595134347_rgbf000076-resize_3-target.png,125,1.8655,89,3466,124,meters,jsons/VE125_randls_58_rotated.json,1989689,2108644,22,Man
45,240096,DepthScenes,duration_manipulation_targetAtFixation,jsons/VE125_randls_58_rotated.json,http://54.235.29.9/FacialAge/BNav_EC2/DepthDuration/v2_depth_duration_MTurk/v2_DepthDuration_HTML.html#3,3,1366,768,1366,768,9-4-2022,12-57-3,46,depth_duration_stimuli/001164_2014-06-17_15-35-46_260595134347_rgbf000085-resize_3/001164_2014-06-17_15-35-46_260595134347_rgbf000085-resize_3-target.png,125,2.354,80,15858,125,meters,jsons/VE125_randls_58_rotated.json,1989689,2108644,22,Man
46,240096,DepthScenes,duration_manipulation_targetAtFixation,jsons/VE125_randls_58_rotated.json,http://54.235.29.9/FacialAge/BNav_EC2/DepthDuration/v2_depth_duration_MTurk/v2_DepthDuration_HTML.html#3,3,1366,768,1366,768,9-4-2022,12-57-3,47,depth_duration_stimuli/002639_2014-06-24_14-51-37_094959634447_rgbf000074-resize_4/002639_2014-06-24_14-51-37_094959634447_rgbf000074-resize_4-target.png,125,4.0375,60,13722,125,meters,jsons/VE125_randls_58_rotated.json,1989689,2108644,22,Man
47,240096,DepthScenes,duration_manipulation_targetAtFixation,jsons/VE125_randls_58_rotated.json,http://54.235.29.9/FacialAge/BNav_EC2/DepthDuration/v2_depth_duration_MTurk/v2_DepthDuration_HTML.html#3,3,1366,768,1366,768,9-4-2022,12-57-3,48,depth_duration_stimuli/003292_2014-05-14_21-53-49_094959634447_rgbf000100-resize_2/003292_2014-05-14_21-53-49_094959634447_rgbf000100-resize_2-target.png,125,3.4815,79,4224,125,meters,jsons/VE125_randls_58_rotated.json,1989689,2108644,22,Man
48,240096,DepthScenes,duration_manipulation_targetAtFixation,jsons/VE125_randls_58_rotated.json,http://54.235.29.9/FacialAge/BNav_EC2/DepthDuration/v2_depth_duration_MTurk/v2_DepthDuration_HTML.html#3,3,1366,768,1366,768,9-4-2022,12-57-3,49,depth_duration_stimuli/001170_2014-06-17_15-43-44_260595134347_rgbf000096-resize_6/001170_2014-06-17_15-43-44_260595134347_rgbf000096-resize-original.jpg,125,1.1909999999999998,0,11140,123,meters,jsons/VE125_randls_58_rotated.json,1989689,2108644,22,Man
49,240096,DepthScenes,duration_manipulation_targetAtFixation,jsons/VE125_randls_58_rotated.json,http://54.235.29.9/FacialAge/BNav_EC2/DepthDuration/v2_depth_duration_MTurk/v2_DepthDuration_HTML.html#3,3,1366,768,1366,768,9-4-2022,12-57-3,50,depth_duration_stimuli/000409_2014-06-04_19-23-33_260595134347_rgbf000067-resize_0/000409_2014-06-04_19-23-33_260595134347_rgbf000067-resize_0-target.png,125,3.7335,59,11139,124,meters,jsons/VE125_randls_58_rotated.json,1989689,2108644,22,Man
50,240096,DepthScenes,duration_manipulation_targetAtFixation,jsons/VE125_randls_58_rotated.json,http://54.235.29.9/FacialAge/BNav_EC2/DepthDuration/v2_depth_duration_MTurk/v2_DepthDuration_HTML.html#3,3,1366,768,1366,768,9-4-2022,12-57-3,51,depth_duration_stimuli/002663_2014-06-13_15-50-26_094959634447_rgbf000075-resize_1/002663_2014-06-13_15-50-26_094959634447_rgbf000075-resize_1-target.png,125,4.7495,80,3745,126,meters,jsons/VE125_randls_58_rotated.json,1989689,2108644,22,Man
51,240096,DepthScenes,duration_manipulation_targetAtFixation,jsons/VE125_randls_58_rotated.json,http://54.235.29.9/FacialAge/BNav_EC2/DepthDuration/v2_depth_duration_MTurk/v2_DepthDuration_HTML.html#3,3,1366,768,1366,768,9-4-2022,12-57-3,52,depth_duration_stimuli/000556_2014-06-09_22-42-56_260595134347_rgbf000214-resize_1/000556_2014-06-09_22-42-56_260595134347_rgbf000214-resize_1-target.png,125,4.8415,89,9383,125,meters,jsons/VE125_randls_58_rotated.json,1989689,2108644,22,Man
52,240096,DepthScenes,duration_manipulation_targetAtFixation,jsons/VE125_randls_58_rotated.json,http://54.235.29.9/FacialAge/BNav_EC2/DepthDuration/v2_depth_duration_MTurk/v2_DepthDuration_HTML.html#3,3,1366,768,1366,768,9-4-2022,12-57-3,53,depth_duration_stimuli/001158_2014-06-17_15-32-16_260595134347_rgbf000138-resize_2/001158_2014-06-17_15-32-16_260595134347_rgbf000138-resize_2-target.png,125,4.5315,59,3608,123,meters,jsons/VE125_randls_58_rotated.json,1989689,2108644,22,Man
53,240096,DepthScenes,duration_manipulation_targetAtFixation,jsons/VE125_randls_58_rotated.json,http://54.235.29.9/FacialAge/BNav_EC2/DepthDuration/v2_depth_duration_MTurk/v2_DepthDuration_HTML.html#3,3,1366,768,1366,768,9-4-2022,12-57-3,54,depth_duration_stimuli/001032_2014-06-08_13-23-17_260595134347_rgbf000021-resize_3/001032_2014-06-08_13-23-17_260595134347_rgbf000021-resize_3-target.png,125,3.2725,60,9579,125,meters,jsons/VE125_randls_58_rotated.json,1989689,2108644,22,Man
54,240096,DepthScenes,duration_manipulation_targetAtFixation,jsons/VE125_randls_58_rotated.json,http://54.235.29.9/FacialAge/BNav_EC2/DepthDuration/v2_depth_duration_MTurk/v2_DepthDuration_HTML.html#3,3,1366,768,1366,768,9-4-2022,12-57-3,55,depth_duration_stimuli/001059_2014-06-08_21-53-27_260595134347_rgbf000061-resize_4/001059_2014-06-08_21-53-27_260595134347_rgbf000061-resize_4-target.png,125,2.4185,90,3707,125,meters,jsons/VE125_randls_58_rotated.json,1989689,2108644,22,Man
55,240096,DepthScenes,duration_manipulation_targetAtFixation,jsons/VE125_randls_58_rotated.json,http://54.235.29.9/FacialAge/BNav_EC2/DepthDuration/v2_depth_duration_MTurk/v2_DepthDuration_HTML.html#3,3,1366,768,1366,768,9-4-2022,12-57-3,56,depth_duration_stimuli/002209_2014-06-28_18-36-10_260595134347_rgbf000051-resize_1/002209_2014-06-28_18-36-10_260595134347_rgbf000051-resize_1-target.png,125,2.057,47,3938,133,meters,jsons/VE125_randls_58_rotated.json,1989689,2108644,22,Man
56,240096,DepthScenes,duration_manipulation_targetAtFixation,jsons/VE125_randls_58_rotated.json,http://54.235.29.9/FacialAge/BNav_EC2/DepthDuration/v2_depth_duration_MTurk/v2_DepthDuration_HTML.html#3,3,1366,768,1366,768,9-4-2022,12-57-3,57,depth_duration_stimuli/002763_2014-06-22_19-13-10_094959634447_rgbf000075-resize_4/002763_2014-06-22_19-13-10_094959634447_rgbf000075-resize_4-target.png,125,1.68375,70,17415,125,meters,jsons/VE125_randls_58_rotated.json,1989689,2108644,22,Man
57,240096,DepthScenes,duration_manipulation_targetAtFixation,jsons/VE125_randls_58_rotated.json,http://54.235.29.9/FacialAge/BNav_EC2/DepthDuration/v2_depth_duration_MTurk/v2_DepthDuration_HTML.html#3,3,1366,768,1366,768,9-4-2022,12-57-3,58,depth_duration_stimuli/000549_2014-06-08_22-10-24_260595134347_rgbf000247-resize_3/000549_2014-06-08_22-10-24_260595134347_rgbf000247-resize_3-target.png,125,1.841,89,15945,124,meters,jsons/VE125_randls_58_rotated.json,1989689,2108644,22,Man
58,240096,DepthScenes,duration_manipulation_targetAtFixation,jsons/VE125_randls_58_rotated.json,http://54.235.29.9/FacialAge/BNav_EC2/DepthDuration/v2_depth_duration_MTurk/v2_DepthDuration_HTML.html#3,3,1366,768,1366,768,9-4-2022,12-57-3,59,depth_duration_stimuli/001055_2014-06-08_18-45-35_260595134347_rgbf000111-resize_4/001055_2014-06-08_18-45-35_260595134347_rgbf000111-resize_4-target.png,125,2.4290000000000003,0,3610,124,meters,jsons/VE125_randls_58_rotated.json,1989689,2108644,22,Man
59,240096,DepthScenes,duration_manipulation_targetAtFixation,jsons/VE125_randls_58_rotated.json,http://54.235.29.9/FacialAge/BNav_EC2/DepthDuration/v2_depth_duration_MTurk/v2_DepthDuration_HTML.html#3,3,1366,768,1366,768,9-4-2022,12-57-3,60,depth_duration_stimuli/002758_2014-06-22_19-11-20_094959634447_rgbf000128-resize_1/002758_2014-06-22_19-11-20_094959634447_rgbf000128-resize_1-target.png,125,2.555,60,12657,125,meters,jsons/VE125_randls_58_rotated.json,1989689,2108644,22,Man
60,240096,DepthScenes,duration_manipulation_targetAtFixation,jsons/VE125_randls_58_rotated.json,http://54.235.29.9/FacialAge/BNav_EC2/DepthDuration/v2_depth_duration_MTurk/v2_DepthDuration_HTML.html#3,3,1366,768,1366,768,9-4-2022,12-57-3,61,depth_duration_stimuli/002630_2014-06-24_14-47-50_094959634447_rgbf000055-resize_1/002630_2014-06-24_14-47-50_094959634447_rgbf000055-resize_1-target.png,125,3.0095,200,5689,124,meters,jsons/VE125_randls_58_rotated.json,1989689,2108644,22,Man
61,240096,DepthScenes,duration_manipulation_targetAtFixation,jsons/VE125_randls_58_rotated.json,http://54.235.29.9/FacialAge/BNav_EC2/DepthDuration/v2_depth_duration_MTurk/v2_DepthDuration_HTML.html#3,3,1366,768,1366,768,9-4-2022,12-57-3,62,depth_duration_stimuli/001828_2014-06-26_21-40-03_260595134347_rgbf000024-resize_0/001828_2014-06-26_21-40-03_260595134347_rgbf000024-resize_0-target.png,125,4.8260000000000005,67,19517,125,meters,jsons/VE125_randls_58_rotated.json,1989689,2108644,22,Man
62,240096,DepthScenes,duration_manipulation_targetAtFixation,jsons/VE125_randls_58_rotated.json,http://54.235.29.9/FacialAge/BNav_EC2/DepthDuration/v2_depth_duration_MTurk/v2_DepthDuration_HTML.html#3,3,1366,768,1366,768,9-4-2022,12-57-3,63,depth_duration_stimuli/000009_2014-05-26_14-32-05_260595134347_rgbf000034-resize_3/000009_2014-05-26_14-32-05_260595134347_rgbf000034-resize_3-target.png,125,3.8715,80,3721,125,meters,jsons/VE125_randls_58_rotated.json,1989689,2108644,22,Man
63,240096,DepthScenes,duration_manipulation_targetAtFixation,jsons/VE125_randls_58_rotated.json,http://54.235.29.9/FacialAge/BNav_EC2/DepthDuration/v2_depth_duration_MTurk/v2_DepthDuration_HTML.html#3,3,1366,768,1366,768,9-4-2022,12-57-3,64,depth_duration_stimuli/003079_2014-06-15_15-18-20_094959634447_rgbf000152-resize_8/003079_2014-06-15_15-18-20_094959634447_rgbf000152-resize_8-target.png,125,2.8775,78,5066,125,meters,jsons/VE125_randls_58_rotated.json,1989689,2108644,22,Man
64,240096,DepthScenes,duration_manipulation_targetAtFixation,jsons/VE125_randls_58_rotated.json,http://54.235.29.9/FacialAge/BNav_EC2/DepthDuration/v2_depth_duration_MTurk/v2_DepthDuration_HTML.html#3,3,1366,768,1366,768,9-4-2022,12-57-3,65,depth_duration_stimuli/000506_2014-06-08_23-21-00_260595134347_rgbf000070-resize_7/000506_2014-06-08_23-21-00_260595134347_rgbf000070-resize_7-target.png,125,4.0585,89,20698,123,meters,jsons/VE125_randls_58_rotated.json,1989689,2108644,22,Man
65,240096,DepthScenes,duration_manipulation_targetAtFixation,jsons/VE125_randls_58_rotated.json,http://54.235.29.9/FacialAge/BNav_EC2/DepthDuration/v2_depth_duration_MTurk/v2_DepthDuration_HTML.html#3,3,1366,768,1366,768,9-4-2022,12-57-3,66,depth_duration_stimuli/001540_2014-06-20_17-01-05_260595134347_rgbf000086-resize_2/001540_2014-06-20_17-01-05_260595134347_rgbf000086-resize-original.jpg,125,1.459,0,23819,124,meters,jsons/VE125_randls_58_rotated.json,1989689,2108644,22,Man
66,240096,DepthScenes,duration_manipulation_targetAtFixation,jsons/VE125_randls_58_rotated.json,http://54.235.29.9/FacialAge/BNav_EC2/DepthDuration/v2_depth_duration_MTurk/v2_DepthDuration_HTML.html#3,3,1366,768,1366,768,9-4-2022,12-57-3,67,depth_duration_stimuli/003423_2014-05-21_10-23-26_094959634447_rgbf002665-resize_2/003423_2014-05-21_10-23-26_094959634447_rgbf002665-resize_2-target.png,125,3.2575,78,15098,125,meters,jsons/VE125_randls_58_rotated.json,1989689,2108644,22,Man
67,240096,DepthScenes,duration_manipulation_targetAtFixation,jsons/VE125_randls_58_rotated.json,http://54.235.29.9/FacialAge/BNav_EC2/DepthDuration/v2_depth_duration_MTurk/v2_DepthDuration_HTML.html#3,3,1366,768,1366,768,9-4-2022,12-57-3,68,depth_duration_stimuli/002905_2014-06-03_18-04-43_094959634447_rgbf000151-resize_2/002905_2014-06-03_18-04-43_094959634447_rgbf000151-resize_2-target.png,125,2.0295,55,5450,123,meters,jsons/VE125_randls_58_rotated.json,1989689,2108644,22,Man
68,240096,DepthScenes,duration_manipulation_targetAtFixation,jsons/VE125_randls_58_rotated.json,http://54.235.29.9/FacialAge/BNav_EC2/DepthDuration/v2_depth_duration_MTurk/v2_DepthDuration_HTML.html#3,3,1366,768,1366,768,9-4-2022,12-57-3,69,depth_duration_stimuli/000854_2014-06-09_19-43-13_260595134347_rgbf000066-resize_0/000854_2014-06-09_19-43-13_260595134347_rgbf000066-resize_0-target.png,125,3.068,85,17949,124,meters,jsons/VE125_randls_58_rotated.json,1989689,2108644,22,Man
69,240096,DepthScenes,duration_manipulation_targetAtFixation,jsons/VE125_randls_58_rotated.json,http://54.235.29.9/FacialAge/BNav_EC2/DepthDuration/v2_depth_duration_MTurk/v2_DepthDuration_HTML.html#3,3,1366,768,1366,768,9-4-2022,12-57-3,70,depth_duration_stimuli/000758_2014-06-08_22-05-08_260595134347_rgbf000085-resize_0/000758_2014-06-08_22-05-08_260595134347_rgbf000085-resize_0-target.png,125,3.3810000000000002,90,4817,125,meters,jsons/VE125_randls_58_rotated.json,1989689,2108644,22,Man
70,240096,DepthScenes,duration_manipulation_targetAtFixation,jsons/VE125_randls_58_rotated.json,http://54.235.29.9/FacialAge/BNav_EC2/DepthDuration/v2_depth_duration_MTurk/v2_DepthDuration_HTML.html#3,3,1366,768,1366,768,9-4-2022,12-57-3,71,depth_duration_stimuli/000502_2014-06-08_23-02-32_260595134347_rgbf000063-resize_4/000502_2014-06-08_23-02-32_260595134347_rgbf000063-resize_4-target.png,125,2.431,66,12707,125,meters,jsons/VE125_randls_58_rotated.json,1989689,2108644,22,Man
71,240096,DepthScenes,duration_manipulation_targetAtFixation,jsons/VE125_randls_58_rotated.json,http://54.235.29.9/FacialAge/BNav_EC2/DepthDuration/v2_depth_duration_MTurk/v2_DepthDuration_HTML.html#3,3,1366,768,1366,768,9-4-2022,12-57-3,72,depth_duration_stimuli/001199_2014-06-17_16-03-48_260595134347_rgbf000077-resize_0/001199_2014-06-17_16-03-48_260595134347_rgbf000077-resize_0-target.png,125,3.4375,89,4382,125,meters,jsons/VE125_randls_58_rotated.json,1989689,2108644,22,Man
72,240096,DepthScenes,duration_manipulation_targetAtFixation,jsons/VE125_randls_58_rotated.json,http://54.235.29.9/FacialAge/BNav_EC2/DepthDuration/v2_depth_duration_MTurk/v2_DepthDuration_HTML.html#3,3,1366,768,1366,768,9-4-2022,12-57-3,73,depth_duration_stimuli/001571_2014-06-20_17-21-32_260595134347_rgbf000089-resize_1/001571_2014-06-20_17-21-32_260595134347_rgbf000089-resize_1-target.png,125,1.86,90,18129,126,meters,jsons/VE125_randls_58_rotated.json,1989689,2108644,22,Man
73,240096,DepthScenes,duration_manipulation_targetAtFixation,jsons/VE125_randls_58_rotated.json,http://54.235.29.9/FacialAge/BNav_EC2/DepthDuration/v2_depth_duration_MTurk/v2_DepthDuration_HTML.html#3,3,1366,768,1366,768,9-4-2022,12-57-3,74,depth_duration_stimuli/002272_2014-06-28_18-53-56_260595134347_rgbf000067-resize_2/002272_2014-06-28_18-53-56_260595134347_rgbf000067-resize_2-target.png,125,1.138,66,4187,125,meters,jsons/VE125_randls_58_rotated.json,1989689,2108644,22,Man
74,240096,DepthScenes,duration_manipulation_targetAtFixation,jsons/VE125_randls_58_rotated.json,http://54.235.29.9/FacialAge/BNav_EC2/DepthDuration/v2_depth_duration_MTurk/v2_DepthDuration_HTML.html#3,3,1366,768,1366,768,9-4-2022,12-57-3,75,depth_duration_stimuli/002995_2014-06-15_12-31-26_094959634447_rgbf000150-resize_1/002995_2014-06-15_12-31-26_094959634447_rgbf000150-resize_1-target.png,125,3.8360000000000003,50,18619,126,meters,jsons/VE125_randls_58_rotated.json,1989689,2108644,22,Man
75,240096,DepthScenes,duration_manipulation_targetAtFixation,jsons/VE125_randls_58_rotated.json,http://54.235.29.9/FacialAge/BNav_EC2/DepthDuration/v2_depth_duration_MTurk/v2_DepthDuration_HTML.html#3,3,1366,768,1366,768,9-4-2022,12-57-3,76,depth_duration_stimuli/002748_2014-06-22_19-07-22_094959634447_rgbf000078-resize_1/002748_2014-06-22_19-07-22_094959634447_rgbf000078-resize_1-target.png,125,4.6705,78,4021,124,meters,jsons/VE125_randls_58_rotated.json,1989689,2108644,22,Man
76,240096,DepthScenes,duration_manipulation_targetAtFixation,jsons/VE125_randls_58_rotated.json,http://54.235.29.9/FacialAge/BNav_EC2/DepthDuration/v2_depth_duration_MTurk/v2_DepthDuration_HTML.html#3,3,1366,768,1366,768,9-4-2022,12-57-3,77,depth_duration_stimuli/002467_2014-06-28_20-38-07_260595134347_rgbf000026-resize_2/002467_2014-06-28_20-38-07_260595134347_rgbf000026-resize_2-target.png,125,4.742,70,17890,121,meters,jsons/VE125_randls_58_rotated.json,1989689,2108644,22,Man
77,240096,DepthScenes,duration_manipulation_targetAtFixation,jsons/VE125_randls_58_rotated.json,http://54.235.29.9/FacialAge/BNav_EC2/DepthDuration/v2_depth_duration_MTurk/v2_DepthDuration_HTML.html#3,3,1366,768,1366,768,9-4-2022,12-57-3,78,depth_duration_stimuli/002570_2014-06-24_13-59-54_094959634447_rgbf000059-resize_0/002570_2014-06-24_13-59-54_094959634447_rgbf000059-resize_0-target.png,125,4.037,91,4775,123,meters,jsons/VE125_randls_58_rotated.json,1989689,2108644,22,Man
78,240096,DepthScenes,duration_manipulation_targetAtFixation,jsons/VE125_randls_58_rotated.json,http://54.235.29.9/FacialAge/BNav_EC2/DepthDuration/v2_depth_duration_MTurk/v2_DepthDuration_HTML.html#3,3,1366,768,1366,768,9-4-2022,12-57-3,79,depth_duration_stimuli/002805_2014-06-22_19-54-03_094959634447_rgbf000079-resize_1/002805_2014-06-22_19-54-03_094959634447_rgbf000079-resize_1-target.png,125,3.1439999999999997,72,12646,125,meters,jsons/VE125_randls_58_rotated.json,1989689,2108644,22,Man
79,240096,DepthScenes,duration_manipulation_targetAtFixation,jsons/VE125_randls_58_rotated.json,http://54.235.29.9/FacialAge/BNav_EC2/DepthDuration/v2_depth_duration_MTurk/v2_DepthDuration_HTML.html#3,3,1366,768,1366,768,9-4-2022,12-57-3,80,depth_duration_stimuli/000906_2014-06-08_13-35-43_260595134347_rgbf000155-resize_1/000906_2014-06-08_13-35-43_260595134347_rgbf000155-resize_1-target.png,125,2.8489999999999998,72,6319,126,meters,jsons/VE125_randls_58_rotated.json,1989689,2108644,22,Man
80,240096,DepthScenes,duration_manipulation_targetAtFixation,jsons/VE125_randls_58_rotated.json,http://54.235.29.9/FacialAge/BNav_EC2/DepthDuration/v2_depth_duration_MTurk/v2_DepthDuration_HTML.html#3,3,1366,768,1366,768,9-4-2022,12-57-3,81,depth_duration_stimuli/001584_2014-06-20_11-07-43_260595134347_rgbf000002-resize_1/001584_2014-06-20_11-07-43_260595134347_rgbf000002-resize_1-target.png,125,3.53,30,10038,124,meters,jsons/VE125_randls_58_rotated.json,1989689,2108644,22,Man
81,240096,DepthScenes,duration_manipulation_targetAtFixation,jsons/VE125_randls_58_rotated.json,http://54.235.29.9/FacialAge/BNav_EC2/DepthDuration/v2_depth_duration_MTurk/v2_DepthDuration_HTML.html#3,3,1366,768,1366,768,9-4-2022,12-57-3,82,depth_duration_stimuli/003621_2014-05-23_18-06-08_094959634447_rgbf000101-resize_1/003621_2014-05-23_18-06-08_094959634447_rgbf000101-resize_1-target.png,125,3.9835,40,3878,125,meters,jsons/VE125_randls_58_rotated.json,1989689,2108644,22,Man
82,240096,DepthScenes,duration_manipulation_targetAtFixation,jsons/VE125_randls_58_rotated.json,http://54.235.29.9/FacialAge/BNav_EC2/DepthDuration/v2_depth_duration_MTurk/v2_DepthDuration_HTML.html#3,3,1366,768,1366,768,9-4-2022,12-57-3,83,depth_duration_stimuli/002340_2014-06-28_20-05-46_260595134347_rgbf000113-resize_0/002340_2014-06-28_20-05-46_260595134347_rgbf000113-resize_0-target.png,125,2.4735,89,11957,121,meters,jsons/VE125_randls_58_rotated.json,1989689,2108644,22,Man
83,240096,DepthScenes,duration_manipulation_targetAtFixation,jsons/VE125_randls_58_rotated.json,http://54.235.29.9/FacialAge/BNav_EC2/DepthDuration/v2_depth_duration_MTurk/v2_DepthDuration_HTML.html#3,3,1366,768,1366,768,9-4-2022,12-57-3,84,depth_duration_stimuli/001016_2014-06-09_16-16-10_260595134347_rgbf000112-resize_5/001016_2014-06-09_16-16-10_260595134347_rgbf000112-resize_5-target.png,125,1.6565,76,5811,124,meters,jsons/VE125_randls_58_rotated.json,1989689,2108644,22,Man
84,240096,DepthScenes,duration_manipulation_targetAtFixation,jsons/VE125_randls_58_rotated.json,http://54.235.29.9/FacialAge/BNav_EC2/DepthDuration/v2_depth_duration_MTurk/v2_DepthDuration_HTML.html#3,3,1366,768,1366,768,9-4-2022,12-57-3,85,depth_duration_stimuli/001132_2014-06-17_14-48-54_260595134347_rgbf000100-resize_2/001132_2014-06-17_14-48-54_260595134347_rgbf000100-resize_2-target.png,125,3.753,56,5147,131,meters,jsons/VE125_randls_58_rotated.json,1989689,2108644,22,Man
85,240096,DepthScenes,duration_manipulation_targetAtFixation,jsons/VE125_randls_58_rotated.json,http://54.235.29.9/FacialAge/BNav_EC2/DepthDuration/v2_depth_duration_MTurk/v2_DepthDuration_HTML.html#3,3,1366,768,1366,768,9-4-2022,12-57-3,86,depth_duration_stimuli/001133_2014-06-17_14-49-16_260595134347_rgbf000100-resize_0/001133_2014-06-17_14-49-16_260595134347_rgbf000100-resize_0-target.png,125,4.2115,83,5379,123,meters,jsons/VE125_randls_58_rotated.json,1989689,2108644,22,Man
86,240096,DepthScenes,duration_manipulation_targetAtFixation,jsons/VE125_randls_58_rotated.json,http://54.235.29.9/FacialAge/BNav_EC2/DepthDuration/v2_depth_duration_MTurk/v2_DepthDuration_HTML.html#3,3,1366,768,1366,768,9-4-2022,12-57-3,87,depth_duration_stimuli/002199_2014-06-28_18-33-56_260595134347_rgbf000074-resize_0/002199_2014-06-28_18-33-56_260595134347_rgbf000074-resize_0-target.png,125,1.996,90,4050,124,meters,jsons/VE125_randls_58_rotated.json,1989689,2108644,22,Man
87,240096,DepthScenes,duration_manipulation_targetAtFixation,jsons/VE125_randls_58_rotated.json,http://54.235.29.9/FacialAge/BNav_EC2/DepthDuration/v2_depth_duration_MTurk/v2_DepthDuration_HTML.html#3,3,1366,768,1366,768,9-4-2022,12-57-3,88,depth_duration_stimuli/001056_2014-06-08_18-46-44_260595134347_rgbf000068-resize_0/001056_2014-06-08_18-46-44_260595134347_rgbf000068-resize_0-target.png,125,2.6625,60,21342,125,meters,jsons/VE125_randls_58_rotated.json,1989689,2108644,22,Man
88,240096,DepthScenes,duration_manipulation_targetAtFixation,jsons/VE125_randls_58_rotated.json,http://54.235.29.9/FacialAge/BNav_EC2/DepthDuration/v2_depth_duration_MTurk/v2_DepthDuration_HTML.html#3,3,1366,768,1366,768,9-4-2022,12-57-3,89,depth_duration_stimuli/003083_2014-06-15_15-21-03_094959634447_rgbf000063-resize_1/003083_2014-06-15_15-21-03_094959634447_rgbf000063-resize_1-target.png,125,4.1405,95,25494,126,meters,jsons/VE125_randls_58_rotated.json,1989689,2108644,22,Man
89,240096,DepthScenes,duration_manipulation_targetAtFixation,jsons/VE125_randls_58_rotated.json,http://54.235.29.9/FacialAge/BNav_EC2/DepthDuration/v2_depth_duration_MTurk/v2_DepthDuration_HTML.html#3,3,1366,768,1366,768,9-4-2022,12-57-3,90,depth_duration_stimuli/000486_2014-06-09_20-47-20_260595134347_rgbf000143-resize_2/000486_2014-06-09_20-47-20_260595134347_rgbf000143-resize_2-target.png,125,4.8325,48,8295,126,meters,jsons/VE125_randls_58_rotated.json,1989689,2108644,22,Man
90,240096,DepthScenes,duration_manipulation_targetAtFixation,jsons/VE125_randls_58_rotated.json,http://54.235.29.9/FacialAge/BNav_EC2/DepthDuration/v2_depth_duration_MTurk/v2_DepthDuration_HTML.html#3,3,1366,768,1366,768,9-4-2022,12-57-3,91,depth_duration_stimuli/003048_2014-06-15_13-49-43_094959634447_rgbf000150-resize_1/003048_2014-06-15_13-49-43_094959634447_rgbf000150-resize_1-target.png,125,4.0035,49,17004,125,meters,jsons/VE125_randls_58_rotated.json,1989689,2108644,22,Man
91,240096,DepthScenes,duration_manipulation_targetAtFixation,jsons/VE125_randls_58_rotated.json,http://54.235.29.9/FacialAge/BNav_EC2/DepthDuration/v2_depth_duration_MTurk/v2_DepthDuration_HTML.html#3,3,1366,768,1366,768,9-4-2022,12-57-3,92,depth_duration_stimuli/002043_2014-06-24_20-29-38_260595134347_rgbf000039-resize_4/002043_2014-06-24_20-29-38_260595134347_rgbf000039-resize_4-target.png,125,2.8435,0,4055,126,meters,jsons/VE125_randls_58_rotated.json,1989689,2108644,22,Man
92,240096,DepthScenes,duration_manipulation_targetAtFixation,jsons/VE125_randls_58_rotated.json,http://54.235.29.9/FacialAge/BNav_EC2/DepthDuration/v2_depth_duration_MTurk/v2_DepthDuration_HTML.html#3,3,1366,768,1366,768,9-4-2022,12-57-3,93,depth_duration_stimuli/001447_2014-06-19_17-00-32_260595134347_rgbf000082-resize_5/001447_2014-06-19_17-00-32_260595134347_rgbf000082-resize_5-target.png,125,4.13775,70,18402,124,meters,jsons/VE125_randls_58_rotated.json,1989689,2108644,22,Man
93,240096,DepthScenes,duration_manipulation_targetAtFixation,jsons/VE125_randls_58_rotated.json,http://54.235.29.9/FacialAge/BNav_EC2/DepthDuration/v2_depth_duration_MTurk/v2_DepthDuration_HTML.html#3,3,1366,768,1366,768,9-4-2022,12-57-3,94,depth_duration_stimuli/000447_2014-06-08_16-15-46_260595134347_rgbf000130-resize_1/000447_2014-06-08_16-15-46_260595134347_rgbf000130-resize_1-target.png,125,4.479,90,4439,126,meters,jsons/VE125_randls_58_rotated.json,1989689,2108644,22,Man
94,240096,DepthScenes,duration_manipulation_targetAtFixation,jsons/VE125_randls_58_rotated.json,http://54.235.29.9/FacialAge/BNav_EC2/DepthDuration/v2_depth_duration_MTurk/v2_DepthDuration_HTML.html#3,3,1366,768,1366,768,9-4-2022,12-57-3,95,depth_duration_stimuli/001100_2014-06-15_17-46-26_260595134347_rgbf000225-resize_2/001100_2014-06-15_17-46-26_260595134347_rgbf000225-resize_2-target.png,125,2.24,34,70514,132,meters,jsons/VE125_randls_58_rotated.json,1989689,2108644,22,Man
95,240096,DepthScenes,duration_manipulation_targetAtFixation,jsons/VE125_randls_58_rotated.json,http://54.235.29.9/FacialAge/BNav_EC2/DepthDuration/v2_depth_duration_MTurk/v2_DepthDuration_HTML.html#3,3,1366,768,1366,768,9-4-2022,12-57-3,96,depth_duration_stimuli/002784_2014-06-22_19-26-30_094959634447_rgbf000083-resize_3/002784_2014-06-22_19-26-30_094959634447_rgbf000083-resize_3-target.png,125,1.8046666666667,89,10925,125,meters,jsons/VE125_randls_58_rotated.json,1989689,2108644,22,Man
96,240096,DepthScenes,duration_manipulation_targetAtFixation,jsons/VE125_randls_58_rotated.json,http://54.235.29.9/FacialAge/BNav_EC2/DepthDuration/v2_depth_duration_MTurk/v2_DepthDuration_HTML.html#3,3,1366,768,1366,768,9-4-2022,12-57-3,97,depth_duration_stimuli/003081_2014-06-15_15-19-16_094959634447_rgbf000150-resize_1/003081_2014-06-15_15-19-16_094959634447_rgbf000150-resize_1-target.png,125,3.9125,70,26153,124,meters,jsons/VE125_randls_58_rotated.json,1989689,2108644,22,Man
97,240096,DepthScenes,duration_manipulation_targetAtFixation,jsons/VE125_randls_58_rotated.json,http://54.235.29.9/FacialAge/BNav_EC2/DepthDuration/v2_depth_duration_MTurk/v2_DepthDuration_HTML.html#3,3,1366,768,1366,768,9-4-2022,12-57-3,98,depth_duration_stimuli/001417_2014-06-19_16-25-36_260595134347_rgbf000115-resize_5/001417_2014-06-19_16-25-36_260595134347_rgbf000115-resize_5-target.png,125,4.6255,79,5256,125,meters,jsons/VE125_randls_58_rotated.json,1989689,2108644,22,Man
98,240096,DepthScenes,duration_manipulation_targetAtFixation,jsons/VE125_randls_58_rotated.json,http://54.235.29.9/FacialAge/BNav_EC2/DepthDuration/v2_depth_duration_MTurk/v2_DepthDuration_HTML.html#3,3,1366,768,1366,768,9-4-2022,12-57-3,99,depth_duration_stimuli/001222_2014-06-17_16-24-06_260595134347_rgbf000073-resize_0/001222_2014-06-17_16-24-06_260595134347_rgbf000073-resize-original.jpg,125,1.4385,80,18289,126,meters,jsons/VE125_randls_58_rotated.json,1989689,2108644,22,Man
99,240096,DepthScenes,duration_manipulation_targetAtFixation,jsons/VE125_randls_58_rotated.json,http://54.235.29.9/FacialAge/BNav_EC2/DepthDuration/v2_depth_duration_MTurk/v2_DepthDuration_HTML.html#3,3,1366,768,1366,768,9-4-2022,12-57-3,100,depth_duration_stimuli/002678_2014-06-13_16-15-32_094959634447_rgbf000151-resize_6/002678_2014-06-13_16-15-32_094959634447_rgbf000151-resize_6-target.png,125,2.1830000000000003,89,18697,124,meters,jsons/VE125_randls_58_rotated.json,1989689,2108644,22,Man
100,240096,DepthScenes,duration_manipulation_targetAtFixation,jsons/VE125_randls_58_rotated.json,http://54.235.29.9/FacialAge/BNav_EC2/DepthDuration/v2_depth_duration_MTurk/v2_DepthDuration_HTML.html#3,3,1366,768,1366,768,9-4-2022,12-57-3,101,depth_duration_stimuli/000368_2014-06-09_15-53-01_260595134347_rgbf000155-resize_2/000368_2014-06-09_15-53-01_260595134347_rgbf000155-resize_2-target.png,125,2.4859999999999998,60,5305,125,meters,jsons/VE125_randls_58_rotated.json,1989689,2108644,22,Man
101,240096,DepthScenes,duration_manipulation_targetAtFixation,jsons/VE125_randls_58_rotated.json,http://54.235.29.9/FacialAge/BNav_EC2/DepthDuration/v2_depth_duration_MTurk/v2_DepthDuration_HTML.html#3,3,1366,768,1366,768,9-4-2022,12-57-3,102,depth_duration_stimuli/002425_2014-06-28_20-27-29_260595134347_rgbf000031-resize_8/002425_2014-06-28_20-27-29_260595134347_rgbf000031-resize_8-target.png,125,3.8960000000000004,80,20098,124,meters,jsons/VE125_randls_58_rotated.json,1989689,2108644,22,Man
102,240096,DepthScenes,duration_manipulation_targetAtFixation,jsons/VE125_randls_58_rotated.json,http://54.235.29.9/FacialAge/BNav_EC2/DepthDuration/v2_depth_duration_MTurk/v2_DepthDuration_HTML.html#3,3,1366,768,1366,768,9-4-2022,12-57-3,103,depth_duration_stimuli/000642_2014-06-08_16-59-25_260595134347_rgbf000098-resize_2/000642_2014-06-08_16-59-25_260595134347_rgbf000098-resize_2-target.png,125,2.8815,69,6148,125,meters,jsons/VE125_randls_58_rotated.json,1989689,2108644,22,Man
103,240096,DepthScenes,duration_manipulation_targetAtFixation,jsons/VE125_randls_58_rotated.json,http://54.235.29.9/FacialAge/BNav_EC2/DepthDuration/v2_depth_duration_MTurk/v2_DepthDuration_HTML.html#3,3,1366,768,1366,768,9-4-2022,12-57-3,104,depth_duration_stimuli/000103_2014-05-14_22-01-17_260595134347_rgbf000152-resize_5/000103_2014-05-14_22-01-17_260595134347_rgbf000152-resize_5-target.png,125,1.993,58,22696,125,meters,jsons/VE125_randls_58_rotated.json,1989689,2108644,22,Man
104,240096,DepthScenes,duration_manipulation_targetAtFixation,jsons/VE125_randls_58_rotated.json,http://54.235.29.9/FacialAge/BNav_EC2/DepthDuration/v2_depth_duration_MTurk/v2_DepthDuration_HTML.html#3,3,1366,768,1366,768,9-4-2022,12-57-3,105,depth_duration_stimuli/001555_2014-06-20_17-12-10_260595134347_rgbf000065-resize_4/001555_2014-06-20_17-12-10_260595134347_rgbf000065-resize_4-target.png,125,1.633,80,4850,123,meters,jsons/VE125_randls_58_rotated.json,1989689,2108644,22,Man
105,240096,DepthScenes,duration_manipulation_targetAtFixation,jsons/VE125_randls_58_rotated.json,http://54.235.29.9/FacialAge/BNav_EC2/DepthDuration/v2_depth_duration_MTurk/v2_DepthDuration_HTML.html#3,3,1366,768,1366,768,9-4-2022,12-57-3,106,depth_duration_stimuli/000483_2014-06-09_20-41-45_260595134347_rgbf000116-resize_4/000483_2014-06-09_20-41-45_260595134347_rgbf000116-resize_4-target.png,125,1.337,69,24268,124,meters,jsons/VE125_randls_58_rotated.json,1989689,2108644,22,Man
106,240096,DepthScenes,duration_manipulation_targetAtFixation,jsons/VE125_randls_58_rotated.json,http://54.235.29.9/FacialAge/BNav_EC2/DepthDuration/v2_depth_duration_MTurk/v2_DepthDuration_HTML.html#3,3,1366,768,1366,768,9-4-2022,12-57-3,107,depth_duration_stimuli/000469_2014-06-09_19-42-10_260595134347_rgbf000081-resize_1/000469_2014-06-09_19-42-10_260595134347_rgbf000081-resize_1-target.png,125,1.652,49,6382,124,meters,jsons/VE125_randls_58_rotated.json,1989689,2108644,22,Man
107,240096,DepthScenes,duration_manipulation_targetAtFixation,jsons/VE125_randls_58_rotated.json,http://54.235.29.9/FacialAge/BNav_EC2/DepthDuration/v2_depth_duration_MTurk/v2_DepthDuration_HTML.html#3,3,1366,768,1366,768,9-4-2022,12-57-3,108,depth_duration_stimuli/002568_2014-06-24_13-59-21_094959634447_rgbf000062-resize_4/002568_2014-06-24_13-59-21_094959634447_rgbf000062-resize_4-target.png,125,3.015,69,21123,125,meters,jsons/VE125_randls_58_rotated.json,1989689,2108644,22,Man
108,240096,DepthScenes,duration_manipulation_targetAtFixation,jsons/VE125_randls_58_rotated.json,http://54.235.29.9/FacialAge/BNav_EC2/DepthDuration/v2_depth_duration_MTurk/v2_DepthDuration_HTML.html#3,3,1366,768,1366,768,9-4-2022,12-57-3,109,depth_duration_stimuli/003492_2014-05-21_15-50-55_094959634447_rgbf000828-resize_1/003492_2014-05-21_15-50-55_094959634447_rgbf000828-resize_1-target.png,125,4.06875,60,5017,125,meters,jsons/VE125_randls_58_rotated.json,1989689,2108644,22,Man
109,240096,DepthScenes,duration_manipulation_targetAtFixation,jsons/VE125_randls_58_rotated.json,http://54.235.29.9/FacialAge/BNav_EC2/DepthDuration/v2_depth_duration_MTurk/v2_DepthDuration_HTML.html#3,3,1366,768,1366,768,9-4-2022,12-57-3,110,depth_duration_stimuli/000457_2014-06-08_16-52-43_260595134347_rgbf000199-resize_1/000457_2014-06-08_16-52-43_260595134347_rgbf000199-resize_1-target.png,125,3.6489999999999996,89,27983,124,meters,jsons/VE125_randls_58_rotated.json,1989689,2108644,22,Man
110,240096,DepthScenes,duration_manipulation_targetAtFixation,jsons/VE125_randls_58_rotated.json,http://54.235.29.9/FacialAge/BNav_EC2/DepthDuration/v2_depth_duration_MTurk/v2_DepthDuration_HTML.html#3,3,1366,768,1366,768,9-4-2022,12-57-3,111,depth_duration_stimuli/000929_2014-06-09_16-33-19_260595134347_rgbf000139-resize_0/000929_2014-06-09_16-33-19_260595134347_rgbf000139-resize_0-target.png,125,2.8680000000000003,79,12061,126,meters,jsons/VE125_randls_58_rotated.json,1989689,2108644,22,Man
111,240096,DepthScenes,duration_manipulation_targetAtFixation,jsons/VE125_randls_58_rotated.json,http://54.235.29.9/FacialAge/BNav_EC2/DepthDuration/v2_depth_duration_MTurk/v2_DepthDuration_HTML.html#3,3,1366,768,1366,768,9-4-2022,12-57-3,112,depth_duration_stimuli/003490_2014-05-21_15-50-11_094959634447_rgbf000101-resize_3/003490_2014-05-21_15-50-11_094959634447_rgbf000101-resize_3-target.png,125,3.6445,79,16657,125,meters,jsons/VE125_randls_58_rotated.json,1989689,2108644,22,Man
112,240096,DepthScenes,duration_manipulation_targetAtFixation,jsons/VE125_randls_58_rotated.json,http://54.235.29.9/FacialAge/BNav_EC2/DepthDuration/v2_depth_duration_MTurk/v2_DepthDuration_HTML.html#3,3,1366,768,1366,768,9-4-2022,12-57-3,113,depth_duration_stimuli/001175_2014-06-17_15-45-55_260595134347_rgbf000129-resize_4/001175_2014-06-17_15-45-55_260595134347_rgbf000129-resize_4-target.png,125,4.255,56,4728,124,meters,jsons/VE125_randls_58_rotated.json,1989689,2108644,22,Man
113,240096,DepthScenes,duration_manipulation_targetAtFixation,jsons/VE125_randls_58_rotated.json,http://54.235.29.9/FacialAge/BNav_EC2/DepthDuration/v2_depth_duration_MTurk/v2_DepthDuration_HTML.html#3,3,1366,768,1366,768,9-4-2022,12-57-3,114,depth_duration_stimuli/001214_2014-06-17_16-13-55_260595134347_rgbf000111-resize_0/001214_2014-06-17_16-13-55_260595134347_rgbf000111-resize_0-target.png,125,2.6505,80,12795,125,meters,jsons/VE125_randls_58_rotated.json,1989689,2108644,22,Man
114,240096,DepthScenes,duration_manipulation_targetAtFixation,jsons/VE125_randls_58_rotated.json,http://54.235.29.9/FacialAge/BNav_EC2/DepthDuration/v2_depth_duration_MTurk/v2_DepthDuration_HTML.html#3,3,1366,768,1366,768,9-4-2022,12-57-3,115,depth_duration_stimuli/000810_2014-06-08_17-20-01_260595134347_rgbf000105-resize_0/000810_2014-06-08_17-20-01_260595134347_rgbf000105-resize_0-target.png,125,1.4865,58,6577,126,meters,jsons/VE125_randls_58_rotated.json,1989689,2108644,22,Man
115,240096,DepthScenes,duration_manipulation_targetAtFixation,jsons/VE125_randls_58_rotated.json,http://54.235.29.9/FacialAge/BNav_EC2/DepthDuration/v2_depth_duration_MTurk/v2_DepthDuration_HTML.html#3,3,1366,768,1366,768,9-4-2022,12-57-3,116,depth_duration_stimuli/000665_2014-06-09_20-42-35_260595134347_rgbf000110-resize_1/000665_2014-06-09_20-42-35_260595134347_rgbf000110-resize_1-target.png,125,3.057,89,14494,125,meters,jsons/VE125_randls_58_rotated.json,1989689,2108644,22,Man
116,240096,DepthScenes,duration_manipulation_targetAtFixation,jsons/VE125_randls_58_rotated.json,http://54.235.29.9/FacialAge/BNav_EC2/DepthDuration/v2_depth_duration_MTurk/v2_DepthDuration_HTML.html#3,3,1366,768,1366,768,9-4-2022,12-57-3,117,depth_duration_stimuli/001150_2014-06-17_15-27-34_260595134347_rgbf000108-resize_2/001150_2014-06-17_15-27-34_260595134347_rgbf000108-resize_2-target.png,125,4.0325,78,9939,124,meters,jsons/VE125_randls_58_rotated.json,1989689,2108644,22,Man
117,240096,DepthScenes,duration_manipulation_targetAtFixation,jsons/VE125_randls_58_rotated.json,http://54.235.29.9/FacialAge/BNav_EC2/DepthDuration/v2_depth_duration_MTurk/v2_DepthDuration_HTML.html#3,3,1366,768,1366,768,9-4-2022,12-57-3,118,depth_duration_stimuli/003228_2014-05-14_13-42-35_094959634447_rgbf000101-resize_1/003228_2014-05-14_13-42-35_094959634447_rgbf000101-resize_1-target.png,125,1.9680000000000002,90,8498,138,meters,jsons/VE125_randls_58_rotated.json,1989689,2108644,22,Man
118,240096,DepthScenes,duration_manipulation_targetAtFixation,jsons/VE125_randls_58_rotated.json,http://54.235.29.9/FacialAge/BNav_EC2/DepthDuration/v2_depth_duration_MTurk/v2_DepthDuration_HTML.html#3,3,1366,768,1366,768,9-4-2022,12-57-3,119,depth_duration_stimuli/002600_2014-06-24_14-27-04_094959634447_rgbf000074-resize_2/002600_2014-06-24_14-27-04_094959634447_rgbf000074-resize_2-target.png,125,2.7575,89,28532,125,meters,jsons/VE125_randls_58_rotated.json,1989689,2108644,22,Man
119,240096,DepthScenes,duration_manipulation_targetAtFixation,jsons/VE125_randls_58_rotated.json,http://54.235.29.9/FacialAge/BNav_EC2/DepthDuration/v2_depth_duration_MTurk/v2_DepthDuration_HTML.html#3,3,1366,768,1366,768,9-4-2022,12-57-3,120,depth_duration_stimuli/000787_2014-06-08_22-33-53_260595134347_rgbf000175-resize_1/000787_2014-06-08_22-33-53_260595134347_rgbf000175-resize-original.jpg,125,4.784,69,10700,126,meters,jsons/VE125_randls_58_rotated.json,1989689,2108644,22,Man
120,240096,DepthScenes,duration_manipulation_targetAtFixation,jsons/VE125_randls_58_rotated.json,http://54.235.29.9/FacialAge/BNav_EC2/DepthDuration/v2_depth_duration_MTurk/v2_DepthDuration_HTML.html#3,3,1366,768,1366,768,9-4-2022,12-57-3,121,depth_duration_stimuli/002444_2014-06-28_20-32-08_260595134347_rgbf000027-resize_0/002444_2014-06-28_20-32-08_260595134347_rgbf000027-resize_0-target.png,125,4.388999999999999,89,17643,124,meters,jsons/VE125_randls_58_rotated.json,1989689,2108644,22,Man
121,240096,DepthScenes,duration_manipulation_targetAtFixation,jsons/VE125_randls_58_rotated.json,http://54.235.29.9/FacialAge/BNav_EC2/DepthDuration/v2_depth_duration_MTurk/v2_DepthDuration_HTML.html#3,3,1366,768,1366,768,9-4-2022,12-57-3,122,depth_duration_stimuli/000436_2014-06-09_22-25-11_260595134347_rgbf000137-resize_1/000436_2014-06-09_22-25-11_260595134347_rgbf000137-resize_1-target.png,125,4.0705,69,6045,114,meters,jsons/VE125_randls_58_rotated.json,1989689,2108644,22,Man
122,240096,DepthScenes,duration_manipulation_targetAtFixation,jsons/VE125_randls_58_rotated.json,http://54.235.29.9/FacialAge/BNav_EC2/DepthDuration/v2_depth_duration_MTurk/v2_DepthDuration_HTML.html#3,3,1366,768,1366,768,9-4-2022,12-57-3,123,depth_duration_stimuli/001094_2014-06-15_17-36-00_260595134347_rgbf000205-resize_0/001094_2014-06-15_17-36-00_260595134347_rgbf000205-resize_0-target.png,125,4.2175,60,26831,126,meters,jsons/VE125_randls_58_rotated.json,1989689,2108644,22,Man
123,240096,DepthScenes,duration_manipulation_targetAtFixation,jsons/VE125_randls_58_rotated.json,http://54.235.29.9/FacialAge/BNav_EC2/DepthDuration/v2_depth_duration_MTurk/v2_DepthDuration_HTML.html#3,3,1366,768,1366,768,9-4-2022,12-57-3,124,depth_duration_stimuli/000692_2014-06-08_13-09-42_260595134347_rgbf000199-resize_2/000692_2014-06-08_13-09-42_260595134347_rgbf000199-resize_2-target.png,125,3.661,35,4613,126,meters,jsons/VE125_randls_58_rotated.json,1989689,2108644,22,Man
124,240096,DepthScenes,duration_manipulation_targetAtFixation,jsons/VE125_randls_58_rotated.json,http://54.235.29.9/FacialAge/BNav_EC2/DepthDuration/v2_depth_duration_MTurk/v2_DepthDuration_HTML.html#3,3,1366,768,1366,768,9-4-2022,12-57-3,125,depth_duration_stimuli/001450_2014-06-19_17-02-03_260595134347_rgbf000203-resize_4/001450_2014-06-19_17-02-03_260595134347_rgbf000203-resize_4-target.png,125,4.0106666666667,67,17206,124,meters,jsons/VE125_randls_58_rotated.json,1989689,2108644,22,Man
125,240096,DepthScenes,duration_manipulation_targetAtFixation,jsons/VE125_randls_58_rotated.json,http://54.235.29.9/FacialAge/BNav_EC2/DepthDuration/v2_depth_duration_MTurk/v2_DepthDuration_HTML.html#3,3,1366,768,1366,768,9-4-2022,12-57-3,126,depth_duration_stimuli/001449_2014-06-19_17-01-27_260595134347_rgbf000116-resize_2/001449_2014-06-19_17-01-27_260595134347_rgbf000116-resize_2-target.png,125,3.452,89,5396,133,meters,jsons/VE125_randls_58_rotated.json,1989689,2108644,22,Man
126,240096,DepthScenes,duration_manipulation_targetAtFixation,jsons/VE125_randls_58_rotated.json,http://54.235.29.9/FacialAge/BNav_EC2/DepthDuration/v2_depth_duration_MTurk/v2_DepthDuration_HTML.html#3,3,1366,768,1366,768,9-4-2022,12-57-3,127,depth_duration_stimuli/000943_2014-06-09_19-31-07_260595134347_rgbf000128-resize_1/000943_2014-06-09_19-31-07_260595134347_rgbf000128-resize_1-target.png,125,1.9765,89,17293,126,meters,jsons/VE125_randls_58_rotated.json,1989689,2108644,22,Man
127,240096,DepthScenes,duration_manipulation_targetAtFixation,jsons/VE125_randls_58_rotated.json,http://54.235.29.9/FacialAge/BNav_EC2/DepthDuration/v2_depth_duration_MTurk/v2_DepthDuration_HTML.html#3,3,1366,768,1366,768,9-4-2022,12-57-3,128,depth_duration_stimuli/003070_2014-06-15_14-58-27_094959634447_rgbf000150-resize_3/003070_2014-06-15_14-58-27_094959634447_rgbf000150-resize_3-target.png,125,2.9415,59,10506,124,meters,jsons/VE125_randls_58_rotated.json,1989689,2108644,22,Man
128,240096,DepthScenes,duration_manipulation_targetAtFixation,jsons/VE125_randls_58_rotated.json,http://54.235.29.9/FacialAge/BNav_EC2/DepthDuration/v2_depth_duration_MTurk/v2_DepthDuration_HTML.html#3,3,1366,768,1366,768,9-4-2022,12-57-3,129,depth_duration_stimuli/003338_2014-05-20_11-01-23_094959634447_rgbf000051-resize_6/003338_2014-05-20_11-01-23_094959634447_rgbf000051-resize_6-target.png,125,1.693,89,14961,125,meters,jsons/VE125_randls_58_rotated.json,1989689,2108644,22,Man
129,240096,DepthScenes,duration_manipulation_targetAtFixation,jsons/VE125_randls_58_rotated.json,http://54.235.29.9/FacialAge/BNav_EC2/DepthDuration/v2_depth_duration_MTurk/v2_DepthDuration_HTML.html#3,3,1366,768,1366,768,9-4-2022,12-57-3,130,depth_duration_stimuli/002509_2014-06-24_13-19-22_094959634447_rgbf000077-resize_0/002509_2014-06-24_13-19-22_094959634447_rgbf000077-resize_0-target.png,125,1.3065,69,5460,125,meters,jsons/VE125_randls_58_rotated.json,1989689,2108644,22,Man
130,240096,DepthScenes,duration_manipulation_targetAtFixation,jsons/VE125_randls_58_rotated.json,http://54.235.29.9/FacialAge/BNav_EC2/DepthDuration/v2_depth_duration_MTurk/v2_DepthDuration_HTML.html#3,3,1366,768,1366,768,9-4-2022,12-57-3,131,depth_duration_stimuli/000780_2014-06-08_22-28-29_260595134347_rgbf000126-resize_1/000780_2014-06-08_22-28-29_260595134347_rgbf000126-resize_1-target.png,125,3.3825,80,30059,124,meters,jsons/VE125_randls_58_rotated.json,1989689,2108644,22,Man
131,240096,DepthScenes,duration_manipulation_targetAtFixation,jsons/VE125_randls_58_rotated.json,http://54.235.29.9/FacialAge/BNav_EC2/DepthDuration/v2_depth_duration_MTurk/v2_DepthDuration_HTML.html#3,3,1366,768,1366,768,9-4-2022,12-57-3,132,depth_duration_stimuli/002445_2014-06-28_20-32-16_260595134347_rgbf000029-resize_4/002445_2014-06-28_20-32-16_260595134347_rgbf000029-resize_4-target.png,125,2.5315,78,7456,125,meters,jsons/VE125_randls_58_rotated.json,1989689,2108644,22,Man
132,240096,DepthScenes,duration_manipulation_targetAtFixation,jsons/VE125_randls_58_rotated.json,http://54.235.29.9/FacialAge/BNav_EC2/DepthDuration/v2_depth_duration_MTurk/v2_DepthDuration_HTML.html#3,3,1366,768,1366,768,9-4-2022,12-57-3,133,depth_duration_stimuli/002657_2014-06-13_15-29-54_094959634447_rgbf000150-resize_1/002657_2014-06-13_15-29-54_094959634447_rgbf000150-resize_1-target.png,125,4.919,69,18891,116,meters,jsons/VE125_randls_58_rotated.json,1989689,2108644,22,Man
133,240096,DepthScenes,duration_manipulation_targetAtFixation,jsons/VE125_randls_58_rotated.json,http://54.235.29.9/FacialAge/BNav_EC2/DepthDuration/v2_depth_duration_MTurk/v2_DepthDuration_HTML.html#3,3,1366,768,1366,768,9-4-2022,12-57-3,134,depth_duration_stimuli/002375_2014-06-28_20-13-44_260595134347_rgbf000032-resize_1/002375_2014-06-28_20-13-44_260595134347_rgbf000032-resize_1-target.png,125,4.0175,90,5270,115,meters,jsons/VE125_randls_58_rotated.json,1989689,2108644,22,Man
134,240096,DepthScenes,duration_manipulation_targetAtFixation,jsons/VE125_randls_58_rotated.json,http://54.235.29.9/FacialAge/BNav_EC2/DepthDuration/v2_depth_duration_MTurk/v2_DepthDuration_HTML.html#3,3,1366,768,1366,768,9-4-2022,12-57-3,135,depth_duration_stimuli/000375_2014-06-08_11-17-29_260595134347_rgbf000133-resize_2/000375_2014-06-08_11-17-29_260595134347_rgbf000133-resize-original.jpg,125,4.718,89,7599,124,meters,jsons/VE125_randls_58_rotated.json,1989689,2108644,22,Man
135,240096,DepthScenes,duration_manipulation_targetAtFixation,jsons/VE125_randls_58_rotated.json,http://54.235.29.9/FacialAge/BNav_EC2/DepthDuration/v2_depth_duration_MTurk/v2_DepthDuration_HTML.html#3,3,1366,768,1366,768,9-4-2022,12-57-3,136,depth_duration_stimuli/002949_2014-06-26_15-57-42_094959634447_rgbf000079-resize_1/002949_2014-06-26_15-57-42_094959634447_rgbf000079-resize_1-target.png,125,1.8915,69,19231,128,meters,jsons/VE125_randls_58_rotated.json,1989689,2108644,22,Man
136,240096,DepthScenes,duration_manipulation_targetAtFixation,jsons/VE125_randls_58_rotated.json,http://54.235.29.9/FacialAge/BNav_EC2/DepthDuration/v2_depth_duration_MTurk/v2_DepthDuration_HTML.html#3,3,1366,768,1366,768,9-4-2022,12-57-3,137,depth_duration_stimuli/000522_2014-06-08_13-35-06_260595134347_rgbf000244-resize_1/000522_2014-06-08_13-35-06_260595134347_rgbf000244-resize_1-target.png,125,2.3715,59,5741,126,meters,jsons/VE125_randls_58_rotated.json,1989689,2108644,22,Man
137,240096,DepthScenes,duration_manipulation_targetAtFixation,jsons/VE125_randls_58_rotated.json,http://54.235.29.9/FacialAge/BNav_EC2/DepthDuration/v2_depth_duration_MTurk/v2_DepthDuration_HTML.html#3,3,1366,768,1366,768,9-4-2022,12-57-3,138,depth_duration_stimuli/001516_2014-06-20_16-25-09_260595134347_rgbf000076-resize_2/001516_2014-06-20_16-25-09_260595134347_rgbf000076-resize_2-target.png,125,1.7445,80,16372,125,meters,jsons/VE125_randls_58_rotated.json,1989689,2108644,22,Man
138,240096,DepthScenes,duration_manipulation_targetAtFixation,jsons/VE125_randls_58_rotated.json,http://54.235.29.9/FacialAge/BNav_EC2/DepthDuration/v2_depth_duration_MTurk/v2_DepthDuration_HTML.html#3,3,1366,768,1366,768,9-4-2022,12-57-3,139,depth_duration_stimuli/002118_2014-06-25_20-32-08_260595134347_rgbf000078-resize_1/002118_2014-06-25_20-32-08_260595134347_rgbf000078-resize_1-target.png,125,2.6460000000000004,89,6622,125,meters,jsons/VE125_randls_58_rotated.json,1989689,2108644,22,Man
139,240096,DepthScenes,duration_manipulation_targetAtFixation,jsons/VE125_randls_58_rotated.json,http://54.235.29.9/FacialAge/BNav_EC2/DepthDuration/v2_depth_duration_MTurk/v2_DepthDuration_HTML.html#3,3,1366,768,1366,768,9-4-2022,12-57-3,140,depth_duration_stimuli/001235_2014-06-17_16-37-36_260595134347_rgbf000084-resize_4/001235_2014-06-17_16-37-36_260595134347_rgbf000084-resize_4-target.png,125,3.6605,80,14461,125,meters,jsons/VE125_randls_58_rotated.json,1989689,2108644,22,Man
140,240096,DepthScenes,duration_manipulation_targetAtFixation,jsons/VE125_randls_58_rotated.json,http://54.235.29.9/FacialAge/BNav_EC2/DepthDuration/v2_depth_duration_MTurk/v2_DepthDuration_HTML.html#3,3,1366,768,1366,768,9-4-2022,12-57-3,141,depth_duration_stimuli/000788_2014-06-08_22-34-36_260595134347_rgbf000131-resize_1/000788_2014-06-08_22-34-36_260595134347_rgbf000131-resize_1-target.png,125,3.359,70,6014,124,meters,jsons/VE125_randls_58_rotated.json,1989689,2108644,22,Man
141,240096,DepthScenes,duration_manipulation_targetAtFixation,jsons/VE125_randls_58_rotated.json,http://54.235.29.9/FacialAge/BNav_EC2/DepthDuration/v2_depth_duration_MTurk/v2_DepthDuration_HTML.html#3,3,1366,768,1366,768,9-4-2022,12-57-3,142,depth_duration_stimuli/000191_2014-05-12_17-07-38_260595134347_rgbf000199-resize_0/000191_2014-05-12_17-07-38_260595134347_rgbf000199-resize_0-target.png,125,3.7995,70,25819,125,meters,jsons/VE125_randls_58_rotated.json,1989689,2108644,22,Man
142,240096,DepthScenes,duration_manipulation_targetAtFixation,jsons/VE125_randls_58_rotated.json,http://54.235.29.9/FacialAge/BNav_EC2/DepthDuration/v2_depth_duration_MTurk/v2_DepthDuration_HTML.html#3,3,1366,768,1366,768,9-4-2022,12-57-3,143,depth_duration_stimuli/000493_2014-06-09_21-01-18_260595134347_rgbf000196-resize_3/000493_2014-06-09_21-01-18_260595134347_rgbf000196-resize_3-target.png,125,3.44,54,7526,123,meters,jsons/VE125_randls_58_rotated.json,1989689,2108644,22,Man
143,240096,DepthScenes,duration_manipulation_targetAtFixation,jsons/VE125_randls_58_rotated.json,http://54.235.29.9/FacialAge/BNav_EC2/DepthDuration/v2_depth_duration_MTurk/v2_DepthDuration_HTML.html#3,3,1366,768,1366,768,9-4-2022,12-57-3,144,depth_duration_stimuli/002545_2014-06-24_13-38-53_094959634447_rgbf000080-resize_4/002545_2014-06-24_13-38-53_094959634447_rgbf000080-resize_4-target.png,125,1.9205,80,4918,125,meters,jsons/VE125_randls_58_rotated.json,1989689,2108644,22,Man
144,240096,DepthScenes,duration_manipulation_targetAtFixation,jsons/VE125_randls_58_rotated.json,http://54.235.29.9/FacialAge/BNav_EC2/DepthDuration/v2_depth_duration_MTurk/v2_DepthDuration_HTML.html#3,3,1366,768,1366,768,9-4-2022,12-57-3,145,depth_duration_stimuli/001092_2014-06-15_17-34-58_260595134347_rgbf000171-resize_3/001092_2014-06-15_17-34-58_260595134347_rgbf000171-resize_3-target.png,125,2.6935,0,4734,123,meters,jsons/VE125_randls_58_rotated.json,1989689,2108644,22,Man
145,240096,DepthScenes,duration_manipulation_targetAtFixation,jsons/VE125_randls_58_rotated.json,http://54.235.29.9/FacialAge/BNav_EC2/DepthDuration/v2_depth_duration_MTurk/v2_DepthDuration_HTML.html#3,3,1366,768,1366,768,9-4-2022,12-57-3,146,depth_duration_stimuli/002344_2014-06-28_20-06-29_260595134347_rgbf000030-resize_1/002344_2014-06-28_20-06-29_260595134347_rgbf000030-resize_1-target.png,125,1.5795,49,12142,125,meters,jsons/VE125_randls_58_rotated.json,1989689,2108644,22,Man
146,240096,DepthScenes,duration_manipulation_targetAtFixation,jsons/VE125_randls_58_rotated.json,http://54.235.29.9/FacialAge/BNav_EC2/DepthDuration/v2_depth_duration_MTurk/v2_DepthDuration_HTML.html#3,3,1366,768,1366,768,9-4-2022,12-57-3,147,depth_duration_stimuli/002725_2014-06-22_11-47-51_094959634447_rgbf000070-resize_1/002725_2014-06-22_11-47-51_094959634447_rgbf000070-resize_1-target.png,125,2.195,90,27759,124,meters,jsons/VE125_randls_58_rotated.json,1989689,2108644,22,Man
147,240096,DepthScenes,duration_manipulation_targetAtFixation,jsons/VE125_randls_58_rotated.json,http://54.235.29.9/FacialAge/BNav_EC2/DepthDuration/v2_depth_duration_MTurk/v2_DepthDuration_HTML.html#3,3,1366,768,1366,768,9-4-2022,12-57-3,148,depth_duration_stimuli/003495_2014-05-21_16-01-51_094959634447_rgbf000100-resize_3/003495_2014-05-21_16-01-51_094959634447_rgbf000100-resize_3-target.png,125,1.6255,57,109585,125,meters,jsons/VE125_randls_58_rotated.json,1989689,2108644,22,Man
148,240096,DepthScenes,duration_manipulation_targetAtFixation,jsons/VE125_randls_58_rotated.json,http://54.235.29.9/FacialAge/BNav_EC2/DepthDuration/v2_depth_duration_MTurk/v2_DepthDuration_HTML.html#3,3,1366,768,1366,768,9-4-2022,12-57-3,149,depth_duration_stimuli/001244_2014-06-17_16-47-45_260595134347_rgbf000030-resize_4/001244_2014-06-17_16-47-45_260595134347_rgbf000030-resize_4-target.png,125,2.0425,90,5940,125,meters,jsons/VE125_randls_58_rotated.json,1989689,2108644,22,Man
149,240096,DepthScenes,duration_manipulation_targetAtFixation,jsons/VE125_randls_58_rotated.json,http://54.235.29.9/FacialAge/BNav_EC2/DepthDuration/v2_depth_duration_MTurk/v2_DepthDuration_HTML.html#3,3,1366,768,1366,768,9-4-2022,12-57-3,150,depth_duration_stimuli/001617_2014-06-20_11-35-32_260595134347_rgbf000066-resize_1/001617_2014-06-20_11-35-32_260595134347_rgbf000066-resize_1-target.png,125,3.7910000000000004,58,21911,124,meters,jsons/VE125_randls_58_rotated.json,1989689,2108644,22,Man
150,240096,DepthScenes,duration_manipulation_targetAtFixation,jsons/VE125_randls_58_rotated.json,http://54.235.29.9/FacialAge/BNav_EC2/DepthDuration/v2_depth_duration_MTurk/v2_DepthDuration_HTML.html#3,3,1366,768,1366,768,9-4-2022,12-57-3,151,depth_duration_stimuli/001806_2014-06-26_20-50-20_260595134347_rgbf000091-resize_1/001806_2014-06-26_20-50-20_260595134347_rgbf000091-resize_1-target.png,125,2.7305,80,3837,127,meters,jsons/VE125_randls_58_rotated.json,1989689,2108644,22,Man
151,240096,DepthScenes,duration_manipulation_targetAtFixation,jsons/VE125_randls_58_rotated.json,http://54.235.29.9/FacialAge/BNav_EC2/DepthDuration/v2_depth_duration_MTurk/v2_DepthDuration_HTML.html#3,3,1366,768,1366,768,9-4-2022,12-57-3,152,depth_duration_stimuli/000569_2014-06-09_22-51-47_260595134347_rgbf000141-resize_3/000569_2014-06-09_22-51-47_260595134347_rgbf000141-resize-original.jpg,125,4.512,0,4418,123,meters,jsons/VE125_randls_58_rotated.json,1989689,2108644,22,Man
152,240096,DepthScenes,duration_manipulation_targetAtFixation,jsons/VE125_randls_58_rotated.json,http://54.235.29.9/FacialAge/BNav_EC2/DepthDuration/v2_depth_duration_MTurk/v2_DepthDuration_HTML.html#3,3,1366,768,1366,768,9-4-2022,12-57-3,153,depth_duration_stimuli/001052_2014-06-08_18-24-54_260595134347_rgbf000130-resize_1/001052_2014-06-08_18-24-54_260595134347_rgbf000130-resize_1-target.png,125,4.1045,90,19991,124,meters,jsons/VE125_randls_58_rotated.json,1989689,2108644,22,Man
153,240096,DepthScenes,duration_manipulation_targetAtFixation,jsons/VE125_randls_58_rotated.json,http://54.235.29.9/FacialAge/BNav_EC2/DepthDuration/v2_depth_duration_MTurk/v2_DepthDuration_HTML.html#3,3,1366,768,1366,768,9-4-2022,12-57-3,154,depth_duration_stimuli/002988_2014-06-15_12-24-20_094959634447_rgbf000150-resize_1/002988_2014-06-15_12-24-20_094959634447_rgbf000150-resize_1-target.png,125,4.7669999999999995,87,4296,125,meters,jsons/VE125_randls_58_rotated.json,1989689,2108644,22,Man
154,240096,DepthScenes,duration_manipulation_targetAtFixation,jsons/VE125_randls_58_rotated.json,http://54.235.29.9/FacialAge/BNav_EC2/DepthDuration/v2_depth_duration_MTurk/v2_DepthDuration_HTML.html#3,3,1366,768,1366,768,9-4-2022,12-57-3,155,depth_duration_stimuli/002414_2014-06-28_20-24-58_260595134347_rgbf000067-resize_4/002414_2014-06-28_20-24-58_260595134347_rgbf000067-resize_4-target.png,125,4.363,80,14995,124,meters,jsons/VE125_randls_58_rotated.json,1989689,2108644,22,Man
155,240096,DepthScenes,duration_manipulation_targetAtFixation,jsons/VE125_randls_58_rotated.json,http://54.235.29.9/FacialAge/BNav_EC2/DepthDuration/v2_depth_duration_MTurk/v2_DepthDuration_HTML.html#3,3,1366,768,1366,768,9-4-2022,12-57-3,156,depth_duration_stimuli/000773_2014-06-08_22-24-54_260595134347_rgbf000093-resize_1/000773_2014-06-08_22-24-54_260595134347_rgbf000093-resize_1-target.png,125,4.973,78,4006,125,meters,jsons/VE125_randls_58_rotated.json,1989689,2108644,22,Man
156,240096,DepthScenes,duration_manipulation_targetAtFixation,jsons/VE125_randls_58_rotated.json,http://54.235.29.9/FacialAge/BNav_EC2/DepthDuration/v2_depth_duration_MTurk/v2_DepthDuration_HTML.html#3,3,1366,768,1366,768,9-4-2022,12-57-3,157,depth_duration_stimuli/000734_2014-06-08_17-39-11_260595134347_rgbf000128-resize_2/000734_2014-06-08_17-39-11_260595134347_rgbf000128-resize_2-target.png,125,4.098,90,23829,124,meters,jsons/VE125_randls_58_rotated.json,1989689,2108644,22,Man
157,240096,DepthScenes,duration_manipulation_targetAtFixation,jsons/VE125_randls_58_rotated.json,http://54.235.29.9/FacialAge/BNav_EC2/DepthDuration/v2_depth_duration_MTurk/v2_DepthDuration_HTML.html#3,3,1366,768,1366,768,9-4-2022,12-57-3,158,depth_duration_stimuli/000739_2014-06-08_18-45-58_260595134347_rgbf000068-resize_1/000739_2014-06-08_18-45-58_260595134347_rgbf000068-resize_1-target.png,125,3.534,68,4139,124,meters,jsons/VE125_randls_58_rotated.json,1989689,2108644,22,Man
158,240096,DepthScenes,duration_manipulation_targetAtFixation,jsons/VE125_randls_58_rotated.json,http://54.235.29.9/FacialAge/BNav_EC2/DepthDuration/v2_depth_duration_MTurk/v2_DepthDuration_HTML.html#3,3,1366,768,1366,768,9-4-2022,12-57-3,159,depth_duration_stimuli/000691_2014-06-08_13-08-50_260595134347_rgbf000132-resize_3/000691_2014-06-08_13-08-50_260595134347_rgbf000132-resize_3-target.png,125,4.1530000000000005,79,21571,124,meters,jsons/VE125_randls_58_rotated.json,1989689,2108644,22,Man
159,240096,DepthScenes,duration_manipulation_targetAtFixation,jsons/VE125_randls_58_rotated.json,http://54.235.29.9/FacialAge/BNav_EC2/DepthDuration/v2_depth_duration_MTurk/v2_DepthDuration_HTML.html#3,3,1366,768,1366,768,9-4-2022,12-57-3,160,depth_duration_stimuli/002213_2014-06-28_18-37-58_260595134347_rgbf000055-resize_1/002213_2014-06-28_18-37-58_260595134347_rgbf000055-resize_1-target.png,125,3.62,60,8012,124,meters,jsons/VE125_randls_58_rotated.json,1989689,2108644,22,Man
160,240096,DepthScenes,duration_manipulation_targetAtFixation,jsons/VE125_randls_58_rotated.json,http://54.235.29.9/FacialAge/BNav_EC2/DepthDuration/v2_depth_duration_MTurk/v2_DepthDuration_HTML.html#3,3,1366,768,1366,768,9-4-2022,12-57-3,161,depth_duration_stimuli/001650_2014-06-20_12-09-00_260595134347_rgbf000087-resize_3/001650_2014-06-20_12-09-00_260595134347_rgbf000087-resize_3-target.png,125,1.9505,80,6300,125,meters,jsons/VE125_randls_58_rotated.json,1989689,2108644,22,Man
161,240096,DepthScenes,duration_manipulation_targetAtFixation,jsons/VE125_randls_58_rotated.json,http://54.235.29.9/FacialAge/BNav_EC2/DepthDuration/v2_depth_duration_MTurk/v2_DepthDuration_HTML.html#3,3,1366,768,1366,768,9-4-2022,12-57-3,162,depth_duration_stimuli/000682_2014-06-08_23-14-58_260595134347_rgbf000041-resize_5/000682_2014-06-08_23-14-58_260595134347_rgbf000041-resize_5-target.png,125,2.7239999999999998,85,7698,125,meters,jsons/VE125_randls_58_rotated.json,1989689,2108644,22,Man
162,240096,DepthScenes,duration_manipulation_targetAtFixation,jsons/VE125_randls_58_rotated.json,http://54.235.29.9/FacialAge/BNav_EC2/DepthDuration/v2_depth_duration_MTurk/v2_DepthDuration_HTML.html#3,3,1366,768,1366,768,9-4-2022,12-57-3,163,depth_duration_stimuli/000677_2014-06-08_23-10-32_260595134347_rgbf000158-resize_6/000677_2014-06-08_23-10-32_260595134347_rgbf000158-resize_6-target.png,125,3.556,80,4753,126,meters,jsons/VE125_randls_58_rotated.json,1989689,2108644,22,Man
163,240096,DepthScenes,duration_manipulation_targetAtFixation,jsons/VE125_randls_58_rotated.json,http://54.235.29.9/FacialAge/BNav_EC2/DepthDuration/v2_depth_duration_MTurk/v2_DepthDuration_HTML.html#3,3,1366,768,1366,768,9-4-2022,12-57-3,164,depth_duration_stimuli/001029_2014-06-08_13-17-57_260595134347_rgbf000065-resize_1/001029_2014-06-08_13-17-57_260595134347_rgbf000065-resize_1-target.png,125,3.0835,89,3721,125,meters,jsons/VE125_randls_58_rotated.json,1989689,2108644,22,Man
