,subjID,experimentName,versionName,sequenceName,url,selected_row,windowWidth,windowHeight,screenWidth,screenHeight,startDate,startTime,trial,stimulus,duration,actual_depth,depth_estimate,trial_RT,log_sceneDuration,unitSelection,seq_filepath,experimentTime,totalTime,age,gender
0,241740,DepthScenes,duration_manipulation_targetAtFixation,jsons/VE125_randls_43_rotated.json,http://54.235.29.9/FacialAge/BNav_EC2/DepthDuration/v2_depth_duration_MTurk/v2_DepthDuration_HTML.html#365,365,1366,657,1366,768,8-30-2022,9-54-14,1,depth_duration_stimuli/002467_2014-06-28_20-38-07_260595134347_rgbf000026-resize_2/002467_2014-06-28_20-38-07_260595134347_rgbf000026-resize_2-target.png,125,4.742,1,8670,126,meters,jsons/VE125_randls_43_rotated.json,764280,1080877,27,Woman
1,241740,DepthScenes,duration_manipulation_targetAtFixation,jsons/VE125_randls_43_rotated.json,http://54.235.29.9/FacialAge/BNav_EC2/DepthDuration/v2_depth_duration_MTurk/v2_DepthDuration_HTML.html#365,365,1366,657,1366,768,8-30-2022,9-54-14,2,depth_duration_stimuli/002570_2014-06-24_13-59-54_094959634447_rgbf000059-resize_0/002570_2014-06-24_13-59-54_094959634447_rgbf000059-resize_0-target.png,125,4.037,2,4835,124,meters,jsons/VE125_randls_43_rotated.json,764280,1080877,27,Woman
2,241740,DepthScenes,duration_manipulation_targetAtFixation,jsons/VE125_randls_43_rotated.json,http://54.235.29.9/FacialAge/BNav_EC2/DepthDuration/v2_depth_duration_MTurk/v2_DepthDuration_HTML.html#365,365,1366,657,1366,768,8-30-2022,9-54-14,3,depth_duration_stimuli/000137_2014-05-20_17-04-49_260595134347_rgbf000120-resize_1/000137_2014-05-20_17-04-49_260595134347_rgbf000120-resize_1-target.png,125,3.786,1,7118,125,meters,jsons/VE125_randls_43_rotated.json,764280,1080877,27,Woman
3,241740,DepthScenes,duration_manipulation_targetAtFixation,jsons/VE125_randls_43_rotated.json,http://54.235.29.9/FacialAge/BNav_EC2/DepthDuration/v2_depth_duration_MTurk/v2_DepthDuration_HTML.html#365,365,1366,657,1366,768,8-30-2022,9-54-14,4,depth_duration_stimuli/000736_2014-06-08_18-24-15_260595134347_rgbf000206-resize_3/000736_2014-06-08_18-24-15_260595134347_rgbf000206-resize_3-target.png,125,3.515,2,6010,125,meters,jsons/VE125_randls_43_rotated.json,764280,1080877,27,Woman
4,241740,DepthScenes,duration_manipulation_targetAtFixation,jsons/VE125_randls_43_rotated.json,http://54.235.29.9/FacialAge/BNav_EC2/DepthDuration/v2_depth_duration_MTurk/v2_DepthDuration_HTML.html#365,365,1366,657,1366,768,8-30-2022,9-54-14,5,depth_duration_stimuli/002103_2014-06-25_20-00-40_260595134347_rgbf000049-resize_0/002103_2014-06-25_20-00-40_260595134347_rgbf000049-resize_0-target.png,125,4.105,0,4729,126,meters,jsons/VE125_randls_43_rotated.json,764280,1080877,27,Woman
5,241740,DepthScenes,duration_manipulation_targetAtFixation,jsons/VE125_randls_43_rotated.json,http://54.235.29.9/FacialAge/BNav_EC2/DepthDuration/v2_depth_duration_MTurk/v2_DepthDuration_HTML.html#365,365,1366,657,1366,768,8-30-2022,9-54-14,6,depth_duration_stimuli/002039_2014-06-24_20-22-38_260595134347_rgbf000084-resize_1/002039_2014-06-24_20-22-38_260595134347_rgbf000084-resize_1-target.png,125,4.408,1,3398,125,meters,jsons/VE125_randls_43_rotated.json,764280,1080877,27,Woman
6,241740,DepthScenes,duration_manipulation_targetAtFixation,jsons/VE125_randls_43_rotated.json,http://54.235.29.9/FacialAge/BNav_EC2/DepthDuration/v2_depth_duration_MTurk/v2_DepthDuration_HTML.html#365,365,1366,657,1366,768,8-30-2022,9-54-14,7,depth_duration_stimuli/002758_2014-06-22_19-11-20_094959634447_rgbf000128-resize_1/002758_2014-06-22_19-11-20_094959634447_rgbf000128-resize_1-target.png,125,2.555,1,4420,125,meters,jsons/VE125_randls_43_rotated.json,764280,1080877,27,Woman
7,241740,DepthScenes,duration_manipulation_targetAtFixation,jsons/VE125_randls_43_rotated.json,http://54.235.29.9/FacialAge/BNav_EC2/DepthDuration/v2_depth_duration_MTurk/v2_DepthDuration_HTML.html#365,365,1366,657,1366,768,8-30-2022,9-54-14,8,depth_duration_stimuli/002630_2014-06-24_14-47-50_094959634447_rgbf000055-resize_1/002630_2014-06-24_14-47-50_094959634447_rgbf000055-resize_1-target.png,125,3.0095,10,4428,126,meters,jsons/VE125_randls_43_rotated.json,764280,1080877,27,Woman
8,241740,DepthScenes,duration_manipulation_targetAtFixation,jsons/VE125_randls_43_rotated.json,http://54.235.29.9/FacialAge/BNav_EC2/DepthDuration/v2_depth_duration_MTurk/v2_DepthDuration_HTML.html#365,365,1366,657,1366,768,8-30-2022,9-54-14,9,depth_duration_stimuli/002136_2014-06-25_21-18-03_260595134347_rgbf000109-resize_3/002136_2014-06-25_21-18-03_260595134347_rgbf000109-resize_3-target.png,125,1.9569999999999999,1,3811,124,meters,jsons/VE125_randls_43_rotated.json,764280,1080877,27,Woman
9,241740,DepthScenes,duration_manipulation_targetAtFixation,jsons/VE125_randls_43_rotated.json,http://54.235.29.9/FacialAge/BNav_EC2/DepthDuration/v2_depth_duration_MTurk/v2_DepthDuration_HTML.html#365,365,1366,657,1366,768,8-30-2022,9-54-14,10,depth_duration_stimuli/002964_2014-06-08_17-46-11_094959634447_rgbf000091-resize_4/002964_2014-06-08_17-46-11_094959634447_rgbf000091-resize_4-target.png,125,1.6909999999999998,1,3003,126,meters,jsons/VE125_randls_43_rotated.json,764280,1080877,27,Woman
10,241740,DepthScenes,duration_manipulation_targetAtFixation,jsons/VE125_randls_43_rotated.json,http://54.235.29.9/FacialAge/BNav_EC2/DepthDuration/v2_depth_duration_MTurk/v2_DepthDuration_HTML.html#365,365,1366,657,1366,768,8-30-2022,9-54-14,11,depth_duration_stimuli/000103_2014-05-14_22-01-17_260595134347_rgbf000152-resize_5/000103_2014-05-14_22-01-17_260595134347_rgbf000152-resize_5-target.png,125,1.993,1,3221,125,meters,jsons/VE125_randls_43_rotated.json,764280,1080877,27,Woman
11,241740,DepthScenes,duration_manipulation_targetAtFixation,jsons/VE125_randls_43_rotated.json,http://54.235.29.9/FacialAge/BNav_EC2/DepthDuration/v2_depth_duration_MTurk/v2_DepthDuration_HTML.html#365,365,1366,657,1366,768,8-30-2022,9-54-14,12,depth_duration_stimuli/001555_2014-06-20_17-12-10_260595134347_rgbf000065-resize_4/001555_2014-06-20_17-12-10_260595134347_rgbf000065-resize_4-target.png,125,1.633,1,3139,126,meters,jsons/VE125_randls_43_rotated.json,764280,1080877,27,Woman
12,241740,DepthScenes,duration_manipulation_targetAtFixation,jsons/VE125_randls_43_rotated.json,http://54.235.29.9/FacialAge/BNav_EC2/DepthDuration/v2_depth_duration_MTurk/v2_DepthDuration_HTML.html#365,365,1366,657,1366,768,8-30-2022,9-54-14,13,depth_duration_stimuli/001032_2014-06-08_13-23-17_260595134347_rgbf000021-resize_3/001032_2014-06-08_13-23-17_260595134347_rgbf000021-resize_3-target.png,125,3.2725,1,3694,126,meters,jsons/VE125_randls_43_rotated.json,764280,1080877,27,Woman
13,241740,DepthScenes,duration_manipulation_targetAtFixation,jsons/VE125_randls_43_rotated.json,http://54.235.29.9/FacialAge/BNav_EC2/DepthDuration/v2_depth_duration_MTurk/v2_DepthDuration_HTML.html#365,365,1366,657,1366,768,8-30-2022,9-54-14,14,depth_duration_stimuli/001059_2014-06-08_21-53-27_260595134347_rgbf000061-resize_4/001059_2014-06-08_21-53-27_260595134347_rgbf000061-resize_4-target.png,125,2.4185,2,3312,124,meters,jsons/VE125_randls_43_rotated.json,764280,1080877,27,Woman
14,241740,DepthScenes,duration_manipulation_targetAtFixation,jsons/VE125_randls_43_rotated.json,http://54.235.29.9/FacialAge/BNav_EC2/DepthDuration/v2_depth_duration_MTurk/v2_DepthDuration_HTML.html#365,365,1366,657,1366,768,8-30-2022,9-54-14,15,depth_duration_stimuli/001617_2014-06-20_11-35-32_260595134347_rgbf000066-resize_1/001617_2014-06-20_11-35-32_260595134347_rgbf000066-resize_1-target.png,125,3.7910000000000004,1,3329,126,meters,jsons/VE125_randls_43_rotated.json,764280,1080877,27,Woman
15,241740,DepthScenes,duration_manipulation_targetAtFixation,jsons/VE125_randls_43_rotated.json,http://54.235.29.9/FacialAge/BNav_EC2/DepthDuration/v2_depth_duration_MTurk/v2_DepthDuration_HTML.html#365,365,1366,657,1366,768,8-30-2022,9-54-14,16,depth_duration_stimuli/001806_2014-06-26_20-50-20_260595134347_rgbf000091-resize_1/001806_2014-06-26_20-50-20_260595134347_rgbf000091-resize_1-target.png,125,2.7305,1,2817,124,meters,jsons/VE125_randls_43_rotated.json,764280,1080877,27,Woman
16,241740,DepthScenes,duration_manipulation_targetAtFixation,jsons/VE125_randls_43_rotated.json,http://54.235.29.9/FacialAge/BNav_EC2/DepthDuration/v2_depth_duration_MTurk/v2_DepthDuration_HTML.html#365,365,1366,657,1366,768,8-30-2022,9-54-14,17,depth_duration_stimuli/002637_2014-06-24_14-51-13_094959634447_rgbf000066-resize_4/002637_2014-06-24_14-51-13_094959634447_rgbf000066-resize_4-target.png,125,1.9955,1,3290,125,meters,jsons/VE125_randls_43_rotated.json,764280,1080877,27,Woman
17,241740,DepthScenes,duration_manipulation_targetAtFixation,jsons/VE125_randls_43_rotated.json,http://54.235.29.9/FacialAge/BNav_EC2/DepthDuration/v2_depth_duration_MTurk/v2_DepthDuration_HTML.html#365,365,1366,657,1366,768,8-30-2022,9-54-14,18,depth_duration_stimuli/003534_2014-05-22_15-06-10_094959634447_rgbf000102-resize_4/003534_2014-05-22_15-06-10_094959634447_rgbf000102-resize_4-target.png,125,1.426,1,2949,125,meters,jsons/VE125_randls_43_rotated.json,764280,1080877,27,Woman
18,241740,DepthScenes,duration_manipulation_targetAtFixation,jsons/VE125_randls_43_rotated.json,http://54.235.29.9/FacialAge/BNav_EC2/DepthDuration/v2_depth_duration_MTurk/v2_DepthDuration_HTML.html#365,365,1366,657,1366,768,8-30-2022,9-54-14,19,depth_duration_stimuli/001498_2014-06-19_17-45-14_260595134347_rgbf000129-resize_4/001498_2014-06-19_17-45-14_260595134347_rgbf000129-resize-original.jpg,125,1.4075,1,2890,126,meters,jsons/VE125_randls_43_rotated.json,764280,1080877,27,Woman
19,241740,DepthScenes,duration_manipulation_targetAtFixation,jsons/VE125_randls_43_rotated.json,http://54.235.29.9/FacialAge/BNav_EC2/DepthDuration/v2_depth_duration_MTurk/v2_DepthDuration_HTML.html#365,365,1366,657,1366,768,8-30-2022,9-54-14,20,depth_duration_stimuli/001094_2014-06-15_17-36-00_260595134347_rgbf000205-resize_0/001094_2014-06-15_17-36-00_260595134347_rgbf000205-resize_0-target.png,125,4.2175,1,2925,125,meters,jsons/VE125_randls_43_rotated.json,764280,1080877,27,Woman
20,241740,DepthScenes,duration_manipulation_targetAtFixation,jsons/VE125_randls_43_rotated.json,http://54.235.29.9/FacialAge/BNav_EC2/DepthDuration/v2_depth_duration_MTurk/v2_DepthDuration_HTML.html#365,365,1366,657,1366,768,8-30-2022,9-54-14,21,depth_duration_stimuli/000692_2014-06-08_13-09-42_260595134347_rgbf000199-resize_2/000692_2014-06-08_13-09-42_260595134347_rgbf000199-resize_2-target.png,125,3.661,1,3533,126,meters,jsons/VE125_randls_43_rotated.json,764280,1080877,27,Woman
21,241740,DepthScenes,duration_manipulation_targetAtFixation,jsons/VE125_randls_43_rotated.json,http://54.235.29.9/FacialAge/BNav_EC2/DepthDuration/v2_depth_duration_MTurk/v2_DepthDuration_HTML.html#365,365,1366,657,1366,768,8-30-2022,9-54-14,22,depth_duration_stimuli/000502_2014-06-08_23-02-32_260595134347_rgbf000063-resize_4/000502_2014-06-08_23-02-32_260595134347_rgbf000063-resize_4-target.png,125,2.431,1,2639,125,meters,jsons/VE125_randls_43_rotated.json,764280,1080877,27,Woman
22,241740,DepthScenes,duration_manipulation_targetAtFixation,jsons/VE125_randls_43_rotated.json,http://54.235.29.9/FacialAge/BNav_EC2/DepthDuration/v2_depth_duration_MTurk/v2_DepthDuration_HTML.html#365,365,1366,657,1366,768,8-30-2022,9-54-14,23,depth_duration_stimuli/001199_2014-06-17_16-03-48_260595134347_rgbf000077-resize_0/001199_2014-06-17_16-03-48_260595134347_rgbf000077-resize_0-target.png,125,3.4375,1,3980,125,meters,jsons/VE125_randls_43_rotated.json,764280,1080877,27,Woman
23,241740,DepthScenes,duration_manipulation_targetAtFixation,jsons/VE125_randls_43_rotated.json,http://54.235.29.9/FacialAge/BNav_EC2/DepthDuration/v2_depth_duration_MTurk/v2_DepthDuration_HTML.html#365,365,1366,657,1366,768,8-30-2022,9-54-14,24,depth_duration_stimuli/002657_2014-06-13_15-29-54_094959634447_rgbf000150-resize_1/002657_2014-06-13_15-29-54_094959634447_rgbf000150-resize_1-target.png,125,4.919,1,3769,124,meters,jsons/VE125_randls_43_rotated.json,764280,1080877,27,Woman
24,241740,DepthScenes,duration_manipulation_targetAtFixation,jsons/VE125_randls_43_rotated.json,http://54.235.29.9/FacialAge/BNav_EC2/DepthDuration/v2_depth_duration_MTurk/v2_DepthDuration_HTML.html#365,365,1366,657,1366,768,8-30-2022,9-54-14,25,depth_duration_stimuli/002375_2014-06-28_20-13-44_260595134347_rgbf000032-resize_1/002375_2014-06-28_20-13-44_260595134347_rgbf000032-resize_1-target.png,125,4.0175,2,2887,125,meters,jsons/VE125_randls_43_rotated.json,764280,1080877,27,Woman
25,241740,DepthScenes,duration_manipulation_targetAtFixation,jsons/VE125_randls_43_rotated.json,http://54.235.29.9/FacialAge/BNav_EC2/DepthDuration/v2_depth_duration_MTurk/v2_DepthDuration_HTML.html#365,365,1366,657,1366,768,8-30-2022,9-54-14,26,depth_duration_stimuli/002340_2014-06-28_20-05-46_260595134347_rgbf000113-resize_0/002340_2014-06-28_20-05-46_260595134347_rgbf000113-resize_0-target.png,125,2.4735,2,2789,125,meters,jsons/VE125_randls_43_rotated.json,764280,1080877,27,Woman
26,241740,DepthScenes,duration_manipulation_targetAtFixation,jsons/VE125_randls_43_rotated.json,http://54.235.29.9/FacialAge/BNav_EC2/DepthDuration/v2_depth_duration_MTurk/v2_DepthDuration_HTML.html#365,365,1366,657,1366,768,8-30-2022,9-54-14,27,depth_duration_stimuli/001016_2014-06-09_16-16-10_260595134347_rgbf000112-resize_5/001016_2014-06-09_16-16-10_260595134347_rgbf000112-resize_5-target.png,125,1.6565,1,3708,124,meters,jsons/VE125_randls_43_rotated.json,764280,1080877,27,Woman
27,241740,DepthScenes,duration_manipulation_targetAtFixation,jsons/VE125_randls_43_rotated.json,http://54.235.29.9/FacialAge/BNav_EC2/DepthDuration/v2_depth_duration_MTurk/v2_DepthDuration_HTML.html#365,365,1366,657,1366,768,8-30-2022,9-54-14,28,depth_duration_stimuli/002344_2014-06-28_20-06-29_260595134347_rgbf000030-resize_1/002344_2014-06-28_20-06-29_260595134347_rgbf000030-resize_1-target.png,125,1.5795,1,3410,126,meters,jsons/VE125_randls_43_rotated.json,764280,1080877,27,Woman
28,241740,DepthScenes,duration_manipulation_targetAtFixation,jsons/VE125_randls_43_rotated.json,http://54.235.29.9/FacialAge/BNav_EC2/DepthDuration/v2_depth_duration_MTurk/v2_DepthDuration_HTML.html#365,365,1366,657,1366,768,8-30-2022,9-54-14,29,depth_duration_stimuli/002725_2014-06-22_11-47-51_094959634447_rgbf000070-resize_1/002725_2014-06-22_11-47-51_094959634447_rgbf000070-resize_1-target.png,125,2.195,1,2927,125,meters,jsons/VE125_randls_43_rotated.json,764280,1080877,27,Woman
29,241740,DepthScenes,duration_manipulation_targetAtFixation,jsons/VE125_randls_43_rotated.json,http://54.235.29.9/FacialAge/BNav_EC2/DepthDuration/v2_depth_duration_MTurk/v2_DepthDuration_HTML.html#365,365,1366,657,1366,768,8-30-2022,9-54-14,30,depth_duration_stimuli/002072_2014-06-24_21-48-06_260595134347_rgbf000115-resize_0/002072_2014-06-24_21-48-06_260595134347_rgbf000115-resize-original.jpg,125,4.702,2,3352,125,meters,jsons/VE125_randls_43_rotated.json,764280,1080877,27,Woman
30,241740,DepthScenes,duration_manipulation_targetAtFixation,jsons/VE125_randls_43_rotated.json,http://54.235.29.9/FacialAge/BNav_EC2/DepthDuration/v2_depth_duration_MTurk/v2_DepthDuration_HTML.html#365,365,1366,657,1366,768,8-30-2022,9-54-14,31,depth_duration_stimuli/000854_2014-06-09_19-43-13_260595134347_rgbf000066-resize_0/000854_2014-06-09_19-43-13_260595134347_rgbf000066-resize_0-target.png,125,3.068,1,3958,124,meters,jsons/VE125_randls_43_rotated.json,764280,1080877,27,Woman
31,241740,DepthScenes,duration_manipulation_targetAtFixation,jsons/VE125_randls_43_rotated.json,http://54.235.29.9/FacialAge/BNav_EC2/DepthDuration/v2_depth_duration_MTurk/v2_DepthDuration_HTML.html#365,365,1366,657,1366,768,8-30-2022,9-54-14,32,depth_duration_stimuli/000758_2014-06-08_22-05-08_260595134347_rgbf000085-resize_0/000758_2014-06-08_22-05-08_260595134347_rgbf000085-resize_0-target.png,125,3.3810000000000002,1,2868,126,meters,jsons/VE125_randls_43_rotated.json,764280,1080877,27,Woman
32,241740,DepthScenes,duration_manipulation_targetAtFixation,jsons/VE125_randls_43_rotated.json,http://54.235.29.9/FacialAge/BNav_EC2/DepthDuration/v2_depth_duration_MTurk/v2_DepthDuration_HTML.html#365,365,1366,657,1366,768,8-30-2022,9-54-14,33,depth_duration_stimuli/000749_2014-06-08_21-55-06_260595134347_rgbf000070-resize_2/000749_2014-06-08_21-55-06_260595134347_rgbf000070-resize_2-target.png,125,2.331,1,3830,125,meters,jsons/VE125_randls_43_rotated.json,764280,1080877,27,Woman
33,241740,DepthScenes,duration_manipulation_targetAtFixation,jsons/VE125_randls_43_rotated.json,http://54.235.29.9/FacialAge/BNav_EC2/DepthDuration/v2_depth_duration_MTurk/v2_DepthDuration_HTML.html#365,365,1366,657,1366,768,8-30-2022,9-54-14,34,depth_duration_stimuli/002788_2014-06-22_19-36-03_094959634447_rgbf000088-resize_2/002788_2014-06-22_19-36-03_094959634447_rgbf000088-resize_2-target.png,125,1.6465,0,3759,126,meters,jsons/VE125_randls_43_rotated.json,764280,1080877,27,Woman
34,241740,DepthScenes,duration_manipulation_targetAtFixation,jsons/VE125_randls_43_rotated.json,http://54.235.29.9/FacialAge/BNav_EC2/DepthDuration/v2_depth_duration_MTurk/v2_DepthDuration_HTML.html#365,365,1366,657,1366,768,8-30-2022,9-54-14,35,depth_duration_stimuli/001132_2014-06-17_14-48-54_260595134347_rgbf000100-resize_2/001132_2014-06-17_14-48-54_260595134347_rgbf000100-resize_2-target.png,125,3.753,1,2816,124,meters,jsons/VE125_randls_43_rotated.json,764280,1080877,27,Woman
35,241740,DepthScenes,duration_manipulation_targetAtFixation,jsons/VE125_randls_43_rotated.json,http://54.235.29.9/FacialAge/BNav_EC2/DepthDuration/v2_depth_duration_MTurk/v2_DepthDuration_HTML.html#365,365,1366,657,1366,768,8-30-2022,9-54-14,36,depth_duration_stimuli/001133_2014-06-17_14-49-16_260595134347_rgbf000100-resize_0/001133_2014-06-17_14-49-16_260595134347_rgbf000100-resize_0-target.png,125,4.2115,2,4087,125,meters,jsons/VE125_randls_43_rotated.json,764280,1080877,27,Woman
36,241740,DepthScenes,duration_manipulation_targetAtFixation,jsons/VE125_randls_43_rotated.json,http://54.235.29.9/FacialAge/BNav_EC2/DepthDuration/v2_depth_duration_MTurk/v2_DepthDuration_HTML.html#365,365,1366,657,1366,768,8-30-2022,9-54-14,37,depth_duration_stimuli/003048_2014-06-15_13-49-43_094959634447_rgbf000150-resize_1/003048_2014-06-15_13-49-43_094959634447_rgbf000150-resize_1-target.png,125,4.0035,1,2960,125,meters,jsons/VE125_randls_43_rotated.json,764280,1080877,27,Woman
37,241740,DepthScenes,duration_manipulation_targetAtFixation,jsons/VE125_randls_43_rotated.json,http://54.235.29.9/FacialAge/BNav_EC2/DepthDuration/v2_depth_duration_MTurk/v2_DepthDuration_HTML.html#365,365,1366,657,1366,768,8-30-2022,9-54-14,38,depth_duration_stimuli/002043_2014-06-24_20-29-38_260595134347_rgbf000039-resize_4/002043_2014-06-24_20-29-38_260595134347_rgbf000039-resize_4-target.png,125,2.8435,1,2859,124,meters,jsons/VE125_randls_43_rotated.json,764280,1080877,27,Woman
38,241740,DepthScenes,duration_manipulation_targetAtFixation,jsons/VE125_randls_43_rotated.json,http://54.235.29.9/FacialAge/BNav_EC2/DepthDuration/v2_depth_duration_MTurk/v2_DepthDuration_HTML.html#365,365,1366,657,1366,768,8-30-2022,9-54-14,39,depth_duration_stimuli/002949_2014-06-26_15-57-42_094959634447_rgbf000079-resize_1/002949_2014-06-26_15-57-42_094959634447_rgbf000079-resize_1-target.png,125,1.8915,1,2811,126,meters,jsons/VE125_randls_43_rotated.json,764280,1080877,27,Woman
39,241740,DepthScenes,duration_manipulation_targetAtFixation,jsons/VE125_randls_43_rotated.json,http://54.235.29.9/FacialAge/BNav_EC2/DepthDuration/v2_depth_duration_MTurk/v2_DepthDuration_HTML.html#365,365,1366,657,1366,768,8-30-2022,9-54-14,40,depth_duration_stimuli/000522_2014-06-08_13-35-06_260595134347_rgbf000244-resize_1/000522_2014-06-08_13-35-06_260595134347_rgbf000244-resize_1-target.png,125,2.3715,0,3797,125,meters,jsons/VE125_randls_43_rotated.json,764280,1080877,27,Woman
40,241740,DepthScenes,duration_manipulation_targetAtFixation,jsons/VE125_randls_43_rotated.json,http://54.235.29.9/FacialAge/BNav_EC2/DepthDuration/v2_depth_duration_MTurk/v2_DepthDuration_HTML.html#365,365,1366,657,1366,768,8-30-2022,9-54-14,41,depth_duration_stimuli/001828_2014-06-26_21-40-03_260595134347_rgbf000024-resize_0/001828_2014-06-26_21-40-03_260595134347_rgbf000024-resize_0-target.png,125,4.8260000000000005,1,3821,126,meters,jsons/VE125_randls_43_rotated.json,764280,1080877,27,Woman
41,241740,DepthScenes,duration_manipulation_targetAtFixation,jsons/VE125_randls_43_rotated.json,http://54.235.29.9/FacialAge/BNav_EC2/DepthDuration/v2_depth_duration_MTurk/v2_DepthDuration_HTML.html#365,365,1366,657,1366,768,8-30-2022,9-54-14,42,depth_duration_stimuli/000009_2014-05-26_14-32-05_260595134347_rgbf000034-resize_3/000009_2014-05-26_14-32-05_260595134347_rgbf000034-resize_3-target.png,125,3.8715,1,2816,125,meters,jsons/VE125_randls_43_rotated.json,764280,1080877,27,Woman
42,241740,DepthScenes,duration_manipulation_targetAtFixation,jsons/VE125_randls_43_rotated.json,http://54.235.29.9/FacialAge/BNav_EC2/DepthDuration/v2_depth_duration_MTurk/v2_DepthDuration_HTML.html#365,365,1366,657,1366,768,8-30-2022,9-54-14,43,depth_duration_stimuli/003495_2014-05-21_16-01-51_094959634447_rgbf000100-resize_3/003495_2014-05-21_16-01-51_094959634447_rgbf000100-resize_3-target.png,125,1.6255,1,2668,121,meters,jsons/VE125_randls_43_rotated.json,764280,1080877,27,Woman
43,241740,DepthScenes,duration_manipulation_targetAtFixation,jsons/VE125_randls_43_rotated.json,http://54.235.29.9/FacialAge/BNav_EC2/DepthDuration/v2_depth_duration_MTurk/v2_DepthDuration_HTML.html#365,365,1366,657,1366,768,8-30-2022,9-54-14,44,depth_duration_stimuli/001244_2014-06-17_16-47-45_260595134347_rgbf000030-resize_4/001244_2014-06-17_16-47-45_260595134347_rgbf000030-resize_4-target.png,125,2.0425,1,2889,125,meters,jsons/VE125_randls_43_rotated.json,764280,1080877,27,Woman
44,241740,DepthScenes,duration_manipulation_targetAtFixation,jsons/VE125_randls_43_rotated.json,http://54.235.29.9/FacialAge/BNav_EC2/DepthDuration/v2_depth_duration_MTurk/v2_DepthDuration_HTML.html#365,365,1366,657,1366,768,8-30-2022,9-54-14,45,depth_duration_stimuli/001450_2014-06-19_17-02-03_260595134347_rgbf000203-resize_4/001450_2014-06-19_17-02-03_260595134347_rgbf000203-resize_4-target.png,125,4.0106666666667,0,3577,125,meters,jsons/VE125_randls_43_rotated.json,764280,1080877,27,Woman
45,241740,DepthScenes,duration_manipulation_targetAtFixation,jsons/VE125_randls_43_rotated.json,http://54.235.29.9/FacialAge/BNav_EC2/DepthDuration/v2_depth_duration_MTurk/v2_DepthDuration_HTML.html#365,365,1366,657,1366,768,8-30-2022,9-54-14,46,depth_duration_stimuli/001449_2014-06-19_17-01-27_260595134347_rgbf000116-resize_2/001449_2014-06-19_17-01-27_260595134347_rgbf000116-resize_2-target.png,125,3.452,1,2818,125,meters,jsons/VE125_randls_43_rotated.json,764280,1080877,27,Woman
46,241740,DepthScenes,duration_manipulation_targetAtFixation,jsons/VE125_randls_43_rotated.json,http://54.235.29.9/FacialAge/BNav_EC2/DepthDuration/v2_depth_duration_MTurk/v2_DepthDuration_HTML.html#365,365,1366,657,1366,768,8-30-2022,9-54-14,47,depth_duration_stimuli/000483_2014-06-09_20-41-45_260595134347_rgbf000116-resize_4/000483_2014-06-09_20-41-45_260595134347_rgbf000116-resize_4-target.png,125,1.337,1,2898,124,meters,jsons/VE125_randls_43_rotated.json,764280,1080877,27,Woman
47,241740,DepthScenes,duration_manipulation_targetAtFixation,jsons/VE125_randls_43_rotated.json,http://54.235.29.9/FacialAge/BNav_EC2/DepthDuration/v2_depth_duration_MTurk/v2_DepthDuration_HTML.html#365,365,1366,657,1366,768,8-30-2022,9-54-14,48,depth_duration_stimuli/000469_2014-06-09_19-42-10_260595134347_rgbf000081-resize_1/000469_2014-06-09_19-42-10_260595134347_rgbf000081-resize_1-target.png,125,1.652,0,3867,124,meters,jsons/VE125_randls_43_rotated.json,764280,1080877,27,Woman
48,241740,DepthScenes,duration_manipulation_targetAtFixation,jsons/VE125_randls_43_rotated.json,http://54.235.29.9/FacialAge/BNav_EC2/DepthDuration/v2_depth_duration_MTurk/v2_DepthDuration_HTML.html#365,365,1366,657,1366,768,8-30-2022,9-54-14,49,depth_duration_stimuli/001170_2014-06-17_15-43-44_260595134347_rgbf000096-resize_6/001170_2014-06-17_15-43-44_260595134347_rgbf000096-resize-original.jpg,125,1.1909999999999998,0,3731,125,meters,jsons/VE125_randls_43_rotated.json,764280,1080877,27,Woman
49,241740,DepthScenes,duration_manipulation_targetAtFixation,jsons/VE125_randls_43_rotated.json,http://54.235.29.9/FacialAge/BNav_EC2/DepthDuration/v2_depth_duration_MTurk/v2_DepthDuration_HTML.html#365,365,1366,657,1366,768,8-30-2022,9-54-14,50,depth_duration_stimuli/003083_2014-06-15_15-21-03_094959634447_rgbf000063-resize_1/003083_2014-06-15_15-21-03_094959634447_rgbf000063-resize_1-target.png,125,4.1405,1,3757,124,meters,jsons/VE125_randls_43_rotated.json,764280,1080877,27,Woman
50,241740,DepthScenes,duration_manipulation_targetAtFixation,jsons/VE125_randls_43_rotated.json,http://54.235.29.9/FacialAge/BNav_EC2/DepthDuration/v2_depth_duration_MTurk/v2_DepthDuration_HTML.html#365,365,1366,657,1366,768,8-30-2022,9-54-14,51,depth_duration_stimuli/000486_2014-06-09_20-47-20_260595134347_rgbf000143-resize_2/000486_2014-06-09_20-47-20_260595134347_rgbf000143-resize_2-target.png,125,4.8325,1,2931,125,meters,jsons/VE125_randls_43_rotated.json,764280,1080877,27,Woman
51,241740,DepthScenes,duration_manipulation_targetAtFixation,jsons/VE125_randls_43_rotated.json,http://54.235.29.9/FacialAge/BNav_EC2/DepthDuration/v2_depth_duration_MTurk/v2_DepthDuration_HTML.html#365,365,1366,657,1366,768,8-30-2022,9-54-14,52,depth_duration_stimuli/000191_2014-05-12_17-07-38_260595134347_rgbf000199-resize_0/000191_2014-05-12_17-07-38_260595134347_rgbf000199-resize_0-target.png,125,3.7995,1,2707,125,meters,jsons/VE125_randls_43_rotated.json,764280,1080877,27,Woman
52,241740,DepthScenes,duration_manipulation_targetAtFixation,jsons/VE125_randls_43_rotated.json,http://54.235.29.9/FacialAge/BNav_EC2/DepthDuration/v2_depth_duration_MTurk/v2_DepthDuration_HTML.html#365,365,1366,657,1366,768,8-30-2022,9-54-14,53,depth_duration_stimuli/000493_2014-06-09_21-01-18_260595134347_rgbf000196-resize_3/000493_2014-06-09_21-01-18_260595134347_rgbf000196-resize_3-target.png,125,3.44,1,2475,124,meters,jsons/VE125_randls_43_rotated.json,764280,1080877,27,Woman
53,241740,DepthScenes,duration_manipulation_targetAtFixation,jsons/VE125_randls_43_rotated.json,http://54.235.29.9/FacialAge/BNav_EC2/DepthDuration/v2_depth_duration_MTurk/v2_DepthDuration_HTML.html#365,365,1366,657,1366,768,8-30-2022,9-54-14,54,depth_duration_stimuli/003079_2014-06-15_15-18-20_094959634447_rgbf000152-resize_8/003079_2014-06-15_15-18-20_094959634447_rgbf000152-resize_8-target.png,125,2.8775,1,2839,127,meters,jsons/VE125_randls_43_rotated.json,764280,1080877,27,Woman
54,241740,DepthScenes,duration_manipulation_targetAtFixation,jsons/VE125_randls_43_rotated.json,http://54.235.29.9/FacialAge/BNav_EC2/DepthDuration/v2_depth_duration_MTurk/v2_DepthDuration_HTML.html#365,365,1366,657,1366,768,8-30-2022,9-54-14,55,depth_duration_stimuli/000506_2014-06-08_23-21-00_260595134347_rgbf000070-resize_7/000506_2014-06-08_23-21-00_260595134347_rgbf000070-resize_7-target.png,125,4.0585,1,2602,126,meters,jsons/VE125_randls_43_rotated.json,764280,1080877,27,Woman
55,241740,DepthScenes,duration_manipulation_targetAtFixation,jsons/VE125_randls_43_rotated.json,http://54.235.29.9/FacialAge/BNav_EC2/DepthDuration/v2_depth_duration_MTurk/v2_DepthDuration_HTML.html#365,365,1366,657,1366,768,8-30-2022,9-54-14,56,depth_duration_stimuli/001136_2014-06-17_15-19-41_260595134347_rgbf000076-resize_3/001136_2014-06-17_15-19-41_260595134347_rgbf000076-resize_3-target.png,125,1.8655,2,2858,125,meters,jsons/VE125_randls_43_rotated.json,764280,1080877,27,Woman
56,241740,DepthScenes,duration_manipulation_targetAtFixation,jsons/VE125_randls_43_rotated.json,http://54.235.29.9/FacialAge/BNav_EC2/DepthDuration/v2_depth_duration_MTurk/v2_DepthDuration_HTML.html#365,365,1366,657,1366,768,8-30-2022,9-54-14,57,depth_duration_stimuli/001164_2014-06-17_15-35-46_260595134347_rgbf000085-resize_3/001164_2014-06-17_15-35-46_260595134347_rgbf000085-resize_3-target.png,125,2.354,1,4980,126,meters,jsons/VE125_randls_43_rotated.json,764280,1080877,27,Woman
57,241740,DepthScenes,duration_manipulation_targetAtFixation,jsons/VE125_randls_43_rotated.json,http://54.235.29.9/FacialAge/BNav_EC2/DepthDuration/v2_depth_duration_MTurk/v2_DepthDuration_HTML.html#365,365,1366,657,1366,768,8-30-2022,9-54-14,58,depth_duration_stimuli/002568_2014-06-24_13-59-21_094959634447_rgbf000062-resize_4/002568_2014-06-24_13-59-21_094959634447_rgbf000062-resize_4-target.png,125,3.015,0,4258,127,meters,jsons/VE125_randls_43_rotated.json,764280,1080877,27,Woman
58,241740,DepthScenes,duration_manipulation_targetAtFixation,jsons/VE125_randls_43_rotated.json,http://54.235.29.9/FacialAge/BNav_EC2/DepthDuration/v2_depth_duration_MTurk/v2_DepthDuration_HTML.html#365,365,1366,657,1366,768,8-30-2022,9-54-14,59,depth_duration_stimuli/003492_2014-05-21_15-50-55_094959634447_rgbf000828-resize_1/003492_2014-05-21_15-50-55_094959634447_rgbf000828-resize_1-target.png,125,4.06875,1,3090,126,meters,jsons/VE125_randls_43_rotated.json,764280,1080877,27,Woman
59,241740,DepthScenes,duration_manipulation_targetAtFixation,jsons/VE125_randls_43_rotated.json,http://54.235.29.9/FacialAge/BNav_EC2/DepthDuration/v2_depth_duration_MTurk/v2_DepthDuration_HTML.html#365,365,1366,657,1366,768,8-30-2022,9-54-14,60,depth_duration_stimuli/002875_2014-06-01_15-19-00_094959634447_rgbf000151-resize_1/002875_2014-06-01_15-19-00_094959634447_rgbf000151-resize_1-target.png,125,1.9675,1,3607,125,meters,jsons/VE125_randls_43_rotated.json,764280,1080877,27,Woman
60,241740,DepthScenes,duration_manipulation_targetAtFixation,jsons/VE125_randls_43_rotated.json,http://54.235.29.9/FacialAge/BNav_EC2/DepthDuration/v2_depth_duration_MTurk/v2_DepthDuration_HTML.html#365,365,1366,657,1366,768,8-30-2022,9-54-14,61,depth_duration_stimuli/001011_2014-06-08_23-18-54_260595134347_rgbf000044-resize_4/001011_2014-06-08_23-18-54_260595134347_rgbf000044-resize_4-target.png,125,2.4730000000000003,1,2937,125,meters,jsons/VE125_randls_43_rotated.json,764280,1080877,27,Woman
61,241740,DepthScenes,duration_manipulation_targetAtFixation,jsons/VE125_randls_43_rotated.json,http://54.235.29.9/FacialAge/BNav_EC2/DepthDuration/v2_depth_duration_MTurk/v2_DepthDuration_HTML.html#365,365,1366,657,1366,768,8-30-2022,9-54-14,62,depth_duration_stimuli/002444_2014-06-28_20-32-08_260595134347_rgbf000027-resize_0/002444_2014-06-28_20-32-08_260595134347_rgbf000027-resize_0-target.png,125,4.388999999999999,0,15998,124,meters,jsons/VE125_randls_43_rotated.json,764280,1080877,27,Woman
62,241740,DepthScenes,duration_manipulation_targetAtFixation,jsons/VE125_randls_43_rotated.json,http://54.235.29.9/FacialAge/BNav_EC2/DepthDuration/v2_depth_duration_MTurk/v2_DepthDuration_HTML.html#365,365,1366,657,1366,768,8-30-2022,9-54-14,63,depth_duration_stimuli/000436_2014-06-09_22-25-11_260595134347_rgbf000137-resize_1/000436_2014-06-09_22-25-11_260595134347_rgbf000137-resize_1-target.png,125,4.0705,2,3168,125,meters,jsons/VE125_randls_43_rotated.json,764280,1080877,27,Woman
63,241740,DepthScenes,duration_manipulation_targetAtFixation,jsons/VE125_randls_43_rotated.json,http://54.235.29.9/FacialAge/BNav_EC2/DepthDuration/v2_depth_duration_MTurk/v2_DepthDuration_HTML.html#365,365,1366,657,1366,768,8-30-2022,9-54-14,64,depth_duration_stimuli/000556_2014-06-09_22-42-56_260595134347_rgbf000214-resize_1/000556_2014-06-09_22-42-56_260595134347_rgbf000214-resize_1-target.png,125,4.8415,2,3337,125,meters,jsons/VE125_randls_43_rotated.json,764280,1080877,27,Woman
64,241740,DepthScenes,duration_manipulation_targetAtFixation,jsons/VE125_randls_43_rotated.json,http://54.235.29.9/FacialAge/BNav_EC2/DepthDuration/v2_depth_duration_MTurk/v2_DepthDuration_HTML.html#365,365,1366,657,1366,768,8-30-2022,9-54-14,65,depth_duration_stimuli/001158_2014-06-17_15-32-16_260595134347_rgbf000138-resize_2/001158_2014-06-17_15-32-16_260595134347_rgbf000138-resize_2-target.png,125,4.5315,1,2952,126,meters,jsons/VE125_randls_43_rotated.json,764280,1080877,27,Woman
65,241740,DepthScenes,duration_manipulation_targetAtFixation,jsons/VE125_randls_43_rotated.json,http://54.235.29.9/FacialAge/BNav_EC2/DepthDuration/v2_depth_duration_MTurk/v2_DepthDuration_HTML.html#365,365,1366,657,1366,768,8-30-2022,9-54-14,66,depth_duration_stimuli/001540_2014-06-20_17-01-05_260595134347_rgbf000086-resize_2/001540_2014-06-20_17-01-05_260595134347_rgbf000086-resize-original.jpg,125,1.459,1,2879,125,meters,jsons/VE125_randls_43_rotated.json,764280,1080877,27,Woman
66,241740,DepthScenes,duration_manipulation_targetAtFixation,jsons/VE125_randls_43_rotated.json,http://54.235.29.9/FacialAge/BNav_EC2/DepthDuration/v2_depth_duration_MTurk/v2_DepthDuration_HTML.html#365,365,1366,657,1366,768,8-30-2022,9-54-14,67,depth_duration_stimuli/002323_2014-06-28_20-01-54_260595134347_rgbf000051-resize_4/002323_2014-06-28_20-01-54_260595134347_rgbf000051-resize_4-target.png,125,3.7310000000000003,2,3246,125,meters,jsons/VE125_randls_43_rotated.json,764280,1080877,27,Woman
67,241740,DepthScenes,duration_manipulation_targetAtFixation,jsons/VE125_randls_43_rotated.json,http://54.235.29.9/FacialAge/BNav_EC2/DepthDuration/v2_depth_duration_MTurk/v2_DepthDuration_HTML.html#365,365,1366,657,1366,768,8-30-2022,9-54-14,68,depth_duration_stimuli/000917_2014-06-09_22-45-29_260595134347_rgbf000149-resize_3/000917_2014-06-09_22-45-29_260595134347_rgbf000149-resize_3-target.png,125,4.1865,2,2611,125,meters,jsons/VE125_randls_43_rotated.json,764280,1080877,27,Woman
68,241740,DepthScenes,duration_manipulation_targetAtFixation,jsons/VE125_randls_43_rotated.json,http://54.235.29.9/FacialAge/BNav_EC2/DepthDuration/v2_depth_duration_MTurk/v2_DepthDuration_HTML.html#365,365,1366,657,1366,768,8-30-2022,9-54-14,69,depth_duration_stimuli/003228_2014-05-14_13-42-35_094959634447_rgbf000101-resize_1/003228_2014-05-14_13-42-35_094959634447_rgbf000101-resize_1-target.png,125,1.9680000000000002,2,3120,126,meters,jsons/VE125_randls_43_rotated.json,764280,1080877,27,Woman
69,241740,DepthScenes,duration_manipulation_targetAtFixation,jsons/VE125_randls_43_rotated.json,http://54.235.29.9/FacialAge/BNav_EC2/DepthDuration/v2_depth_duration_MTurk/v2_DepthDuration_HTML.html#365,365,1366,657,1366,768,8-30-2022,9-54-14,70,depth_duration_stimuli/002600_2014-06-24_14-27-04_094959634447_rgbf000074-resize_2/002600_2014-06-24_14-27-04_094959634447_rgbf000074-resize_2-target.png,125,2.7575,1,2720,126,meters,jsons/VE125_randls_43_rotated.json,764280,1080877,27,Woman
70,241740,DepthScenes,duration_manipulation_targetAtFixation,jsons/VE125_randls_43_rotated.json,http://54.235.29.9/FacialAge/BNav_EC2/DepthDuration/v2_depth_duration_MTurk/v2_DepthDuration_HTML.html#365,365,1366,657,1366,768,8-30-2022,9-54-14,71,depth_duration_stimuli/000927_2014-06-09_16-32-30_260595134347_rgbf000123-resize_3/000927_2014-06-09_16-32-30_260595134347_rgbf000123-resize_3-target.png,125,2.6785,1,2629,125,meters,jsons/VE125_randls_43_rotated.json,764280,1080877,27,Woman
71,241740,DepthScenes,duration_manipulation_targetAtFixation,jsons/VE125_randls_43_rotated.json,http://54.235.29.9/FacialAge/BNav_EC2/DepthDuration/v2_depth_duration_MTurk/v2_DepthDuration_HTML.html#365,365,1366,657,1366,768,8-30-2022,9-54-14,72,depth_duration_stimuli/001110_2014-06-15_17-25-28_260595134347_rgbf000150-resize_1/001110_2014-06-15_17-25-28_260595134347_rgbf000150-resize_1-target.png,125,1.7115,1,2679,125,meters,jsons/VE125_randls_43_rotated.json,764280,1080877,27,Woman
72,241740,DepthScenes,duration_manipulation_targetAtFixation,jsons/VE125_randls_43_rotated.json,http://54.235.29.9/FacialAge/BNav_EC2/DepthDuration/v2_depth_duration_MTurk/v2_DepthDuration_HTML.html#365,365,1366,657,1366,768,8-30-2022,9-54-14,73,depth_duration_stimuli/000635_2014-06-08_16-38-42_260595134347_rgbf000106-resize_1/000635_2014-06-08_16-38-42_260595134347_rgbf000106-resize_1-target.png,125,2.074,1,2660,125,meters,jsons/VE125_randls_43_rotated.json,764280,1080877,27,Woman
73,241740,DepthScenes,duration_manipulation_targetAtFixation,jsons/VE125_randls_43_rotated.json,http://54.235.29.9/FacialAge/BNav_EC2/DepthDuration/v2_depth_duration_MTurk/v2_DepthDuration_HTML.html#365,365,1366,657,1366,768,8-30-2022,9-54-14,74,depth_duration_stimuli/002279_2014-06-28_18-55-32_260595134347_rgbf000040-resize_5/002279_2014-06-28_18-55-32_260595134347_rgbf000040-resize_5-target.png,125,1.5043333333333,1,2568,126,meters,jsons/VE125_randls_43_rotated.json,764280,1080877,27,Woman
74,241740,DepthScenes,duration_manipulation_targetAtFixation,jsons/VE125_randls_43_rotated.json,http://54.235.29.9/FacialAge/BNav_EC2/DepthDuration/v2_depth_duration_MTurk/v2_DepthDuration_HTML.html#365,365,1366,657,1366,768,8-30-2022,9-54-14,75,depth_duration_stimuli/001214_2014-06-17_16-13-55_260595134347_rgbf000111-resize_0/001214_2014-06-17_16-13-55_260595134347_rgbf000111-resize_0-target.png,125,2.6505,1,2787,124,meters,jsons/VE125_randls_43_rotated.json,764280,1080877,27,Woman
75,241740,DepthScenes,duration_manipulation_targetAtFixation,jsons/VE125_randls_43_rotated.json,http://54.235.29.9/FacialAge/BNav_EC2/DepthDuration/v2_depth_duration_MTurk/v2_DepthDuration_HTML.html#365,365,1366,657,1366,768,8-30-2022,9-54-14,76,depth_duration_stimuli/000810_2014-06-08_17-20-01_260595134347_rgbf000105-resize_0/000810_2014-06-08_17-20-01_260595134347_rgbf000105-resize_0-target.png,125,1.4865,0,3289,125,meters,jsons/VE125_randls_43_rotated.json,764280,1080877,27,Woman
76,241740,DepthScenes,duration_manipulation_targetAtFixation,jsons/VE125_randls_43_rotated.json,http://54.235.29.9/FacialAge/BNav_EC2/DepthDuration/v2_depth_duration_MTurk/v2_DepthDuration_HTML.html#365,365,1366,657,1366,768,8-30-2022,9-54-14,77,depth_duration_stimuli/001235_2014-06-17_16-37-36_260595134347_rgbf000084-resize_4/001235_2014-06-17_16-37-36_260595134347_rgbf000084-resize_4-target.png,125,3.6605,1,2779,124,meters,jsons/VE125_randls_43_rotated.json,764280,1080877,27,Woman
77,241740,DepthScenes,duration_manipulation_targetAtFixation,jsons/VE125_randls_43_rotated.json,http://54.235.29.9/FacialAge/BNav_EC2/DepthDuration/v2_depth_duration_MTurk/v2_DepthDuration_HTML.html#365,365,1366,657,1366,768,8-30-2022,9-54-14,78,depth_duration_stimuli/000788_2014-06-08_22-34-36_260595134347_rgbf000131-resize_1/000788_2014-06-08_22-34-36_260595134347_rgbf000131-resize_1-target.png,125,3.359,1,3158,124,meters,jsons/VE125_randls_43_rotated.json,764280,1080877,27,Woman
78,241740,DepthScenes,duration_manipulation_targetAtFixation,jsons/VE125_randls_43_rotated.json,http://54.235.29.9/FacialAge/BNav_EC2/DepthDuration/v2_depth_duration_MTurk/v2_DepthDuration_HTML.html#365,365,1366,657,1366,768,8-30-2022,9-54-14,79,depth_duration_stimuli/003490_2014-05-21_15-50-11_094959634447_rgbf000101-resize_3/003490_2014-05-21_15-50-11_094959634447_rgbf000101-resize_3-target.png,125,3.6445,1,2815,126,meters,jsons/VE125_randls_43_rotated.json,764280,1080877,27,Woman
79,241740,DepthScenes,duration_manipulation_targetAtFixation,jsons/VE125_randls_43_rotated.json,http://54.235.29.9/FacialAge/BNav_EC2/DepthDuration/v2_depth_duration_MTurk/v2_DepthDuration_HTML.html#365,365,1366,657,1366,768,8-30-2022,9-54-14,80,depth_duration_stimuli/001175_2014-06-17_15-45-55_260595134347_rgbf000129-resize_4/001175_2014-06-17_15-45-55_260595134347_rgbf000129-resize_4-target.png,125,4.255,2,2973,125,meters,jsons/VE125_randls_43_rotated.json,764280,1080877,27,Woman
80,241740,DepthScenes,duration_manipulation_targetAtFixation,jsons/VE125_randls_43_rotated.json,http://54.235.29.9/FacialAge/BNav_EC2/DepthDuration/v2_depth_duration_MTurk/v2_DepthDuration_HTML.html#365,365,1366,657,1366,768,8-30-2022,9-54-14,81,depth_duration_stimuli/003081_2014-06-15_15-19-16_094959634447_rgbf000150-resize_1/003081_2014-06-15_15-19-16_094959634447_rgbf000150-resize_1-target.png,125,3.9125,2,3151,125,meters,jsons/VE125_randls_43_rotated.json,764280,1080877,27,Woman
81,241740,DepthScenes,duration_manipulation_targetAtFixation,jsons/VE125_randls_43_rotated.json,http://54.235.29.9/FacialAge/BNav_EC2/DepthDuration/v2_depth_duration_MTurk/v2_DepthDuration_HTML.html#365,365,1366,657,1366,768,8-30-2022,9-54-14,82,depth_duration_stimuli/001417_2014-06-19_16-25-36_260595134347_rgbf000115-resize_5/001417_2014-06-19_16-25-36_260595134347_rgbf000115-resize_5-target.png,125,4.6255,1,2831,126,meters,jsons/VE125_randls_43_rotated.json,764280,1080877,27,Woman
82,241740,DepthScenes,duration_manipulation_targetAtFixation,jsons/VE125_randls_43_rotated.json,http://54.235.29.9/FacialAge/BNav_EC2/DepthDuration/v2_depth_duration_MTurk/v2_DepthDuration_HTML.html#365,365,1366,657,1366,768,8-30-2022,9-54-14,83,depth_duration_stimuli/000866_2014-06-09_20-45-42_260595134347_rgbf000139-resize_1/000866_2014-06-09_20-45-42_260595134347_rgbf000139-resize_1-target.png,125,3.2155,0,3335,126,meters,jsons/VE125_randls_43_rotated.json,764280,1080877,27,Woman
83,241740,DepthScenes,duration_manipulation_targetAtFixation,jsons/VE125_randls_43_rotated.json,http://54.235.29.9/FacialAge/BNav_EC2/DepthDuration/v2_depth_duration_MTurk/v2_DepthDuration_HTML.html#365,365,1366,657,1366,768,8-30-2022,9-54-14,84,depth_duration_stimuli/002989_2014-06-15_12-25-03_094959634447_rgbf000150-resize_3/002989_2014-06-15_12-25-03_094959634447_rgbf000150-resize_3-target.png,125,4.1975,1,2409,125,meters,jsons/VE125_randls_43_rotated.json,764280,1080877,27,Woman
84,241740,DepthScenes,duration_manipulation_targetAtFixation,jsons/VE125_randls_43_rotated.json,http://54.235.29.9/FacialAge/BNav_EC2/DepthDuration/v2_depth_duration_MTurk/v2_DepthDuration_HTML.html#365,365,1366,657,1366,768,8-30-2022,9-54-14,85,depth_duration_stimuli/000742_2014-06-08_18-48-09_260595134347_rgbf000164-resize_4/000742_2014-06-08_18-48-09_260595134347_rgbf000164-resize_4-target.png,125,4.632,2,3350,125,meters,jsons/VE125_randls_43_rotated.json,764280,1080877,27,Woman
85,241740,DepthScenes,duration_manipulation_targetAtFixation,jsons/VE125_randls_43_rotated.json,http://54.235.29.9/FacialAge/BNav_EC2/DepthDuration/v2_depth_duration_MTurk/v2_DepthDuration_HTML.html#365,365,1366,657,1366,768,8-30-2022,9-54-14,86,depth_duration_stimuli/001066_2014-06-08_22-03-20_260595134347_rgbf000066-resize_4/001066_2014-06-08_22-03-20_260595134347_rgbf000066-resize_4-target.png,125,4.2330000000000005,1,3259,125,meters,jsons/VE125_randls_43_rotated.json,764280,1080877,27,Woman
86,241740,DepthScenes,duration_manipulation_targetAtFixation,jsons/VE125_randls_43_rotated.json,http://54.235.29.9/FacialAge/BNav_EC2/DepthDuration/v2_depth_duration_MTurk/v2_DepthDuration_HTML.html#365,365,1366,657,1366,768,8-30-2022,9-54-14,87,depth_duration_stimuli/001650_2014-06-20_12-09-00_260595134347_rgbf000087-resize_3/001650_2014-06-20_12-09-00_260595134347_rgbf000087-resize_3-target.png,125,1.9505,3,3288,125,meters,jsons/VE125_randls_43_rotated.json,764280,1080877,27,Woman
87,241740,DepthScenes,duration_manipulation_targetAtFixation,jsons/VE125_randls_43_rotated.json,http://54.235.29.9/FacialAge/BNav_EC2/DepthDuration/v2_depth_duration_MTurk/v2_DepthDuration_HTML.html#365,365,1366,657,1366,768,8-30-2022,9-54-14,88,depth_duration_stimuli/000682_2014-06-08_23-14-58_260595134347_rgbf000041-resize_5/000682_2014-06-08_23-14-58_260595134347_rgbf000041-resize_5-target.png,125,2.7239999999999998,2,3419,125,meters,jsons/VE125_randls_43_rotated.json,764280,1080877,27,Woman
88,241740,DepthScenes,duration_manipulation_targetAtFixation,jsons/VE125_randls_43_rotated.json,http://54.235.29.9/FacialAge/BNav_EC2/DepthDuration/v2_depth_duration_MTurk/v2_DepthDuration_HTML.html#365,365,1366,657,1366,768,8-30-2022,9-54-14,89,depth_duration_stimuli/003338_2014-05-20_11-01-23_094959634447_rgbf000051-resize_6/003338_2014-05-20_11-01-23_094959634447_rgbf000051-resize_6-target.png,125,1.693,0,4429,126,meters,jsons/VE125_randls_43_rotated.json,764280,1080877,27,Woman
89,241740,DepthScenes,duration_manipulation_targetAtFixation,jsons/VE125_randls_43_rotated.json,http://54.235.29.9/FacialAge/BNav_EC2/DepthDuration/v2_depth_duration_MTurk/v2_DepthDuration_HTML.html#365,365,1366,657,1366,768,8-30-2022,9-54-14,90,depth_duration_stimuli/002509_2014-06-24_13-19-22_094959634447_rgbf000077-resize_0/002509_2014-06-24_13-19-22_094959634447_rgbf000077-resize_0-target.png,125,1.3065,0,3408,126,meters,jsons/VE125_randls_43_rotated.json,764280,1080877,27,Woman
90,241740,DepthScenes,duration_manipulation_targetAtFixation,jsons/VE125_randls_43_rotated.json,http://54.235.29.9/FacialAge/BNav_EC2/DepthDuration/v2_depth_duration_MTurk/v2_DepthDuration_HTML.html#365,365,1366,657,1366,768,8-30-2022,9-54-14,91,depth_duration_stimuli/001392_2014-06-19_16-07-59_260595134347_rgbf000046-resize_1/001392_2014-06-19_16-07-59_260595134347_rgbf000046-resize_1-target.png,125,4.135,2,3299,126,meters,jsons/VE125_randls_43_rotated.json,764280,1080877,27,Woman
91,241740,DepthScenes,duration_manipulation_targetAtFixation,jsons/VE125_randls_43_rotated.json,http://54.235.29.9/FacialAge/BNav_EC2/DepthDuration/v2_depth_duration_MTurk/v2_DepthDuration_HTML.html#365,365,1366,657,1366,768,8-30-2022,9-54-14,92,depth_duration_stimuli/001570_2014-06-20_17-21-09_260595134347_rgbf000135-resize_4/001570_2014-06-20_17-21-09_260595134347_rgbf000135-resize_4-target.png,125,4.467,3,4029,124,meters,jsons/VE125_randls_43_rotated.json,764280,1080877,27,Woman
92,241740,DepthScenes,duration_manipulation_targetAtFixation,jsons/VE125_randls_43_rotated.json,http://54.235.29.9/FacialAge/BNav_EC2/DepthDuration/v2_depth_duration_MTurk/v2_DepthDuration_HTML.html#365,365,1366,657,1366,768,8-30-2022,9-54-14,93,depth_duration_stimuli/002209_2014-06-28_18-36-10_260595134347_rgbf000051-resize_1/002209_2014-06-28_18-36-10_260595134347_rgbf000051-resize_1-target.png,125,2.057,2,5008,125,meters,jsons/VE125_randls_43_rotated.json,764280,1080877,27,Woman
93,241740,DepthScenes,duration_manipulation_targetAtFixation,jsons/VE125_randls_43_rotated.json,http://54.235.29.9/FacialAge/BNav_EC2/DepthDuration/v2_depth_duration_MTurk/v2_DepthDuration_HTML.html#365,365,1366,657,1366,768,8-30-2022,9-54-14,94,depth_duration_stimuli/002763_2014-06-22_19-13-10_094959634447_rgbf000075-resize_4/002763_2014-06-22_19-13-10_094959634447_rgbf000075-resize_4-target.png,125,1.68375,2,3459,126,meters,jsons/VE125_randls_43_rotated.json,764280,1080877,27,Woman
94,241740,DepthScenes,duration_manipulation_targetAtFixation,jsons/VE125_randls_43_rotated.json,http://54.235.29.9/FacialAge/BNav_EC2/DepthDuration/v2_depth_duration_MTurk/v2_DepthDuration_HTML.html#365,365,1366,657,1366,768,8-30-2022,9-54-14,95,depth_duration_stimuli/001516_2014-06-20_16-25-09_260595134347_rgbf000076-resize_2/001516_2014-06-20_16-25-09_260595134347_rgbf000076-resize_2-target.png,125,1.7445,0,4048,126,meters,jsons/VE125_randls_43_rotated.json,764280,1080877,27,Woman
95,241740,DepthScenes,duration_manipulation_targetAtFixation,jsons/VE125_randls_43_rotated.json,http://54.235.29.9/FacialAge/BNav_EC2/DepthDuration/v2_depth_duration_MTurk/v2_DepthDuration_HTML.html#365,365,1366,657,1366,768,8-30-2022,9-54-14,96,depth_duration_stimuli/002118_2014-06-25_20-32-08_260595134347_rgbf000078-resize_1/002118_2014-06-25_20-32-08_260595134347_rgbf000078-resize_1-target.png,125,2.6460000000000004,0,5366,125,meters,jsons/VE125_randls_43_rotated.json,764280,1080877,27,Woman
96,241740,DepthScenes,duration_manipulation_targetAtFixation,jsons/VE125_randls_43_rotated.json,http://54.235.29.9/FacialAge/BNav_EC2/DepthDuration/v2_depth_duration_MTurk/v2_DepthDuration_HTML.html#365,365,1366,657,1366,768,8-30-2022,9-54-14,97,depth_duration_stimuli/001571_2014-06-20_17-21-32_260595134347_rgbf000089-resize_1/001571_2014-06-20_17-21-32_260595134347_rgbf000089-resize_1-target.png,125,1.86,1,5203,124,meters,jsons/VE125_randls_43_rotated.json,764280,1080877,27,Woman
97,241740,DepthScenes,duration_manipulation_targetAtFixation,jsons/VE125_randls_43_rotated.json,http://54.235.29.9/FacialAge/BNav_EC2/DepthDuration/v2_depth_duration_MTurk/v2_DepthDuration_HTML.html#365,365,1366,657,1366,768,8-30-2022,9-54-14,98,depth_duration_stimuli/002272_2014-06-28_18-53-56_260595134347_rgbf000067-resize_2/002272_2014-06-28_18-53-56_260595134347_rgbf000067-resize_2-target.png,125,1.138,2,3119,125,meters,jsons/VE125_randls_43_rotated.json,764280,1080877,27,Woman
98,241740,DepthScenes,duration_manipulation_targetAtFixation,jsons/VE125_randls_43_rotated.json,http://54.235.29.9/FacialAge/BNav_EC2/DepthDuration/v2_depth_duration_MTurk/v2_DepthDuration_HTML.html#365,365,1366,657,1366,768,8-30-2022,9-54-14,99,depth_duration_stimuli/001222_2014-06-17_16-24-06_260595134347_rgbf000073-resize_0/001222_2014-06-17_16-24-06_260595134347_rgbf000073-resize-original.jpg,125,1.4385,1,3479,125,meters,jsons/VE125_randls_43_rotated.json,764280,1080877,27,Woman
99,241740,DepthScenes,duration_manipulation_targetAtFixation,jsons/VE125_randls_43_rotated.json,http://54.235.29.9/FacialAge/BNav_EC2/DepthDuration/v2_depth_duration_MTurk/v2_DepthDuration_HTML.html#365,365,1366,657,1366,768,8-30-2022,9-54-14,100,depth_duration_stimuli/003423_2014-05-21_10-23-26_094959634447_rgbf002665-resize_2/003423_2014-05-21_10-23-26_094959634447_rgbf002665-resize_2-target.png,125,3.2575,2,10319,126,meters,jsons/VE125_randls_43_rotated.json,764280,1080877,27,Woman
100,241740,DepthScenes,duration_manipulation_targetAtFixation,jsons/VE125_randls_43_rotated.json,http://54.235.29.9/FacialAge/BNav_EC2/DepthDuration/v2_depth_duration_MTurk/v2_DepthDuration_HTML.html#365,365,1366,657,1366,768,8-30-2022,9-54-14,101,depth_duration_stimuli/002905_2014-06-03_18-04-43_094959634447_rgbf000151-resize_2/002905_2014-06-03_18-04-43_094959634447_rgbf000151-resize_2-target.png,125,2.0295,1,7068,126,meters,jsons/VE125_randls_43_rotated.json,764280,1080877,27,Woman
101,241740,DepthScenes,duration_manipulation_targetAtFixation,jsons/VE125_randls_43_rotated.json,http://54.235.29.9/FacialAge/BNav_EC2/DepthDuration/v2_depth_duration_MTurk/v2_DepthDuration_HTML.html#365,365,1366,657,1366,768,8-30-2022,9-54-14,102,depth_duration_stimuli/003129_2014-05-12_10-48-10_094959634447_rgbf000100-resize_0/003129_2014-05-12_10-48-10_094959634447_rgbf000100-resize_0-target.png,125,4.9305,0,3619,126,meters,jsons/VE125_randls_43_rotated.json,764280,1080877,27,Woman
102,241740,DepthScenes,duration_manipulation_targetAtFixation,jsons/VE125_randls_43_rotated.json,http://54.235.29.9/FacialAge/BNav_EC2/DepthDuration/v2_depth_duration_MTurk/v2_DepthDuration_HTML.html#365,365,1366,657,1366,768,8-30-2022,9-54-14,103,depth_duration_stimuli/000414_2014-06-04_19-49-13_260595134347_rgbf000044-resize_0/000414_2014-06-04_19-49-13_260595134347_rgbf000044-resize_0-target.png,125,4.329,0,3583,125,meters,jsons/VE125_randls_43_rotated.json,764280,1080877,27,Woman
103,241740,DepthScenes,duration_manipulation_targetAtFixation,jsons/VE125_randls_43_rotated.json,http://54.235.29.9/FacialAge/BNav_EC2/DepthDuration/v2_depth_duration_MTurk/v2_DepthDuration_HTML.html#365,365,1366,657,1366,768,8-30-2022,9-54-14,104,depth_duration_stimuli/000691_2014-06-08_13-08-50_260595134347_rgbf000132-resize_3/000691_2014-06-08_13-08-50_260595134347_rgbf000132-resize_3-target.png,125,4.1530000000000005,1,2893,126,meters,jsons/VE125_randls_43_rotated.json,764280,1080877,27,Woman
104,241740,DepthScenes,duration_manipulation_targetAtFixation,jsons/VE125_randls_43_rotated.json,http://54.235.29.9/FacialAge/BNav_EC2/DepthDuration/v2_depth_duration_MTurk/v2_DepthDuration_HTML.html#365,365,1366,657,1366,768,8-30-2022,9-54-14,105,depth_duration_stimuli/002213_2014-06-28_18-37-58_260595134347_rgbf000055-resize_1/002213_2014-06-28_18-37-58_260595134347_rgbf000055-resize_1-target.png,125,3.62,1,3421,125,meters,jsons/VE125_randls_43_rotated.json,764280,1080877,27,Woman
105,241740,DepthScenes,duration_manipulation_targetAtFixation,jsons/VE125_randls_43_rotated.json,http://54.235.29.9/FacialAge/BNav_EC2/DepthDuration/v2_depth_duration_MTurk/v2_DepthDuration_HTML.html#365,365,1366,657,1366,768,8-30-2022,9-54-14,106,depth_duration_stimuli/001100_2014-06-15_17-46-26_260595134347_rgbf000225-resize_2/001100_2014-06-15_17-46-26_260595134347_rgbf000225-resize_2-target.png,125,2.24,1,2767,125,meters,jsons/VE125_randls_43_rotated.json,764280,1080877,27,Woman
106,241740,DepthScenes,duration_manipulation_targetAtFixation,jsons/VE125_randls_43_rotated.json,http://54.235.29.9/FacialAge/BNav_EC2/DepthDuration/v2_depth_duration_MTurk/v2_DepthDuration_HTML.html#365,365,1366,657,1366,768,8-30-2022,9-54-14,107,depth_duration_stimuli/002784_2014-06-22_19-26-30_094959634447_rgbf000083-resize_3/002784_2014-06-22_19-26-30_094959634447_rgbf000083-resize_3-target.png,125,1.8046666666667,3,2988,124,meters,jsons/VE125_randls_43_rotated.json,764280,1080877,27,Woman
107,241740,DepthScenes,duration_manipulation_targetAtFixation,jsons/VE125_randls_43_rotated.json,http://54.235.29.9/FacialAge/BNav_EC2/DepthDuration/v2_depth_duration_MTurk/v2_DepthDuration_HTML.html#365,365,1366,657,1366,768,8-30-2022,9-54-14,108,depth_duration_stimuli/002199_2014-06-28_18-33-56_260595134347_rgbf000074-resize_0/002199_2014-06-28_18-33-56_260595134347_rgbf000074-resize_0-target.png,125,1.996,2,3031,125,meters,jsons/VE125_randls_43_rotated.json,764280,1080877,27,Woman
108,241740,DepthScenes,duration_manipulation_targetAtFixation,jsons/VE125_randls_43_rotated.json,http://54.235.29.9/FacialAge/BNav_EC2/DepthDuration/v2_depth_duration_MTurk/v2_DepthDuration_HTML.html#365,365,1366,657,1366,768,8-30-2022,9-54-14,109,depth_duration_stimuli/001056_2014-06-08_18-46-44_260595134347_rgbf000068-resize_0/001056_2014-06-08_18-46-44_260595134347_rgbf000068-resize_0-target.png,125,2.6625,0,4070,125,meters,jsons/VE125_randls_43_rotated.json,764280,1080877,27,Woman
109,241740,DepthScenes,duration_manipulation_targetAtFixation,jsons/VE125_randls_43_rotated.json,http://54.235.29.9/FacialAge/BNav_EC2/DepthDuration/v2_depth_duration_MTurk/v2_DepthDuration_HTML.html#365,365,1366,657,1366,768,8-30-2022,9-54-14,110,depth_duration_stimuli/000665_2014-06-09_20-42-35_260595134347_rgbf000110-resize_1/000665_2014-06-09_20-42-35_260595134347_rgbf000110-resize_1-target.png,125,3.057,2,3108,127,meters,jsons/VE125_randls_43_rotated.json,764280,1080877,27,Woman
110,241740,DepthScenes,duration_manipulation_targetAtFixation,jsons/VE125_randls_43_rotated.json,http://54.235.29.9/FacialAge/BNav_EC2/DepthDuration/v2_depth_duration_MTurk/v2_DepthDuration_HTML.html#365,365,1366,657,1366,768,8-30-2022,9-54-14,111,depth_duration_stimuli/001150_2014-06-17_15-27-34_260595134347_rgbf000108-resize_2/001150_2014-06-17_15-27-34_260595134347_rgbf000108-resize_2-target.png,125,4.0325,1,3958,126,meters,jsons/VE125_randls_43_rotated.json,764280,1080877,27,Woman
111,241740,DepthScenes,duration_manipulation_targetAtFixation,jsons/VE125_randls_43_rotated.json,http://54.235.29.9/FacialAge/BNav_EC2/DepthDuration/v2_depth_duration_MTurk/v2_DepthDuration_HTML.html#365,365,1366,657,1366,768,8-30-2022,9-54-14,112,depth_duration_stimuli/002660_2014-06-13_15-44-18_094959634447_rgbf001878-resize_2/002660_2014-06-13_15-44-18_094959634447_rgbf001878-resize_2-target.png,125,3.576,1,3419,126,meters,jsons/VE125_randls_43_rotated.json,764280,1080877,27,Woman
112,241740,DepthScenes,duration_manipulation_targetAtFixation,jsons/VE125_randls_43_rotated.json,http://54.235.29.9/FacialAge/BNav_EC2/DepthDuration/v2_depth_duration_MTurk/v2_DepthDuration_HTML.html#365,365,1366,657,1366,768,8-30-2022,9-54-14,113,depth_duration_stimuli/002153_2014-06-25_21-27-18_260595134347_rgbf000038-resize_5/002153_2014-06-25_21-27-18_260595134347_rgbf000038-resize_5-target.png,125,2.505,1,2919,126,meters,jsons/VE125_randls_43_rotated.json,764280,1080877,27,Woman
113,241740,DepthScenes,duration_manipulation_targetAtFixation,jsons/VE125_randls_43_rotated.json,http://54.235.29.9/FacialAge/BNav_EC2/DepthDuration/v2_depth_duration_MTurk/v2_DepthDuration_HTML.html#365,365,1366,657,1366,768,8-30-2022,9-54-14,114,depth_duration_stimuli/001052_2014-06-08_18-24-54_260595134347_rgbf000130-resize_1/001052_2014-06-08_18-24-54_260595134347_rgbf000130-resize_1-target.png,125,4.1045,0,4519,126,meters,jsons/VE125_randls_43_rotated.json,764280,1080877,27,Woman
114,241740,DepthScenes,duration_manipulation_targetAtFixation,jsons/VE125_randls_43_rotated.json,http://54.235.29.9/FacialAge/BNav_EC2/DepthDuration/v2_depth_duration_MTurk/v2_DepthDuration_HTML.html#365,365,1366,657,1366,768,8-30-2022,9-54-14,115,depth_duration_stimuli/002988_2014-06-15_12-24-20_094959634447_rgbf000150-resize_1/002988_2014-06-15_12-24-20_094959634447_rgbf000150-resize_1-target.png,125,4.7669999999999995,2,2748,126,meters,jsons/VE125_randls_43_rotated.json,764280,1080877,27,Woman
115,241740,DepthScenes,duration_manipulation_targetAtFixation,jsons/VE125_randls_43_rotated.json,http://54.235.29.9/FacialAge/BNav_EC2/DepthDuration/v2_depth_duration_MTurk/v2_DepthDuration_HTML.html#365,365,1366,657,1366,768,8-30-2022,9-54-14,116,depth_duration_stimuli/001447_2014-06-19_17-00-32_260595134347_rgbf000082-resize_5/001447_2014-06-19_17-00-32_260595134347_rgbf000082-resize_5-target.png,125,4.13775,2,3981,125,meters,jsons/VE125_randls_43_rotated.json,764280,1080877,27,Woman
116,241740,DepthScenes,duration_manipulation_targetAtFixation,jsons/VE125_randls_43_rotated.json,http://54.235.29.9/FacialAge/BNav_EC2/DepthDuration/v2_depth_duration_MTurk/v2_DepthDuration_HTML.html#365,365,1366,657,1366,768,8-30-2022,9-54-14,117,depth_duration_stimuli/000447_2014-06-08_16-15-46_260595134347_rgbf000130-resize_1/000447_2014-06-08_16-15-46_260595134347_rgbf000130-resize_1-target.png,125,4.479,3,3438,124,meters,jsons/VE125_randls_43_rotated.json,764280,1080877,27,Woman
117,241740,DepthScenes,duration_manipulation_targetAtFixation,jsons/VE125_randls_43_rotated.json,http://54.235.29.9/FacialAge/BNav_EC2/DepthDuration/v2_depth_duration_MTurk/v2_DepthDuration_HTML.html#365,365,1366,657,1366,768,8-30-2022,9-54-14,118,depth_duration_stimuli/000709_2014-06-08_13-51-55_260595134347_rgbf000068-resize_3/000709_2014-06-08_13-51-55_260595134347_rgbf000068-resize_3-target.png,125,1.8030000000000002,1,3619,126,meters,jsons/VE125_randls_43_rotated.json,764280,1080877,27,Woman
118,241740,DepthScenes,duration_manipulation_targetAtFixation,jsons/VE125_randls_43_rotated.json,http://54.235.29.9/FacialAge/BNav_EC2/DepthDuration/v2_depth_duration_MTurk/v2_DepthDuration_HTML.html#365,365,1366,657,1366,768,8-30-2022,9-54-14,119,depth_duration_stimuli/002057_2014-06-24_21-00-13_260595134347_rgbf000120-resize_1/002057_2014-06-24_21-00-13_260595134347_rgbf000120-resize_1-target.png,125,2.967,1,2517,125,meters,jsons/VE125_randls_43_rotated.json,764280,1080877,27,Woman
119,241740,DepthScenes,duration_manipulation_targetAtFixation,jsons/VE125_randls_43_rotated.json,http://54.235.29.9/FacialAge/BNav_EC2/DepthDuration/v2_depth_duration_MTurk/v2_DepthDuration_HTML.html#365,365,1366,657,1366,768,8-30-2022,9-54-14,120,depth_duration_stimuli/000787_2014-06-08_22-33-53_260595134347_rgbf000175-resize_1/000787_2014-06-08_22-33-53_260595134347_rgbf000175-resize-original.jpg,125,4.784,0,3738,125,meters,jsons/VE125_randls_43_rotated.json,764280,1080877,27,Woman
120,241740,DepthScenes,duration_manipulation_targetAtFixation,jsons/VE125_randls_43_rotated.json,http://54.235.29.9/FacialAge/BNav_EC2/DepthDuration/v2_depth_duration_MTurk/v2_DepthDuration_HTML.html#365,365,1366,657,1366,768,8-30-2022,9-54-14,121,depth_duration_stimuli/000780_2014-06-08_22-28-29_260595134347_rgbf000126-resize_1/000780_2014-06-08_22-28-29_260595134347_rgbf000126-resize_1-target.png,125,3.3825,1,4878,125,meters,jsons/VE125_randls_43_rotated.json,764280,1080877,27,Woman
121,241740,DepthScenes,duration_manipulation_targetAtFixation,jsons/VE125_randls_43_rotated.json,http://54.235.29.9/FacialAge/BNav_EC2/DepthDuration/v2_depth_duration_MTurk/v2_DepthDuration_HTML.html#365,365,1366,657,1366,768,8-30-2022,9-54-14,122,depth_duration_stimuli/002445_2014-06-28_20-32-16_260595134347_rgbf000029-resize_4/002445_2014-06-28_20-32-16_260595134347_rgbf000029-resize_4-target.png,125,2.5315,3,3386,124,meters,jsons/VE125_randls_43_rotated.json,764280,1080877,27,Woman
122,241740,DepthScenes,duration_manipulation_targetAtFixation,jsons/VE125_randls_43_rotated.json,http://54.235.29.9/FacialAge/BNav_EC2/DepthDuration/v2_depth_duration_MTurk/v2_DepthDuration_HTML.html#365,365,1366,657,1366,768,8-30-2022,9-54-14,123,depth_duration_stimuli/002425_2014-06-28_20-27-29_260595134347_rgbf000031-resize_8/002425_2014-06-28_20-27-29_260595134347_rgbf000031-resize_8-target.png,125,3.8960000000000004,1,3881,126,meters,jsons/VE125_randls_43_rotated.json,764280,1080877,27,Woman
123,241740,DepthScenes,duration_manipulation_targetAtFixation,jsons/VE125_randls_43_rotated.json,http://54.235.29.9/FacialAge/BNav_EC2/DepthDuration/v2_depth_duration_MTurk/v2_DepthDuration_HTML.html#365,365,1366,657,1366,768,8-30-2022,9-54-14,124,depth_duration_stimuli/000642_2014-06-08_16-59-25_260595134347_rgbf000098-resize_2/000642_2014-06-08_16-59-25_260595134347_rgbf000098-resize_2-target.png,125,2.8815,2,7698,126,meters,jsons/VE125_randls_43_rotated.json,764280,1080877,27,Woman
124,241740,DepthScenes,duration_manipulation_targetAtFixation,jsons/VE125_randls_43_rotated.json,http://54.235.29.9/FacialAge/BNav_EC2/DepthDuration/v2_depth_duration_MTurk/v2_DepthDuration_HTML.html#365,365,1366,657,1366,768,8-30-2022,9-54-14,125,depth_duration_stimuli/002805_2014-06-22_19-54-03_094959634447_rgbf000079-resize_1/002805_2014-06-22_19-54-03_094959634447_rgbf000079-resize_1-target.png,125,3.1439999999999997,2,3459,126,meters,jsons/VE125_randls_43_rotated.json,764280,1080877,27,Woman
125,241740,DepthScenes,duration_manipulation_targetAtFixation,jsons/VE125_randls_43_rotated.json,http://54.235.29.9/FacialAge/BNav_EC2/DepthDuration/v2_depth_duration_MTurk/v2_DepthDuration_HTML.html#365,365,1366,657,1366,768,8-30-2022,9-54-14,126,depth_duration_stimuli/000906_2014-06-08_13-35-43_260595134347_rgbf000155-resize_1/000906_2014-06-08_13-35-43_260595134347_rgbf000155-resize_1-target.png,125,2.8489999999999998,1,2947,125,meters,jsons/VE125_randls_43_rotated.json,764280,1080877,27,Woman
126,241740,DepthScenes,duration_manipulation_targetAtFixation,jsons/VE125_randls_43_rotated.json,http://54.235.29.9/FacialAge/BNav_EC2/DepthDuration/v2_depth_duration_MTurk/v2_DepthDuration_HTML.html#365,365,1366,657,1366,768,8-30-2022,9-54-14,127,depth_duration_stimuli/002750_2014-06-22_19-08-03_094959634447_rgbf000094-resize_4/002750_2014-06-22_19-08-03_094959634447_rgbf000094-resize_4-target.png,125,2.354,1,2933,125,meters,jsons/VE125_randls_43_rotated.json,764280,1080877,27,Woman
127,241740,DepthScenes,duration_manipulation_targetAtFixation,jsons/VE125_randls_43_rotated.json,http://54.235.29.9/FacialAge/BNav_EC2/DepthDuration/v2_depth_duration_MTurk/v2_DepthDuration_HTML.html#365,365,1366,657,1366,768,8-30-2022,9-54-14,128,depth_duration_stimuli/002549_2014-06-24_13-41-39_094959634447_rgbf000022-resize_3/002549_2014-06-24_13-41-39_094959634447_rgbf000022-resize_3-target.png,125,1.476,1,3156,126,meters,jsons/VE125_randls_43_rotated.json,764280,1080877,27,Woman
128,241740,DepthScenes,duration_manipulation_targetAtFixation,jsons/VE125_randls_43_rotated.json,http://54.235.29.9/FacialAge/BNav_EC2/DepthDuration/v2_depth_duration_MTurk/v2_DepthDuration_HTML.html#365,365,1366,657,1366,768,8-30-2022,9-54-14,129,depth_duration_stimuli/000457_2014-06-08_16-52-43_260595134347_rgbf000199-resize_1/000457_2014-06-08_16-52-43_260595134347_rgbf000199-resize_1-target.png,125,3.6489999999999996,1,3082,125,meters,jsons/VE125_randls_43_rotated.json,764280,1080877,27,Woman
129,241740,DepthScenes,duration_manipulation_targetAtFixation,jsons/VE125_randls_43_rotated.json,http://54.235.29.9/FacialAge/BNav_EC2/DepthDuration/v2_depth_duration_MTurk/v2_DepthDuration_HTML.html#365,365,1366,657,1366,768,8-30-2022,9-54-14,130,depth_duration_stimuli/000929_2014-06-09_16-33-19_260595134347_rgbf000139-resize_0/000929_2014-06-09_16-33-19_260595134347_rgbf000139-resize_0-target.png,125,2.8680000000000003,3,3598,125,meters,jsons/VE125_randls_43_rotated.json,764280,1080877,27,Woman
130,241740,DepthScenes,duration_manipulation_targetAtFixation,jsons/VE125_randls_43_rotated.json,http://54.235.29.9/FacialAge/BNav_EC2/DepthDuration/v2_depth_duration_MTurk/v2_DepthDuration_HTML.html#365,365,1366,657,1366,768,8-30-2022,9-54-14,131,depth_duration_stimuli/000409_2014-06-04_19-23-33_260595134347_rgbf000067-resize_0/000409_2014-06-04_19-23-33_260595134347_rgbf000067-resize_0-target.png,125,3.7335,2,4288,126,meters,jsons/VE125_randls_43_rotated.json,764280,1080877,27,Woman
131,241740,DepthScenes,duration_manipulation_targetAtFixation,jsons/VE125_randls_43_rotated.json,http://54.235.29.9/FacialAge/BNav_EC2/DepthDuration/v2_depth_duration_MTurk/v2_DepthDuration_HTML.html#365,365,1366,657,1366,768,8-30-2022,9-54-14,132,depth_duration_stimuli/002663_2014-06-13_15-50-26_094959634447_rgbf000075-resize_1/002663_2014-06-13_15-50-26_094959634447_rgbf000075-resize_1-target.png,125,4.7495,4,3327,125,meters,jsons/VE125_randls_43_rotated.json,764280,1080877,27,Woman
132,241740,DepthScenes,duration_manipulation_targetAtFixation,jsons/VE125_randls_43_rotated.json,http://54.235.29.9/FacialAge/BNav_EC2/DepthDuration/v2_depth_duration_MTurk/v2_DepthDuration_HTML.html#365,365,1366,657,1366,768,8-30-2022,9-54-14,133,depth_duration_stimuli/002953_2014-06-08_17-32-18_094959634447_rgbf000059-resize_5/002953_2014-06-08_17-32-18_094959634447_rgbf000059-resize_5-target.png,125,1.551,2,3599,126,meters,jsons/VE125_randls_43_rotated.json,764280,1080877,27,Woman
133,241740,DepthScenes,duration_manipulation_targetAtFixation,jsons/VE125_randls_43_rotated.json,http://54.235.29.9/FacialAge/BNav_EC2/DepthDuration/v2_depth_duration_MTurk/v2_DepthDuration_HTML.html#365,365,1366,657,1366,768,8-30-2022,9-54-14,134,depth_duration_stimuli/000878_2014-06-08_22-52-45_260595134347_rgbf000045-resize_2/000878_2014-06-08_22-52-45_260595134347_rgbf000045-resize_2-target.png,125,2.092,1,3310,125,meters,jsons/VE125_randls_43_rotated.json,764280,1080877,27,Woman
134,241740,DepthScenes,duration_manipulation_targetAtFixation,jsons/VE125_randls_43_rotated.json,http://54.235.29.9/FacialAge/BNav_EC2/DepthDuration/v2_depth_duration_MTurk/v2_DepthDuration_HTML.html#365,365,1366,657,1366,768,8-30-2022,9-54-14,135,depth_duration_stimuli/000375_2014-06-08_11-17-29_260595134347_rgbf000133-resize_2/000375_2014-06-08_11-17-29_260595134347_rgbf000133-resize-original.jpg,125,4.718,0,4369,126,meters,jsons/VE125_randls_43_rotated.json,764280,1080877,27,Woman
135,241740,DepthScenes,duration_manipulation_targetAtFixation,jsons/VE125_randls_43_rotated.json,http://54.235.29.9/FacialAge/BNav_EC2/DepthDuration/v2_depth_duration_MTurk/v2_DepthDuration_HTML.html#365,365,1366,657,1366,768,8-30-2022,9-54-14,136,depth_duration_stimuli/000677_2014-06-08_23-10-32_260595134347_rgbf000158-resize_6/000677_2014-06-08_23-10-32_260595134347_rgbf000158-resize_6-target.png,125,3.556,4,4074,125,meters,jsons/VE125_randls_43_rotated.json,764280,1080877,27,Woman
136,241740,DepthScenes,duration_manipulation_targetAtFixation,jsons/VE125_randls_43_rotated.json,http://54.235.29.9/FacialAge/BNav_EC2/DepthDuration/v2_depth_duration_MTurk/v2_DepthDuration_HTML.html#365,365,1366,657,1366,768,8-30-2022,9-54-14,137,depth_duration_stimuli/001029_2014-06-08_13-17-57_260595134347_rgbf000065-resize_1/001029_2014-06-08_13-17-57_260595134347_rgbf000065-resize_1-target.png,125,3.0835,2,3504,125,meters,jsons/VE125_randls_43_rotated.json,764280,1080877,27,Woman
137,241740,DepthScenes,duration_manipulation_targetAtFixation,jsons/VE125_randls_43_rotated.json,http://54.235.29.9/FacialAge/BNav_EC2/DepthDuration/v2_depth_duration_MTurk/v2_DepthDuration_HTML.html#365,365,1366,657,1366,768,8-30-2022,9-54-14,138,depth_duration_stimuli/000943_2014-06-09_19-31-07_260595134347_rgbf000128-resize_1/000943_2014-06-09_19-31-07_260595134347_rgbf000128-resize_1-target.png,125,1.9765,2,3389,125,meters,jsons/VE125_randls_43_rotated.json,764280,1080877,27,Woman
138,241740,DepthScenes,duration_manipulation_targetAtFixation,jsons/VE125_randls_43_rotated.json,http://54.235.29.9/FacialAge/BNav_EC2/DepthDuration/v2_depth_duration_MTurk/v2_DepthDuration_HTML.html#365,365,1366,657,1366,768,8-30-2022,9-54-14,139,depth_duration_stimuli/003070_2014-06-15_14-58-27_094959634447_rgbf000150-resize_3/003070_2014-06-15_14-58-27_094959634447_rgbf000150-resize_3-target.png,125,2.9415,1,3859,126,meters,jsons/VE125_randls_43_rotated.json,764280,1080877,27,Woman
139,241740,DepthScenes,duration_manipulation_targetAtFixation,jsons/VE125_randls_43_rotated.json,http://54.235.29.9/FacialAge/BNav_EC2/DepthDuration/v2_depth_duration_MTurk/v2_DepthDuration_HTML.html#365,365,1366,657,1366,768,8-30-2022,9-54-14,140,depth_duration_stimuli/001584_2014-06-20_11-07-43_260595134347_rgbf000002-resize_1/001584_2014-06-20_11-07-43_260595134347_rgbf000002-resize_1-target.png,125,3.53,1,4262,126,meters,jsons/VE125_randls_43_rotated.json,764280,1080877,27,Woman
140,241740,DepthScenes,duration_manipulation_targetAtFixation,jsons/VE125_randls_43_rotated.json,http://54.235.29.9/FacialAge/BNav_EC2/DepthDuration/v2_depth_duration_MTurk/v2_DepthDuration_HTML.html#365,365,1366,657,1366,768,8-30-2022,9-54-14,141,depth_duration_stimuli/003621_2014-05-23_18-06-08_094959634447_rgbf000101-resize_1/003621_2014-05-23_18-06-08_094959634447_rgbf000101-resize_1-target.png,125,3.9835,2,2994,124,meters,jsons/VE125_randls_43_rotated.json,764280,1080877,27,Woman
141,241740,DepthScenes,duration_manipulation_targetAtFixation,jsons/VE125_randls_43_rotated.json,http://54.235.29.9/FacialAge/BNav_EC2/DepthDuration/v2_depth_duration_MTurk/v2_DepthDuration_HTML.html#365,365,1366,657,1366,768,8-30-2022,9-54-14,142,depth_duration_stimuli/000734_2014-06-08_17-39-11_260595134347_rgbf000128-resize_2/000734_2014-06-08_17-39-11_260595134347_rgbf000128-resize_2-target.png,125,4.098,3,3529,125,meters,jsons/VE125_randls_43_rotated.json,764280,1080877,27,Woman
142,241740,DepthScenes,duration_manipulation_targetAtFixation,jsons/VE125_randls_43_rotated.json,http://54.235.29.9/FacialAge/BNav_EC2/DepthDuration/v2_depth_duration_MTurk/v2_DepthDuration_HTML.html#365,365,1366,657,1366,768,8-30-2022,9-54-14,143,depth_duration_stimuli/000739_2014-06-08_18-45-58_260595134347_rgbf000068-resize_1/000739_2014-06-08_18-45-58_260595134347_rgbf000068-resize_1-target.png,125,3.534,3,5809,126,meters,jsons/VE125_randls_43_rotated.json,764280,1080877,27,Woman
143,241740,DepthScenes,duration_manipulation_targetAtFixation,jsons/VE125_randls_43_rotated.json,http://54.235.29.9/FacialAge/BNav_EC2/DepthDuration/v2_depth_duration_MTurk/v2_DepthDuration_HTML.html#365,365,1366,657,1366,768,8-30-2022,9-54-14,144,depth_duration_stimuli/001815_2014-06-26_20-52-55_260595134347_rgbf000020-resize_0/001815_2014-06-26_20-52-55_260595134347_rgbf000020-resize_0-target.png,125,3.3865,2,39299,124,meters,jsons/VE125_randls_43_rotated.json,764280,1080877,27,Woman
144,241740,DepthScenes,duration_manipulation_targetAtFixation,jsons/VE125_randls_43_rotated.json,http://54.235.29.9/FacialAge/BNav_EC2/DepthDuration/v2_depth_duration_MTurk/v2_DepthDuration_HTML.html#365,365,1366,657,1366,768,8-30-2022,9-54-14,145,depth_duration_stimuli/001808_2014-06-26_20-50-58_260595134347_rgbf000029-resize_1/001808_2014-06-26_20-50-58_260595134347_rgbf000029-resize_1-target.png,125,4.249,1,6019,125,meters,jsons/VE125_randls_43_rotated.json,764280,1080877,27,Woman
145,241740,DepthScenes,duration_manipulation_targetAtFixation,jsons/VE125_randls_43_rotated.json,http://54.235.29.9/FacialAge/BNav_EC2/DepthDuration/v2_depth_duration_MTurk/v2_DepthDuration_HTML.html#365,365,1366,657,1366,768,8-30-2022,9-54-14,146,depth_duration_stimuli/003010_2014-06-15_12-54-35_094959634447_rgbf000112-resize_0/003010_2014-06-15_12-54-35_094959634447_rgbf000112-resize_0-target.png,125,3.1185,1,39781,126,meters,jsons/VE125_randls_43_rotated.json,764280,1080877,27,Woman
146,241740,DepthScenes,duration_manipulation_targetAtFixation,jsons/VE125_randls_43_rotated.json,http://54.235.29.9/FacialAge/BNav_EC2/DepthDuration/v2_depth_duration_MTurk/v2_DepthDuration_HTML.html#365,365,1366,657,1366,768,8-30-2022,9-54-14,147,depth_duration_stimuli/001810_2014-06-26_20-51-35_260595134347_rgbf000040-resize_3/001810_2014-06-26_20-51-35_260595134347_rgbf000040-resize_3-target.png,125,2.2525,1,3286,126,meters,jsons/VE125_randls_43_rotated.json,764280,1080877,27,Woman
147,241740,DepthScenes,duration_manipulation_targetAtFixation,jsons/VE125_randls_43_rotated.json,http://54.235.29.9/FacialAge/BNav_EC2/DepthDuration/v2_depth_duration_MTurk/v2_DepthDuration_HTML.html#365,365,1366,657,1366,768,8-30-2022,9-54-14,148,depth_duration_stimuli/000109_2014-05-14_23-41-52_260595134347_rgbf000035-resize_9/000109_2014-05-14_23-41-52_260595134347_rgbf000035-resize_9-target.png,125,1.3545,2,3474,126,meters,jsons/VE125_randls_43_rotated.json,764280,1080877,27,Woman
148,241740,DepthScenes,duration_manipulation_targetAtFixation,jsons/VE125_randls_43_rotated.json,http://54.235.29.9/FacialAge/BNav_EC2/DepthDuration/v2_depth_duration_MTurk/v2_DepthDuration_HTML.html#365,365,1366,657,1366,768,8-30-2022,9-54-14,149,depth_duration_stimuli/000470_2014-06-09_19-42-40_260595134347_rgbf000094-resize_1/000470_2014-06-09_19-42-40_260595134347_rgbf000094-resize_1-target.png,125,1.831,3,2955,126,meters,jsons/VE125_randls_43_rotated.json,764280,1080877,27,Woman
149,241740,DepthScenes,duration_manipulation_targetAtFixation,jsons/VE125_randls_43_rotated.json,http://54.235.29.9/FacialAge/BNav_EC2/DepthDuration/v2_depth_duration_MTurk/v2_DepthDuration_HTML.html#365,365,1366,657,1366,768,8-30-2022,9-54-14,150,depth_duration_stimuli/002995_2014-06-15_12-31-26_094959634447_rgbf000150-resize_1/002995_2014-06-15_12-31-26_094959634447_rgbf000150-resize_1-target.png,125,3.8360000000000003,1,3248,126,meters,jsons/VE125_randls_43_rotated.json,764280,1080877,27,Woman
150,241740,DepthScenes,duration_manipulation_targetAtFixation,jsons/VE125_randls_43_rotated.json,http://54.235.29.9/FacialAge/BNav_EC2/DepthDuration/v2_depth_duration_MTurk/v2_DepthDuration_HTML.html#365,365,1366,657,1366,768,8-30-2022,9-54-14,151,depth_duration_stimuli/002748_2014-06-22_19-07-22_094959634447_rgbf000078-resize_1/002748_2014-06-22_19-07-22_094959634447_rgbf000078-resize_1-target.png,125,4.6705,0,4000,125,meters,jsons/VE125_randls_43_rotated.json,764280,1080877,27,Woman
151,241740,DepthScenes,duration_manipulation_targetAtFixation,jsons/VE125_randls_43_rotated.json,http://54.235.29.9/FacialAge/BNav_EC2/DepthDuration/v2_depth_duration_MTurk/v2_DepthDuration_HTML.html#365,365,1366,657,1366,768,8-30-2022,9-54-14,152,depth_duration_stimuli/000569_2014-06-09_22-51-47_260595134347_rgbf000141-resize_3/000569_2014-06-09_22-51-47_260595134347_rgbf000141-resize-original.jpg,125,4.512,1,3909,127,meters,jsons/VE125_randls_43_rotated.json,764280,1080877,27,Woman
152,241740,DepthScenes,duration_manipulation_targetAtFixation,jsons/VE125_randls_43_rotated.json,http://54.235.29.9/FacialAge/BNav_EC2/DepthDuration/v2_depth_duration_MTurk/v2_DepthDuration_HTML.html#365,365,1366,657,1366,768,8-30-2022,9-54-14,153,depth_duration_stimuli/003587_2014-05-23_16-48-02_094959634447_rgbf002384-resize_2/003587_2014-05-23_16-48-02_094959634447_rgbf002384-resize_2-target.png,125,1.357,8,6629,125,meters,jsons/VE125_randls_43_rotated.json,764280,1080877,27,Woman
153,241740,DepthScenes,duration_manipulation_targetAtFixation,jsons/VE125_randls_43_rotated.json,http://54.235.29.9/FacialAge/BNav_EC2/DepthDuration/v2_depth_duration_MTurk/v2_DepthDuration_HTML.html#365,365,1366,657,1366,768,8-30-2022,9-54-14,154,depth_duration_stimuli/001167_2014-06-17_15-38-07_260595134347_rgbf000108-resize_0/001167_2014-06-17_15-38-07_260595134347_rgbf000108-resize_0-target.png,125,1.8505,2,4178,126,meters,jsons/VE125_randls_43_rotated.json,764280,1080877,27,Woman
154,241740,DepthScenes,duration_manipulation_targetAtFixation,jsons/VE125_randls_43_rotated.json,http://54.235.29.9/FacialAge/BNav_EC2/DepthDuration/v2_depth_duration_MTurk/v2_DepthDuration_HTML.html#365,365,1366,657,1366,768,8-30-2022,9-54-14,155,depth_duration_stimuli/002639_2014-06-24_14-51-37_094959634447_rgbf000074-resize_4/002639_2014-06-24_14-51-37_094959634447_rgbf000074-resize_4-target.png,125,4.0375,3,3898,124,meters,jsons/VE125_randls_43_rotated.json,764280,1080877,27,Woman
155,241740,DepthScenes,duration_manipulation_targetAtFixation,jsons/VE125_randls_43_rotated.json,http://54.235.29.9/FacialAge/BNav_EC2/DepthDuration/v2_depth_duration_MTurk/v2_DepthDuration_HTML.html#365,365,1366,657,1366,768,8-30-2022,9-54-14,156,depth_duration_stimuli/003292_2014-05-14_21-53-49_094959634447_rgbf000100-resize_2/003292_2014-05-14_21-53-49_094959634447_rgbf000100-resize_2-target.png,125,3.4815,3,3777,125,meters,jsons/VE125_randls_43_rotated.json,764280,1080877,27,Woman
156,241740,DepthScenes,duration_manipulation_targetAtFixation,jsons/VE125_randls_43_rotated.json,http://54.235.29.9/FacialAge/BNav_EC2/DepthDuration/v2_depth_duration_MTurk/v2_DepthDuration_HTML.html#365,365,1366,657,1366,768,8-30-2022,9-54-14,157,depth_duration_stimuli/002414_2014-06-28_20-24-58_260595134347_rgbf000067-resize_4/002414_2014-06-28_20-24-58_260595134347_rgbf000067-resize_4-target.png,125,4.363,1,3259,125,meters,jsons/VE125_randls_43_rotated.json,764280,1080877,27,Woman
157,241740,DepthScenes,duration_manipulation_targetAtFixation,jsons/VE125_randls_43_rotated.json,http://54.235.29.9/FacialAge/BNav_EC2/DepthDuration/v2_depth_duration_MTurk/v2_DepthDuration_HTML.html#365,365,1366,657,1366,768,8-30-2022,9-54-14,158,depth_duration_stimuli/000773_2014-06-08_22-24-54_260595134347_rgbf000093-resize_1/000773_2014-06-08_22-24-54_260595134347_rgbf000093-resize_1-target.png,125,4.973,3,4688,125,meters,jsons/VE125_randls_43_rotated.json,764280,1080877,27,Woman
158,241740,DepthScenes,duration_manipulation_targetAtFixation,jsons/VE125_randls_43_rotated.json,http://54.235.29.9/FacialAge/BNav_EC2/DepthDuration/v2_depth_duration_MTurk/v2_DepthDuration_HTML.html#365,365,1366,657,1366,768,8-30-2022,9-54-14,159,depth_duration_stimuli/000549_2014-06-08_22-10-24_260595134347_rgbf000247-resize_3/000549_2014-06-08_22-10-24_260595134347_rgbf000247-resize_3-target.png,125,1.841,4,5609,126,meters,jsons/VE125_randls_43_rotated.json,764280,1080877,27,Woman
159,241740,DepthScenes,duration_manipulation_targetAtFixation,jsons/VE125_randls_43_rotated.json,http://54.235.29.9/FacialAge/BNav_EC2/DepthDuration/v2_depth_duration_MTurk/v2_DepthDuration_HTML.html#365,365,1366,657,1366,768,8-30-2022,9-54-14,160,depth_duration_stimuli/001055_2014-06-08_18-45-35_260595134347_rgbf000111-resize_4/001055_2014-06-08_18-45-35_260595134347_rgbf000111-resize_4-target.png,125,2.4290000000000003,1,3070,125,meters,jsons/VE125_randls_43_rotated.json,764280,1080877,27,Woman
160,241740,DepthScenes,duration_manipulation_targetAtFixation,jsons/VE125_randls_43_rotated.json,http://54.235.29.9/FacialAge/BNav_EC2/DepthDuration/v2_depth_duration_MTurk/v2_DepthDuration_HTML.html#365,365,1366,657,1366,768,8-30-2022,9-54-14,161,depth_duration_stimuli/002678_2014-06-13_16-15-32_094959634447_rgbf000151-resize_6/002678_2014-06-13_16-15-32_094959634447_rgbf000151-resize_6-target.png,125,2.1830000000000003,1,3719,126,meters,jsons/VE125_randls_43_rotated.json,764280,1080877,27,Woman
161,241740,DepthScenes,duration_manipulation_targetAtFixation,jsons/VE125_randls_43_rotated.json,http://54.235.29.9/FacialAge/BNav_EC2/DepthDuration/v2_depth_duration_MTurk/v2_DepthDuration_HTML.html#365,365,1366,657,1366,768,8-30-2022,9-54-14,162,depth_duration_stimuli/000368_2014-06-09_15-53-01_260595134347_rgbf000155-resize_2/000368_2014-06-09_15-53-01_260595134347_rgbf000155-resize_2-target.png,125,2.4859999999999998,12,4580,124,meters,jsons/VE125_randls_43_rotated.json,764280,1080877,27,Woman
162,241740,DepthScenes,duration_manipulation_targetAtFixation,jsons/VE125_randls_43_rotated.json,http://54.235.29.9/FacialAge/BNav_EC2/DepthDuration/v2_depth_duration_MTurk/v2_DepthDuration_HTML.html#365,365,1366,657,1366,768,8-30-2022,9-54-14,163,depth_duration_stimuli/002545_2014-06-24_13-38-53_094959634447_rgbf000080-resize_4/002545_2014-06-24_13-38-53_094959634447_rgbf000080-resize_4-target.png,125,1.9205,3,3669,125,meters,jsons/VE125_randls_43_rotated.json,764280,1080877,27,Woman
163,241740,DepthScenes,duration_manipulation_targetAtFixation,jsons/VE125_randls_43_rotated.json,http://54.235.29.9/FacialAge/BNav_EC2/DepthDuration/v2_depth_duration_MTurk/v2_DepthDuration_HTML.html#365,365,1366,657,1366,768,8-30-2022,9-54-14,164,depth_duration_stimuli/001092_2014-06-15_17-34-58_260595134347_rgbf000171-resize_3/001092_2014-06-15_17-34-58_260595134347_rgbf000171-resize_3-target.png,125,2.6935,1,2859,126,meters,jsons/VE125_randls_43_rotated.json,764280,1080877,27,Woman
