,subjID,experimentName,versionName,sequenceName,url,selected_row,windowWidth,windowHeight,screenWidth,screenHeight,startDate,startTime,trial,stimulus,duration,actual_depth,depth_estimate,trial_RT,log_sceneDuration,unitSelection,seq_filepath,experimentTime,totalTime,age,gender
0,245047,DepthScenes,duration_manipulation_targetAtFixation,jsons/v1_VE250_randls_68_rotated.json,http://54.235.29.9/FacialAge/BNav_EC2/DepthDuration/v2_depth_duration_MTurk/v2_DepthDuration_HTML.html#156,156,1365,657,1366,768,8-29-2022,18-47-10,1,depth_duration_stimuli/001617_2014-06-20_11-35-32_260595134347_rgbf000066-resize_1/001617_2014-06-20_11-35-32_260595134347_rgbf000066-resize_1-target.png,250,3.7910000000000004,1,24698,250,feet,jsons/v1_VE250_randls_68_rotated.json,662798,1054857,25,Man
1,245047,DepthScenes,duration_manipulation_targetAtFixation,jsons/v1_VE250_randls_68_rotated.json,http://54.235.29.9/FacialAge/BNav_EC2/DepthDuration/v2_depth_duration_MTurk/v2_DepthDuration_HTML.html#156,156,1365,657,1366,768,8-29-2022,18-47-10,2,depth_duration_stimuli/001806_2014-06-26_20-50-20_260595134347_rgbf000091-resize_1/001806_2014-06-26_20-50-20_260595134347_rgbf000091-resize_1-target.png,250,2.7305,1,10689,248,feet,jsons/v1_VE250_randls_68_rotated.json,662798,1054857,25,Man
2,245047,DepthScenes,duration_manipulation_targetAtFixation,jsons/v1_VE250_randls_68_rotated.json,http://54.235.29.9/FacialAge/BNav_EC2/DepthDuration/v2_depth_duration_MTurk/v2_DepthDuration_HTML.html#156,156,1365,657,1366,768,8-29-2022,18-47-10,3,depth_duration_stimuli/000742_2014-06-08_18-48-09_260595134347_rgbf000164-resize_4/000742_2014-06-08_18-48-09_260595134347_rgbf000164-resize_4-target.png,250,4.632,1,1887,250,feet,jsons/v1_VE250_randls_68_rotated.json,662798,1054857,25,Man
3,245047,DepthScenes,duration_manipulation_targetAtFixation,jsons/v1_VE250_randls_68_rotated.json,http://54.235.29.9/FacialAge/BNav_EC2/DepthDuration/v2_depth_duration_MTurk/v2_DepthDuration_HTML.html#156,156,1365,657,1366,768,8-29-2022,18-47-10,4,depth_duration_stimuli/001066_2014-06-08_22-03-20_260595134347_rgbf000066-resize_4/001066_2014-06-08_22-03-20_260595134347_rgbf000066-resize_4-target.png,250,4.2330000000000005,1,1783,247,feet,jsons/v1_VE250_randls_68_rotated.json,662798,1054857,25,Man
4,245047,DepthScenes,duration_manipulation_targetAtFixation,jsons/v1_VE250_randls_68_rotated.json,http://54.235.29.9/FacialAge/BNav_EC2/DepthDuration/v2_depth_duration_MTurk/v2_DepthDuration_HTML.html#156,156,1365,657,1366,768,8-29-2022,18-47-10,5,depth_duration_stimuli/000927_2014-06-09_16-32-30_260595134347_rgbf000123-resize_3/000927_2014-06-09_16-32-30_260595134347_rgbf000123-resize_3-target.png,250,2.6785,2,1928,249,feet,jsons/v1_VE250_randls_68_rotated.json,662798,1054857,25,Man
5,245047,DepthScenes,duration_manipulation_targetAtFixation,jsons/v1_VE250_randls_68_rotated.json,http://54.235.29.9/FacialAge/BNav_EC2/DepthDuration/v2_depth_duration_MTurk/v2_DepthDuration_HTML.html#156,156,1365,657,1366,768,8-29-2022,18-47-10,6,depth_duration_stimuli/001110_2014-06-15_17-25-28_260595134347_rgbf000150-resize_1/001110_2014-06-15_17-25-28_260595134347_rgbf000150-resize_1-target.png,250,1.7115,4,2377,249,feet,jsons/v1_VE250_randls_68_rotated.json,662798,1054857,25,Man
6,245047,DepthScenes,duration_manipulation_targetAtFixation,jsons/v1_VE250_randls_68_rotated.json,http://54.235.29.9/FacialAge/BNav_EC2/DepthDuration/v2_depth_duration_MTurk/v2_DepthDuration_HTML.html#156,156,1365,657,1366,768,8-29-2022,18-47-10,7,depth_duration_stimuli/002340_2014-06-28_20-05-46_260595134347_rgbf000113-resize_0/002340_2014-06-28_20-05-46_260595134347_rgbf000113-resize_0-target.png,250,2.4735,1,2474,247,feet,jsons/v1_VE250_randls_68_rotated.json,662798,1054857,25,Man
7,245047,DepthScenes,duration_manipulation_targetAtFixation,jsons/v1_VE250_randls_68_rotated.json,http://54.235.29.9/FacialAge/BNav_EC2/DepthDuration/v2_depth_duration_MTurk/v2_DepthDuration_HTML.html#156,156,1365,657,1366,768,8-29-2022,18-47-10,8,depth_duration_stimuli/001016_2014-06-09_16-16-10_260595134347_rgbf000112-resize_5/001016_2014-06-09_16-16-10_260595134347_rgbf000112-resize_5-target.png,250,1.6565,4,2083,248,feet,jsons/v1_VE250_randls_68_rotated.json,662798,1054857,25,Man
8,245047,DepthScenes,duration_manipulation_targetAtFixation,jsons/v1_VE250_randls_68_rotated.json,http://54.235.29.9/FacialAge/BNav_EC2/DepthDuration/v2_depth_duration_MTurk/v2_DepthDuration_HTML.html#156,156,1365,657,1366,768,8-29-2022,18-47-10,9,depth_duration_stimuli/001571_2014-06-20_17-21-32_260595134347_rgbf000089-resize_1/001571_2014-06-20_17-21-32_260595134347_rgbf000089-resize_1-target.png,250,1.86,2,2101,247,feet,jsons/v1_VE250_randls_68_rotated.json,662798,1054857,25,Man
9,245047,DepthScenes,duration_manipulation_targetAtFixation,jsons/v1_VE250_randls_68_rotated.json,http://54.235.29.9/FacialAge/BNav_EC2/DepthDuration/v2_depth_duration_MTurk/v2_DepthDuration_HTML.html#156,156,1365,657,1366,768,8-29-2022,18-47-10,10,depth_duration_stimuli/002272_2014-06-28_18-53-56_260595134347_rgbf000067-resize_2/002272_2014-06-28_18-53-56_260595134347_rgbf000067-resize_2-target.png,250,1.138,2,2381,247,feet,jsons/v1_VE250_randls_68_rotated.json,662798,1054857,25,Man
10,245047,DepthScenes,duration_manipulation_targetAtFixation,jsons/v1_VE250_randls_68_rotated.json,http://54.235.29.9/FacialAge/BNav_EC2/DepthDuration/v2_depth_duration_MTurk/v2_DepthDuration_HTML.html#156,156,1365,657,1366,768,8-29-2022,18-47-10,11,depth_duration_stimuli/002875_2014-06-01_15-19-00_094959634447_rgbf000151-resize_1/002875_2014-06-01_15-19-00_094959634447_rgbf000151-resize_1-target.png,250,1.9675,2,1957,238,feet,jsons/v1_VE250_randls_68_rotated.json,662798,1054857,25,Man
11,245047,DepthScenes,duration_manipulation_targetAtFixation,jsons/v1_VE250_randls_68_rotated.json,http://54.235.29.9/FacialAge/BNav_EC2/DepthDuration/v2_depth_duration_MTurk/v2_DepthDuration_HTML.html#156,156,1365,657,1366,768,8-29-2022,18-47-10,12,depth_duration_stimuli/001011_2014-06-08_23-18-54_260595134347_rgbf000044-resize_4/001011_2014-06-08_23-18-54_260595134347_rgbf000044-resize_4-target.png,250,2.4730000000000003,4,1934,248,feet,jsons/v1_VE250_randls_68_rotated.json,662798,1054857,25,Man
12,245047,DepthScenes,duration_manipulation_targetAtFixation,jsons/v1_VE250_randls_68_rotated.json,http://54.235.29.9/FacialAge/BNav_EC2/DepthDuration/v2_depth_duration_MTurk/v2_DepthDuration_HTML.html#156,156,1365,657,1366,768,8-29-2022,18-47-10,13,depth_duration_stimuli/002639_2014-06-24_14-51-37_094959634447_rgbf000074-resize_4/002639_2014-06-24_14-51-37_094959634447_rgbf000074-resize_4-target.png,250,4.0375,2,2017,248,feet,jsons/v1_VE250_randls_68_rotated.json,662798,1054857,25,Man
13,245047,DepthScenes,duration_manipulation_targetAtFixation,jsons/v1_VE250_randls_68_rotated.json,http://54.235.29.9/FacialAge/BNav_EC2/DepthDuration/v2_depth_duration_MTurk/v2_DepthDuration_HTML.html#156,156,1365,657,1366,768,8-29-2022,18-47-10,14,depth_duration_stimuli/003292_2014-05-14_21-53-49_094959634447_rgbf000100-resize_2/003292_2014-05-14_21-53-49_094959634447_rgbf000100-resize_2-target.png,250,3.4815,2,1633,248,feet,jsons/v1_VE250_randls_68_rotated.json,662798,1054857,25,Man
14,245047,DepthScenes,duration_manipulation_targetAtFixation,jsons/v1_VE250_randls_68_rotated.json,http://54.235.29.9/FacialAge/BNav_EC2/DepthDuration/v2_depth_duration_MTurk/v2_DepthDuration_HTML.html#156,156,1365,657,1366,768,8-29-2022,18-47-10,15,depth_duration_stimuli/002678_2014-06-13_16-15-32_094959634447_rgbf000151-resize_6/002678_2014-06-13_16-15-32_094959634447_rgbf000151-resize_6-target.png,250,2.1830000000000003,4,1666,255,feet,jsons/v1_VE250_randls_68_rotated.json,662798,1054857,25,Man
15,245047,DepthScenes,duration_manipulation_targetAtFixation,jsons/v1_VE250_randls_68_rotated.json,http://54.235.29.9/FacialAge/BNav_EC2/DepthDuration/v2_depth_duration_MTurk/v2_DepthDuration_HTML.html#156,156,1365,657,1366,768,8-29-2022,18-47-10,16,depth_duration_stimuli/000368_2014-06-09_15-53-01_260595134347_rgbf000155-resize_2/000368_2014-06-09_15-53-01_260595134347_rgbf000155-resize_2-target.png,250,2.4859999999999998,0,2054,248,feet,jsons/v1_VE250_randls_68_rotated.json,662798,1054857,25,Man
16,245047,DepthScenes,duration_manipulation_targetAtFixation,jsons/v1_VE250_randls_68_rotated.json,http://54.235.29.9/FacialAge/BNav_EC2/DepthDuration/v2_depth_duration_MTurk/v2_DepthDuration_HTML.html#156,156,1365,657,1366,768,8-29-2022,18-47-10,17,depth_duration_stimuli/001447_2014-06-19_17-00-32_260595134347_rgbf000082-resize_5/001447_2014-06-19_17-00-32_260595134347_rgbf000082-resize_5-target.png,250,4.13775,4,1683,247,feet,jsons/v1_VE250_randls_68_rotated.json,662798,1054857,25,Man
17,245047,DepthScenes,duration_manipulation_targetAtFixation,jsons/v1_VE250_randls_68_rotated.json,http://54.235.29.9/FacialAge/BNav_EC2/DepthDuration/v2_depth_duration_MTurk/v2_DepthDuration_HTML.html#156,156,1365,657,1366,768,8-29-2022,18-47-10,18,depth_duration_stimuli/000447_2014-06-08_16-15-46_260595134347_rgbf000130-resize_1/000447_2014-06-08_16-15-46_260595134347_rgbf000130-resize_1-target.png,250,4.479,4,1615,238,feet,jsons/v1_VE250_randls_68_rotated.json,662798,1054857,25,Man
18,245047,DepthScenes,duration_manipulation_targetAtFixation,jsons/v1_VE250_randls_68_rotated.json,http://54.235.29.9/FacialAge/BNav_EC2/DepthDuration/v2_depth_duration_MTurk/v2_DepthDuration_HTML.html#156,156,1365,657,1366,768,8-29-2022,18-47-10,19,depth_duration_stimuli/001498_2014-06-19_17-45-14_260595134347_rgbf000129-resize_4/001498_2014-06-19_17-45-14_260595134347_rgbf000129-resize-original.jpg,250,1.4075,0,1794,244,feet,jsons/v1_VE250_randls_68_rotated.json,662798,1054857,25,Man
19,245047,DepthScenes,duration_manipulation_targetAtFixation,jsons/v1_VE250_randls_68_rotated.json,http://54.235.29.9/FacialAge/BNav_EC2/DepthDuration/v2_depth_duration_MTurk/v2_DepthDuration_HTML.html#156,156,1365,657,1366,768,8-29-2022,18-47-10,20,depth_duration_stimuli/002995_2014-06-15_12-31-26_094959634447_rgbf000150-resize_1/002995_2014-06-15_12-31-26_094959634447_rgbf000150-resize_1-target.png,250,3.8360000000000003,4,1710,253,feet,jsons/v1_VE250_randls_68_rotated.json,662798,1054857,25,Man
20,245047,DepthScenes,duration_manipulation_targetAtFixation,jsons/v1_VE250_randls_68_rotated.json,http://54.235.29.9/FacialAge/BNav_EC2/DepthDuration/v2_depth_duration_MTurk/v2_DepthDuration_HTML.html#156,156,1365,657,1366,768,8-29-2022,18-47-10,21,depth_duration_stimuli/002748_2014-06-22_19-07-22_094959634447_rgbf000078-resize_1/002748_2014-06-22_19-07-22_094959634447_rgbf000078-resize_1-target.png,250,4.6705,2,1808,262,feet,jsons/v1_VE250_randls_68_rotated.json,662798,1054857,25,Man
21,245047,DepthScenes,duration_manipulation_targetAtFixation,jsons/v1_VE250_randls_68_rotated.json,http://54.235.29.9/FacialAge/BNav_EC2/DepthDuration/v2_depth_duration_MTurk/v2_DepthDuration_HTML.html#156,156,1365,657,1366,768,8-29-2022,18-47-10,22,depth_duration_stimuli/002136_2014-06-25_21-18-03_260595134347_rgbf000109-resize_3/002136_2014-06-25_21-18-03_260595134347_rgbf000109-resize_3-target.png,250,1.9569999999999999,4,1911,256,feet,jsons/v1_VE250_randls_68_rotated.json,662798,1054857,25,Man
22,245047,DepthScenes,duration_manipulation_targetAtFixation,jsons/v1_VE250_randls_68_rotated.json,http://54.235.29.9/FacialAge/BNav_EC2/DepthDuration/v2_depth_duration_MTurk/v2_DepthDuration_HTML.html#156,156,1365,657,1366,768,8-29-2022,18-47-10,23,depth_duration_stimuli/002964_2014-06-08_17-46-11_094959634447_rgbf000091-resize_4/002964_2014-06-08_17-46-11_094959634447_rgbf000091-resize_4-target.png,250,1.6909999999999998,4,1710,245,feet,jsons/v1_VE250_randls_68_rotated.json,662798,1054857,25,Man
23,245047,DepthScenes,duration_manipulation_targetAtFixation,jsons/v1_VE250_randls_68_rotated.json,http://54.235.29.9/FacialAge/BNav_EC2/DepthDuration/v2_depth_duration_MTurk/v2_DepthDuration_HTML.html#156,156,1365,657,1366,768,8-29-2022,18-47-10,24,depth_duration_stimuli/000103_2014-05-14_22-01-17_260595134347_rgbf000152-resize_5/000103_2014-05-14_22-01-17_260595134347_rgbf000152-resize_5-target.png,250,1.993,4,1596,256,feet,jsons/v1_VE250_randls_68_rotated.json,662798,1054857,25,Man
24,245047,DepthScenes,duration_manipulation_targetAtFixation,jsons/v1_VE250_randls_68_rotated.json,http://54.235.29.9/FacialAge/BNav_EC2/DepthDuration/v2_depth_duration_MTurk/v2_DepthDuration_HTML.html#156,156,1365,657,1366,768,8-29-2022,18-47-10,25,depth_duration_stimuli/001555_2014-06-20_17-12-10_260595134347_rgbf000065-resize_4/001555_2014-06-20_17-12-10_260595134347_rgbf000065-resize_4-target.png,250,1.633,4,1777,260,feet,jsons/v1_VE250_randls_68_rotated.json,662798,1054857,25,Man
25,245047,DepthScenes,duration_manipulation_targetAtFixation,jsons/v1_VE250_randls_68_rotated.json,http://54.235.29.9/FacialAge/BNav_EC2/DepthDuration/v2_depth_duration_MTurk/v2_DepthDuration_HTML.html#156,156,1365,657,1366,768,8-29-2022,18-47-10,26,depth_duration_stimuli/003083_2014-06-15_15-21-03_094959634447_rgbf000063-resize_1/003083_2014-06-15_15-21-03_094959634447_rgbf000063-resize_1-target.png,250,4.1405,2,1574,253,feet,jsons/v1_VE250_randls_68_rotated.json,662798,1054857,25,Man
26,245047,DepthScenes,duration_manipulation_targetAtFixation,jsons/v1_VE250_randls_68_rotated.json,http://54.235.29.9/FacialAge/BNav_EC2/DepthDuration/v2_depth_duration_MTurk/v2_DepthDuration_HTML.html#156,156,1365,657,1366,768,8-29-2022,18-47-10,27,depth_duration_stimuli/000486_2014-06-09_20-47-20_260595134347_rgbf000143-resize_2/000486_2014-06-09_20-47-20_260595134347_rgbf000143-resize_2-target.png,250,4.8325,2,1693,250,feet,jsons/v1_VE250_randls_68_rotated.json,662798,1054857,25,Man
27,245047,DepthScenes,duration_manipulation_targetAtFixation,jsons/v1_VE250_randls_68_rotated.json,http://54.235.29.9/FacialAge/BNav_EC2/DepthDuration/v2_depth_duration_MTurk/v2_DepthDuration_HTML.html#156,156,1365,657,1366,768,8-29-2022,18-47-10,28,depth_duration_stimuli/000457_2014-06-08_16-52-43_260595134347_rgbf000199-resize_1/000457_2014-06-08_16-52-43_260595134347_rgbf000199-resize_1-target.png,250,3.6489999999999996,2,1552,250,feet,jsons/v1_VE250_randls_68_rotated.json,662798,1054857,25,Man
28,245047,DepthScenes,duration_manipulation_targetAtFixation,jsons/v1_VE250_randls_68_rotated.json,http://54.235.29.9/FacialAge/BNav_EC2/DepthDuration/v2_depth_duration_MTurk/v2_DepthDuration_HTML.html#156,156,1365,657,1366,768,8-29-2022,18-47-10,29,depth_duration_stimuli/000929_2014-06-09_16-33-19_260595134347_rgbf000139-resize_0/000929_2014-06-09_16-33-19_260595134347_rgbf000139-resize_0-target.png,250,2.8680000000000003,3,2369,242,feet,jsons/v1_VE250_randls_68_rotated.json,662798,1054857,25,Man
29,245047,DepthScenes,duration_manipulation_targetAtFixation,jsons/v1_VE250_randls_68_rotated.json,http://54.235.29.9/FacialAge/BNav_EC2/DepthDuration/v2_depth_duration_MTurk/v2_DepthDuration_HTML.html#156,156,1365,657,1366,768,8-29-2022,18-47-10,30,depth_duration_stimuli/002072_2014-06-24_21-48-06_260595134347_rgbf000115-resize_0/002072_2014-06-24_21-48-06_260595134347_rgbf000115-resize-original.jpg,250,4.702,0,2136,247,feet,jsons/v1_VE250_randls_68_rotated.json,662798,1054857,25,Man
30,245047,DepthScenes,duration_manipulation_targetAtFixation,jsons/v1_VE250_randls_68_rotated.json,http://54.235.29.9/FacialAge/BNav_EC2/DepthDuration/v2_depth_duration_MTurk/v2_DepthDuration_HTML.html#156,156,1365,657,1366,768,8-29-2022,18-47-10,31,depth_duration_stimuli/000734_2014-06-08_17-39-11_260595134347_rgbf000128-resize_2/000734_2014-06-08_17-39-11_260595134347_rgbf000128-resize_2-target.png,250,4.098,0,3558,248,feet,jsons/v1_VE250_randls_68_rotated.json,662798,1054857,25,Man
31,245047,DepthScenes,duration_manipulation_targetAtFixation,jsons/v1_VE250_randls_68_rotated.json,http://54.235.29.9/FacialAge/BNav_EC2/DepthDuration/v2_depth_duration_MTurk/v2_DepthDuration_HTML.html#156,156,1365,657,1366,768,8-29-2022,18-47-10,32,depth_duration_stimuli/000739_2014-06-08_18-45-58_260595134347_rgbf000068-resize_1/000739_2014-06-08_18-45-58_260595134347_rgbf000068-resize_1-target.png,250,3.534,4,1759,249,feet,jsons/v1_VE250_randls_68_rotated.json,662798,1054857,25,Man
32,245047,DepthScenes,duration_manipulation_targetAtFixation,jsons/v1_VE250_randls_68_rotated.json,http://54.235.29.9/FacialAge/BNav_EC2/DepthDuration/v2_depth_duration_MTurk/v2_DepthDuration_HTML.html#156,156,1365,657,1366,768,8-29-2022,18-47-10,33,depth_duration_stimuli/003129_2014-05-12_10-48-10_094959634447_rgbf000100-resize_0/003129_2014-05-12_10-48-10_094959634447_rgbf000100-resize_0-target.png,250,4.9305,4,1709,251,feet,jsons/v1_VE250_randls_68_rotated.json,662798,1054857,25,Man
33,245047,DepthScenes,duration_manipulation_targetAtFixation,jsons/v1_VE250_randls_68_rotated.json,http://54.235.29.9/FacialAge/BNav_EC2/DepthDuration/v2_depth_duration_MTurk/v2_DepthDuration_HTML.html#156,156,1365,657,1366,768,8-29-2022,18-47-10,34,depth_duration_stimuli/000414_2014-06-04_19-49-13_260595134347_rgbf000044-resize_0/000414_2014-06-04_19-49-13_260595134347_rgbf000044-resize_0-target.png,250,4.329,4,1993,250,feet,jsons/v1_VE250_randls_68_rotated.json,662798,1054857,25,Man
34,245047,DepthScenes,duration_manipulation_targetAtFixation,jsons/v1_VE250_randls_68_rotated.json,http://54.235.29.9/FacialAge/BNav_EC2/DepthDuration/v2_depth_duration_MTurk/v2_DepthDuration_HTML.html#156,156,1365,657,1366,768,8-29-2022,18-47-10,35,depth_duration_stimuli/002657_2014-06-13_15-29-54_094959634447_rgbf000150-resize_1/002657_2014-06-13_15-29-54_094959634447_rgbf000150-resize_1-target.png,250,4.919,4,1694,255,feet,jsons/v1_VE250_randls_68_rotated.json,662798,1054857,25,Man
35,245047,DepthScenes,duration_manipulation_targetAtFixation,jsons/v1_VE250_randls_68_rotated.json,http://54.235.29.9/FacialAge/BNav_EC2/DepthDuration/v2_depth_duration_MTurk/v2_DepthDuration_HTML.html#156,156,1365,657,1366,768,8-29-2022,18-47-10,36,depth_duration_stimuli/002375_2014-06-28_20-13-44_260595134347_rgbf000032-resize_1/002375_2014-06-28_20-13-44_260595134347_rgbf000032-resize_1-target.png,250,4.0175,4,1668,248,feet,jsons/v1_VE250_randls_68_rotated.json,662798,1054857,25,Man
36,245047,DepthScenes,duration_manipulation_targetAtFixation,jsons/v1_VE250_randls_68_rotated.json,http://54.235.29.9/FacialAge/BNav_EC2/DepthDuration/v2_depth_duration_MTurk/v2_DepthDuration_HTML.html#156,156,1365,657,1366,768,8-29-2022,18-47-10,37,depth_duration_stimuli/001132_2014-06-17_14-48-54_260595134347_rgbf000100-resize_2/001132_2014-06-17_14-48-54_260595134347_rgbf000100-resize_2-target.png,250,3.753,8,2299,255,feet,jsons/v1_VE250_randls_68_rotated.json,662798,1054857,25,Man
37,245047,DepthScenes,duration_manipulation_targetAtFixation,jsons/v1_VE250_randls_68_rotated.json,http://54.235.29.9/FacialAge/BNav_EC2/DepthDuration/v2_depth_duration_MTurk/v2_DepthDuration_HTML.html#156,156,1365,657,1366,768,8-29-2022,18-47-10,38,depth_duration_stimuli/001133_2014-06-17_14-49-16_260595134347_rgbf000100-resize_0/001133_2014-06-17_14-49-16_260595134347_rgbf000100-resize_0-target.png,250,4.2115,4,1837,247,feet,jsons/v1_VE250_randls_68_rotated.json,662798,1054857,25,Man
38,245047,DepthScenes,duration_manipulation_targetAtFixation,jsons/v1_VE250_randls_68_rotated.json,http://54.235.29.9/FacialAge/BNav_EC2/DepthDuration/v2_depth_duration_MTurk/v2_DepthDuration_HTML.html#156,156,1365,657,1366,768,8-29-2022,18-47-10,39,depth_duration_stimuli/000556_2014-06-09_22-42-56_260595134347_rgbf000214-resize_1/000556_2014-06-09_22-42-56_260595134347_rgbf000214-resize_1-target.png,250,4.8415,4,2454,246,feet,jsons/v1_VE250_randls_68_rotated.json,662798,1054857,25,Man
39,245047,DepthScenes,duration_manipulation_targetAtFixation,jsons/v1_VE250_randls_68_rotated.json,http://54.235.29.9/FacialAge/BNav_EC2/DepthDuration/v2_depth_duration_MTurk/v2_DepthDuration_HTML.html#156,156,1365,657,1366,768,8-29-2022,18-47-10,40,depth_duration_stimuli/001158_2014-06-17_15-32-16_260595134347_rgbf000138-resize_2/001158_2014-06-17_15-32-16_260595134347_rgbf000138-resize_2-target.png,250,4.5315,4,2112,248,feet,jsons/v1_VE250_randls_68_rotated.json,662798,1054857,25,Man
40,245047,DepthScenes,duration_manipulation_targetAtFixation,jsons/v1_VE250_randls_68_rotated.json,http://54.235.29.9/FacialAge/BNav_EC2/DepthDuration/v2_depth_duration_MTurk/v2_DepthDuration_HTML.html#156,156,1365,657,1366,768,8-29-2022,18-47-10,41,depth_duration_stimuli/002568_2014-06-24_13-59-21_094959634447_rgbf000062-resize_4/002568_2014-06-24_13-59-21_094959634447_rgbf000062-resize_4-target.png,250,3.015,4,2023,241,feet,jsons/v1_VE250_randls_68_rotated.json,662798,1054857,25,Man
41,245047,DepthScenes,duration_manipulation_targetAtFixation,jsons/v1_VE250_randls_68_rotated.json,http://54.235.29.9/FacialAge/BNav_EC2/DepthDuration/v2_depth_duration_MTurk/v2_DepthDuration_HTML.html#156,156,1365,657,1366,768,8-29-2022,18-47-10,42,depth_duration_stimuli/003492_2014-05-21_15-50-55_094959634447_rgbf000828-resize_1/003492_2014-05-21_15-50-55_094959634447_rgbf000828-resize_1-target.png,250,4.06875,6,3572,248,feet,jsons/v1_VE250_randls_68_rotated.json,662798,1054857,25,Man
42,245047,DepthScenes,duration_manipulation_targetAtFixation,jsons/v1_VE250_randls_68_rotated.json,http://54.235.29.9/FacialAge/BNav_EC2/DepthDuration/v2_depth_duration_MTurk/v2_DepthDuration_HTML.html#156,156,1365,657,1366,768,8-29-2022,18-47-10,43,depth_duration_stimuli/003490_2014-05-21_15-50-11_094959634447_rgbf000101-resize_3/003490_2014-05-21_15-50-11_094959634447_rgbf000101-resize_3-target.png,250,3.6445,4,1657,246,feet,jsons/v1_VE250_randls_68_rotated.json,662798,1054857,25,Man
43,245047,DepthScenes,duration_manipulation_targetAtFixation,jsons/v1_VE250_randls_68_rotated.json,http://54.235.29.9/FacialAge/BNav_EC2/DepthDuration/v2_depth_duration_MTurk/v2_DepthDuration_HTML.html#156,156,1365,657,1366,768,8-29-2022,18-47-10,44,depth_duration_stimuli/001175_2014-06-17_15-45-55_260595134347_rgbf000129-resize_4/001175_2014-06-17_15-45-55_260595134347_rgbf000129-resize_4-target.png,250,4.255,8,2178,261,feet,jsons/v1_VE250_randls_68_rotated.json,662798,1054857,25,Man
44,245047,DepthScenes,duration_manipulation_targetAtFixation,jsons/v1_VE250_randls_68_rotated.json,http://54.235.29.9/FacialAge/BNav_EC2/DepthDuration/v2_depth_duration_MTurk/v2_DepthDuration_HTML.html#156,156,1365,657,1366,768,8-29-2022,18-47-10,45,depth_duration_stimuli/002467_2014-06-28_20-38-07_260595134347_rgbf000026-resize_2/002467_2014-06-28_20-38-07_260595134347_rgbf000026-resize_2-target.png,250,4.742,4,1826,258,feet,jsons/v1_VE250_randls_68_rotated.json,662798,1054857,25,Man
45,245047,DepthScenes,duration_manipulation_targetAtFixation,jsons/v1_VE250_randls_68_rotated.json,http://54.235.29.9/FacialAge/BNav_EC2/DepthDuration/v2_depth_duration_MTurk/v2_DepthDuration_HTML.html#156,156,1365,657,1366,768,8-29-2022,18-47-10,46,depth_duration_stimuli/002570_2014-06-24_13-59-54_094959634447_rgbf000059-resize_0/002570_2014-06-24_13-59-54_094959634447_rgbf000059-resize_0-target.png,250,4.037,5,2159,249,feet,jsons/v1_VE250_randls_68_rotated.json,662798,1054857,25,Man
46,245047,DepthScenes,duration_manipulation_targetAtFixation,jsons/v1_VE250_randls_68_rotated.json,http://54.235.29.9/FacialAge/BNav_EC2/DepthDuration/v2_depth_duration_MTurk/v2_DepthDuration_HTML.html#156,156,1365,657,1366,768,8-29-2022,18-47-10,47,depth_duration_stimuli/003228_2014-05-14_13-42-35_094959634447_rgbf000101-resize_1/003228_2014-05-14_13-42-35_094959634447_rgbf000101-resize_1-target.png,250,1.9680000000000002,2,1744,254,feet,jsons/v1_VE250_randls_68_rotated.json,662798,1054857,25,Man
47,245047,DepthScenes,duration_manipulation_targetAtFixation,jsons/v1_VE250_randls_68_rotated.json,http://54.235.29.9/FacialAge/BNav_EC2/DepthDuration/v2_depth_duration_MTurk/v2_DepthDuration_HTML.html#156,156,1365,657,1366,768,8-29-2022,18-47-10,48,depth_duration_stimuli/002600_2014-06-24_14-27-04_094959634447_rgbf000074-resize_2/002600_2014-06-24_14-27-04_094959634447_rgbf000074-resize_2-target.png,250,2.7575,2,1891,243,feet,jsons/v1_VE250_randls_68_rotated.json,662798,1054857,25,Man
48,245047,DepthScenes,duration_manipulation_targetAtFixation,jsons/v1_VE250_randls_68_rotated.json,http://54.235.29.9/FacialAge/BNav_EC2/DepthDuration/v2_depth_duration_MTurk/v2_DepthDuration_HTML.html#156,156,1365,657,1366,768,8-29-2022,18-47-10,49,depth_duration_stimuli/001170_2014-06-17_15-43-44_260595134347_rgbf000096-resize_6/001170_2014-06-17_15-43-44_260595134347_rgbf000096-resize-original.jpg,250,1.1909999999999998,0,2097,247,feet,jsons/v1_VE250_randls_68_rotated.json,662798,1054857,25,Man
49,245047,DepthScenes,duration_manipulation_targetAtFixation,jsons/v1_VE250_randls_68_rotated.json,http://54.235.29.9/FacialAge/BNav_EC2/DepthDuration/v2_depth_duration_MTurk/v2_DepthDuration_HTML.html#156,156,1365,657,1366,768,8-29-2022,18-47-10,50,depth_duration_stimuli/001584_2014-06-20_11-07-43_260595134347_rgbf000002-resize_1/001584_2014-06-20_11-07-43_260595134347_rgbf000002-resize_1-target.png,250,3.53,4,2756,245,feet,jsons/v1_VE250_randls_68_rotated.json,662798,1054857,25,Man
50,245047,DepthScenes,duration_manipulation_targetAtFixation,jsons/v1_VE250_randls_68_rotated.json,http://54.235.29.9/FacialAge/BNav_EC2/DepthDuration/v2_depth_duration_MTurk/v2_DepthDuration_HTML.html#156,156,1365,657,1366,768,8-29-2022,18-47-10,51,depth_duration_stimuli/003621_2014-05-23_18-06-08_094959634447_rgbf000101-resize_1/003621_2014-05-23_18-06-08_094959634447_rgbf000101-resize_1-target.png,250,3.9835,4,1783,240,feet,jsons/v1_VE250_randls_68_rotated.json,662798,1054857,25,Man
51,245047,DepthScenes,duration_manipulation_targetAtFixation,jsons/v1_VE250_randls_68_rotated.json,http://54.235.29.9/FacialAge/BNav_EC2/DepthDuration/v2_depth_duration_MTurk/v2_DepthDuration_HTML.html#156,156,1365,657,1366,768,8-29-2022,18-47-10,52,depth_duration_stimuli/002323_2014-06-28_20-01-54_260595134347_rgbf000051-resize_4/002323_2014-06-28_20-01-54_260595134347_rgbf000051-resize_4-target.png,250,3.7310000000000003,4,1608,250,feet,jsons/v1_VE250_randls_68_rotated.json,662798,1054857,25,Man
52,245047,DepthScenes,duration_manipulation_targetAtFixation,jsons/v1_VE250_randls_68_rotated.json,http://54.235.29.9/FacialAge/BNav_EC2/DepthDuration/v2_depth_duration_MTurk/v2_DepthDuration_HTML.html#156,156,1365,657,1366,768,8-29-2022,18-47-10,53,depth_duration_stimuli/000917_2014-06-09_22-45-29_260595134347_rgbf000149-resize_3/000917_2014-06-09_22-45-29_260595134347_rgbf000149-resize_3-target.png,250,4.1865,4,1683,249,feet,jsons/v1_VE250_randls_68_rotated.json,662798,1054857,25,Man
53,245047,DepthScenes,duration_manipulation_targetAtFixation,jsons/v1_VE250_randls_68_rotated.json,http://54.235.29.9/FacialAge/BNav_EC2/DepthDuration/v2_depth_duration_MTurk/v2_DepthDuration_HTML.html#156,156,1365,657,1366,768,8-29-2022,18-47-10,54,depth_duration_stimuli/000677_2014-06-08_23-10-32_260595134347_rgbf000158-resize_6/000677_2014-06-08_23-10-32_260595134347_rgbf000158-resize_6-target.png,250,3.556,4,1601,240,feet,jsons/v1_VE250_randls_68_rotated.json,662798,1054857,25,Man
54,245047,DepthScenes,duration_manipulation_targetAtFixation,jsons/v1_VE250_randls_68_rotated.json,http://54.235.29.9/FacialAge/BNav_EC2/DepthDuration/v2_depth_duration_MTurk/v2_DepthDuration_HTML.html#156,156,1365,657,1366,768,8-29-2022,18-47-10,55,depth_duration_stimuli/001029_2014-06-08_13-17-57_260595134347_rgbf000065-resize_1/001029_2014-06-08_13-17-57_260595134347_rgbf000065-resize_1-target.png,250,3.0835,4,1598,245,feet,jsons/v1_VE250_randls_68_rotated.json,662798,1054857,25,Man
55,245047,DepthScenes,duration_manipulation_targetAtFixation,jsons/v1_VE250_randls_68_rotated.json,http://54.235.29.9/FacialAge/BNav_EC2/DepthDuration/v2_depth_duration_MTurk/v2_DepthDuration_HTML.html#156,156,1365,657,1366,768,8-29-2022,18-47-10,56,depth_duration_stimuli/002637_2014-06-24_14-51-13_094959634447_rgbf000066-resize_4/002637_2014-06-24_14-51-13_094959634447_rgbf000066-resize_4-target.png,250,1.9955,4,1650,251,feet,jsons/v1_VE250_randls_68_rotated.json,662798,1054857,25,Man
56,245047,DepthScenes,duration_manipulation_targetAtFixation,jsons/v1_VE250_randls_68_rotated.json,http://54.235.29.9/FacialAge/BNav_EC2/DepthDuration/v2_depth_duration_MTurk/v2_DepthDuration_HTML.html#156,156,1365,657,1366,768,8-29-2022,18-47-10,57,depth_duration_stimuli/003534_2014-05-22_15-06-10_094959634447_rgbf000102-resize_4/003534_2014-05-22_15-06-10_094959634447_rgbf000102-resize_4-target.png,250,1.426,4,1630,257,feet,jsons/v1_VE250_randls_68_rotated.json,662798,1054857,25,Man
57,245047,DepthScenes,duration_manipulation_targetAtFixation,jsons/v1_VE250_randls_68_rotated.json,http://54.235.29.9/FacialAge/BNav_EC2/DepthDuration/v2_depth_duration_MTurk/v2_DepthDuration_HTML.html#156,156,1365,657,1366,768,8-29-2022,18-47-10,58,depth_duration_stimuli/001100_2014-06-15_17-46-26_260595134347_rgbf000225-resize_2/001100_2014-06-15_17-46-26_260595134347_rgbf000225-resize_2-target.png,250,2.24,4,1756,255,feet,jsons/v1_VE250_randls_68_rotated.json,662798,1054857,25,Man
58,245047,DepthScenes,duration_manipulation_targetAtFixation,jsons/v1_VE250_randls_68_rotated.json,http://54.235.29.9/FacialAge/BNav_EC2/DepthDuration/v2_depth_duration_MTurk/v2_DepthDuration_HTML.html#156,156,1365,657,1366,768,8-29-2022,18-47-10,59,depth_duration_stimuli/002784_2014-06-22_19-26-30_094959634447_rgbf000083-resize_3/002784_2014-06-22_19-26-30_094959634447_rgbf000083-resize_3-target.png,250,1.8046666666667,4,1586,247,feet,jsons/v1_VE250_randls_68_rotated.json,662798,1054857,25,Man
59,245047,DepthScenes,duration_manipulation_targetAtFixation,jsons/v1_VE250_randls_68_rotated.json,http://54.235.29.9/FacialAge/BNav_EC2/DepthDuration/v2_depth_duration_MTurk/v2_DepthDuration_HTML.html#156,156,1365,657,1366,768,8-29-2022,18-47-10,60,depth_duration_stimuli/000409_2014-06-04_19-23-33_260595134347_rgbf000067-resize_0/000409_2014-06-04_19-23-33_260595134347_rgbf000067-resize_0-target.png,250,3.7335,4,1576,259,feet,jsons/v1_VE250_randls_68_rotated.json,662798,1054857,25,Man
60,245047,DepthScenes,duration_manipulation_targetAtFixation,jsons/v1_VE250_randls_68_rotated.json,http://54.235.29.9/FacialAge/BNav_EC2/DepthDuration/v2_depth_duration_MTurk/v2_DepthDuration_HTML.html#156,156,1365,657,1366,768,8-29-2022,18-47-10,61,depth_duration_stimuli/002663_2014-06-13_15-50-26_094959634447_rgbf000075-resize_1/002663_2014-06-13_15-50-26_094959634447_rgbf000075-resize_1-target.png,250,4.7495,4,2148,247,feet,jsons/v1_VE250_randls_68_rotated.json,662798,1054857,25,Man
61,245047,DepthScenes,duration_manipulation_targetAtFixation,jsons/v1_VE250_randls_68_rotated.json,http://54.235.29.9/FacialAge/BNav_EC2/DepthDuration/v2_depth_duration_MTurk/v2_DepthDuration_HTML.html#156,156,1365,657,1366,768,8-29-2022,18-47-10,62,depth_duration_stimuli/002199_2014-06-28_18-33-56_260595134347_rgbf000074-resize_0/002199_2014-06-28_18-33-56_260595134347_rgbf000074-resize_0-target.png,250,1.996,2,1690,260,feet,jsons/v1_VE250_randls_68_rotated.json,662798,1054857,25,Man
62,245047,DepthScenes,duration_manipulation_targetAtFixation,jsons/v1_VE250_randls_68_rotated.json,http://54.235.29.9/FacialAge/BNav_EC2/DepthDuration/v2_depth_duration_MTurk/v2_DepthDuration_HTML.html#156,156,1365,657,1366,768,8-29-2022,18-47-10,63,depth_duration_stimuli/001056_2014-06-08_18-46-44_260595134347_rgbf000068-resize_0/001056_2014-06-08_18-46-44_260595134347_rgbf000068-resize_0-target.png,250,2.6625,6,2002,241,feet,jsons/v1_VE250_randls_68_rotated.json,662798,1054857,25,Man
63,245047,DepthScenes,duration_manipulation_targetAtFixation,jsons/v1_VE250_randls_68_rotated.json,http://54.235.29.9/FacialAge/BNav_EC2/DepthDuration/v2_depth_duration_MTurk/v2_DepthDuration_HTML.html#156,156,1365,657,1366,768,8-29-2022,18-47-10,64,depth_duration_stimuli/001052_2014-06-08_18-24-54_260595134347_rgbf000130-resize_1/001052_2014-06-08_18-24-54_260595134347_rgbf000130-resize_1-target.png,250,4.1045,7,2185,255,feet,jsons/v1_VE250_randls_68_rotated.json,662798,1054857,25,Man
64,245047,DepthScenes,duration_manipulation_targetAtFixation,jsons/v1_VE250_randls_68_rotated.json,http://54.235.29.9/FacialAge/BNav_EC2/DepthDuration/v2_depth_duration_MTurk/v2_DepthDuration_HTML.html#156,156,1365,657,1366,768,8-29-2022,18-47-10,65,depth_duration_stimuli/002988_2014-06-15_12-24-20_094959634447_rgbf000150-resize_1/002988_2014-06-15_12-24-20_094959634447_rgbf000150-resize_1-target.png,250,4.7669999999999995,8,2036,236,feet,jsons/v1_VE250_randls_68_rotated.json,662798,1054857,25,Man
65,245047,DepthScenes,duration_manipulation_targetAtFixation,jsons/v1_VE250_randls_68_rotated.json,http://54.235.29.9/FacialAge/BNav_EC2/DepthDuration/v2_depth_duration_MTurk/v2_DepthDuration_HTML.html#156,156,1365,657,1366,768,8-29-2022,18-47-10,66,depth_duration_stimuli/001540_2014-06-20_17-01-05_260595134347_rgbf000086-resize_2/001540_2014-06-20_17-01-05_260595134347_rgbf000086-resize-original.jpg,250,1.459,0,1923,241,feet,jsons/v1_VE250_randls_68_rotated.json,662798,1054857,25,Man
66,245047,DepthScenes,duration_manipulation_targetAtFixation,jsons/v1_VE250_randls_68_rotated.json,http://54.235.29.9/FacialAge/BNav_EC2/DepthDuration/v2_depth_duration_MTurk/v2_DepthDuration_HTML.html#156,156,1365,657,1366,768,8-29-2022,18-47-10,67,depth_duration_stimuli/001650_2014-06-20_12-09-00_260595134347_rgbf000087-resize_3/001650_2014-06-20_12-09-00_260595134347_rgbf000087-resize_3-target.png,250,1.9505,2,1944,254,feet,jsons/v1_VE250_randls_68_rotated.json,662798,1054857,25,Man
67,245047,DepthScenes,duration_manipulation_targetAtFixation,jsons/v1_VE250_randls_68_rotated.json,http://54.235.29.9/FacialAge/BNav_EC2/DepthDuration/v2_depth_duration_MTurk/v2_DepthDuration_HTML.html#156,156,1365,657,1366,768,8-29-2022,18-47-10,68,depth_duration_stimuli/000682_2014-06-08_23-14-58_260595134347_rgbf000041-resize_5/000682_2014-06-08_23-14-58_260595134347_rgbf000041-resize_5-target.png,250,2.7239999999999998,3,2097,245,feet,jsons/v1_VE250_randls_68_rotated.json,662798,1054857,25,Man
68,245047,DepthScenes,duration_manipulation_targetAtFixation,jsons/v1_VE250_randls_68_rotated.json,http://54.235.29.9/FacialAge/BNav_EC2/DepthDuration/v2_depth_duration_MTurk/v2_DepthDuration_HTML.html#156,156,1365,657,1366,768,8-29-2022,18-47-10,69,depth_duration_stimuli/001516_2014-06-20_16-25-09_260595134347_rgbf000076-resize_2/001516_2014-06-20_16-25-09_260595134347_rgbf000076-resize_2-target.png,250,1.7445,4,1848,256,feet,jsons/v1_VE250_randls_68_rotated.json,662798,1054857,25,Man
69,245047,DepthScenes,duration_manipulation_targetAtFixation,jsons/v1_VE250_randls_68_rotated.json,http://54.235.29.9/FacialAge/BNav_EC2/DepthDuration/v2_depth_duration_MTurk/v2_DepthDuration_HTML.html#156,156,1365,657,1366,768,8-29-2022,18-47-10,70,depth_duration_stimuli/002118_2014-06-25_20-32-08_260595134347_rgbf000078-resize_1/002118_2014-06-25_20-32-08_260595134347_rgbf000078-resize_1-target.png,250,2.6460000000000004,5,2095,254,feet,jsons/v1_VE250_randls_68_rotated.json,662798,1054857,25,Man
70,245047,DepthScenes,duration_manipulation_targetAtFixation,jsons/v1_VE250_randls_68_rotated.json,http://54.235.29.9/FacialAge/BNav_EC2/DepthDuration/v2_depth_duration_MTurk/v2_DepthDuration_HTML.html#156,156,1365,657,1366,768,8-29-2022,18-47-10,71,depth_duration_stimuli/003079_2014-06-15_15-18-20_094959634447_rgbf000152-resize_8/003079_2014-06-15_15-18-20_094959634447_rgbf000152-resize_8-target.png,250,2.8775,8,1918,243,feet,jsons/v1_VE250_randls_68_rotated.json,662798,1054857,25,Man
71,245047,DepthScenes,duration_manipulation_targetAtFixation,jsons/v1_VE250_randls_68_rotated.json,http://54.235.29.9/FacialAge/BNav_EC2/DepthDuration/v2_depth_duration_MTurk/v2_DepthDuration_HTML.html#156,156,1365,657,1366,768,8-29-2022,18-47-10,72,depth_duration_stimuli/000506_2014-06-08_23-21-00_260595134347_rgbf000070-resize_7/000506_2014-06-08_23-21-00_260595134347_rgbf000070-resize_7-target.png,250,4.0585,7,2095,248,feet,jsons/v1_VE250_randls_68_rotated.json,662798,1054857,25,Man
72,245047,DepthScenes,duration_manipulation_targetAtFixation,jsons/v1_VE250_randls_68_rotated.json,http://54.235.29.9/FacialAge/BNav_EC2/DepthDuration/v2_depth_duration_MTurk/v2_DepthDuration_HTML.html#156,156,1365,657,1366,768,8-29-2022,18-47-10,73,depth_duration_stimuli/002758_2014-06-22_19-11-20_094959634447_rgbf000128-resize_1/002758_2014-06-22_19-11-20_094959634447_rgbf000128-resize_1-target.png,250,2.555,4,1861,244,feet,jsons/v1_VE250_randls_68_rotated.json,662798,1054857,25,Man
73,245047,DepthScenes,duration_manipulation_targetAtFixation,jsons/v1_VE250_randls_68_rotated.json,http://54.235.29.9/FacialAge/BNav_EC2/DepthDuration/v2_depth_duration_MTurk/v2_DepthDuration_HTML.html#156,156,1365,657,1366,768,8-29-2022,18-47-10,74,depth_duration_stimuli/002630_2014-06-24_14-47-50_094959634447_rgbf000055-resize_1/002630_2014-06-24_14-47-50_094959634447_rgbf000055-resize_1-target.png,250,3.0095,6,1887,246,feet,jsons/v1_VE250_randls_68_rotated.json,662798,1054857,25,Man
74,245047,DepthScenes,duration_manipulation_targetAtFixation,jsons/v1_VE250_randls_68_rotated.json,http://54.235.29.9/FacialAge/BNav_EC2/DepthDuration/v2_depth_duration_MTurk/v2_DepthDuration_HTML.html#156,156,1365,657,1366,768,8-29-2022,18-47-10,75,depth_duration_stimuli/000137_2014-05-20_17-04-49_260595134347_rgbf000120-resize_1/000137_2014-05-20_17-04-49_260595134347_rgbf000120-resize_1-target.png,250,3.786,7,1962,243,feet,jsons/v1_VE250_randls_68_rotated.json,662798,1054857,25,Man
75,245047,DepthScenes,duration_manipulation_targetAtFixation,jsons/v1_VE250_randls_68_rotated.json,http://54.235.29.9/FacialAge/BNav_EC2/DepthDuration/v2_depth_duration_MTurk/v2_DepthDuration_HTML.html#156,156,1365,657,1366,768,8-29-2022,18-47-10,76,depth_duration_stimuli/000736_2014-06-08_18-24-15_260595134347_rgbf000206-resize_3/000736_2014-06-08_18-24-15_260595134347_rgbf000206-resize_3-target.png,250,3.515,4,1673,256,feet,jsons/v1_VE250_randls_68_rotated.json,662798,1054857,25,Man
76,245047,DepthScenes,duration_manipulation_targetAtFixation,jsons/v1_VE250_randls_68_rotated.json,http://54.235.29.9/FacialAge/BNav_EC2/DepthDuration/v2_depth_duration_MTurk/v2_DepthDuration_HTML.html#156,156,1365,657,1366,768,8-29-2022,18-47-10,77,depth_duration_stimuli/000691_2014-06-08_13-08-50_260595134347_rgbf000132-resize_3/000691_2014-06-08_13-08-50_260595134347_rgbf000132-resize_3-target.png,250,4.1530000000000005,5,1962,254,feet,jsons/v1_VE250_randls_68_rotated.json,662798,1054857,25,Man
77,245047,DepthScenes,duration_manipulation_targetAtFixation,jsons/v1_VE250_randls_68_rotated.json,http://54.235.29.9/FacialAge/BNav_EC2/DepthDuration/v2_depth_duration_MTurk/v2_DepthDuration_HTML.html#156,156,1365,657,1366,768,8-29-2022,18-47-10,78,depth_duration_stimuli/002213_2014-06-28_18-37-58_260595134347_rgbf000055-resize_1/002213_2014-06-28_18-37-58_260595134347_rgbf000055-resize_1-target.png,250,3.62,8,2041,258,feet,jsons/v1_VE250_randls_68_rotated.json,662798,1054857,25,Man
78,245047,DepthScenes,duration_manipulation_targetAtFixation,jsons/v1_VE250_randls_68_rotated.json,http://54.235.29.9/FacialAge/BNav_EC2/DepthDuration/v2_depth_duration_MTurk/v2_DepthDuration_HTML.html#156,156,1365,657,1366,768,8-29-2022,18-47-10,79,depth_duration_stimuli/000109_2014-05-14_23-41-52_260595134347_rgbf000035-resize_9/000109_2014-05-14_23-41-52_260595134347_rgbf000035-resize_9-target.png,250,1.3545,2,1745,250,feet,jsons/v1_VE250_randls_68_rotated.json,662798,1054857,25,Man
79,245047,DepthScenes,duration_manipulation_targetAtFixation,jsons/v1_VE250_randls_68_rotated.json,http://54.235.29.9/FacialAge/BNav_EC2/DepthDuration/v2_depth_duration_MTurk/v2_DepthDuration_HTML.html#156,156,1365,657,1366,768,8-29-2022,18-47-10,80,depth_duration_stimuli/000470_2014-06-09_19-42-40_260595134347_rgbf000094-resize_1/000470_2014-06-09_19-42-40_260595134347_rgbf000094-resize_1-target.png,250,1.831,3,2003,254,feet,jsons/v1_VE250_randls_68_rotated.json,662798,1054857,25,Man
80,245047,DepthScenes,duration_manipulation_targetAtFixation,jsons/v1_VE250_randls_68_rotated.json,http://54.235.29.9/FacialAge/BNav_EC2/DepthDuration/v2_depth_duration_MTurk/v2_DepthDuration_HTML.html#156,156,1365,657,1366,768,8-29-2022,18-47-10,81,depth_duration_stimuli/002103_2014-06-25_20-00-40_260595134347_rgbf000049-resize_0/002103_2014-06-25_20-00-40_260595134347_rgbf000049-resize_0-target.png,250,4.105,4,1671,243,feet,jsons/v1_VE250_randls_68_rotated.json,662798,1054857,25,Man
81,245047,DepthScenes,duration_manipulation_targetAtFixation,jsons/v1_VE250_randls_68_rotated.json,http://54.235.29.9/FacialAge/BNav_EC2/DepthDuration/v2_depth_duration_MTurk/v2_DepthDuration_HTML.html#156,156,1365,657,1366,768,8-29-2022,18-47-10,82,depth_duration_stimuli/002039_2014-06-24_20-22-38_260595134347_rgbf000084-resize_1/002039_2014-06-24_20-22-38_260595134347_rgbf000084-resize_1-target.png,250,4.408,8,2340,244,feet,jsons/v1_VE250_randls_68_rotated.json,662798,1054857,25,Man
82,245047,DepthScenes,duration_manipulation_targetAtFixation,jsons/v1_VE250_randls_68_rotated.json,http://54.235.29.9/FacialAge/BNav_EC2/DepthDuration/v2_depth_duration_MTurk/v2_DepthDuration_HTML.html#156,156,1365,657,1366,768,8-29-2022,18-47-10,83,depth_duration_stimuli/002660_2014-06-13_15-44-18_094959634447_rgbf001878-resize_2/002660_2014-06-13_15-44-18_094959634447_rgbf001878-resize_2-target.png,250,3.576,8,1811,244,feet,jsons/v1_VE250_randls_68_rotated.json,662798,1054857,25,Man
83,245047,DepthScenes,duration_manipulation_targetAtFixation,jsons/v1_VE250_randls_68_rotated.json,http://54.235.29.9/FacialAge/BNav_EC2/DepthDuration/v2_depth_duration_MTurk/v2_DepthDuration_HTML.html#156,156,1365,657,1366,768,8-29-2022,18-47-10,84,depth_duration_stimuli/002153_2014-06-25_21-27-18_260595134347_rgbf000038-resize_5/002153_2014-06-25_21-27-18_260595134347_rgbf000038-resize_5-target.png,250,2.505,5,2039,246,feet,jsons/v1_VE250_randls_68_rotated.json,662798,1054857,25,Man
84,245047,DepthScenes,duration_manipulation_targetAtFixation,jsons/v1_VE250_randls_68_rotated.json,http://54.235.29.9/FacialAge/BNav_EC2/DepthDuration/v2_depth_duration_MTurk/v2_DepthDuration_HTML.html#156,156,1365,657,1366,768,8-29-2022,18-47-10,85,depth_duration_stimuli/003338_2014-05-20_11-01-23_094959634447_rgbf000051-resize_6/003338_2014-05-20_11-01-23_094959634447_rgbf000051-resize_6-target.png,250,1.693,4,1587,249,feet,jsons/v1_VE250_randls_68_rotated.json,662798,1054857,25,Man
85,245047,DepthScenes,duration_manipulation_targetAtFixation,jsons/v1_VE250_randls_68_rotated.json,http://54.235.29.9/FacialAge/BNav_EC2/DepthDuration/v2_depth_duration_MTurk/v2_DepthDuration_HTML.html#156,156,1365,657,1366,768,8-29-2022,18-47-10,86,depth_duration_stimuli/002509_2014-06-24_13-19-22_094959634447_rgbf000077-resize_0/002509_2014-06-24_13-19-22_094959634447_rgbf000077-resize_0-target.png,250,1.3065,4,1669,247,feet,jsons/v1_VE250_randls_68_rotated.json,662798,1054857,25,Man
86,245047,DepthScenes,duration_manipulation_targetAtFixation,jsons/v1_VE250_randls_68_rotated.json,http://54.235.29.9/FacialAge/BNav_EC2/DepthDuration/v2_depth_duration_MTurk/v2_DepthDuration_HTML.html#156,156,1365,657,1366,768,8-29-2022,18-47-10,87,depth_duration_stimuli/000635_2014-06-08_16-38-42_260595134347_rgbf000106-resize_1/000635_2014-06-08_16-38-42_260595134347_rgbf000106-resize_1-target.png,250,2.074,6,2082,240,feet,jsons/v1_VE250_randls_68_rotated.json,662798,1054857,25,Man
87,245047,DepthScenes,duration_manipulation_targetAtFixation,jsons/v1_VE250_randls_68_rotated.json,http://54.235.29.9/FacialAge/BNav_EC2/DepthDuration/v2_depth_duration_MTurk/v2_DepthDuration_HTML.html#156,156,1365,657,1366,768,8-29-2022,18-47-10,88,depth_duration_stimuli/002279_2014-06-28_18-55-32_260595134347_rgbf000040-resize_5/002279_2014-06-28_18-55-32_260595134347_rgbf000040-resize_5-target.png,250,1.5043333333333,3,1933,246,feet,jsons/v1_VE250_randls_68_rotated.json,662798,1054857,25,Man
88,245047,DepthScenes,duration_manipulation_targetAtFixation,jsons/v1_VE250_randls_68_rotated.json,http://54.235.29.9/FacialAge/BNav_EC2/DepthDuration/v2_depth_duration_MTurk/v2_DepthDuration_HTML.html#156,156,1365,657,1366,768,8-29-2022,18-47-10,89,depth_duration_stimuli/002953_2014-06-08_17-32-18_094959634447_rgbf000059-resize_5/002953_2014-06-08_17-32-18_094959634447_rgbf000059-resize_5-target.png,250,1.551,4,1633,251,feet,jsons/v1_VE250_randls_68_rotated.json,662798,1054857,25,Man
89,245047,DepthScenes,duration_manipulation_targetAtFixation,jsons/v1_VE250_randls_68_rotated.json,http://54.235.29.9/FacialAge/BNav_EC2/DepthDuration/v2_depth_duration_MTurk/v2_DepthDuration_HTML.html#156,156,1365,657,1366,768,8-29-2022,18-47-10,90,depth_duration_stimuli/000878_2014-06-08_22-52-45_260595134347_rgbf000045-resize_2/000878_2014-06-08_22-52-45_260595134347_rgbf000045-resize_2-target.png,250,2.092,8,2317,246,feet,jsons/v1_VE250_randls_68_rotated.json,662798,1054857,25,Man
90,245047,DepthScenes,duration_manipulation_targetAtFixation,jsons/v1_VE250_randls_68_rotated.json,http://54.235.29.9/FacialAge/BNav_EC2/DepthDuration/v2_depth_duration_MTurk/v2_DepthDuration_HTML.html#156,156,1365,657,1366,768,8-29-2022,18-47-10,91,depth_duration_stimuli/002344_2014-06-28_20-06-29_260595134347_rgbf000030-resize_1/002344_2014-06-28_20-06-29_260595134347_rgbf000030-resize_1-target.png,250,1.5795,4,1869,251,feet,jsons/v1_VE250_randls_68_rotated.json,662798,1054857,25,Man
91,245047,DepthScenes,duration_manipulation_targetAtFixation,jsons/v1_VE250_randls_68_rotated.json,http://54.235.29.9/FacialAge/BNav_EC2/DepthDuration/v2_depth_duration_MTurk/v2_DepthDuration_HTML.html#156,156,1365,657,1366,768,8-29-2022,18-47-10,92,depth_duration_stimuli/002725_2014-06-22_11-47-51_094959634447_rgbf000070-resize_1/002725_2014-06-22_11-47-51_094959634447_rgbf000070-resize_1-target.png,250,2.195,6,2283,245,feet,jsons/v1_VE250_randls_68_rotated.json,662798,1054857,25,Man
92,245047,DepthScenes,duration_manipulation_targetAtFixation,jsons/v1_VE250_randls_68_rotated.json,http://54.235.29.9/FacialAge/BNav_EC2/DepthDuration/v2_depth_duration_MTurk/v2_DepthDuration_HTML.html#156,156,1365,657,1366,768,8-29-2022,18-47-10,93,depth_duration_stimuli/002444_2014-06-28_20-32-08_260595134347_rgbf000027-resize_0/002444_2014-06-28_20-32-08_260595134347_rgbf000027-resize_0-target.png,250,4.388999999999999,7,2303,249,feet,jsons/v1_VE250_randls_68_rotated.json,662798,1054857,25,Man
93,245047,DepthScenes,duration_manipulation_targetAtFixation,jsons/v1_VE250_randls_68_rotated.json,http://54.235.29.9/FacialAge/BNav_EC2/DepthDuration/v2_depth_duration_MTurk/v2_DepthDuration_HTML.html#156,156,1365,657,1366,768,8-29-2022,18-47-10,94,depth_duration_stimuli/000436_2014-06-09_22-25-11_260595134347_rgbf000137-resize_1/000436_2014-06-09_22-25-11_260595134347_rgbf000137-resize_1-target.png,250,4.0705,8,2026,248,feet,jsons/v1_VE250_randls_68_rotated.json,662798,1054857,25,Man
94,245047,DepthScenes,duration_manipulation_targetAtFixation,jsons/v1_VE250_randls_68_rotated.json,http://54.235.29.9/FacialAge/BNav_EC2/DepthDuration/v2_depth_duration_MTurk/v2_DepthDuration_HTML.html#156,156,1365,657,1366,768,8-29-2022,18-47-10,95,depth_duration_stimuli/001094_2014-06-15_17-36-00_260595134347_rgbf000205-resize_0/001094_2014-06-15_17-36-00_260595134347_rgbf000205-resize_0-target.png,250,4.2175,6,2156,249,feet,jsons/v1_VE250_randls_68_rotated.json,662798,1054857,25,Man
95,245047,DepthScenes,duration_manipulation_targetAtFixation,jsons/v1_VE250_randls_68_rotated.json,http://54.235.29.9/FacialAge/BNav_EC2/DepthDuration/v2_depth_duration_MTurk/v2_DepthDuration_HTML.html#156,156,1365,657,1366,768,8-29-2022,18-47-10,96,depth_duration_stimuli/000692_2014-06-08_13-09-42_260595134347_rgbf000199-resize_2/000692_2014-06-08_13-09-42_260595134347_rgbf000199-resize_2-target.png,250,3.661,7,2064,250,feet,jsons/v1_VE250_randls_68_rotated.json,662798,1054857,25,Man
96,245047,DepthScenes,duration_manipulation_targetAtFixation,jsons/v1_VE250_randls_68_rotated.json,http://54.235.29.9/FacialAge/BNav_EC2/DepthDuration/v2_depth_duration_MTurk/v2_DepthDuration_HTML.html#156,156,1365,657,1366,768,8-29-2022,18-47-10,97,depth_duration_stimuli/000665_2014-06-09_20-42-35_260595134347_rgbf000110-resize_1/000665_2014-06-09_20-42-35_260595134347_rgbf000110-resize_1-target.png,250,3.057,4,1918,256,feet,jsons/v1_VE250_randls_68_rotated.json,662798,1054857,25,Man
97,245047,DepthScenes,duration_manipulation_targetAtFixation,jsons/v1_VE250_randls_68_rotated.json,http://54.235.29.9/FacialAge/BNav_EC2/DepthDuration/v2_depth_duration_MTurk/v2_DepthDuration_HTML.html#156,156,1365,657,1366,768,8-29-2022,18-47-10,98,depth_duration_stimuli/001150_2014-06-17_15-27-34_260595134347_rgbf000108-resize_2/001150_2014-06-17_15-27-34_260595134347_rgbf000108-resize_2-target.png,250,4.0325,7,2059,253,feet,jsons/v1_VE250_randls_68_rotated.json,662798,1054857,25,Man
98,245047,DepthScenes,duration_manipulation_targetAtFixation,jsons/v1_VE250_randls_68_rotated.json,http://54.235.29.9/FacialAge/BNav_EC2/DepthDuration/v2_depth_duration_MTurk/v2_DepthDuration_HTML.html#156,156,1365,657,1366,768,8-29-2022,18-47-10,99,depth_duration_stimuli/001222_2014-06-17_16-24-06_260595134347_rgbf000073-resize_0/001222_2014-06-17_16-24-06_260595134347_rgbf000073-resize-original.jpg,250,1.4385,0,1874,255,feet,jsons/v1_VE250_randls_68_rotated.json,662798,1054857,25,Man
99,245047,DepthScenes,duration_manipulation_targetAtFixation,jsons/v1_VE250_randls_68_rotated.json,http://54.235.29.9/FacialAge/BNav_EC2/DepthDuration/v2_depth_duration_MTurk/v2_DepthDuration_HTML.html#156,156,1365,657,1366,768,8-29-2022,18-47-10,100,depth_duration_stimuli/002414_2014-06-28_20-24-58_260595134347_rgbf000067-resize_4/002414_2014-06-28_20-24-58_260595134347_rgbf000067-resize_4-target.png,250,4.363,6,2127,262,feet,jsons/v1_VE250_randls_68_rotated.json,662798,1054857,25,Man
100,245047,DepthScenes,duration_manipulation_targetAtFixation,jsons/v1_VE250_randls_68_rotated.json,http://54.235.29.9/FacialAge/BNav_EC2/DepthDuration/v2_depth_duration_MTurk/v2_DepthDuration_HTML.html#156,156,1365,657,1366,768,8-29-2022,18-47-10,101,depth_duration_stimuli/000773_2014-06-08_22-24-54_260595134347_rgbf000093-resize_1/000773_2014-06-08_22-24-54_260595134347_rgbf000093-resize_1-target.png,250,4.973,7,2154,246,feet,jsons/v1_VE250_randls_68_rotated.json,662798,1054857,25,Man
101,245047,DepthScenes,duration_manipulation_targetAtFixation,jsons/v1_VE250_randls_68_rotated.json,http://54.235.29.9/FacialAge/BNav_EC2/DepthDuration/v2_depth_duration_MTurk/v2_DepthDuration_HTML.html#156,156,1365,657,1366,768,8-29-2022,18-47-10,102,depth_duration_stimuli/003048_2014-06-15_13-49-43_094959634447_rgbf000150-resize_1/003048_2014-06-15_13-49-43_094959634447_rgbf000150-resize_1-target.png,250,4.0035,8,2056,244,feet,jsons/v1_VE250_randls_68_rotated.json,662798,1054857,25,Man
102,245047,DepthScenes,duration_manipulation_targetAtFixation,jsons/v1_VE250_randls_68_rotated.json,http://54.235.29.9/FacialAge/BNav_EC2/DepthDuration/v2_depth_duration_MTurk/v2_DepthDuration_HTML.html#156,156,1365,657,1366,768,8-29-2022,18-47-10,103,depth_duration_stimuli/002043_2014-06-24_20-29-38_260595134347_rgbf000039-resize_4/002043_2014-06-24_20-29-38_260595134347_rgbf000039-resize_4-target.png,250,2.8435,1,64820,249,feet,jsons/v1_VE250_randls_68_rotated.json,662798,1054857,25,Man
103,245047,DepthScenes,duration_manipulation_targetAtFixation,jsons/v1_VE250_randls_68_rotated.json,http://54.235.29.9/FacialAge/BNav_EC2/DepthDuration/v2_depth_duration_MTurk/v2_DepthDuration_HTML.html#156,156,1365,657,1366,768,8-29-2022,18-47-10,104,depth_duration_stimuli/003495_2014-05-21_16-01-51_094959634447_rgbf000100-resize_3/003495_2014-05-21_16-01-51_094959634447_rgbf000100-resize_3-target.png,250,1.6255,2,2735,245,feet,jsons/v1_VE250_randls_68_rotated.json,662798,1054857,25,Man
104,245047,DepthScenes,duration_manipulation_targetAtFixation,jsons/v1_VE250_randls_68_rotated.json,http://54.235.29.9/FacialAge/BNav_EC2/DepthDuration/v2_depth_duration_MTurk/v2_DepthDuration_HTML.html#156,156,1365,657,1366,768,8-29-2022,18-47-10,105,depth_duration_stimuli/001244_2014-06-17_16-47-45_260595134347_rgbf000030-resize_4/001244_2014-06-17_16-47-45_260595134347_rgbf000030-resize_4-target.png,250,2.0425,4,1799,240,feet,jsons/v1_VE250_randls_68_rotated.json,662798,1054857,25,Man
105,245047,DepthScenes,duration_manipulation_targetAtFixation,jsons/v1_VE250_randls_68_rotated.json,http://54.235.29.9/FacialAge/BNav_EC2/DepthDuration/v2_depth_duration_MTurk/v2_DepthDuration_HTML.html#156,156,1365,657,1366,768,8-29-2022,18-47-10,106,depth_duration_stimuli/000866_2014-06-09_20-45-42_260595134347_rgbf000139-resize_1/000866_2014-06-09_20-45-42_260595134347_rgbf000139-resize_1-target.png,250,3.2155,5,2293,255,feet,jsons/v1_VE250_randls_68_rotated.json,662798,1054857,25,Man
106,245047,DepthScenes,duration_manipulation_targetAtFixation,jsons/v1_VE250_randls_68_rotated.json,http://54.235.29.9/FacialAge/BNav_EC2/DepthDuration/v2_depth_duration_MTurk/v2_DepthDuration_HTML.html#156,156,1365,657,1366,768,8-29-2022,18-47-10,107,depth_duration_stimuli/002989_2014-06-15_12-25-03_094959634447_rgbf000150-resize_3/002989_2014-06-15_12-25-03_094959634447_rgbf000150-resize_3-target.png,250,4.1975,8,2298,249,feet,jsons/v1_VE250_randls_68_rotated.json,662798,1054857,25,Man
107,245047,DepthScenes,duration_manipulation_targetAtFixation,jsons/v1_VE250_randls_68_rotated.json,http://54.235.29.9/FacialAge/BNav_EC2/DepthDuration/v2_depth_duration_MTurk/v2_DepthDuration_HTML.html#156,156,1365,657,1366,768,8-29-2022,18-47-10,108,depth_duration_stimuli/002545_2014-06-24_13-38-53_094959634447_rgbf000080-resize_4/002545_2014-06-24_13-38-53_094959634447_rgbf000080-resize_4-target.png,250,1.9205,6,2200,238,feet,jsons/v1_VE250_randls_68_rotated.json,662798,1054857,25,Man
108,245047,DepthScenes,duration_manipulation_targetAtFixation,jsons/v1_VE250_randls_68_rotated.json,http://54.235.29.9/FacialAge/BNav_EC2/DepthDuration/v2_depth_duration_MTurk/v2_DepthDuration_HTML.html#156,156,1365,657,1366,768,8-29-2022,18-47-10,109,depth_duration_stimuli/001092_2014-06-15_17-34-58_260595134347_rgbf000171-resize_3/001092_2014-06-15_17-34-58_260595134347_rgbf000171-resize_3-target.png,250,2.6935,4,1681,253,feet,jsons/v1_VE250_randls_68_rotated.json,662798,1054857,25,Man
109,245047,DepthScenes,duration_manipulation_targetAtFixation,jsons/v1_VE250_randls_68_rotated.json,http://54.235.29.9/FacialAge/BNav_EC2/DepthDuration/v2_depth_duration_MTurk/v2_DepthDuration_HTML.html#156,156,1365,657,1366,768,8-29-2022,18-47-10,110,depth_duration_stimuli/001214_2014-06-17_16-13-55_260595134347_rgbf000111-resize_0/001214_2014-06-17_16-13-55_260595134347_rgbf000111-resize_0-target.png,250,2.6505,6,2173,249,feet,jsons/v1_VE250_randls_68_rotated.json,662798,1054857,25,Man
110,245047,DepthScenes,duration_manipulation_targetAtFixation,jsons/v1_VE250_randls_68_rotated.json,http://54.235.29.9/FacialAge/BNav_EC2/DepthDuration/v2_depth_duration_MTurk/v2_DepthDuration_HTML.html#156,156,1365,657,1366,768,8-29-2022,18-47-10,111,depth_duration_stimuli/000810_2014-06-08_17-20-01_260595134347_rgbf000105-resize_0/000810_2014-06-08_17-20-01_260595134347_rgbf000105-resize_0-target.png,250,1.4865,5,2125,246,feet,jsons/v1_VE250_randls_68_rotated.json,662798,1054857,25,Man
111,245047,DepthScenes,duration_manipulation_targetAtFixation,jsons/v1_VE250_randls_68_rotated.json,http://54.235.29.9/FacialAge/BNav_EC2/DepthDuration/v2_depth_duration_MTurk/v2_DepthDuration_HTML.html#156,156,1365,657,1366,768,8-29-2022,18-47-10,112,depth_duration_stimuli/000549_2014-06-08_22-10-24_260595134347_rgbf000247-resize_3/000549_2014-06-08_22-10-24_260595134347_rgbf000247-resize_3-target.png,250,1.841,3,2208,247,feet,jsons/v1_VE250_randls_68_rotated.json,662798,1054857,25,Man
112,245047,DepthScenes,duration_manipulation_targetAtFixation,jsons/v1_VE250_randls_68_rotated.json,http://54.235.29.9/FacialAge/BNav_EC2/DepthDuration/v2_depth_duration_MTurk/v2_DepthDuration_HTML.html#156,156,1365,657,1366,768,8-29-2022,18-47-10,113,depth_duration_stimuli/001055_2014-06-08_18-45-35_260595134347_rgbf000111-resize_4/001055_2014-06-08_18-45-35_260595134347_rgbf000111-resize_4-target.png,250,2.4290000000000003,8,1944,247,feet,jsons/v1_VE250_randls_68_rotated.json,662798,1054857,25,Man
113,245047,DepthScenes,duration_manipulation_targetAtFixation,jsons/v1_VE250_randls_68_rotated.json,http://54.235.29.9/FacialAge/BNav_EC2/DepthDuration/v2_depth_duration_MTurk/v2_DepthDuration_HTML.html#156,156,1365,657,1366,768,8-29-2022,18-47-10,114,depth_duration_stimuli/000483_2014-06-09_20-41-45_260595134347_rgbf000116-resize_4/000483_2014-06-09_20-41-45_260595134347_rgbf000116-resize_4-target.png,250,1.337,3,2065,248,feet,jsons/v1_VE250_randls_68_rotated.json,662798,1054857,25,Man
114,245047,DepthScenes,duration_manipulation_targetAtFixation,jsons/v1_VE250_randls_68_rotated.json,http://54.235.29.9/FacialAge/BNav_EC2/DepthDuration/v2_depth_duration_MTurk/v2_DepthDuration_HTML.html#156,156,1365,657,1366,768,8-29-2022,18-47-10,115,depth_duration_stimuli/000469_2014-06-09_19-42-10_260595134347_rgbf000081-resize_1/000469_2014-06-09_19-42-10_260595134347_rgbf000081-resize_1-target.png,250,1.652,2,1741,247,feet,jsons/v1_VE250_randls_68_rotated.json,662798,1054857,25,Man
115,245047,DepthScenes,duration_manipulation_targetAtFixation,jsons/v1_VE250_randls_68_rotated.json,http://54.235.29.9/FacialAge/BNav_EC2/DepthDuration/v2_depth_duration_MTurk/v2_DepthDuration_HTML.html#156,156,1365,657,1366,768,8-29-2022,18-47-10,116,depth_duration_stimuli/000749_2014-06-08_21-55-06_260595134347_rgbf000070-resize_2/000749_2014-06-08_21-55-06_260595134347_rgbf000070-resize_2-target.png,250,2.331,2,161807,247,feet,jsons/v1_VE250_randls_68_rotated.json,662798,1054857,25,Man
116,245047,DepthScenes,duration_manipulation_targetAtFixation,jsons/v1_VE250_randls_68_rotated.json,http://54.235.29.9/FacialAge/BNav_EC2/DepthDuration/v2_depth_duration_MTurk/v2_DepthDuration_HTML.html#156,156,1365,657,1366,768,8-29-2022,18-47-10,117,depth_duration_stimuli/002788_2014-06-22_19-36-03_094959634447_rgbf000088-resize_2/002788_2014-06-22_19-36-03_094959634447_rgbf000088-resize_2-target.png,250,1.6465,5,2210,251,feet,jsons/v1_VE250_randls_68_rotated.json,662798,1054857,25,Man
117,245047,DepthScenes,duration_manipulation_targetAtFixation,jsons/v1_VE250_randls_68_rotated.json,http://54.235.29.9/FacialAge/BNav_EC2/DepthDuration/v2_depth_duration_MTurk/v2_DepthDuration_HTML.html#156,156,1365,657,1366,768,8-29-2022,18-47-10,118,depth_duration_stimuli/001032_2014-06-08_13-23-17_260595134347_rgbf000021-resize_3/001032_2014-06-08_13-23-17_260595134347_rgbf000021-resize_3-target.png,250,3.2725,6,2590,247,feet,jsons/v1_VE250_randls_68_rotated.json,662798,1054857,25,Man
118,245047,DepthScenes,duration_manipulation_targetAtFixation,jsons/v1_VE250_randls_68_rotated.json,http://54.235.29.9/FacialAge/BNav_EC2/DepthDuration/v2_depth_duration_MTurk/v2_DepthDuration_HTML.html#156,156,1365,657,1366,768,8-29-2022,18-47-10,119,depth_duration_stimuli/001059_2014-06-08_21-53-27_260595134347_rgbf000061-resize_4/001059_2014-06-08_21-53-27_260595134347_rgbf000061-resize_4-target.png,250,2.4185,4,2159,249,feet,jsons/v1_VE250_randls_68_rotated.json,662798,1054857,25,Man
119,245047,DepthScenes,duration_manipulation_targetAtFixation,jsons/v1_VE250_randls_68_rotated.json,http://54.235.29.9/FacialAge/BNav_EC2/DepthDuration/v2_depth_duration_MTurk/v2_DepthDuration_HTML.html#156,156,1365,657,1366,768,8-29-2022,18-47-10,120,depth_duration_stimuli/000787_2014-06-08_22-33-53_260595134347_rgbf000175-resize_1/000787_2014-06-08_22-33-53_260595134347_rgbf000175-resize-original.jpg,250,4.784,0,1789,247,feet,jsons/v1_VE250_randls_68_rotated.json,662798,1054857,25,Man
120,245047,DepthScenes,duration_manipulation_targetAtFixation,jsons/v1_VE250_randls_68_rotated.json,http://54.235.29.9/FacialAge/BNav_EC2/DepthDuration/v2_depth_duration_MTurk/v2_DepthDuration_HTML.html#156,156,1365,657,1366,768,8-29-2022,18-47-10,121,depth_duration_stimuli/002209_2014-06-28_18-36-10_260595134347_rgbf000051-resize_1/002209_2014-06-28_18-36-10_260595134347_rgbf000051-resize_1-target.png,250,2.057,5,1862,247,feet,jsons/v1_VE250_randls_68_rotated.json,662798,1054857,25,Man
121,245047,DepthScenes,duration_manipulation_targetAtFixation,jsons/v1_VE250_randls_68_rotated.json,http://54.235.29.9/FacialAge/BNav_EC2/DepthDuration/v2_depth_duration_MTurk/v2_DepthDuration_HTML.html#156,156,1365,657,1366,768,8-29-2022,18-47-10,122,depth_duration_stimuli/002763_2014-06-22_19-13-10_094959634447_rgbf000075-resize_4/002763_2014-06-22_19-13-10_094959634447_rgbf000075-resize_4-target.png,250,1.68375,6,1848,248,feet,jsons/v1_VE250_randls_68_rotated.json,662798,1054857,25,Man
122,245047,DepthScenes,duration_manipulation_targetAtFixation,jsons/v1_VE250_randls_68_rotated.json,http://54.235.29.9/FacialAge/BNav_EC2/DepthDuration/v2_depth_duration_MTurk/v2_DepthDuration_HTML.html#156,156,1365,657,1366,768,8-29-2022,18-47-10,123,depth_duration_stimuli/001235_2014-06-17_16-37-36_260595134347_rgbf000084-resize_4/001235_2014-06-17_16-37-36_260595134347_rgbf000084-resize_4-target.png,250,3.6605,7,1949,248,feet,jsons/v1_VE250_randls_68_rotated.json,662798,1054857,25,Man
123,245047,DepthScenes,duration_manipulation_targetAtFixation,jsons/v1_VE250_randls_68_rotated.json,http://54.235.29.9/FacialAge/BNav_EC2/DepthDuration/v2_depth_duration_MTurk/v2_DepthDuration_HTML.html#156,156,1365,657,1366,768,8-29-2022,18-47-10,124,depth_duration_stimuli/000788_2014-06-08_22-34-36_260595134347_rgbf000131-resize_1/000788_2014-06-08_22-34-36_260595134347_rgbf000131-resize_1-target.png,250,3.359,5,1961,247,feet,jsons/v1_VE250_randls_68_rotated.json,662798,1054857,25,Man
124,245047,DepthScenes,duration_manipulation_targetAtFixation,jsons/v1_VE250_randls_68_rotated.json,http://54.235.29.9/FacialAge/BNav_EC2/DepthDuration/v2_depth_duration_MTurk/v2_DepthDuration_HTML.html#156,156,1365,657,1366,768,8-29-2022,18-47-10,125,depth_duration_stimuli/002425_2014-06-28_20-27-29_260595134347_rgbf000031-resize_8/002425_2014-06-28_20-27-29_260595134347_rgbf000031-resize_8-target.png,250,3.8960000000000004,6,2094,248,feet,jsons/v1_VE250_randls_68_rotated.json,662798,1054857,25,Man
125,245047,DepthScenes,duration_manipulation_targetAtFixation,jsons/v1_VE250_randls_68_rotated.json,http://54.235.29.9/FacialAge/BNav_EC2/DepthDuration/v2_depth_duration_MTurk/v2_DepthDuration_HTML.html#156,156,1365,657,1366,768,8-29-2022,18-47-10,126,depth_duration_stimuli/000642_2014-06-08_16-59-25_260595134347_rgbf000098-resize_2/000642_2014-06-08_16-59-25_260595134347_rgbf000098-resize_2-target.png,250,2.8815,5,2052,249,feet,jsons/v1_VE250_randls_68_rotated.json,662798,1054857,25,Man
126,245047,DepthScenes,duration_manipulation_targetAtFixation,jsons/v1_VE250_randls_68_rotated.json,http://54.235.29.9/FacialAge/BNav_EC2/DepthDuration/v2_depth_duration_MTurk/v2_DepthDuration_HTML.html#156,156,1365,657,1366,768,8-29-2022,18-47-10,127,depth_duration_stimuli/001828_2014-06-26_21-40-03_260595134347_rgbf000024-resize_0/001828_2014-06-26_21-40-03_260595134347_rgbf000024-resize_0-target.png,250,4.8260000000000005,7,2015,247,feet,jsons/v1_VE250_randls_68_rotated.json,662798,1054857,25,Man
127,245047,DepthScenes,duration_manipulation_targetAtFixation,jsons/v1_VE250_randls_68_rotated.json,http://54.235.29.9/FacialAge/BNav_EC2/DepthDuration/v2_depth_duration_MTurk/v2_DepthDuration_HTML.html#156,156,1365,657,1366,768,8-29-2022,18-47-10,128,depth_duration_stimuli/000009_2014-05-26_14-32-05_260595134347_rgbf000034-resize_3/000009_2014-05-26_14-32-05_260595134347_rgbf000034-resize_3-target.png,250,3.8715,9,1935,249,feet,jsons/v1_VE250_randls_68_rotated.json,662798,1054857,25,Man
128,245047,DepthScenes,duration_manipulation_targetAtFixation,jsons/v1_VE250_randls_68_rotated.json,http://54.235.29.9/FacialAge/BNav_EC2/DepthDuration/v2_depth_duration_MTurk/v2_DepthDuration_HTML.html#156,156,1365,657,1366,768,8-29-2022,18-47-10,129,depth_duration_stimuli/000780_2014-06-08_22-28-29_260595134347_rgbf000126-resize_1/000780_2014-06-08_22-28-29_260595134347_rgbf000126-resize_1-target.png,250,3.3825,6,2105,249,feet,jsons/v1_VE250_randls_68_rotated.json,662798,1054857,25,Man
129,245047,DepthScenes,duration_manipulation_targetAtFixation,jsons/v1_VE250_randls_68_rotated.json,http://54.235.29.9/FacialAge/BNav_EC2/DepthDuration/v2_depth_duration_MTurk/v2_DepthDuration_HTML.html#156,156,1365,657,1366,768,8-29-2022,18-47-10,130,depth_duration_stimuli/002445_2014-06-28_20-32-16_260595134347_rgbf000029-resize_4/002445_2014-06-28_20-32-16_260595134347_rgbf000029-resize_4-target.png,250,2.5315,4,1920,248,feet,jsons/v1_VE250_randls_68_rotated.json,662798,1054857,25,Man
130,245047,DepthScenes,duration_manipulation_targetAtFixation,jsons/v1_VE250_randls_68_rotated.json,http://54.235.29.9/FacialAge/BNav_EC2/DepthDuration/v2_depth_duration_MTurk/v2_DepthDuration_HTML.html#156,156,1365,657,1366,768,8-29-2022,18-47-10,131,depth_duration_stimuli/003423_2014-05-21_10-23-26_094959634447_rgbf002665-resize_2/003423_2014-05-21_10-23-26_094959634447_rgbf002665-resize_2-target.png,250,3.2575,6,1967,248,feet,jsons/v1_VE250_randls_68_rotated.json,662798,1054857,25,Man
131,245047,DepthScenes,duration_manipulation_targetAtFixation,jsons/v1_VE250_randls_68_rotated.json,http://54.235.29.9/FacialAge/BNav_EC2/DepthDuration/v2_depth_duration_MTurk/v2_DepthDuration_HTML.html#156,156,1365,657,1366,768,8-29-2022,18-47-10,132,depth_duration_stimuli/002905_2014-06-03_18-04-43_094959634447_rgbf000151-resize_2/002905_2014-06-03_18-04-43_094959634447_rgbf000151-resize_2-target.png,250,2.0295,3,2130,248,feet,jsons/v1_VE250_randls_68_rotated.json,662798,1054857,25,Man
132,245047,DepthScenes,duration_manipulation_targetAtFixation,jsons/v1_VE250_randls_68_rotated.json,http://54.235.29.9/FacialAge/BNav_EC2/DepthDuration/v2_depth_duration_MTurk/v2_DepthDuration_HTML.html#156,156,1365,657,1366,768,8-29-2022,18-47-10,133,depth_duration_stimuli/001450_2014-06-19_17-02-03_260595134347_rgbf000203-resize_4/001450_2014-06-19_17-02-03_260595134347_rgbf000203-resize_4-target.png,250,4.0106666666667,6,2372,246,feet,jsons/v1_VE250_randls_68_rotated.json,662798,1054857,25,Man
133,245047,DepthScenes,duration_manipulation_targetAtFixation,jsons/v1_VE250_randls_68_rotated.json,http://54.235.29.9/FacialAge/BNav_EC2/DepthDuration/v2_depth_duration_MTurk/v2_DepthDuration_HTML.html#156,156,1365,657,1366,768,8-29-2022,18-47-10,134,depth_duration_stimuli/001449_2014-06-19_17-01-27_260595134347_rgbf000116-resize_2/001449_2014-06-19_17-01-27_260595134347_rgbf000116-resize_2-target.png,250,3.452,7,2107,254,feet,jsons/v1_VE250_randls_68_rotated.json,662798,1054857,25,Man
134,245047,DepthScenes,duration_manipulation_targetAtFixation,jsons/v1_VE250_randls_68_rotated.json,http://54.235.29.9/FacialAge/BNav_EC2/DepthDuration/v2_depth_duration_MTurk/v2_DepthDuration_HTML.html#156,156,1365,657,1366,768,8-29-2022,18-47-10,135,depth_duration_stimuli/000375_2014-06-08_11-17-29_260595134347_rgbf000133-resize_2/000375_2014-06-08_11-17-29_260595134347_rgbf000133-resize-original.jpg,250,4.718,0,2031,247,feet,jsons/v1_VE250_randls_68_rotated.json,662798,1054857,25,Man
135,245047,DepthScenes,duration_manipulation_targetAtFixation,jsons/v1_VE250_randls_68_rotated.json,http://54.235.29.9/FacialAge/BNav_EC2/DepthDuration/v2_depth_duration_MTurk/v2_DepthDuration_HTML.html#156,156,1365,657,1366,768,8-29-2022,18-47-10,136,depth_duration_stimuli/001392_2014-06-19_16-07-59_260595134347_rgbf000046-resize_1/001392_2014-06-19_16-07-59_260595134347_rgbf000046-resize_1-target.png,250,4.135,8,2076,244,feet,jsons/v1_VE250_randls_68_rotated.json,662798,1054857,25,Man
136,245047,DepthScenes,duration_manipulation_targetAtFixation,jsons/v1_VE250_randls_68_rotated.json,http://54.235.29.9/FacialAge/BNav_EC2/DepthDuration/v2_depth_duration_MTurk/v2_DepthDuration_HTML.html#156,156,1365,657,1366,768,8-29-2022,18-47-10,137,depth_duration_stimuli/001570_2014-06-20_17-21-09_260595134347_rgbf000135-resize_4/001570_2014-06-20_17-21-09_260595134347_rgbf000135-resize_4-target.png,250,4.467,8,2012,246,feet,jsons/v1_VE250_randls_68_rotated.json,662798,1054857,25,Man
137,245047,DepthScenes,duration_manipulation_targetAtFixation,jsons/v1_VE250_randls_68_rotated.json,http://54.235.29.9/FacialAge/BNav_EC2/DepthDuration/v2_depth_duration_MTurk/v2_DepthDuration_HTML.html#156,156,1365,657,1366,768,8-29-2022,18-47-10,138,depth_duration_stimuli/002750_2014-06-22_19-08-03_094959634447_rgbf000094-resize_4/002750_2014-06-22_19-08-03_094959634447_rgbf000094-resize_4-target.png,250,2.354,7,2078,240,feet,jsons/v1_VE250_randls_68_rotated.json,662798,1054857,25,Man
138,245047,DepthScenes,duration_manipulation_targetAtFixation,jsons/v1_VE250_randls_68_rotated.json,http://54.235.29.9/FacialAge/BNav_EC2/DepthDuration/v2_depth_duration_MTurk/v2_DepthDuration_HTML.html#156,156,1365,657,1366,768,8-29-2022,18-47-10,139,depth_duration_stimuli/002549_2014-06-24_13-41-39_094959634447_rgbf000022-resize_3/002549_2014-06-24_13-41-39_094959634447_rgbf000022-resize_3-target.png,250,1.476,3,2127,252,feet,jsons/v1_VE250_randls_68_rotated.json,662798,1054857,25,Man
139,245047,DepthScenes,duration_manipulation_targetAtFixation,jsons/v1_VE250_randls_68_rotated.json,http://54.235.29.9/FacialAge/BNav_EC2/DepthDuration/v2_depth_duration_MTurk/v2_DepthDuration_HTML.html#156,156,1365,657,1366,768,8-29-2022,18-47-10,140,depth_duration_stimuli/002805_2014-06-22_19-54-03_094959634447_rgbf000079-resize_1/002805_2014-06-22_19-54-03_094959634447_rgbf000079-resize_1-target.png,250,3.1439999999999997,6,1917,247,feet,jsons/v1_VE250_randls_68_rotated.json,662798,1054857,25,Man
140,245047,DepthScenes,duration_manipulation_targetAtFixation,jsons/v1_VE250_randls_68_rotated.json,http://54.235.29.9/FacialAge/BNav_EC2/DepthDuration/v2_depth_duration_MTurk/v2_DepthDuration_HTML.html#156,156,1365,657,1366,768,8-29-2022,18-47-10,141,depth_duration_stimuli/000906_2014-06-08_13-35-43_260595134347_rgbf000155-resize_1/000906_2014-06-08_13-35-43_260595134347_rgbf000155-resize_1-target.png,250,2.8489999999999998,7,1833,244,feet,jsons/v1_VE250_randls_68_rotated.json,662798,1054857,25,Man
141,245047,DepthScenes,duration_manipulation_targetAtFixation,jsons/v1_VE250_randls_68_rotated.json,http://54.235.29.9/FacialAge/BNav_EC2/DepthDuration/v2_depth_duration_MTurk/v2_DepthDuration_HTML.html#156,156,1365,657,1366,768,8-29-2022,18-47-10,142,depth_duration_stimuli/001815_2014-06-26_20-52-55_260595134347_rgbf000020-resize_0/001815_2014-06-26_20-52-55_260595134347_rgbf000020-resize_0-target.png,250,3.3865,8,1942,247,feet,jsons/v1_VE250_randls_68_rotated.json,662798,1054857,25,Man
142,245047,DepthScenes,duration_manipulation_targetAtFixation,jsons/v1_VE250_randls_68_rotated.json,http://54.235.29.9/FacialAge/BNav_EC2/DepthDuration/v2_depth_duration_MTurk/v2_DepthDuration_HTML.html#156,156,1365,657,1366,768,8-29-2022,18-47-10,143,depth_duration_stimuli/001808_2014-06-26_20-50-58_260595134347_rgbf000029-resize_1/001808_2014-06-26_20-50-58_260595134347_rgbf000029-resize_1-target.png,250,4.249,8,1838,247,feet,jsons/v1_VE250_randls_68_rotated.json,662798,1054857,25,Man
143,245047,DepthScenes,duration_manipulation_targetAtFixation,jsons/v1_VE250_randls_68_rotated.json,http://54.235.29.9/FacialAge/BNav_EC2/DepthDuration/v2_depth_duration_MTurk/v2_DepthDuration_HTML.html#156,156,1365,657,1366,768,8-29-2022,18-47-10,144,depth_duration_stimuli/000191_2014-05-12_17-07-38_260595134347_rgbf000199-resize_0/000191_2014-05-12_17-07-38_260595134347_rgbf000199-resize_0-target.png,250,3.7995,9,1927,256,feet,jsons/v1_VE250_randls_68_rotated.json,662798,1054857,25,Man
144,245047,DepthScenes,duration_manipulation_targetAtFixation,jsons/v1_VE250_randls_68_rotated.json,http://54.235.29.9/FacialAge/BNav_EC2/DepthDuration/v2_depth_duration_MTurk/v2_DepthDuration_HTML.html#156,156,1365,657,1366,768,8-29-2022,18-47-10,145,depth_duration_stimuli/000493_2014-06-09_21-01-18_260595134347_rgbf000196-resize_3/000493_2014-06-09_21-01-18_260595134347_rgbf000196-resize_3-target.png,250,3.44,8,2110,250,feet,jsons/v1_VE250_randls_68_rotated.json,662798,1054857,25,Man
145,245047,DepthScenes,duration_manipulation_targetAtFixation,jsons/v1_VE250_randls_68_rotated.json,http://54.235.29.9/FacialAge/BNav_EC2/DepthDuration/v2_depth_duration_MTurk/v2_DepthDuration_HTML.html#156,156,1365,657,1366,768,8-29-2022,18-47-10,146,depth_duration_stimuli/000502_2014-06-08_23-02-32_260595134347_rgbf000063-resize_4/000502_2014-06-08_23-02-32_260595134347_rgbf000063-resize_4-target.png,250,2.431,4,1944,247,feet,jsons/v1_VE250_randls_68_rotated.json,662798,1054857,25,Man
146,245047,DepthScenes,duration_manipulation_targetAtFixation,jsons/v1_VE250_randls_68_rotated.json,http://54.235.29.9/FacialAge/BNav_EC2/DepthDuration/v2_depth_duration_MTurk/v2_DepthDuration_HTML.html#156,156,1365,657,1366,768,8-29-2022,18-47-10,147,depth_duration_stimuli/001199_2014-06-17_16-03-48_260595134347_rgbf000077-resize_0/001199_2014-06-17_16-03-48_260595134347_rgbf000077-resize_0-target.png,250,3.4375,6,2024,251,feet,jsons/v1_VE250_randls_68_rotated.json,662798,1054857,25,Man
147,245047,DepthScenes,duration_manipulation_targetAtFixation,jsons/v1_VE250_randls_68_rotated.json,http://54.235.29.9/FacialAge/BNav_EC2/DepthDuration/v2_depth_duration_MTurk/v2_DepthDuration_HTML.html#156,156,1365,657,1366,768,8-29-2022,18-47-10,148,depth_duration_stimuli/000709_2014-06-08_13-51-55_260595134347_rgbf000068-resize_3/000709_2014-06-08_13-51-55_260595134347_rgbf000068-resize_3-target.png,250,1.8030000000000002,7,1966,252,feet,jsons/v1_VE250_randls_68_rotated.json,662798,1054857,25,Man
148,245047,DepthScenes,duration_manipulation_targetAtFixation,jsons/v1_VE250_randls_68_rotated.json,http://54.235.29.9/FacialAge/BNav_EC2/DepthDuration/v2_depth_duration_MTurk/v2_DepthDuration_HTML.html#156,156,1365,657,1366,768,8-29-2022,18-47-10,149,depth_duration_stimuli/002057_2014-06-24_21-00-13_260595134347_rgbf000120-resize_1/002057_2014-06-24_21-00-13_260595134347_rgbf000120-resize_1-target.png,250,2.967,8,1937,255,feet,jsons/v1_VE250_randls_68_rotated.json,662798,1054857,25,Man
149,245047,DepthScenes,duration_manipulation_targetAtFixation,jsons/v1_VE250_randls_68_rotated.json,http://54.235.29.9/FacialAge/BNav_EC2/DepthDuration/v2_depth_duration_MTurk/v2_DepthDuration_HTML.html#156,156,1365,657,1366,768,8-29-2022,18-47-10,150,depth_duration_stimuli/001136_2014-06-17_15-19-41_260595134347_rgbf000076-resize_3/001136_2014-06-17_15-19-41_260595134347_rgbf000076-resize_3-target.png,250,1.8655,8,2000,256,feet,jsons/v1_VE250_randls_68_rotated.json,662798,1054857,25,Man
150,245047,DepthScenes,duration_manipulation_targetAtFixation,jsons/v1_VE250_randls_68_rotated.json,http://54.235.29.9/FacialAge/BNav_EC2/DepthDuration/v2_depth_duration_MTurk/v2_DepthDuration_HTML.html#156,156,1365,657,1366,768,8-29-2022,18-47-10,151,depth_duration_stimuli/001164_2014-06-17_15-35-46_260595134347_rgbf000085-resize_3/001164_2014-06-17_15-35-46_260595134347_rgbf000085-resize_3-target.png,250,2.354,8,1908,239,feet,jsons/v1_VE250_randls_68_rotated.json,662798,1054857,25,Man
151,245047,DepthScenes,duration_manipulation_targetAtFixation,jsons/v1_VE250_randls_68_rotated.json,http://54.235.29.9/FacialAge/BNav_EC2/DepthDuration/v2_depth_duration_MTurk/v2_DepthDuration_HTML.html#156,156,1365,657,1366,768,8-29-2022,18-47-10,152,depth_duration_stimuli/000569_2014-06-09_22-51-47_260595134347_rgbf000141-resize_3/000569_2014-06-09_22-51-47_260595134347_rgbf000141-resize-original.jpg,250,4.512,0,1657,252,feet,jsons/v1_VE250_randls_68_rotated.json,662798,1054857,25,Man
152,245047,DepthScenes,duration_manipulation_targetAtFixation,jsons/v1_VE250_randls_68_rotated.json,http://54.235.29.9/FacialAge/BNav_EC2/DepthDuration/v2_depth_duration_MTurk/v2_DepthDuration_HTML.html#156,156,1365,657,1366,768,8-29-2022,18-47-10,153,depth_duration_stimuli/003081_2014-06-15_15-19-16_094959634447_rgbf000150-resize_1/003081_2014-06-15_15-19-16_094959634447_rgbf000150-resize_1-target.png,250,3.9125,7,2341,249,feet,jsons/v1_VE250_randls_68_rotated.json,662798,1054857,25,Man
153,245047,DepthScenes,duration_manipulation_targetAtFixation,jsons/v1_VE250_randls_68_rotated.json,http://54.235.29.9/FacialAge/BNav_EC2/DepthDuration/v2_depth_duration_MTurk/v2_DepthDuration_HTML.html#156,156,1365,657,1366,768,8-29-2022,18-47-10,154,depth_duration_stimuli/001417_2014-06-19_16-25-36_260595134347_rgbf000115-resize_5/001417_2014-06-19_16-25-36_260595134347_rgbf000115-resize_5-target.png,250,4.6255,8,2094,248,feet,jsons/v1_VE250_randls_68_rotated.json,662798,1054857,25,Man
154,245047,DepthScenes,duration_manipulation_targetAtFixation,jsons/v1_VE250_randls_68_rotated.json,http://54.235.29.9/FacialAge/BNav_EC2/DepthDuration/v2_depth_duration_MTurk/v2_DepthDuration_HTML.html#156,156,1365,657,1366,768,8-29-2022,18-47-10,155,depth_duration_stimuli/000854_2014-06-09_19-43-13_260595134347_rgbf000066-resize_0/000854_2014-06-09_19-43-13_260595134347_rgbf000066-resize_0-target.png,250,3.068,4,1974,250,feet,jsons/v1_VE250_randls_68_rotated.json,662798,1054857,25,Man
155,245047,DepthScenes,duration_manipulation_targetAtFixation,jsons/v1_VE250_randls_68_rotated.json,http://54.235.29.9/FacialAge/BNav_EC2/DepthDuration/v2_depth_duration_MTurk/v2_DepthDuration_HTML.html#156,156,1365,657,1366,768,8-29-2022,18-47-10,156,depth_duration_stimuli/000758_2014-06-08_22-05-08_260595134347_rgbf000085-resize_0/000758_2014-06-08_22-05-08_260595134347_rgbf000085-resize_0-target.png,250,3.3810000000000002,7,1917,249,feet,jsons/v1_VE250_randls_68_rotated.json,662798,1054857,25,Man
156,245047,DepthScenes,duration_manipulation_targetAtFixation,jsons/v1_VE250_randls_68_rotated.json,http://54.235.29.9/FacialAge/BNav_EC2/DepthDuration/v2_depth_duration_MTurk/v2_DepthDuration_HTML.html#156,156,1365,657,1366,768,8-29-2022,18-47-10,157,depth_duration_stimuli/003010_2014-06-15_12-54-35_094959634447_rgbf000112-resize_0/003010_2014-06-15_12-54-35_094959634447_rgbf000112-resize_0-target.png,250,3.1185,8,1973,245,feet,jsons/v1_VE250_randls_68_rotated.json,662798,1054857,25,Man
157,245047,DepthScenes,duration_manipulation_targetAtFixation,jsons/v1_VE250_randls_68_rotated.json,http://54.235.29.9/FacialAge/BNav_EC2/DepthDuration/v2_depth_duration_MTurk/v2_DepthDuration_HTML.html#156,156,1365,657,1366,768,8-29-2022,18-47-10,158,depth_duration_stimuli/001810_2014-06-26_20-51-35_260595134347_rgbf000040-resize_3/001810_2014-06-26_20-51-35_260595134347_rgbf000040-resize_3-target.png,250,2.2525,5,2056,258,feet,jsons/v1_VE250_randls_68_rotated.json,662798,1054857,25,Man
158,245047,DepthScenes,duration_manipulation_targetAtFixation,jsons/v1_VE250_randls_68_rotated.json,http://54.235.29.9/FacialAge/BNav_EC2/DepthDuration/v2_depth_duration_MTurk/v2_DepthDuration_HTML.html#156,156,1365,657,1366,768,8-29-2022,18-47-10,159,depth_duration_stimuli/000943_2014-06-09_19-31-07_260595134347_rgbf000128-resize_1/000943_2014-06-09_19-31-07_260595134347_rgbf000128-resize_1-target.png,250,1.9765,4,1957,238,feet,jsons/v1_VE250_randls_68_rotated.json,662798,1054857,25,Man
159,245047,DepthScenes,duration_manipulation_targetAtFixation,jsons/v1_VE250_randls_68_rotated.json,http://54.235.29.9/FacialAge/BNav_EC2/DepthDuration/v2_depth_duration_MTurk/v2_DepthDuration_HTML.html#156,156,1365,657,1366,768,8-29-2022,18-47-10,160,depth_duration_stimuli/003070_2014-06-15_14-58-27_094959634447_rgbf000150-resize_3/003070_2014-06-15_14-58-27_094959634447_rgbf000150-resize_3-target.png,250,2.9415,6,1821,236,feet,jsons/v1_VE250_randls_68_rotated.json,662798,1054857,25,Man
160,245047,DepthScenes,duration_manipulation_targetAtFixation,jsons/v1_VE250_randls_68_rotated.json,http://54.235.29.9/FacialAge/BNav_EC2/DepthDuration/v2_depth_duration_MTurk/v2_DepthDuration_HTML.html#156,156,1365,657,1366,768,8-29-2022,18-47-10,161,depth_duration_stimuli/003587_2014-05-23_16-48-02_094959634447_rgbf002384-resize_2/003587_2014-05-23_16-48-02_094959634447_rgbf002384-resize_2-target.png,250,1.357,3,1973,255,feet,jsons/v1_VE250_randls_68_rotated.json,662798,1054857,25,Man
161,245047,DepthScenes,duration_manipulation_targetAtFixation,jsons/v1_VE250_randls_68_rotated.json,http://54.235.29.9/FacialAge/BNav_EC2/DepthDuration/v2_depth_duration_MTurk/v2_DepthDuration_HTML.html#156,156,1365,657,1366,768,8-29-2022,18-47-10,162,depth_duration_stimuli/001167_2014-06-17_15-38-07_260595134347_rgbf000108-resize_0/001167_2014-06-17_15-38-07_260595134347_rgbf000108-resize_0-target.png,250,1.8505,3,1698,259,feet,jsons/v1_VE250_randls_68_rotated.json,662798,1054857,25,Man
162,245047,DepthScenes,duration_manipulation_targetAtFixation,jsons/v1_VE250_randls_68_rotated.json,http://54.235.29.9/FacialAge/BNav_EC2/DepthDuration/v2_depth_duration_MTurk/v2_DepthDuration_HTML.html#156,156,1365,657,1366,768,8-29-2022,18-47-10,163,depth_duration_stimuli/002949_2014-06-26_15-57-42_094959634447_rgbf000079-resize_1/002949_2014-06-26_15-57-42_094959634447_rgbf000079-resize_1-target.png,250,1.8915,2,1917,249,feet,jsons/v1_VE250_randls_68_rotated.json,662798,1054857,25,Man
163,245047,DepthScenes,duration_manipulation_targetAtFixation,jsons/v1_VE250_randls_68_rotated.json,http://54.235.29.9/FacialAge/BNav_EC2/DepthDuration/v2_depth_duration_MTurk/v2_DepthDuration_HTML.html#156,156,1365,657,1366,768,8-29-2022,18-47-10,164,depth_duration_stimuli/000522_2014-06-08_13-35-06_260595134347_rgbf000244-resize_1/000522_2014-06-08_13-35-06_260595134347_rgbf000244-resize_1-target.png,250,2.3715,2,2270,258,feet,jsons/v1_VE250_randls_68_rotated.json,662798,1054857,25,Man
