,subjID,experimentName,versionName,sequenceName,url,selected_row,windowWidth,windowHeight,screenWidth,screenHeight,startDate,startTime,trial,stimulus,duration,actual_depth,depth_estimate,trial_RT,log_sceneDuration,unitSelection,seq_filepath,experimentTime,totalTime,age,gender
0,245150,DepthScenes,duration_manipulation_targetAtFixation,jsons/VE125_randls_22_rotated.json,http://54.235.29.9/FacialAge/BNav_EC2/DepthDuration/v2_depth_duration_MTurk/v2_DepthDuration_HTML.html#119,119,1366,657,1366,768,8-30-2022,11-26-37,1,depth_duration_stimuli/002545_2014-06-24_13-38-53_094959634447_rgbf000080-resize_4/002545_2014-06-24_13-38-53_094959634447_rgbf000080-resize_4-target.png,125,1.9205,2,4688,235,meters,jsons/VE125_randls_22_rotated.json,1031725,1350866,65,Woman
1,245150,DepthScenes,duration_manipulation_targetAtFixation,jsons/VE125_randls_22_rotated.json,http://54.235.29.9/FacialAge/BNav_EC2/DepthDuration/v2_depth_duration_MTurk/v2_DepthDuration_HTML.html#119,119,1366,657,1366,768,8-30-2022,11-26-37,2,depth_duration_stimuli/001092_2014-06-15_17-34-58_260595134347_rgbf000171-resize_3/001092_2014-06-15_17-34-58_260595134347_rgbf000171-resize_3-target.png,125,2.6935,3,42768,123,meters,jsons/VE125_randls_22_rotated.json,1031725,1350866,65,Woman
2,245150,DepthScenes,duration_manipulation_targetAtFixation,jsons/VE125_randls_22_rotated.json,http://54.235.29.9/FacialAge/BNav_EC2/DepthDuration/v2_depth_duration_MTurk/v2_DepthDuration_HTML.html#119,119,1366,657,1366,768,8-30-2022,11-26-37,3,depth_duration_stimuli/002678_2014-06-13_16-15-32_094959634447_rgbf000151-resize_6/002678_2014-06-13_16-15-32_094959634447_rgbf000151-resize_6-target.png,125,2.1830000000000003,4,8269,125,meters,jsons/VE125_randls_22_rotated.json,1031725,1350866,65,Woman
3,245150,DepthScenes,duration_manipulation_targetAtFixation,jsons/VE125_randls_22_rotated.json,http://54.235.29.9/FacialAge/BNav_EC2/DepthDuration/v2_depth_duration_MTurk/v2_DepthDuration_HTML.html#119,119,1366,657,1366,768,8-30-2022,11-26-37,4,depth_duration_stimuli/000368_2014-06-09_15-53-01_260595134347_rgbf000155-resize_2/000368_2014-06-09_15-53-01_260595134347_rgbf000155-resize_2-target.png,125,2.4859999999999998,3,27825,122,meters,jsons/VE125_randls_22_rotated.json,1031725,1350866,65,Woman
4,245150,DepthScenes,duration_manipulation_targetAtFixation,jsons/VE125_randls_22_rotated.json,http://54.235.29.9/FacialAge/BNav_EC2/DepthDuration/v2_depth_duration_MTurk/v2_DepthDuration_HTML.html#119,119,1366,657,1366,768,8-30-2022,11-26-37,5,depth_duration_stimuli/001571_2014-06-20_17-21-32_260595134347_rgbf000089-resize_1/001571_2014-06-20_17-21-32_260595134347_rgbf000089-resize_1-target.png,125,1.86,0,4618,113,meters,jsons/VE125_randls_22_rotated.json,1031725,1350866,65,Woman
5,245150,DepthScenes,duration_manipulation_targetAtFixation,jsons/VE125_randls_22_rotated.json,http://54.235.29.9/FacialAge/BNav_EC2/DepthDuration/v2_depth_duration_MTurk/v2_DepthDuration_HTML.html#119,119,1366,657,1366,768,8-30-2022,11-26-37,6,depth_duration_stimuli/002272_2014-06-28_18-53-56_260595134347_rgbf000067-resize_2/002272_2014-06-28_18-53-56_260595134347_rgbf000067-resize_2-target.png,125,1.138,2,10408,115,meters,jsons/VE125_randls_22_rotated.json,1031725,1350866,65,Woman
6,245150,DepthScenes,duration_manipulation_targetAtFixation,jsons/VE125_randls_22_rotated.json,http://54.235.29.9/FacialAge/BNav_EC2/DepthDuration/v2_depth_duration_MTurk/v2_DepthDuration_HTML.html#119,119,1366,657,1366,768,8-30-2022,11-26-37,7,depth_duration_stimuli/002414_2014-06-28_20-24-58_260595134347_rgbf000067-resize_4/002414_2014-06-28_20-24-58_260595134347_rgbf000067-resize_4-target.png,125,4.363,0,3850,109,meters,jsons/VE125_randls_22_rotated.json,1031725,1350866,65,Woman
7,245150,DepthScenes,duration_manipulation_targetAtFixation,jsons/VE125_randls_22_rotated.json,http://54.235.29.9/FacialAge/BNav_EC2/DepthDuration/v2_depth_duration_MTurk/v2_DepthDuration_HTML.html#119,119,1366,657,1366,768,8-30-2022,11-26-37,8,depth_duration_stimuli/000773_2014-06-08_22-24-54_260595134347_rgbf000093-resize_1/000773_2014-06-08_22-24-54_260595134347_rgbf000093-resize_1-target.png,125,4.973,0,3169,112,meters,jsons/VE125_randls_22_rotated.json,1031725,1350866,65,Woman
8,245150,DepthScenes,duration_manipulation_targetAtFixation,jsons/VE125_randls_22_rotated.json,http://54.235.29.9/FacialAge/BNav_EC2/DepthDuration/v2_depth_duration_MTurk/v2_DepthDuration_HTML.html#119,119,1366,657,1366,768,8-30-2022,11-26-37,9,depth_duration_stimuli/000556_2014-06-09_22-42-56_260595134347_rgbf000214-resize_1/000556_2014-06-09_22-42-56_260595134347_rgbf000214-resize_1-target.png,125,4.8415,3,4552,124,meters,jsons/VE125_randls_22_rotated.json,1031725,1350866,65,Woman
9,245150,DepthScenes,duration_manipulation_targetAtFixation,jsons/VE125_randls_22_rotated.json,http://54.235.29.9/FacialAge/BNav_EC2/DepthDuration/v2_depth_duration_MTurk/v2_DepthDuration_HTML.html#119,119,1366,657,1366,768,8-30-2022,11-26-37,10,depth_duration_stimuli/001158_2014-06-17_15-32-16_260595134347_rgbf000138-resize_2/001158_2014-06-17_15-32-16_260595134347_rgbf000138-resize_2-target.png,125,4.5315,3,5815,123,meters,jsons/VE125_randls_22_rotated.json,1031725,1350866,65,Woman
10,245150,DepthScenes,duration_manipulation_targetAtFixation,jsons/VE125_randls_22_rotated.json,http://54.235.29.9/FacialAge/BNav_EC2/DepthDuration/v2_depth_duration_MTurk/v2_DepthDuration_HTML.html#119,119,1366,657,1366,768,8-30-2022,11-26-37,11,depth_duration_stimuli/001132_2014-06-17_14-48-54_260595134347_rgbf000100-resize_2/001132_2014-06-17_14-48-54_260595134347_rgbf000100-resize_2-target.png,125,3.753,2,8941,149,meters,jsons/VE125_randls_22_rotated.json,1031725,1350866,65,Woman
11,245150,DepthScenes,duration_manipulation_targetAtFixation,jsons/VE125_randls_22_rotated.json,http://54.235.29.9/FacialAge/BNav_EC2/DepthDuration/v2_depth_duration_MTurk/v2_DepthDuration_HTML.html#119,119,1366,657,1366,768,8-30-2022,11-26-37,12,depth_duration_stimuli/001133_2014-06-17_14-49-16_260595134347_rgbf000100-resize_0/001133_2014-06-17_14-49-16_260595134347_rgbf000100-resize_0-target.png,125,4.2115,2,3779,125,meters,jsons/VE125_randls_22_rotated.json,1031725,1350866,65,Woman
12,245150,DepthScenes,duration_manipulation_targetAtFixation,jsons/VE125_randls_22_rotated.json,http://54.235.29.9/FacialAge/BNav_EC2/DepthDuration/v2_depth_duration_MTurk/v2_DepthDuration_HTML.html#119,119,1366,657,1366,768,8-30-2022,11-26-37,13,depth_duration_stimuli/001100_2014-06-15_17-46-26_260595134347_rgbf000225-resize_2/001100_2014-06-15_17-46-26_260595134347_rgbf000225-resize_2-target.png,125,2.24,5,5213,124,meters,jsons/VE125_randls_22_rotated.json,1031725,1350866,65,Woman
13,245150,DepthScenes,duration_manipulation_targetAtFixation,jsons/VE125_randls_22_rotated.json,http://54.235.29.9/FacialAge/BNav_EC2/DepthDuration/v2_depth_duration_MTurk/v2_DepthDuration_HTML.html#119,119,1366,657,1366,768,8-30-2022,11-26-37,14,depth_duration_stimuli/002784_2014-06-22_19-26-30_094959634447_rgbf000083-resize_3/002784_2014-06-22_19-26-30_094959634447_rgbf000083-resize_3-target.png,125,1.8046666666667,2,3481,141,meters,jsons/VE125_randls_22_rotated.json,1031725,1350866,65,Woman
14,245150,DepthScenes,duration_manipulation_targetAtFixation,jsons/VE125_randls_22_rotated.json,http://54.235.29.9/FacialAge/BNav_EC2/DepthDuration/v2_depth_duration_MTurk/v2_DepthDuration_HTML.html#119,119,1366,657,1366,768,8-30-2022,11-26-37,15,depth_duration_stimuli/000927_2014-06-09_16-32-30_260595134347_rgbf000123-resize_3/000927_2014-06-09_16-32-30_260595134347_rgbf000123-resize_3-target.png,125,2.6785,1,3018,162,meters,jsons/VE125_randls_22_rotated.json,1031725,1350866,65,Woman
15,245150,DepthScenes,duration_manipulation_targetAtFixation,jsons/VE125_randls_22_rotated.json,http://54.235.29.9/FacialAge/BNav_EC2/DepthDuration/v2_depth_duration_MTurk/v2_DepthDuration_HTML.html#119,119,1366,657,1366,768,8-30-2022,11-26-37,16,depth_duration_stimuli/001110_2014-06-15_17-25-28_260595134347_rgbf000150-resize_1/001110_2014-06-15_17-25-28_260595134347_rgbf000150-resize_1-target.png,125,1.7115,4,4446,141,meters,jsons/VE125_randls_22_rotated.json,1031725,1350866,65,Woman
16,245150,DepthScenes,duration_manipulation_targetAtFixation,jsons/VE125_randls_22_rotated.json,http://54.235.29.9/FacialAge/BNav_EC2/DepthDuration/v2_depth_duration_MTurk/v2_DepthDuration_HTML.html#119,119,1366,657,1366,768,8-30-2022,11-26-37,17,depth_duration_stimuli/001052_2014-06-08_18-24-54_260595134347_rgbf000130-resize_1/001052_2014-06-08_18-24-54_260595134347_rgbf000130-resize_1-target.png,125,4.1045,5,3229,122,meters,jsons/VE125_randls_22_rotated.json,1031725,1350866,65,Woman
17,245150,DepthScenes,duration_manipulation_targetAtFixation,jsons/VE125_randls_22_rotated.json,http://54.235.29.9/FacialAge/BNav_EC2/DepthDuration/v2_depth_duration_MTurk/v2_DepthDuration_HTML.html#119,119,1366,657,1366,768,8-30-2022,11-26-37,18,depth_duration_stimuli/002988_2014-06-15_12-24-20_094959634447_rgbf000150-resize_1/002988_2014-06-15_12-24-20_094959634447_rgbf000150-resize_1-target.png,125,4.7669999999999995,4,2723,124,meters,jsons/VE125_randls_22_rotated.json,1031725,1350866,65,Woman
18,245150,DepthScenes,duration_manipulation_targetAtFixation,jsons/VE125_randls_22_rotated.json,http://54.235.29.9/FacialAge/BNav_EC2/DepthDuration/v2_depth_duration_MTurk/v2_DepthDuration_HTML.html#119,119,1366,657,1366,768,8-30-2022,11-26-37,19,depth_duration_stimuli/001498_2014-06-19_17-45-14_260595134347_rgbf000129-resize_4/001498_2014-06-19_17-45-14_260595134347_rgbf000129-resize-original.jpg,125,1.4075,4,3208,125,meters,jsons/VE125_randls_22_rotated.json,1031725,1350866,65,Woman
19,245150,DepthScenes,duration_manipulation_targetAtFixation,jsons/VE125_randls_22_rotated.json,http://54.235.29.9/FacialAge/BNav_EC2/DepthDuration/v2_depth_duration_MTurk/v2_DepthDuration_HTML.html#119,119,1366,657,1366,768,8-30-2022,11-26-37,20,depth_duration_stimuli/001650_2014-06-20_12-09-00_260595134347_rgbf000087-resize_3/001650_2014-06-20_12-09-00_260595134347_rgbf000087-resize_3-target.png,125,1.9505,2,2849,126,meters,jsons/VE125_randls_22_rotated.json,1031725,1350866,65,Woman
20,245150,DepthScenes,duration_manipulation_targetAtFixation,jsons/VE125_randls_22_rotated.json,http://54.235.29.9/FacialAge/BNav_EC2/DepthDuration/v2_depth_duration_MTurk/v2_DepthDuration_HTML.html#119,119,1366,657,1366,768,8-30-2022,11-26-37,21,depth_duration_stimuli/000682_2014-06-08_23-14-58_260595134347_rgbf000041-resize_5/000682_2014-06-08_23-14-58_260595134347_rgbf000041-resize_5-target.png,125,2.7239999999999998,2,2683,123,meters,jsons/VE125_randls_22_rotated.json,1031725,1350866,65,Woman
21,245150,DepthScenes,duration_manipulation_targetAtFixation,jsons/VE125_randls_22_rotated.json,http://54.235.29.9/FacialAge/BNav_EC2/DepthDuration/v2_depth_duration_MTurk/v2_DepthDuration_HTML.html#119,119,1366,657,1366,768,8-30-2022,11-26-37,22,depth_duration_stimuli/000742_2014-06-08_18-48-09_260595134347_rgbf000164-resize_4/000742_2014-06-08_18-48-09_260595134347_rgbf000164-resize_4-target.png,125,4.632,1,3578,123,meters,jsons/VE125_randls_22_rotated.json,1031725,1350866,65,Woman
22,245150,DepthScenes,duration_manipulation_targetAtFixation,jsons/VE125_randls_22_rotated.json,http://54.235.29.9/FacialAge/BNav_EC2/DepthDuration/v2_depth_duration_MTurk/v2_DepthDuration_HTML.html#119,119,1366,657,1366,768,8-30-2022,11-26-37,23,depth_duration_stimuli/001066_2014-06-08_22-03-20_260595134347_rgbf000066-resize_4/001066_2014-06-08_22-03-20_260595134347_rgbf000066-resize_4-target.png,125,4.2330000000000005,1,2989,113,meters,jsons/VE125_randls_22_rotated.json,1031725,1350866,65,Woman
23,245150,DepthScenes,duration_manipulation_targetAtFixation,jsons/VE125_randls_22_rotated.json,http://54.235.29.9/FacialAge/BNav_EC2/DepthDuration/v2_depth_duration_MTurk/v2_DepthDuration_HTML.html#119,119,1366,657,1366,768,8-30-2022,11-26-37,24,depth_duration_stimuli/000549_2014-06-08_22-10-24_260595134347_rgbf000247-resize_3/000549_2014-06-08_22-10-24_260595134347_rgbf000247-resize_3-target.png,125,1.841,2,3412,124,meters,jsons/VE125_randls_22_rotated.json,1031725,1350866,65,Woman
24,245150,DepthScenes,duration_manipulation_targetAtFixation,jsons/VE125_randls_22_rotated.json,http://54.235.29.9/FacialAge/BNav_EC2/DepthDuration/v2_depth_duration_MTurk/v2_DepthDuration_HTML.html#119,119,1366,657,1366,768,8-30-2022,11-26-37,25,depth_duration_stimuli/001055_2014-06-08_18-45-35_260595134347_rgbf000111-resize_4/001055_2014-06-08_18-45-35_260595134347_rgbf000111-resize_4-target.png,125,2.4290000000000003,3,2954,124,meters,jsons/VE125_randls_22_rotated.json,1031725,1350866,65,Woman
25,245150,DepthScenes,duration_manipulation_targetAtFixation,jsons/VE125_randls_22_rotated.json,http://54.235.29.9/FacialAge/BNav_EC2/DepthDuration/v2_depth_duration_MTurk/v2_DepthDuration_HTML.html#119,119,1366,657,1366,768,8-30-2022,11-26-37,26,depth_duration_stimuli/000734_2014-06-08_17-39-11_260595134347_rgbf000128-resize_2/000734_2014-06-08_17-39-11_260595134347_rgbf000128-resize_2-target.png,125,4.098,3,2590,116,meters,jsons/VE125_randls_22_rotated.json,1031725,1350866,65,Woman
26,245150,DepthScenes,duration_manipulation_targetAtFixation,jsons/VE125_randls_22_rotated.json,http://54.235.29.9/FacialAge/BNav_EC2/DepthDuration/v2_depth_duration_MTurk/v2_DepthDuration_HTML.html#119,119,1366,657,1366,768,8-30-2022,11-26-37,27,depth_duration_stimuli/000739_2014-06-08_18-45-58_260595134347_rgbf000068-resize_1/000739_2014-06-08_18-45-58_260595134347_rgbf000068-resize_1-target.png,125,3.534,3,2920,128,meters,jsons/VE125_randls_22_rotated.json,1031725,1350866,65,Woman
27,245150,DepthScenes,duration_manipulation_targetAtFixation,jsons/VE125_randls_22_rotated.json,http://54.235.29.9/FacialAge/BNav_EC2/DepthDuration/v2_depth_duration_MTurk/v2_DepthDuration_HTML.html#119,119,1366,657,1366,768,8-30-2022,11-26-37,28,depth_duration_stimuli/003010_2014-06-15_12-54-35_094959634447_rgbf000112-resize_0/003010_2014-06-15_12-54-35_094959634447_rgbf000112-resize_0-target.png,125,3.1185,2,2363,124,meters,jsons/VE125_randls_22_rotated.json,1031725,1350866,65,Woman
28,245150,DepthScenes,duration_manipulation_targetAtFixation,jsons/VE125_randls_22_rotated.json,http://54.235.29.9/FacialAge/BNav_EC2/DepthDuration/v2_depth_duration_MTurk/v2_DepthDuration_HTML.html#119,119,1366,657,1366,768,8-30-2022,11-26-37,29,depth_duration_stimuli/001810_2014-06-26_20-51-35_260595134347_rgbf000040-resize_3/001810_2014-06-26_20-51-35_260595134347_rgbf000040-resize_3-target.png,125,2.2525,2,2083,123,meters,jsons/VE125_randls_22_rotated.json,1031725,1350866,65,Woman
29,245150,DepthScenes,duration_manipulation_targetAtFixation,jsons/VE125_randls_22_rotated.json,http://54.235.29.9/FacialAge/BNav_EC2/DepthDuration/v2_depth_duration_MTurk/v2_DepthDuration_HTML.html#119,119,1366,657,1366,768,8-30-2022,11-26-37,30,depth_duration_stimuli/002072_2014-06-24_21-48-06_260595134347_rgbf000115-resize_0/002072_2014-06-24_21-48-06_260595134347_rgbf000115-resize-original.jpg,125,4.702,2,2107,94,meters,jsons/VE125_randls_22_rotated.json,1031725,1350866,65,Woman
30,245150,DepthScenes,duration_manipulation_targetAtFixation,jsons/VE125_randls_22_rotated.json,http://54.235.29.9/FacialAge/BNav_EC2/DepthDuration/v2_depth_duration_MTurk/v2_DepthDuration_HTML.html#119,119,1366,657,1366,768,8-30-2022,11-26-37,31,depth_duration_stimuli/002340_2014-06-28_20-05-46_260595134347_rgbf000113-resize_0/002340_2014-06-28_20-05-46_260595134347_rgbf000113-resize_0-target.png,125,2.4735,44,6114,132,meters,jsons/VE125_randls_22_rotated.json,1031725,1350866,65,Woman
31,245150,DepthScenes,duration_manipulation_targetAtFixation,jsons/VE125_randls_22_rotated.json,http://54.235.29.9/FacialAge/BNav_EC2/DepthDuration/v2_depth_duration_MTurk/v2_DepthDuration_HTML.html#119,119,1366,657,1366,768,8-30-2022,11-26-37,32,depth_duration_stimuli/001016_2014-06-09_16-16-10_260595134347_rgbf000112-resize_5/001016_2014-06-09_16-16-10_260595134347_rgbf000112-resize_5-target.png,125,1.6565,2,2695,208,meters,jsons/VE125_randls_22_rotated.json,1031725,1350866,65,Woman
32,245150,DepthScenes,duration_manipulation_targetAtFixation,jsons/VE125_randls_22_rotated.json,http://54.235.29.9/FacialAge/BNav_EC2/DepthDuration/v2_depth_duration_MTurk/v2_DepthDuration_HTML.html#119,119,1366,657,1366,768,8-30-2022,11-26-37,33,depth_duration_stimuli/002209_2014-06-28_18-36-10_260595134347_rgbf000051-resize_1/002209_2014-06-28_18-36-10_260595134347_rgbf000051-resize_1-target.png,125,2.057,4,2349,131,meters,jsons/VE125_randls_22_rotated.json,1031725,1350866,65,Woman
33,245150,DepthScenes,duration_manipulation_targetAtFixation,jsons/VE125_randls_22_rotated.json,http://54.235.29.9/FacialAge/BNav_EC2/DepthDuration/v2_depth_duration_MTurk/v2_DepthDuration_HTML.html#119,119,1366,657,1366,768,8-30-2022,11-26-37,34,depth_duration_stimuli/002763_2014-06-22_19-13-10_094959634447_rgbf000075-resize_4/002763_2014-06-22_19-13-10_094959634447_rgbf000075-resize_4-target.png,125,1.68375,42,2258,124,meters,jsons/VE125_randls_22_rotated.json,1031725,1350866,65,Woman
34,245150,DepthScenes,duration_manipulation_targetAtFixation,jsons/VE125_randls_22_rotated.json,http://54.235.29.9/FacialAge/BNav_EC2/DepthDuration/v2_depth_duration_MTurk/v2_DepthDuration_HTML.html#119,119,1366,657,1366,768,8-30-2022,11-26-37,35,depth_duration_stimuli/002199_2014-06-28_18-33-56_260595134347_rgbf000074-resize_0/002199_2014-06-28_18-33-56_260595134347_rgbf000074-resize_0-target.png,125,1.996,2,2122,138,meters,jsons/VE125_randls_22_rotated.json,1031725,1350866,65,Woman
35,245150,DepthScenes,duration_manipulation_targetAtFixation,jsons/VE125_randls_22_rotated.json,http://54.235.29.9/FacialAge/BNav_EC2/DepthDuration/v2_depth_duration_MTurk/v2_DepthDuration_HTML.html#119,119,1366,657,1366,768,8-30-2022,11-26-37,36,depth_duration_stimuli/001056_2014-06-08_18-46-44_260595134347_rgbf000068-resize_0/001056_2014-06-08_18-46-44_260595134347_rgbf000068-resize_0-target.png,125,2.6625,4,3964,118,meters,jsons/VE125_randls_22_rotated.json,1031725,1350866,65,Woman
36,245150,DepthScenes,duration_manipulation_targetAtFixation,jsons/VE125_randls_22_rotated.json,http://54.235.29.9/FacialAge/BNav_EC2/DepthDuration/v2_depth_duration_MTurk/v2_DepthDuration_HTML.html#119,119,1366,657,1366,768,8-30-2022,11-26-37,37,depth_duration_stimuli/003228_2014-05-14_13-42-35_094959634447_rgbf000101-resize_1/003228_2014-05-14_13-42-35_094959634447_rgbf000101-resize_1-target.png,125,1.9680000000000002,4,4037,127,meters,jsons/VE125_randls_22_rotated.json,1031725,1350866,65,Woman
37,245150,DepthScenes,duration_manipulation_targetAtFixation,jsons/VE125_randls_22_rotated.json,http://54.235.29.9/FacialAge/BNav_EC2/DepthDuration/v2_depth_duration_MTurk/v2_DepthDuration_HTML.html#119,119,1366,657,1366,768,8-30-2022,11-26-37,38,depth_duration_stimuli/002600_2014-06-24_14-27-04_094959634447_rgbf000074-resize_2/002600_2014-06-24_14-27-04_094959634447_rgbf000074-resize_2-target.png,125,2.7575,5,2305,140,meters,jsons/VE125_randls_22_rotated.json,1031725,1350866,65,Woman
38,245150,DepthScenes,duration_manipulation_targetAtFixation,jsons/VE125_randls_22_rotated.json,http://54.235.29.9/FacialAge/BNav_EC2/DepthDuration/v2_depth_duration_MTurk/v2_DepthDuration_HTML.html#119,119,1366,657,1366,768,8-30-2022,11-26-37,39,depth_duration_stimuli/000137_2014-05-20_17-04-49_260595134347_rgbf000120-resize_1/000137_2014-05-20_17-04-49_260595134347_rgbf000120-resize_1-target.png,125,3.786,5,3416,125,meters,jsons/VE125_randls_22_rotated.json,1031725,1350866,65,Woman
39,245150,DepthScenes,duration_manipulation_targetAtFixation,jsons/VE125_randls_22_rotated.json,http://54.235.29.9/FacialAge/BNav_EC2/DepthDuration/v2_depth_duration_MTurk/v2_DepthDuration_HTML.html#119,119,1366,657,1366,768,8-30-2022,11-26-37,40,depth_duration_stimuli/000736_2014-06-08_18-24-15_260595134347_rgbf000206-resize_3/000736_2014-06-08_18-24-15_260595134347_rgbf000206-resize_3-target.png,125,3.515,4,2881,126,meters,jsons/VE125_randls_22_rotated.json,1031725,1350866,65,Woman
40,245150,DepthScenes,duration_manipulation_targetAtFixation,jsons/VE125_randls_22_rotated.json,http://54.235.29.9/FacialAge/BNav_EC2/DepthDuration/v2_depth_duration_MTurk/v2_DepthDuration_HTML.html#119,119,1366,657,1366,768,8-30-2022,11-26-37,41,depth_duration_stimuli/000103_2014-05-14_22-01-17_260595134347_rgbf000152-resize_5/000103_2014-05-14_22-01-17_260595134347_rgbf000152-resize_5-target.png,125,1.993,3,2426,123,meters,jsons/VE125_randls_22_rotated.json,1031725,1350866,65,Woman
41,245150,DepthScenes,duration_manipulation_targetAtFixation,jsons/VE125_randls_22_rotated.json,http://54.235.29.9/FacialAge/BNav_EC2/DepthDuration/v2_depth_duration_MTurk/v2_DepthDuration_HTML.html#119,119,1366,657,1366,768,8-30-2022,11-26-37,42,depth_duration_stimuli/001555_2014-06-20_17-12-10_260595134347_rgbf000065-resize_4/001555_2014-06-20_17-12-10_260595134347_rgbf000065-resize_4-target.png,125,1.633,3,8663,122,meters,jsons/VE125_randls_22_rotated.json,1031725,1350866,65,Woman
42,245150,DepthScenes,duration_manipulation_targetAtFixation,jsons/VE125_randls_22_rotated.json,http://54.235.29.9/FacialAge/BNav_EC2/DepthDuration/v2_depth_duration_MTurk/v2_DepthDuration_HTML.html#119,119,1366,657,1366,768,8-30-2022,11-26-37,43,depth_duration_stimuli/003081_2014-06-15_15-19-16_094959634447_rgbf000150-resize_1/003081_2014-06-15_15-19-16_094959634447_rgbf000150-resize_1-target.png,125,3.9125,33,2614,126,meters,jsons/VE125_randls_22_rotated.json,1031725,1350866,65,Woman
43,245150,DepthScenes,duration_manipulation_targetAtFixation,jsons/VE125_randls_22_rotated.json,http://54.235.29.9/FacialAge/BNav_EC2/DepthDuration/v2_depth_duration_MTurk/v2_DepthDuration_HTML.html#119,119,1366,657,1366,768,8-30-2022,11-26-37,44,depth_duration_stimuli/001417_2014-06-19_16-25-36_260595134347_rgbf000115-resize_5/001417_2014-06-19_16-25-36_260595134347_rgbf000115-resize_5-target.png,125,4.6255,3,2797,115,meters,jsons/VE125_randls_22_rotated.json,1031725,1350866,65,Woman
44,245150,DepthScenes,duration_manipulation_targetAtFixation,jsons/VE125_randls_22_rotated.json,http://54.235.29.9/FacialAge/BNav_EC2/DepthDuration/v2_depth_duration_MTurk/v2_DepthDuration_HTML.html#119,119,1366,657,1366,768,8-30-2022,11-26-37,45,depth_duration_stimuli/000665_2014-06-09_20-42-35_260595134347_rgbf000110-resize_1/000665_2014-06-09_20-42-35_260595134347_rgbf000110-resize_1-target.png,125,3.057,4,2509,39,meters,jsons/VE125_randls_22_rotated.json,1031725,1350866,65,Woman
45,245150,DepthScenes,duration_manipulation_targetAtFixation,jsons/VE125_randls_22_rotated.json,http://54.235.29.9/FacialAge/BNav_EC2/DepthDuration/v2_depth_duration_MTurk/v2_DepthDuration_HTML.html#119,119,1366,657,1366,768,8-30-2022,11-26-37,46,depth_duration_stimuli/001150_2014-06-17_15-27-34_260595134347_rgbf000108-resize_2/001150_2014-06-17_15-27-34_260595134347_rgbf000108-resize_2-target.png,125,4.0325,44,3095,124,meters,jsons/VE125_randls_22_rotated.json,1031725,1350866,65,Woman
46,245150,DepthScenes,duration_manipulation_targetAtFixation,jsons/VE125_randls_22_rotated.json,http://54.235.29.9/FacialAge/BNav_EC2/DepthDuration/v2_depth_duration_MTurk/v2_DepthDuration_HTML.html#119,119,1366,657,1366,768,8-30-2022,11-26-37,47,depth_duration_stimuli/000854_2014-06-09_19-43-13_260595134347_rgbf000066-resize_0/000854_2014-06-09_19-43-13_260595134347_rgbf000066-resize_0-target.png,125,3.068,4,2906,243,meters,jsons/VE125_randls_22_rotated.json,1031725,1350866,65,Woman
47,245150,DepthScenes,duration_manipulation_targetAtFixation,jsons/VE125_randls_22_rotated.json,http://54.235.29.9/FacialAge/BNav_EC2/DepthDuration/v2_depth_duration_MTurk/v2_DepthDuration_HTML.html#119,119,1366,657,1366,768,8-30-2022,11-26-37,48,depth_duration_stimuli/000758_2014-06-08_22-05-08_260595134347_rgbf000085-resize_0/000758_2014-06-08_22-05-08_260595134347_rgbf000085-resize_0-target.png,125,3.3810000000000002,3,25200,70,meters,jsons/VE125_randls_22_rotated.json,1031725,1350866,65,Woman
48,245150,DepthScenes,duration_manipulation_targetAtFixation,jsons/VE125_randls_22_rotated.json,http://54.235.29.9/FacialAge/BNav_EC2/DepthDuration/v2_depth_duration_MTurk/v2_DepthDuration_HTML.html#119,119,1366,657,1366,768,8-30-2022,11-26-37,49,depth_duration_stimuli/001170_2014-06-17_15-43-44_260595134347_rgbf000096-resize_6/001170_2014-06-17_15-43-44_260595134347_rgbf000096-resize-original.jpg,125,1.1909999999999998,4,3735,71,meters,jsons/VE125_randls_22_rotated.json,1031725,1350866,65,Woman
49,245150,DepthScenes,duration_manipulation_targetAtFixation,jsons/VE125_randls_22_rotated.json,http://54.235.29.9/FacialAge/BNav_EC2/DepthDuration/v2_depth_duration_MTurk/v2_DepthDuration_HTML.html#119,119,1366,657,1366,768,8-30-2022,11-26-37,50,depth_duration_stimuli/001516_2014-06-20_16-25-09_260595134347_rgbf000076-resize_2/001516_2014-06-20_16-25-09_260595134347_rgbf000076-resize_2-target.png,125,1.7445,6,3007,122,meters,jsons/VE125_randls_22_rotated.json,1031725,1350866,65,Woman
50,245150,DepthScenes,duration_manipulation_targetAtFixation,jsons/VE125_randls_22_rotated.json,http://54.235.29.9/FacialAge/BNav_EC2/DepthDuration/v2_depth_duration_MTurk/v2_DepthDuration_HTML.html#119,119,1366,657,1366,768,8-30-2022,11-26-37,51,depth_duration_stimuli/002118_2014-06-25_20-32-08_260595134347_rgbf000078-resize_1/002118_2014-06-25_20-32-08_260595134347_rgbf000078-resize_1-target.png,125,2.6460000000000004,4,2689,151,meters,jsons/VE125_randls_22_rotated.json,1031725,1350866,65,Woman
51,245150,DepthScenes,duration_manipulation_targetAtFixation,jsons/VE125_randls_22_rotated.json,http://54.235.29.9/FacialAge/BNav_EC2/DepthDuration/v2_depth_duration_MTurk/v2_DepthDuration_HTML.html#119,119,1366,657,1366,768,8-30-2022,11-26-37,52,depth_duration_stimuli/002995_2014-06-15_12-31-26_094959634447_rgbf000150-resize_1/002995_2014-06-15_12-31-26_094959634447_rgbf000150-resize_1-target.png,125,3.8360000000000003,8,2988,114,meters,jsons/VE125_randls_22_rotated.json,1031725,1350866,65,Woman
52,245150,DepthScenes,duration_manipulation_targetAtFixation,jsons/VE125_randls_22_rotated.json,http://54.235.29.9/FacialAge/BNav_EC2/DepthDuration/v2_depth_duration_MTurk/v2_DepthDuration_HTML.html#119,119,1366,657,1366,768,8-30-2022,11-26-37,53,depth_duration_stimuli/002748_2014-06-22_19-07-22_094959634447_rgbf000078-resize_1/002748_2014-06-22_19-07-22_094959634447_rgbf000078-resize_1-target.png,125,4.6705,4,5887,94,meters,jsons/VE125_randls_22_rotated.json,1031725,1350866,65,Woman
53,245150,DepthScenes,duration_manipulation_targetAtFixation,jsons/VE125_randls_22_rotated.json,http://54.235.29.9/FacialAge/BNav_EC2/DepthDuration/v2_depth_duration_MTurk/v2_DepthDuration_HTML.html#119,119,1366,657,1366,768,8-30-2022,11-26-37,54,depth_duration_stimuli/003048_2014-06-15_13-49-43_094959634447_rgbf000150-resize_1/003048_2014-06-15_13-49-43_094959634447_rgbf000150-resize_1-target.png,125,4.0035,9,3956,138,meters,jsons/VE125_randls_22_rotated.json,1031725,1350866,65,Woman
54,245150,DepthScenes,duration_manipulation_targetAtFixation,jsons/VE125_randls_22_rotated.json,http://54.235.29.9/FacialAge/BNav_EC2/DepthDuration/v2_depth_duration_MTurk/v2_DepthDuration_HTML.html#119,119,1366,657,1366,768,8-30-2022,11-26-37,55,depth_duration_stimuli/002043_2014-06-24_20-29-38_260595134347_rgbf000039-resize_4/002043_2014-06-24_20-29-38_260595134347_rgbf000039-resize_4-target.png,125,2.8435,4,25536,118,meters,jsons/VE125_randls_22_rotated.json,1031725,1350866,65,Woman
55,245150,DepthScenes,duration_manipulation_targetAtFixation,jsons/VE125_randls_22_rotated.json,http://54.235.29.9/FacialAge/BNav_EC2/DepthDuration/v2_depth_duration_MTurk/v2_DepthDuration_HTML.html#119,119,1366,657,1366,768,8-30-2022,11-26-37,56,depth_duration_stimuli/000943_2014-06-09_19-31-07_260595134347_rgbf000128-resize_1/000943_2014-06-09_19-31-07_260595134347_rgbf000128-resize_1-target.png,125,1.9765,4,4015,121,meters,jsons/VE125_randls_22_rotated.json,1031725,1350866,65,Woman
56,245150,DepthScenes,duration_manipulation_targetAtFixation,jsons/VE125_randls_22_rotated.json,http://54.235.29.9/FacialAge/BNav_EC2/DepthDuration/v2_depth_duration_MTurk/v2_DepthDuration_HTML.html#119,119,1366,657,1366,768,8-30-2022,11-26-37,57,depth_duration_stimuli/003070_2014-06-15_14-58-27_094959634447_rgbf000150-resize_3/003070_2014-06-15_14-58-27_094959634447_rgbf000150-resize_3-target.png,125,2.9415,3,17732,137,meters,jsons/VE125_randls_22_rotated.json,1031725,1350866,65,Woman
57,245150,DepthScenes,duration_manipulation_targetAtFixation,jsons/VE125_randls_22_rotated.json,http://54.235.29.9/FacialAge/BNav_EC2/DepthDuration/v2_depth_duration_MTurk/v2_DepthDuration_HTML.html#119,119,1366,657,1366,768,8-30-2022,11-26-37,58,depth_duration_stimuli/003490_2014-05-21_15-50-11_094959634447_rgbf000101-resize_3/003490_2014-05-21_15-50-11_094959634447_rgbf000101-resize_3-target.png,125,3.6445,5,3163,129,meters,jsons/VE125_randls_22_rotated.json,1031725,1350866,65,Woman
58,245150,DepthScenes,duration_manipulation_targetAtFixation,jsons/VE125_randls_22_rotated.json,http://54.235.29.9/FacialAge/BNav_EC2/DepthDuration/v2_depth_duration_MTurk/v2_DepthDuration_HTML.html#119,119,1366,657,1366,768,8-30-2022,11-26-37,59,depth_duration_stimuli/001175_2014-06-17_15-45-55_260595134347_rgbf000129-resize_4/001175_2014-06-17_15-45-55_260595134347_rgbf000129-resize_4-target.png,125,4.255,3,5426,119,meters,jsons/VE125_randls_22_rotated.json,1031725,1350866,65,Woman
59,245150,DepthScenes,duration_manipulation_targetAtFixation,jsons/VE125_randls_22_rotated.json,http://54.235.29.9/FacialAge/BNav_EC2/DepthDuration/v2_depth_duration_MTurk/v2_DepthDuration_HTML.html#119,119,1366,657,1366,768,8-30-2022,11-26-37,60,depth_duration_stimuli/000191_2014-05-12_17-07-38_260595134347_rgbf000199-resize_0/000191_2014-05-12_17-07-38_260595134347_rgbf000199-resize_0-target.png,125,3.7995,4,6212,120,meters,jsons/VE125_randls_22_rotated.json,1031725,1350866,65,Woman
60,245150,DepthScenes,duration_manipulation_targetAtFixation,jsons/VE125_randls_22_rotated.json,http://54.235.29.9/FacialAge/BNav_EC2/DepthDuration/v2_depth_duration_MTurk/v2_DepthDuration_HTML.html#119,119,1366,657,1366,768,8-30-2022,11-26-37,61,depth_duration_stimuli/000493_2014-06-09_21-01-18_260595134347_rgbf000196-resize_3/000493_2014-06-09_21-01-18_260595134347_rgbf000196-resize_3-target.png,125,3.44,4,2591,139,meters,jsons/VE125_randls_22_rotated.json,1031725,1350866,65,Woman
61,245150,DepthScenes,duration_manipulation_targetAtFixation,jsons/VE125_randls_22_rotated.json,http://54.235.29.9/FacialAge/BNav_EC2/DepthDuration/v2_depth_duration_MTurk/v2_DepthDuration_HTML.html#119,119,1366,657,1366,768,8-30-2022,11-26-37,62,depth_duration_stimuli/001450_2014-06-19_17-02-03_260595134347_rgbf000203-resize_4/001450_2014-06-19_17-02-03_260595134347_rgbf000203-resize_4-target.png,125,4.0106666666667,5,2652,115,meters,jsons/VE125_randls_22_rotated.json,1031725,1350866,65,Woman
62,245150,DepthScenes,duration_manipulation_targetAtFixation,jsons/VE125_randls_22_rotated.json,http://54.235.29.9/FacialAge/BNav_EC2/DepthDuration/v2_depth_duration_MTurk/v2_DepthDuration_HTML.html#119,119,1366,657,1366,768,8-30-2022,11-26-37,63,depth_duration_stimuli/001449_2014-06-19_17-01-27_260595134347_rgbf000116-resize_2/001449_2014-06-19_17-01-27_260595134347_rgbf000116-resize_2-target.png,125,3.452,3,2973,104,meters,jsons/VE125_randls_22_rotated.json,1031725,1350866,65,Woman
63,245150,DepthScenes,duration_manipulation_targetAtFixation,jsons/VE125_randls_22_rotated.json,http://54.235.29.9/FacialAge/BNav_EC2/DepthDuration/v2_depth_duration_MTurk/v2_DepthDuration_HTML.html#119,119,1366,657,1366,768,8-30-2022,11-26-37,64,depth_duration_stimuli/001032_2014-06-08_13-23-17_260595134347_rgbf000021-resize_3/001032_2014-06-08_13-23-17_260595134347_rgbf000021-resize_3-target.png,125,3.2725,2,5811,125,meters,jsons/VE125_randls_22_rotated.json,1031725,1350866,65,Woman
64,245150,DepthScenes,duration_manipulation_targetAtFixation,jsons/VE125_randls_22_rotated.json,http://54.235.29.9/FacialAge/BNav_EC2/DepthDuration/v2_depth_duration_MTurk/v2_DepthDuration_HTML.html#119,119,1366,657,1366,768,8-30-2022,11-26-37,65,depth_duration_stimuli/001059_2014-06-08_21-53-27_260595134347_rgbf000061-resize_4/001059_2014-06-08_21-53-27_260595134347_rgbf000061-resize_4-target.png,125,2.4185,3,6850,64,meters,jsons/VE125_randls_22_rotated.json,1031725,1350866,65,Woman
65,245150,DepthScenes,duration_manipulation_targetAtFixation,jsons/VE125_randls_22_rotated.json,http://54.235.29.9/FacialAge/BNav_EC2/DepthDuration/v2_depth_duration_MTurk/v2_DepthDuration_HTML.html#119,119,1366,657,1366,768,8-30-2022,11-26-37,66,depth_duration_stimuli/001540_2014-06-20_17-01-05_260595134347_rgbf000086-resize_2/001540_2014-06-20_17-01-05_260595134347_rgbf000086-resize-original.jpg,125,1.459,4,4701,124,meters,jsons/VE125_randls_22_rotated.json,1031725,1350866,65,Woman
66,245150,DepthScenes,duration_manipulation_targetAtFixation,jsons/VE125_randls_22_rotated.json,http://54.235.29.9/FacialAge/BNav_EC2/DepthDuration/v2_depth_duration_MTurk/v2_DepthDuration_HTML.html#119,119,1366,657,1366,768,8-30-2022,11-26-37,67,depth_duration_stimuli/002103_2014-06-25_20-00-40_260595134347_rgbf000049-resize_0/002103_2014-06-25_20-00-40_260595134347_rgbf000049-resize_0-target.png,125,4.105,2,10634,123,meters,jsons/VE125_randls_22_rotated.json,1031725,1350866,65,Woman
67,245150,DepthScenes,duration_manipulation_targetAtFixation,jsons/VE125_randls_22_rotated.json,http://54.235.29.9/FacialAge/BNav_EC2/DepthDuration/v2_depth_duration_MTurk/v2_DepthDuration_HTML.html#119,119,1366,657,1366,768,8-30-2022,11-26-37,68,depth_duration_stimuli/002039_2014-06-24_20-22-38_260595134347_rgbf000084-resize_1/002039_2014-06-24_20-22-38_260595134347_rgbf000084-resize_1-target.png,125,4.408,3,3703,117,meters,jsons/VE125_randls_22_rotated.json,1031725,1350866,65,Woman
68,245150,DepthScenes,duration_manipulation_targetAtFixation,jsons/VE125_randls_22_rotated.json,http://54.235.29.9/FacialAge/BNav_EC2/DepthDuration/v2_depth_duration_MTurk/v2_DepthDuration_HTML.html#119,119,1366,657,1366,768,8-30-2022,11-26-37,69,depth_duration_stimuli/001392_2014-06-19_16-07-59_260595134347_rgbf000046-resize_1/001392_2014-06-19_16-07-59_260595134347_rgbf000046-resize_1-target.png,125,4.135,3,13688,132,meters,jsons/VE125_randls_22_rotated.json,1031725,1350866,65,Woman
69,245150,DepthScenes,duration_manipulation_targetAtFixation,jsons/VE125_randls_22_rotated.json,http://54.235.29.9/FacialAge/BNav_EC2/DepthDuration/v2_depth_duration_MTurk/v2_DepthDuration_HTML.html#119,119,1366,657,1366,768,8-30-2022,11-26-37,70,depth_duration_stimuli/001570_2014-06-20_17-21-09_260595134347_rgbf000135-resize_4/001570_2014-06-20_17-21-09_260595134347_rgbf000135-resize_4-target.png,125,4.467,3,4950,116,meters,jsons/VE125_randls_22_rotated.json,1031725,1350866,65,Woman
70,245150,DepthScenes,duration_manipulation_targetAtFixation,jsons/VE125_randls_22_rotated.json,http://54.235.29.9/FacialAge/BNav_EC2/DepthDuration/v2_depth_duration_MTurk/v2_DepthDuration_HTML.html#119,119,1366,657,1366,768,8-30-2022,11-26-37,71,depth_duration_stimuli/002136_2014-06-25_21-18-03_260595134347_rgbf000109-resize_3/002136_2014-06-25_21-18-03_260595134347_rgbf000109-resize_3-target.png,125,1.9569999999999999,2,5774,120,meters,jsons/VE125_randls_22_rotated.json,1031725,1350866,65,Woman
71,245150,DepthScenes,duration_manipulation_targetAtFixation,jsons/VE125_randls_22_rotated.json,http://54.235.29.9/FacialAge/BNav_EC2/DepthDuration/v2_depth_duration_MTurk/v2_DepthDuration_HTML.html#119,119,1366,657,1366,768,8-30-2022,11-26-37,72,depth_duration_stimuli/002964_2014-06-08_17-46-11_094959634447_rgbf000091-resize_4/002964_2014-06-08_17-46-11_094959634447_rgbf000091-resize_4-target.png,125,1.6909999999999998,2,6340,112,meters,jsons/VE125_randls_22_rotated.json,1031725,1350866,65,Woman
72,245150,DepthScenes,duration_manipulation_targetAtFixation,jsons/VE125_randls_22_rotated.json,http://54.235.29.9/FacialAge/BNav_EC2/DepthDuration/v2_depth_duration_MTurk/v2_DepthDuration_HTML.html#119,119,1366,657,1366,768,8-30-2022,11-26-37,73,depth_duration_stimuli/000677_2014-06-08_23-10-32_260595134347_rgbf000158-resize_6/000677_2014-06-08_23-10-32_260595134347_rgbf000158-resize_6-target.png,125,3.556,4,8350,5,meters,jsons/VE125_randls_22_rotated.json,1031725,1350866,65,Woman
73,245150,DepthScenes,duration_manipulation_targetAtFixation,jsons/VE125_randls_22_rotated.json,http://54.235.29.9/FacialAge/BNav_EC2/DepthDuration/v2_depth_duration_MTurk/v2_DepthDuration_HTML.html#119,119,1366,657,1366,768,8-30-2022,11-26-37,74,depth_duration_stimuli/001029_2014-06-08_13-17-57_260595134347_rgbf000065-resize_1/001029_2014-06-08_13-17-57_260595134347_rgbf000065-resize_1-target.png,125,3.0835,4,2988,124,meters,jsons/VE125_randls_22_rotated.json,1031725,1350866,65,Woman
74,245150,DepthScenes,duration_manipulation_targetAtFixation,jsons/VE125_randls_22_rotated.json,http://54.235.29.9/FacialAge/BNav_EC2/DepthDuration/v2_depth_duration_MTurk/v2_DepthDuration_HTML.html#119,119,1366,657,1366,768,8-30-2022,11-26-37,75,depth_duration_stimuli/003587_2014-05-23_16-48-02_094959634447_rgbf002384-resize_2/003587_2014-05-23_16-48-02_094959634447_rgbf002384-resize_2-target.png,125,1.357,2,2772,123,meters,jsons/VE125_randls_22_rotated.json,1031725,1350866,65,Woman
75,245150,DepthScenes,duration_manipulation_targetAtFixation,jsons/VE125_randls_22_rotated.json,http://54.235.29.9/FacialAge/BNav_EC2/DepthDuration/v2_depth_duration_MTurk/v2_DepthDuration_HTML.html#119,119,1366,657,1366,768,8-30-2022,11-26-37,76,depth_duration_stimuli/001167_2014-06-17_15-38-07_260595134347_rgbf000108-resize_0/001167_2014-06-17_15-38-07_260595134347_rgbf000108-resize_0-target.png,125,1.8505,2,2360,119,meters,jsons/VE125_randls_22_rotated.json,1031725,1350866,65,Woman
76,245150,DepthScenes,duration_manipulation_targetAtFixation,jsons/VE125_randls_22_rotated.json,http://54.235.29.9/FacialAge/BNav_EC2/DepthDuration/v2_depth_duration_MTurk/v2_DepthDuration_HTML.html#119,119,1366,657,1366,768,8-30-2022,11-26-37,77,depth_duration_stimuli/000866_2014-06-09_20-45-42_260595134347_rgbf000139-resize_1/000866_2014-06-09_20-45-42_260595134347_rgbf000139-resize_1-target.png,125,3.2155,4,6357,114,meters,jsons/VE125_randls_22_rotated.json,1031725,1350866,65,Woman
77,245150,DepthScenes,duration_manipulation_targetAtFixation,jsons/VE125_randls_22_rotated.json,http://54.235.29.9/FacialAge/BNav_EC2/DepthDuration/v2_depth_duration_MTurk/v2_DepthDuration_HTML.html#119,119,1366,657,1366,768,8-30-2022,11-26-37,78,depth_duration_stimuli/002989_2014-06-15_12-25-03_094959634447_rgbf000150-resize_3/002989_2014-06-15_12-25-03_094959634447_rgbf000150-resize_3-target.png,125,4.1975,5,3329,109,meters,jsons/VE125_randls_22_rotated.json,1031725,1350866,65,Woman
78,245150,DepthScenes,duration_manipulation_targetAtFixation,jsons/VE125_randls_22_rotated.json,http://54.235.29.9/FacialAge/BNav_EC2/DepthDuration/v2_depth_duration_MTurk/v2_DepthDuration_HTML.html#119,119,1366,657,1366,768,8-30-2022,11-26-37,79,depth_duration_stimuli/000409_2014-06-04_19-23-33_260595134347_rgbf000067-resize_0/000409_2014-06-04_19-23-33_260595134347_rgbf000067-resize_0-target.png,125,3.7335,3,22420,124,meters,jsons/VE125_randls_22_rotated.json,1031725,1350866,65,Woman
79,245150,DepthScenes,duration_manipulation_targetAtFixation,jsons/VE125_randls_22_rotated.json,http://54.235.29.9/FacialAge/BNav_EC2/DepthDuration/v2_depth_duration_MTurk/v2_DepthDuration_HTML.html#119,119,1366,657,1366,768,8-30-2022,11-26-37,80,depth_duration_stimuli/002663_2014-06-13_15-50-26_094959634447_rgbf000075-resize_1/002663_2014-06-13_15-50-26_094959634447_rgbf000075-resize_1-target.png,125,4.7495,3,4010,123,meters,jsons/VE125_randls_22_rotated.json,1031725,1350866,65,Woman
80,245150,DepthScenes,duration_manipulation_targetAtFixation,jsons/VE125_randls_22_rotated.json,http://54.235.29.9/FacialAge/BNav_EC2/DepthDuration/v2_depth_duration_MTurk/v2_DepthDuration_HTML.html#119,119,1366,657,1366,768,8-30-2022,11-26-37,81,depth_duration_stimuli/002953_2014-06-08_17-32-18_094959634447_rgbf000059-resize_5/002953_2014-06-08_17-32-18_094959634447_rgbf000059-resize_5-target.png,125,1.551,2,2320,125,meters,jsons/VE125_randls_22_rotated.json,1031725,1350866,65,Woman
81,245150,DepthScenes,duration_manipulation_targetAtFixation,jsons/VE125_randls_22_rotated.json,http://54.235.29.9/FacialAge/BNav_EC2/DepthDuration/v2_depth_duration_MTurk/v2_DepthDuration_HTML.html#119,119,1366,657,1366,768,8-30-2022,11-26-37,82,depth_duration_stimuli/000878_2014-06-08_22-52-45_260595134347_rgbf000045-resize_2/000878_2014-06-08_22-52-45_260595134347_rgbf000045-resize_2-target.png,125,2.092,3,21999,252,meters,jsons/VE125_randls_22_rotated.json,1031725,1350866,65,Woman
82,245150,DepthScenes,duration_manipulation_targetAtFixation,jsons/VE125_randls_22_rotated.json,http://54.235.29.9/FacialAge/BNav_EC2/DepthDuration/v2_depth_duration_MTurk/v2_DepthDuration_HTML.html#119,119,1366,657,1366,768,8-30-2022,11-26-37,83,depth_duration_stimuli/001094_2014-06-15_17-36-00_260595134347_rgbf000205-resize_0/001094_2014-06-15_17-36-00_260595134347_rgbf000205-resize_0-target.png,125,4.2175,2,50882,122,meters,jsons/VE125_randls_22_rotated.json,1031725,1350866,65,Woman
83,245150,DepthScenes,duration_manipulation_targetAtFixation,jsons/VE125_randls_22_rotated.json,http://54.235.29.9/FacialAge/BNav_EC2/DepthDuration/v2_depth_duration_MTurk/v2_DepthDuration_HTML.html#119,119,1366,657,1366,768,8-30-2022,11-26-37,84,depth_duration_stimuli/000692_2014-06-08_13-09-42_260595134347_rgbf000199-resize_2/000692_2014-06-08_13-09-42_260595134347_rgbf000199-resize_2-target.png,125,3.661,3,5512,113,meters,jsons/VE125_randls_22_rotated.json,1031725,1350866,65,Woman
84,245150,DepthScenes,duration_manipulation_targetAtFixation,jsons/VE125_randls_22_rotated.json,http://54.235.29.9/FacialAge/BNav_EC2/DepthDuration/v2_depth_duration_MTurk/v2_DepthDuration_HTML.html#119,119,1366,657,1366,768,8-30-2022,11-26-37,85,depth_duration_stimuli/001136_2014-06-17_15-19-41_260595134347_rgbf000076-resize_3/001136_2014-06-17_15-19-41_260595134347_rgbf000076-resize_3-target.png,125,1.8655,3,3062,129,meters,jsons/VE125_randls_22_rotated.json,1031725,1350866,65,Woman
85,245150,DepthScenes,duration_manipulation_targetAtFixation,jsons/VE125_randls_22_rotated.json,http://54.235.29.9/FacialAge/BNav_EC2/DepthDuration/v2_depth_duration_MTurk/v2_DepthDuration_HTML.html#119,119,1366,657,1366,768,8-30-2022,11-26-37,86,depth_duration_stimuli/001164_2014-06-17_15-35-46_260595134347_rgbf000085-resize_3/001164_2014-06-17_15-35-46_260595134347_rgbf000085-resize_3-target.png,125,2.354,3,2038,174,meters,jsons/VE125_randls_22_rotated.json,1031725,1350866,65,Woman
86,245150,DepthScenes,duration_manipulation_targetAtFixation,jsons/VE125_randls_22_rotated.json,http://54.235.29.9/FacialAge/BNav_EC2/DepthDuration/v2_depth_duration_MTurk/v2_DepthDuration_HTML.html#119,119,1366,657,1366,768,8-30-2022,11-26-37,87,depth_duration_stimuli/002657_2014-06-13_15-29-54_094959634447_rgbf000150-resize_1/002657_2014-06-13_15-29-54_094959634447_rgbf000150-resize_1-target.png,125,4.919,4,2180,126,meters,jsons/VE125_randls_22_rotated.json,1031725,1350866,65,Woman
87,245150,DepthScenes,duration_manipulation_targetAtFixation,jsons/VE125_randls_22_rotated.json,http://54.235.29.9/FacialAge/BNav_EC2/DepthDuration/v2_depth_duration_MTurk/v2_DepthDuration_HTML.html#119,119,1366,657,1366,768,8-30-2022,11-26-37,88,depth_duration_stimuli/002375_2014-06-28_20-13-44_260595134347_rgbf000032-resize_1/002375_2014-06-28_20-13-44_260595134347_rgbf000032-resize_1-target.png,125,4.0175,3,2412,113,meters,jsons/VE125_randls_22_rotated.json,1031725,1350866,65,Woman
88,245150,DepthScenes,duration_manipulation_targetAtFixation,jsons/VE125_randls_22_rotated.json,http://54.235.29.9/FacialAge/BNav_EC2/DepthDuration/v2_depth_duration_MTurk/v2_DepthDuration_HTML.html#119,119,1366,657,1366,768,8-30-2022,11-26-37,89,depth_duration_stimuli/002444_2014-06-28_20-32-08_260595134347_rgbf000027-resize_0/002444_2014-06-28_20-32-08_260595134347_rgbf000027-resize_0-target.png,125,4.388999999999999,3,2210,94,meters,jsons/VE125_randls_22_rotated.json,1031725,1350866,65,Woman
89,245150,DepthScenes,duration_manipulation_targetAtFixation,jsons/VE125_randls_22_rotated.json,http://54.235.29.9/FacialAge/BNav_EC2/DepthDuration/v2_depth_duration_MTurk/v2_DepthDuration_HTML.html#119,119,1366,657,1366,768,8-30-2022,11-26-37,90,depth_duration_stimuli/000436_2014-06-09_22-25-11_260595134347_rgbf000137-resize_1/000436_2014-06-09_22-25-11_260595134347_rgbf000137-resize_1-target.png,125,4.0705,2,1817,125,meters,jsons/VE125_randls_22_rotated.json,1031725,1350866,65,Woman
90,245150,DepthScenes,duration_manipulation_targetAtFixation,jsons/VE125_randls_22_rotated.json,http://54.235.29.9/FacialAge/BNav_EC2/DepthDuration/v2_depth_duration_MTurk/v2_DepthDuration_HTML.html#119,119,1366,657,1366,768,8-30-2022,11-26-37,91,depth_duration_stimuli/003079_2014-06-15_15-18-20_094959634447_rgbf000152-resize_8/003079_2014-06-15_15-18-20_094959634447_rgbf000152-resize_8-target.png,125,2.8775,2,3678,115,meters,jsons/VE125_randls_22_rotated.json,1031725,1350866,65,Woman
91,245150,DepthScenes,duration_manipulation_targetAtFixation,jsons/VE125_randls_22_rotated.json,http://54.235.29.9/FacialAge/BNav_EC2/DepthDuration/v2_depth_duration_MTurk/v2_DepthDuration_HTML.html#119,119,1366,657,1366,768,8-30-2022,11-26-37,92,depth_duration_stimuli/000506_2014-06-08_23-21-00_260595134347_rgbf000070-resize_7/000506_2014-06-08_23-21-00_260595134347_rgbf000070-resize_7-target.png,125,4.0585,4,2572,117,meters,jsons/VE125_randls_22_rotated.json,1031725,1350866,65,Woman
92,245150,DepthScenes,duration_manipulation_targetAtFixation,jsons/VE125_randls_22_rotated.json,http://54.235.29.9/FacialAge/BNav_EC2/DepthDuration/v2_depth_duration_MTurk/v2_DepthDuration_HTML.html#119,119,1366,657,1366,768,8-30-2022,11-26-37,93,depth_duration_stimuli/000502_2014-06-08_23-02-32_260595134347_rgbf000063-resize_4/000502_2014-06-08_23-02-32_260595134347_rgbf000063-resize_4-target.png,125,2.431,2,2140,124,meters,jsons/VE125_randls_22_rotated.json,1031725,1350866,65,Woman
93,245150,DepthScenes,duration_manipulation_targetAtFixation,jsons/VE125_randls_22_rotated.json,http://54.235.29.9/FacialAge/BNav_EC2/DepthDuration/v2_depth_duration_MTurk/v2_DepthDuration_HTML.html#119,119,1366,657,1366,768,8-30-2022,11-26-37,94,depth_duration_stimuli/001199_2014-06-17_16-03-48_260595134347_rgbf000077-resize_0/001199_2014-06-17_16-03-48_260595134347_rgbf000077-resize_0-target.png,125,3.4375,3,1996,132,meters,jsons/VE125_randls_22_rotated.json,1031725,1350866,65,Woman
94,245150,DepthScenes,duration_manipulation_targetAtFixation,jsons/VE125_randls_22_rotated.json,http://54.235.29.9/FacialAge/BNav_EC2/DepthDuration/v2_depth_duration_MTurk/v2_DepthDuration_HTML.html#119,119,1366,657,1366,768,8-30-2022,11-26-37,95,depth_duration_stimuli/000780_2014-06-08_22-28-29_260595134347_rgbf000126-resize_1/000780_2014-06-08_22-28-29_260595134347_rgbf000126-resize_1-target.png,125,3.3825,4,2005,125,meters,jsons/VE125_randls_22_rotated.json,1031725,1350866,65,Woman
95,245150,DepthScenes,duration_manipulation_targetAtFixation,jsons/VE125_randls_22_rotated.json,http://54.235.29.9/FacialAge/BNav_EC2/DepthDuration/v2_depth_duration_MTurk/v2_DepthDuration_HTML.html#119,119,1366,657,1366,768,8-30-2022,11-26-37,96,depth_duration_stimuli/002445_2014-06-28_20-32-16_260595134347_rgbf000029-resize_4/002445_2014-06-28_20-32-16_260595134347_rgbf000029-resize_4-target.png,125,2.5315,3,2117,209,meters,jsons/VE125_randls_22_rotated.json,1031725,1350866,65,Woman
96,245150,DepthScenes,duration_manipulation_targetAtFixation,jsons/VE125_randls_22_rotated.json,http://54.235.29.9/FacialAge/BNav_EC2/DepthDuration/v2_depth_duration_MTurk/v2_DepthDuration_HTML.html#119,119,1366,657,1366,768,8-30-2022,11-26-37,97,depth_duration_stimuli/001815_2014-06-26_20-52-55_260595134347_rgbf000020-resize_0/001815_2014-06-26_20-52-55_260595134347_rgbf000020-resize_0-target.png,125,3.3865,3,1797,130,meters,jsons/VE125_randls_22_rotated.json,1031725,1350866,65,Woman
97,245150,DepthScenes,duration_manipulation_targetAtFixation,jsons/VE125_randls_22_rotated.json,http://54.235.29.9/FacialAge/BNav_EC2/DepthDuration/v2_depth_duration_MTurk/v2_DepthDuration_HTML.html#119,119,1366,657,1366,768,8-30-2022,11-26-37,98,depth_duration_stimuli/001808_2014-06-26_20-50-58_260595134347_rgbf000029-resize_1/001808_2014-06-26_20-50-58_260595134347_rgbf000029-resize_1-target.png,125,4.249,3,5208,125,meters,jsons/VE125_randls_22_rotated.json,1031725,1350866,65,Woman
98,245150,DepthScenes,duration_manipulation_targetAtFixation,jsons/VE125_randls_22_rotated.json,http://54.235.29.9/FacialAge/BNav_EC2/DepthDuration/v2_depth_duration_MTurk/v2_DepthDuration_HTML.html#119,119,1366,657,1366,768,8-30-2022,11-26-37,99,depth_duration_stimuli/001222_2014-06-17_16-24-06_260595134347_rgbf000073-resize_0/001222_2014-06-17_16-24-06_260595134347_rgbf000073-resize-original.jpg,125,1.4385,3,3785,112,meters,jsons/VE125_randls_22_rotated.json,1031725,1350866,65,Woman
99,245150,DepthScenes,duration_manipulation_targetAtFixation,jsons/VE125_randls_22_rotated.json,http://54.235.29.9/FacialAge/BNav_EC2/DepthDuration/v2_depth_duration_MTurk/v2_DepthDuration_HTML.html#119,119,1366,657,1366,768,8-30-2022,11-26-37,100,depth_duration_stimuli/002425_2014-06-28_20-27-29_260595134347_rgbf000031-resize_8/002425_2014-06-28_20-27-29_260595134347_rgbf000031-resize_8-target.png,125,3.8960000000000004,2,1798,125,meters,jsons/VE125_randls_22_rotated.json,1031725,1350866,65,Woman
100,245150,DepthScenes,duration_manipulation_targetAtFixation,jsons/VE125_randls_22_rotated.json,http://54.235.29.9/FacialAge/BNav_EC2/DepthDuration/v2_depth_duration_MTurk/v2_DepthDuration_HTML.html#119,119,1366,657,1366,768,8-30-2022,11-26-37,101,depth_duration_stimuli/000642_2014-06-08_16-59-25_260595134347_rgbf000098-resize_2/000642_2014-06-08_16-59-25_260595134347_rgbf000098-resize_2-target.png,125,2.8815,2,1956,112,meters,jsons/VE125_randls_22_rotated.json,1031725,1350866,65,Woman
101,245150,DepthScenes,duration_manipulation_targetAtFixation,jsons/VE125_randls_22_rotated.json,http://54.235.29.9/FacialAge/BNav_EC2/DepthDuration/v2_depth_duration_MTurk/v2_DepthDuration_HTML.html#119,119,1366,657,1366,768,8-30-2022,11-26-37,102,depth_duration_stimuli/002758_2014-06-22_19-11-20_094959634447_rgbf000128-resize_1/002758_2014-06-22_19-11-20_094959634447_rgbf000128-resize_1-target.png,125,2.555,2,2081,125,meters,jsons/VE125_randls_22_rotated.json,1031725,1350866,65,Woman
102,245150,DepthScenes,duration_manipulation_targetAtFixation,jsons/VE125_randls_22_rotated.json,http://54.235.29.9/FacialAge/BNav_EC2/DepthDuration/v2_depth_duration_MTurk/v2_DepthDuration_HTML.html#119,119,1366,657,1366,768,8-30-2022,11-26-37,103,depth_duration_stimuli/002630_2014-06-24_14-47-50_094959634447_rgbf000055-resize_1/002630_2014-06-24_14-47-50_094959634447_rgbf000055-resize_1-target.png,125,3.0095,2,9398,112,meters,jsons/VE125_randls_22_rotated.json,1031725,1350866,65,Woman
103,245150,DepthScenes,duration_manipulation_targetAtFixation,jsons/VE125_randls_22_rotated.json,http://54.235.29.9/FacialAge/BNav_EC2/DepthDuration/v2_depth_duration_MTurk/v2_DepthDuration_HTML.html#119,119,1366,657,1366,768,8-30-2022,11-26-37,104,depth_duration_stimuli/003423_2014-05-21_10-23-26_094959634447_rgbf002665-resize_2/003423_2014-05-21_10-23-26_094959634447_rgbf002665-resize_2-target.png,125,3.2575,3,4976,74,meters,jsons/VE125_randls_22_rotated.json,1031725,1350866,65,Woman
104,245150,DepthScenes,duration_manipulation_targetAtFixation,jsons/VE125_randls_22_rotated.json,http://54.235.29.9/FacialAge/BNav_EC2/DepthDuration/v2_depth_duration_MTurk/v2_DepthDuration_HTML.html#119,119,1366,657,1366,768,8-30-2022,11-26-37,105,depth_duration_stimuli/002905_2014-06-03_18-04-43_094959634447_rgbf000151-resize_2/002905_2014-06-03_18-04-43_094959634447_rgbf000151-resize_2-target.png,125,2.0295,2,6259,127,meters,jsons/VE125_randls_22_rotated.json,1031725,1350866,65,Woman
105,245150,DepthScenes,duration_manipulation_targetAtFixation,jsons/VE125_randls_22_rotated.json,http://54.235.29.9/FacialAge/BNav_EC2/DepthDuration/v2_depth_duration_MTurk/v2_DepthDuration_HTML.html#119,119,1366,657,1366,768,8-30-2022,11-26-37,106,depth_duration_stimuli/003495_2014-05-21_16-01-51_094959634447_rgbf000100-resize_3/003495_2014-05-21_16-01-51_094959634447_rgbf000100-resize_3-target.png,125,1.6255,3,2284,110,meters,jsons/VE125_randls_22_rotated.json,1031725,1350866,65,Woman
106,245150,DepthScenes,duration_manipulation_targetAtFixation,jsons/VE125_randls_22_rotated.json,http://54.235.29.9/FacialAge/BNav_EC2/DepthDuration/v2_depth_duration_MTurk/v2_DepthDuration_HTML.html#119,119,1366,657,1366,768,8-30-2022,11-26-37,107,depth_duration_stimuli/001244_2014-06-17_16-47-45_260595134347_rgbf000030-resize_4/001244_2014-06-17_16-47-45_260595134347_rgbf000030-resize_4-target.png,125,2.0425,5,2700,145,meters,jsons/VE125_randls_22_rotated.json,1031725,1350866,65,Woman
107,245150,DepthScenes,duration_manipulation_targetAtFixation,jsons/VE125_randls_22_rotated.json,http://54.235.29.9/FacialAge/BNav_EC2/DepthDuration/v2_depth_duration_MTurk/v2_DepthDuration_HTML.html#119,119,1366,657,1366,768,8-30-2022,11-26-37,108,depth_duration_stimuli/002660_2014-06-13_15-44-18_094959634447_rgbf001878-resize_2/002660_2014-06-13_15-44-18_094959634447_rgbf001878-resize_2-target.png,125,3.576,3,2333,125,meters,jsons/VE125_randls_22_rotated.json,1031725,1350866,65,Woman
108,245150,DepthScenes,duration_manipulation_targetAtFixation,jsons/VE125_randls_22_rotated.json,http://54.235.29.9/FacialAge/BNav_EC2/DepthDuration/v2_depth_duration_MTurk/v2_DepthDuration_HTML.html#119,119,1366,657,1366,768,8-30-2022,11-26-37,109,depth_duration_stimuli/002153_2014-06-25_21-27-18_260595134347_rgbf000038-resize_5/002153_2014-06-25_21-27-18_260595134347_rgbf000038-resize_5-target.png,125,2.505,3,2392,105,meters,jsons/VE125_randls_22_rotated.json,1031725,1350866,65,Woman
109,245150,DepthScenes,duration_manipulation_targetAtFixation,jsons/VE125_randls_22_rotated.json,http://54.235.29.9/FacialAge/BNav_EC2/DepthDuration/v2_depth_duration_MTurk/v2_DepthDuration_HTML.html#119,119,1366,657,1366,768,8-30-2022,11-26-37,110,depth_duration_stimuli/002323_2014-06-28_20-01-54_260595134347_rgbf000051-resize_4/002323_2014-06-28_20-01-54_260595134347_rgbf000051-resize_4-target.png,125,3.7310000000000003,2,2250,116,meters,jsons/VE125_randls_22_rotated.json,1031725,1350866,65,Woman
110,245150,DepthScenes,duration_manipulation_targetAtFixation,jsons/VE125_randls_22_rotated.json,http://54.235.29.9/FacialAge/BNav_EC2/DepthDuration/v2_depth_duration_MTurk/v2_DepthDuration_HTML.html#119,119,1366,657,1366,768,8-30-2022,11-26-37,111,depth_duration_stimuli/000917_2014-06-09_22-45-29_260595134347_rgbf000149-resize_3/000917_2014-06-09_22-45-29_260595134347_rgbf000149-resize_3-target.png,125,4.1865,2,6061,126,meters,jsons/VE125_randls_22_rotated.json,1031725,1350866,65,Woman
111,245150,DepthScenes,duration_manipulation_targetAtFixation,jsons/VE125_randls_22_rotated.json,http://54.235.29.9/FacialAge/BNav_EC2/DepthDuration/v2_depth_duration_MTurk/v2_DepthDuration_HTML.html#119,119,1366,657,1366,768,8-30-2022,11-26-37,112,depth_duration_stimuli/001214_2014-06-17_16-13-55_260595134347_rgbf000111-resize_0/001214_2014-06-17_16-13-55_260595134347_rgbf000111-resize_0-target.png,125,2.6505,3,4832,106,meters,jsons/VE125_randls_22_rotated.json,1031725,1350866,65,Woman
112,245150,DepthScenes,duration_manipulation_targetAtFixation,jsons/VE125_randls_22_rotated.json,http://54.235.29.9/FacialAge/BNav_EC2/DepthDuration/v2_depth_duration_MTurk/v2_DepthDuration_HTML.html#119,119,1366,657,1366,768,8-30-2022,11-26-37,113,depth_duration_stimuli/000810_2014-06-08_17-20-01_260595134347_rgbf000105-resize_0/000810_2014-06-08_17-20-01_260595134347_rgbf000105-resize_0-target.png,125,1.4865,3,3828,124,meters,jsons/VE125_randls_22_rotated.json,1031725,1350866,65,Woman
113,245150,DepthScenes,duration_manipulation_targetAtFixation,jsons/VE125_randls_22_rotated.json,http://54.235.29.9/FacialAge/BNav_EC2/DepthDuration/v2_depth_duration_MTurk/v2_DepthDuration_HTML.html#119,119,1366,657,1366,768,8-30-2022,11-26-37,114,depth_duration_stimuli/000749_2014-06-08_21-55-06_260595134347_rgbf000070-resize_2/000749_2014-06-08_21-55-06_260595134347_rgbf000070-resize_2-target.png,125,2.331,4,2127,38,meters,jsons/VE125_randls_22_rotated.json,1031725,1350866,65,Woman
114,245150,DepthScenes,duration_manipulation_targetAtFixation,jsons/VE125_randls_22_rotated.json,http://54.235.29.9/FacialAge/BNav_EC2/DepthDuration/v2_depth_duration_MTurk/v2_DepthDuration_HTML.html#119,119,1366,657,1366,768,8-30-2022,11-26-37,115,depth_duration_stimuli/002788_2014-06-22_19-36-03_094959634447_rgbf000088-resize_2/002788_2014-06-22_19-36-03_094959634447_rgbf000088-resize_2-target.png,125,1.6465,3,2095,28,meters,jsons/VE125_randls_22_rotated.json,1031725,1350866,65,Woman
115,245150,DepthScenes,duration_manipulation_targetAtFixation,jsons/VE125_randls_22_rotated.json,http://54.235.29.9/FacialAge/BNav_EC2/DepthDuration/v2_depth_duration_MTurk/v2_DepthDuration_HTML.html#119,119,1366,657,1366,768,8-30-2022,11-26-37,116,depth_duration_stimuli/001584_2014-06-20_11-07-43_260595134347_rgbf000002-resize_1/001584_2014-06-20_11-07-43_260595134347_rgbf000002-resize_1-target.png,125,3.53,4,2173,140,meters,jsons/VE125_randls_22_rotated.json,1031725,1350866,65,Woman
116,245150,DepthScenes,duration_manipulation_targetAtFixation,jsons/VE125_randls_22_rotated.json,http://54.235.29.9/FacialAge/BNav_EC2/DepthDuration/v2_depth_duration_MTurk/v2_DepthDuration_HTML.html#119,119,1366,657,1366,768,8-30-2022,11-26-37,117,depth_duration_stimuli/003621_2014-05-23_18-06-08_094959634447_rgbf000101-resize_1/003621_2014-05-23_18-06-08_094959634447_rgbf000101-resize_1-target.png,125,3.9835,5,2155,144,meters,jsons/VE125_randls_22_rotated.json,1031725,1350866,65,Woman
117,245150,DepthScenes,duration_manipulation_targetAtFixation,jsons/VE125_randls_22_rotated.json,http://54.235.29.9/FacialAge/BNav_EC2/DepthDuration/v2_depth_duration_MTurk/v2_DepthDuration_HTML.html#119,119,1366,657,1366,768,8-30-2022,11-26-37,118,depth_duration_stimuli/000483_2014-06-09_20-41-45_260595134347_rgbf000116-resize_4/000483_2014-06-09_20-41-45_260595134347_rgbf000116-resize_4-target.png,125,1.337,3,3178,123,meters,jsons/VE125_randls_22_rotated.json,1031725,1350866,65,Woman
118,245150,DepthScenes,duration_manipulation_targetAtFixation,jsons/VE125_randls_22_rotated.json,http://54.235.29.9/FacialAge/BNav_EC2/DepthDuration/v2_depth_duration_MTurk/v2_DepthDuration_HTML.html#119,119,1366,657,1366,768,8-30-2022,11-26-37,119,depth_duration_stimuli/000469_2014-06-09_19-42-10_260595134347_rgbf000081-resize_1/000469_2014-06-09_19-42-10_260595134347_rgbf000081-resize_1-target.png,125,1.652,2,2445,134,meters,jsons/VE125_randls_22_rotated.json,1031725,1350866,65,Woman
119,245150,DepthScenes,duration_manipulation_targetAtFixation,jsons/VE125_randls_22_rotated.json,http://54.235.29.9/FacialAge/BNav_EC2/DepthDuration/v2_depth_duration_MTurk/v2_DepthDuration_HTML.html#119,119,1366,657,1366,768,8-30-2022,11-26-37,120,depth_duration_stimuli/000787_2014-06-08_22-33-53_260595134347_rgbf000175-resize_1/000787_2014-06-08_22-33-53_260595134347_rgbf000175-resize-original.jpg,125,4.784,4,2249,122,meters,jsons/VE125_randls_22_rotated.json,1031725,1350866,65,Woman
120,245150,DepthScenes,duration_manipulation_targetAtFixation,jsons/VE125_randls_22_rotated.json,http://54.235.29.9/FacialAge/BNav_EC2/DepthDuration/v2_depth_duration_MTurk/v2_DepthDuration_HTML.html#119,119,1366,657,1366,768,8-30-2022,11-26-37,121,depth_duration_stimuli/001235_2014-06-17_16-37-36_260595134347_rgbf000084-resize_4/001235_2014-06-17_16-37-36_260595134347_rgbf000084-resize_4-target.png,125,3.6605,4,2272,127,meters,jsons/VE125_randls_22_rotated.json,1031725,1350866,65,Woman
121,245150,DepthScenes,duration_manipulation_targetAtFixation,jsons/VE125_randls_22_rotated.json,http://54.235.29.9/FacialAge/BNav_EC2/DepthDuration/v2_depth_duration_MTurk/v2_DepthDuration_HTML.html#119,119,1366,657,1366,768,8-30-2022,11-26-37,122,depth_duration_stimuli/000788_2014-06-08_22-34-36_260595134347_rgbf000131-resize_1/000788_2014-06-08_22-34-36_260595134347_rgbf000131-resize_1-target.png,125,3.359,3,2126,62,meters,jsons/VE125_randls_22_rotated.json,1031725,1350866,65,Woman
122,245150,DepthScenes,duration_manipulation_targetAtFixation,jsons/VE125_randls_22_rotated.json,http://54.235.29.9/FacialAge/BNav_EC2/DepthDuration/v2_depth_duration_MTurk/v2_DepthDuration_HTML.html#119,119,1366,657,1366,768,8-30-2022,11-26-37,123,depth_duration_stimuli/000109_2014-05-14_23-41-52_260595134347_rgbf000035-resize_9/000109_2014-05-14_23-41-52_260595134347_rgbf000035-resize_9-target.png,125,1.3545,3,2211,155,meters,jsons/VE125_randls_22_rotated.json,1031725,1350866,65,Woman
123,245150,DepthScenes,duration_manipulation_targetAtFixation,jsons/VE125_randls_22_rotated.json,http://54.235.29.9/FacialAge/BNav_EC2/DepthDuration/v2_depth_duration_MTurk/v2_DepthDuration_HTML.html#119,119,1366,657,1366,768,8-30-2022,11-26-37,124,depth_duration_stimuli/000470_2014-06-09_19-42-40_260595134347_rgbf000094-resize_1/000470_2014-06-09_19-42-40_260595134347_rgbf000094-resize_1-target.png,125,1.831,5,2559,112,meters,jsons/VE125_randls_22_rotated.json,1031725,1350866,65,Woman
124,245150,DepthScenes,duration_manipulation_targetAtFixation,jsons/VE125_randls_22_rotated.json,http://54.235.29.9/FacialAge/BNav_EC2/DepthDuration/v2_depth_duration_MTurk/v2_DepthDuration_HTML.html#119,119,1366,657,1366,768,8-30-2022,11-26-37,125,depth_duration_stimuli/003338_2014-05-20_11-01-23_094959634447_rgbf000051-resize_6/003338_2014-05-20_11-01-23_094959634447_rgbf000051-resize_6-target.png,125,1.693,3,2342,131,meters,jsons/VE125_randls_22_rotated.json,1031725,1350866,65,Woman
125,245150,DepthScenes,duration_manipulation_targetAtFixation,jsons/VE125_randls_22_rotated.json,http://54.235.29.9/FacialAge/BNav_EC2/DepthDuration/v2_depth_duration_MTurk/v2_DepthDuration_HTML.html#119,119,1366,657,1366,768,8-30-2022,11-26-37,126,depth_duration_stimuli/002509_2014-06-24_13-19-22_094959634447_rgbf000077-resize_0/002509_2014-06-24_13-19-22_094959634447_rgbf000077-resize_0-target.png,125,1.3065,3,12642,126,meters,jsons/VE125_randls_22_rotated.json,1031725,1350866,65,Woman
126,245150,DepthScenes,duration_manipulation_targetAtFixation,jsons/VE125_randls_22_rotated.json,http://54.235.29.9/FacialAge/BNav_EC2/DepthDuration/v2_depth_duration_MTurk/v2_DepthDuration_HTML.html#119,119,1366,657,1366,768,8-30-2022,11-26-37,127,depth_duration_stimuli/000709_2014-06-08_13-51-55_260595134347_rgbf000068-resize_3/000709_2014-06-08_13-51-55_260595134347_rgbf000068-resize_3-target.png,125,1.8030000000000002,4,2404,130,meters,jsons/VE125_randls_22_rotated.json,1031725,1350866,65,Woman
127,245150,DepthScenes,duration_manipulation_targetAtFixation,jsons/VE125_randls_22_rotated.json,http://54.235.29.9/FacialAge/BNav_EC2/DepthDuration/v2_depth_duration_MTurk/v2_DepthDuration_HTML.html#119,119,1366,657,1366,768,8-30-2022,11-26-37,128,depth_duration_stimuli/002057_2014-06-24_21-00-13_260595134347_rgbf000120-resize_1/002057_2014-06-24_21-00-13_260595134347_rgbf000120-resize_1-target.png,125,2.967,3,2185,121,meters,jsons/VE125_randls_22_rotated.json,1031725,1350866,65,Woman
128,245150,DepthScenes,duration_manipulation_targetAtFixation,jsons/VE125_randls_22_rotated.json,http://54.235.29.9/FacialAge/BNav_EC2/DepthDuration/v2_depth_duration_MTurk/v2_DepthDuration_HTML.html#119,119,1366,657,1366,768,8-30-2022,11-26-37,129,depth_duration_stimuli/002637_2014-06-24_14-51-13_094959634447_rgbf000066-resize_4/002637_2014-06-24_14-51-13_094959634447_rgbf000066-resize_4-target.png,125,1.9955,3,22537,126,meters,jsons/VE125_randls_22_rotated.json,1031725,1350866,65,Woman
129,245150,DepthScenes,duration_manipulation_targetAtFixation,jsons/VE125_randls_22_rotated.json,http://54.235.29.9/FacialAge/BNav_EC2/DepthDuration/v2_depth_duration_MTurk/v2_DepthDuration_HTML.html#119,119,1366,657,1366,768,8-30-2022,11-26-37,130,depth_duration_stimuli/003534_2014-05-22_15-06-10_094959634447_rgbf000102-resize_4/003534_2014-05-22_15-06-10_094959634447_rgbf000102-resize_4-target.png,125,1.426,4,4700,123,meters,jsons/VE125_randls_22_rotated.json,1031725,1350866,65,Woman
130,245150,DepthScenes,duration_manipulation_targetAtFixation,jsons/VE125_randls_22_rotated.json,http://54.235.29.9/FacialAge/BNav_EC2/DepthDuration/v2_depth_duration_MTurk/v2_DepthDuration_HTML.html#119,119,1366,657,1366,768,8-30-2022,11-26-37,131,depth_duration_stimuli/002344_2014-06-28_20-06-29_260595134347_rgbf000030-resize_1/002344_2014-06-28_20-06-29_260595134347_rgbf000030-resize_1-target.png,125,1.5795,3,2518,118,meters,jsons/VE125_randls_22_rotated.json,1031725,1350866,65,Woman
131,245150,DepthScenes,duration_manipulation_targetAtFixation,jsons/VE125_randls_22_rotated.json,http://54.235.29.9/FacialAge/BNav_EC2/DepthDuration/v2_depth_duration_MTurk/v2_DepthDuration_HTML.html#119,119,1366,657,1366,768,8-30-2022,11-26-37,132,depth_duration_stimuli/002725_2014-06-22_11-47-51_094959634447_rgbf000070-resize_1/002725_2014-06-22_11-47-51_094959634447_rgbf000070-resize_1-target.png,125,2.195,3,3774,111,meters,jsons/VE125_randls_22_rotated.json,1031725,1350866,65,Woman
132,245150,DepthScenes,duration_manipulation_targetAtFixation,jsons/VE125_randls_22_rotated.json,http://54.235.29.9/FacialAge/BNav_EC2/DepthDuration/v2_depth_duration_MTurk/v2_DepthDuration_HTML.html#119,119,1366,657,1366,768,8-30-2022,11-26-37,133,depth_duration_stimuli/002805_2014-06-22_19-54-03_094959634447_rgbf000079-resize_1/002805_2014-06-22_19-54-03_094959634447_rgbf000079-resize_1-target.png,125,3.1439999999999997,4,2015,114,meters,jsons/VE125_randls_22_rotated.json,1031725,1350866,65,Woman
133,245150,DepthScenes,duration_manipulation_targetAtFixation,jsons/VE125_randls_22_rotated.json,http://54.235.29.9/FacialAge/BNav_EC2/DepthDuration/v2_depth_duration_MTurk/v2_DepthDuration_HTML.html#119,119,1366,657,1366,768,8-30-2022,11-26-37,134,depth_duration_stimuli/000906_2014-06-08_13-35-43_260595134347_rgbf000155-resize_1/000906_2014-06-08_13-35-43_260595134347_rgbf000155-resize_1-target.png,125,2.8489999999999998,3,1975,122,meters,jsons/VE125_randls_22_rotated.json,1031725,1350866,65,Woman
134,245150,DepthScenes,duration_manipulation_targetAtFixation,jsons/VE125_randls_22_rotated.json,http://54.235.29.9/FacialAge/BNav_EC2/DepthDuration/v2_depth_duration_MTurk/v2_DepthDuration_HTML.html#119,119,1366,657,1366,768,8-30-2022,11-26-37,135,depth_duration_stimuli/000375_2014-06-08_11-17-29_260595134347_rgbf000133-resize_2/000375_2014-06-08_11-17-29_260595134347_rgbf000133-resize-original.jpg,125,4.718,2,5594,125,meters,jsons/VE125_randls_22_rotated.json,1031725,1350866,65,Woman
135,245150,DepthScenes,duration_manipulation_targetAtFixation,jsons/VE125_randls_22_rotated.json,http://54.235.29.9/FacialAge/BNav_EC2/DepthDuration/v2_depth_duration_MTurk/v2_DepthDuration_HTML.html#119,119,1366,657,1366,768,8-30-2022,11-26-37,136,depth_duration_stimuli/003083_2014-06-15_15-21-03_094959634447_rgbf000063-resize_1/003083_2014-06-15_15-21-03_094959634447_rgbf000063-resize_1-target.png,125,4.1405,3,2252,105,meters,jsons/VE125_randls_22_rotated.json,1031725,1350866,65,Woman
136,245150,DepthScenes,duration_manipulation_targetAtFixation,jsons/VE125_randls_22_rotated.json,http://54.235.29.9/FacialAge/BNav_EC2/DepthDuration/v2_depth_duration_MTurk/v2_DepthDuration_HTML.html#119,119,1366,657,1366,768,8-30-2022,11-26-37,137,depth_duration_stimuli/000486_2014-06-09_20-47-20_260595134347_rgbf000143-resize_2/000486_2014-06-09_20-47-20_260595134347_rgbf000143-resize_2-target.png,125,4.8325,3,2156,121,meters,jsons/VE125_randls_22_rotated.json,1031725,1350866,65,Woman
137,245150,DepthScenes,duration_manipulation_targetAtFixation,jsons/VE125_randls_22_rotated.json,http://54.235.29.9/FacialAge/BNav_EC2/DepthDuration/v2_depth_duration_MTurk/v2_DepthDuration_HTML.html#119,119,1366,657,1366,768,8-30-2022,11-26-37,138,depth_duration_stimuli/002949_2014-06-26_15-57-42_094959634447_rgbf000079-resize_1/002949_2014-06-26_15-57-42_094959634447_rgbf000079-resize_1-target.png,125,1.8915,2,2154,121,meters,jsons/VE125_randls_22_rotated.json,1031725,1350866,65,Woman
138,245150,DepthScenes,duration_manipulation_targetAtFixation,jsons/VE125_randls_22_rotated.json,http://54.235.29.9/FacialAge/BNav_EC2/DepthDuration/v2_depth_duration_MTurk/v2_DepthDuration_HTML.html#119,119,1366,657,1366,768,8-30-2022,11-26-37,139,depth_duration_stimuli/000522_2014-06-08_13-35-06_260595134347_rgbf000244-resize_1/000522_2014-06-08_13-35-06_260595134347_rgbf000244-resize_1-target.png,125,2.3715,4,2373,125,meters,jsons/VE125_randls_22_rotated.json,1031725,1350866,65,Woman
139,245150,DepthScenes,duration_manipulation_targetAtFixation,jsons/VE125_randls_22_rotated.json,http://54.235.29.9/FacialAge/BNav_EC2/DepthDuration/v2_depth_duration_MTurk/v2_DepthDuration_HTML.html#119,119,1366,657,1366,768,8-30-2022,11-26-37,140,depth_duration_stimuli/001447_2014-06-19_17-00-32_260595134347_rgbf000082-resize_5/001447_2014-06-19_17-00-32_260595134347_rgbf000082-resize_5-target.png,125,4.13775,4,2361,238,meters,jsons/VE125_randls_22_rotated.json,1031725,1350866,65,Woman
140,245150,DepthScenes,duration_manipulation_targetAtFixation,jsons/VE125_randls_22_rotated.json,http://54.235.29.9/FacialAge/BNav_EC2/DepthDuration/v2_depth_duration_MTurk/v2_DepthDuration_HTML.html#119,119,1366,657,1366,768,8-30-2022,11-26-37,141,depth_duration_stimuli/000447_2014-06-08_16-15-46_260595134347_rgbf000130-resize_1/000447_2014-06-08_16-15-46_260595134347_rgbf000130-resize_1-target.png,125,4.479,2,2577,124,meters,jsons/VE125_randls_22_rotated.json,1031725,1350866,65,Woman
141,245150,DepthScenes,duration_manipulation_targetAtFixation,jsons/VE125_randls_22_rotated.json,http://54.235.29.9/FacialAge/BNav_EC2/DepthDuration/v2_depth_duration_MTurk/v2_DepthDuration_HTML.html#119,119,1366,657,1366,768,8-30-2022,11-26-37,142,depth_duration_stimuli/000457_2014-06-08_16-52-43_260595134347_rgbf000199-resize_1/000457_2014-06-08_16-52-43_260595134347_rgbf000199-resize_1-target.png,125,3.6489999999999996,2,1841,118,meters,jsons/VE125_randls_22_rotated.json,1031725,1350866,65,Woman
142,245150,DepthScenes,duration_manipulation_targetAtFixation,jsons/VE125_randls_22_rotated.json,http://54.235.29.9/FacialAge/BNav_EC2/DepthDuration/v2_depth_duration_MTurk/v2_DepthDuration_HTML.html#119,119,1366,657,1366,768,8-30-2022,11-26-37,143,depth_duration_stimuli/000929_2014-06-09_16-33-19_260595134347_rgbf000139-resize_0/000929_2014-06-09_16-33-19_260595134347_rgbf000139-resize_0-target.png,125,2.8680000000000003,3,2288,123,meters,jsons/VE125_randls_22_rotated.json,1031725,1350866,65,Woman
143,245150,DepthScenes,duration_manipulation_targetAtFixation,jsons/VE125_randls_22_rotated.json,http://54.235.29.9/FacialAge/BNav_EC2/DepthDuration/v2_depth_duration_MTurk/v2_DepthDuration_HTML.html#119,119,1366,657,1366,768,8-30-2022,11-26-37,144,depth_duration_stimuli/001828_2014-06-26_21-40-03_260595134347_rgbf000024-resize_0/001828_2014-06-26_21-40-03_260595134347_rgbf000024-resize_0-target.png,125,4.8260000000000005,3,2411,120,meters,jsons/VE125_randls_22_rotated.json,1031725,1350866,65,Woman
144,245150,DepthScenes,duration_manipulation_targetAtFixation,jsons/VE125_randls_22_rotated.json,http://54.235.29.9/FacialAge/BNav_EC2/DepthDuration/v2_depth_duration_MTurk/v2_DepthDuration_HTML.html#119,119,1366,657,1366,768,8-30-2022,11-26-37,145,depth_duration_stimuli/000009_2014-05-26_14-32-05_260595134347_rgbf000034-resize_3/000009_2014-05-26_14-32-05_260595134347_rgbf000034-resize_3-target.png,125,3.8715,2,2234,126,meters,jsons/VE125_randls_22_rotated.json,1031725,1350866,65,Woman
145,245150,DepthScenes,duration_manipulation_targetAtFixation,jsons/VE125_randls_22_rotated.json,http://54.235.29.9/FacialAge/BNav_EC2/DepthDuration/v2_depth_duration_MTurk/v2_DepthDuration_HTML.html#119,119,1366,657,1366,768,8-30-2022,11-26-37,146,depth_duration_stimuli/002639_2014-06-24_14-51-37_094959634447_rgbf000074-resize_4/002639_2014-06-24_14-51-37_094959634447_rgbf000074-resize_4-target.png,125,4.0375,4,2530,111,meters,jsons/VE125_randls_22_rotated.json,1031725,1350866,65,Woman
146,245150,DepthScenes,duration_manipulation_targetAtFixation,jsons/VE125_randls_22_rotated.json,http://54.235.29.9/FacialAge/BNav_EC2/DepthDuration/v2_depth_duration_MTurk/v2_DepthDuration_HTML.html#119,119,1366,657,1366,768,8-30-2022,11-26-37,147,depth_duration_stimuli/003292_2014-05-14_21-53-49_094959634447_rgbf000100-resize_2/003292_2014-05-14_21-53-49_094959634447_rgbf000100-resize_2-target.png,125,3.4815,3,14234,119,meters,jsons/VE125_randls_22_rotated.json,1031725,1350866,65,Woman
147,245150,DepthScenes,duration_manipulation_targetAtFixation,jsons/VE125_randls_22_rotated.json,http://54.235.29.9/FacialAge/BNav_EC2/DepthDuration/v2_depth_duration_MTurk/v2_DepthDuration_HTML.html#119,119,1366,657,1366,768,8-30-2022,11-26-37,148,depth_duration_stimuli/000691_2014-06-08_13-08-50_260595134347_rgbf000132-resize_3/000691_2014-06-08_13-08-50_260595134347_rgbf000132-resize_3-target.png,125,4.1530000000000005,3,9582,122,meters,jsons/VE125_randls_22_rotated.json,1031725,1350866,65,Woman
148,245150,DepthScenes,duration_manipulation_targetAtFixation,jsons/VE125_randls_22_rotated.json,http://54.235.29.9/FacialAge/BNav_EC2/DepthDuration/v2_depth_duration_MTurk/v2_DepthDuration_HTML.html#119,119,1366,657,1366,768,8-30-2022,11-26-37,149,depth_duration_stimuli/002213_2014-06-28_18-37-58_260595134347_rgbf000055-resize_1/002213_2014-06-28_18-37-58_260595134347_rgbf000055-resize_1-target.png,125,3.62,3,4517,134,meters,jsons/VE125_randls_22_rotated.json,1031725,1350866,65,Woman
149,245150,DepthScenes,duration_manipulation_targetAtFixation,jsons/VE125_randls_22_rotated.json,http://54.235.29.9/FacialAge/BNav_EC2/DepthDuration/v2_depth_duration_MTurk/v2_DepthDuration_HTML.html#119,119,1366,657,1366,768,8-30-2022,11-26-37,150,depth_duration_stimuli/002467_2014-06-28_20-38-07_260595134347_rgbf000026-resize_2/002467_2014-06-28_20-38-07_260595134347_rgbf000026-resize_2-target.png,125,4.742,4,6568,105,meters,jsons/VE125_randls_22_rotated.json,1031725,1350866,65,Woman
150,245150,DepthScenes,duration_manipulation_targetAtFixation,jsons/VE125_randls_22_rotated.json,http://54.235.29.9/FacialAge/BNav_EC2/DepthDuration/v2_depth_duration_MTurk/v2_DepthDuration_HTML.html#119,119,1366,657,1366,768,8-30-2022,11-26-37,151,depth_duration_stimuli/002570_2014-06-24_13-59-54_094959634447_rgbf000059-resize_0/002570_2014-06-24_13-59-54_094959634447_rgbf000059-resize_0-target.png,125,4.037,3,2095,123,meters,jsons/VE125_randls_22_rotated.json,1031725,1350866,65,Woman
151,245150,DepthScenes,duration_manipulation_targetAtFixation,jsons/VE125_randls_22_rotated.json,http://54.235.29.9/FacialAge/BNav_EC2/DepthDuration/v2_depth_duration_MTurk/v2_DepthDuration_HTML.html#119,119,1366,657,1366,768,8-30-2022,11-26-37,152,depth_duration_stimuli/000569_2014-06-09_22-51-47_260595134347_rgbf000141-resize_3/000569_2014-06-09_22-51-47_260595134347_rgbf000141-resize-original.jpg,125,4.512,2,2202,116,meters,jsons/VE125_randls_22_rotated.json,1031725,1350866,65,Woman
152,245150,DepthScenes,duration_manipulation_targetAtFixation,jsons/VE125_randls_22_rotated.json,http://54.235.29.9/FacialAge/BNav_EC2/DepthDuration/v2_depth_duration_MTurk/v2_DepthDuration_HTML.html#119,119,1366,657,1366,768,8-30-2022,11-26-37,153,depth_duration_stimuli/003129_2014-05-12_10-48-10_094959634447_rgbf000100-resize_0/003129_2014-05-12_10-48-10_094959634447_rgbf000100-resize_0-target.png,125,4.9305,3,1953,118,meters,jsons/VE125_randls_22_rotated.json,1031725,1350866,65,Woman
153,245150,DepthScenes,duration_manipulation_targetAtFixation,jsons/VE125_randls_22_rotated.json,http://54.235.29.9/FacialAge/BNav_EC2/DepthDuration/v2_depth_duration_MTurk/v2_DepthDuration_HTML.html#119,119,1366,657,1366,768,8-30-2022,11-26-37,154,depth_duration_stimuli/000414_2014-06-04_19-49-13_260595134347_rgbf000044-resize_0/000414_2014-06-04_19-49-13_260595134347_rgbf000044-resize_0-target.png,125,4.329,2,1723,242,meters,jsons/VE125_randls_22_rotated.json,1031725,1350866,65,Woman
154,245150,DepthScenes,duration_manipulation_targetAtFixation,jsons/VE125_randls_22_rotated.json,http://54.235.29.9/FacialAge/BNav_EC2/DepthDuration/v2_depth_duration_MTurk/v2_DepthDuration_HTML.html#119,119,1366,657,1366,768,8-30-2022,11-26-37,155,depth_duration_stimuli/002875_2014-06-01_15-19-00_094959634447_rgbf000151-resize_1/002875_2014-06-01_15-19-00_094959634447_rgbf000151-resize_1-target.png,125,1.9675,2,1847,120,meters,jsons/VE125_randls_22_rotated.json,1031725,1350866,65,Woman
155,245150,DepthScenes,duration_manipulation_targetAtFixation,jsons/VE125_randls_22_rotated.json,http://54.235.29.9/FacialAge/BNav_EC2/DepthDuration/v2_depth_duration_MTurk/v2_DepthDuration_HTML.html#119,119,1366,657,1366,768,8-30-2022,11-26-37,156,depth_duration_stimuli/001011_2014-06-08_23-18-54_260595134347_rgbf000044-resize_4/001011_2014-06-08_23-18-54_260595134347_rgbf000044-resize_4-target.png,125,2.4730000000000003,1,2346,123,meters,jsons/VE125_randls_22_rotated.json,1031725,1350866,65,Woman
156,245150,DepthScenes,duration_manipulation_targetAtFixation,jsons/VE125_randls_22_rotated.json,http://54.235.29.9/FacialAge/BNav_EC2/DepthDuration/v2_depth_duration_MTurk/v2_DepthDuration_HTML.html#119,119,1366,657,1366,768,8-30-2022,11-26-37,157,depth_duration_stimuli/002750_2014-06-22_19-08-03_094959634447_rgbf000094-resize_4/002750_2014-06-22_19-08-03_094959634447_rgbf000094-resize_4-target.png,125,2.354,2,1876,127,meters,jsons/VE125_randls_22_rotated.json,1031725,1350866,65,Woman
157,245150,DepthScenes,duration_manipulation_targetAtFixation,jsons/VE125_randls_22_rotated.json,http://54.235.29.9/FacialAge/BNav_EC2/DepthDuration/v2_depth_duration_MTurk/v2_DepthDuration_HTML.html#119,119,1366,657,1366,768,8-30-2022,11-26-37,158,depth_duration_stimuli/002549_2014-06-24_13-41-39_094959634447_rgbf000022-resize_3/002549_2014-06-24_13-41-39_094959634447_rgbf000022-resize_3-target.png,125,1.476,1,14366,111,meters,jsons/VE125_randls_22_rotated.json,1031725,1350866,65,Woman
158,245150,DepthScenes,duration_manipulation_targetAtFixation,jsons/VE125_randls_22_rotated.json,http://54.235.29.9/FacialAge/BNav_EC2/DepthDuration/v2_depth_duration_MTurk/v2_DepthDuration_HTML.html#119,119,1366,657,1366,768,8-30-2022,11-26-37,159,depth_duration_stimuli/000635_2014-06-08_16-38-42_260595134347_rgbf000106-resize_1/000635_2014-06-08_16-38-42_260595134347_rgbf000106-resize_1-target.png,125,2.074,2,4949,115,meters,jsons/VE125_randls_22_rotated.json,1031725,1350866,65,Woman
159,245150,DepthScenes,duration_manipulation_targetAtFixation,jsons/VE125_randls_22_rotated.json,http://54.235.29.9/FacialAge/BNav_EC2/DepthDuration/v2_depth_duration_MTurk/v2_DepthDuration_HTML.html#119,119,1366,657,1366,768,8-30-2022,11-26-37,160,depth_duration_stimuli/002279_2014-06-28_18-55-32_260595134347_rgbf000040-resize_5/002279_2014-06-28_18-55-32_260595134347_rgbf000040-resize_5-target.png,125,1.5043333333333,2,4039,125,meters,jsons/VE125_randls_22_rotated.json,1031725,1350866,65,Woman
160,245150,DepthScenes,duration_manipulation_targetAtFixation,jsons/VE125_randls_22_rotated.json,http://54.235.29.9/FacialAge/BNav_EC2/DepthDuration/v2_depth_duration_MTurk/v2_DepthDuration_HTML.html#119,119,1366,657,1366,768,8-30-2022,11-26-37,161,depth_duration_stimuli/002568_2014-06-24_13-59-21_094959634447_rgbf000062-resize_4/002568_2014-06-24_13-59-21_094959634447_rgbf000062-resize_4-target.png,125,3.015,2,97043,119,meters,jsons/VE125_randls_22_rotated.json,1031725,1350866,65,Woman
161,245150,DepthScenes,duration_manipulation_targetAtFixation,jsons/VE125_randls_22_rotated.json,http://54.235.29.9/FacialAge/BNav_EC2/DepthDuration/v2_depth_duration_MTurk/v2_DepthDuration_HTML.html#119,119,1366,657,1366,768,8-30-2022,11-26-37,162,depth_duration_stimuli/003492_2014-05-21_15-50-55_094959634447_rgbf000828-resize_1/003492_2014-05-21_15-50-55_094959634447_rgbf000828-resize_1-target.png,125,4.06875,3,9345,121,meters,jsons/VE125_randls_22_rotated.json,1031725,1350866,65,Woman
162,245150,DepthScenes,duration_manipulation_targetAtFixation,jsons/VE125_randls_22_rotated.json,http://54.235.29.9/FacialAge/BNav_EC2/DepthDuration/v2_depth_duration_MTurk/v2_DepthDuration_HTML.html#119,119,1366,657,1366,768,8-30-2022,11-26-37,163,depth_duration_stimuli/001617_2014-06-20_11-35-32_260595134347_rgbf000066-resize_1/001617_2014-06-20_11-35-32_260595134347_rgbf000066-resize_1-target.png,125,3.7910000000000004,3,3809,124,meters,jsons/VE125_randls_22_rotated.json,1031725,1350866,65,Woman
163,245150,DepthScenes,duration_manipulation_targetAtFixation,jsons/VE125_randls_22_rotated.json,http://54.235.29.9/FacialAge/BNav_EC2/DepthDuration/v2_depth_duration_MTurk/v2_DepthDuration_HTML.html#119,119,1366,657,1366,768,8-30-2022,11-26-37,164,depth_duration_stimuli/001806_2014-06-26_20-50-20_260595134347_rgbf000091-resize_1/001806_2014-06-26_20-50-20_260595134347_rgbf000091-resize_1-target.png,125,2.7305,2,3979,143,meters,jsons/VE125_randls_22_rotated.json,1031725,1350866,65,Woman
