,subjID,experimentName,versionName,sequenceName,url,selected_row,windowWidth,windowHeight,screenWidth,screenHeight,startDate,startTime,trial,stimulus,duration,actual_depth,depth_estimate,trial_RT,log_sceneDuration,unitSelection,seq_filepath,experimentTime,totalTime,age,gender
0,245408,DepthScenes,duration_manipulation_targetAtFixation,jsons/VE125_randls_23.json,http://54.235.29.9/FacialAge/BNav_EC2/DepthDuration/v2_depth_duration_MTurk/v2_DepthDuration_HTML.html#41,41,1366,625,1366,768,8-29-2022,9-58-37,1,depth_duration_stimuli/000682_2014-06-08_23-14-58_260595134347_rgbf000041-resize_5/000682_2014-06-08_23-14-58_260595134347_rgbf000041-resize_5-target.png,125,2.7239999999999998,0,4091,126,meters,jsons/VE125_randls_23.json,970500,1116124,48,Man
1,245408,DepthScenes,duration_manipulation_targetAtFixation,jsons/VE125_randls_23.json,http://54.235.29.9/FacialAge/BNav_EC2/DepthDuration/v2_depth_duration_MTurk/v2_DepthDuration_HTML.html#41,41,1366,625,1366,768,8-29-2022,9-58-37,2,depth_duration_stimuli/001650_2014-06-20_12-09-00_260595134347_rgbf000087-resize_3/001650_2014-06-20_12-09-00_260595134347_rgbf000087-resize_3-target.png,125,1.9505,0,2255,28,meters,jsons/VE125_randls_23.json,970500,1116124,48,Man
2,245408,DepthScenes,duration_manipulation_targetAtFixation,jsons/VE125_randls_23.json,http://54.235.29.9/FacialAge/BNav_EC2/DepthDuration/v2_depth_duration_MTurk/v2_DepthDuration_HTML.html#41,41,1366,625,1366,768,8-29-2022,9-58-37,3,depth_duration_stimuli/000436_2014-06-09_22-25-11_260595134347_rgbf000137-resize_1/000436_2014-06-09_22-25-11_260595134347_rgbf000137-resize_1-target.png,125,4.0705,0,5466,128,meters,jsons/VE125_randls_23.json,970500,1116124,48,Man
3,245408,DepthScenes,duration_manipulation_targetAtFixation,jsons/VE125_randls_23.json,http://54.235.29.9/FacialAge/BNav_EC2/DepthDuration/v2_depth_duration_MTurk/v2_DepthDuration_HTML.html#41,41,1366,625,1366,768,8-29-2022,9-58-37,4,depth_duration_stimuli/002444_2014-06-28_20-32-08_260595134347_rgbf000027-resize_0/002444_2014-06-28_20-32-08_260595134347_rgbf000027-resize_0-target.png,125,4.388999999999999,0,2770,126,meters,jsons/VE125_randls_23.json,970500,1116124,48,Man
4,245408,DepthScenes,duration_manipulation_targetAtFixation,jsons/VE125_randls_23.json,http://54.235.29.9/FacialAge/BNav_EC2/DepthDuration/v2_depth_duration_MTurk/v2_DepthDuration_HTML.html#41,41,1366,625,1366,768,8-29-2022,9-58-37,5,depth_duration_stimuli/001449_2014-06-19_17-01-27_260595134347_rgbf000116-resize_2/001449_2014-06-19_17-01-27_260595134347_rgbf000116-resize_2-target.png,125,3.452,0,2687,124,meters,jsons/VE125_randls_23.json,970500,1116124,48,Man
5,245408,DepthScenes,duration_manipulation_targetAtFixation,jsons/VE125_randls_23.json,http://54.235.29.9/FacialAge/BNav_EC2/DepthDuration/v2_depth_duration_MTurk/v2_DepthDuration_HTML.html#41,41,1366,625,1366,768,8-29-2022,9-58-37,6,depth_duration_stimuli/001450_2014-06-19_17-02-03_260595134347_rgbf000203-resize_4/001450_2014-06-19_17-02-03_260595134347_rgbf000203-resize_4-target.png,125,4.0106666666667,0,3191,124,meters,jsons/VE125_randls_23.json,970500,1116124,48,Man
6,245408,DepthScenes,duration_manipulation_targetAtFixation,jsons/VE125_randls_23.json,http://54.235.29.9/FacialAge/BNav_EC2/DepthDuration/v2_depth_duration_MTurk/v2_DepthDuration_HTML.html#41,41,1366,625,1366,768,8-29-2022,9-58-37,7,depth_duration_stimuli/001150_2014-06-17_15-27-34_260595134347_rgbf000108-resize_2/001150_2014-06-17_15-27-34_260595134347_rgbf000108-resize_2-target.png,125,4.0325,0,2582,124,meters,jsons/VE125_randls_23.json,970500,1116124,48,Man
7,245408,DepthScenes,duration_manipulation_targetAtFixation,jsons/VE125_randls_23.json,http://54.235.29.9/FacialAge/BNav_EC2/DepthDuration/v2_depth_duration_MTurk/v2_DepthDuration_HTML.html#41,41,1366,625,1366,768,8-29-2022,9-58-37,8,depth_duration_stimuli/000665_2014-06-09_20-42-35_260595134347_rgbf000110-resize_1/000665_2014-06-09_20-42-35_260595134347_rgbf000110-resize_1-target.png,125,3.057,0,2596,125,meters,jsons/VE125_randls_23.json,970500,1116124,48,Man
8,245408,DepthScenes,duration_manipulation_targetAtFixation,jsons/VE125_randls_23.json,http://54.235.29.9/FacialAge/BNav_EC2/DepthDuration/v2_depth_duration_MTurk/v2_DepthDuration_HTML.html#41,41,1366,625,1366,768,8-29-2022,9-58-37,9,depth_duration_stimuli/000642_2014-06-08_16-59-25_260595134347_rgbf000098-resize_2/000642_2014-06-08_16-59-25_260595134347_rgbf000098-resize_2-target.png,125,2.8815,0,2640,26,meters,jsons/VE125_randls_23.json,970500,1116124,48,Man
9,245408,DepthScenes,duration_manipulation_targetAtFixation,jsons/VE125_randls_23.json,http://54.235.29.9/FacialAge/BNav_EC2/DepthDuration/v2_depth_duration_MTurk/v2_DepthDuration_HTML.html#41,41,1366,625,1366,768,8-29-2022,9-58-37,10,depth_duration_stimuli/002425_2014-06-28_20-27-29_260595134347_rgbf000031-resize_8/002425_2014-06-28_20-27-29_260595134347_rgbf000031-resize_8-target.png,125,3.8960000000000004,0,2667,126,meters,jsons/VE125_randls_23.json,970500,1116124,48,Man
10,245408,DepthScenes,duration_manipulation_targetAtFixation,jsons/VE125_randls_23.json,http://54.235.29.9/FacialAge/BNav_EC2/DepthDuration/v2_depth_duration_MTurk/v2_DepthDuration_HTML.html#41,41,1366,625,1366,768,8-29-2022,9-58-37,11,depth_duration_stimuli/001056_2014-06-08_18-46-44_260595134347_rgbf000068-resize_0/001056_2014-06-08_18-46-44_260595134347_rgbf000068-resize_0-target.png,125,2.6625,0,2579,126,meters,jsons/VE125_randls_23.json,970500,1116124,48,Man
11,245408,DepthScenes,duration_manipulation_targetAtFixation,jsons/VE125_randls_23.json,http://54.235.29.9/FacialAge/BNav_EC2/DepthDuration/v2_depth_duration_MTurk/v2_DepthDuration_HTML.html#41,41,1366,625,1366,768,8-29-2022,9-58-37,12,depth_duration_stimuli/002199_2014-06-28_18-33-56_260595134347_rgbf000074-resize_0/002199_2014-06-28_18-33-56_260595134347_rgbf000074-resize_0-target.png,125,1.996,0,2551,125,meters,jsons/VE125_randls_23.json,970500,1116124,48,Man
12,245408,DepthScenes,duration_manipulation_targetAtFixation,jsons/VE125_randls_23.json,http://54.235.29.9/FacialAge/BNav_EC2/DepthDuration/v2_depth_duration_MTurk/v2_DepthDuration_HTML.html#41,41,1366,625,1366,768,8-29-2022,9-58-37,13,depth_duration_stimuli/000569_2014-06-09_22-51-47_260595134347_rgbf000141-resize_3/000569_2014-06-09_22-51-47_260595134347_rgbf000141-resize-original.jpg,125,4.512,0,2659,124,meters,jsons/VE125_randls_23.json,970500,1116124,48,Man
13,245408,DepthScenes,duration_manipulation_targetAtFixation,jsons/VE125_randls_23.json,http://54.235.29.9/FacialAge/BNav_EC2/DepthDuration/v2_depth_duration_MTurk/v2_DepthDuration_HTML.html#41,41,1366,625,1366,768,8-29-2022,9-58-37,14,depth_duration_stimuli/001092_2014-06-15_17-34-58_260595134347_rgbf000171-resize_3/001092_2014-06-15_17-34-58_260595134347_rgbf000171-resize_3-target.png,125,2.6935,0,2718,127,meters,jsons/VE125_randls_23.json,970500,1116124,48,Man
14,245408,DepthScenes,duration_manipulation_targetAtFixation,jsons/VE125_randls_23.json,http://54.235.29.9/FacialAge/BNav_EC2/DepthDuration/v2_depth_duration_MTurk/v2_DepthDuration_HTML.html#41,41,1366,625,1366,768,8-29-2022,9-58-37,15,depth_duration_stimuli/002545_2014-06-24_13-38-53_094959634447_rgbf000080-resize_4/002545_2014-06-24_13-38-53_094959634447_rgbf000080-resize_4-target.png,125,1.9205,0,2947,126,meters,jsons/VE125_randls_23.json,970500,1116124,48,Man
15,245408,DepthScenes,duration_manipulation_targetAtFixation,jsons/VE125_randls_23.json,http://54.235.29.9/FacialAge/BNav_EC2/DepthDuration/v2_depth_duration_MTurk/v2_DepthDuration_HTML.html#41,41,1366,625,1366,768,8-29-2022,9-58-37,16,depth_duration_stimuli/000414_2014-06-04_19-49-13_260595134347_rgbf000044-resize_0/000414_2014-06-04_19-49-13_260595134347_rgbf000044-resize_0-target.png,125,4.329,0,2302,124,meters,jsons/VE125_randls_23.json,970500,1116124,48,Man
16,245408,DepthScenes,duration_manipulation_targetAtFixation,jsons/VE125_randls_23.json,http://54.235.29.9/FacialAge/BNav_EC2/DepthDuration/v2_depth_duration_MTurk/v2_DepthDuration_HTML.html#41,41,1366,625,1366,768,8-29-2022,9-58-37,17,depth_duration_stimuli/003129_2014-05-12_10-48-10_094959634447_rgbf000100-resize_0/003129_2014-05-12_10-48-10_094959634447_rgbf000100-resize_0-target.png,125,4.9305,0,2711,125,meters,jsons/VE125_randls_23.json,970500,1116124,48,Man
17,245408,DepthScenes,duration_manipulation_targetAtFixation,jsons/VE125_randls_23.json,http://54.235.29.9/FacialAge/BNav_EC2/DepthDuration/v2_depth_duration_MTurk/v2_DepthDuration_HTML.html#41,41,1366,625,1366,768,8-29-2022,9-58-37,18,depth_duration_stimuli/003070_2014-06-15_14-58-27_094959634447_rgbf000150-resize_3/003070_2014-06-15_14-58-27_094959634447_rgbf000150-resize_3-target.png,125,2.9415,0,3013,138,meters,jsons/VE125_randls_23.json,970500,1116124,48,Man
18,245408,DepthScenes,duration_manipulation_targetAtFixation,jsons/VE125_randls_23.json,http://54.235.29.9/FacialAge/BNav_EC2/DepthDuration/v2_depth_duration_MTurk/v2_DepthDuration_HTML.html#41,41,1366,625,1366,768,8-29-2022,9-58-37,19,depth_duration_stimuli/000943_2014-06-09_19-31-07_260595134347_rgbf000128-resize_1/000943_2014-06-09_19-31-07_260595134347_rgbf000128-resize_1-target.png,125,1.9765,0,2610,125,meters,jsons/VE125_randls_23.json,970500,1116124,48,Man
19,245408,DepthScenes,duration_manipulation_targetAtFixation,jsons/VE125_randls_23.json,http://54.235.29.9/FacialAge/BNav_EC2/DepthDuration/v2_depth_duration_MTurk/v2_DepthDuration_HTML.html#41,41,1366,625,1366,768,8-29-2022,9-58-37,20,depth_duration_stimuli/002905_2014-06-03_18-04-43_094959634447_rgbf000151-resize_2/002905_2014-06-03_18-04-43_094959634447_rgbf000151-resize_2-target.png,125,2.0295,0,2257,77,meters,jsons/VE125_randls_23.json,970500,1116124,48,Man
20,245408,DepthScenes,duration_manipulation_targetAtFixation,jsons/VE125_randls_23.json,http://54.235.29.9/FacialAge/BNav_EC2/DepthDuration/v2_depth_duration_MTurk/v2_DepthDuration_HTML.html#41,41,1366,625,1366,768,8-29-2022,9-58-37,21,depth_duration_stimuli/003423_2014-05-21_10-23-26_094959634447_rgbf002665-resize_2/003423_2014-05-21_10-23-26_094959634447_rgbf002665-resize_2-target.png,125,3.2575,0,2940,116,meters,jsons/VE125_randls_23.json,970500,1116124,48,Man
21,245408,DepthScenes,duration_manipulation_targetAtFixation,jsons/VE125_randls_23.json,http://54.235.29.9/FacialAge/BNav_EC2/DepthDuration/v2_depth_duration_MTurk/v2_DepthDuration_HTML.html#41,41,1366,625,1366,768,8-29-2022,9-58-37,22,depth_duration_stimuli/000486_2014-06-09_20-47-20_260595134347_rgbf000143-resize_2/000486_2014-06-09_20-47-20_260595134347_rgbf000143-resize_2-target.png,125,4.8325,0,2160,147,meters,jsons/VE125_randls_23.json,970500,1116124,48,Man
22,245408,DepthScenes,duration_manipulation_targetAtFixation,jsons/VE125_randls_23.json,http://54.235.29.9/FacialAge/BNav_EC2/DepthDuration/v2_depth_duration_MTurk/v2_DepthDuration_HTML.html#41,41,1366,625,1366,768,8-29-2022,9-58-37,23,depth_duration_stimuli/003083_2014-06-15_15-21-03_094959634447_rgbf000063-resize_1/003083_2014-06-15_15-21-03_094959634447_rgbf000063-resize_1-target.png,125,4.1405,0,2486,123,meters,jsons/VE125_randls_23.json,970500,1116124,48,Man
23,245408,DepthScenes,duration_manipulation_targetAtFixation,jsons/VE125_randls_23.json,http://54.235.29.9/FacialAge/BNav_EC2/DepthDuration/v2_depth_duration_MTurk/v2_DepthDuration_HTML.html#41,41,1366,625,1366,768,8-29-2022,9-58-37,24,depth_duration_stimuli/002153_2014-06-25_21-27-18_260595134347_rgbf000038-resize_5/002153_2014-06-25_21-27-18_260595134347_rgbf000038-resize_5-target.png,125,2.505,0,38010,134,meters,jsons/VE125_randls_23.json,970500,1116124,48,Man
24,245408,DepthScenes,duration_manipulation_targetAtFixation,jsons/VE125_randls_23.json,http://54.235.29.9/FacialAge/BNav_EC2/DepthDuration/v2_depth_duration_MTurk/v2_DepthDuration_HTML.html#41,41,1366,625,1366,768,8-29-2022,9-58-37,25,depth_duration_stimuli/002660_2014-06-13_15-44-18_094959634447_rgbf001878-resize_2/002660_2014-06-13_15-44-18_094959634447_rgbf001878-resize_2-target.png,125,3.576,0,2842,126,meters,jsons/VE125_randls_23.json,970500,1116124,48,Man
25,245408,DepthScenes,duration_manipulation_targetAtFixation,jsons/VE125_randls_23.json,http://54.235.29.9/FacialAge/BNav_EC2/DepthDuration/v2_depth_duration_MTurk/v2_DepthDuration_HTML.html#41,41,1366,625,1366,768,8-29-2022,9-58-37,26,depth_duration_stimuli/001011_2014-06-08_23-18-54_260595134347_rgbf000044-resize_4/001011_2014-06-08_23-18-54_260595134347_rgbf000044-resize_4-target.png,125,2.4730000000000003,0,2463,124,meters,jsons/VE125_randls_23.json,970500,1116124,48,Man
26,245408,DepthScenes,duration_manipulation_targetAtFixation,jsons/VE125_randls_23.json,http://54.235.29.9/FacialAge/BNav_EC2/DepthDuration/v2_depth_duration_MTurk/v2_DepthDuration_HTML.html#41,41,1366,625,1366,768,8-29-2022,9-58-37,27,depth_duration_stimuli/002875_2014-06-01_15-19-00_094959634447_rgbf000151-resize_1/002875_2014-06-01_15-19-00_094959634447_rgbf000151-resize_1-target.png,125,1.9675,0,2404,124,meters,jsons/VE125_randls_23.json,970500,1116124,48,Man
27,245408,DepthScenes,duration_manipulation_targetAtFixation,jsons/VE125_randls_23.json,http://54.235.29.9/FacialAge/BNav_EC2/DepthDuration/v2_depth_duration_MTurk/v2_DepthDuration_HTML.html#41,41,1366,625,1366,768,8-29-2022,9-58-37,28,depth_duration_stimuli/002988_2014-06-15_12-24-20_094959634447_rgbf000150-resize_1/002988_2014-06-15_12-24-20_094959634447_rgbf000150-resize_1-target.png,125,4.7669999999999995,0,2835,121,meters,jsons/VE125_randls_23.json,970500,1116124,48,Man
28,245408,DepthScenes,duration_manipulation_targetAtFixation,jsons/VE125_randls_23.json,http://54.235.29.9/FacialAge/BNav_EC2/DepthDuration/v2_depth_duration_MTurk/v2_DepthDuration_HTML.html#41,41,1366,625,1366,768,8-29-2022,9-58-37,29,depth_duration_stimuli/001052_2014-06-08_18-24-54_260595134347_rgbf000130-resize_1/001052_2014-06-08_18-24-54_260595134347_rgbf000130-resize_1-target.png,125,4.1045,0,16673,119,meters,jsons/VE125_randls_23.json,970500,1116124,48,Man
29,245408,DepthScenes,duration_manipulation_targetAtFixation,jsons/VE125_randls_23.json,http://54.235.29.9/FacialAge/BNav_EC2/DepthDuration/v2_depth_duration_MTurk/v2_DepthDuration_HTML.html#41,41,1366,625,1366,768,8-29-2022,9-58-37,30,depth_duration_stimuli/000375_2014-06-08_11-17-29_260595134347_rgbf000133-resize_2/000375_2014-06-08_11-17-29_260595134347_rgbf000133-resize-original.jpg,125,4.718,0,9503,125,meters,jsons/VE125_randls_23.json,970500,1116124,48,Man
30,245408,DepthScenes,duration_manipulation_targetAtFixation,jsons/VE125_randls_23.json,http://54.235.29.9/FacialAge/BNav_EC2/DepthDuration/v2_depth_duration_MTurk/v2_DepthDuration_HTML.html#41,41,1366,625,1366,768,8-29-2022,9-58-37,31,depth_duration_stimuli/002043_2014-06-24_20-29-38_260595134347_rgbf000039-resize_4/002043_2014-06-24_20-29-38_260595134347_rgbf000039-resize_4-target.png,125,2.8435,0,3203,124,meters,jsons/VE125_randls_23.json,970500,1116124,48,Man
31,245408,DepthScenes,duration_manipulation_targetAtFixation,jsons/VE125_randls_23.json,http://54.235.29.9/FacialAge/BNav_EC2/DepthDuration/v2_depth_duration_MTurk/v2_DepthDuration_HTML.html#41,41,1366,625,1366,768,8-29-2022,9-58-37,32,depth_duration_stimuli/003048_2014-06-15_13-49-43_094959634447_rgbf000150-resize_1/003048_2014-06-15_13-49-43_094959634447_rgbf000150-resize_1-target.png,125,4.0035,0,2861,126,meters,jsons/VE125_randls_23.json,970500,1116124,48,Man
32,245408,DepthScenes,duration_manipulation_targetAtFixation,jsons/VE125_randls_23.json,http://54.235.29.9/FacialAge/BNav_EC2/DepthDuration/v2_depth_duration_MTurk/v2_DepthDuration_HTML.html#41,41,1366,625,1366,768,8-29-2022,9-58-37,33,depth_duration_stimuli/002763_2014-06-22_19-13-10_094959634447_rgbf000075-resize_4/002763_2014-06-22_19-13-10_094959634447_rgbf000075-resize_4-target.png,125,1.68375,0,2402,124,meters,jsons/VE125_randls_23.json,970500,1116124,48,Man
33,245408,DepthScenes,duration_manipulation_targetAtFixation,jsons/VE125_randls_23.json,http://54.235.29.9/FacialAge/BNav_EC2/DepthDuration/v2_depth_duration_MTurk/v2_DepthDuration_HTML.html#41,41,1366,625,1366,768,8-29-2022,9-58-37,34,depth_duration_stimuli/002209_2014-06-28_18-36-10_260595134347_rgbf000051-resize_1/002209_2014-06-28_18-36-10_260595134347_rgbf000051-resize_1-target.png,125,2.057,0,2695,119,meters,jsons/VE125_randls_23.json,970500,1116124,48,Man
34,245408,DepthScenes,duration_manipulation_targetAtFixation,jsons/VE125_randls_23.json,http://54.235.29.9/FacialAge/BNav_EC2/DepthDuration/v2_depth_duration_MTurk/v2_DepthDuration_HTML.html#41,41,1366,625,1366,768,8-29-2022,9-58-37,35,depth_duration_stimuli/000522_2014-06-08_13-35-06_260595134347_rgbf000244-resize_1/000522_2014-06-08_13-35-06_260595134347_rgbf000244-resize_1-target.png,125,2.3715,0,5344,133,meters,jsons/VE125_randls_23.json,970500,1116124,48,Man
35,245408,DepthScenes,duration_manipulation_targetAtFixation,jsons/VE125_randls_23.json,http://54.235.29.9/FacialAge/BNav_EC2/DepthDuration/v2_depth_duration_MTurk/v2_DepthDuration_HTML.html#41,41,1366,625,1366,768,8-29-2022,9-58-37,36,depth_duration_stimuli/002949_2014-06-26_15-57-42_094959634447_rgbf000079-resize_1/002949_2014-06-26_15-57-42_094959634447_rgbf000079-resize_1-target.png,125,1.8915,0,2828,133,meters,jsons/VE125_randls_23.json,970500,1116124,48,Man
36,245408,DepthScenes,duration_manipulation_targetAtFixation,jsons/VE125_randls_23.json,http://54.235.29.9/FacialAge/BNav_EC2/DepthDuration/v2_depth_duration_MTurk/v2_DepthDuration_HTML.html#41,41,1366,625,1366,768,8-29-2022,9-58-37,37,depth_duration_stimuli/000917_2014-06-09_22-45-29_260595134347_rgbf000149-resize_3/000917_2014-06-09_22-45-29_260595134347_rgbf000149-resize_3-target.png,125,4.1865,0,2655,125,meters,jsons/VE125_randls_23.json,970500,1116124,48,Man
37,245408,DepthScenes,duration_manipulation_targetAtFixation,jsons/VE125_randls_23.json,http://54.235.29.9/FacialAge/BNav_EC2/DepthDuration/v2_depth_duration_MTurk/v2_DepthDuration_HTML.html#41,41,1366,625,1366,768,8-29-2022,9-58-37,38,depth_duration_stimuli/002323_2014-06-28_20-01-54_260595134347_rgbf000051-resize_4/002323_2014-06-28_20-01-54_260595134347_rgbf000051-resize_4-target.png,125,3.7310000000000003,0,2456,121,meters,jsons/VE125_randls_23.json,970500,1116124,48,Man
38,245408,DepthScenes,duration_manipulation_targetAtFixation,jsons/VE125_randls_23.json,http://54.235.29.9/FacialAge/BNav_EC2/DepthDuration/v2_depth_duration_MTurk/v2_DepthDuration_HTML.html#41,41,1366,625,1366,768,8-29-2022,9-58-37,39,depth_duration_stimuli/002549_2014-06-24_13-41-39_094959634447_rgbf000022-resize_3/002549_2014-06-24_13-41-39_094959634447_rgbf000022-resize_3-target.png,125,1.476,0,3859,125,meters,jsons/VE125_randls_23.json,970500,1116124,48,Man
39,245408,DepthScenes,duration_manipulation_targetAtFixation,jsons/VE125_randls_23.json,http://54.235.29.9/FacialAge/BNav_EC2/DepthDuration/v2_depth_duration_MTurk/v2_DepthDuration_HTML.html#41,41,1366,625,1366,768,8-29-2022,9-58-37,40,depth_duration_stimuli/002750_2014-06-22_19-08-03_094959634447_rgbf000094-resize_4/002750_2014-06-22_19-08-03_094959634447_rgbf000094-resize_4-target.png,125,2.354,0,2884,120,meters,jsons/VE125_randls_23.json,970500,1116124,48,Man
40,245408,DepthScenes,duration_manipulation_targetAtFixation,jsons/VE125_randls_23.json,http://54.235.29.9/FacialAge/BNav_EC2/DepthDuration/v2_depth_duration_MTurk/v2_DepthDuration_HTML.html#41,41,1366,625,1366,768,8-29-2022,9-58-37,41,depth_duration_stimuli/002600_2014-06-24_14-27-04_094959634447_rgbf000074-resize_2/002600_2014-06-24_14-27-04_094959634447_rgbf000074-resize_2-target.png,125,2.7575,0,3976,133,meters,jsons/VE125_randls_23.json,970500,1116124,48,Man
41,245408,DepthScenes,duration_manipulation_targetAtFixation,jsons/VE125_randls_23.json,http://54.235.29.9/FacialAge/BNav_EC2/DepthDuration/v2_depth_duration_MTurk/v2_DepthDuration_HTML.html#41,41,1366,625,1366,768,8-29-2022,9-58-37,42,depth_duration_stimuli/003228_2014-05-14_13-42-35_094959634447_rgbf000101-resize_1/003228_2014-05-14_13-42-35_094959634447_rgbf000101-resize_1-target.png,125,1.9680000000000002,0,3138,55,meters,jsons/VE125_randls_23.json,970500,1116124,48,Man
42,245408,DepthScenes,duration_manipulation_targetAtFixation,jsons/VE125_randls_23.json,http://54.235.29.9/FacialAge/BNav_EC2/DepthDuration/v2_depth_duration_MTurk/v2_DepthDuration_HTML.html#41,41,1366,625,1366,768,8-29-2022,9-58-37,43,depth_duration_stimuli/001029_2014-06-08_13-17-57_260595134347_rgbf000065-resize_1/001029_2014-06-08_13-17-57_260595134347_rgbf000065-resize_1-target.png,125,3.0835,0,3324,131,meters,jsons/VE125_randls_23.json,970500,1116124,48,Man
43,245408,DepthScenes,duration_manipulation_targetAtFixation,jsons/VE125_randls_23.json,http://54.235.29.9/FacialAge/BNav_EC2/DepthDuration/v2_depth_duration_MTurk/v2_DepthDuration_HTML.html#41,41,1366,625,1366,768,8-29-2022,9-58-37,44,depth_duration_stimuli/000677_2014-06-08_23-10-32_260595134347_rgbf000158-resize_6/000677_2014-06-08_23-10-32_260595134347_rgbf000158-resize_6-target.png,125,3.556,0,2381,246,meters,jsons/VE125_randls_23.json,970500,1116124,48,Man
44,245408,DepthScenes,duration_manipulation_targetAtFixation,jsons/VE125_randls_23.json,http://54.235.29.9/FacialAge/BNav_EC2/DepthDuration/v2_depth_duration_MTurk/v2_DepthDuration_HTML.html#41,41,1366,625,1366,768,8-29-2022,9-58-37,45,depth_duration_stimuli/000787_2014-06-08_22-33-53_260595134347_rgbf000175-resize_1/000787_2014-06-08_22-33-53_260595134347_rgbf000175-resize-original.jpg,125,4.784,0,2810,130,meters,jsons/VE125_randls_23.json,970500,1116124,48,Man
45,245408,DepthScenes,duration_manipulation_targetAtFixation,jsons/VE125_randls_23.json,http://54.235.29.9/FacialAge/BNav_EC2/DepthDuration/v2_depth_duration_MTurk/v2_DepthDuration_HTML.html#41,41,1366,625,1366,768,8-29-2022,9-58-37,46,depth_duration_stimuli/001110_2014-06-15_17-25-28_260595134347_rgbf000150-resize_1/001110_2014-06-15_17-25-28_260595134347_rgbf000150-resize_1-target.png,125,1.7115,0,2504,115,meters,jsons/VE125_randls_23.json,970500,1116124,48,Man
46,245408,DepthScenes,duration_manipulation_targetAtFixation,jsons/VE125_randls_23.json,http://54.235.29.9/FacialAge/BNav_EC2/DepthDuration/v2_depth_duration_MTurk/v2_DepthDuration_HTML.html#41,41,1366,625,1366,768,8-29-2022,9-58-37,47,depth_duration_stimuli/000927_2014-06-09_16-32-30_260595134347_rgbf000123-resize_3/000927_2014-06-09_16-32-30_260595134347_rgbf000123-resize_3-target.png,125,2.6785,0,26802,127,meters,jsons/VE125_randls_23.json,970500,1116124,48,Man
47,245408,DepthScenes,duration_manipulation_targetAtFixation,jsons/VE125_randls_23.json,http://54.235.29.9/FacialAge/BNav_EC2/DepthDuration/v2_depth_duration_MTurk/v2_DepthDuration_HTML.html#41,41,1366,625,1366,768,8-29-2022,9-58-37,48,depth_duration_stimuli/002663_2014-06-13_15-50-26_094959634447_rgbf000075-resize_1/002663_2014-06-13_15-50-26_094959634447_rgbf000075-resize_1-target.png,125,4.7495,0,3758,125,meters,jsons/VE125_randls_23.json,970500,1116124,48,Man
48,245408,DepthScenes,duration_manipulation_targetAtFixation,jsons/VE125_randls_23.json,http://54.235.29.9/FacialAge/BNav_EC2/DepthDuration/v2_depth_duration_MTurk/v2_DepthDuration_HTML.html#41,41,1366,625,1366,768,8-29-2022,9-58-37,49,depth_duration_stimuli/000409_2014-06-04_19-23-33_260595134347_rgbf000067-resize_0/000409_2014-06-04_19-23-33_260595134347_rgbf000067-resize_0-target.png,125,3.7335,0,2475,123,meters,jsons/VE125_randls_23.json,970500,1116124,48,Man
49,245408,DepthScenes,duration_manipulation_targetAtFixation,jsons/VE125_randls_23.json,http://54.235.29.9/FacialAge/BNav_EC2/DepthDuration/v2_depth_duration_MTurk/v2_DepthDuration_HTML.html#41,41,1366,625,1366,768,8-29-2022,9-58-37,50,depth_duration_stimuli/001417_2014-06-19_16-25-36_260595134347_rgbf000115-resize_5/001417_2014-06-19_16-25-36_260595134347_rgbf000115-resize_5-target.png,125,4.6255,0,2123,115,meters,jsons/VE125_randls_23.json,970500,1116124,48,Man
50,245408,DepthScenes,duration_manipulation_targetAtFixation,jsons/VE125_randls_23.json,http://54.235.29.9/FacialAge/BNav_EC2/DepthDuration/v2_depth_duration_MTurk/v2_DepthDuration_HTML.html#41,41,1366,625,1366,768,8-29-2022,9-58-37,51,depth_duration_stimuli/003081_2014-06-15_15-19-16_094959634447_rgbf000150-resize_1/003081_2014-06-15_15-19-16_094959634447_rgbf000150-resize_1-target.png,125,3.9125,0,2024,125,meters,jsons/VE125_randls_23.json,970500,1116124,48,Man
51,245408,DepthScenes,duration_manipulation_targetAtFixation,jsons/VE125_randls_23.json,http://54.235.29.9/FacialAge/BNav_EC2/DepthDuration/v2_depth_duration_MTurk/v2_DepthDuration_HTML.html#41,41,1366,625,1366,768,8-29-2022,9-58-37,52,depth_duration_stimuli/002057_2014-06-24_21-00-13_260595134347_rgbf000120-resize_1/002057_2014-06-24_21-00-13_260595134347_rgbf000120-resize_1-target.png,125,2.967,0,47711,124,meters,jsons/VE125_randls_23.json,970500,1116124,48,Man
52,245408,DepthScenes,duration_manipulation_targetAtFixation,jsons/VE125_randls_23.json,http://54.235.29.9/FacialAge/BNav_EC2/DepthDuration/v2_depth_duration_MTurk/v2_DepthDuration_HTML.html#41,41,1366,625,1366,768,8-29-2022,9-58-37,53,depth_duration_stimuli/000709_2014-06-08_13-51-55_260595134347_rgbf000068-resize_3/000709_2014-06-08_13-51-55_260595134347_rgbf000068-resize_3-target.png,125,1.8030000000000002,0,2253,110,meters,jsons/VE125_randls_23.json,970500,1116124,48,Man
53,245408,DepthScenes,duration_manipulation_targetAtFixation,jsons/VE125_randls_23.json,http://54.235.29.9/FacialAge/BNav_EC2/DepthDuration/v2_depth_duration_MTurk/v2_DepthDuration_HTML.html#41,41,1366,625,1366,768,8-29-2022,9-58-37,54,depth_duration_stimuli/000788_2014-06-08_22-34-36_260595134347_rgbf000131-resize_1/000788_2014-06-08_22-34-36_260595134347_rgbf000131-resize_1-target.png,125,3.359,0,2248,131,meters,jsons/VE125_randls_23.json,970500,1116124,48,Man
54,245408,DepthScenes,duration_manipulation_targetAtFixation,jsons/VE125_randls_23.json,http://54.235.29.9/FacialAge/BNav_EC2/DepthDuration/v2_depth_duration_MTurk/v2_DepthDuration_HTML.html#41,41,1366,625,1366,768,8-29-2022,9-58-37,55,depth_duration_stimuli/001235_2014-06-17_16-37-36_260595134347_rgbf000084-resize_4/001235_2014-06-17_16-37-36_260595134347_rgbf000084-resize_4-target.png,125,3.6605,0,1927,160,meters,jsons/VE125_randls_23.json,970500,1116124,48,Man
55,245408,DepthScenes,duration_manipulation_targetAtFixation,jsons/VE125_randls_23.json,http://54.235.29.9/FacialAge/BNav_EC2/DepthDuration/v2_depth_duration_MTurk/v2_DepthDuration_HTML.html#41,41,1366,625,1366,768,8-29-2022,9-58-37,56,depth_duration_stimuli/000736_2014-06-08_18-24-15_260595134347_rgbf000206-resize_3/000736_2014-06-08_18-24-15_260595134347_rgbf000206-resize_3-target.png,125,3.515,0,2068,126,meters,jsons/VE125_randls_23.json,970500,1116124,48,Man
56,245408,DepthScenes,duration_manipulation_targetAtFixation,jsons/VE125_randls_23.json,http://54.235.29.9/FacialAge/BNav_EC2/DepthDuration/v2_depth_duration_MTurk/v2_DepthDuration_HTML.html#41,41,1366,625,1366,768,8-29-2022,9-58-37,57,depth_duration_stimuli/000137_2014-05-20_17-04-49_260595134347_rgbf000120-resize_1/000137_2014-05-20_17-04-49_260595134347_rgbf000120-resize_1-target.png,125,3.786,0,2069,124,meters,jsons/VE125_randls_23.json,970500,1116124,48,Man
57,245408,DepthScenes,duration_manipulation_targetAtFixation,jsons/VE125_randls_23.json,http://54.235.29.9/FacialAge/BNav_EC2/DepthDuration/v2_depth_duration_MTurk/v2_DepthDuration_HTML.html#41,41,1366,625,1366,768,8-29-2022,9-58-37,58,depth_duration_stimuli/000009_2014-05-26_14-32-05_260595134347_rgbf000034-resize_3/000009_2014-05-26_14-32-05_260595134347_rgbf000034-resize_3-target.png,125,3.8715,0,2174,125,meters,jsons/VE125_randls_23.json,970500,1116124,48,Man
58,245408,DepthScenes,duration_manipulation_targetAtFixation,jsons/VE125_randls_23.json,http://54.235.29.9/FacialAge/BNav_EC2/DepthDuration/v2_depth_duration_MTurk/v2_DepthDuration_HTML.html#41,41,1366,625,1366,768,8-29-2022,9-58-37,59,depth_duration_stimuli/001828_2014-06-26_21-40-03_260595134347_rgbf000024-resize_0/001828_2014-06-26_21-40-03_260595134347_rgbf000024-resize_0-target.png,125,4.8260000000000005,0,2384,126,meters,jsons/VE125_randls_23.json,970500,1116124,48,Man
59,245408,DepthScenes,duration_manipulation_targetAtFixation,jsons/VE125_randls_23.json,http://54.235.29.9/FacialAge/BNav_EC2/DepthDuration/v2_depth_duration_MTurk/v2_DepthDuration_HTML.html#41,41,1366,625,1366,768,8-29-2022,9-58-37,60,depth_duration_stimuli/002630_2014-06-24_14-47-50_094959634447_rgbf000055-resize_1/002630_2014-06-24_14-47-50_094959634447_rgbf000055-resize_1-target.png,125,3.0095,0,2849,125,meters,jsons/VE125_randls_23.json,970500,1116124,48,Man
60,245408,DepthScenes,duration_manipulation_targetAtFixation,jsons/VE125_randls_23.json,http://54.235.29.9/FacialAge/BNav_EC2/DepthDuration/v2_depth_duration_MTurk/v2_DepthDuration_HTML.html#41,41,1366,625,1366,768,8-29-2022,9-58-37,61,depth_duration_stimuli/002758_2014-06-22_19-11-20_094959634447_rgbf000128-resize_1/002758_2014-06-22_19-11-20_094959634447_rgbf000128-resize_1-target.png,125,2.555,0,2075,129,meters,jsons/VE125_randls_23.json,970500,1116124,48,Man
61,245408,DepthScenes,duration_manipulation_targetAtFixation,jsons/VE125_randls_23.json,http://54.235.29.9/FacialAge/BNav_EC2/DepthDuration/v2_depth_duration_MTurk/v2_DepthDuration_HTML.html#41,41,1366,625,1366,768,8-29-2022,9-58-37,62,depth_duration_stimuli/001167_2014-06-17_15-38-07_260595134347_rgbf000108-resize_0/001167_2014-06-17_15-38-07_260595134347_rgbf000108-resize_0-target.png,125,1.8505,0,2125,112,meters,jsons/VE125_randls_23.json,970500,1116124,48,Man
62,245408,DepthScenes,duration_manipulation_targetAtFixation,jsons/VE125_randls_23.json,http://54.235.29.9/FacialAge/BNav_EC2/DepthDuration/v2_depth_duration_MTurk/v2_DepthDuration_HTML.html#41,41,1366,625,1366,768,8-29-2022,9-58-37,63,depth_duration_stimuli/003587_2014-05-23_16-48-02_094959634447_rgbf002384-resize_2/003587_2014-05-23_16-48-02_094959634447_rgbf002384-resize_2-target.png,125,1.357,0,2053,123,meters,jsons/VE125_randls_23.json,970500,1116124,48,Man
63,245408,DepthScenes,duration_manipulation_targetAtFixation,jsons/VE125_randls_23.json,http://54.235.29.9/FacialAge/BNav_EC2/DepthDuration/v2_depth_duration_MTurk/v2_DepthDuration_HTML.html#41,41,1366,625,1366,768,8-29-2022,9-58-37,64,depth_duration_stimuli/000506_2014-06-08_23-21-00_260595134347_rgbf000070-resize_7/000506_2014-06-08_23-21-00_260595134347_rgbf000070-resize_7-target.png,125,4.0585,0,2084,109,meters,jsons/VE125_randls_23.json,970500,1116124,48,Man
64,245408,DepthScenes,duration_manipulation_targetAtFixation,jsons/VE125_randls_23.json,http://54.235.29.9/FacialAge/BNav_EC2/DepthDuration/v2_depth_duration_MTurk/v2_DepthDuration_HTML.html#41,41,1366,625,1366,768,8-29-2022,9-58-37,65,depth_duration_stimuli/003079_2014-06-15_15-18-20_094959634447_rgbf000152-resize_8/003079_2014-06-15_15-18-20_094959634447_rgbf000152-resize_8-target.png,125,2.8775,0,1948,125,meters,jsons/VE125_randls_23.json,970500,1116124,48,Man
65,245408,DepthScenes,duration_manipulation_targetAtFixation,jsons/VE125_randls_23.json,http://54.235.29.9/FacialAge/BNav_EC2/DepthDuration/v2_depth_duration_MTurk/v2_DepthDuration_HTML.html#41,41,1366,625,1366,768,8-29-2022,9-58-37,66,depth_duration_stimuli/001222_2014-06-17_16-24-06_260595134347_rgbf000073-resize_0/001222_2014-06-17_16-24-06_260595134347_rgbf000073-resize-original.jpg,125,1.4385,0,1922,116,meters,jsons/VE125_randls_23.json,970500,1116124,48,Man
66,245408,DepthScenes,duration_manipulation_targetAtFixation,jsons/VE125_randls_23.json,http://54.235.29.9/FacialAge/BNav_EC2/DepthDuration/v2_depth_duration_MTurk/v2_DepthDuration_HTML.html#41,41,1366,625,1366,768,8-29-2022,9-58-37,67,depth_duration_stimuli/003292_2014-05-14_21-53-49_094959634447_rgbf000100-resize_2/003292_2014-05-14_21-53-49_094959634447_rgbf000100-resize_2-target.png,125,3.4815,0,2002,114,meters,jsons/VE125_randls_23.json,970500,1116124,48,Man
67,245408,DepthScenes,duration_manipulation_targetAtFixation,jsons/VE125_randls_23.json,http://54.235.29.9/FacialAge/BNav_EC2/DepthDuration/v2_depth_duration_MTurk/v2_DepthDuration_HTML.html#41,41,1366,625,1366,768,8-29-2022,9-58-37,68,depth_duration_stimuli/002639_2014-06-24_14-51-37_094959634447_rgbf000074-resize_4/002639_2014-06-24_14-51-37_094959634447_rgbf000074-resize_4-target.png,125,4.0375,0,2275,107,meters,jsons/VE125_randls_23.json,970500,1116124,48,Man
68,245408,DepthScenes,duration_manipulation_targetAtFixation,jsons/VE125_randls_23.json,http://54.235.29.9/FacialAge/BNav_EC2/DepthDuration/v2_depth_duration_MTurk/v2_DepthDuration_HTML.html#41,41,1366,625,1366,768,8-29-2022,9-58-37,69,depth_duration_stimuli/000470_2014-06-09_19-42-40_260595134347_rgbf000094-resize_1/000470_2014-06-09_19-42-40_260595134347_rgbf000094-resize_1-target.png,125,1.831,0,2166,123,meters,jsons/VE125_randls_23.json,970500,1116124,48,Man
69,245408,DepthScenes,duration_manipulation_targetAtFixation,jsons/VE125_randls_23.json,http://54.235.29.9/FacialAge/BNav_EC2/DepthDuration/v2_depth_duration_MTurk/v2_DepthDuration_HTML.html#41,41,1366,625,1366,768,8-29-2022,9-58-37,70,depth_duration_stimuli/000109_2014-05-14_23-41-52_260595134347_rgbf000035-resize_9/000109_2014-05-14_23-41-52_260595134347_rgbf000035-resize_9-target.png,125,1.3545,0,2032,133,meters,jsons/VE125_randls_23.json,970500,1116124,48,Man
70,245408,DepthScenes,duration_manipulation_targetAtFixation,jsons/VE125_randls_23.json,http://54.235.29.9/FacialAge/BNav_EC2/DepthDuration/v2_depth_duration_MTurk/v2_DepthDuration_HTML.html#41,41,1366,625,1366,768,8-29-2022,9-58-37,71,depth_duration_stimuli/002964_2014-06-08_17-46-11_094959634447_rgbf000091-resize_4/002964_2014-06-08_17-46-11_094959634447_rgbf000091-resize_4-target.png,125,1.6909999999999998,0,2079,140,meters,jsons/VE125_randls_23.json,970500,1116124,48,Man
71,245408,DepthScenes,duration_manipulation_targetAtFixation,jsons/VE125_randls_23.json,http://54.235.29.9/FacialAge/BNav_EC2/DepthDuration/v2_depth_duration_MTurk/v2_DepthDuration_HTML.html#41,41,1366,625,1366,768,8-29-2022,9-58-37,72,depth_duration_stimuli/002136_2014-06-25_21-18-03_260595134347_rgbf000109-resize_3/002136_2014-06-25_21-18-03_260595134347_rgbf000109-resize_3-target.png,125,1.9569999999999999,0,2084,113,meters,jsons/VE125_randls_23.json,970500,1116124,48,Man
72,245408,DepthScenes,duration_manipulation_targetAtFixation,jsons/VE125_randls_23.json,http://54.235.29.9/FacialAge/BNav_EC2/DepthDuration/v2_depth_duration_MTurk/v2_DepthDuration_HTML.html#41,41,1366,625,1366,768,8-29-2022,9-58-37,73,depth_duration_stimuli/000739_2014-06-08_18-45-58_260595134347_rgbf000068-resize_1/000739_2014-06-08_18-45-58_260595134347_rgbf000068-resize_1-target.png,125,3.534,0,2165,132,meters,jsons/VE125_randls_23.json,970500,1116124,48,Man
73,245408,DepthScenes,duration_manipulation_targetAtFixation,jsons/VE125_randls_23.json,http://54.235.29.9/FacialAge/BNav_EC2/DepthDuration/v2_depth_duration_MTurk/v2_DepthDuration_HTML.html#41,41,1366,625,1366,768,8-29-2022,9-58-37,74,depth_duration_stimuli/000734_2014-06-08_17-39-11_260595134347_rgbf000128-resize_2/000734_2014-06-08_17-39-11_260595134347_rgbf000128-resize_2-target.png,125,4.098,0,2738,125,meters,jsons/VE125_randls_23.json,970500,1116124,48,Man
74,245408,DepthScenes,duration_manipulation_targetAtFixation,jsons/VE125_randls_23.json,http://54.235.29.9/FacialAge/BNav_EC2/DepthDuration/v2_depth_duration_MTurk/v2_DepthDuration_HTML.html#41,41,1366,625,1366,768,8-29-2022,9-58-37,75,depth_duration_stimuli/000906_2014-06-08_13-35-43_260595134347_rgbf000155-resize_1/000906_2014-06-08_13-35-43_260595134347_rgbf000155-resize_1-target.png,125,2.8489999999999998,0,2171,135,meters,jsons/VE125_randls_23.json,970500,1116124,48,Man
75,245408,DepthScenes,duration_manipulation_targetAtFixation,jsons/VE125_randls_23.json,http://54.235.29.9/FacialAge/BNav_EC2/DepthDuration/v2_depth_duration_MTurk/v2_DepthDuration_HTML.html#41,41,1366,625,1366,768,8-29-2022,9-58-37,76,depth_duration_stimuli/002805_2014-06-22_19-54-03_094959634447_rgbf000079-resize_1/002805_2014-06-22_19-54-03_094959634447_rgbf000079-resize_1-target.png,125,3.1439999999999997,0,1987,126,meters,jsons/VE125_randls_23.json,970500,1116124,48,Man
76,245408,DepthScenes,duration_manipulation_targetAtFixation,jsons/VE125_randls_23.json,http://54.235.29.9/FacialAge/BNav_EC2/DepthDuration/v2_depth_duration_MTurk/v2_DepthDuration_HTML.html#41,41,1366,625,1366,768,8-29-2022,9-58-37,77,depth_duration_stimuli/001244_2014-06-17_16-47-45_260595134347_rgbf000030-resize_4/001244_2014-06-17_16-47-45_260595134347_rgbf000030-resize_4-target.png,125,2.0425,0,1986,125,meters,jsons/VE125_randls_23.json,970500,1116124,48,Man
77,245408,DepthScenes,duration_manipulation_targetAtFixation,jsons/VE125_randls_23.json,http://54.235.29.9/FacialAge/BNav_EC2/DepthDuration/v2_depth_duration_MTurk/v2_DepthDuration_HTML.html#41,41,1366,625,1366,768,8-29-2022,9-58-37,78,depth_duration_stimuli/003495_2014-05-21_16-01-51_094959634447_rgbf000100-resize_3/003495_2014-05-21_16-01-51_094959634447_rgbf000100-resize_3-target.png,125,1.6255,0,2180,118,meters,jsons/VE125_randls_23.json,970500,1116124,48,Man
78,245408,DepthScenes,duration_manipulation_targetAtFixation,jsons/VE125_randls_23.json,http://54.235.29.9/FacialAge/BNav_EC2/DepthDuration/v2_depth_duration_MTurk/v2_DepthDuration_HTML.html#41,41,1366,625,1366,768,8-29-2022,9-58-37,79,depth_duration_stimuli/001806_2014-06-26_20-50-20_260595134347_rgbf000091-resize_1/001806_2014-06-26_20-50-20_260595134347_rgbf000091-resize_1-target.png,125,2.7305,0,2165,131,meters,jsons/VE125_randls_23.json,970500,1116124,48,Man
79,245408,DepthScenes,duration_manipulation_targetAtFixation,jsons/VE125_randls_23.json,http://54.235.29.9/FacialAge/BNav_EC2/DepthDuration/v2_depth_duration_MTurk/v2_DepthDuration_HTML.html#41,41,1366,625,1366,768,8-29-2022,9-58-37,80,depth_duration_stimuli/001617_2014-06-20_11-35-32_260595134347_rgbf000066-resize_1/001617_2014-06-20_11-35-32_260595134347_rgbf000066-resize_1-target.png,125,3.7910000000000004,0,30105,127,meters,jsons/VE125_randls_23.json,970500,1116124,48,Man
80,245408,DepthScenes,duration_manipulation_targetAtFixation,jsons/VE125_randls_23.json,http://54.235.29.9/FacialAge/BNav_EC2/DepthDuration/v2_depth_duration_MTurk/v2_DepthDuration_HTML.html#41,41,1366,625,1366,768,8-29-2022,9-58-37,81,depth_duration_stimuli/000878_2014-06-08_22-52-45_260595134347_rgbf000045-resize_2/000878_2014-06-08_22-52-45_260595134347_rgbf000045-resize_2-target.png,125,2.092,0,2420,125,meters,jsons/VE125_randls_23.json,970500,1116124,48,Man
81,245408,DepthScenes,duration_manipulation_targetAtFixation,jsons/VE125_randls_23.json,http://54.235.29.9/FacialAge/BNav_EC2/DepthDuration/v2_depth_duration_MTurk/v2_DepthDuration_HTML.html#41,41,1366,625,1366,768,8-29-2022,9-58-37,82,depth_duration_stimuli/002953_2014-06-08_17-32-18_094959634447_rgbf000059-resize_5/002953_2014-06-08_17-32-18_094959634447_rgbf000059-resize_5-target.png,125,1.551,0,2577,118,meters,jsons/VE125_randls_23.json,970500,1116124,48,Man
82,245408,DepthScenes,duration_manipulation_targetAtFixation,jsons/VE125_randls_23.json,http://54.235.29.9/FacialAge/BNav_EC2/DepthDuration/v2_depth_duration_MTurk/v2_DepthDuration_HTML.html#41,41,1366,625,1366,768,8-29-2022,9-58-37,83,depth_duration_stimuli/000773_2014-06-08_22-24-54_260595134347_rgbf000093-resize_1/000773_2014-06-08_22-24-54_260595134347_rgbf000093-resize_1-target.png,125,4.973,0,1987,126,meters,jsons/VE125_randls_23.json,970500,1116124,48,Man
83,245408,DepthScenes,duration_manipulation_targetAtFixation,jsons/VE125_randls_23.json,http://54.235.29.9/FacialAge/BNav_EC2/DepthDuration/v2_depth_duration_MTurk/v2_DepthDuration_HTML.html#41,41,1366,625,1366,768,8-29-2022,9-58-37,84,depth_duration_stimuli/002414_2014-06-28_20-24-58_260595134347_rgbf000067-resize_4/002414_2014-06-28_20-24-58_260595134347_rgbf000067-resize_4-target.png,125,4.363,0,2131,125,meters,jsons/VE125_randls_23.json,970500,1116124,48,Man
84,245408,DepthScenes,duration_manipulation_targetAtFixation,jsons/VE125_randls_23.json,http://54.235.29.9/FacialAge/BNav_EC2/DepthDuration/v2_depth_duration_MTurk/v2_DepthDuration_HTML.html#41,41,1366,625,1366,768,8-29-2022,9-58-37,85,depth_duration_stimuli/002039_2014-06-24_20-22-38_260595134347_rgbf000084-resize_1/002039_2014-06-24_20-22-38_260595134347_rgbf000084-resize_1-target.png,125,4.408,0,1937,123,meters,jsons/VE125_randls_23.json,970500,1116124,48,Man
85,245408,DepthScenes,duration_manipulation_targetAtFixation,jsons/VE125_randls_23.json,http://54.235.29.9/FacialAge/BNav_EC2/DepthDuration/v2_depth_duration_MTurk/v2_DepthDuration_HTML.html#41,41,1366,625,1366,768,8-29-2022,9-58-37,86,depth_duration_stimuli/002103_2014-06-25_20-00-40_260595134347_rgbf000049-resize_0/002103_2014-06-25_20-00-40_260595134347_rgbf000049-resize_0-target.png,125,4.105,0,2151,117,meters,jsons/VE125_randls_23.json,970500,1116124,48,Man
86,245408,DepthScenes,duration_manipulation_targetAtFixation,jsons/VE125_randls_23.json,http://54.235.29.9/FacialAge/BNav_EC2/DepthDuration/v2_depth_duration_MTurk/v2_DepthDuration_HTML.html#41,41,1366,625,1366,768,8-29-2022,9-58-37,87,depth_duration_stimuli/002509_2014-06-24_13-19-22_094959634447_rgbf000077-resize_0/002509_2014-06-24_13-19-22_094959634447_rgbf000077-resize_0-target.png,125,1.3065,0,2052,117,meters,jsons/VE125_randls_23.json,970500,1116124,48,Man
87,245408,DepthScenes,duration_manipulation_targetAtFixation,jsons/VE125_randls_23.json,http://54.235.29.9/FacialAge/BNav_EC2/DepthDuration/v2_depth_duration_MTurk/v2_DepthDuration_HTML.html#41,41,1366,625,1366,768,8-29-2022,9-58-37,88,depth_duration_stimuli/003338_2014-05-20_11-01-23_094959634447_rgbf000051-resize_6/003338_2014-05-20_11-01-23_094959634447_rgbf000051-resize_6-target.png,125,1.693,0,2116,125,meters,jsons/VE125_randls_23.json,970500,1116124,48,Man
88,245408,DepthScenes,duration_manipulation_targetAtFixation,jsons/VE125_randls_23.json,http://54.235.29.9/FacialAge/BNav_EC2/DepthDuration/v2_depth_duration_MTurk/v2_DepthDuration_HTML.html#41,41,1366,625,1366,768,8-29-2022,9-58-37,89,depth_duration_stimuli/002725_2014-06-22_11-47-51_094959634447_rgbf000070-resize_1/002725_2014-06-22_11-47-51_094959634447_rgbf000070-resize_1-target.png,125,2.195,0,1963,125,meters,jsons/VE125_randls_23.json,970500,1116124,48,Man
89,245408,DepthScenes,duration_manipulation_targetAtFixation,jsons/VE125_randls_23.json,http://54.235.29.9/FacialAge/BNav_EC2/DepthDuration/v2_depth_duration_MTurk/v2_DepthDuration_HTML.html#41,41,1366,625,1366,768,8-29-2022,9-58-37,90,depth_duration_stimuli/002344_2014-06-28_20-06-29_260595134347_rgbf000030-resize_1/002344_2014-06-28_20-06-29_260595134347_rgbf000030-resize_1-target.png,125,1.5795,0,2083,125,meters,jsons/VE125_randls_23.json,970500,1116124,48,Man
90,245408,DepthScenes,duration_manipulation_targetAtFixation,jsons/VE125_randls_23.json,http://54.235.29.9/FacialAge/BNav_EC2/DepthDuration/v2_depth_duration_MTurk/v2_DepthDuration_HTML.html#41,41,1366,625,1366,768,8-29-2022,9-58-37,91,depth_duration_stimuli/002445_2014-06-28_20-32-16_260595134347_rgbf000029-resize_4/002445_2014-06-28_20-32-16_260595134347_rgbf000029-resize_4-target.png,125,2.5315,0,2453,101,meters,jsons/VE125_randls_23.json,970500,1116124,48,Man
91,245408,DepthScenes,duration_manipulation_targetAtFixation,jsons/VE125_randls_23.json,http://54.235.29.9/FacialAge/BNav_EC2/DepthDuration/v2_depth_duration_MTurk/v2_DepthDuration_HTML.html#41,41,1366,625,1366,768,8-29-2022,9-58-37,92,depth_duration_stimuli/000780_2014-06-08_22-28-29_260595134347_rgbf000126-resize_1/000780_2014-06-08_22-28-29_260595134347_rgbf000126-resize_1-target.png,125,3.3825,0,3300,125,meters,jsons/VE125_randls_23.json,970500,1116124,48,Man
92,245408,DepthScenes,duration_manipulation_targetAtFixation,jsons/VE125_randls_23.json,http://54.235.29.9/FacialAge/BNav_EC2/DepthDuration/v2_depth_duration_MTurk/v2_DepthDuration_HTML.html#41,41,1366,625,1366,768,8-29-2022,9-58-37,93,depth_duration_stimuli/001158_2014-06-17_15-32-16_260595134347_rgbf000138-resize_2/001158_2014-06-17_15-32-16_260595134347_rgbf000138-resize_2-target.png,125,4.5315,0,3021,124,meters,jsons/VE125_randls_23.json,970500,1116124,48,Man
93,245408,DepthScenes,duration_manipulation_targetAtFixation,jsons/VE125_randls_23.json,http://54.235.29.9/FacialAge/BNav_EC2/DepthDuration/v2_depth_duration_MTurk/v2_DepthDuration_HTML.html#41,41,1366,625,1366,768,8-29-2022,9-58-37,94,depth_duration_stimuli/000556_2014-06-09_22-42-56_260595134347_rgbf000214-resize_1/000556_2014-06-09_22-42-56_260595134347_rgbf000214-resize_1-target.png,125,4.8415,0,2222,125,meters,jsons/VE125_randls_23.json,970500,1116124,48,Man
94,245408,DepthScenes,duration_manipulation_targetAtFixation,jsons/VE125_randls_23.json,http://54.235.29.9/FacialAge/BNav_EC2/DepthDuration/v2_depth_duration_MTurk/v2_DepthDuration_HTML.html#41,41,1366,625,1366,768,8-29-2022,9-58-37,95,depth_duration_stimuli/002375_2014-06-28_20-13-44_260595134347_rgbf000032-resize_1/002375_2014-06-28_20-13-44_260595134347_rgbf000032-resize_1-target.png,125,4.0175,0,2305,124,meters,jsons/VE125_randls_23.json,970500,1116124,48,Man
95,245408,DepthScenes,duration_manipulation_targetAtFixation,jsons/VE125_randls_23.json,http://54.235.29.9/FacialAge/BNav_EC2/DepthDuration/v2_depth_duration_MTurk/v2_DepthDuration_HTML.html#41,41,1366,625,1366,768,8-29-2022,9-58-37,96,depth_duration_stimuli/002657_2014-06-13_15-29-54_094959634447_rgbf000150-resize_1/002657_2014-06-13_15-29-54_094959634447_rgbf000150-resize_1-target.png,125,4.919,0,2198,124,meters,jsons/VE125_randls_23.json,970500,1116124,48,Man
96,245408,DepthScenes,duration_manipulation_targetAtFixation,jsons/VE125_randls_23.json,http://54.235.29.9/FacialAge/BNav_EC2/DepthDuration/v2_depth_duration_MTurk/v2_DepthDuration_HTML.html#41,41,1366,625,1366,768,8-29-2022,9-58-37,97,depth_duration_stimuli/000493_2014-06-09_21-01-18_260595134347_rgbf000196-resize_3/000493_2014-06-09_21-01-18_260595134347_rgbf000196-resize_3-target.png,125,3.44,0,2160,125,meters,jsons/VE125_randls_23.json,970500,1116124,48,Man
97,245408,DepthScenes,duration_manipulation_targetAtFixation,jsons/VE125_randls_23.json,http://54.235.29.9/FacialAge/BNav_EC2/DepthDuration/v2_depth_duration_MTurk/v2_DepthDuration_HTML.html#41,41,1366,625,1366,768,8-29-2022,9-58-37,98,depth_duration_stimuli/000191_2014-05-12_17-07-38_260595134347_rgbf000199-resize_0/000191_2014-05-12_17-07-38_260595134347_rgbf000199-resize_0-target.png,125,3.7995,0,6913,125,meters,jsons/VE125_randls_23.json,970500,1116124,48,Man
98,245408,DepthScenes,duration_manipulation_targetAtFixation,jsons/VE125_randls_23.json,http://54.235.29.9/FacialAge/BNav_EC2/DepthDuration/v2_depth_duration_MTurk/v2_DepthDuration_HTML.html#41,41,1366,625,1366,768,8-29-2022,9-58-37,99,depth_duration_stimuli/001540_2014-06-20_17-01-05_260595134347_rgbf000086-resize_2/001540_2014-06-20_17-01-05_260595134347_rgbf000086-resize-original.jpg,125,1.459,0,2383,124,meters,jsons/VE125_randls_23.json,970500,1116124,48,Man
99,245408,DepthScenes,duration_manipulation_targetAtFixation,jsons/VE125_randls_23.json,http://54.235.29.9/FacialAge/BNav_EC2/DepthDuration/v2_depth_duration_MTurk/v2_DepthDuration_HTML.html#41,41,1366,625,1366,768,8-29-2022,9-58-37,100,depth_duration_stimuli/001175_2014-06-17_15-45-55_260595134347_rgbf000129-resize_4/001175_2014-06-17_15-45-55_260595134347_rgbf000129-resize_4-target.png,125,4.255,0,4336,125,meters,jsons/VE125_randls_23.json,970500,1116124,48,Man
100,245408,DepthScenes,duration_manipulation_targetAtFixation,jsons/VE125_randls_23.json,http://54.235.29.9/FacialAge/BNav_EC2/DepthDuration/v2_depth_duration_MTurk/v2_DepthDuration_HTML.html#41,41,1366,625,1366,768,8-29-2022,9-58-37,101,depth_duration_stimuli/003490_2014-05-21_15-50-11_094959634447_rgbf000101-resize_3/003490_2014-05-21_15-50-11_094959634447_rgbf000101-resize_3-target.png,125,3.6445,0,15311,135,meters,jsons/VE125_randls_23.json,970500,1116124,48,Man
101,245408,DepthScenes,duration_manipulation_targetAtFixation,jsons/VE125_randls_23.json,http://54.235.29.9/FacialAge/BNav_EC2/DepthDuration/v2_depth_duration_MTurk/v2_DepthDuration_HTML.html#41,41,1366,625,1366,768,8-29-2022,9-58-37,102,depth_duration_stimuli/000469_2014-06-09_19-42-10_260595134347_rgbf000081-resize_1/000469_2014-06-09_19-42-10_260595134347_rgbf000081-resize_1-target.png,125,1.652,0,2135,131,meters,jsons/VE125_randls_23.json,970500,1116124,48,Man
102,245408,DepthScenes,duration_manipulation_targetAtFixation,jsons/VE125_randls_23.json,http://54.235.29.9/FacialAge/BNav_EC2/DepthDuration/v2_depth_duration_MTurk/v2_DepthDuration_HTML.html#41,41,1366,625,1366,768,8-29-2022,9-58-37,103,depth_duration_stimuli/000483_2014-06-09_20-41-45_260595134347_rgbf000116-resize_4/000483_2014-06-09_20-41-45_260595134347_rgbf000116-resize_4-target.png,125,1.337,0,2277,116,meters,jsons/VE125_randls_23.json,970500,1116124,48,Man
103,245408,DepthScenes,duration_manipulation_targetAtFixation,jsons/VE125_randls_23.json,http://54.235.29.9/FacialAge/BNav_EC2/DepthDuration/v2_depth_duration_MTurk/v2_DepthDuration_HTML.html#41,41,1366,625,1366,768,8-29-2022,9-58-37,104,depth_duration_stimuli/000447_2014-06-08_16-15-46_260595134347_rgbf000130-resize_1/000447_2014-06-08_16-15-46_260595134347_rgbf000130-resize_1-target.png,125,4.479,0,2612,125,meters,jsons/VE125_randls_23.json,970500,1116124,48,Man
104,245408,DepthScenes,duration_manipulation_targetAtFixation,jsons/VE125_randls_23.json,http://54.235.29.9/FacialAge/BNav_EC2/DepthDuration/v2_depth_duration_MTurk/v2_DepthDuration_HTML.html#41,41,1366,625,1366,768,8-29-2022,9-58-37,105,depth_duration_stimuli/001447_2014-06-19_17-00-32_260595134347_rgbf000082-resize_5/001447_2014-06-19_17-00-32_260595134347_rgbf000082-resize_5-target.png,125,4.13775,0,2030,126,meters,jsons/VE125_randls_23.json,970500,1116124,48,Man
105,245408,DepthScenes,duration_manipulation_targetAtFixation,jsons/VE125_randls_23.json,http://54.235.29.9/FacialAge/BNav_EC2/DepthDuration/v2_depth_duration_MTurk/v2_DepthDuration_HTML.html#41,41,1366,625,1366,768,8-29-2022,9-58-37,106,depth_duration_stimuli/000929_2014-06-09_16-33-19_260595134347_rgbf000139-resize_0/000929_2014-06-09_16-33-19_260595134347_rgbf000139-resize_0-target.png,125,2.8680000000000003,0,2338,125,meters,jsons/VE125_randls_23.json,970500,1116124,48,Man
106,245408,DepthScenes,duration_manipulation_targetAtFixation,jsons/VE125_randls_23.json,http://54.235.29.9/FacialAge/BNav_EC2/DepthDuration/v2_depth_duration_MTurk/v2_DepthDuration_HTML.html#41,41,1366,625,1366,768,8-29-2022,9-58-37,107,depth_duration_stimuli/000457_2014-06-08_16-52-43_260595134347_rgbf000199-resize_1/000457_2014-06-08_16-52-43_260595134347_rgbf000199-resize_1-target.png,125,3.6489999999999996,0,2169,124,meters,jsons/VE125_randls_23.json,970500,1116124,48,Man
107,245408,DepthScenes,duration_manipulation_targetAtFixation,jsons/VE125_randls_23.json,http://54.235.29.9/FacialAge/BNav_EC2/DepthDuration/v2_depth_duration_MTurk/v2_DepthDuration_HTML.html#41,41,1366,625,1366,768,8-29-2022,9-58-37,108,depth_duration_stimuli/001810_2014-06-26_20-51-35_260595134347_rgbf000040-resize_3/001810_2014-06-26_20-51-35_260595134347_rgbf000040-resize_3-target.png,125,2.2525,0,1969,125,meters,jsons/VE125_randls_23.json,970500,1116124,48,Man
108,245408,DepthScenes,duration_manipulation_targetAtFixation,jsons/VE125_randls_23.json,http://54.235.29.9/FacialAge/BNav_EC2/DepthDuration/v2_depth_duration_MTurk/v2_DepthDuration_HTML.html#41,41,1366,625,1366,768,8-29-2022,9-58-37,109,depth_duration_stimuli/003010_2014-06-15_12-54-35_094959634447_rgbf000112-resize_0/003010_2014-06-15_12-54-35_094959634447_rgbf000112-resize_0-target.png,125,3.1185,0,97425,125,meters,jsons/VE125_randls_23.json,970500,1116124,48,Man
109,245408,DepthScenes,duration_manipulation_targetAtFixation,jsons/VE125_randls_23.json,http://54.235.29.9/FacialAge/BNav_EC2/DepthDuration/v2_depth_duration_MTurk/v2_DepthDuration_HTML.html#41,41,1366,625,1366,768,8-29-2022,9-58-37,110,depth_duration_stimuli/002784_2014-06-22_19-26-30_094959634447_rgbf000083-resize_3/002784_2014-06-22_19-26-30_094959634447_rgbf000083-resize_3-target.png,125,1.8046666666667,0,26302,127,meters,jsons/VE125_randls_23.json,970500,1116124,48,Man
110,245408,DepthScenes,duration_manipulation_targetAtFixation,jsons/VE125_randls_23.json,http://54.235.29.9/FacialAge/BNav_EC2/DepthDuration/v2_depth_duration_MTurk/v2_DepthDuration_HTML.html#41,41,1366,625,1366,768,8-29-2022,9-58-37,111,depth_duration_stimuli/001100_2014-06-15_17-46-26_260595134347_rgbf000225-resize_2/001100_2014-06-15_17-46-26_260595134347_rgbf000225-resize_2-target.png,125,2.24,0,5783,127,meters,jsons/VE125_randls_23.json,970500,1116124,48,Man
111,245408,DepthScenes,duration_manipulation_targetAtFixation,jsons/VE125_randls_23.json,http://54.235.29.9/FacialAge/BNav_EC2/DepthDuration/v2_depth_duration_MTurk/v2_DepthDuration_HTML.html#41,41,1366,625,1366,768,8-29-2022,9-58-37,112,depth_duration_stimuli/000810_2014-06-08_17-20-01_260595134347_rgbf000105-resize_0/000810_2014-06-08_17-20-01_260595134347_rgbf000105-resize_0-target.png,125,1.4865,0,3544,110,meters,jsons/VE125_randls_23.json,970500,1116124,48,Man
112,245408,DepthScenes,duration_manipulation_targetAtFixation,jsons/VE125_randls_23.json,http://54.235.29.9/FacialAge/BNav_EC2/DepthDuration/v2_depth_duration_MTurk/v2_DepthDuration_HTML.html#41,41,1366,625,1366,768,8-29-2022,9-58-37,113,depth_duration_stimuli/001214_2014-06-17_16-13-55_260595134347_rgbf000111-resize_0/001214_2014-06-17_16-13-55_260595134347_rgbf000111-resize_0-target.png,125,2.6505,0,2419,124,meters,jsons/VE125_randls_23.json,970500,1116124,48,Man
113,245408,DepthScenes,duration_manipulation_targetAtFixation,jsons/VE125_randls_23.json,http://54.235.29.9/FacialAge/BNav_EC2/DepthDuration/v2_depth_duration_MTurk/v2_DepthDuration_HTML.html#41,41,1366,625,1366,768,8-29-2022,9-58-37,114,depth_duration_stimuli/000692_2014-06-08_13-09-42_260595134347_rgbf000199-resize_2/000692_2014-06-08_13-09-42_260595134347_rgbf000199-resize_2-target.png,125,3.661,0,38385,121,meters,jsons/VE125_randls_23.json,970500,1116124,48,Man
114,245408,DepthScenes,duration_manipulation_targetAtFixation,jsons/VE125_randls_23.json,http://54.235.29.9/FacialAge/BNav_EC2/DepthDuration/v2_depth_duration_MTurk/v2_DepthDuration_HTML.html#41,41,1366,625,1366,768,8-29-2022,9-58-37,115,depth_duration_stimuli/001094_2014-06-15_17-36-00_260595134347_rgbf000205-resize_0/001094_2014-06-15_17-36-00_260595134347_rgbf000205-resize_0-target.png,125,4.2175,0,3123,124,meters,jsons/VE125_randls_23.json,970500,1116124,48,Man
115,245408,DepthScenes,duration_manipulation_targetAtFixation,jsons/VE125_randls_23.json,http://54.235.29.9/FacialAge/BNav_EC2/DepthDuration/v2_depth_duration_MTurk/v2_DepthDuration_HTML.html#41,41,1366,625,1366,768,8-29-2022,9-58-37,116,depth_duration_stimuli/001170_2014-06-17_15-43-44_260595134347_rgbf000096-resize_6/001170_2014-06-17_15-43-44_260595134347_rgbf000096-resize-original.jpg,125,1.1909999999999998,0,2440,124,meters,jsons/VE125_randls_23.json,970500,1116124,48,Man
116,245408,DepthScenes,duration_manipulation_targetAtFixation,jsons/VE125_randls_23.json,http://54.235.29.9/FacialAge/BNav_EC2/DepthDuration/v2_depth_duration_MTurk/v2_DepthDuration_HTML.html#41,41,1366,625,1366,768,8-29-2022,9-58-37,117,depth_duration_stimuli/001133_2014-06-17_14-49-16_260595134347_rgbf000100-resize_0/001133_2014-06-17_14-49-16_260595134347_rgbf000100-resize_0-target.png,125,4.2115,0,3005,130,meters,jsons/VE125_randls_23.json,970500,1116124,48,Man
117,245408,DepthScenes,duration_manipulation_targetAtFixation,jsons/VE125_randls_23.json,http://54.235.29.9/FacialAge/BNav_EC2/DepthDuration/v2_depth_duration_MTurk/v2_DepthDuration_HTML.html#41,41,1366,625,1366,768,8-29-2022,9-58-37,118,depth_duration_stimuli/001132_2014-06-17_14-48-54_260595134347_rgbf000100-resize_2/001132_2014-06-17_14-48-54_260595134347_rgbf000100-resize_2-target.png,125,3.753,0,2113,133,meters,jsons/VE125_randls_23.json,970500,1116124,48,Man
118,245408,DepthScenes,duration_manipulation_targetAtFixation,jsons/VE125_randls_23.json,http://54.235.29.9/FacialAge/BNav_EC2/DepthDuration/v2_depth_duration_MTurk/v2_DepthDuration_HTML.html#41,41,1366,625,1366,768,8-29-2022,9-58-37,119,depth_duration_stimuli/001016_2014-06-09_16-16-10_260595134347_rgbf000112-resize_5/001016_2014-06-09_16-16-10_260595134347_rgbf000112-resize_5-target.png,125,1.6565,0,2010,125,meters,jsons/VE125_randls_23.json,970500,1116124,48,Man
119,245408,DepthScenes,duration_manipulation_targetAtFixation,jsons/VE125_randls_23.json,http://54.235.29.9/FacialAge/BNav_EC2/DepthDuration/v2_depth_duration_MTurk/v2_DepthDuration_HTML.html#41,41,1366,625,1366,768,8-29-2022,9-58-37,120,depth_duration_stimuli/002340_2014-06-28_20-05-46_260595134347_rgbf000113-resize_0/002340_2014-06-28_20-05-46_260595134347_rgbf000113-resize_0-target.png,125,2.4735,0,27019,125,meters,jsons/VE125_randls_23.json,970500,1116124,48,Man
120,245408,DepthScenes,duration_manipulation_targetAtFixation,jsons/VE125_randls_23.json,http://54.235.29.9/FacialAge/BNav_EC2/DepthDuration/v2_depth_duration_MTurk/v2_DepthDuration_HTML.html#41,41,1366,625,1366,768,8-29-2022,9-58-37,121,depth_duration_stimuli/002279_2014-06-28_18-55-32_260595134347_rgbf000040-resize_5/002279_2014-06-28_18-55-32_260595134347_rgbf000040-resize_5-target.png,125,1.5043333333333,0,2161,120,meters,jsons/VE125_randls_23.json,970500,1116124,48,Man
121,245408,DepthScenes,duration_manipulation_targetAtFixation,jsons/VE125_randls_23.json,http://54.235.29.9/FacialAge/BNav_EC2/DepthDuration/v2_depth_duration_MTurk/v2_DepthDuration_HTML.html#41,41,1366,625,1366,768,8-29-2022,9-58-37,122,depth_duration_stimuli/000635_2014-06-08_16-38-42_260595134347_rgbf000106-resize_1/000635_2014-06-08_16-38-42_260595134347_rgbf000106-resize_1-target.png,125,2.074,0,2340,125,meters,jsons/VE125_randls_23.json,970500,1116124,48,Man
122,245408,DepthScenes,duration_manipulation_targetAtFixation,jsons/VE125_randls_23.json,http://54.235.29.9/FacialAge/BNav_EC2/DepthDuration/v2_depth_duration_MTurk/v2_DepthDuration_HTML.html#41,41,1366,625,1366,768,8-29-2022,9-58-37,123,depth_duration_stimuli/001059_2014-06-08_21-53-27_260595134347_rgbf000061-resize_4/001059_2014-06-08_21-53-27_260595134347_rgbf000061-resize_4-target.png,125,2.4185,0,2699,123,meters,jsons/VE125_randls_23.json,970500,1116124,48,Man
123,245408,DepthScenes,duration_manipulation_targetAtFixation,jsons/VE125_randls_23.json,http://54.235.29.9/FacialAge/BNav_EC2/DepthDuration/v2_depth_duration_MTurk/v2_DepthDuration_HTML.html#41,41,1366,625,1366,768,8-29-2022,9-58-37,124,depth_duration_stimuli/001032_2014-06-08_13-23-17_260595134347_rgbf000021-resize_3/001032_2014-06-08_13-23-17_260595134347_rgbf000021-resize_3-target.png,125,3.2725,0,2246,75,meters,jsons/VE125_randls_23.json,970500,1116124,48,Man
124,245408,DepthScenes,duration_manipulation_targetAtFixation,jsons/VE125_randls_23.json,http://54.235.29.9/FacialAge/BNav_EC2/DepthDuration/v2_depth_duration_MTurk/v2_DepthDuration_HTML.html#41,41,1366,625,1366,768,8-29-2022,9-58-37,125,depth_duration_stimuli/001066_2014-06-08_22-03-20_260595134347_rgbf000066-resize_4/001066_2014-06-08_22-03-20_260595134347_rgbf000066-resize_4-target.png,125,4.2330000000000005,0,2176,116,meters,jsons/VE125_randls_23.json,970500,1116124,48,Man
125,245408,DepthScenes,duration_manipulation_targetAtFixation,jsons/VE125_randls_23.json,http://54.235.29.9/FacialAge/BNav_EC2/DepthDuration/v2_depth_duration_MTurk/v2_DepthDuration_HTML.html#41,41,1366,625,1366,768,8-29-2022,9-58-37,126,depth_duration_stimuli/000742_2014-06-08_18-48-09_260595134347_rgbf000164-resize_4/000742_2014-06-08_18-48-09_260595134347_rgbf000164-resize_4-target.png,125,4.632,0,2350,113,meters,jsons/VE125_randls_23.json,970500,1116124,48,Man
126,245408,DepthScenes,duration_manipulation_targetAtFixation,jsons/VE125_randls_23.json,http://54.235.29.9/FacialAge/BNav_EC2/DepthDuration/v2_depth_duration_MTurk/v2_DepthDuration_HTML.html#41,41,1366,625,1366,768,8-29-2022,9-58-37,127,depth_duration_stimuli/000368_2014-06-09_15-53-01_260595134347_rgbf000155-resize_2/000368_2014-06-09_15-53-01_260595134347_rgbf000155-resize_2-target.png,125,2.4859999999999998,0,2393,126,meters,jsons/VE125_randls_23.json,970500,1116124,48,Man
127,245408,DepthScenes,duration_manipulation_targetAtFixation,jsons/VE125_randls_23.json,http://54.235.29.9/FacialAge/BNav_EC2/DepthDuration/v2_depth_duration_MTurk/v2_DepthDuration_HTML.html#41,41,1366,625,1366,768,8-29-2022,9-58-37,128,depth_duration_stimuli/002678_2014-06-13_16-15-32_094959634447_rgbf000151-resize_6/002678_2014-06-13_16-15-32_094959634447_rgbf000151-resize_6-target.png,125,2.1830000000000003,0,2021,114,meters,jsons/VE125_randls_23.json,970500,1116124,48,Man
128,245408,DepthScenes,duration_manipulation_targetAtFixation,jsons/VE125_randls_23.json,http://54.235.29.9/FacialAge/BNav_EC2/DepthDuration/v2_depth_duration_MTurk/v2_DepthDuration_HTML.html#41,41,1366,625,1366,768,8-29-2022,9-58-37,129,depth_duration_stimuli/000758_2014-06-08_22-05-08_260595134347_rgbf000085-resize_0/000758_2014-06-08_22-05-08_260595134347_rgbf000085-resize_0-target.png,125,3.3810000000000002,0,3918,118,meters,jsons/VE125_randls_23.json,970500,1116124,48,Man
129,245408,DepthScenes,duration_manipulation_targetAtFixation,jsons/VE125_randls_23.json,http://54.235.29.9/FacialAge/BNav_EC2/DepthDuration/v2_depth_duration_MTurk/v2_DepthDuration_HTML.html#41,41,1366,625,1366,768,8-29-2022,9-58-37,130,depth_duration_stimuli/000854_2014-06-09_19-43-13_260595134347_rgbf000066-resize_0/000854_2014-06-09_19-43-13_260595134347_rgbf000066-resize_0-target.png,125,3.068,0,2148,120,meters,jsons/VE125_randls_23.json,970500,1116124,48,Man
130,245408,DepthScenes,duration_manipulation_targetAtFixation,jsons/VE125_randls_23.json,http://54.235.29.9/FacialAge/BNav_EC2/DepthDuration/v2_depth_duration_MTurk/v2_DepthDuration_HTML.html#41,41,1366,625,1366,768,8-29-2022,9-58-37,131,depth_duration_stimuli/003492_2014-05-21_15-50-55_094959634447_rgbf000828-resize_1/003492_2014-05-21_15-50-55_094959634447_rgbf000828-resize_1-target.png,125,4.06875,0,2576,129,meters,jsons/VE125_randls_23.json,970500,1116124,48,Man
131,245408,DepthScenes,duration_manipulation_targetAtFixation,jsons/VE125_randls_23.json,http://54.235.29.9/FacialAge/BNav_EC2/DepthDuration/v2_depth_duration_MTurk/v2_DepthDuration_HTML.html#41,41,1366,625,1366,768,8-29-2022,9-58-37,132,depth_duration_stimuli/002568_2014-06-24_13-59-21_094959634447_rgbf000062-resize_4/002568_2014-06-24_13-59-21_094959634447_rgbf000062-resize_4-target.png,125,3.015,0,2086,123,meters,jsons/VE125_randls_23.json,970500,1116124,48,Man
132,245408,DepthScenes,duration_manipulation_targetAtFixation,jsons/VE125_randls_23.json,http://54.235.29.9/FacialAge/BNav_EC2/DepthDuration/v2_depth_duration_MTurk/v2_DepthDuration_HTML.html#41,41,1366,625,1366,768,8-29-2022,9-58-37,133,depth_duration_stimuli/002788_2014-06-22_19-36-03_094959634447_rgbf000088-resize_2/002788_2014-06-22_19-36-03_094959634447_rgbf000088-resize_2-target.png,125,1.6465,0,1892,126,meters,jsons/VE125_randls_23.json,970500,1116124,48,Man
133,245408,DepthScenes,duration_manipulation_targetAtFixation,jsons/VE125_randls_23.json,http://54.235.29.9/FacialAge/BNav_EC2/DepthDuration/v2_depth_duration_MTurk/v2_DepthDuration_HTML.html#41,41,1366,625,1366,768,8-29-2022,9-58-37,134,depth_duration_stimuli/000749_2014-06-08_21-55-06_260595134347_rgbf000070-resize_2/000749_2014-06-08_21-55-06_260595134347_rgbf000070-resize_2-target.png,125,2.331,0,1796,121,meters,jsons/VE125_randls_23.json,970500,1116124,48,Man
134,245408,DepthScenes,duration_manipulation_targetAtFixation,jsons/VE125_randls_23.json,http://54.235.29.9/FacialAge/BNav_EC2/DepthDuration/v2_depth_duration_MTurk/v2_DepthDuration_HTML.html#41,41,1366,625,1366,768,8-29-2022,9-58-37,135,depth_duration_stimuli/002072_2014-06-24_21-48-06_260595134347_rgbf000115-resize_0/002072_2014-06-24_21-48-06_260595134347_rgbf000115-resize-original.jpg,125,4.702,0,1943,117,meters,jsons/VE125_randls_23.json,970500,1116124,48,Man
135,245408,DepthScenes,duration_manipulation_targetAtFixation,jsons/VE125_randls_23.json,http://54.235.29.9/FacialAge/BNav_EC2/DepthDuration/v2_depth_duration_MTurk/v2_DepthDuration_HTML.html#41,41,1366,625,1366,768,8-29-2022,9-58-37,136,depth_duration_stimuli/002570_2014-06-24_13-59-54_094959634447_rgbf000059-resize_0/002570_2014-06-24_13-59-54_094959634447_rgbf000059-resize_0-target.png,125,4.037,0,1847,122,meters,jsons/VE125_randls_23.json,970500,1116124,48,Man
136,245408,DepthScenes,duration_manipulation_targetAtFixation,jsons/VE125_randls_23.json,http://54.235.29.9/FacialAge/BNav_EC2/DepthDuration/v2_depth_duration_MTurk/v2_DepthDuration_HTML.html#41,41,1366,625,1366,768,8-29-2022,9-58-37,137,depth_duration_stimuli/002467_2014-06-28_20-38-07_260595134347_rgbf000026-resize_2/002467_2014-06-28_20-38-07_260595134347_rgbf000026-resize_2-target.png,125,4.742,0,1955,125,meters,jsons/VE125_randls_23.json,970500,1116124,48,Man
137,245408,DepthScenes,duration_manipulation_targetAtFixation,jsons/VE125_randls_23.json,http://54.235.29.9/FacialAge/BNav_EC2/DepthDuration/v2_depth_duration_MTurk/v2_DepthDuration_HTML.html#41,41,1366,625,1366,768,8-29-2022,9-58-37,138,depth_duration_stimuli/001555_2014-06-20_17-12-10_260595134347_rgbf000065-resize_4/001555_2014-06-20_17-12-10_260595134347_rgbf000065-resize_4-target.png,125,1.633,0,2555,126,meters,jsons/VE125_randls_23.json,970500,1116124,48,Man
138,245408,DepthScenes,duration_manipulation_targetAtFixation,jsons/VE125_randls_23.json,http://54.235.29.9/FacialAge/BNav_EC2/DepthDuration/v2_depth_duration_MTurk/v2_DepthDuration_HTML.html#41,41,1366,625,1366,768,8-29-2022,9-58-37,139,depth_duration_stimuli/000103_2014-05-14_22-01-17_260595134347_rgbf000152-resize_5/000103_2014-05-14_22-01-17_260595134347_rgbf000152-resize_5-target.png,125,1.993,0,3487,124,meters,jsons/VE125_randls_23.json,970500,1116124,48,Man
139,245408,DepthScenes,duration_manipulation_targetAtFixation,jsons/VE125_randls_23.json,http://54.235.29.9/FacialAge/BNav_EC2/DepthDuration/v2_depth_duration_MTurk/v2_DepthDuration_HTML.html#41,41,1366,625,1366,768,8-29-2022,9-58-37,140,depth_duration_stimuli/001164_2014-06-17_15-35-46_260595134347_rgbf000085-resize_3/001164_2014-06-17_15-35-46_260595134347_rgbf000085-resize_3-target.png,125,2.354,0,2796,126,meters,jsons/VE125_randls_23.json,970500,1116124,48,Man
140,245408,DepthScenes,duration_manipulation_targetAtFixation,jsons/VE125_randls_23.json,http://54.235.29.9/FacialAge/BNav_EC2/DepthDuration/v2_depth_duration_MTurk/v2_DepthDuration_HTML.html#41,41,1366,625,1366,768,8-29-2022,9-58-37,141,depth_duration_stimuli/001136_2014-06-17_15-19-41_260595134347_rgbf000076-resize_3/001136_2014-06-17_15-19-41_260595134347_rgbf000076-resize_3-target.png,125,1.8655,0,1853,123,meters,jsons/VE125_randls_23.json,970500,1116124,48,Man
141,245408,DepthScenes,duration_manipulation_targetAtFixation,jsons/VE125_randls_23.json,http://54.235.29.9/FacialAge/BNav_EC2/DepthDuration/v2_depth_duration_MTurk/v2_DepthDuration_HTML.html#41,41,1366,625,1366,768,8-29-2022,9-58-37,142,depth_duration_stimuli/002213_2014-06-28_18-37-58_260595134347_rgbf000055-resize_1/002213_2014-06-28_18-37-58_260595134347_rgbf000055-resize_1-target.png,125,3.62,0,2217,145,meters,jsons/VE125_randls_23.json,970500,1116124,48,Man
142,245408,DepthScenes,duration_manipulation_targetAtFixation,jsons/VE125_randls_23.json,http://54.235.29.9/FacialAge/BNav_EC2/DepthDuration/v2_depth_duration_MTurk/v2_DepthDuration_HTML.html#41,41,1366,625,1366,768,8-29-2022,9-58-37,143,depth_duration_stimuli/000691_2014-06-08_13-08-50_260595134347_rgbf000132-resize_3/000691_2014-06-08_13-08-50_260595134347_rgbf000132-resize_3-target.png,125,4.1530000000000005,0,1946,125,meters,jsons/VE125_randls_23.json,970500,1116124,48,Man
143,245408,DepthScenes,duration_manipulation_targetAtFixation,jsons/VE125_randls_23.json,http://54.235.29.9/FacialAge/BNav_EC2/DepthDuration/v2_depth_duration_MTurk/v2_DepthDuration_HTML.html#41,41,1366,625,1366,768,8-29-2022,9-58-37,144,depth_duration_stimuli/002989_2014-06-15_12-25-03_094959634447_rgbf000150-resize_3/002989_2014-06-15_12-25-03_094959634447_rgbf000150-resize_3-target.png,125,4.1975,0,1872,125,meters,jsons/VE125_randls_23.json,970500,1116124,48,Man
144,245408,DepthScenes,duration_manipulation_targetAtFixation,jsons/VE125_randls_23.json,http://54.235.29.9/FacialAge/BNav_EC2/DepthDuration/v2_depth_duration_MTurk/v2_DepthDuration_HTML.html#41,41,1366,625,1366,768,8-29-2022,9-58-37,145,depth_duration_stimuli/000866_2014-06-09_20-45-42_260595134347_rgbf000139-resize_1/000866_2014-06-09_20-45-42_260595134347_rgbf000139-resize_1-target.png,125,3.2155,0,2071,125,meters,jsons/VE125_randls_23.json,970500,1116124,48,Man
145,245408,DepthScenes,duration_manipulation_targetAtFixation,jsons/VE125_randls_23.json,http://54.235.29.9/FacialAge/BNav_EC2/DepthDuration/v2_depth_duration_MTurk/v2_DepthDuration_HTML.html#41,41,1366,625,1366,768,8-29-2022,9-58-37,146,depth_duration_stimuli/001498_2014-06-19_17-45-14_260595134347_rgbf000129-resize_4/001498_2014-06-19_17-45-14_260595134347_rgbf000129-resize-original.jpg,125,1.4075,0,2209,124,meters,jsons/VE125_randls_23.json,970500,1116124,48,Man
146,245408,DepthScenes,duration_manipulation_targetAtFixation,jsons/VE125_randls_23.json,http://54.235.29.9/FacialAge/BNav_EC2/DepthDuration/v2_depth_duration_MTurk/v2_DepthDuration_HTML.html#41,41,1366,625,1366,768,8-29-2022,9-58-37,147,depth_duration_stimuli/002118_2014-06-25_20-32-08_260595134347_rgbf000078-resize_1/002118_2014-06-25_20-32-08_260595134347_rgbf000078-resize_1-target.png,125,2.6460000000000004,0,2100,115,meters,jsons/VE125_randls_23.json,970500,1116124,48,Man
147,245408,DepthScenes,duration_manipulation_targetAtFixation,jsons/VE125_randls_23.json,http://54.235.29.9/FacialAge/BNav_EC2/DepthDuration/v2_depth_duration_MTurk/v2_DepthDuration_HTML.html#41,41,1366,625,1366,768,8-29-2022,9-58-37,148,depth_duration_stimuli/001516_2014-06-20_16-25-09_260595134347_rgbf000076-resize_2/001516_2014-06-20_16-25-09_260595134347_rgbf000076-resize_2-target.png,125,1.7445,0,2092,133,meters,jsons/VE125_randls_23.json,970500,1116124,48,Man
148,245408,DepthScenes,duration_manipulation_targetAtFixation,jsons/VE125_randls_23.json,http://54.235.29.9/FacialAge/BNav_EC2/DepthDuration/v2_depth_duration_MTurk/v2_DepthDuration_HTML.html#41,41,1366,625,1366,768,8-29-2022,9-58-37,149,depth_duration_stimuli/002272_2014-06-28_18-53-56_260595134347_rgbf000067-resize_2/002272_2014-06-28_18-53-56_260595134347_rgbf000067-resize_2-target.png,125,1.138,0,40801,119,meters,jsons/VE125_randls_23.json,970500,1116124,48,Man
149,245408,DepthScenes,duration_manipulation_targetAtFixation,jsons/VE125_randls_23.json,http://54.235.29.9/FacialAge/BNav_EC2/DepthDuration/v2_depth_duration_MTurk/v2_DepthDuration_HTML.html#41,41,1366,625,1366,768,8-29-2022,9-58-37,150,depth_duration_stimuli/001571_2014-06-20_17-21-32_260595134347_rgbf000089-resize_1/001571_2014-06-20_17-21-32_260595134347_rgbf000089-resize_1-target.png,125,1.86,0,3297,126,meters,jsons/VE125_randls_23.json,970500,1116124,48,Man
150,245408,DepthScenes,duration_manipulation_targetAtFixation,jsons/VE125_randls_23.json,http://54.235.29.9/FacialAge/BNav_EC2/DepthDuration/v2_depth_duration_MTurk/v2_DepthDuration_HTML.html#41,41,1366,625,1366,768,8-29-2022,9-58-37,151,depth_duration_stimuli/001055_2014-06-08_18-45-35_260595134347_rgbf000111-resize_4/001055_2014-06-08_18-45-35_260595134347_rgbf000111-resize_4-target.png,125,2.4290000000000003,0,2594,120,meters,jsons/VE125_randls_23.json,970500,1116124,48,Man
151,245408,DepthScenes,duration_manipulation_targetAtFixation,jsons/VE125_randls_23.json,http://54.235.29.9/FacialAge/BNav_EC2/DepthDuration/v2_depth_duration_MTurk/v2_DepthDuration_HTML.html#41,41,1366,625,1366,768,8-29-2022,9-58-37,152,depth_duration_stimuli/000549_2014-06-08_22-10-24_260595134347_rgbf000247-resize_3/000549_2014-06-08_22-10-24_260595134347_rgbf000247-resize_3-target.png,125,1.841,0,2265,133,meters,jsons/VE125_randls_23.json,970500,1116124,48,Man
152,245408,DepthScenes,duration_manipulation_targetAtFixation,jsons/VE125_randls_23.json,http://54.235.29.9/FacialAge/BNav_EC2/DepthDuration/v2_depth_duration_MTurk/v2_DepthDuration_HTML.html#41,41,1366,625,1366,768,8-29-2022,9-58-37,153,depth_duration_stimuli/002748_2014-06-22_19-07-22_094959634447_rgbf000078-resize_1/002748_2014-06-22_19-07-22_094959634447_rgbf000078-resize_1-target.png,125,4.6705,0,2539,115,meters,jsons/VE125_randls_23.json,970500,1116124,48,Man
153,245408,DepthScenes,duration_manipulation_targetAtFixation,jsons/VE125_randls_23.json,http://54.235.29.9/FacialAge/BNav_EC2/DepthDuration/v2_depth_duration_MTurk/v2_DepthDuration_HTML.html#41,41,1366,625,1366,768,8-29-2022,9-58-37,154,depth_duration_stimuli/002995_2014-06-15_12-31-26_094959634447_rgbf000150-resize_1/002995_2014-06-15_12-31-26_094959634447_rgbf000150-resize_1-target.png,125,3.8360000000000003,0,1952,124,meters,jsons/VE125_randls_23.json,970500,1116124,48,Man
154,245408,DepthScenes,duration_manipulation_targetAtFixation,jsons/VE125_randls_23.json,http://54.235.29.9/FacialAge/BNav_EC2/DepthDuration/v2_depth_duration_MTurk/v2_DepthDuration_HTML.html#41,41,1366,625,1366,768,8-29-2022,9-58-37,155,depth_duration_stimuli/001808_2014-06-26_20-50-58_260595134347_rgbf000029-resize_1/001808_2014-06-26_20-50-58_260595134347_rgbf000029-resize_1-target.png,125,4.249,0,2005,111,meters,jsons/VE125_randls_23.json,970500,1116124,48,Man
155,245408,DepthScenes,duration_manipulation_targetAtFixation,jsons/VE125_randls_23.json,http://54.235.29.9/FacialAge/BNav_EC2/DepthDuration/v2_depth_duration_MTurk/v2_DepthDuration_HTML.html#41,41,1366,625,1366,768,8-29-2022,9-58-37,156,depth_duration_stimuli/001815_2014-06-26_20-52-55_260595134347_rgbf000020-resize_0/001815_2014-06-26_20-52-55_260595134347_rgbf000020-resize_0-target.png,125,3.3865,0,2027,124,meters,jsons/VE125_randls_23.json,970500,1116124,48,Man
156,245408,DepthScenes,duration_manipulation_targetAtFixation,jsons/VE125_randls_23.json,http://54.235.29.9/FacialAge/BNav_EC2/DepthDuration/v2_depth_duration_MTurk/v2_DepthDuration_HTML.html#41,41,1366,625,1366,768,8-29-2022,9-58-37,157,depth_duration_stimuli/001570_2014-06-20_17-21-09_260595134347_rgbf000135-resize_4/001570_2014-06-20_17-21-09_260595134347_rgbf000135-resize_4-target.png,125,4.467,0,1891,124,meters,jsons/VE125_randls_23.json,970500,1116124,48,Man
157,245408,DepthScenes,duration_manipulation_targetAtFixation,jsons/VE125_randls_23.json,http://54.235.29.9/FacialAge/BNav_EC2/DepthDuration/v2_depth_duration_MTurk/v2_DepthDuration_HTML.html#41,41,1366,625,1366,768,8-29-2022,9-58-37,158,depth_duration_stimuli/001392_2014-06-19_16-07-59_260595134347_rgbf000046-resize_1/001392_2014-06-19_16-07-59_260595134347_rgbf000046-resize_1-target.png,125,4.135,0,2372,115,meters,jsons/VE125_randls_23.json,970500,1116124,48,Man
158,245408,DepthScenes,duration_manipulation_targetAtFixation,jsons/VE125_randls_23.json,http://54.235.29.9/FacialAge/BNav_EC2/DepthDuration/v2_depth_duration_MTurk/v2_DepthDuration_HTML.html#41,41,1366,625,1366,768,8-29-2022,9-58-37,159,depth_duration_stimuli/003621_2014-05-23_18-06-08_094959634447_rgbf000101-resize_1/003621_2014-05-23_18-06-08_094959634447_rgbf000101-resize_1-target.png,125,3.9835,0,75270,94,meters,jsons/VE125_randls_23.json,970500,1116124,48,Man
159,245408,DepthScenes,duration_manipulation_targetAtFixation,jsons/VE125_randls_23.json,http://54.235.29.9/FacialAge/BNav_EC2/DepthDuration/v2_depth_duration_MTurk/v2_DepthDuration_HTML.html#41,41,1366,625,1366,768,8-29-2022,9-58-37,160,depth_duration_stimuli/001584_2014-06-20_11-07-43_260595134347_rgbf000002-resize_1/001584_2014-06-20_11-07-43_260595134347_rgbf000002-resize_1-target.png,125,3.53,0,2338,123,meters,jsons/VE125_randls_23.json,970500,1116124,48,Man
160,245408,DepthScenes,duration_manipulation_targetAtFixation,jsons/VE125_randls_23.json,http://54.235.29.9/FacialAge/BNav_EC2/DepthDuration/v2_depth_duration_MTurk/v2_DepthDuration_HTML.html#41,41,1366,625,1366,768,8-29-2022,9-58-37,161,depth_duration_stimuli/001199_2014-06-17_16-03-48_260595134347_rgbf000077-resize_0/001199_2014-06-17_16-03-48_260595134347_rgbf000077-resize_0-target.png,125,3.4375,0,2799,126,meters,jsons/VE125_randls_23.json,970500,1116124,48,Man
161,245408,DepthScenes,duration_manipulation_targetAtFixation,jsons/VE125_randls_23.json,http://54.235.29.9/FacialAge/BNav_EC2/DepthDuration/v2_depth_duration_MTurk/v2_DepthDuration_HTML.html#41,41,1366,625,1366,768,8-29-2022,9-58-37,162,depth_duration_stimuli/000502_2014-06-08_23-02-32_260595134347_rgbf000063-resize_4/000502_2014-06-08_23-02-32_260595134347_rgbf000063-resize_4-target.png,125,2.431,0,4586,125,meters,jsons/VE125_randls_23.json,970500,1116124,48,Man
162,245408,DepthScenes,duration_manipulation_targetAtFixation,jsons/VE125_randls_23.json,http://54.235.29.9/FacialAge/BNav_EC2/DepthDuration/v2_depth_duration_MTurk/v2_DepthDuration_HTML.html#41,41,1366,625,1366,768,8-29-2022,9-58-37,163,depth_duration_stimuli/003534_2014-05-22_15-06-10_094959634447_rgbf000102-resize_4/003534_2014-05-22_15-06-10_094959634447_rgbf000102-resize_4-target.png,125,1.426,0,13172,129,meters,jsons/VE125_randls_23.json,970500,1116124,48,Man
163,245408,DepthScenes,duration_manipulation_targetAtFixation,jsons/VE125_randls_23.json,http://54.235.29.9/FacialAge/BNav_EC2/DepthDuration/v2_depth_duration_MTurk/v2_DepthDuration_HTML.html#41,41,1366,625,1366,768,8-29-2022,9-58-37,164,depth_duration_stimuli/002637_2014-06-24_14-51-13_094959634447_rgbf000066-resize_4/002637_2014-06-24_14-51-13_094959634447_rgbf000066-resize_4-target.png,125,1.9955,0,4371,129,meters,jsons/VE125_randls_23.json,970500,1116124,48,Man
