,subjID,experimentName,versionName,sequenceName,url,selected_row,windowWidth,windowHeight,screenWidth,screenHeight,startDate,startTime,trial,stimulus,duration,actual_depth,depth_estimate,trial_RT,log_sceneDuration,unitSelection,seq_filepath,experimentTime,totalTime,age,gender
0,246490,DepthScenes,duration_manipulation_targetAtFixation,jsons/VE125_randls_68.json,http://54.235.29.9/FacialAge/BNav_EC2/DepthDuration/v2_depth_duration_MTurk/v2_DepthDuration_HTML.html#155,155,1366,768,1366,768,9-19-2022,17-51-3,1,depth_duration_stimuli/000522_2014-06-08_13-35-06_260595134347_rgbf000244-resize_1/000522_2014-06-08_13-35-06_260595134347_rgbf000244-resize_1-target.png,125,2.3715,5,3769,125,feet,jsons/VE125_randls_68.json,726302,939128,39,Woman
1,246490,DepthScenes,duration_manipulation_targetAtFixation,jsons/VE125_randls_68.json,http://54.235.29.9/FacialAge/BNav_EC2/DepthDuration/v2_depth_duration_MTurk/v2_DepthDuration_HTML.html#155,155,1366,768,1366,768,9-19-2022,17-51-3,2,depth_duration_stimuli/002949_2014-06-26_15-57-42_094959634447_rgbf000079-resize_1/002949_2014-06-26_15-57-42_094959634447_rgbf000079-resize_1-target.png,125,1.8915,5,4246,118,feet,jsons/VE125_randls_68.json,726302,939128,39,Woman
2,246490,DepthScenes,duration_manipulation_targetAtFixation,jsons/VE125_randls_68.json,http://54.235.29.9/FacialAge/BNav_EC2/DepthDuration/v2_depth_duration_MTurk/v2_DepthDuration_HTML.html#155,155,1366,768,1366,768,9-19-2022,17-51-3,3,depth_duration_stimuli/001167_2014-06-17_15-38-07_260595134347_rgbf000108-resize_0/001167_2014-06-17_15-38-07_260595134347_rgbf000108-resize_0-target.png,125,1.8505,5,5397,126,feet,jsons/VE125_randls_68.json,726302,939128,39,Woman
3,246490,DepthScenes,duration_manipulation_targetAtFixation,jsons/VE125_randls_68.json,http://54.235.29.9/FacialAge/BNav_EC2/DepthDuration/v2_depth_duration_MTurk/v2_DepthDuration_HTML.html#155,155,1366,768,1366,768,9-19-2022,17-51-3,4,depth_duration_stimuli/003587_2014-05-23_16-48-02_094959634447_rgbf002384-resize_2/003587_2014-05-23_16-48-02_094959634447_rgbf002384-resize_2-target.png,125,1.357,3,4694,125,feet,jsons/VE125_randls_68.json,726302,939128,39,Woman
4,246490,DepthScenes,duration_manipulation_targetAtFixation,jsons/VE125_randls_68.json,http://54.235.29.9/FacialAge/BNav_EC2/DepthDuration/v2_depth_duration_MTurk/v2_DepthDuration_HTML.html#155,155,1366,768,1366,768,9-19-2022,17-51-3,5,depth_duration_stimuli/003070_2014-06-15_14-58-27_094959634447_rgbf000150-resize_3/003070_2014-06-15_14-58-27_094959634447_rgbf000150-resize_3-target.png,125,2.9415,5,3678,123,feet,jsons/VE125_randls_68.json,726302,939128,39,Woman
5,246490,DepthScenes,duration_manipulation_targetAtFixation,jsons/VE125_randls_68.json,http://54.235.29.9/FacialAge/BNav_EC2/DepthDuration/v2_depth_duration_MTurk/v2_DepthDuration_HTML.html#155,155,1366,768,1366,768,9-19-2022,17-51-3,6,depth_duration_stimuli/000943_2014-06-09_19-31-07_260595134347_rgbf000128-resize_1/000943_2014-06-09_19-31-07_260595134347_rgbf000128-resize_1-target.png,125,1.9765,3,5195,124,feet,jsons/VE125_randls_68.json,726302,939128,39,Woman
6,246490,DepthScenes,duration_manipulation_targetAtFixation,jsons/VE125_randls_68.json,http://54.235.29.9/FacialAge/BNav_EC2/DepthDuration/v2_depth_duration_MTurk/v2_DepthDuration_HTML.html#155,155,1366,768,1366,768,9-19-2022,17-51-3,7,depth_duration_stimuli/001810_2014-06-26_20-51-35_260595134347_rgbf000040-resize_3/001810_2014-06-26_20-51-35_260595134347_rgbf000040-resize_3-target.png,125,2.2525,4,3136,130,feet,jsons/VE125_randls_68.json,726302,939128,39,Woman
7,246490,DepthScenes,duration_manipulation_targetAtFixation,jsons/VE125_randls_68.json,http://54.235.29.9/FacialAge/BNav_EC2/DepthDuration/v2_depth_duration_MTurk/v2_DepthDuration_HTML.html#155,155,1366,768,1366,768,9-19-2022,17-51-3,8,depth_duration_stimuli/003010_2014-06-15_12-54-35_094959634447_rgbf000112-resize_0/003010_2014-06-15_12-54-35_094959634447_rgbf000112-resize_0-target.png,125,3.1185,3,3184,131,feet,jsons/VE125_randls_68.json,726302,939128,39,Woman
8,246490,DepthScenes,duration_manipulation_targetAtFixation,jsons/VE125_randls_68.json,http://54.235.29.9/FacialAge/BNav_EC2/DepthDuration/v2_depth_duration_MTurk/v2_DepthDuration_HTML.html#155,155,1366,768,1366,768,9-19-2022,17-51-3,9,depth_duration_stimuli/000758_2014-06-08_22-05-08_260595134347_rgbf000085-resize_0/000758_2014-06-08_22-05-08_260595134347_rgbf000085-resize_0-target.png,125,3.3810000000000002,5,3626,127,feet,jsons/VE125_randls_68.json,726302,939128,39,Woman
9,246490,DepthScenes,duration_manipulation_targetAtFixation,jsons/VE125_randls_68.json,http://54.235.29.9/FacialAge/BNav_EC2/DepthDuration/v2_depth_duration_MTurk/v2_DepthDuration_HTML.html#155,155,1366,768,1366,768,9-19-2022,17-51-3,10,depth_duration_stimuli/000854_2014-06-09_19-43-13_260595134347_rgbf000066-resize_0/000854_2014-06-09_19-43-13_260595134347_rgbf000066-resize_0-target.png,125,3.068,5,3115,117,feet,jsons/VE125_randls_68.json,726302,939128,39,Woman
10,246490,DepthScenes,duration_manipulation_targetAtFixation,jsons/VE125_randls_68.json,http://54.235.29.9/FacialAge/BNav_EC2/DepthDuration/v2_depth_duration_MTurk/v2_DepthDuration_HTML.html#155,155,1366,768,1366,768,9-19-2022,17-51-3,11,depth_duration_stimuli/001417_2014-06-19_16-25-36_260595134347_rgbf000115-resize_5/001417_2014-06-19_16-25-36_260595134347_rgbf000115-resize_5-target.png,125,4.6255,5,2360,126,feet,jsons/VE125_randls_68.json,726302,939128,39,Woman
11,246490,DepthScenes,duration_manipulation_targetAtFixation,jsons/VE125_randls_68.json,http://54.235.29.9/FacialAge/BNav_EC2/DepthDuration/v2_depth_duration_MTurk/v2_DepthDuration_HTML.html#155,155,1366,768,1366,768,9-19-2022,17-51-3,12,depth_duration_stimuli/003081_2014-06-15_15-19-16_094959634447_rgbf000150-resize_1/003081_2014-06-15_15-19-16_094959634447_rgbf000150-resize_1-target.png,125,3.9125,6,3075,135,feet,jsons/VE125_randls_68.json,726302,939128,39,Woman
12,246490,DepthScenes,duration_manipulation_targetAtFixation,jsons/VE125_randls_68.json,http://54.235.29.9/FacialAge/BNav_EC2/DepthDuration/v2_depth_duration_MTurk/v2_DepthDuration_HTML.html#155,155,1366,768,1366,768,9-19-2022,17-51-3,13,depth_duration_stimuli/000569_2014-06-09_22-51-47_260595134347_rgbf000141-resize_3/000569_2014-06-09_22-51-47_260595134347_rgbf000141-resize-original.jpg,125,4.512,0,4473,126,feet,jsons/VE125_randls_68.json,726302,939128,39,Woman
13,246490,DepthScenes,duration_manipulation_targetAtFixation,jsons/VE125_randls_68.json,http://54.235.29.9/FacialAge/BNav_EC2/DepthDuration/v2_depth_duration_MTurk/v2_DepthDuration_HTML.html#155,155,1366,768,1366,768,9-19-2022,17-51-3,14,depth_duration_stimuli/001164_2014-06-17_15-35-46_260595134347_rgbf000085-resize_3/001164_2014-06-17_15-35-46_260595134347_rgbf000085-resize_3-target.png,125,2.354,4,3514,123,feet,jsons/VE125_randls_68.json,726302,939128,39,Woman
14,246490,DepthScenes,duration_manipulation_targetAtFixation,jsons/VE125_randls_68.json,http://54.235.29.9/FacialAge/BNav_EC2/DepthDuration/v2_depth_duration_MTurk/v2_DepthDuration_HTML.html#155,155,1366,768,1366,768,9-19-2022,17-51-3,15,depth_duration_stimuli/001136_2014-06-17_15-19-41_260595134347_rgbf000076-resize_3/001136_2014-06-17_15-19-41_260595134347_rgbf000076-resize_3-target.png,125,1.8655,5,3162,102,feet,jsons/VE125_randls_68.json,726302,939128,39,Woman
15,246490,DepthScenes,duration_manipulation_targetAtFixation,jsons/VE125_randls_68.json,http://54.235.29.9/FacialAge/BNav_EC2/DepthDuration/v2_depth_duration_MTurk/v2_DepthDuration_HTML.html#155,155,1366,768,1366,768,9-19-2022,17-51-3,16,depth_duration_stimuli/002057_2014-06-24_21-00-13_260595134347_rgbf000120-resize_1/002057_2014-06-24_21-00-13_260595134347_rgbf000120-resize_1-target.png,125,2.967,5,3051,125,feet,jsons/VE125_randls_68.json,726302,939128,39,Woman
16,246490,DepthScenes,duration_manipulation_targetAtFixation,jsons/VE125_randls_68.json,http://54.235.29.9/FacialAge/BNav_EC2/DepthDuration/v2_depth_duration_MTurk/v2_DepthDuration_HTML.html#155,155,1366,768,1366,768,9-19-2022,17-51-3,17,depth_duration_stimuli/000709_2014-06-08_13-51-55_260595134347_rgbf000068-resize_3/000709_2014-06-08_13-51-55_260595134347_rgbf000068-resize_3-target.png,125,1.8030000000000002,3,3081,130,feet,jsons/VE125_randls_68.json,726302,939128,39,Woman
17,246490,DepthScenes,duration_manipulation_targetAtFixation,jsons/VE125_randls_68.json,http://54.235.29.9/FacialAge/BNav_EC2/DepthDuration/v2_depth_duration_MTurk/v2_DepthDuration_HTML.html#155,155,1366,768,1366,768,9-19-2022,17-51-3,18,depth_duration_stimuli/001199_2014-06-17_16-03-48_260595134347_rgbf000077-resize_0/001199_2014-06-17_16-03-48_260595134347_rgbf000077-resize_0-target.png,125,3.4375,4,2301,129,feet,jsons/VE125_randls_68.json,726302,939128,39,Woman
18,246490,DepthScenes,duration_manipulation_targetAtFixation,jsons/VE125_randls_68.json,http://54.235.29.9/FacialAge/BNav_EC2/DepthDuration/v2_depth_duration_MTurk/v2_DepthDuration_HTML.html#155,155,1366,768,1366,768,9-19-2022,17-51-3,19,depth_duration_stimuli/000502_2014-06-08_23-02-32_260595134347_rgbf000063-resize_4/000502_2014-06-08_23-02-32_260595134347_rgbf000063-resize_4-target.png,125,2.431,3,2838,110,feet,jsons/VE125_randls_68.json,726302,939128,39,Woman
19,246490,DepthScenes,duration_manipulation_targetAtFixation,jsons/VE125_randls_68.json,http://54.235.29.9/FacialAge/BNav_EC2/DepthDuration/v2_depth_duration_MTurk/v2_DepthDuration_HTML.html#155,155,1366,768,1366,768,9-19-2022,17-51-3,20,depth_duration_stimuli/000493_2014-06-09_21-01-18_260595134347_rgbf000196-resize_3/000493_2014-06-09_21-01-18_260595134347_rgbf000196-resize_3-target.png,125,3.44,3,3183,138,feet,jsons/VE125_randls_68.json,726302,939128,39,Woman
20,246490,DepthScenes,duration_manipulation_targetAtFixation,jsons/VE125_randls_68.json,http://54.235.29.9/FacialAge/BNav_EC2/DepthDuration/v2_depth_duration_MTurk/v2_DepthDuration_HTML.html#155,155,1366,768,1366,768,9-19-2022,17-51-3,21,depth_duration_stimuli/000191_2014-05-12_17-07-38_260595134347_rgbf000199-resize_0/000191_2014-05-12_17-07-38_260595134347_rgbf000199-resize_0-target.png,125,3.7995,3,3487,125,feet,jsons/VE125_randls_68.json,726302,939128,39,Woman
21,246490,DepthScenes,duration_manipulation_targetAtFixation,jsons/VE125_randls_68.json,http://54.235.29.9/FacialAge/BNav_EC2/DepthDuration/v2_depth_duration_MTurk/v2_DepthDuration_HTML.html#155,155,1366,768,1366,768,9-19-2022,17-51-3,22,depth_duration_stimuli/001808_2014-06-26_20-50-58_260595134347_rgbf000029-resize_1/001808_2014-06-26_20-50-58_260595134347_rgbf000029-resize_1-target.png,125,4.249,4,3028,108,feet,jsons/VE125_randls_68.json,726302,939128,39,Woman
22,246490,DepthScenes,duration_manipulation_targetAtFixation,jsons/VE125_randls_68.json,http://54.235.29.9/FacialAge/BNav_EC2/DepthDuration/v2_depth_duration_MTurk/v2_DepthDuration_HTML.html#155,155,1366,768,1366,768,9-19-2022,17-51-3,23,depth_duration_stimuli/001815_2014-06-26_20-52-55_260595134347_rgbf000020-resize_0/001815_2014-06-26_20-52-55_260595134347_rgbf000020-resize_0-target.png,125,3.3865,5,3448,115,feet,jsons/VE125_randls_68.json,726302,939128,39,Woman
23,246490,DepthScenes,duration_manipulation_targetAtFixation,jsons/VE125_randls_68.json,http://54.235.29.9/FacialAge/BNav_EC2/DepthDuration/v2_depth_duration_MTurk/v2_DepthDuration_HTML.html#155,155,1366,768,1366,768,9-19-2022,17-51-3,24,depth_duration_stimuli/000906_2014-06-08_13-35-43_260595134347_rgbf000155-resize_1/000906_2014-06-08_13-35-43_260595134347_rgbf000155-resize_1-target.png,125,2.8489999999999998,4,12212,133,feet,jsons/VE125_randls_68.json,726302,939128,39,Woman
24,246490,DepthScenes,duration_manipulation_targetAtFixation,jsons/VE125_randls_68.json,http://54.235.29.9/FacialAge/BNav_EC2/DepthDuration/v2_depth_duration_MTurk/v2_DepthDuration_HTML.html#155,155,1366,768,1366,768,9-19-2022,17-51-3,25,depth_duration_stimuli/002805_2014-06-22_19-54-03_094959634447_rgbf000079-resize_1/002805_2014-06-22_19-54-03_094959634447_rgbf000079-resize_1-target.png,125,3.1439999999999997,5,3719,126,feet,jsons/VE125_randls_68.json,726302,939128,39,Woman
25,246490,DepthScenes,duration_manipulation_targetAtFixation,jsons/VE125_randls_68.json,http://54.235.29.9/FacialAge/BNav_EC2/DepthDuration/v2_depth_duration_MTurk/v2_DepthDuration_HTML.html#155,155,1366,768,1366,768,9-19-2022,17-51-3,26,depth_duration_stimuli/002549_2014-06-24_13-41-39_094959634447_rgbf000022-resize_3/002549_2014-06-24_13-41-39_094959634447_rgbf000022-resize_3-target.png,125,1.476,3,4214,138,feet,jsons/VE125_randls_68.json,726302,939128,39,Woman
26,246490,DepthScenes,duration_manipulation_targetAtFixation,jsons/VE125_randls_68.json,http://54.235.29.9/FacialAge/BNav_EC2/DepthDuration/v2_depth_duration_MTurk/v2_DepthDuration_HTML.html#155,155,1366,768,1366,768,9-19-2022,17-51-3,27,depth_duration_stimuli/002750_2014-06-22_19-08-03_094959634447_rgbf000094-resize_4/002750_2014-06-22_19-08-03_094959634447_rgbf000094-resize_4-target.png,125,2.354,3,4104,137,feet,jsons/VE125_randls_68.json,726302,939128,39,Woman
27,246490,DepthScenes,duration_manipulation_targetAtFixation,jsons/VE125_randls_68.json,http://54.235.29.9/FacialAge/BNav_EC2/DepthDuration/v2_depth_duration_MTurk/v2_DepthDuration_HTML.html#155,155,1366,768,1366,768,9-19-2022,17-51-3,28,depth_duration_stimuli/001570_2014-06-20_17-21-09_260595134347_rgbf000135-resize_4/001570_2014-06-20_17-21-09_260595134347_rgbf000135-resize_4-target.png,125,4.467,4,3580,126,feet,jsons/VE125_randls_68.json,726302,939128,39,Woman
28,246490,DepthScenes,duration_manipulation_targetAtFixation,jsons/VE125_randls_68.json,http://54.235.29.9/FacialAge/BNav_EC2/DepthDuration/v2_depth_duration_MTurk/v2_DepthDuration_HTML.html#155,155,1366,768,1366,768,9-19-2022,17-51-3,29,depth_duration_stimuli/001392_2014-06-19_16-07-59_260595134347_rgbf000046-resize_1/001392_2014-06-19_16-07-59_260595134347_rgbf000046-resize_1-target.png,125,4.135,5,4110,135,feet,jsons/VE125_randls_68.json,726302,939128,39,Woman
29,246490,DepthScenes,duration_manipulation_targetAtFixation,jsons/VE125_randls_68.json,http://54.235.29.9/FacialAge/BNav_EC2/DepthDuration/v2_depth_duration_MTurk/v2_DepthDuration_HTML.html#155,155,1366,768,1366,768,9-19-2022,17-51-3,30,depth_duration_stimuli/000375_2014-06-08_11-17-29_260595134347_rgbf000133-resize_2/000375_2014-06-08_11-17-29_260595134347_rgbf000133-resize-original.jpg,125,4.718,4,4222,119,feet,jsons/VE125_randls_68.json,726302,939128,39,Woman
30,246490,DepthScenes,duration_manipulation_targetAtFixation,jsons/VE125_randls_68.json,http://54.235.29.9/FacialAge/BNav_EC2/DepthDuration/v2_depth_duration_MTurk/v2_DepthDuration_HTML.html#155,155,1366,768,1366,768,9-19-2022,17-51-3,31,depth_duration_stimuli/001449_2014-06-19_17-01-27_260595134347_rgbf000116-resize_2/001449_2014-06-19_17-01-27_260595134347_rgbf000116-resize_2-target.png,125,3.452,4,31700,127,feet,jsons/VE125_randls_68.json,726302,939128,39,Woman
31,246490,DepthScenes,duration_manipulation_targetAtFixation,jsons/VE125_randls_68.json,http://54.235.29.9/FacialAge/BNav_EC2/DepthDuration/v2_depth_duration_MTurk/v2_DepthDuration_HTML.html#155,155,1366,768,1366,768,9-19-2022,17-51-3,32,depth_duration_stimuli/001450_2014-06-19_17-02-03_260595134347_rgbf000203-resize_4/001450_2014-06-19_17-02-03_260595134347_rgbf000203-resize_4-target.png,125,4.0106666666667,3,5421,124,feet,jsons/VE125_randls_68.json,726302,939128,39,Woman
32,246490,DepthScenes,duration_manipulation_targetAtFixation,jsons/VE125_randls_68.json,http://54.235.29.9/FacialAge/BNav_EC2/DepthDuration/v2_depth_duration_MTurk/v2_DepthDuration_HTML.html#155,155,1366,768,1366,768,9-19-2022,17-51-3,33,depth_duration_stimuli/002905_2014-06-03_18-04-43_094959634447_rgbf000151-resize_2/002905_2014-06-03_18-04-43_094959634447_rgbf000151-resize_2-target.png,125,2.0295,4,8962,128,feet,jsons/VE125_randls_68.json,726302,939128,39,Woman
33,246490,DepthScenes,duration_manipulation_targetAtFixation,jsons/VE125_randls_68.json,http://54.235.29.9/FacialAge/BNav_EC2/DepthDuration/v2_depth_duration_MTurk/v2_DepthDuration_HTML.html#155,155,1366,768,1366,768,9-19-2022,17-51-3,34,depth_duration_stimuli/003423_2014-05-21_10-23-26_094959634447_rgbf002665-resize_2/003423_2014-05-21_10-23-26_094959634447_rgbf002665-resize_2-target.png,125,3.2575,5,9997,130,feet,jsons/VE125_randls_68.json,726302,939128,39,Woman
34,246490,DepthScenes,duration_manipulation_targetAtFixation,jsons/VE125_randls_68.json,http://54.235.29.9/FacialAge/BNav_EC2/DepthDuration/v2_depth_duration_MTurk/v2_DepthDuration_HTML.html#155,155,1366,768,1366,768,9-19-2022,17-51-3,35,depth_duration_stimuli/002445_2014-06-28_20-32-16_260595134347_rgbf000029-resize_4/002445_2014-06-28_20-32-16_260595134347_rgbf000029-resize_4-target.png,125,2.5315,5,7460,125,feet,jsons/VE125_randls_68.json,726302,939128,39,Woman
35,246490,DepthScenes,duration_manipulation_targetAtFixation,jsons/VE125_randls_68.json,http://54.235.29.9/FacialAge/BNav_EC2/DepthDuration/v2_depth_duration_MTurk/v2_DepthDuration_HTML.html#155,155,1366,768,1366,768,9-19-2022,17-51-3,36,depth_duration_stimuli/000780_2014-06-08_22-28-29_260595134347_rgbf000126-resize_1/000780_2014-06-08_22-28-29_260595134347_rgbf000126-resize_1-target.png,125,3.3825,3,4682,124,feet,jsons/VE125_randls_68.json,726302,939128,39,Woman
36,246490,DepthScenes,duration_manipulation_targetAtFixation,jsons/VE125_randls_68.json,http://54.235.29.9/FacialAge/BNav_EC2/DepthDuration/v2_depth_duration_MTurk/v2_DepthDuration_HTML.html#155,155,1366,768,1366,768,9-19-2022,17-51-3,37,depth_duration_stimuli/000009_2014-05-26_14-32-05_260595134347_rgbf000034-resize_3/000009_2014-05-26_14-32-05_260595134347_rgbf000034-resize_3-target.png,125,3.8715,4,3826,122,feet,jsons/VE125_randls_68.json,726302,939128,39,Woman
37,246490,DepthScenes,duration_manipulation_targetAtFixation,jsons/VE125_randls_68.json,http://54.235.29.9/FacialAge/BNav_EC2/DepthDuration/v2_depth_duration_MTurk/v2_DepthDuration_HTML.html#155,155,1366,768,1366,768,9-19-2022,17-51-3,38,depth_duration_stimuli/001828_2014-06-26_21-40-03_260595134347_rgbf000024-resize_0/001828_2014-06-26_21-40-03_260595134347_rgbf000024-resize_0-target.png,125,4.8260000000000005,3,3568,130,feet,jsons/VE125_randls_68.json,726302,939128,39,Woman
38,246490,DepthScenes,duration_manipulation_targetAtFixation,jsons/VE125_randls_68.json,http://54.235.29.9/FacialAge/BNav_EC2/DepthDuration/v2_depth_duration_MTurk/v2_DepthDuration_HTML.html#155,155,1366,768,1366,768,9-19-2022,17-51-3,39,depth_duration_stimuli/000642_2014-06-08_16-59-25_260595134347_rgbf000098-resize_2/000642_2014-06-08_16-59-25_260595134347_rgbf000098-resize_2-target.png,125,2.8815,5,3001,113,feet,jsons/VE125_randls_68.json,726302,939128,39,Woman
39,246490,DepthScenes,duration_manipulation_targetAtFixation,jsons/VE125_randls_68.json,http://54.235.29.9/FacialAge/BNav_EC2/DepthDuration/v2_depth_duration_MTurk/v2_DepthDuration_HTML.html#155,155,1366,768,1366,768,9-19-2022,17-51-3,40,depth_duration_stimuli/002425_2014-06-28_20-27-29_260595134347_rgbf000031-resize_8/002425_2014-06-28_20-27-29_260595134347_rgbf000031-resize_8-target.png,125,3.8960000000000004,3,3900,117,feet,jsons/VE125_randls_68.json,726302,939128,39,Woman
40,246490,DepthScenes,duration_manipulation_targetAtFixation,jsons/VE125_randls_68.json,http://54.235.29.9/FacialAge/BNav_EC2/DepthDuration/v2_depth_duration_MTurk/v2_DepthDuration_HTML.html#155,155,1366,768,1366,768,9-19-2022,17-51-3,41,depth_duration_stimuli/000788_2014-06-08_22-34-36_260595134347_rgbf000131-resize_1/000788_2014-06-08_22-34-36_260595134347_rgbf000131-resize_1-target.png,125,3.359,4,3197,125,feet,jsons/VE125_randls_68.json,726302,939128,39,Woman
41,246490,DepthScenes,duration_manipulation_targetAtFixation,jsons/VE125_randls_68.json,http://54.235.29.9/FacialAge/BNav_EC2/DepthDuration/v2_depth_duration_MTurk/v2_DepthDuration_HTML.html#155,155,1366,768,1366,768,9-19-2022,17-51-3,42,depth_duration_stimuli/001235_2014-06-17_16-37-36_260595134347_rgbf000084-resize_4/001235_2014-06-17_16-37-36_260595134347_rgbf000084-resize_4-target.png,125,3.6605,5,4515,124,feet,jsons/VE125_randls_68.json,726302,939128,39,Woman
42,246490,DepthScenes,duration_manipulation_targetAtFixation,jsons/VE125_randls_68.json,http://54.235.29.9/FacialAge/BNav_EC2/DepthDuration/v2_depth_duration_MTurk/v2_DepthDuration_HTML.html#155,155,1366,768,1366,768,9-19-2022,17-51-3,43,depth_duration_stimuli/002763_2014-06-22_19-13-10_094959634447_rgbf000075-resize_4/002763_2014-06-22_19-13-10_094959634447_rgbf000075-resize_4-target.png,125,1.68375,4,3052,122,feet,jsons/VE125_randls_68.json,726302,939128,39,Woman
43,246490,DepthScenes,duration_manipulation_targetAtFixation,jsons/VE125_randls_68.json,http://54.235.29.9/FacialAge/BNav_EC2/DepthDuration/v2_depth_duration_MTurk/v2_DepthDuration_HTML.html#155,155,1366,768,1366,768,9-19-2022,17-51-3,44,depth_duration_stimuli/002209_2014-06-28_18-36-10_260595134347_rgbf000051-resize_1/002209_2014-06-28_18-36-10_260595134347_rgbf000051-resize_1-target.png,125,2.057,5,3815,123,feet,jsons/VE125_randls_68.json,726302,939128,39,Woman
44,246490,DepthScenes,duration_manipulation_targetAtFixation,jsons/VE125_randls_68.json,http://54.235.29.9/FacialAge/BNav_EC2/DepthDuration/v2_depth_duration_MTurk/v2_DepthDuration_HTML.html#155,155,1366,768,1366,768,9-19-2022,17-51-3,45,depth_duration_stimuli/000787_2014-06-08_22-33-53_260595134347_rgbf000175-resize_1/000787_2014-06-08_22-33-53_260595134347_rgbf000175-resize-original.jpg,125,4.784,4,3362,125,feet,jsons/VE125_randls_68.json,726302,939128,39,Woman
45,246490,DepthScenes,duration_manipulation_targetAtFixation,jsons/VE125_randls_68.json,http://54.235.29.9/FacialAge/BNav_EC2/DepthDuration/v2_depth_duration_MTurk/v2_DepthDuration_HTML.html#155,155,1366,768,1366,768,9-19-2022,17-51-3,46,depth_duration_stimuli/001059_2014-06-08_21-53-27_260595134347_rgbf000061-resize_4/001059_2014-06-08_21-53-27_260595134347_rgbf000061-resize_4-target.png,125,2.4185,5,4674,105,feet,jsons/VE125_randls_68.json,726302,939128,39,Woman
46,246490,DepthScenes,duration_manipulation_targetAtFixation,jsons/VE125_randls_68.json,http://54.235.29.9/FacialAge/BNav_EC2/DepthDuration/v2_depth_duration_MTurk/v2_DepthDuration_HTML.html#155,155,1366,768,1366,768,9-19-2022,17-51-3,47,depth_duration_stimuli/001032_2014-06-08_13-23-17_260595134347_rgbf000021-resize_3/001032_2014-06-08_13-23-17_260595134347_rgbf000021-resize_3-target.png,125,3.2725,5,3135,126,feet,jsons/VE125_randls_68.json,726302,939128,39,Woman
47,246490,DepthScenes,duration_manipulation_targetAtFixation,jsons/VE125_randls_68.json,http://54.235.29.9/FacialAge/BNav_EC2/DepthDuration/v2_depth_duration_MTurk/v2_DepthDuration_HTML.html#155,155,1366,768,1366,768,9-19-2022,17-51-3,48,depth_duration_stimuli/002788_2014-06-22_19-36-03_094959634447_rgbf000088-resize_2/002788_2014-06-22_19-36-03_094959634447_rgbf000088-resize_2-target.png,125,1.6465,3,3120,125,feet,jsons/VE125_randls_68.json,726302,939128,39,Woman
48,246490,DepthScenes,duration_manipulation_targetAtFixation,jsons/VE125_randls_68.json,http://54.235.29.9/FacialAge/BNav_EC2/DepthDuration/v2_depth_duration_MTurk/v2_DepthDuration_HTML.html#155,155,1366,768,1366,768,9-19-2022,17-51-3,49,depth_duration_stimuli/000749_2014-06-08_21-55-06_260595134347_rgbf000070-resize_2/000749_2014-06-08_21-55-06_260595134347_rgbf000070-resize_2-target.png,125,2.331,4,3342,124,feet,jsons/VE125_randls_68.json,726302,939128,39,Woman
49,246490,DepthScenes,duration_manipulation_targetAtFixation,jsons/VE125_randls_68.json,http://54.235.29.9/FacialAge/BNav_EC2/DepthDuration/v2_depth_duration_MTurk/v2_DepthDuration_HTML.html#155,155,1366,768,1366,768,9-19-2022,17-51-3,50,depth_duration_stimuli/000469_2014-06-09_19-42-10_260595134347_rgbf000081-resize_1/000469_2014-06-09_19-42-10_260595134347_rgbf000081-resize_1-target.png,125,1.652,4,3212,125,feet,jsons/VE125_randls_68.json,726302,939128,39,Woman
50,246490,DepthScenes,duration_manipulation_targetAtFixation,jsons/VE125_randls_68.json,http://54.235.29.9/FacialAge/BNav_EC2/DepthDuration/v2_depth_duration_MTurk/v2_DepthDuration_HTML.html#155,155,1366,768,1366,768,9-19-2022,17-51-3,51,depth_duration_stimuli/000483_2014-06-09_20-41-45_260595134347_rgbf000116-resize_4/000483_2014-06-09_20-41-45_260595134347_rgbf000116-resize_4-target.png,125,1.337,4,3562,124,feet,jsons/VE125_randls_68.json,726302,939128,39,Woman
51,246490,DepthScenes,duration_manipulation_targetAtFixation,jsons/VE125_randls_68.json,http://54.235.29.9/FacialAge/BNav_EC2/DepthDuration/v2_depth_duration_MTurk/v2_DepthDuration_HTML.html#155,155,1366,768,1366,768,9-19-2022,17-51-3,52,depth_duration_stimuli/001055_2014-06-08_18-45-35_260595134347_rgbf000111-resize_4/001055_2014-06-08_18-45-35_260595134347_rgbf000111-resize_4-target.png,125,2.4290000000000003,5,3142,126,feet,jsons/VE125_randls_68.json,726302,939128,39,Woman
52,246490,DepthScenes,duration_manipulation_targetAtFixation,jsons/VE125_randls_68.json,http://54.235.29.9/FacialAge/BNav_EC2/DepthDuration/v2_depth_duration_MTurk/v2_DepthDuration_HTML.html#155,155,1366,768,1366,768,9-19-2022,17-51-3,53,depth_duration_stimuli/000549_2014-06-08_22-10-24_260595134347_rgbf000247-resize_3/000549_2014-06-08_22-10-24_260595134347_rgbf000247-resize_3-target.png,125,1.841,4,3382,116,feet,jsons/VE125_randls_68.json,726302,939128,39,Woman
53,246490,DepthScenes,duration_manipulation_targetAtFixation,jsons/VE125_randls_68.json,http://54.235.29.9/FacialAge/BNav_EC2/DepthDuration/v2_depth_duration_MTurk/v2_DepthDuration_HTML.html#155,155,1366,768,1366,768,9-19-2022,17-51-3,54,depth_duration_stimuli/000810_2014-06-08_17-20-01_260595134347_rgbf000105-resize_0/000810_2014-06-08_17-20-01_260595134347_rgbf000105-resize_0-target.png,125,1.4865,3,5021,119,feet,jsons/VE125_randls_68.json,726302,939128,39,Woman
54,246490,DepthScenes,duration_manipulation_targetAtFixation,jsons/VE125_randls_68.json,http://54.235.29.9/FacialAge/BNav_EC2/DepthDuration/v2_depth_duration_MTurk/v2_DepthDuration_HTML.html#155,155,1366,768,1366,768,9-19-2022,17-51-3,55,depth_duration_stimuli/001214_2014-06-17_16-13-55_260595134347_rgbf000111-resize_0/001214_2014-06-17_16-13-55_260595134347_rgbf000111-resize_0-target.png,125,2.6505,5,3321,118,feet,jsons/VE125_randls_68.json,726302,939128,39,Woman
55,246490,DepthScenes,duration_manipulation_targetAtFixation,jsons/VE125_randls_68.json,http://54.235.29.9/FacialAge/BNav_EC2/DepthDuration/v2_depth_duration_MTurk/v2_DepthDuration_HTML.html#155,155,1366,768,1366,768,9-19-2022,17-51-3,56,depth_duration_stimuli/001092_2014-06-15_17-34-58_260595134347_rgbf000171-resize_3/001092_2014-06-15_17-34-58_260595134347_rgbf000171-resize_3-target.png,125,2.6935,4,3184,125,feet,jsons/VE125_randls_68.json,726302,939128,39,Woman
56,246490,DepthScenes,duration_manipulation_targetAtFixation,jsons/VE125_randls_68.json,http://54.235.29.9/FacialAge/BNav_EC2/DepthDuration/v2_depth_duration_MTurk/v2_DepthDuration_HTML.html#155,155,1366,768,1366,768,9-19-2022,17-51-3,57,depth_duration_stimuli/002545_2014-06-24_13-38-53_094959634447_rgbf000080-resize_4/002545_2014-06-24_13-38-53_094959634447_rgbf000080-resize_4-target.png,125,1.9205,3,2949,123,feet,jsons/VE125_randls_68.json,726302,939128,39,Woman
57,246490,DepthScenes,duration_manipulation_targetAtFixation,jsons/VE125_randls_68.json,http://54.235.29.9/FacialAge/BNav_EC2/DepthDuration/v2_depth_duration_MTurk/v2_DepthDuration_HTML.html#155,155,1366,768,1366,768,9-19-2022,17-51-3,58,depth_duration_stimuli/002989_2014-06-15_12-25-03_094959634447_rgbf000150-resize_3/002989_2014-06-15_12-25-03_094959634447_rgbf000150-resize_3-target.png,125,4.1975,4,3192,112,feet,jsons/VE125_randls_68.json,726302,939128,39,Woman
58,246490,DepthScenes,duration_manipulation_targetAtFixation,jsons/VE125_randls_68.json,http://54.235.29.9/FacialAge/BNav_EC2/DepthDuration/v2_depth_duration_MTurk/v2_DepthDuration_HTML.html#155,155,1366,768,1366,768,9-19-2022,17-51-3,59,depth_duration_stimuli/000866_2014-06-09_20-45-42_260595134347_rgbf000139-resize_1/000866_2014-06-09_20-45-42_260595134347_rgbf000139-resize_1-target.png,125,3.2155,3,3232,125,feet,jsons/VE125_randls_68.json,726302,939128,39,Woman
59,246490,DepthScenes,duration_manipulation_targetAtFixation,jsons/VE125_randls_68.json,http://54.235.29.9/FacialAge/BNav_EC2/DepthDuration/v2_depth_duration_MTurk/v2_DepthDuration_HTML.html#155,155,1366,768,1366,768,9-19-2022,17-51-3,60,depth_duration_stimuli/001244_2014-06-17_16-47-45_260595134347_rgbf000030-resize_4/001244_2014-06-17_16-47-45_260595134347_rgbf000030-resize_4-target.png,125,2.0425,4,3361,126,feet,jsons/VE125_randls_68.json,726302,939128,39,Woman
60,246490,DepthScenes,duration_manipulation_targetAtFixation,jsons/VE125_randls_68.json,http://54.235.29.9/FacialAge/BNav_EC2/DepthDuration/v2_depth_duration_MTurk/v2_DepthDuration_HTML.html#155,155,1366,768,1366,768,9-19-2022,17-51-3,61,depth_duration_stimuli/003495_2014-05-21_16-01-51_094959634447_rgbf000100-resize_3/003495_2014-05-21_16-01-51_094959634447_rgbf000100-resize_3-target.png,125,1.6255,3,3611,45,feet,jsons/VE125_randls_68.json,726302,939128,39,Woman
61,246490,DepthScenes,duration_manipulation_targetAtFixation,jsons/VE125_randls_68.json,http://54.235.29.9/FacialAge/BNav_EC2/DepthDuration/v2_depth_duration_MTurk/v2_DepthDuration_HTML.html#155,155,1366,768,1366,768,9-19-2022,17-51-3,62,depth_duration_stimuli/002043_2014-06-24_20-29-38_260595134347_rgbf000039-resize_4/002043_2014-06-24_20-29-38_260595134347_rgbf000039-resize_4-target.png,125,2.8435,4,3432,127,feet,jsons/VE125_randls_68.json,726302,939128,39,Woman
62,246490,DepthScenes,duration_manipulation_targetAtFixation,jsons/VE125_randls_68.json,http://54.235.29.9/FacialAge/BNav_EC2/DepthDuration/v2_depth_duration_MTurk/v2_DepthDuration_HTML.html#155,155,1366,768,1366,768,9-19-2022,17-51-3,63,depth_duration_stimuli/003048_2014-06-15_13-49-43_094959634447_rgbf000150-resize_1/003048_2014-06-15_13-49-43_094959634447_rgbf000150-resize_1-target.png,125,4.0035,4,3363,122,feet,jsons/VE125_randls_68.json,726302,939128,39,Woman
63,246490,DepthScenes,duration_manipulation_targetAtFixation,jsons/VE125_randls_68.json,http://54.235.29.9/FacialAge/BNav_EC2/DepthDuration/v2_depth_duration_MTurk/v2_DepthDuration_HTML.html#155,155,1366,768,1366,768,9-19-2022,17-51-3,64,depth_duration_stimuli/000773_2014-06-08_22-24-54_260595134347_rgbf000093-resize_1/000773_2014-06-08_22-24-54_260595134347_rgbf000093-resize_1-target.png,125,4.973,4,3089,124,feet,jsons/VE125_randls_68.json,726302,939128,39,Woman
64,246490,DepthScenes,duration_manipulation_targetAtFixation,jsons/VE125_randls_68.json,http://54.235.29.9/FacialAge/BNav_EC2/DepthDuration/v2_depth_duration_MTurk/v2_DepthDuration_HTML.html#155,155,1366,768,1366,768,9-19-2022,17-51-3,65,depth_duration_stimuli/002414_2014-06-28_20-24-58_260595134347_rgbf000067-resize_4/002414_2014-06-28_20-24-58_260595134347_rgbf000067-resize_4-target.png,125,4.363,5,3320,125,feet,jsons/VE125_randls_68.json,726302,939128,39,Woman
65,246490,DepthScenes,duration_manipulation_targetAtFixation,jsons/VE125_randls_68.json,http://54.235.29.9/FacialAge/BNav_EC2/DepthDuration/v2_depth_duration_MTurk/v2_DepthDuration_HTML.html#155,155,1366,768,1366,768,9-19-2022,17-51-3,66,depth_duration_stimuli/001222_2014-06-17_16-24-06_260595134347_rgbf000073-resize_0/001222_2014-06-17_16-24-06_260595134347_rgbf000073-resize-original.jpg,125,1.4385,3,3013,118,feet,jsons/VE125_randls_68.json,726302,939128,39,Woman
66,246490,DepthScenes,duration_manipulation_targetAtFixation,jsons/VE125_randls_68.json,http://54.235.29.9/FacialAge/BNav_EC2/DepthDuration/v2_depth_duration_MTurk/v2_DepthDuration_HTML.html#155,155,1366,768,1366,768,9-19-2022,17-51-3,67,depth_duration_stimuli/001150_2014-06-17_15-27-34_260595134347_rgbf000108-resize_2/001150_2014-06-17_15-27-34_260595134347_rgbf000108-resize_2-target.png,125,4.0325,4,3358,117,feet,jsons/VE125_randls_68.json,726302,939128,39,Woman
67,246490,DepthScenes,duration_manipulation_targetAtFixation,jsons/VE125_randls_68.json,http://54.235.29.9/FacialAge/BNav_EC2/DepthDuration/v2_depth_duration_MTurk/v2_DepthDuration_HTML.html#155,155,1366,768,1366,768,9-19-2022,17-51-3,68,depth_duration_stimuli/000665_2014-06-09_20-42-35_260595134347_rgbf000110-resize_1/000665_2014-06-09_20-42-35_260595134347_rgbf000110-resize_1-target.png,125,3.057,4,4773,125,feet,jsons/VE125_randls_68.json,726302,939128,39,Woman
68,246490,DepthScenes,duration_manipulation_targetAtFixation,jsons/VE125_randls_68.json,http://54.235.29.9/FacialAge/BNav_EC2/DepthDuration/v2_depth_duration_MTurk/v2_DepthDuration_HTML.html#155,155,1366,768,1366,768,9-19-2022,17-51-3,69,depth_duration_stimuli/000692_2014-06-08_13-09-42_260595134347_rgbf000199-resize_2/000692_2014-06-08_13-09-42_260595134347_rgbf000199-resize_2-target.png,125,3.661,5,3078,121,feet,jsons/VE125_randls_68.json,726302,939128,39,Woman
69,246490,DepthScenes,duration_manipulation_targetAtFixation,jsons/VE125_randls_68.json,http://54.235.29.9/FacialAge/BNav_EC2/DepthDuration/v2_depth_duration_MTurk/v2_DepthDuration_HTML.html#155,155,1366,768,1366,768,9-19-2022,17-51-3,70,depth_duration_stimuli/001094_2014-06-15_17-36-00_260595134347_rgbf000205-resize_0/001094_2014-06-15_17-36-00_260595134347_rgbf000205-resize_0-target.png,125,4.2175,4,2986,126,feet,jsons/VE125_randls_68.json,726302,939128,39,Woman
70,246490,DepthScenes,duration_manipulation_targetAtFixation,jsons/VE125_randls_68.json,http://54.235.29.9/FacialAge/BNav_EC2/DepthDuration/v2_depth_duration_MTurk/v2_DepthDuration_HTML.html#155,155,1366,768,1366,768,9-19-2022,17-51-3,71,depth_duration_stimuli/000436_2014-06-09_22-25-11_260595134347_rgbf000137-resize_1/000436_2014-06-09_22-25-11_260595134347_rgbf000137-resize_1-target.png,125,4.0705,5,3619,108,feet,jsons/VE125_randls_68.json,726302,939128,39,Woman
71,246490,DepthScenes,duration_manipulation_targetAtFixation,jsons/VE125_randls_68.json,http://54.235.29.9/FacialAge/BNav_EC2/DepthDuration/v2_depth_duration_MTurk/v2_DepthDuration_HTML.html#155,155,1366,768,1366,768,9-19-2022,17-51-3,72,depth_duration_stimuli/002444_2014-06-28_20-32-08_260595134347_rgbf000027-resize_0/002444_2014-06-28_20-32-08_260595134347_rgbf000027-resize_0-target.png,125,4.388999999999999,3,3482,126,feet,jsons/VE125_randls_68.json,726302,939128,39,Woman
72,246490,DepthScenes,duration_manipulation_targetAtFixation,jsons/VE125_randls_68.json,http://54.235.29.9/FacialAge/BNav_EC2/DepthDuration/v2_depth_duration_MTurk/v2_DepthDuration_HTML.html#155,155,1366,768,1366,768,9-19-2022,17-51-3,73,depth_duration_stimuli/002725_2014-06-22_11-47-51_094959634447_rgbf000070-resize_1/002725_2014-06-22_11-47-51_094959634447_rgbf000070-resize_1-target.png,125,2.195,4,2976,137,feet,jsons/VE125_randls_68.json,726302,939128,39,Woman
73,246490,DepthScenes,duration_manipulation_targetAtFixation,jsons/VE125_randls_68.json,http://54.235.29.9/FacialAge/BNav_EC2/DepthDuration/v2_depth_duration_MTurk/v2_DepthDuration_HTML.html#155,155,1366,768,1366,768,9-19-2022,17-51-3,74,depth_duration_stimuli/002344_2014-06-28_20-06-29_260595134347_rgbf000030-resize_1/002344_2014-06-28_20-06-29_260595134347_rgbf000030-resize_1-target.png,125,1.5795,3,4257,123,feet,jsons/VE125_randls_68.json,726302,939128,39,Woman
74,246490,DepthScenes,duration_manipulation_targetAtFixation,jsons/VE125_randls_68.json,http://54.235.29.9/FacialAge/BNav_EC2/DepthDuration/v2_depth_duration_MTurk/v2_DepthDuration_HTML.html#155,155,1366,768,1366,768,9-19-2022,17-51-3,75,depth_duration_stimuli/000878_2014-06-08_22-52-45_260595134347_rgbf000045-resize_2/000878_2014-06-08_22-52-45_260595134347_rgbf000045-resize_2-target.png,125,2.092,4,3445,125,feet,jsons/VE125_randls_68.json,726302,939128,39,Woman
75,246490,DepthScenes,duration_manipulation_targetAtFixation,jsons/VE125_randls_68.json,http://54.235.29.9/FacialAge/BNav_EC2/DepthDuration/v2_depth_duration_MTurk/v2_DepthDuration_HTML.html#155,155,1366,768,1366,768,9-19-2022,17-51-3,76,depth_duration_stimuli/002953_2014-06-08_17-32-18_094959634447_rgbf000059-resize_5/002953_2014-06-08_17-32-18_094959634447_rgbf000059-resize_5-target.png,125,1.551,3,3582,122,feet,jsons/VE125_randls_68.json,726302,939128,39,Woman
76,246490,DepthScenes,duration_manipulation_targetAtFixation,jsons/VE125_randls_68.json,http://54.235.29.9/FacialAge/BNav_EC2/DepthDuration/v2_depth_duration_MTurk/v2_DepthDuration_HTML.html#155,155,1366,768,1366,768,9-19-2022,17-51-3,77,depth_duration_stimuli/002279_2014-06-28_18-55-32_260595134347_rgbf000040-resize_5/002279_2014-06-28_18-55-32_260595134347_rgbf000040-resize_5-target.png,125,1.5043333333333,5,3429,110,feet,jsons/VE125_randls_68.json,726302,939128,39,Woman
77,246490,DepthScenes,duration_manipulation_targetAtFixation,jsons/VE125_randls_68.json,http://54.235.29.9/FacialAge/BNav_EC2/DepthDuration/v2_depth_duration_MTurk/v2_DepthDuration_HTML.html#155,155,1366,768,1366,768,9-19-2022,17-51-3,78,depth_duration_stimuli/000635_2014-06-08_16-38-42_260595134347_rgbf000106-resize_1/000635_2014-06-08_16-38-42_260595134347_rgbf000106-resize_1-target.png,125,2.074,5,3091,124,feet,jsons/VE125_randls_68.json,726302,939128,39,Woman
78,246490,DepthScenes,duration_manipulation_targetAtFixation,jsons/VE125_randls_68.json,http://54.235.29.9/FacialAge/BNav_EC2/DepthDuration/v2_depth_duration_MTurk/v2_DepthDuration_HTML.html#155,155,1366,768,1366,768,9-19-2022,17-51-3,79,depth_duration_stimuli/002509_2014-06-24_13-19-22_094959634447_rgbf000077-resize_0/002509_2014-06-24_13-19-22_094959634447_rgbf000077-resize_0-target.png,125,1.3065,3,2690,120,feet,jsons/VE125_randls_68.json,726302,939128,39,Woman
79,246490,DepthScenes,duration_manipulation_targetAtFixation,jsons/VE125_randls_68.json,http://54.235.29.9/FacialAge/BNav_EC2/DepthDuration/v2_depth_duration_MTurk/v2_DepthDuration_HTML.html#155,155,1366,768,1366,768,9-19-2022,17-51-3,80,depth_duration_stimuli/003338_2014-05-20_11-01-23_094959634447_rgbf000051-resize_6/003338_2014-05-20_11-01-23_094959634447_rgbf000051-resize_6-target.png,125,1.693,3,2257,114,feet,jsons/VE125_randls_68.json,726302,939128,39,Woman
80,246490,DepthScenes,duration_manipulation_targetAtFixation,jsons/VE125_randls_68.json,http://54.235.29.9/FacialAge/BNav_EC2/DepthDuration/v2_depth_duration_MTurk/v2_DepthDuration_HTML.html#155,155,1366,768,1366,768,9-19-2022,17-51-3,81,depth_duration_stimuli/002153_2014-06-25_21-27-18_260595134347_rgbf000038-resize_5/002153_2014-06-25_21-27-18_260595134347_rgbf000038-resize_5-target.png,125,2.505,4,2612,123,feet,jsons/VE125_randls_68.json,726302,939128,39,Woman
81,246490,DepthScenes,duration_manipulation_targetAtFixation,jsons/VE125_randls_68.json,http://54.235.29.9/FacialAge/BNav_EC2/DepthDuration/v2_depth_duration_MTurk/v2_DepthDuration_HTML.html#155,155,1366,768,1366,768,9-19-2022,17-51-3,82,depth_duration_stimuli/002660_2014-06-13_15-44-18_094959634447_rgbf001878-resize_2/002660_2014-06-13_15-44-18_094959634447_rgbf001878-resize_2-target.png,125,3.576,4,2498,121,feet,jsons/VE125_randls_68.json,726302,939128,39,Woman
82,246490,DepthScenes,duration_manipulation_targetAtFixation,jsons/VE125_randls_68.json,http://54.235.29.9/FacialAge/BNav_EC2/DepthDuration/v2_depth_duration_MTurk/v2_DepthDuration_HTML.html#155,155,1366,768,1366,768,9-19-2022,17-51-3,83,depth_duration_stimuli/002039_2014-06-24_20-22-38_260595134347_rgbf000084-resize_1/002039_2014-06-24_20-22-38_260595134347_rgbf000084-resize_1-target.png,125,4.408,3,3696,123,feet,jsons/VE125_randls_68.json,726302,939128,39,Woman
83,246490,DepthScenes,duration_manipulation_targetAtFixation,jsons/VE125_randls_68.json,http://54.235.29.9/FacialAge/BNav_EC2/DepthDuration/v2_depth_duration_MTurk/v2_DepthDuration_HTML.html#155,155,1366,768,1366,768,9-19-2022,17-51-3,84,depth_duration_stimuli/002103_2014-06-25_20-00-40_260595134347_rgbf000049-resize_0/002103_2014-06-25_20-00-40_260595134347_rgbf000049-resize_0-target.png,125,4.105,4,2722,125,feet,jsons/VE125_randls_68.json,726302,939128,39,Woman
84,246490,DepthScenes,duration_manipulation_targetAtFixation,jsons/VE125_randls_68.json,http://54.235.29.9/FacialAge/BNav_EC2/DepthDuration/v2_depth_duration_MTurk/v2_DepthDuration_HTML.html#155,155,1366,768,1366,768,9-19-2022,17-51-3,85,depth_duration_stimuli/000470_2014-06-09_19-42-40_260595134347_rgbf000094-resize_1/000470_2014-06-09_19-42-40_260595134347_rgbf000094-resize_1-target.png,125,1.831,4,4079,125,feet,jsons/VE125_randls_68.json,726302,939128,39,Woman
85,246490,DepthScenes,duration_manipulation_targetAtFixation,jsons/VE125_randls_68.json,http://54.235.29.9/FacialAge/BNav_EC2/DepthDuration/v2_depth_duration_MTurk/v2_DepthDuration_HTML.html#155,155,1366,768,1366,768,9-19-2022,17-51-3,86,depth_duration_stimuli/000109_2014-05-14_23-41-52_260595134347_rgbf000035-resize_9/000109_2014-05-14_23-41-52_260595134347_rgbf000035-resize_9-target.png,125,1.3545,4,3128,120,feet,jsons/VE125_randls_68.json,726302,939128,39,Woman
86,246490,DepthScenes,duration_manipulation_targetAtFixation,jsons/VE125_randls_68.json,http://54.235.29.9/FacialAge/BNav_EC2/DepthDuration/v2_depth_duration_MTurk/v2_DepthDuration_HTML.html#155,155,1366,768,1366,768,9-19-2022,17-51-3,87,depth_duration_stimuli/002213_2014-06-28_18-37-58_260595134347_rgbf000055-resize_1/002213_2014-06-28_18-37-58_260595134347_rgbf000055-resize_1-target.png,125,3.62,4,3043,127,feet,jsons/VE125_randls_68.json,726302,939128,39,Woman
87,246490,DepthScenes,duration_manipulation_targetAtFixation,jsons/VE125_randls_68.json,http://54.235.29.9/FacialAge/BNav_EC2/DepthDuration/v2_depth_duration_MTurk/v2_DepthDuration_HTML.html#155,155,1366,768,1366,768,9-19-2022,17-51-3,88,depth_duration_stimuli/000691_2014-06-08_13-08-50_260595134347_rgbf000132-resize_3/000691_2014-06-08_13-08-50_260595134347_rgbf000132-resize_3-target.png,125,4.1530000000000005,3,3761,123,feet,jsons/VE125_randls_68.json,726302,939128,39,Woman
88,246490,DepthScenes,duration_manipulation_targetAtFixation,jsons/VE125_randls_68.json,http://54.235.29.9/FacialAge/BNav_EC2/DepthDuration/v2_depth_duration_MTurk/v2_DepthDuration_HTML.html#155,155,1366,768,1366,768,9-19-2022,17-51-3,89,depth_duration_stimuli/000736_2014-06-08_18-24-15_260595134347_rgbf000206-resize_3/000736_2014-06-08_18-24-15_260595134347_rgbf000206-resize_3-target.png,125,3.515,5,3175,125,feet,jsons/VE125_randls_68.json,726302,939128,39,Woman
89,246490,DepthScenes,duration_manipulation_targetAtFixation,jsons/VE125_randls_68.json,http://54.235.29.9/FacialAge/BNav_EC2/DepthDuration/v2_depth_duration_MTurk/v2_DepthDuration_HTML.html#155,155,1366,768,1366,768,9-19-2022,17-51-3,90,depth_duration_stimuli/000137_2014-05-20_17-04-49_260595134347_rgbf000120-resize_1/000137_2014-05-20_17-04-49_260595134347_rgbf000120-resize_1-target.png,125,3.786,4,3992,125,feet,jsons/VE125_randls_68.json,726302,939128,39,Woman
90,246490,DepthScenes,duration_manipulation_targetAtFixation,jsons/VE125_randls_68.json,http://54.235.29.9/FacialAge/BNav_EC2/DepthDuration/v2_depth_duration_MTurk/v2_DepthDuration_HTML.html#155,155,1366,768,1366,768,9-19-2022,17-51-3,91,depth_duration_stimuli/002630_2014-06-24_14-47-50_094959634447_rgbf000055-resize_1/002630_2014-06-24_14-47-50_094959634447_rgbf000055-resize_1-target.png,125,3.0095,4,2800,124,feet,jsons/VE125_randls_68.json,726302,939128,39,Woman
91,246490,DepthScenes,duration_manipulation_targetAtFixation,jsons/VE125_randls_68.json,http://54.235.29.9/FacialAge/BNav_EC2/DepthDuration/v2_depth_duration_MTurk/v2_DepthDuration_HTML.html#155,155,1366,768,1366,768,9-19-2022,17-51-3,92,depth_duration_stimuli/002758_2014-06-22_19-11-20_094959634447_rgbf000128-resize_1/002758_2014-06-22_19-11-20_094959634447_rgbf000128-resize_1-target.png,125,2.555,5,2943,126,feet,jsons/VE125_randls_68.json,726302,939128,39,Woman
92,246490,DepthScenes,duration_manipulation_targetAtFixation,jsons/VE125_randls_68.json,http://54.235.29.9/FacialAge/BNav_EC2/DepthDuration/v2_depth_duration_MTurk/v2_DepthDuration_HTML.html#155,155,1366,768,1366,768,9-19-2022,17-51-3,93,depth_duration_stimuli/000506_2014-06-08_23-21-00_260595134347_rgbf000070-resize_7/000506_2014-06-08_23-21-00_260595134347_rgbf000070-resize_7-target.png,125,4.0585,4,3919,128,feet,jsons/VE125_randls_68.json,726302,939128,39,Woman
93,246490,DepthScenes,duration_manipulation_targetAtFixation,jsons/VE125_randls_68.json,http://54.235.29.9/FacialAge/BNav_EC2/DepthDuration/v2_depth_duration_MTurk/v2_DepthDuration_HTML.html#155,155,1366,768,1366,768,9-19-2022,17-51-3,94,depth_duration_stimuli/003079_2014-06-15_15-18-20_094959634447_rgbf000152-resize_8/003079_2014-06-15_15-18-20_094959634447_rgbf000152-resize_8-target.png,125,2.8775,4,2588,121,feet,jsons/VE125_randls_68.json,726302,939128,39,Woman
94,246490,DepthScenes,duration_manipulation_targetAtFixation,jsons/VE125_randls_68.json,http://54.235.29.9/FacialAge/BNav_EC2/DepthDuration/v2_depth_duration_MTurk/v2_DepthDuration_HTML.html#155,155,1366,768,1366,768,9-19-2022,17-51-3,95,depth_duration_stimuli/002118_2014-06-25_20-32-08_260595134347_rgbf000078-resize_1/002118_2014-06-25_20-32-08_260595134347_rgbf000078-resize_1-target.png,125,2.6460000000000004,3,3365,129,feet,jsons/VE125_randls_68.json,726302,939128,39,Woman
95,246490,DepthScenes,duration_manipulation_targetAtFixation,jsons/VE125_randls_68.json,http://54.235.29.9/FacialAge/BNav_EC2/DepthDuration/v2_depth_duration_MTurk/v2_DepthDuration_HTML.html#155,155,1366,768,1366,768,9-19-2022,17-51-3,96,depth_duration_stimuli/001516_2014-06-20_16-25-09_260595134347_rgbf000076-resize_2/001516_2014-06-20_16-25-09_260595134347_rgbf000076-resize_2-target.png,125,1.7445,5,2981,139,feet,jsons/VE125_randls_68.json,726302,939128,39,Woman
96,246490,DepthScenes,duration_manipulation_targetAtFixation,jsons/VE125_randls_68.json,http://54.235.29.9/FacialAge/BNav_EC2/DepthDuration/v2_depth_duration_MTurk/v2_DepthDuration_HTML.html#155,155,1366,768,1366,768,9-19-2022,17-51-3,97,depth_duration_stimuli/000682_2014-06-08_23-14-58_260595134347_rgbf000041-resize_5/000682_2014-06-08_23-14-58_260595134347_rgbf000041-resize_5-target.png,125,2.7239999999999998,4,4577,127,feet,jsons/VE125_randls_68.json,726302,939128,39,Woman
97,246490,DepthScenes,duration_manipulation_targetAtFixation,jsons/VE125_randls_68.json,http://54.235.29.9/FacialAge/BNav_EC2/DepthDuration/v2_depth_duration_MTurk/v2_DepthDuration_HTML.html#155,155,1366,768,1366,768,9-19-2022,17-51-3,98,depth_duration_stimuli/001650_2014-06-20_12-09-00_260595134347_rgbf000087-resize_3/001650_2014-06-20_12-09-00_260595134347_rgbf000087-resize_3-target.png,125,1.9505,4,3546,122,feet,jsons/VE125_randls_68.json,726302,939128,39,Woman
98,246490,DepthScenes,duration_manipulation_targetAtFixation,jsons/VE125_randls_68.json,http://54.235.29.9/FacialAge/BNav_EC2/DepthDuration/v2_depth_duration_MTurk/v2_DepthDuration_HTML.html#155,155,1366,768,1366,768,9-19-2022,17-51-3,99,depth_duration_stimuli/001540_2014-06-20_17-01-05_260595134347_rgbf000086-resize_2/001540_2014-06-20_17-01-05_260595134347_rgbf000086-resize-original.jpg,125,1.459,5,4048,124,feet,jsons/VE125_randls_68.json,726302,939128,39,Woman
99,246490,DepthScenes,duration_manipulation_targetAtFixation,jsons/VE125_randls_68.json,http://54.235.29.9/FacialAge/BNav_EC2/DepthDuration/v2_depth_duration_MTurk/v2_DepthDuration_HTML.html#155,155,1366,768,1366,768,9-19-2022,17-51-3,100,depth_duration_stimuli/002988_2014-06-15_12-24-20_094959634447_rgbf000150-resize_1/002988_2014-06-15_12-24-20_094959634447_rgbf000150-resize_1-target.png,125,4.7669999999999995,3,4237,120,feet,jsons/VE125_randls_68.json,726302,939128,39,Woman
100,246490,DepthScenes,duration_manipulation_targetAtFixation,jsons/VE125_randls_68.json,http://54.235.29.9/FacialAge/BNav_EC2/DepthDuration/v2_depth_duration_MTurk/v2_DepthDuration_HTML.html#155,155,1366,768,1366,768,9-19-2022,17-51-3,101,depth_duration_stimuli/001052_2014-06-08_18-24-54_260595134347_rgbf000130-resize_1/001052_2014-06-08_18-24-54_260595134347_rgbf000130-resize_1-target.png,125,4.1045,3,3277,126,feet,jsons/VE125_randls_68.json,726302,939128,39,Woman
101,246490,DepthScenes,duration_manipulation_targetAtFixation,jsons/VE125_randls_68.json,http://54.235.29.9/FacialAge/BNav_EC2/DepthDuration/v2_depth_duration_MTurk/v2_DepthDuration_HTML.html#155,155,1366,768,1366,768,9-19-2022,17-51-3,102,depth_duration_stimuli/001056_2014-06-08_18-46-44_260595134347_rgbf000068-resize_0/001056_2014-06-08_18-46-44_260595134347_rgbf000068-resize_0-target.png,125,2.6625,3,3491,126,feet,jsons/VE125_randls_68.json,726302,939128,39,Woman
102,246490,DepthScenes,duration_manipulation_targetAtFixation,jsons/VE125_randls_68.json,http://54.235.29.9/FacialAge/BNav_EC2/DepthDuration/v2_depth_duration_MTurk/v2_DepthDuration_HTML.html#155,155,1366,768,1366,768,9-19-2022,17-51-3,103,depth_duration_stimuli/002199_2014-06-28_18-33-56_260595134347_rgbf000074-resize_0/002199_2014-06-28_18-33-56_260595134347_rgbf000074-resize_0-target.png,125,1.996,3,4398,123,feet,jsons/VE125_randls_68.json,726302,939128,39,Woman
103,246490,DepthScenes,duration_manipulation_targetAtFixation,jsons/VE125_randls_68.json,http://54.235.29.9/FacialAge/BNav_EC2/DepthDuration/v2_depth_duration_MTurk/v2_DepthDuration_HTML.html#155,155,1366,768,1366,768,9-19-2022,17-51-3,104,depth_duration_stimuli/002663_2014-06-13_15-50-26_094959634447_rgbf000075-resize_1/002663_2014-06-13_15-50-26_094959634447_rgbf000075-resize_1-target.png,125,4.7495,4,4531,125,feet,jsons/VE125_randls_68.json,726302,939128,39,Woman
104,246490,DepthScenes,duration_manipulation_targetAtFixation,jsons/VE125_randls_68.json,http://54.235.29.9/FacialAge/BNav_EC2/DepthDuration/v2_depth_duration_MTurk/v2_DepthDuration_HTML.html#155,155,1366,768,1366,768,9-19-2022,17-51-3,105,depth_duration_stimuli/000409_2014-06-04_19-23-33_260595134347_rgbf000067-resize_0/000409_2014-06-04_19-23-33_260595134347_rgbf000067-resize_0-target.png,125,3.7335,5,4803,119,feet,jsons/VE125_randls_68.json,726302,939128,39,Woman
105,246490,DepthScenes,duration_manipulation_targetAtFixation,jsons/VE125_randls_68.json,http://54.235.29.9/FacialAge/BNav_EC2/DepthDuration/v2_depth_duration_MTurk/v2_DepthDuration_HTML.html#155,155,1366,768,1366,768,9-19-2022,17-51-3,106,depth_duration_stimuli/002784_2014-06-22_19-26-30_094959634447_rgbf000083-resize_3/002784_2014-06-22_19-26-30_094959634447_rgbf000083-resize_3-target.png,125,1.8046666666667,5,4079,124,feet,jsons/VE125_randls_68.json,726302,939128,39,Woman
106,246490,DepthScenes,duration_manipulation_targetAtFixation,jsons/VE125_randls_68.json,http://54.235.29.9/FacialAge/BNav_EC2/DepthDuration/v2_depth_duration_MTurk/v2_DepthDuration_HTML.html#155,155,1366,768,1366,768,9-19-2022,17-51-3,107,depth_duration_stimuli/001100_2014-06-15_17-46-26_260595134347_rgbf000225-resize_2/001100_2014-06-15_17-46-26_260595134347_rgbf000225-resize_2-target.png,125,2.24,4,5627,139,feet,jsons/VE125_randls_68.json,726302,939128,39,Woman
107,246490,DepthScenes,duration_manipulation_targetAtFixation,jsons/VE125_randls_68.json,http://54.235.29.9/FacialAge/BNav_EC2/DepthDuration/v2_depth_duration_MTurk/v2_DepthDuration_HTML.html#155,155,1366,768,1366,768,9-19-2022,17-51-3,108,depth_duration_stimuli/003534_2014-05-22_15-06-10_094959634447_rgbf000102-resize_4/003534_2014-05-22_15-06-10_094959634447_rgbf000102-resize_4-target.png,125,1.426,4,3422,124,feet,jsons/VE125_randls_68.json,726302,939128,39,Woman
108,246490,DepthScenes,duration_manipulation_targetAtFixation,jsons/VE125_randls_68.json,http://54.235.29.9/FacialAge/BNav_EC2/DepthDuration/v2_depth_duration_MTurk/v2_DepthDuration_HTML.html#155,155,1366,768,1366,768,9-19-2022,17-51-3,109,depth_duration_stimuli/002637_2014-06-24_14-51-13_094959634447_rgbf000066-resize_4/002637_2014-06-24_14-51-13_094959634447_rgbf000066-resize_4-target.png,125,1.9955,5,6810,123,feet,jsons/VE125_randls_68.json,726302,939128,39,Woman
109,246490,DepthScenes,duration_manipulation_targetAtFixation,jsons/VE125_randls_68.json,http://54.235.29.9/FacialAge/BNav_EC2/DepthDuration/v2_depth_duration_MTurk/v2_DepthDuration_HTML.html#155,155,1366,768,1366,768,9-19-2022,17-51-3,110,depth_duration_stimuli/001029_2014-06-08_13-17-57_260595134347_rgbf000065-resize_1/001029_2014-06-08_13-17-57_260595134347_rgbf000065-resize_1-target.png,125,3.0835,3,3415,117,feet,jsons/VE125_randls_68.json,726302,939128,39,Woman
110,246490,DepthScenes,duration_manipulation_targetAtFixation,jsons/VE125_randls_68.json,http://54.235.29.9/FacialAge/BNav_EC2/DepthDuration/v2_depth_duration_MTurk/v2_DepthDuration_HTML.html#155,155,1366,768,1366,768,9-19-2022,17-51-3,111,depth_duration_stimuli/000677_2014-06-08_23-10-32_260595134347_rgbf000158-resize_6/000677_2014-06-08_23-10-32_260595134347_rgbf000158-resize_6-target.png,125,3.556,5,5124,124,feet,jsons/VE125_randls_68.json,726302,939128,39,Woman
111,246490,DepthScenes,duration_manipulation_targetAtFixation,jsons/VE125_randls_68.json,http://54.235.29.9/FacialAge/BNav_EC2/DepthDuration/v2_depth_duration_MTurk/v2_DepthDuration_HTML.html#155,155,1366,768,1366,768,9-19-2022,17-51-3,112,depth_duration_stimuli/000917_2014-06-09_22-45-29_260595134347_rgbf000149-resize_3/000917_2014-06-09_22-45-29_260595134347_rgbf000149-resize_3-target.png,125,4.1865,4,5332,123,feet,jsons/VE125_randls_68.json,726302,939128,39,Woman
112,246490,DepthScenes,duration_manipulation_targetAtFixation,jsons/VE125_randls_68.json,http://54.235.29.9/FacialAge/BNav_EC2/DepthDuration/v2_depth_duration_MTurk/v2_DepthDuration_HTML.html#155,155,1366,768,1366,768,9-19-2022,17-51-3,113,depth_duration_stimuli/002323_2014-06-28_20-01-54_260595134347_rgbf000051-resize_4/002323_2014-06-28_20-01-54_260595134347_rgbf000051-resize_4-target.png,125,3.7310000000000003,4,9936,130,feet,jsons/VE125_randls_68.json,726302,939128,39,Woman
113,246490,DepthScenes,duration_manipulation_targetAtFixation,jsons/VE125_randls_68.json,http://54.235.29.9/FacialAge/BNav_EC2/DepthDuration/v2_depth_duration_MTurk/v2_DepthDuration_HTML.html#155,155,1366,768,1366,768,9-19-2022,17-51-3,114,depth_duration_stimuli/003621_2014-05-23_18-06-08_094959634447_rgbf000101-resize_1/003621_2014-05-23_18-06-08_094959634447_rgbf000101-resize_1-target.png,125,3.9835,5,5720,110,feet,jsons/VE125_randls_68.json,726302,939128,39,Woman
114,246490,DepthScenes,duration_manipulation_targetAtFixation,jsons/VE125_randls_68.json,http://54.235.29.9/FacialAge/BNav_EC2/DepthDuration/v2_depth_duration_MTurk/v2_DepthDuration_HTML.html#155,155,1366,768,1366,768,9-19-2022,17-51-3,115,depth_duration_stimuli/001584_2014-06-20_11-07-43_260595134347_rgbf000002-resize_1/001584_2014-06-20_11-07-43_260595134347_rgbf000002-resize_1-target.png,125,3.53,6,3607,113,feet,jsons/VE125_randls_68.json,726302,939128,39,Woman
115,246490,DepthScenes,duration_manipulation_targetAtFixation,jsons/VE125_randls_68.json,http://54.235.29.9/FacialAge/BNav_EC2/DepthDuration/v2_depth_duration_MTurk/v2_DepthDuration_HTML.html#155,155,1366,768,1366,768,9-19-2022,17-51-3,116,depth_duration_stimuli/001170_2014-06-17_15-43-44_260595134347_rgbf000096-resize_6/001170_2014-06-17_15-43-44_260595134347_rgbf000096-resize-original.jpg,125,1.1909999999999998,4,3201,125,feet,jsons/VE125_randls_68.json,726302,939128,39,Woman
116,246490,DepthScenes,duration_manipulation_targetAtFixation,jsons/VE125_randls_68.json,http://54.235.29.9/FacialAge/BNav_EC2/DepthDuration/v2_depth_duration_MTurk/v2_DepthDuration_HTML.html#155,155,1366,768,1366,768,9-19-2022,17-51-3,117,depth_duration_stimuli/002600_2014-06-24_14-27-04_094959634447_rgbf000074-resize_2/002600_2014-06-24_14-27-04_094959634447_rgbf000074-resize_2-target.png,125,2.7575,5,3280,131,feet,jsons/VE125_randls_68.json,726302,939128,39,Woman
117,246490,DepthScenes,duration_manipulation_targetAtFixation,jsons/VE125_randls_68.json,http://54.235.29.9/FacialAge/BNav_EC2/DepthDuration/v2_depth_duration_MTurk/v2_DepthDuration_HTML.html#155,155,1366,768,1366,768,9-19-2022,17-51-3,118,depth_duration_stimuli/003228_2014-05-14_13-42-35_094959634447_rgbf000101-resize_1/003228_2014-05-14_13-42-35_094959634447_rgbf000101-resize_1-target.png,125,1.9680000000000002,4,2918,125,feet,jsons/VE125_randls_68.json,726302,939128,39,Woman
118,246490,DepthScenes,duration_manipulation_targetAtFixation,jsons/VE125_randls_68.json,http://54.235.29.9/FacialAge/BNav_EC2/DepthDuration/v2_depth_duration_MTurk/v2_DepthDuration_HTML.html#155,155,1366,768,1366,768,9-19-2022,17-51-3,119,depth_duration_stimuli/002570_2014-06-24_13-59-54_094959634447_rgbf000059-resize_0/002570_2014-06-24_13-59-54_094959634447_rgbf000059-resize_0-target.png,125,4.037,5,3841,56,feet,jsons/VE125_randls_68.json,726302,939128,39,Woman
119,246490,DepthScenes,duration_manipulation_targetAtFixation,jsons/VE125_randls_68.json,http://54.235.29.9/FacialAge/BNav_EC2/DepthDuration/v2_depth_duration_MTurk/v2_DepthDuration_HTML.html#155,155,1366,768,1366,768,9-19-2022,17-51-3,120,depth_duration_stimuli/002467_2014-06-28_20-38-07_260595134347_rgbf000026-resize_2/002467_2014-06-28_20-38-07_260595134347_rgbf000026-resize_2-target.png,125,4.742,4,3725,125,feet,jsons/VE125_randls_68.json,726302,939128,39,Woman
120,246490,DepthScenes,duration_manipulation_targetAtFixation,jsons/VE125_randls_68.json,http://54.235.29.9/FacialAge/BNav_EC2/DepthDuration/v2_depth_duration_MTurk/v2_DepthDuration_HTML.html#155,155,1366,768,1366,768,9-19-2022,17-51-3,121,depth_duration_stimuli/001175_2014-06-17_15-45-55_260595134347_rgbf000129-resize_4/001175_2014-06-17_15-45-55_260595134347_rgbf000129-resize_4-target.png,125,4.255,5,2690,125,feet,jsons/VE125_randls_68.json,726302,939128,39,Woman
121,246490,DepthScenes,duration_manipulation_targetAtFixation,jsons/VE125_randls_68.json,http://54.235.29.9/FacialAge/BNav_EC2/DepthDuration/v2_depth_duration_MTurk/v2_DepthDuration_HTML.html#155,155,1366,768,1366,768,9-19-2022,17-51-3,122,depth_duration_stimuli/003490_2014-05-21_15-50-11_094959634447_rgbf000101-resize_3/003490_2014-05-21_15-50-11_094959634447_rgbf000101-resize_3-target.png,125,3.6445,4,2817,131,feet,jsons/VE125_randls_68.json,726302,939128,39,Woman
122,246490,DepthScenes,duration_manipulation_targetAtFixation,jsons/VE125_randls_68.json,http://54.235.29.9/FacialAge/BNav_EC2/DepthDuration/v2_depth_duration_MTurk/v2_DepthDuration_HTML.html#155,155,1366,768,1366,768,9-19-2022,17-51-3,123,depth_duration_stimuli/003492_2014-05-21_15-50-55_094959634447_rgbf000828-resize_1/003492_2014-05-21_15-50-55_094959634447_rgbf000828-resize_1-target.png,125,4.06875,3,5677,125,feet,jsons/VE125_randls_68.json,726302,939128,39,Woman
123,246490,DepthScenes,duration_manipulation_targetAtFixation,jsons/VE125_randls_68.json,http://54.235.29.9/FacialAge/BNav_EC2/DepthDuration/v2_depth_duration_MTurk/v2_DepthDuration_HTML.html#155,155,1366,768,1366,768,9-19-2022,17-51-3,124,depth_duration_stimuli/002568_2014-06-24_13-59-21_094959634447_rgbf000062-resize_4/002568_2014-06-24_13-59-21_094959634447_rgbf000062-resize_4-target.png,125,3.015,4,3415,123,feet,jsons/VE125_randls_68.json,726302,939128,39,Woman
124,246490,DepthScenes,duration_manipulation_targetAtFixation,jsons/VE125_randls_68.json,http://54.235.29.9/FacialAge/BNav_EC2/DepthDuration/v2_depth_duration_MTurk/v2_DepthDuration_HTML.html#155,155,1366,768,1366,768,9-19-2022,17-51-3,125,depth_duration_stimuli/001158_2014-06-17_15-32-16_260595134347_rgbf000138-resize_2/001158_2014-06-17_15-32-16_260595134347_rgbf000138-resize_2-target.png,125,4.5315,4,3288,112,feet,jsons/VE125_randls_68.json,726302,939128,39,Woman
125,246490,DepthScenes,duration_manipulation_targetAtFixation,jsons/VE125_randls_68.json,http://54.235.29.9/FacialAge/BNav_EC2/DepthDuration/v2_depth_duration_MTurk/v2_DepthDuration_HTML.html#155,155,1366,768,1366,768,9-19-2022,17-51-3,126,depth_duration_stimuli/000556_2014-06-09_22-42-56_260595134347_rgbf000214-resize_1/000556_2014-06-09_22-42-56_260595134347_rgbf000214-resize_1-target.png,125,4.8415,4,2931,112,feet,jsons/VE125_randls_68.json,726302,939128,39,Woman
126,246490,DepthScenes,duration_manipulation_targetAtFixation,jsons/VE125_randls_68.json,http://54.235.29.9/FacialAge/BNav_EC2/DepthDuration/v2_depth_duration_MTurk/v2_DepthDuration_HTML.html#155,155,1366,768,1366,768,9-19-2022,17-51-3,127,depth_duration_stimuli/001133_2014-06-17_14-49-16_260595134347_rgbf000100-resize_0/001133_2014-06-17_14-49-16_260595134347_rgbf000100-resize_0-target.png,125,4.2115,3,2583,114,feet,jsons/VE125_randls_68.json,726302,939128,39,Woman
127,246490,DepthScenes,duration_manipulation_targetAtFixation,jsons/VE125_randls_68.json,http://54.235.29.9/FacialAge/BNav_EC2/DepthDuration/v2_depth_duration_MTurk/v2_DepthDuration_HTML.html#155,155,1366,768,1366,768,9-19-2022,17-51-3,128,depth_duration_stimuli/001132_2014-06-17_14-48-54_260595134347_rgbf000100-resize_2/001132_2014-06-17_14-48-54_260595134347_rgbf000100-resize_2-target.png,125,3.753,3,3397,117,feet,jsons/VE125_randls_68.json,726302,939128,39,Woman
128,246490,DepthScenes,duration_manipulation_targetAtFixation,jsons/VE125_randls_68.json,http://54.235.29.9/FacialAge/BNav_EC2/DepthDuration/v2_depth_duration_MTurk/v2_DepthDuration_HTML.html#155,155,1366,768,1366,768,9-19-2022,17-51-3,129,depth_duration_stimuli/002375_2014-06-28_20-13-44_260595134347_rgbf000032-resize_1/002375_2014-06-28_20-13-44_260595134347_rgbf000032-resize_1-target.png,125,4.0175,4,5274,130,feet,jsons/VE125_randls_68.json,726302,939128,39,Woman
129,246490,DepthScenes,duration_manipulation_targetAtFixation,jsons/VE125_randls_68.json,http://54.235.29.9/FacialAge/BNav_EC2/DepthDuration/v2_depth_duration_MTurk/v2_DepthDuration_HTML.html#155,155,1366,768,1366,768,9-19-2022,17-51-3,130,depth_duration_stimuli/002657_2014-06-13_15-29-54_094959634447_rgbf000150-resize_1/002657_2014-06-13_15-29-54_094959634447_rgbf000150-resize_1-target.png,125,4.919,5,2816,111,feet,jsons/VE125_randls_68.json,726302,939128,39,Woman
130,246490,DepthScenes,duration_manipulation_targetAtFixation,jsons/VE125_randls_68.json,http://54.235.29.9/FacialAge/BNav_EC2/DepthDuration/v2_depth_duration_MTurk/v2_DepthDuration_HTML.html#155,155,1366,768,1366,768,9-19-2022,17-51-3,131,depth_duration_stimuli/000414_2014-06-04_19-49-13_260595134347_rgbf000044-resize_0/000414_2014-06-04_19-49-13_260595134347_rgbf000044-resize_0-target.png,125,4.329,4,2924,125,feet,jsons/VE125_randls_68.json,726302,939128,39,Woman
131,246490,DepthScenes,duration_manipulation_targetAtFixation,jsons/VE125_randls_68.json,http://54.235.29.9/FacialAge/BNav_EC2/DepthDuration/v2_depth_duration_MTurk/v2_DepthDuration_HTML.html#155,155,1366,768,1366,768,9-19-2022,17-51-3,132,depth_duration_stimuli/003129_2014-05-12_10-48-10_094959634447_rgbf000100-resize_0/003129_2014-05-12_10-48-10_094959634447_rgbf000100-resize_0-target.png,125,4.9305,3,3727,129,feet,jsons/VE125_randls_68.json,726302,939128,39,Woman
132,246490,DepthScenes,duration_manipulation_targetAtFixation,jsons/VE125_randls_68.json,http://54.235.29.9/FacialAge/BNav_EC2/DepthDuration/v2_depth_duration_MTurk/v2_DepthDuration_HTML.html#155,155,1366,768,1366,768,9-19-2022,17-51-3,133,depth_duration_stimuli/000739_2014-06-08_18-45-58_260595134347_rgbf000068-resize_1/000739_2014-06-08_18-45-58_260595134347_rgbf000068-resize_1-target.png,125,3.534,4,3254,120,feet,jsons/VE125_randls_68.json,726302,939128,39,Woman
133,246490,DepthScenes,duration_manipulation_targetAtFixation,jsons/VE125_randls_68.json,http://54.235.29.9/FacialAge/BNav_EC2/DepthDuration/v2_depth_duration_MTurk/v2_DepthDuration_HTML.html#155,155,1366,768,1366,768,9-19-2022,17-51-3,134,depth_duration_stimuli/000734_2014-06-08_17-39-11_260595134347_rgbf000128-resize_2/000734_2014-06-08_17-39-11_260595134347_rgbf000128-resize_2-target.png,125,4.098,4,3075,113,feet,jsons/VE125_randls_68.json,726302,939128,39,Woman
134,246490,DepthScenes,duration_manipulation_targetAtFixation,jsons/VE125_randls_68.json,http://54.235.29.9/FacialAge/BNav_EC2/DepthDuration/v2_depth_duration_MTurk/v2_DepthDuration_HTML.html#155,155,1366,768,1366,768,9-19-2022,17-51-3,135,depth_duration_stimuli/002072_2014-06-24_21-48-06_260595134347_rgbf000115-resize_0/002072_2014-06-24_21-48-06_260595134347_rgbf000115-resize-original.jpg,125,4.702,5,3354,127,feet,jsons/VE125_randls_68.json,726302,939128,39,Woman
135,246490,DepthScenes,duration_manipulation_targetAtFixation,jsons/VE125_randls_68.json,http://54.235.29.9/FacialAge/BNav_EC2/DepthDuration/v2_depth_duration_MTurk/v2_DepthDuration_HTML.html#155,155,1366,768,1366,768,9-19-2022,17-51-3,136,depth_duration_stimuli/000929_2014-06-09_16-33-19_260595134347_rgbf000139-resize_0/000929_2014-06-09_16-33-19_260595134347_rgbf000139-resize_0-target.png,125,2.8680000000000003,5,2876,124,feet,jsons/VE125_randls_68.json,726302,939128,39,Woman
136,246490,DepthScenes,duration_manipulation_targetAtFixation,jsons/VE125_randls_68.json,http://54.235.29.9/FacialAge/BNav_EC2/DepthDuration/v2_depth_duration_MTurk/v2_DepthDuration_HTML.html#155,155,1366,768,1366,768,9-19-2022,17-51-3,137,depth_duration_stimuli/000457_2014-06-08_16-52-43_260595134347_rgbf000199-resize_1/000457_2014-06-08_16-52-43_260595134347_rgbf000199-resize_1-target.png,125,3.6489999999999996,4,5222,122,feet,jsons/VE125_randls_68.json,726302,939128,39,Woman
137,246490,DepthScenes,duration_manipulation_targetAtFixation,jsons/VE125_randls_68.json,http://54.235.29.9/FacialAge/BNav_EC2/DepthDuration/v2_depth_duration_MTurk/v2_DepthDuration_HTML.html#155,155,1366,768,1366,768,9-19-2022,17-51-3,138,depth_duration_stimuli/000486_2014-06-09_20-47-20_260595134347_rgbf000143-resize_2/000486_2014-06-09_20-47-20_260595134347_rgbf000143-resize_2-target.png,125,4.8325,4,3853,124,feet,jsons/VE125_randls_68.json,726302,939128,39,Woman
138,246490,DepthScenes,duration_manipulation_targetAtFixation,jsons/VE125_randls_68.json,http://54.235.29.9/FacialAge/BNav_EC2/DepthDuration/v2_depth_duration_MTurk/v2_DepthDuration_HTML.html#155,155,1366,768,1366,768,9-19-2022,17-51-3,139,depth_duration_stimuli/003083_2014-06-15_15-21-03_094959634447_rgbf000063-resize_1/003083_2014-06-15_15-21-03_094959634447_rgbf000063-resize_1-target.png,125,4.1405,5,3338,136,feet,jsons/VE125_randls_68.json,726302,939128,39,Woman
139,246490,DepthScenes,duration_manipulation_targetAtFixation,jsons/VE125_randls_68.json,http://54.235.29.9/FacialAge/BNav_EC2/DepthDuration/v2_depth_duration_MTurk/v2_DepthDuration_HTML.html#155,155,1366,768,1366,768,9-19-2022,17-51-3,140,depth_duration_stimuli/001555_2014-06-20_17-12-10_260595134347_rgbf000065-resize_4/001555_2014-06-20_17-12-10_260595134347_rgbf000065-resize_4-target.png,125,1.633,6,3668,123,feet,jsons/VE125_randls_68.json,726302,939128,39,Woman
140,246490,DepthScenes,duration_manipulation_targetAtFixation,jsons/VE125_randls_68.json,http://54.235.29.9/FacialAge/BNav_EC2/DepthDuration/v2_depth_duration_MTurk/v2_DepthDuration_HTML.html#155,155,1366,768,1366,768,9-19-2022,17-51-3,141,depth_duration_stimuli/000103_2014-05-14_22-01-17_260595134347_rgbf000152-resize_5/000103_2014-05-14_22-01-17_260595134347_rgbf000152-resize_5-target.png,125,1.993,4,4333,124,feet,jsons/VE125_randls_68.json,726302,939128,39,Woman
141,246490,DepthScenes,duration_manipulation_targetAtFixation,jsons/VE125_randls_68.json,http://54.235.29.9/FacialAge/BNav_EC2/DepthDuration/v2_depth_duration_MTurk/v2_DepthDuration_HTML.html#155,155,1366,768,1366,768,9-19-2022,17-51-3,142,depth_duration_stimuli/002964_2014-06-08_17-46-11_094959634447_rgbf000091-resize_4/002964_2014-06-08_17-46-11_094959634447_rgbf000091-resize_4-target.png,125,1.6909999999999998,4,2497,126,feet,jsons/VE125_randls_68.json,726302,939128,39,Woman
142,246490,DepthScenes,duration_manipulation_targetAtFixation,jsons/VE125_randls_68.json,http://54.235.29.9/FacialAge/BNav_EC2/DepthDuration/v2_depth_duration_MTurk/v2_DepthDuration_HTML.html#155,155,1366,768,1366,768,9-19-2022,17-51-3,143,depth_duration_stimuli/002136_2014-06-25_21-18-03_260595134347_rgbf000109-resize_3/002136_2014-06-25_21-18-03_260595134347_rgbf000109-resize_3-target.png,125,1.9569999999999999,5,2682,125,feet,jsons/VE125_randls_68.json,726302,939128,39,Woman
143,246490,DepthScenes,duration_manipulation_targetAtFixation,jsons/VE125_randls_68.json,http://54.235.29.9/FacialAge/BNav_EC2/DepthDuration/v2_depth_duration_MTurk/v2_DepthDuration_HTML.html#155,155,1366,768,1366,768,9-19-2022,17-51-3,144,depth_duration_stimuli/002748_2014-06-22_19-07-22_094959634447_rgbf000078-resize_1/002748_2014-06-22_19-07-22_094959634447_rgbf000078-resize_1-target.png,125,4.6705,6,3155,128,feet,jsons/VE125_randls_68.json,726302,939128,39,Woman
144,246490,DepthScenes,duration_manipulation_targetAtFixation,jsons/VE125_randls_68.json,http://54.235.29.9/FacialAge/BNav_EC2/DepthDuration/v2_depth_duration_MTurk/v2_DepthDuration_HTML.html#155,155,1366,768,1366,768,9-19-2022,17-51-3,145,depth_duration_stimuli/002995_2014-06-15_12-31-26_094959634447_rgbf000150-resize_1/002995_2014-06-15_12-31-26_094959634447_rgbf000150-resize_1-target.png,125,3.8360000000000003,5,2678,113,feet,jsons/VE125_randls_68.json,726302,939128,39,Woman
145,246490,DepthScenes,duration_manipulation_targetAtFixation,jsons/VE125_randls_68.json,http://54.235.29.9/FacialAge/BNav_EC2/DepthDuration/v2_depth_duration_MTurk/v2_DepthDuration_HTML.html#155,155,1366,768,1366,768,9-19-2022,17-51-3,146,depth_duration_stimuli/001498_2014-06-19_17-45-14_260595134347_rgbf000129-resize_4/001498_2014-06-19_17-45-14_260595134347_rgbf000129-resize-original.jpg,125,1.4075,4,2927,124,feet,jsons/VE125_randls_68.json,726302,939128,39,Woman
146,246490,DepthScenes,duration_manipulation_targetAtFixation,jsons/VE125_randls_68.json,http://54.235.29.9/FacialAge/BNav_EC2/DepthDuration/v2_depth_duration_MTurk/v2_DepthDuration_HTML.html#155,155,1366,768,1366,768,9-19-2022,17-51-3,147,depth_duration_stimuli/000447_2014-06-08_16-15-46_260595134347_rgbf000130-resize_1/000447_2014-06-08_16-15-46_260595134347_rgbf000130-resize_1-target.png,125,4.479,4,3309,139,feet,jsons/VE125_randls_68.json,726302,939128,39,Woman
147,246490,DepthScenes,duration_manipulation_targetAtFixation,jsons/VE125_randls_68.json,http://54.235.29.9/FacialAge/BNav_EC2/DepthDuration/v2_depth_duration_MTurk/v2_DepthDuration_HTML.html#155,155,1366,768,1366,768,9-19-2022,17-51-3,148,depth_duration_stimuli/001447_2014-06-19_17-00-32_260595134347_rgbf000082-resize_5/001447_2014-06-19_17-00-32_260595134347_rgbf000082-resize_5-target.png,125,4.13775,4,3987,114,feet,jsons/VE125_randls_68.json,726302,939128,39,Woman
148,246490,DepthScenes,duration_manipulation_targetAtFixation,jsons/VE125_randls_68.json,http://54.235.29.9/FacialAge/BNav_EC2/DepthDuration/v2_depth_duration_MTurk/v2_DepthDuration_HTML.html#155,155,1366,768,1366,768,9-19-2022,17-51-3,149,depth_duration_stimuli/000368_2014-06-09_15-53-01_260595134347_rgbf000155-resize_2/000368_2014-06-09_15-53-01_260595134347_rgbf000155-resize_2-target.png,125,2.4859999999999998,5,2575,125,feet,jsons/VE125_randls_68.json,726302,939128,39,Woman
149,246490,DepthScenes,duration_manipulation_targetAtFixation,jsons/VE125_randls_68.json,http://54.235.29.9/FacialAge/BNav_EC2/DepthDuration/v2_depth_duration_MTurk/v2_DepthDuration_HTML.html#155,155,1366,768,1366,768,9-19-2022,17-51-3,150,depth_duration_stimuli/002678_2014-06-13_16-15-32_094959634447_rgbf000151-resize_6/002678_2014-06-13_16-15-32_094959634447_rgbf000151-resize_6-target.png,125,2.1830000000000003,4,2978,124,feet,jsons/VE125_randls_68.json,726302,939128,39,Woman
150,246490,DepthScenes,duration_manipulation_targetAtFixation,jsons/VE125_randls_68.json,http://54.235.29.9/FacialAge/BNav_EC2/DepthDuration/v2_depth_duration_MTurk/v2_DepthDuration_HTML.html#155,155,1366,768,1366,768,9-19-2022,17-51-3,151,depth_duration_stimuli/003292_2014-05-14_21-53-49_094959634447_rgbf000100-resize_2/003292_2014-05-14_21-53-49_094959634447_rgbf000100-resize_2-target.png,125,3.4815,4,2443,122,feet,jsons/VE125_randls_68.json,726302,939128,39,Woman
151,246490,DepthScenes,duration_manipulation_targetAtFixation,jsons/VE125_randls_68.json,http://54.235.29.9/FacialAge/BNav_EC2/DepthDuration/v2_depth_duration_MTurk/v2_DepthDuration_HTML.html#155,155,1366,768,1366,768,9-19-2022,17-51-3,152,depth_duration_stimuli/002639_2014-06-24_14-51-37_094959634447_rgbf000074-resize_4/002639_2014-06-24_14-51-37_094959634447_rgbf000074-resize_4-target.png,125,4.0375,5,2110,104,feet,jsons/VE125_randls_68.json,726302,939128,39,Woman
152,246490,DepthScenes,duration_manipulation_targetAtFixation,jsons/VE125_randls_68.json,http://54.235.29.9/FacialAge/BNav_EC2/DepthDuration/v2_depth_duration_MTurk/v2_DepthDuration_HTML.html#155,155,1366,768,1366,768,9-19-2022,17-51-3,153,depth_duration_stimuli/001011_2014-06-08_23-18-54_260595134347_rgbf000044-resize_4/001011_2014-06-08_23-18-54_260595134347_rgbf000044-resize_4-target.png,125,2.4730000000000003,5,2432,113,feet,jsons/VE125_randls_68.json,726302,939128,39,Woman
153,246490,DepthScenes,duration_manipulation_targetAtFixation,jsons/VE125_randls_68.json,http://54.235.29.9/FacialAge/BNav_EC2/DepthDuration/v2_depth_duration_MTurk/v2_DepthDuration_HTML.html#155,155,1366,768,1366,768,9-19-2022,17-51-3,154,depth_duration_stimuli/002875_2014-06-01_15-19-00_094959634447_rgbf000151-resize_1/002875_2014-06-01_15-19-00_094959634447_rgbf000151-resize_1-target.png,125,1.9675,3,4990,124,feet,jsons/VE125_randls_68.json,726302,939128,39,Woman
154,246490,DepthScenes,duration_manipulation_targetAtFixation,jsons/VE125_randls_68.json,http://54.235.29.9/FacialAge/BNav_EC2/DepthDuration/v2_depth_duration_MTurk/v2_DepthDuration_HTML.html#155,155,1366,768,1366,768,9-19-2022,17-51-3,155,depth_duration_stimuli/002272_2014-06-28_18-53-56_260595134347_rgbf000067-resize_2/002272_2014-06-28_18-53-56_260595134347_rgbf000067-resize_2-target.png,125,1.138,4,3700,125,feet,jsons/VE125_randls_68.json,726302,939128,39,Woman
155,246490,DepthScenes,duration_manipulation_targetAtFixation,jsons/VE125_randls_68.json,http://54.235.29.9/FacialAge/BNav_EC2/DepthDuration/v2_depth_duration_MTurk/v2_DepthDuration_HTML.html#155,155,1366,768,1366,768,9-19-2022,17-51-3,156,depth_duration_stimuli/001571_2014-06-20_17-21-32_260595134347_rgbf000089-resize_1/001571_2014-06-20_17-21-32_260595134347_rgbf000089-resize_1-target.png,125,1.86,5,3124,124,feet,jsons/VE125_randls_68.json,726302,939128,39,Woman
156,246490,DepthScenes,duration_manipulation_targetAtFixation,jsons/VE125_randls_68.json,http://54.235.29.9/FacialAge/BNav_EC2/DepthDuration/v2_depth_duration_MTurk/v2_DepthDuration_HTML.html#155,155,1366,768,1366,768,9-19-2022,17-51-3,157,depth_duration_stimuli/001016_2014-06-09_16-16-10_260595134347_rgbf000112-resize_5/001016_2014-06-09_16-16-10_260595134347_rgbf000112-resize_5-target.png,125,1.6565,4,2896,124,feet,jsons/VE125_randls_68.json,726302,939128,39,Woman
157,246490,DepthScenes,duration_manipulation_targetAtFixation,jsons/VE125_randls_68.json,http://54.235.29.9/FacialAge/BNav_EC2/DepthDuration/v2_depth_duration_MTurk/v2_DepthDuration_HTML.html#155,155,1366,768,1366,768,9-19-2022,17-51-3,158,depth_duration_stimuli/002340_2014-06-28_20-05-46_260595134347_rgbf000113-resize_0/002340_2014-06-28_20-05-46_260595134347_rgbf000113-resize_0-target.png,125,2.4735,5,3718,125,feet,jsons/VE125_randls_68.json,726302,939128,39,Woman
158,246490,DepthScenes,duration_manipulation_targetAtFixation,jsons/VE125_randls_68.json,http://54.235.29.9/FacialAge/BNav_EC2/DepthDuration/v2_depth_duration_MTurk/v2_DepthDuration_HTML.html#155,155,1366,768,1366,768,9-19-2022,17-51-3,159,depth_duration_stimuli/001110_2014-06-15_17-25-28_260595134347_rgbf000150-resize_1/001110_2014-06-15_17-25-28_260595134347_rgbf000150-resize_1-target.png,125,1.7115,5,5193,124,feet,jsons/VE125_randls_68.json,726302,939128,39,Woman
159,246490,DepthScenes,duration_manipulation_targetAtFixation,jsons/VE125_randls_68.json,http://54.235.29.9/FacialAge/BNav_EC2/DepthDuration/v2_depth_duration_MTurk/v2_DepthDuration_HTML.html#155,155,1366,768,1366,768,9-19-2022,17-51-3,160,depth_duration_stimuli/000927_2014-06-09_16-32-30_260595134347_rgbf000123-resize_3/000927_2014-06-09_16-32-30_260595134347_rgbf000123-resize_3-target.png,125,2.6785,4,5671,131,feet,jsons/VE125_randls_68.json,726302,939128,39,Woman
160,246490,DepthScenes,duration_manipulation_targetAtFixation,jsons/VE125_randls_68.json,http://54.235.29.9/FacialAge/BNav_EC2/DepthDuration/v2_depth_duration_MTurk/v2_DepthDuration_HTML.html#155,155,1366,768,1366,768,9-19-2022,17-51-3,161,depth_duration_stimuli/001066_2014-06-08_22-03-20_260595134347_rgbf000066-resize_4/001066_2014-06-08_22-03-20_260595134347_rgbf000066-resize_4-target.png,125,4.2330000000000005,4,2587,130,feet,jsons/VE125_randls_68.json,726302,939128,39,Woman
161,246490,DepthScenes,duration_manipulation_targetAtFixation,jsons/VE125_randls_68.json,http://54.235.29.9/FacialAge/BNav_EC2/DepthDuration/v2_depth_duration_MTurk/v2_DepthDuration_HTML.html#155,155,1366,768,1366,768,9-19-2022,17-51-3,162,depth_duration_stimuli/000742_2014-06-08_18-48-09_260595134347_rgbf000164-resize_4/000742_2014-06-08_18-48-09_260595134347_rgbf000164-resize_4-target.png,125,4.632,5,2719,127,feet,jsons/VE125_randls_68.json,726302,939128,39,Woman
162,246490,DepthScenes,duration_manipulation_targetAtFixation,jsons/VE125_randls_68.json,http://54.235.29.9/FacialAge/BNav_EC2/DepthDuration/v2_depth_duration_MTurk/v2_DepthDuration_HTML.html#155,155,1366,768,1366,768,9-19-2022,17-51-3,163,depth_duration_stimuli/001806_2014-06-26_20-50-20_260595134347_rgbf000091-resize_1/001806_2014-06-26_20-50-20_260595134347_rgbf000091-resize_1-target.png,125,2.7305,5,2875,125,feet,jsons/VE125_randls_68.json,726302,939128,39,Woman
163,246490,DepthScenes,duration_manipulation_targetAtFixation,jsons/VE125_randls_68.json,http://54.235.29.9/FacialAge/BNav_EC2/DepthDuration/v2_depth_duration_MTurk/v2_DepthDuration_HTML.html#155,155,1366,768,1366,768,9-19-2022,17-51-3,164,depth_duration_stimuli/001617_2014-06-20_11-35-32_260595134347_rgbf000066-resize_1/001617_2014-06-20_11-35-32_260595134347_rgbf000066-resize_1-target.png,125,3.7910000000000004,4,2840,125,feet,jsons/VE125_randls_68.json,726302,939128,39,Woman
