,subjID,experimentName,versionName,sequenceName,url,selected_row,windowWidth,windowHeight,screenWidth,screenHeight,startDate,startTime,trial,stimulus,duration,actual_depth,depth_estimate,trial_RT,log_sceneDuration,unitSelection,seq_filepath,experimentTime,totalTime,age,gender
0,247521,DepthScenes,duration_manipulation_targetAtFixation,jsons/VE125_randls_71.json,http://54.235.29.9/FacialAge/BNav_EC2/DepthDuration/v2_depth_duration_MTurk/v2_DepthDuration_HTML.html#123,123,1336,967,1920,1080,8-21-2022,9-47-19,1,depth_duration_stimuli/002549_2014-06-24_13-41-39_094959634447_rgbf000022-resize_3/002549_2014-06-24_13-41-39_094959634447_rgbf000022-resize_3-target.png,125,1.476,7,1605,125,feet,jsons/VE125_randls_71.json,412439,503407,22,Man
1,247521,DepthScenes,duration_manipulation_targetAtFixation,jsons/VE125_randls_71.json,http://54.235.29.9/FacialAge/BNav_EC2/DepthDuration/v2_depth_duration_MTurk/v2_DepthDuration_HTML.html#123,123,1336,967,1920,1080,8-21-2022,9-47-19,2,depth_duration_stimuli/002750_2014-06-22_19-08-03_094959634447_rgbf000094-resize_4/002750_2014-06-22_19-08-03_094959634447_rgbf000094-resize_4-target.png,125,2.354,5,3384,112,feet,jsons/VE125_randls_71.json,412439,503407,22,Man
2,247521,DepthScenes,duration_manipulation_targetAtFixation,jsons/VE125_randls_71.json,http://54.235.29.9/FacialAge/BNav_EC2/DepthDuration/v2_depth_duration_MTurk/v2_DepthDuration_HTML.html#123,123,1336,967,1920,1080,8-21-2022,9-47-19,3,depth_duration_stimuli/000917_2014-06-09_22-45-29_260595134347_rgbf000149-resize_3/000917_2014-06-09_22-45-29_260595134347_rgbf000149-resize_3-target.png,125,4.1865,6,1661,112,feet,jsons/VE125_randls_71.json,412439,503407,22,Man
3,247521,DepthScenes,duration_manipulation_targetAtFixation,jsons/VE125_randls_71.json,http://54.235.29.9/FacialAge/BNav_EC2/DepthDuration/v2_depth_duration_MTurk/v2_DepthDuration_HTML.html#123,123,1336,967,1920,1080,8-21-2022,9-47-19,4,depth_duration_stimuli/002323_2014-06-28_20-01-54_260595134347_rgbf000051-resize_4/002323_2014-06-28_20-01-54_260595134347_rgbf000051-resize_4-target.png,125,3.7310000000000003,6,1425,125,feet,jsons/VE125_randls_71.json,412439,503407,22,Man
4,247521,DepthScenes,duration_manipulation_targetAtFixation,jsons/VE125_randls_71.json,http://54.235.29.9/FacialAge/BNav_EC2/DepthDuration/v2_depth_duration_MTurk/v2_DepthDuration_HTML.html#123,123,1336,967,1920,1080,8-21-2022,9-47-19,5,depth_duration_stimuli/001150_2014-06-17_15-27-34_260595134347_rgbf000108-resize_2/001150_2014-06-17_15-27-34_260595134347_rgbf000108-resize_2-target.png,125,4.0325,7,1533,125,feet,jsons/VE125_randls_71.json,412439,503407,22,Man
5,247521,DepthScenes,duration_manipulation_targetAtFixation,jsons/VE125_randls_71.json,http://54.235.29.9/FacialAge/BNav_EC2/DepthDuration/v2_depth_duration_MTurk/v2_DepthDuration_HTML.html#123,123,1336,967,1920,1080,8-21-2022,9-47-19,6,depth_duration_stimuli/000665_2014-06-09_20-42-35_260595134347_rgbf000110-resize_1/000665_2014-06-09_20-42-35_260595134347_rgbf000110-resize_1-target.png,125,3.057,6,1701,127,feet,jsons/VE125_randls_71.json,412439,503407,22,Man
6,247521,DepthScenes,duration_manipulation_targetAtFixation,jsons/VE125_randls_71.json,http://54.235.29.9/FacialAge/BNav_EC2/DepthDuration/v2_depth_duration_MTurk/v2_DepthDuration_HTML.html#123,123,1336,967,1920,1080,8-21-2022,9-47-19,7,depth_duration_stimuli/003621_2014-05-23_18-06-08_094959634447_rgbf000101-resize_1/003621_2014-05-23_18-06-08_094959634447_rgbf000101-resize_1-target.png,125,3.9835,8,1725,128,feet,jsons/VE125_randls_71.json,412439,503407,22,Man
7,247521,DepthScenes,duration_manipulation_targetAtFixation,jsons/VE125_randls_71.json,http://54.235.29.9/FacialAge/BNav_EC2/DepthDuration/v2_depth_duration_MTurk/v2_DepthDuration_HTML.html#123,123,1336,967,1920,1080,8-21-2022,9-47-19,8,depth_duration_stimuli/001584_2014-06-20_11-07-43_260595134347_rgbf000002-resize_1/001584_2014-06-20_11-07-43_260595134347_rgbf000002-resize_1-target.png,125,3.53,6,1425,127,feet,jsons/VE125_randls_71.json,412439,503407,22,Man
8,247521,DepthScenes,duration_manipulation_targetAtFixation,jsons/VE125_randls_71.json,http://54.235.29.9/FacialAge/BNav_EC2/DepthDuration/v2_depth_duration_MTurk/v2_DepthDuration_HTML.html#123,123,1336,967,1920,1080,8-21-2022,9-47-19,9,depth_duration_stimuli/001092_2014-06-15_17-34-58_260595134347_rgbf000171-resize_3/001092_2014-06-15_17-34-58_260595134347_rgbf000171-resize_3-target.png,125,2.6935,7,1392,128,feet,jsons/VE125_randls_71.json,412439,503407,22,Man
9,247521,DepthScenes,duration_manipulation_targetAtFixation,jsons/VE125_randls_71.json,http://54.235.29.9/FacialAge/BNav_EC2/DepthDuration/v2_depth_duration_MTurk/v2_DepthDuration_HTML.html#123,123,1336,967,1920,1080,8-21-2022,9-47-19,10,depth_duration_stimuli/002545_2014-06-24_13-38-53_094959634447_rgbf000080-resize_4/002545_2014-06-24_13-38-53_094959634447_rgbf000080-resize_4-target.png,125,1.9205,6,1692,123,feet,jsons/VE125_randls_71.json,412439,503407,22,Man
10,247521,DepthScenes,duration_manipulation_targetAtFixation,jsons/VE125_randls_71.json,http://54.235.29.9/FacialAge/BNav_EC2/DepthDuration/v2_depth_duration_MTurk/v2_DepthDuration_HTML.html#123,123,1336,967,1920,1080,8-21-2022,9-47-19,11,depth_duration_stimuli/002039_2014-06-24_20-22-38_260595134347_rgbf000084-resize_1/002039_2014-06-24_20-22-38_260595134347_rgbf000084-resize_1-target.png,125,4.408,5,1468,132,feet,jsons/VE125_randls_71.json,412439,503407,22,Man
11,247521,DepthScenes,duration_manipulation_targetAtFixation,jsons/VE125_randls_71.json,http://54.235.29.9/FacialAge/BNav_EC2/DepthDuration/v2_depth_duration_MTurk/v2_DepthDuration_HTML.html#123,123,1336,967,1920,1080,8-21-2022,9-47-19,12,depth_duration_stimuli/002103_2014-06-25_20-00-40_260595134347_rgbf000049-resize_0/002103_2014-06-25_20-00-40_260595134347_rgbf000049-resize_0-target.png,125,4.105,6,1584,126,feet,jsons/VE125_randls_71.json,412439,503407,22,Man
12,247521,DepthScenes,duration_manipulation_targetAtFixation,jsons/VE125_randls_71.json,http://54.235.29.9/FacialAge/BNav_EC2/DepthDuration/v2_depth_duration_MTurk/v2_DepthDuration_HTML.html#123,123,1336,967,1920,1080,8-21-2022,9-47-19,13,depth_duration_stimuli/000569_2014-06-09_22-51-47_260595134347_rgbf000141-resize_3/000569_2014-06-09_22-51-47_260595134347_rgbf000141-resize-original.jpg,125,4.512,0,2556,128,feet,jsons/VE125_randls_71.json,412439,503407,22,Man
13,247521,DepthScenes,duration_manipulation_targetAtFixation,jsons/VE125_randls_71.json,http://54.235.29.9/FacialAge/BNav_EC2/DepthDuration/v2_depth_duration_MTurk/v2_DepthDuration_HTML.html#123,123,1336,967,1920,1080,8-21-2022,9-47-19,14,depth_duration_stimuli/000739_2014-06-08_18-45-58_260595134347_rgbf000068-resize_1/000739_2014-06-08_18-45-58_260595134347_rgbf000068-resize_1-target.png,125,3.534,7,1536,126,feet,jsons/VE125_randls_71.json,412439,503407,22,Man
14,247521,DepthScenes,duration_manipulation_targetAtFixation,jsons/VE125_randls_71.json,http://54.235.29.9/FacialAge/BNav_EC2/DepthDuration/v2_depth_duration_MTurk/v2_DepthDuration_HTML.html#123,123,1336,967,1920,1080,8-21-2022,9-47-19,15,depth_duration_stimuli/000734_2014-06-08_17-39-11_260595134347_rgbf000128-resize_2/000734_2014-06-08_17-39-11_260595134347_rgbf000128-resize_2-target.png,125,4.098,7,1502,112,feet,jsons/VE125_randls_71.json,412439,503407,22,Man
15,247521,DepthScenes,duration_manipulation_targetAtFixation,jsons/VE125_randls_71.json,http://54.235.29.9/FacialAge/BNav_EC2/DepthDuration/v2_depth_duration_MTurk/v2_DepthDuration_HTML.html#123,123,1336,967,1920,1080,8-21-2022,9-47-19,16,depth_duration_stimuli/000758_2014-06-08_22-05-08_260595134347_rgbf000085-resize_0/000758_2014-06-08_22-05-08_260595134347_rgbf000085-resize_0-target.png,125,3.3810000000000002,6,2804,125,feet,jsons/VE125_randls_71.json,412439,503407,22,Man
16,247521,DepthScenes,duration_manipulation_targetAtFixation,jsons/VE125_randls_71.json,http://54.235.29.9/FacialAge/BNav_EC2/DepthDuration/v2_depth_duration_MTurk/v2_DepthDuration_HTML.html#123,123,1336,967,1920,1080,8-21-2022,9-47-19,17,depth_duration_stimuli/000854_2014-06-09_19-43-13_260595134347_rgbf000066-resize_0/000854_2014-06-09_19-43-13_260595134347_rgbf000066-resize_0-target.png,125,3.068,5,1402,130,feet,jsons/VE125_randls_71.json,412439,503407,22,Man
17,247521,DepthScenes,duration_manipulation_targetAtFixation,jsons/VE125_randls_71.json,http://54.235.29.9/FacialAge/BNav_EC2/DepthDuration/v2_depth_duration_MTurk/v2_DepthDuration_HTML.html#123,123,1336,967,1920,1080,8-21-2022,9-47-19,18,depth_duration_stimuli/001555_2014-06-20_17-12-10_260595134347_rgbf000065-resize_4/001555_2014-06-20_17-12-10_260595134347_rgbf000065-resize_4-target.png,125,1.633,0,3267,125,feet,jsons/VE125_randls_71.json,412439,503407,22,Man
18,247521,DepthScenes,duration_manipulation_targetAtFixation,jsons/VE125_randls_71.json,http://54.235.29.9/FacialAge/BNav_EC2/DepthDuration/v2_depth_duration_MTurk/v2_DepthDuration_HTML.html#123,123,1336,967,1920,1080,8-21-2022,9-47-19,19,depth_duration_stimuli/000103_2014-05-14_22-01-17_260595134347_rgbf000152-resize_5/000103_2014-05-14_22-01-17_260595134347_rgbf000152-resize_5-target.png,125,1.993,6,1672,128,feet,jsons/VE125_randls_71.json,412439,503407,22,Man
19,247521,DepthScenes,duration_manipulation_targetAtFixation,jsons/VE125_randls_71.json,http://54.235.29.9/FacialAge/BNav_EC2/DepthDuration/v2_depth_duration_MTurk/v2_DepthDuration_HTML.html#123,123,1336,967,1920,1080,8-21-2022,9-47-19,20,depth_duration_stimuli/002763_2014-06-22_19-13-10_094959634447_rgbf000075-resize_4/002763_2014-06-22_19-13-10_094959634447_rgbf000075-resize_4-target.png,125,1.68375,5,1294,127,feet,jsons/VE125_randls_71.json,412439,503407,22,Man
20,247521,DepthScenes,duration_manipulation_targetAtFixation,jsons/VE125_randls_71.json,http://54.235.29.9/FacialAge/BNav_EC2/DepthDuration/v2_depth_duration_MTurk/v2_DepthDuration_HTML.html#123,123,1336,967,1920,1080,8-21-2022,9-47-19,21,depth_duration_stimuli/002209_2014-06-28_18-36-10_260595134347_rgbf000051-resize_1/002209_2014-06-28_18-36-10_260595134347_rgbf000051-resize_1-target.png,125,2.057,6,1428,128,feet,jsons/VE125_randls_71.json,412439,503407,22,Man
21,247521,DepthScenes,duration_manipulation_targetAtFixation,jsons/VE125_randls_71.json,http://54.235.29.9/FacialAge/BNav_EC2/DepthDuration/v2_depth_duration_MTurk/v2_DepthDuration_HTML.html#123,123,1336,967,1920,1080,8-21-2022,9-47-19,22,depth_duration_stimuli/000469_2014-06-09_19-42-10_260595134347_rgbf000081-resize_1/000469_2014-06-09_19-42-10_260595134347_rgbf000081-resize_1-target.png,125,1.652,7,1537,111,feet,jsons/VE125_randls_71.json,412439,503407,22,Man
22,247521,DepthScenes,duration_manipulation_targetAtFixation,jsons/VE125_randls_71.json,http://54.235.29.9/FacialAge/BNav_EC2/DepthDuration/v2_depth_duration_MTurk/v2_DepthDuration_HTML.html#123,123,1336,967,1920,1080,8-21-2022,9-47-19,23,depth_duration_stimuli/000483_2014-06-09_20-41-45_260595134347_rgbf000116-resize_4/000483_2014-06-09_20-41-45_260595134347_rgbf000116-resize_4-target.png,125,1.337,5,1590,127,feet,jsons/VE125_randls_71.json,412439,503407,22,Man
23,247521,DepthScenes,duration_manipulation_targetAtFixation,jsons/VE125_randls_71.json,http://54.235.29.9/FacialAge/BNav_EC2/DepthDuration/v2_depth_duration_MTurk/v2_DepthDuration_HTML.html#123,123,1336,967,1920,1080,8-21-2022,9-47-19,24,depth_duration_stimuli/003534_2014-05-22_15-06-10_094959634447_rgbf000102-resize_4/003534_2014-05-22_15-06-10_094959634447_rgbf000102-resize_4-target.png,125,1.426,4,1878,125,feet,jsons/VE125_randls_71.json,412439,503407,22,Man
24,247521,DepthScenes,duration_manipulation_targetAtFixation,jsons/VE125_randls_71.json,http://54.235.29.9/FacialAge/BNav_EC2/DepthDuration/v2_depth_duration_MTurk/v2_DepthDuration_HTML.html#123,123,1336,967,1920,1080,8-21-2022,9-47-19,25,depth_duration_stimuli/002637_2014-06-24_14-51-13_094959634447_rgbf000066-resize_4/002637_2014-06-24_14-51-13_094959634447_rgbf000066-resize_4-target.png,125,1.9955,5,1213,128,feet,jsons/VE125_randls_71.json,412439,503407,22,Man
25,247521,DepthScenes,duration_manipulation_targetAtFixation,jsons/VE125_randls_71.json,http://54.235.29.9/FacialAge/BNav_EC2/DepthDuration/v2_depth_duration_MTurk/v2_DepthDuration_HTML.html#123,123,1336,967,1920,1080,8-21-2022,9-47-19,26,depth_duration_stimuli/001056_2014-06-08_18-46-44_260595134347_rgbf000068-resize_0/001056_2014-06-08_18-46-44_260595134347_rgbf000068-resize_0-target.png,125,2.6625,5,3216,111,feet,jsons/VE125_randls_71.json,412439,503407,22,Man
26,247521,DepthScenes,duration_manipulation_targetAtFixation,jsons/VE125_randls_71.json,http://54.235.29.9/FacialAge/BNav_EC2/DepthDuration/v2_depth_duration_MTurk/v2_DepthDuration_HTML.html#123,123,1336,967,1920,1080,8-21-2022,9-47-19,27,depth_duration_stimuli/002199_2014-06-28_18-33-56_260595134347_rgbf000074-resize_0/002199_2014-06-28_18-33-56_260595134347_rgbf000074-resize_0-target.png,125,1.996,4,1439,123,feet,jsons/VE125_randls_71.json,412439,503407,22,Man
27,247521,DepthScenes,duration_manipulation_targetAtFixation,jsons/VE125_randls_71.json,http://54.235.29.9/FacialAge/BNav_EC2/DepthDuration/v2_depth_duration_MTurk/v2_DepthDuration_HTML.html#123,123,1336,967,1920,1080,8-21-2022,9-47-19,28,depth_duration_stimuli/002989_2014-06-15_12-25-03_094959634447_rgbf000150-resize_3/002989_2014-06-15_12-25-03_094959634447_rgbf000150-resize_3-target.png,125,4.1975,7,1972,126,feet,jsons/VE125_randls_71.json,412439,503407,22,Man
28,247521,DepthScenes,duration_manipulation_targetAtFixation,jsons/VE125_randls_71.json,http://54.235.29.9/FacialAge/BNav_EC2/DepthDuration/v2_depth_duration_MTurk/v2_DepthDuration_HTML.html#123,123,1336,967,1920,1080,8-21-2022,9-47-19,29,depth_duration_stimuli/000866_2014-06-09_20-45-42_260595134347_rgbf000139-resize_1/000866_2014-06-09_20-45-42_260595134347_rgbf000139-resize_1-target.png,125,3.2155,8,1784,120,feet,jsons/VE125_randls_71.json,412439,503407,22,Man
29,247521,DepthScenes,duration_manipulation_targetAtFixation,jsons/VE125_randls_71.json,http://54.235.29.9/FacialAge/BNav_EC2/DepthDuration/v2_depth_duration_MTurk/v2_DepthDuration_HTML.html#123,123,1336,967,1920,1080,8-21-2022,9-47-19,30,depth_duration_stimuli/000375_2014-06-08_11-17-29_260595134347_rgbf000133-resize_2/000375_2014-06-08_11-17-29_260595134347_rgbf000133-resize-original.jpg,125,4.718,0,3793,125,feet,jsons/VE125_randls_71.json,412439,503407,22,Man
30,247521,DepthScenes,duration_manipulation_targetAtFixation,jsons/VE125_randls_71.json,http://54.235.29.9/FacialAge/BNav_EC2/DepthDuration/v2_depth_duration_MTurk/v2_DepthDuration_HTML.html#123,123,1336,967,1920,1080,8-21-2022,9-47-19,31,depth_duration_stimuli/002272_2014-06-28_18-53-56_260595134347_rgbf000067-resize_2/002272_2014-06-28_18-53-56_260595134347_rgbf000067-resize_2-target.png,125,1.138,5,2337,117,feet,jsons/VE125_randls_71.json,412439,503407,22,Man
31,247521,DepthScenes,duration_manipulation_targetAtFixation,jsons/VE125_randls_71.json,http://54.235.29.9/FacialAge/BNav_EC2/DepthDuration/v2_depth_duration_MTurk/v2_DepthDuration_HTML.html#123,123,1336,967,1920,1080,8-21-2022,9-47-19,32,depth_duration_stimuli/001571_2014-06-20_17-21-32_260595134347_rgbf000089-resize_1/001571_2014-06-20_17-21-32_260595134347_rgbf000089-resize_1-target.png,125,1.86,6,2051,114,feet,jsons/VE125_randls_71.json,412439,503407,22,Man
32,247521,DepthScenes,duration_manipulation_targetAtFixation,jsons/VE125_randls_71.json,http://54.235.29.9/FacialAge/BNav_EC2/DepthDuration/v2_depth_duration_MTurk/v2_DepthDuration_HTML.html#123,123,1336,967,1920,1080,8-21-2022,9-47-19,33,depth_duration_stimuli/002748_2014-06-22_19-07-22_094959634447_rgbf000078-resize_1/002748_2014-06-22_19-07-22_094959634447_rgbf000078-resize_1-target.png,125,4.6705,9,2999,125,feet,jsons/VE125_randls_71.json,412439,503407,22,Man
33,247521,DepthScenes,duration_manipulation_targetAtFixation,jsons/VE125_randls_71.json,http://54.235.29.9/FacialAge/BNav_EC2/DepthDuration/v2_depth_duration_MTurk/v2_DepthDuration_HTML.html#123,123,1336,967,1920,1080,8-21-2022,9-47-19,34,depth_duration_stimuli/002995_2014-06-15_12-31-26_094959634447_rgbf000150-resize_1/002995_2014-06-15_12-31-26_094959634447_rgbf000150-resize_1-target.png,125,3.8360000000000003,8,2416,128,feet,jsons/VE125_randls_71.json,412439,503407,22,Man
34,247521,DepthScenes,duration_manipulation_targetAtFixation,jsons/VE125_randls_71.json,http://54.235.29.9/FacialAge/BNav_EC2/DepthDuration/v2_depth_duration_MTurk/v2_DepthDuration_HTML.html#123,123,1336,967,1920,1080,8-21-2022,9-47-19,35,depth_duration_stimuli/000436_2014-06-09_22-25-11_260595134347_rgbf000137-resize_1/000436_2014-06-09_22-25-11_260595134347_rgbf000137-resize_1-target.png,125,4.0705,6,2878,127,feet,jsons/VE125_randls_71.json,412439,503407,22,Man
35,247521,DepthScenes,duration_manipulation_targetAtFixation,jsons/VE125_randls_71.json,http://54.235.29.9/FacialAge/BNav_EC2/DepthDuration/v2_depth_duration_MTurk/v2_DepthDuration_HTML.html#123,123,1336,967,1920,1080,8-21-2022,9-47-19,36,depth_duration_stimuli/002444_2014-06-28_20-32-08_260595134347_rgbf000027-resize_0/002444_2014-06-28_20-32-08_260595134347_rgbf000027-resize_0-target.png,125,4.388999999999999,7,1517,126,feet,jsons/VE125_randls_71.json,412439,503407,22,Man
36,247521,DepthScenes,duration_manipulation_targetAtFixation,jsons/VE125_randls_71.json,http://54.235.29.9/FacialAge/BNav_EC2/DepthDuration/v2_depth_duration_MTurk/v2_DepthDuration_HTML.html#123,123,1336,967,1920,1080,8-21-2022,9-47-19,37,depth_duration_stimuli/001133_2014-06-17_14-49-16_260595134347_rgbf000100-resize_0/001133_2014-06-17_14-49-16_260595134347_rgbf000100-resize_0-target.png,125,4.2115,8,1371,128,feet,jsons/VE125_randls_71.json,412439,503407,22,Man
37,247521,DepthScenes,duration_manipulation_targetAtFixation,jsons/VE125_randls_71.json,http://54.235.29.9/FacialAge/BNav_EC2/DepthDuration/v2_depth_duration_MTurk/v2_DepthDuration_HTML.html#123,123,1336,967,1920,1080,8-21-2022,9-47-19,38,depth_duration_stimuli/001132_2014-06-17_14-48-54_260595134347_rgbf000100-resize_2/001132_2014-06-17_14-48-54_260595134347_rgbf000100-resize_2-target.png,125,3.753,9,1488,113,feet,jsons/VE125_randls_71.json,412439,503407,22,Man
38,247521,DepthScenes,duration_manipulation_targetAtFixation,jsons/VE125_randls_71.json,http://54.235.29.9/FacialAge/BNav_EC2/DepthDuration/v2_depth_duration_MTurk/v2_DepthDuration_HTML.html#123,123,1336,967,1920,1080,8-21-2022,9-47-19,39,depth_duration_stimuli/000929_2014-06-09_16-33-19_260595134347_rgbf000139-resize_0/000929_2014-06-09_16-33-19_260595134347_rgbf000139-resize_0-target.png,125,2.8680000000000003,6,1661,124,feet,jsons/VE125_randls_71.json,412439,503407,22,Man
39,247521,DepthScenes,duration_manipulation_targetAtFixation,jsons/VE125_randls_71.json,http://54.235.29.9/FacialAge/BNav_EC2/DepthDuration/v2_depth_duration_MTurk/v2_DepthDuration_HTML.html#123,123,1336,967,1920,1080,8-21-2022,9-47-19,40,depth_duration_stimuli/000457_2014-06-08_16-52-43_260595134347_rgbf000199-resize_1/000457_2014-06-08_16-52-43_260595134347_rgbf000199-resize_1-target.png,125,3.6489999999999996,6,1504,126,feet,jsons/VE125_randls_71.json,412439,503407,22,Man
40,247521,DepthScenes,duration_manipulation_targetAtFixation,jsons/VE125_randls_71.json,http://54.235.29.9/FacialAge/BNav_EC2/DepthDuration/v2_depth_duration_MTurk/v2_DepthDuration_HTML.html#123,123,1336,967,1920,1080,8-21-2022,9-47-19,41,depth_duration_stimuli/002118_2014-06-25_20-32-08_260595134347_rgbf000078-resize_1/002118_2014-06-25_20-32-08_260595134347_rgbf000078-resize_1-target.png,125,2.6460000000000004,5,1931,124,feet,jsons/VE125_randls_71.json,412439,503407,22,Man
41,247521,DepthScenes,duration_manipulation_targetAtFixation,jsons/VE125_randls_71.json,http://54.235.29.9/FacialAge/BNav_EC2/DepthDuration/v2_depth_duration_MTurk/v2_DepthDuration_HTML.html#123,123,1336,967,1920,1080,8-21-2022,9-47-19,42,depth_duration_stimuli/001516_2014-06-20_16-25-09_260595134347_rgbf000076-resize_2/001516_2014-06-20_16-25-09_260595134347_rgbf000076-resize_2-target.png,125,1.7445,4,1682,124,feet,jsons/VE125_randls_71.json,412439,503407,22,Man
42,247521,DepthScenes,duration_manipulation_targetAtFixation,jsons/VE125_randls_71.json,http://54.235.29.9/FacialAge/BNav_EC2/DepthDuration/v2_depth_duration_MTurk/v2_DepthDuration_HTML.html#123,123,1336,967,1920,1080,8-21-2022,9-47-19,43,depth_duration_stimuli/003492_2014-05-21_15-50-55_094959634447_rgbf000828-resize_1/003492_2014-05-21_15-50-55_094959634447_rgbf000828-resize_1-target.png,125,4.06875,7,1785,111,feet,jsons/VE125_randls_71.json,412439,503407,22,Man
43,247521,DepthScenes,duration_manipulation_targetAtFixation,jsons/VE125_randls_71.json,http://54.235.29.9/FacialAge/BNav_EC2/DepthDuration/v2_depth_duration_MTurk/v2_DepthDuration_HTML.html#123,123,1336,967,1920,1080,8-21-2022,9-47-19,44,depth_duration_stimuli/002568_2014-06-24_13-59-21_094959634447_rgbf000062-resize_4/002568_2014-06-24_13-59-21_094959634447_rgbf000062-resize_4-target.png,125,3.015,5,3930,122,feet,jsons/VE125_randls_71.json,412439,503407,22,Man
44,247521,DepthScenes,duration_manipulation_targetAtFixation,jsons/VE125_randls_71.json,http://54.235.29.9/FacialAge/BNav_EC2/DepthDuration/v2_depth_duration_MTurk/v2_DepthDuration_HTML.html#123,123,1336,967,1920,1080,8-21-2022,9-47-19,45,depth_duration_stimuli/000787_2014-06-08_22-33-53_260595134347_rgbf000175-resize_1/000787_2014-06-08_22-33-53_260595134347_rgbf000175-resize-original.jpg,125,4.784,7,1783,125,feet,jsons/VE125_randls_71.json,412439,503407,22,Man
45,247521,DepthScenes,duration_manipulation_targetAtFixation,jsons/VE125_randls_71.json,http://54.235.29.9/FacialAge/BNav_EC2/DepthDuration/v2_depth_duration_MTurk/v2_DepthDuration_HTML.html#123,123,1336,967,1920,1080,8-21-2022,9-47-19,46,depth_duration_stimuli/001011_2014-06-08_23-18-54_260595134347_rgbf000044-resize_4/001011_2014-06-08_23-18-54_260595134347_rgbf000044-resize_4-target.png,125,2.4730000000000003,8,1864,125,feet,jsons/VE125_randls_71.json,412439,503407,22,Man
46,247521,DepthScenes,duration_manipulation_targetAtFixation,jsons/VE125_randls_71.json,http://54.235.29.9/FacialAge/BNav_EC2/DepthDuration/v2_depth_duration_MTurk/v2_DepthDuration_HTML.html#123,123,1336,967,1920,1080,8-21-2022,9-47-19,47,depth_duration_stimuli/002875_2014-06-01_15-19-00_094959634447_rgbf000151-resize_1/002875_2014-06-01_15-19-00_094959634447_rgbf000151-resize_1-target.png,125,1.9675,5,1521,127,feet,jsons/VE125_randls_71.json,412439,503407,22,Man
47,247521,DepthScenes,duration_manipulation_targetAtFixation,jsons/VE125_randls_71.json,http://54.235.29.9/FacialAge/BNav_EC2/DepthDuration/v2_depth_duration_MTurk/v2_DepthDuration_HTML.html#123,123,1336,967,1920,1080,8-21-2022,9-47-19,48,depth_duration_stimuli/003070_2014-06-15_14-58-27_094959634447_rgbf000150-resize_3/003070_2014-06-15_14-58-27_094959634447_rgbf000150-resize_3-target.png,125,2.9415,7,1456,111,feet,jsons/VE125_randls_71.json,412439,503407,22,Man
48,247521,DepthScenes,duration_manipulation_targetAtFixation,jsons/VE125_randls_71.json,http://54.235.29.9/FacialAge/BNav_EC2/DepthDuration/v2_depth_duration_MTurk/v2_DepthDuration_HTML.html#123,123,1336,967,1920,1080,8-21-2022,9-47-19,49,depth_duration_stimuli/000943_2014-06-09_19-31-07_260595134347_rgbf000128-resize_1/000943_2014-06-09_19-31-07_260595134347_rgbf000128-resize_1-target.png,125,1.9765,8,1796,125,feet,jsons/VE125_randls_71.json,412439,503407,22,Man
49,247521,DepthScenes,duration_manipulation_targetAtFixation,jsons/VE125_randls_71.json,http://54.235.29.9/FacialAge/BNav_EC2/DepthDuration/v2_depth_duration_MTurk/v2_DepthDuration_HTML.html#123,123,1336,967,1920,1080,8-21-2022,9-47-19,50,depth_duration_stimuli/000009_2014-05-26_14-32-05_260595134347_rgbf000034-resize_3/000009_2014-05-26_14-32-05_260595134347_rgbf000034-resize_3-target.png,125,3.8715,10,3858,128,feet,jsons/VE125_randls_71.json,412439,503407,22,Man
50,247521,DepthScenes,duration_manipulation_targetAtFixation,jsons/VE125_randls_71.json,http://54.235.29.9/FacialAge/BNav_EC2/DepthDuration/v2_depth_duration_MTurk/v2_DepthDuration_HTML.html#123,123,1336,967,1920,1080,8-21-2022,9-47-19,51,depth_duration_stimuli/001828_2014-06-26_21-40-03_260595134347_rgbf000024-resize_0/001828_2014-06-26_21-40-03_260595134347_rgbf000024-resize_0-target.png,125,4.8260000000000005,7,1772,128,feet,jsons/VE125_randls_71.json,412439,503407,22,Man
51,247521,DepthScenes,duration_manipulation_targetAtFixation,jsons/VE125_randls_71.json,http://54.235.29.9/FacialAge/BNav_EC2/DepthDuration/v2_depth_duration_MTurk/v2_DepthDuration_HTML.html#123,123,1336,967,1920,1080,8-21-2022,9-47-19,52,depth_duration_stimuli/001158_2014-06-17_15-32-16_260595134347_rgbf000138-resize_2/001158_2014-06-17_15-32-16_260595134347_rgbf000138-resize_2-target.png,125,4.5315,0,3187,125,feet,jsons/VE125_randls_71.json,412439,503407,22,Man
52,247521,DepthScenes,duration_manipulation_targetAtFixation,jsons/VE125_randls_71.json,http://54.235.29.9/FacialAge/BNav_EC2/DepthDuration/v2_depth_duration_MTurk/v2_DepthDuration_HTML.html#123,123,1336,967,1920,1080,8-21-2022,9-47-19,53,depth_duration_stimuli/000556_2014-06-09_22-42-56_260595134347_rgbf000214-resize_1/000556_2014-06-09_22-42-56_260595134347_rgbf000214-resize_1-target.png,125,4.8415,6,1511,127,feet,jsons/VE125_randls_71.json,412439,503407,22,Man
53,247521,DepthScenes,duration_manipulation_targetAtFixation,jsons/VE125_randls_71.json,http://54.235.29.9/FacialAge/BNav_EC2/DepthDuration/v2_depth_duration_MTurk/v2_DepthDuration_HTML.html#123,123,1336,967,1920,1080,8-21-2022,9-47-19,54,depth_duration_stimuli/002153_2014-06-25_21-27-18_260595134347_rgbf000038-resize_5/002153_2014-06-25_21-27-18_260595134347_rgbf000038-resize_5-target.png,125,2.505,7,1694,124,feet,jsons/VE125_randls_71.json,412439,503407,22,Man
54,247521,DepthScenes,duration_manipulation_targetAtFixation,jsons/VE125_randls_71.json,http://54.235.29.9/FacialAge/BNav_EC2/DepthDuration/v2_depth_duration_MTurk/v2_DepthDuration_HTML.html#123,123,1336,967,1920,1080,8-21-2022,9-47-19,55,depth_duration_stimuli/002660_2014-06-13_15-44-18_094959634447_rgbf001878-resize_2/002660_2014-06-13_15-44-18_094959634447_rgbf001878-resize_2-target.png,125,3.576,7,1288,128,feet,jsons/VE125_randls_71.json,412439,503407,22,Man
55,247521,DepthScenes,duration_manipulation_targetAtFixation,jsons/VE125_randls_71.json,http://54.235.29.9/FacialAge/BNav_EC2/DepthDuration/v2_depth_duration_MTurk/v2_DepthDuration_HTML.html#123,123,1336,967,1920,1080,8-21-2022,9-47-19,56,depth_duration_stimuli/002375_2014-06-28_20-13-44_260595134347_rgbf000032-resize_1/002375_2014-06-28_20-13-44_260595134347_rgbf000032-resize_1-target.png,125,4.0175,4,1950,127,feet,jsons/VE125_randls_71.json,412439,503407,22,Man
56,247521,DepthScenes,duration_manipulation_targetAtFixation,jsons/VE125_randls_71.json,http://54.235.29.9/FacialAge/BNav_EC2/DepthDuration/v2_depth_duration_MTurk/v2_DepthDuration_HTML.html#123,123,1336,967,1920,1080,8-21-2022,9-47-19,57,depth_duration_stimuli/002657_2014-06-13_15-29-54_094959634447_rgbf000150-resize_1/002657_2014-06-13_15-29-54_094959634447_rgbf000150-resize_1-target.png,125,4.919,7,1539,120,feet,jsons/VE125_randls_71.json,412439,503407,22,Man
57,247521,DepthScenes,duration_manipulation_targetAtFixation,jsons/VE125_randls_71.json,http://54.235.29.9/FacialAge/BNav_EC2/DepthDuration/v2_depth_duration_MTurk/v2_DepthDuration_HTML.html#123,123,1336,967,1920,1080,8-21-2022,9-47-19,58,depth_duration_stimuli/001810_2014-06-26_20-51-35_260595134347_rgbf000040-resize_3/001810_2014-06-26_20-51-35_260595134347_rgbf000040-resize_3-target.png,125,2.2525,8,1755,128,feet,jsons/VE125_randls_71.json,412439,503407,22,Man
58,247521,DepthScenes,duration_manipulation_targetAtFixation,jsons/VE125_randls_71.json,http://54.235.29.9/FacialAge/BNav_EC2/DepthDuration/v2_depth_duration_MTurk/v2_DepthDuration_HTML.html#123,123,1336,967,1920,1080,8-21-2022,9-47-19,59,depth_duration_stimuli/003010_2014-06-15_12-54-35_094959634447_rgbf000112-resize_0/003010_2014-06-15_12-54-35_094959634447_rgbf000112-resize_0-target.png,125,3.1185,8,1288,126,feet,jsons/VE125_randls_71.json,412439,503407,22,Man
59,247521,DepthScenes,duration_manipulation_targetAtFixation,jsons/VE125_randls_71.json,http://54.235.29.9/FacialAge/BNav_EC2/DepthDuration/v2_depth_duration_MTurk/v2_DepthDuration_HTML.html#123,123,1336,967,1920,1080,8-21-2022,9-47-19,60,depth_duration_stimuli/000788_2014-06-08_22-34-36_260595134347_rgbf000131-resize_1/000788_2014-06-08_22-34-36_260595134347_rgbf000131-resize_1-target.png,125,3.359,8,1392,125,feet,jsons/VE125_randls_71.json,412439,503407,22,Man
60,247521,DepthScenes,duration_manipulation_targetAtFixation,jsons/VE125_randls_71.json,http://54.235.29.9/FacialAge/BNav_EC2/DepthDuration/v2_depth_duration_MTurk/v2_DepthDuration_HTML.html#123,123,1336,967,1920,1080,8-21-2022,9-47-19,61,depth_duration_stimuli/001235_2014-06-17_16-37-36_260595134347_rgbf000084-resize_4/001235_2014-06-17_16-37-36_260595134347_rgbf000084-resize_4-target.png,125,3.6605,6,1253,111,feet,jsons/VE125_randls_71.json,412439,503407,22,Man
61,247521,DepthScenes,duration_manipulation_targetAtFixation,jsons/VE125_randls_71.json,http://54.235.29.9/FacialAge/BNav_EC2/DepthDuration/v2_depth_duration_MTurk/v2_DepthDuration_HTML.html#123,123,1336,967,1920,1080,8-21-2022,9-47-19,62,depth_duration_stimuli/003292_2014-05-14_21-53-49_094959634447_rgbf000100-resize_2/003292_2014-05-14_21-53-49_094959634447_rgbf000100-resize_2-target.png,125,3.4815,7,1439,127,feet,jsons/VE125_randls_71.json,412439,503407,22,Man
62,247521,DepthScenes,duration_manipulation_targetAtFixation,jsons/VE125_randls_71.json,http://54.235.29.9/FacialAge/BNav_EC2/DepthDuration/v2_depth_duration_MTurk/v2_DepthDuration_HTML.html#123,123,1336,967,1920,1080,8-21-2022,9-47-19,63,depth_duration_stimuli/002639_2014-06-24_14-51-37_094959634447_rgbf000074-resize_4/002639_2014-06-24_14-51-37_094959634447_rgbf000074-resize_4-target.png,125,4.0375,8,1594,125,feet,jsons/VE125_randls_71.json,412439,503407,22,Man
63,247521,DepthScenes,duration_manipulation_targetAtFixation,jsons/VE125_randls_71.json,http://54.235.29.9/FacialAge/BNav_EC2/DepthDuration/v2_depth_duration_MTurk/v2_DepthDuration_HTML.html#123,123,1336,967,1920,1080,8-21-2022,9-47-19,64,depth_duration_stimuli/002630_2014-06-24_14-47-50_094959634447_rgbf000055-resize_1/002630_2014-06-24_14-47-50_094959634447_rgbf000055-resize_1-target.png,125,3.0095,8,1338,138,feet,jsons/VE125_randls_71.json,412439,503407,22,Man
64,247521,DepthScenes,duration_manipulation_targetAtFixation,jsons/VE125_randls_71.json,http://54.235.29.9/FacialAge/BNav_EC2/DepthDuration/v2_depth_duration_MTurk/v2_DepthDuration_HTML.html#123,123,1336,967,1920,1080,8-21-2022,9-47-19,65,depth_duration_stimuli/002758_2014-06-22_19-11-20_094959634447_rgbf000128-resize_1/002758_2014-06-22_19-11-20_094959634447_rgbf000128-resize_1-target.png,125,2.555,5,1463,127,feet,jsons/VE125_randls_71.json,412439,503407,22,Man
65,247521,DepthScenes,duration_manipulation_targetAtFixation,jsons/VE125_randls_71.json,http://54.235.29.9/FacialAge/BNav_EC2/DepthDuration/v2_depth_duration_MTurk/v2_DepthDuration_HTML.html#123,123,1336,967,1920,1080,8-21-2022,9-47-19,66,depth_duration_stimuli/001222_2014-06-17_16-24-06_260595134347_rgbf000073-resize_0/001222_2014-06-17_16-24-06_260595134347_rgbf000073-resize-original.jpg,125,1.4385,0,2369,121,feet,jsons/VE125_randls_71.json,412439,503407,22,Man
66,247521,DepthScenes,duration_manipulation_targetAtFixation,jsons/VE125_randls_71.json,http://54.235.29.9/FacialAge/BNav_EC2/DepthDuration/v2_depth_duration_MTurk/v2_DepthDuration_HTML.html#123,123,1336,967,1920,1080,8-21-2022,9-47-19,67,depth_duration_stimuli/000486_2014-06-09_20-47-20_260595134347_rgbf000143-resize_2/000486_2014-06-09_20-47-20_260595134347_rgbf000143-resize_2-target.png,125,4.8325,7,1746,126,feet,jsons/VE125_randls_71.json,412439,503407,22,Man
67,247521,DepthScenes,duration_manipulation_targetAtFixation,jsons/VE125_randls_71.json,http://54.235.29.9/FacialAge/BNav_EC2/DepthDuration/v2_depth_duration_MTurk/v2_DepthDuration_HTML.html#123,123,1336,967,1920,1080,8-21-2022,9-47-19,68,depth_duration_stimuli/003083_2014-06-15_15-21-03_094959634447_rgbf000063-resize_1/003083_2014-06-15_15-21-03_094959634447_rgbf000063-resize_1-target.png,125,4.1405,8,1619,112,feet,jsons/VE125_randls_71.json,412439,503407,22,Man
68,247521,DepthScenes,duration_manipulation_targetAtFixation,jsons/VE125_randls_71.json,http://54.235.29.9/FacialAge/BNav_EC2/DepthDuration/v2_depth_duration_MTurk/v2_DepthDuration_HTML.html#123,123,1336,967,1920,1080,8-21-2022,9-47-19,69,depth_duration_stimuli/001164_2014-06-17_15-35-46_260595134347_rgbf000085-resize_3/001164_2014-06-17_15-35-46_260595134347_rgbf000085-resize_3-target.png,125,2.354,6,1307,126,feet,jsons/VE125_randls_71.json,412439,503407,22,Man
69,247521,DepthScenes,duration_manipulation_targetAtFixation,jsons/VE125_randls_71.json,http://54.235.29.9/FacialAge/BNav_EC2/DepthDuration/v2_depth_duration_MTurk/v2_DepthDuration_HTML.html#123,123,1336,967,1920,1080,8-21-2022,9-47-19,70,depth_duration_stimuli/001136_2014-06-17_15-19-41_260595134347_rgbf000076-resize_3/001136_2014-06-17_15-19-41_260595134347_rgbf000076-resize_3-target.png,125,1.8655,7,1627,128,feet,jsons/VE125_randls_71.json,412439,503407,22,Man
70,247521,DepthScenes,duration_manipulation_targetAtFixation,jsons/VE125_randls_71.json,http://54.235.29.9/FacialAge/BNav_EC2/DepthDuration/v2_depth_duration_MTurk/v2_DepthDuration_HTML.html#123,123,1336,967,1920,1080,8-21-2022,9-47-19,71,depth_duration_stimuli/001016_2014-06-09_16-16-10_260595134347_rgbf000112-resize_5/001016_2014-06-09_16-16-10_260595134347_rgbf000112-resize_5-target.png,125,1.6565,8,1372,128,feet,jsons/VE125_randls_71.json,412439,503407,22,Man
71,247521,DepthScenes,duration_manipulation_targetAtFixation,jsons/VE125_randls_71.json,http://54.235.29.9/FacialAge/BNav_EC2/DepthDuration/v2_depth_duration_MTurk/v2_DepthDuration_HTML.html#123,123,1336,967,1920,1080,8-21-2022,9-47-19,72,depth_duration_stimuli/002340_2014-06-28_20-05-46_260595134347_rgbf000113-resize_0/002340_2014-06-28_20-05-46_260595134347_rgbf000113-resize_0-target.png,125,2.4735,9,1566,111,feet,jsons/VE125_randls_71.json,412439,503407,22,Man
72,247521,DepthScenes,duration_manipulation_targetAtFixation,jsons/VE125_randls_71.json,http://54.235.29.9/FacialAge/BNav_EC2/DepthDuration/v2_depth_duration_MTurk/v2_DepthDuration_HTML.html#123,123,1336,967,1920,1080,8-21-2022,9-47-19,73,depth_duration_stimuli/001244_2014-06-17_16-47-45_260595134347_rgbf000030-resize_4/001244_2014-06-17_16-47-45_260595134347_rgbf000030-resize_4-target.png,125,2.0425,8,1742,128,feet,jsons/VE125_randls_71.json,412439,503407,22,Man
73,247521,DepthScenes,duration_manipulation_targetAtFixation,jsons/VE125_randls_71.json,http://54.235.29.9/FacialAge/BNav_EC2/DepthDuration/v2_depth_duration_MTurk/v2_DepthDuration_HTML.html#123,123,1336,967,1920,1080,8-21-2022,9-47-19,74,depth_duration_stimuli/003495_2014-05-21_16-01-51_094959634447_rgbf000100-resize_3/003495_2014-05-21_16-01-51_094959634447_rgbf000100-resize_3-target.png,125,1.6255,5,1630,127,feet,jsons/VE125_randls_71.json,412439,503407,22,Man
74,247521,DepthScenes,duration_manipulation_targetAtFixation,jsons/VE125_randls_71.json,http://54.235.29.9/FacialAge/BNav_EC2/DepthDuration/v2_depth_duration_MTurk/v2_DepthDuration_HTML.html#123,123,1336,967,1920,1080,8-21-2022,9-47-19,75,depth_duration_stimuli/000470_2014-06-09_19-42-40_260595134347_rgbf000094-resize_1/000470_2014-06-09_19-42-40_260595134347_rgbf000094-resize_1-target.png,125,1.831,6,1557,125,feet,jsons/VE125_randls_71.json,412439,503407,22,Man
75,247521,DepthScenes,duration_manipulation_targetAtFixation,jsons/VE125_randls_71.json,http://54.235.29.9/FacialAge/BNav_EC2/DepthDuration/v2_depth_duration_MTurk/v2_DepthDuration_HTML.html#123,123,1336,967,1920,1080,8-21-2022,9-47-19,76,depth_duration_stimuli/000109_2014-05-14_23-41-52_260595134347_rgbf000035-resize_9/000109_2014-05-14_23-41-52_260595134347_rgbf000035-resize_9-target.png,125,1.3545,7,1267,123,feet,jsons/VE125_randls_71.json,412439,503407,22,Man
76,247521,DepthScenes,duration_manipulation_targetAtFixation,jsons/VE125_randls_71.json,http://54.235.29.9/FacialAge/BNav_EC2/DepthDuration/v2_depth_duration_MTurk/v2_DepthDuration_HTML.html#123,123,1336,967,1920,1080,8-21-2022,9-47-19,77,depth_duration_stimuli/001110_2014-06-15_17-25-28_260595134347_rgbf000150-resize_1/001110_2014-06-15_17-25-28_260595134347_rgbf000150-resize_1-target.png,125,1.7115,8,1794,126,feet,jsons/VE125_randls_71.json,412439,503407,22,Man
77,247521,DepthScenes,duration_manipulation_targetAtFixation,jsons/VE125_randls_71.json,http://54.235.29.9/FacialAge/BNav_EC2/DepthDuration/v2_depth_duration_MTurk/v2_DepthDuration_HTML.html#123,123,1336,967,1920,1080,8-21-2022,9-47-19,78,depth_duration_stimuli/000927_2014-06-09_16-32-30_260595134347_rgbf000123-resize_3/000927_2014-06-09_16-32-30_260595134347_rgbf000123-resize_3-target.png,125,2.6785,7,2086,116,feet,jsons/VE125_randls_71.json,412439,503407,22,Man
78,247521,DepthScenes,duration_manipulation_targetAtFixation,jsons/VE125_randls_71.json,http://54.235.29.9/FacialAge/BNav_EC2/DepthDuration/v2_depth_duration_MTurk/v2_DepthDuration_HTML.html#123,123,1336,967,1920,1080,8-21-2022,9-47-19,79,depth_duration_stimuli/001175_2014-06-17_15-45-55_260595134347_rgbf000129-resize_4/001175_2014-06-17_15-45-55_260595134347_rgbf000129-resize_4-target.png,125,4.255,6,1708,116,feet,jsons/VE125_randls_71.json,412439,503407,22,Man
79,247521,DepthScenes,duration_manipulation_targetAtFixation,jsons/VE125_randls_71.json,http://54.235.29.9/FacialAge/BNav_EC2/DepthDuration/v2_depth_duration_MTurk/v2_DepthDuration_HTML.html#123,123,1336,967,1920,1080,8-21-2022,9-47-19,80,depth_duration_stimuli/003490_2014-05-21_15-50-11_094959634447_rgbf000101-resize_3/003490_2014-05-21_15-50-11_094959634447_rgbf000101-resize_3-target.png,125,3.6445,5,1248,123,feet,jsons/VE125_randls_71.json,412439,503407,22,Man
80,247521,DepthScenes,duration_manipulation_targetAtFixation,jsons/VE125_randls_71.json,http://54.235.29.9/FacialAge/BNav_EC2/DepthDuration/v2_depth_duration_MTurk/v2_DepthDuration_HTML.html#123,123,1336,967,1920,1080,8-21-2022,9-47-19,81,depth_duration_stimuli/000522_2014-06-08_13-35-06_260595134347_rgbf000244-resize_1/000522_2014-06-08_13-35-06_260595134347_rgbf000244-resize_1-target.png,125,2.3715,7,1804,132,feet,jsons/VE125_randls_71.json,412439,503407,22,Man
81,247521,DepthScenes,duration_manipulation_targetAtFixation,jsons/VE125_randls_71.json,http://54.235.29.9/FacialAge/BNav_EC2/DepthDuration/v2_depth_duration_MTurk/v2_DepthDuration_HTML.html#123,123,1336,967,1920,1080,8-21-2022,9-47-19,82,depth_duration_stimuli/002949_2014-06-26_15-57-42_094959634447_rgbf000079-resize_1/002949_2014-06-26_15-57-42_094959634447_rgbf000079-resize_1-target.png,125,1.8915,6,1321,111,feet,jsons/VE125_randls_71.json,412439,503407,22,Man
82,247521,DepthScenes,duration_manipulation_targetAtFixation,jsons/VE125_randls_71.json,http://54.235.29.9/FacialAge/BNav_EC2/DepthDuration/v2_depth_duration_MTurk/v2_DepthDuration_HTML.html#123,123,1336,967,1920,1080,8-21-2022,9-47-19,83,depth_duration_stimuli/001449_2014-06-19_17-01-27_260595134347_rgbf000116-resize_2/001449_2014-06-19_17-01-27_260595134347_rgbf000116-resize_2-target.png,125,3.452,7,1282,124,feet,jsons/VE125_randls_71.json,412439,503407,22,Man
83,247521,DepthScenes,duration_manipulation_targetAtFixation,jsons/VE125_randls_71.json,http://54.235.29.9/FacialAge/BNav_EC2/DepthDuration/v2_depth_duration_MTurk/v2_DepthDuration_HTML.html#123,123,1336,967,1920,1080,8-21-2022,9-47-19,84,depth_duration_stimuli/001450_2014-06-19_17-02-03_260595134347_rgbf000203-resize_4/001450_2014-06-19_17-02-03_260595134347_rgbf000203-resize_4-target.png,125,4.0106666666667,8,1296,125,feet,jsons/VE125_randls_71.json,412439,503407,22,Man
84,247521,DepthScenes,duration_manipulation_targetAtFixation,jsons/VE125_randls_71.json,http://54.235.29.9/FacialAge/BNav_EC2/DepthDuration/v2_depth_duration_MTurk/v2_DepthDuration_HTML.html#123,123,1336,967,1920,1080,8-21-2022,9-47-19,85,depth_duration_stimuli/000414_2014-06-04_19-49-13_260595134347_rgbf000044-resize_0/000414_2014-06-04_19-49-13_260595134347_rgbf000044-resize_0-target.png,125,4.329,9,1710,132,feet,jsons/VE125_randls_71.json,412439,503407,22,Man
85,247521,DepthScenes,duration_manipulation_targetAtFixation,jsons/VE125_randls_71.json,http://54.235.29.9/FacialAge/BNav_EC2/DepthDuration/v2_depth_duration_MTurk/v2_DepthDuration_HTML.html#123,123,1336,967,1920,1080,8-21-2022,9-47-19,86,depth_duration_stimuli/003129_2014-05-12_10-48-10_094959634447_rgbf000100-resize_0/003129_2014-05-12_10-48-10_094959634447_rgbf000100-resize_0-target.png,125,4.9305,10,3061,127,feet,jsons/VE125_randls_71.json,412439,503407,22,Man
86,247521,DepthScenes,duration_manipulation_targetAtFixation,jsons/VE125_randls_71.json,http://54.235.29.9/FacialAge/BNav_EC2/DepthDuration/v2_depth_duration_MTurk/v2_DepthDuration_HTML.html#123,123,1336,967,1920,1080,8-21-2022,9-47-19,87,depth_duration_stimuli/001199_2014-06-17_16-03-48_260595134347_rgbf000077-resize_0/001199_2014-06-17_16-03-48_260595134347_rgbf000077-resize_0-target.png,125,3.4375,7,1462,125,feet,jsons/VE125_randls_71.json,412439,503407,22,Man
87,247521,DepthScenes,duration_manipulation_targetAtFixation,jsons/VE125_randls_71.json,http://54.235.29.9/FacialAge/BNav_EC2/DepthDuration/v2_depth_duration_MTurk/v2_DepthDuration_HTML.html#123,123,1336,967,1920,1080,8-21-2022,9-47-19,88,depth_duration_stimuli/000502_2014-06-08_23-02-32_260595134347_rgbf000063-resize_4/000502_2014-06-08_23-02-32_260595134347_rgbf000063-resize_4-target.png,125,2.431,8,1210,126,feet,jsons/VE125_randls_71.json,412439,503407,22,Man
88,247521,DepthScenes,duration_manipulation_targetAtFixation,jsons/VE125_randls_71.json,http://54.235.29.9/FacialAge/BNav_EC2/DepthDuration/v2_depth_duration_MTurk/v2_DepthDuration_HTML.html#123,123,1336,967,1920,1080,8-21-2022,9-47-19,89,depth_duration_stimuli/001417_2014-06-19_16-25-36_260595134347_rgbf000115-resize_5/001417_2014-06-19_16-25-36_260595134347_rgbf000115-resize_5-target.png,125,4.6255,6,1417,122,feet,jsons/VE125_randls_71.json,412439,503407,22,Man
89,247521,DepthScenes,duration_manipulation_targetAtFixation,jsons/VE125_randls_71.json,http://54.235.29.9/FacialAge/BNav_EC2/DepthDuration/v2_depth_duration_MTurk/v2_DepthDuration_HTML.html#123,123,1336,967,1920,1080,8-21-2022,9-47-19,90,depth_duration_stimuli/003081_2014-06-15_15-19-16_094959634447_rgbf000150-resize_1/003081_2014-06-15_15-19-16_094959634447_rgbf000150-resize_1-target.png,125,3.9125,7,2062,128,feet,jsons/VE125_randls_71.json,412439,503407,22,Man
90,247521,DepthScenes,duration_manipulation_targetAtFixation,jsons/VE125_randls_71.json,http://54.235.29.9/FacialAge/BNav_EC2/DepthDuration/v2_depth_duration_MTurk/v2_DepthDuration_HTML.html#123,123,1336,967,1920,1080,8-21-2022,9-47-19,91,depth_duration_stimuli/000773_2014-06-08_22-24-54_260595134347_rgbf000093-resize_1/000773_2014-06-08_22-24-54_260595134347_rgbf000093-resize_1-target.png,125,4.973,4,1804,124,feet,jsons/VE125_randls_71.json,412439,503407,22,Man
91,247521,DepthScenes,duration_manipulation_targetAtFixation,jsons/VE125_randls_71.json,http://54.235.29.9/FacialAge/BNav_EC2/DepthDuration/v2_depth_duration_MTurk/v2_DepthDuration_HTML.html#123,123,1336,967,1920,1080,8-21-2022,9-47-19,92,depth_duration_stimuli/002414_2014-06-28_20-24-58_260595134347_rgbf000067-resize_4/002414_2014-06-28_20-24-58_260595134347_rgbf000067-resize_4-target.png,125,4.363,8,1560,109,feet,jsons/VE125_randls_71.json,412439,503407,22,Man
92,247521,DepthScenes,duration_manipulation_targetAtFixation,jsons/VE125_randls_71.json,http://54.235.29.9/FacialAge/BNav_EC2/DepthDuration/v2_depth_duration_MTurk/v2_DepthDuration_HTML.html#123,123,1336,967,1920,1080,8-21-2022,9-47-19,93,depth_duration_stimuli/001059_2014-06-08_21-53-27_260595134347_rgbf000061-resize_4/001059_2014-06-08_21-53-27_260595134347_rgbf000061-resize_4-target.png,125,2.4185,9,1449,139,feet,jsons/VE125_randls_71.json,412439,503407,22,Man
93,247521,DepthScenes,duration_manipulation_targetAtFixation,jsons/VE125_randls_71.json,http://54.235.29.9/FacialAge/BNav_EC2/DepthDuration/v2_depth_duration_MTurk/v2_DepthDuration_HTML.html#123,123,1336,967,1920,1080,8-21-2022,9-47-19,94,depth_duration_stimuli/001032_2014-06-08_13-23-17_260595134347_rgbf000021-resize_3/001032_2014-06-08_13-23-17_260595134347_rgbf000021-resize_3-target.png,125,3.2725,6,1792,126,feet,jsons/VE125_randls_71.json,412439,503407,22,Man
94,247521,DepthScenes,duration_manipulation_targetAtFixation,jsons/VE125_randls_71.json,http://54.235.29.9/FacialAge/BNav_EC2/DepthDuration/v2_depth_duration_MTurk/v2_DepthDuration_HTML.html#123,123,1336,967,1920,1080,8-21-2022,9-47-19,95,depth_duration_stimuli/002784_2014-06-22_19-26-30_094959634447_rgbf000083-resize_3/002784_2014-06-22_19-26-30_094959634447_rgbf000083-resize_3-target.png,125,1.8046666666667,7,1269,127,feet,jsons/VE125_randls_71.json,412439,503407,22,Man
95,247521,DepthScenes,duration_manipulation_targetAtFixation,jsons/VE125_randls_71.json,http://54.235.29.9/FacialAge/BNav_EC2/DepthDuration/v2_depth_duration_MTurk/v2_DepthDuration_HTML.html#123,123,1336,967,1920,1080,8-21-2022,9-47-19,96,depth_duration_stimuli/001100_2014-06-15_17-46-26_260595134347_rgbf000225-resize_2/001100_2014-06-15_17-46-26_260595134347_rgbf000225-resize_2-target.png,125,2.24,8,1579,127,feet,jsons/VE125_randls_71.json,412439,503407,22,Man
96,247521,DepthScenes,duration_manipulation_targetAtFixation,jsons/VE125_randls_71.json,http://54.235.29.9/FacialAge/BNav_EC2/DepthDuration/v2_depth_duration_MTurk/v2_DepthDuration_HTML.html#123,123,1336,967,1920,1080,8-21-2022,9-47-19,97,depth_duration_stimuli/000736_2014-06-08_18-24-15_260595134347_rgbf000206-resize_3/000736_2014-06-08_18-24-15_260595134347_rgbf000206-resize_3-target.png,125,3.515,8,1432,133,feet,jsons/VE125_randls_71.json,412439,503407,22,Man
97,247521,DepthScenes,duration_manipulation_targetAtFixation,jsons/VE125_randls_71.json,http://54.235.29.9/FacialAge/BNav_EC2/DepthDuration/v2_depth_duration_MTurk/v2_DepthDuration_HTML.html#123,123,1336,967,1920,1080,8-21-2022,9-47-19,98,depth_duration_stimuli/000137_2014-05-20_17-04-49_260595134347_rgbf000120-resize_1/000137_2014-05-20_17-04-49_260595134347_rgbf000120-resize_1-target.png,125,3.786,7,1325,125,feet,jsons/VE125_randls_71.json,412439,503407,22,Man
98,247521,DepthScenes,duration_manipulation_targetAtFixation,jsons/VE125_randls_71.json,http://54.235.29.9/FacialAge/BNav_EC2/DepthDuration/v2_depth_duration_MTurk/v2_DepthDuration_HTML.html#123,123,1336,967,1920,1080,8-21-2022,9-47-19,99,depth_duration_stimuli/001540_2014-06-20_17-01-05_260595134347_rgbf000086-resize_2/001540_2014-06-20_17-01-05_260595134347_rgbf000086-resize-original.jpg,125,1.459,6,1832,125,feet,jsons/VE125_randls_71.json,412439,503407,22,Man
99,247521,DepthScenes,duration_manipulation_targetAtFixation,jsons/VE125_randls_71.json,http://54.235.29.9/FacialAge/BNav_EC2/DepthDuration/v2_depth_duration_MTurk/v2_DepthDuration_HTML.html#123,123,1336,967,1920,1080,8-21-2022,9-47-19,100,depth_duration_stimuli/002213_2014-06-28_18-37-58_260595134347_rgbf000055-resize_1/002213_2014-06-28_18-37-58_260595134347_rgbf000055-resize_1-target.png,125,3.62,7,1423,134,feet,jsons/VE125_randls_71.json,412439,503407,22,Man
100,247521,DepthScenes,duration_manipulation_targetAtFixation,jsons/VE125_randls_71.json,http://54.235.29.9/FacialAge/BNav_EC2/DepthDuration/v2_depth_duration_MTurk/v2_DepthDuration_HTML.html#123,123,1336,967,1920,1080,8-21-2022,9-47-19,101,depth_duration_stimuli/000691_2014-06-08_13-08-50_260595134347_rgbf000132-resize_3/000691_2014-06-08_13-08-50_260595134347_rgbf000132-resize_3-target.png,125,4.1530000000000005,5,2451,123,feet,jsons/VE125_randls_71.json,412439,503407,22,Man
101,247521,DepthScenes,duration_manipulation_targetAtFixation,jsons/VE125_randls_71.json,http://54.235.29.9/FacialAge/BNav_EC2/DepthDuration/v2_depth_duration_MTurk/v2_DepthDuration_HTML.html#123,123,1336,967,1920,1080,8-21-2022,9-47-19,102,depth_duration_stimuli/000493_2014-06-09_21-01-18_260595134347_rgbf000196-resize_3/000493_2014-06-09_21-01-18_260595134347_rgbf000196-resize_3-target.png,125,3.44,0,6159,128,feet,jsons/VE125_randls_71.json,412439,503407,22,Man
102,247521,DepthScenes,duration_manipulation_targetAtFixation,jsons/VE125_randls_71.json,http://54.235.29.9/FacialAge/BNav_EC2/DepthDuration/v2_depth_duration_MTurk/v2_DepthDuration_HTML.html#123,123,1336,967,1920,1080,8-21-2022,9-47-19,103,depth_duration_stimuli/000191_2014-05-12_17-07-38_260595134347_rgbf000199-resize_0/000191_2014-05-12_17-07-38_260595134347_rgbf000199-resize_0-target.png,125,3.7995,8,1816,124,feet,jsons/VE125_randls_71.json,412439,503407,22,Man
103,247521,DepthScenes,duration_manipulation_targetAtFixation,jsons/VE125_randls_71.json,http://54.235.29.9/FacialAge/BNav_EC2/DepthDuration/v2_depth_duration_MTurk/v2_DepthDuration_HTML.html#123,123,1336,967,1920,1080,8-21-2022,9-47-19,104,depth_duration_stimuli/002509_2014-06-24_13-19-22_094959634447_rgbf000077-resize_0/002509_2014-06-24_13-19-22_094959634447_rgbf000077-resize_0-target.png,125,1.3065,5,2188,127,feet,jsons/VE125_randls_71.json,412439,503407,22,Man
104,247521,DepthScenes,duration_manipulation_targetAtFixation,jsons/VE125_randls_71.json,http://54.235.29.9/FacialAge/BNav_EC2/DepthDuration/v2_depth_duration_MTurk/v2_DepthDuration_HTML.html#123,123,1336,967,1920,1080,8-21-2022,9-47-19,105,depth_duration_stimuli/003338_2014-05-20_11-01-23_094959634447_rgbf000051-resize_6/003338_2014-05-20_11-01-23_094959634447_rgbf000051-resize_6-target.png,125,1.693,6,1922,112,feet,jsons/VE125_randls_71.json,412439,503407,22,Man
105,247521,DepthScenes,duration_manipulation_targetAtFixation,jsons/VE125_randls_71.json,http://54.235.29.9/FacialAge/BNav_EC2/DepthDuration/v2_depth_duration_MTurk/v2_DepthDuration_HTML.html#123,123,1336,967,1920,1080,8-21-2022,9-47-19,106,depth_duration_stimuli/002279_2014-06-28_18-55-32_260595134347_rgbf000040-resize_5/002279_2014-06-28_18-55-32_260595134347_rgbf000040-resize_5-target.png,125,1.5043333333333,7,1209,126,feet,jsons/VE125_randls_71.json,412439,503407,22,Man
106,247521,DepthScenes,duration_manipulation_targetAtFixation,jsons/VE125_randls_71.json,http://54.235.29.9/FacialAge/BNav_EC2/DepthDuration/v2_depth_duration_MTurk/v2_DepthDuration_HTML.html#123,123,1336,967,1920,1080,8-21-2022,9-47-19,107,depth_duration_stimuli/000635_2014-06-08_16-38-42_260595134347_rgbf000106-resize_1/000635_2014-06-08_16-38-42_260595134347_rgbf000106-resize_1-target.png,125,2.074,8,1665,127,feet,jsons/VE125_randls_71.json,412439,503407,22,Man
107,247521,DepthScenes,duration_manipulation_targetAtFixation,jsons/VE125_randls_71.json,http://54.235.29.9/FacialAge/BNav_EC2/DepthDuration/v2_depth_duration_MTurk/v2_DepthDuration_HTML.html#123,123,1336,967,1920,1080,8-21-2022,9-47-19,108,depth_duration_stimuli/002570_2014-06-24_13-59-54_094959634447_rgbf000059-resize_0/002570_2014-06-24_13-59-54_094959634447_rgbf000059-resize_0-target.png,125,4.037,8,1531,136,feet,jsons/VE125_randls_71.json,412439,503407,22,Man
108,247521,DepthScenes,duration_manipulation_targetAtFixation,jsons/VE125_randls_71.json,http://54.235.29.9/FacialAge/BNav_EC2/DepthDuration/v2_depth_duration_MTurk/v2_DepthDuration_HTML.html#123,123,1336,967,1920,1080,8-21-2022,9-47-19,109,depth_duration_stimuli/002467_2014-06-28_20-38-07_260595134347_rgbf000026-resize_2/002467_2014-06-28_20-38-07_260595134347_rgbf000026-resize_2-target.png,125,4.742,4,1914,128,feet,jsons/VE125_randls_71.json,412439,503407,22,Man
109,247521,DepthScenes,duration_manipulation_targetAtFixation,jsons/VE125_randls_71.json,http://54.235.29.9/FacialAge/BNav_EC2/DepthDuration/v2_depth_duration_MTurk/v2_DepthDuration_HTML.html#123,123,1336,967,1920,1080,8-21-2022,9-47-19,110,depth_duration_stimuli/002964_2014-06-08_17-46-11_094959634447_rgbf000091-resize_4/002964_2014-06-08_17-46-11_094959634447_rgbf000091-resize_4-target.png,125,1.6909999999999998,6,2093,126,feet,jsons/VE125_randls_71.json,412439,503407,22,Man
110,247521,DepthScenes,duration_manipulation_targetAtFixation,jsons/VE125_randls_71.json,http://54.235.29.9/FacialAge/BNav_EC2/DepthDuration/v2_depth_duration_MTurk/v2_DepthDuration_HTML.html#123,123,1336,967,1920,1080,8-21-2022,9-47-19,111,depth_duration_stimuli/002136_2014-06-25_21-18-03_260595134347_rgbf000109-resize_3/002136_2014-06-25_21-18-03_260595134347_rgbf000109-resize_3-target.png,125,1.9569999999999999,8,1595,128,feet,jsons/VE125_randls_71.json,412439,503407,22,Man
111,247521,DepthScenes,duration_manipulation_targetAtFixation,jsons/VE125_randls_71.json,http://54.235.29.9/FacialAge/BNav_EC2/DepthDuration/v2_depth_duration_MTurk/v2_DepthDuration_HTML.html#123,123,1336,967,1920,1080,8-21-2022,9-47-19,112,depth_duration_stimuli/000506_2014-06-08_23-21-00_260595134347_rgbf000070-resize_7/000506_2014-06-08_23-21-00_260595134347_rgbf000070-resize_7-target.png,125,4.0585,6,1924,128,feet,jsons/VE125_randls_71.json,412439,503407,22,Man
112,247521,DepthScenes,duration_manipulation_targetAtFixation,jsons/VE125_randls_71.json,http://54.235.29.9/FacialAge/BNav_EC2/DepthDuration/v2_depth_duration_MTurk/v2_DepthDuration_HTML.html#123,123,1336,967,1920,1080,8-21-2022,9-47-19,113,depth_duration_stimuli/003079_2014-06-15_15-18-20_094959634447_rgbf000152-resize_8/003079_2014-06-15_15-18-20_094959634447_rgbf000152-resize_8-target.png,125,2.8775,9,2084,125,feet,jsons/VE125_randls_71.json,412439,503407,22,Man
113,247521,DepthScenes,duration_manipulation_targetAtFixation,jsons/VE125_randls_71.json,http://54.235.29.9/FacialAge/BNav_EC2/DepthDuration/v2_depth_duration_MTurk/v2_DepthDuration_HTML.html#123,123,1336,967,1920,1080,8-21-2022,9-47-19,114,depth_duration_stimuli/000642_2014-06-08_16-59-25_260595134347_rgbf000098-resize_2/000642_2014-06-08_16-59-25_260595134347_rgbf000098-resize_2-target.png,125,2.8815,6,1606,125,feet,jsons/VE125_randls_71.json,412439,503407,22,Man
114,247521,DepthScenes,duration_manipulation_targetAtFixation,jsons/VE125_randls_71.json,http://54.235.29.9/FacialAge/BNav_EC2/DepthDuration/v2_depth_duration_MTurk/v2_DepthDuration_HTML.html#123,123,1336,967,1920,1080,8-21-2022,9-47-19,115,depth_duration_stimuli/002425_2014-06-28_20-27-29_260595134347_rgbf000031-resize_8/002425_2014-06-28_20-27-29_260595134347_rgbf000031-resize_8-target.png,125,3.8960000000000004,8,1983,127,feet,jsons/VE125_randls_71.json,412439,503407,22,Man
115,247521,DepthScenes,duration_manipulation_targetAtFixation,jsons/VE125_randls_71.json,http://54.235.29.9/FacialAge/BNav_EC2/DepthDuration/v2_depth_duration_MTurk/v2_DepthDuration_HTML.html#123,123,1336,967,1920,1080,8-21-2022,9-47-19,116,depth_duration_stimuli/001170_2014-06-17_15-43-44_260595134347_rgbf000096-resize_6/001170_2014-06-17_15-43-44_260595134347_rgbf000096-resize-original.jpg,125,1.1909999999999998,0,2088,111,feet,jsons/VE125_randls_71.json,412439,503407,22,Man
116,247521,DepthScenes,duration_manipulation_targetAtFixation,jsons/VE125_randls_71.json,http://54.235.29.9/FacialAge/BNav_EC2/DepthDuration/v2_depth_duration_MTurk/v2_DepthDuration_HTML.html#123,123,1336,967,1920,1080,8-21-2022,9-47-19,117,depth_duration_stimuli/000447_2014-06-08_16-15-46_260595134347_rgbf000130-resize_1/000447_2014-06-08_16-15-46_260595134347_rgbf000130-resize_1-target.png,125,4.479,5,2313,116,feet,jsons/VE125_randls_71.json,412439,503407,22,Man
117,247521,DepthScenes,duration_manipulation_targetAtFixation,jsons/VE125_randls_71.json,http://54.235.29.9/FacialAge/BNav_EC2/DepthDuration/v2_depth_duration_MTurk/v2_DepthDuration_HTML.html#123,123,1336,967,1920,1080,8-21-2022,9-47-19,118,depth_duration_stimuli/001447_2014-06-19_17-00-32_260595134347_rgbf000082-resize_5/001447_2014-06-19_17-00-32_260595134347_rgbf000082-resize_5-target.png,125,4.13775,7,1236,133,feet,jsons/VE125_randls_71.json,412439,503407,22,Man
118,247521,DepthScenes,duration_manipulation_targetAtFixation,jsons/VE125_randls_71.json,http://54.235.29.9/FacialAge/BNav_EC2/DepthDuration/v2_depth_duration_MTurk/v2_DepthDuration_HTML.html#123,123,1336,967,1920,1080,8-21-2022,9-47-19,119,depth_duration_stimuli/001055_2014-06-08_18-45-35_260595134347_rgbf000111-resize_4/001055_2014-06-08_18-45-35_260595134347_rgbf000111-resize_4-target.png,125,2.4290000000000003,8,1870,126,feet,jsons/VE125_randls_71.json,412439,503407,22,Man
119,247521,DepthScenes,duration_manipulation_targetAtFixation,jsons/VE125_randls_71.json,http://54.235.29.9/FacialAge/BNav_EC2/DepthDuration/v2_depth_duration_MTurk/v2_DepthDuration_HTML.html#123,123,1336,967,1920,1080,8-21-2022,9-47-19,120,depth_duration_stimuli/000549_2014-06-08_22-10-24_260595134347_rgbf000247-resize_3/000549_2014-06-08_22-10-24_260595134347_rgbf000247-resize_3-target.png,125,1.841,0,2146,128,feet,jsons/VE125_randls_71.json,412439,503407,22,Man
120,247521,DepthScenes,duration_manipulation_targetAtFixation,jsons/VE125_randls_71.json,http://54.235.29.9/FacialAge/BNav_EC2/DepthDuration/v2_depth_duration_MTurk/v2_DepthDuration_HTML.html#123,123,1336,967,1920,1080,8-21-2022,9-47-19,121,depth_duration_stimuli/000878_2014-06-08_22-52-45_260595134347_rgbf000045-resize_2/000878_2014-06-08_22-52-45_260595134347_rgbf000045-resize_2-target.png,125,2.092,8,1958,124,feet,jsons/VE125_randls_71.json,412439,503407,22,Man
121,247521,DepthScenes,duration_manipulation_targetAtFixation,jsons/VE125_randls_71.json,http://54.235.29.9/FacialAge/BNav_EC2/DepthDuration/v2_depth_duration_MTurk/v2_DepthDuration_HTML.html#123,123,1336,967,1920,1080,8-21-2022,9-47-19,122,depth_duration_stimuli/002953_2014-06-08_17-32-18_094959634447_rgbf000059-resize_5/002953_2014-06-08_17-32-18_094959634447_rgbf000059-resize_5-target.png,125,1.551,5,2127,112,feet,jsons/VE125_randls_71.json,412439,503407,22,Man
122,247521,DepthScenes,duration_manipulation_targetAtFixation,jsons/VE125_randls_71.json,http://54.235.29.9/FacialAge/BNav_EC2/DepthDuration/v2_depth_duration_MTurk/v2_DepthDuration_HTML.html#123,123,1336,967,1920,1080,8-21-2022,9-47-19,123,depth_duration_stimuli/000368_2014-06-09_15-53-01_260595134347_rgbf000155-resize_2/000368_2014-06-09_15-53-01_260595134347_rgbf000155-resize_2-target.png,125,2.4859999999999998,7,1375,128,feet,jsons/VE125_randls_71.json,412439,503407,22,Man
123,247521,DepthScenes,duration_manipulation_targetAtFixation,jsons/VE125_randls_71.json,http://54.235.29.9/FacialAge/BNav_EC2/DepthDuration/v2_depth_duration_MTurk/v2_DepthDuration_HTML.html#123,123,1336,967,1920,1080,8-21-2022,9-47-19,124,depth_duration_stimuli/002678_2014-06-13_16-15-32_094959634447_rgbf000151-resize_6/002678_2014-06-13_16-15-32_094959634447_rgbf000151-resize_6-target.png,125,2.1830000000000003,7,1856,127,feet,jsons/VE125_randls_71.json,412439,503407,22,Man
124,247521,DepthScenes,duration_manipulation_targetAtFixation,jsons/VE125_randls_71.json,http://54.235.29.9/FacialAge/BNav_EC2/DepthDuration/v2_depth_duration_MTurk/v2_DepthDuration_HTML.html#123,123,1336,967,1920,1080,8-21-2022,9-47-19,125,depth_duration_stimuli/001570_2014-06-20_17-21-09_260595134347_rgbf000135-resize_4/001570_2014-06-20_17-21-09_260595134347_rgbf000135-resize_4-target.png,125,4.467,8,1332,111,feet,jsons/VE125_randls_71.json,412439,503407,22,Man
125,247521,DepthScenes,duration_manipulation_targetAtFixation,jsons/VE125_randls_71.json,http://54.235.29.9/FacialAge/BNav_EC2/DepthDuration/v2_depth_duration_MTurk/v2_DepthDuration_HTML.html#123,123,1336,967,1920,1080,8-21-2022,9-47-19,126,depth_duration_stimuli/001392_2014-06-19_16-07-59_260595134347_rgbf000046-resize_1/001392_2014-06-19_16-07-59_260595134347_rgbf000046-resize_1-target.png,125,4.135,9,1666,127,feet,jsons/VE125_randls_71.json,412439,503407,22,Man
126,247521,DepthScenes,duration_manipulation_targetAtFixation,jsons/VE125_randls_71.json,http://54.235.29.9/FacialAge/BNav_EC2/DepthDuration/v2_depth_duration_MTurk/v2_DepthDuration_HTML.html#123,123,1336,967,1920,1080,8-21-2022,9-47-19,127,depth_duration_stimuli/001066_2014-06-08_22-03-20_260595134347_rgbf000066-resize_4/001066_2014-06-08_22-03-20_260595134347_rgbf000066-resize_4-target.png,125,4.2330000000000005,6,1339,112,feet,jsons/VE125_randls_71.json,412439,503407,22,Man
127,247521,DepthScenes,duration_manipulation_targetAtFixation,jsons/VE125_randls_71.json,http://54.235.29.9/FacialAge/BNav_EC2/DepthDuration/v2_depth_duration_MTurk/v2_DepthDuration_HTML.html#123,123,1336,967,1920,1080,8-21-2022,9-47-19,128,depth_duration_stimuli/000742_2014-06-08_18-48-09_260595134347_rgbf000164-resize_4/000742_2014-06-08_18-48-09_260595134347_rgbf000164-resize_4-target.png,125,4.632,7,1322,135,feet,jsons/VE125_randls_71.json,412439,503407,22,Man
128,247521,DepthScenes,duration_manipulation_targetAtFixation,jsons/VE125_randls_71.json,http://54.235.29.9/FacialAge/BNav_EC2/DepthDuration/v2_depth_duration_MTurk/v2_DepthDuration_HTML.html#123,123,1336,967,1920,1080,8-21-2022,9-47-19,129,depth_duration_stimuli/000682_2014-06-08_23-14-58_260595134347_rgbf000041-resize_5/000682_2014-06-08_23-14-58_260595134347_rgbf000041-resize_5-target.png,125,2.7239999999999998,8,1852,125,feet,jsons/VE125_randls_71.json,412439,503407,22,Man
129,247521,DepthScenes,duration_manipulation_targetAtFixation,jsons/VE125_randls_71.json,http://54.235.29.9/FacialAge/BNav_EC2/DepthDuration/v2_depth_duration_MTurk/v2_DepthDuration_HTML.html#123,123,1336,967,1920,1080,8-21-2022,9-47-19,130,depth_duration_stimuli/001650_2014-06-20_12-09-00_260595134347_rgbf000087-resize_3/001650_2014-06-20_12-09-00_260595134347_rgbf000087-resize_3-target.png,125,1.9505,6,2143,128,feet,jsons/VE125_randls_71.json,412439,503407,22,Man
130,247521,DepthScenes,duration_manipulation_targetAtFixation,jsons/VE125_randls_71.json,http://54.235.29.9/FacialAge/BNav_EC2/DepthDuration/v2_depth_duration_MTurk/v2_DepthDuration_HTML.html#123,123,1336,967,1920,1080,8-21-2022,9-47-19,131,depth_duration_stimuli/001167_2014-06-17_15-38-07_260595134347_rgbf000108-resize_0/001167_2014-06-17_15-38-07_260595134347_rgbf000108-resize_0-target.png,125,1.8505,7,1569,125,feet,jsons/VE125_randls_71.json,412439,503407,22,Man
131,247521,DepthScenes,duration_manipulation_targetAtFixation,jsons/VE125_randls_71.json,http://54.235.29.9/FacialAge/BNav_EC2/DepthDuration/v2_depth_duration_MTurk/v2_DepthDuration_HTML.html#123,123,1336,967,1920,1080,8-21-2022,9-47-19,132,depth_duration_stimuli/003587_2014-05-23_16-48-02_094959634447_rgbf002384-resize_2/003587_2014-05-23_16-48-02_094959634447_rgbf002384-resize_2-target.png,125,1.357,5,1424,125,feet,jsons/VE125_randls_71.json,412439,503407,22,Man
132,247521,DepthScenes,duration_manipulation_targetAtFixation,jsons/VE125_randls_71.json,http://54.235.29.9/FacialAge/BNav_EC2/DepthDuration/v2_depth_duration_MTurk/v2_DepthDuration_HTML.html#123,123,1336,967,1920,1080,8-21-2022,9-47-19,133,depth_duration_stimuli/000810_2014-06-08_17-20-01_260595134347_rgbf000105-resize_0/000810_2014-06-08_17-20-01_260595134347_rgbf000105-resize_0-target.png,125,1.4865,7,2109,128,feet,jsons/VE125_randls_71.json,412439,503407,22,Man
133,247521,DepthScenes,duration_manipulation_targetAtFixation,jsons/VE125_randls_71.json,http://54.235.29.9/FacialAge/BNav_EC2/DepthDuration/v2_depth_duration_MTurk/v2_DepthDuration_HTML.html#123,123,1336,967,1920,1080,8-21-2022,9-47-19,134,depth_duration_stimuli/001214_2014-06-17_16-13-55_260595134347_rgbf000111-resize_0/001214_2014-06-17_16-13-55_260595134347_rgbf000111-resize_0-target.png,125,2.6505,5,2108,129,feet,jsons/VE125_randls_71.json,412439,503407,22,Man
134,247521,DepthScenes,duration_manipulation_targetAtFixation,jsons/VE125_randls_71.json,http://54.235.29.9/FacialAge/BNav_EC2/DepthDuration/v2_depth_duration_MTurk/v2_DepthDuration_HTML.html#123,123,1336,967,1920,1080,8-21-2022,9-47-19,135,depth_duration_stimuli/002072_2014-06-24_21-48-06_260595134347_rgbf000115-resize_0/002072_2014-06-24_21-48-06_260595134347_rgbf000115-resize-original.jpg,125,4.702,0,2469,128,feet,jsons/VE125_randls_71.json,412439,503407,22,Man
135,247521,DepthScenes,duration_manipulation_targetAtFixation,jsons/VE125_randls_71.json,http://54.235.29.9/FacialAge/BNav_EC2/DepthDuration/v2_depth_duration_MTurk/v2_DepthDuration_HTML.html#123,123,1336,967,1920,1080,8-21-2022,9-47-19,136,depth_duration_stimuli/001806_2014-06-26_20-50-20_260595134347_rgbf000091-resize_1/001806_2014-06-26_20-50-20_260595134347_rgbf000091-resize_1-target.png,125,2.7305,6,1363,132,feet,jsons/VE125_randls_71.json,412439,503407,22,Man
136,247521,DepthScenes,duration_manipulation_targetAtFixation,jsons/VE125_randls_71.json,http://54.235.29.9/FacialAge/BNav_EC2/DepthDuration/v2_depth_duration_MTurk/v2_DepthDuration_HTML.html#123,123,1336,967,1920,1080,8-21-2022,9-47-19,137,depth_duration_stimuli/001617_2014-06-20_11-35-32_260595134347_rgbf000066-resize_1/001617_2014-06-20_11-35-32_260595134347_rgbf000066-resize_1-target.png,125,3.7910000000000004,7,1216,126,feet,jsons/VE125_randls_71.json,412439,503407,22,Man
137,247521,DepthScenes,duration_manipulation_targetAtFixation,jsons/VE125_randls_71.json,http://54.235.29.9/FacialAge/BNav_EC2/DepthDuration/v2_depth_duration_MTurk/v2_DepthDuration_HTML.html#123,123,1336,967,1920,1080,8-21-2022,9-47-19,138,depth_duration_stimuli/002788_2014-06-22_19-36-03_094959634447_rgbf000088-resize_2/002788_2014-06-22_19-36-03_094959634447_rgbf000088-resize_2-target.png,125,1.6465,5,1197,125,feet,jsons/VE125_randls_71.json,412439,503407,22,Man
138,247521,DepthScenes,duration_manipulation_targetAtFixation,jsons/VE125_randls_71.json,http://54.235.29.9/FacialAge/BNav_EC2/DepthDuration/v2_depth_duration_MTurk/v2_DepthDuration_HTML.html#123,123,1336,967,1920,1080,8-21-2022,9-47-19,139,depth_duration_stimuli/000749_2014-06-08_21-55-06_260595134347_rgbf000070-resize_2/000749_2014-06-08_21-55-06_260595134347_rgbf000070-resize_2-target.png,125,2.331,6,1251,127,feet,jsons/VE125_randls_71.json,412439,503407,22,Man
139,247521,DepthScenes,duration_manipulation_targetAtFixation,jsons/VE125_randls_71.json,http://54.235.29.9/FacialAge/BNav_EC2/DepthDuration/v2_depth_duration_MTurk/v2_DepthDuration_HTML.html#123,123,1336,967,1920,1080,8-21-2022,9-47-19,140,depth_duration_stimuli/002663_2014-06-13_15-50-26_094959634447_rgbf000075-resize_1/002663_2014-06-13_15-50-26_094959634447_rgbf000075-resize_1-target.png,125,4.7495,7,1262,126,feet,jsons/VE125_randls_71.json,412439,503407,22,Man
140,247521,DepthScenes,duration_manipulation_targetAtFixation,jsons/VE125_randls_71.json,http://54.235.29.9/FacialAge/BNav_EC2/DepthDuration/v2_depth_duration_MTurk/v2_DepthDuration_HTML.html#123,123,1336,967,1920,1080,8-21-2022,9-47-19,141,depth_duration_stimuli/000409_2014-06-04_19-23-33_260595134347_rgbf000067-resize_0/000409_2014-06-04_19-23-33_260595134347_rgbf000067-resize_0-target.png,125,3.7335,6,1537,126,feet,jsons/VE125_randls_71.json,412439,503407,22,Man
141,247521,DepthScenes,duration_manipulation_targetAtFixation,jsons/VE125_randls_71.json,http://54.235.29.9/FacialAge/BNav_EC2/DepthDuration/v2_depth_duration_MTurk/v2_DepthDuration_HTML.html#123,123,1336,967,1920,1080,8-21-2022,9-47-19,142,depth_duration_stimuli/000692_2014-06-08_13-09-42_260595134347_rgbf000199-resize_2/000692_2014-06-08_13-09-42_260595134347_rgbf000199-resize_2-target.png,125,3.661,7,1248,128,feet,jsons/VE125_randls_71.json,412439,503407,22,Man
142,247521,DepthScenes,duration_manipulation_targetAtFixation,jsons/VE125_randls_71.json,http://54.235.29.9/FacialAge/BNav_EC2/DepthDuration/v2_depth_duration_MTurk/v2_DepthDuration_HTML.html#123,123,1336,967,1920,1080,8-21-2022,9-47-19,143,depth_duration_stimuli/001094_2014-06-15_17-36-00_260595134347_rgbf000205-resize_0/001094_2014-06-15_17-36-00_260595134347_rgbf000205-resize_0-target.png,125,4.2175,8,1568,126,feet,jsons/VE125_randls_71.json,412439,503407,22,Man
143,247521,DepthScenes,duration_manipulation_targetAtFixation,jsons/VE125_randls_71.json,http://54.235.29.9/FacialAge/BNav_EC2/DepthDuration/v2_depth_duration_MTurk/v2_DepthDuration_HTML.html#123,123,1336,967,1920,1080,8-21-2022,9-47-19,144,depth_duration_stimuli/002905_2014-06-03_18-04-43_094959634447_rgbf000151-resize_2/002905_2014-06-03_18-04-43_094959634447_rgbf000151-resize_2-target.png,125,2.0295,8,1283,124,feet,jsons/VE125_randls_71.json,412439,503407,22,Man
144,247521,DepthScenes,duration_manipulation_targetAtFixation,jsons/VE125_randls_71.json,http://54.235.29.9/FacialAge/BNav_EC2/DepthDuration/v2_depth_duration_MTurk/v2_DepthDuration_HTML.html#123,123,1336,967,1920,1080,8-21-2022,9-47-19,145,depth_duration_stimuli/003423_2014-05-21_10-23-26_094959634447_rgbf002665-resize_2/003423_2014-05-21_10-23-26_094959634447_rgbf002665-resize_2-target.png,125,3.2575,7,1549,125,feet,jsons/VE125_randls_71.json,412439,503407,22,Man
145,247521,DepthScenes,duration_manipulation_targetAtFixation,jsons/VE125_randls_71.json,http://54.235.29.9/FacialAge/BNav_EC2/DepthDuration/v2_depth_duration_MTurk/v2_DepthDuration_HTML.html#123,123,1336,967,1920,1080,8-21-2022,9-47-19,146,depth_duration_stimuli/001498_2014-06-19_17-45-14_260595134347_rgbf000129-resize_4/001498_2014-06-19_17-45-14_260595134347_rgbf000129-resize-original.jpg,125,1.4075,7,12618,137,feet,jsons/VE125_randls_71.json,412439,503407,22,Man
146,247521,DepthScenes,duration_manipulation_targetAtFixation,jsons/VE125_randls_71.json,http://54.235.29.9/FacialAge/BNav_EC2/DepthDuration/v2_depth_duration_MTurk/v2_DepthDuration_HTML.html#123,123,1336,967,1920,1080,8-21-2022,9-47-19,147,depth_duration_stimuli/001808_2014-06-26_20-50-58_260595134347_rgbf000029-resize_1/001808_2014-06-26_20-50-58_260595134347_rgbf000029-resize_1-target.png,125,4.249,11,3231,127,feet,jsons/VE125_randls_71.json,412439,503407,22,Man
147,247521,DepthScenes,duration_manipulation_targetAtFixation,jsons/VE125_randls_71.json,http://54.235.29.9/FacialAge/BNav_EC2/DepthDuration/v2_depth_duration_MTurk/v2_DepthDuration_HTML.html#123,123,1336,967,1920,1080,8-21-2022,9-47-19,148,depth_duration_stimuli/001815_2014-06-26_20-52-55_260595134347_rgbf000020-resize_0/001815_2014-06-26_20-52-55_260595134347_rgbf000020-resize_0-target.png,125,3.3865,7,2074,117,feet,jsons/VE125_randls_71.json,412439,503407,22,Man
148,247521,DepthScenes,duration_manipulation_targetAtFixation,jsons/VE125_randls_71.json,http://54.235.29.9/FacialAge/BNav_EC2/DepthDuration/v2_depth_duration_MTurk/v2_DepthDuration_HTML.html#123,123,1336,967,1920,1080,8-21-2022,9-47-19,149,depth_duration_stimuli/002057_2014-06-24_21-00-13_260595134347_rgbf000120-resize_1/002057_2014-06-24_21-00-13_260595134347_rgbf000120-resize_1-target.png,125,2.967,7,17646,126,feet,jsons/VE125_randls_71.json,412439,503407,22,Man
149,247521,DepthScenes,duration_manipulation_targetAtFixation,jsons/VE125_randls_71.json,http://54.235.29.9/FacialAge/BNav_EC2/DepthDuration/v2_depth_duration_MTurk/v2_DepthDuration_HTML.html#123,123,1336,967,1920,1080,8-21-2022,9-47-19,150,depth_duration_stimuli/000709_2014-06-08_13-51-55_260595134347_rgbf000068-resize_3/000709_2014-06-08_13-51-55_260595134347_rgbf000068-resize_3-target.png,125,1.8030000000000002,0,2696,119,feet,jsons/VE125_randls_71.json,412439,503407,22,Man
150,247521,DepthScenes,duration_manipulation_targetAtFixation,jsons/VE125_randls_71.json,http://54.235.29.9/FacialAge/BNav_EC2/DepthDuration/v2_depth_duration_MTurk/v2_DepthDuration_HTML.html#123,123,1336,967,1920,1080,8-21-2022,9-47-19,151,depth_duration_stimuli/002725_2014-06-22_11-47-51_094959634447_rgbf000070-resize_1/002725_2014-06-22_11-47-51_094959634447_rgbf000070-resize_1-target.png,125,2.195,7,2201,128,feet,jsons/VE125_randls_71.json,412439,503407,22,Man
151,247521,DepthScenes,duration_manipulation_targetAtFixation,jsons/VE125_randls_71.json,http://54.235.29.9/FacialAge/BNav_EC2/DepthDuration/v2_depth_duration_MTurk/v2_DepthDuration_HTML.html#123,123,1336,967,1920,1080,8-21-2022,9-47-19,152,depth_duration_stimuli/002344_2014-06-28_20-06-29_260595134347_rgbf000030-resize_1/002344_2014-06-28_20-06-29_260595134347_rgbf000030-resize_1-target.png,125,1.5795,5,2369,133,feet,jsons/VE125_randls_71.json,412439,503407,22,Man
152,247521,DepthScenes,duration_manipulation_targetAtFixation,jsons/VE125_randls_71.json,http://54.235.29.9/FacialAge/BNav_EC2/DepthDuration/v2_depth_duration_MTurk/v2_DepthDuration_HTML.html#123,123,1336,967,1920,1080,8-21-2022,9-47-19,153,depth_duration_stimuli/002043_2014-06-24_20-29-38_260595134347_rgbf000039-resize_4/002043_2014-06-24_20-29-38_260595134347_rgbf000039-resize_4-target.png,125,2.8435,7,1322,121,feet,jsons/VE125_randls_71.json,412439,503407,22,Man
153,247521,DepthScenes,duration_manipulation_targetAtFixation,jsons/VE125_randls_71.json,http://54.235.29.9/FacialAge/BNav_EC2/DepthDuration/v2_depth_duration_MTurk/v2_DepthDuration_HTML.html#123,123,1336,967,1920,1080,8-21-2022,9-47-19,154,depth_duration_stimuli/003048_2014-06-15_13-49-43_094959634447_rgbf000150-resize_1/003048_2014-06-15_13-49-43_094959634447_rgbf000150-resize_1-target.png,125,4.0035,8,2057,124,feet,jsons/VE125_randls_71.json,412439,503407,22,Man
154,247521,DepthScenes,duration_manipulation_targetAtFixation,jsons/VE125_randls_71.json,http://54.235.29.9/FacialAge/BNav_EC2/DepthDuration/v2_depth_duration_MTurk/v2_DepthDuration_HTML.html#123,123,1336,967,1920,1080,8-21-2022,9-47-19,155,depth_duration_stimuli/002445_2014-06-28_20-32-16_260595134347_rgbf000029-resize_4/002445_2014-06-28_20-32-16_260595134347_rgbf000029-resize_4-target.png,125,2.5315,7,1530,125,feet,jsons/VE125_randls_71.json,412439,503407,22,Man
155,247521,DepthScenes,duration_manipulation_targetAtFixation,jsons/VE125_randls_71.json,http://54.235.29.9/FacialAge/BNav_EC2/DepthDuration/v2_depth_duration_MTurk/v2_DepthDuration_HTML.html#123,123,1336,967,1920,1080,8-21-2022,9-47-19,156,depth_duration_stimuli/000780_2014-06-08_22-28-29_260595134347_rgbf000126-resize_1/000780_2014-06-08_22-28-29_260595134347_rgbf000126-resize_1-target.png,125,3.3825,9,2349,124,feet,jsons/VE125_randls_71.json,412439,503407,22,Man
156,247521,DepthScenes,duration_manipulation_targetAtFixation,jsons/VE125_randls_71.json,http://54.235.29.9/FacialAge/BNav_EC2/DepthDuration/v2_depth_duration_MTurk/v2_DepthDuration_HTML.html#123,123,1336,967,1920,1080,8-21-2022,9-47-19,157,depth_duration_stimuli/001029_2014-06-08_13-17-57_260595134347_rgbf000065-resize_1/001029_2014-06-08_13-17-57_260595134347_rgbf000065-resize_1-target.png,125,3.0835,7,1625,125,feet,jsons/VE125_randls_71.json,412439,503407,22,Man
157,247521,DepthScenes,duration_manipulation_targetAtFixation,jsons/VE125_randls_71.json,http://54.235.29.9/FacialAge/BNav_EC2/DepthDuration/v2_depth_duration_MTurk/v2_DepthDuration_HTML.html#123,123,1336,967,1920,1080,8-21-2022,9-47-19,158,depth_duration_stimuli/000677_2014-06-08_23-10-32_260595134347_rgbf000158-resize_6/000677_2014-06-08_23-10-32_260595134347_rgbf000158-resize_6-target.png,125,3.556,8,1470,127,feet,jsons/VE125_randls_71.json,412439,503407,22,Man
158,247521,DepthScenes,duration_manipulation_targetAtFixation,jsons/VE125_randls_71.json,http://54.235.29.9/FacialAge/BNav_EC2/DepthDuration/v2_depth_duration_MTurk/v2_DepthDuration_HTML.html#123,123,1336,967,1920,1080,8-21-2022,9-47-19,159,depth_duration_stimuli/002988_2014-06-15_12-24-20_094959634447_rgbf000150-resize_1/002988_2014-06-15_12-24-20_094959634447_rgbf000150-resize_1-target.png,125,4.7669999999999995,10,2804,123,feet,jsons/VE125_randls_71.json,412439,503407,22,Man
159,247521,DepthScenes,duration_manipulation_targetAtFixation,jsons/VE125_randls_71.json,http://54.235.29.9/FacialAge/BNav_EC2/DepthDuration/v2_depth_duration_MTurk/v2_DepthDuration_HTML.html#123,123,1336,967,1920,1080,8-21-2022,9-47-19,160,depth_duration_stimuli/001052_2014-06-08_18-24-54_260595134347_rgbf000130-resize_1/001052_2014-06-08_18-24-54_260595134347_rgbf000130-resize_1-target.png,125,4.1045,9,2522,135,feet,jsons/VE125_randls_71.json,412439,503407,22,Man
160,247521,DepthScenes,duration_manipulation_targetAtFixation,jsons/VE125_randls_71.json,http://54.235.29.9/FacialAge/BNav_EC2/DepthDuration/v2_depth_duration_MTurk/v2_DepthDuration_HTML.html#123,123,1336,967,1920,1080,8-21-2022,9-47-19,161,depth_duration_stimuli/000906_2014-06-08_13-35-43_260595134347_rgbf000155-resize_1/000906_2014-06-08_13-35-43_260595134347_rgbf000155-resize_1-target.png,125,2.8489999999999998,8,1582,127,feet,jsons/VE125_randls_71.json,412439,503407,22,Man
161,247521,DepthScenes,duration_manipulation_targetAtFixation,jsons/VE125_randls_71.json,http://54.235.29.9/FacialAge/BNav_EC2/DepthDuration/v2_depth_duration_MTurk/v2_DepthDuration_HTML.html#123,123,1336,967,1920,1080,8-21-2022,9-47-19,162,depth_duration_stimuli/002805_2014-06-22_19-54-03_094959634447_rgbf000079-resize_1/002805_2014-06-22_19-54-03_094959634447_rgbf000079-resize_1-target.png,125,3.1439999999999997,0,4407,128,feet,jsons/VE125_randls_71.json,412439,503407,22,Man
162,247521,DepthScenes,duration_manipulation_targetAtFixation,jsons/VE125_randls_71.json,http://54.235.29.9/FacialAge/BNav_EC2/DepthDuration/v2_depth_duration_MTurk/v2_DepthDuration_HTML.html#123,123,1336,967,1920,1080,8-21-2022,9-47-19,163,depth_duration_stimuli/002600_2014-06-24_14-27-04_094959634447_rgbf000074-resize_2/002600_2014-06-24_14-27-04_094959634447_rgbf000074-resize_2-target.png,125,2.7575,8,1937,126,feet,jsons/VE125_randls_71.json,412439,503407,22,Man
163,247521,DepthScenes,duration_manipulation_targetAtFixation,jsons/VE125_randls_71.json,http://54.235.29.9/FacialAge/BNav_EC2/DepthDuration/v2_depth_duration_MTurk/v2_DepthDuration_HTML.html#123,123,1336,967,1920,1080,8-21-2022,9-47-19,164,depth_duration_stimuli/003228_2014-05-14_13-42-35_094959634447_rgbf000101-resize_1/003228_2014-05-14_13-42-35_094959634447_rgbf000101-resize_1-target.png,125,1.9680000000000002,7,1735,134,feet,jsons/VE125_randls_71.json,412439,503407,22,Man
