,subjID,experimentName,versionName,sequenceName,url,selected_row,windowWidth,windowHeight,screenWidth,screenHeight,startDate,startTime,trial,stimulus,duration,actual_depth,depth_estimate,trial_RT,log_sceneDuration,unitSelection,seq_filepath,experimentTime,totalTime,age,gender
0,247969,DepthScenes,duration_manipulation_targetAtFixation,jsons/VE125_randls_62_rotated.json,http://54.235.29.9/FacialAge/BNav_EC2/DepthDuration/v2_depth_duration_MTurk/v2_DepthDuration_HTML.html#142,142,1280,800,1280,800,8-30-2022,11-3-1,1,depth_duration_stimuli/001214_2014-06-17_16-13-55_260595134347_rgbf000111-resize_0/001214_2014-06-17_16-13-55_260595134347_rgbf000111-resize_0-target.png,125,2.6505,12,9285,123,feet,jsons/VE125_randls_62_rotated.json,850607,1920147,51,Man
1,247969,DepthScenes,duration_manipulation_targetAtFixation,jsons/VE125_randls_62_rotated.json,http://54.235.29.9/FacialAge/BNav_EC2/DepthDuration/v2_depth_duration_MTurk/v2_DepthDuration_HTML.html#142,142,1280,800,1280,800,8-30-2022,11-3-1,2,depth_duration_stimuli/000810_2014-06-08_17-20-01_260595134347_rgbf000105-resize_0/000810_2014-06-08_17-20-01_260595134347_rgbf000105-resize_0-target.png,125,1.4865,5,10390,122,feet,jsons/VE125_randls_62_rotated.json,850607,1920147,51,Man
2,247969,DepthScenes,duration_manipulation_targetAtFixation,jsons/VE125_randls_62_rotated.json,http://54.235.29.9/FacialAge/BNav_EC2/DepthDuration/v2_depth_duration_MTurk/v2_DepthDuration_HTML.html#142,142,1280,800,1280,800,8-30-2022,11-3-1,3,depth_duration_stimuli/002953_2014-06-08_17-32-18_094959634447_rgbf000059-resize_5/002953_2014-06-08_17-32-18_094959634447_rgbf000059-resize_5-target.png,125,1.551,5,6555,128,feet,jsons/VE125_randls_62_rotated.json,850607,1920147,51,Man
3,247969,DepthScenes,duration_manipulation_targetAtFixation,jsons/VE125_randls_62_rotated.json,http://54.235.29.9/FacialAge/BNav_EC2/DepthDuration/v2_depth_duration_MTurk/v2_DepthDuration_HTML.html#142,142,1280,800,1280,800,8-30-2022,11-3-1,4,depth_duration_stimuli/000878_2014-06-08_22-52-45_260595134347_rgbf000045-resize_2/000878_2014-06-08_22-52-45_260595134347_rgbf000045-resize_2-target.png,125,2.092,9,10781,123,feet,jsons/VE125_randls_62_rotated.json,850607,1920147,51,Man
4,247969,DepthScenes,duration_manipulation_targetAtFixation,jsons/VE125_randls_62_rotated.json,http://54.235.29.9/FacialAge/BNav_EC2/DepthDuration/v2_depth_duration_MTurk/v2_DepthDuration_HTML.html#142,142,1280,800,1280,800,8-30-2022,11-3-1,5,depth_duration_stimuli/001516_2014-06-20_16-25-09_260595134347_rgbf000076-resize_2/001516_2014-06-20_16-25-09_260595134347_rgbf000076-resize_2-target.png,125,1.7445,9,5076,124,feet,jsons/VE125_randls_62_rotated.json,850607,1920147,51,Man
5,247969,DepthScenes,duration_manipulation_targetAtFixation,jsons/VE125_randls_62_rotated.json,http://54.235.29.9/FacialAge/BNav_EC2/DepthDuration/v2_depth_duration_MTurk/v2_DepthDuration_HTML.html#142,142,1280,800,1280,800,8-30-2022,11-3-1,6,depth_duration_stimuli/002118_2014-06-25_20-32-08_260595134347_rgbf000078-resize_1/002118_2014-06-25_20-32-08_260595134347_rgbf000078-resize_1-target.png,125,2.6460000000000004,10,4514,124,feet,jsons/VE125_randls_62_rotated.json,850607,1920147,51,Man
6,247969,DepthScenes,duration_manipulation_targetAtFixation,jsons/VE125_randls_62_rotated.json,http://54.235.29.9/FacialAge/BNav_EC2/DepthDuration/v2_depth_duration_MTurk/v2_DepthDuration_HTML.html#142,142,1280,800,1280,800,8-30-2022,11-3-1,7,depth_duration_stimuli/003490_2014-05-21_15-50-11_094959634447_rgbf000101-resize_3/003490_2014-05-21_15-50-11_094959634447_rgbf000101-resize_3-target.png,125,3.6445,12,4281,126,feet,jsons/VE125_randls_62_rotated.json,850607,1920147,51,Man
7,247969,DepthScenes,duration_manipulation_targetAtFixation,jsons/VE125_randls_62_rotated.json,http://54.235.29.9/FacialAge/BNav_EC2/DepthDuration/v2_depth_duration_MTurk/v2_DepthDuration_HTML.html#142,142,1280,800,1280,800,8-30-2022,11-3-1,8,depth_duration_stimuli/001175_2014-06-17_15-45-55_260595134347_rgbf000129-resize_4/001175_2014-06-17_15-45-55_260595134347_rgbf000129-resize_4-target.png,125,4.255,14,5083,123,feet,jsons/VE125_randls_62_rotated.json,850607,1920147,51,Man
8,247969,DepthScenes,duration_manipulation_targetAtFixation,jsons/VE125_randls_62_rotated.json,http://54.235.29.9/FacialAge/BNav_EC2/DepthDuration/v2_depth_duration_MTurk/v2_DepthDuration_HTML.html#142,142,1280,800,1280,800,8-30-2022,11-3-1,9,depth_duration_stimuli/001450_2014-06-19_17-02-03_260595134347_rgbf000203-resize_4/001450_2014-06-19_17-02-03_260595134347_rgbf000203-resize_4-target.png,125,4.0106666666667,11,5674,126,feet,jsons/VE125_randls_62_rotated.json,850607,1920147,51,Man
9,247969,DepthScenes,duration_manipulation_targetAtFixation,jsons/VE125_randls_62_rotated.json,http://54.235.29.9/FacialAge/BNav_EC2/DepthDuration/v2_depth_duration_MTurk/v2_DepthDuration_HTML.html#142,142,1280,800,1280,800,8-30-2022,11-3-1,10,depth_duration_stimuli/001449_2014-06-19_17-01-27_260595134347_rgbf000116-resize_2/001449_2014-06-19_17-01-27_260595134347_rgbf000116-resize_2-target.png,125,3.452,9,4514,123,feet,jsons/VE125_randls_62_rotated.json,850607,1920147,51,Man
10,247969,DepthScenes,duration_manipulation_targetAtFixation,jsons/VE125_randls_62_rotated.json,http://54.235.29.9/FacialAge/BNav_EC2/DepthDuration/v2_depth_duration_MTurk/v2_DepthDuration_HTML.html#142,142,1280,800,1280,800,8-30-2022,11-3-1,11,depth_duration_stimuli/003083_2014-06-15_15-21-03_094959634447_rgbf000063-resize_1/003083_2014-06-15_15-21-03_094959634447_rgbf000063-resize_1-target.png,125,4.1405,11,5760,127,feet,jsons/VE125_randls_62_rotated.json,850607,1920147,51,Man
11,247969,DepthScenes,duration_manipulation_targetAtFixation,jsons/VE125_randls_62_rotated.json,http://54.235.29.9/FacialAge/BNav_EC2/DepthDuration/v2_depth_duration_MTurk/v2_DepthDuration_HTML.html#142,142,1280,800,1280,800,8-30-2022,11-3-1,12,depth_duration_stimuli/000486_2014-06-09_20-47-20_260595134347_rgbf000143-resize_2/000486_2014-06-09_20-47-20_260595134347_rgbf000143-resize_2-target.png,125,4.8325,13,5057,127,feet,jsons/VE125_randls_62_rotated.json,850607,1920147,51,Man
12,247969,DepthScenes,duration_manipulation_targetAtFixation,jsons/VE125_randls_62_rotated.json,http://54.235.29.9/FacialAge/BNav_EC2/DepthDuration/v2_depth_duration_MTurk/v2_DepthDuration_HTML.html#142,142,1280,800,1280,800,8-30-2022,11-3-1,13,depth_duration_stimuli/000556_2014-06-09_22-42-56_260595134347_rgbf000214-resize_1/000556_2014-06-09_22-42-56_260595134347_rgbf000214-resize_1-target.png,125,4.8415,14,4965,124,feet,jsons/VE125_randls_62_rotated.json,850607,1920147,51,Man
13,247969,DepthScenes,duration_manipulation_targetAtFixation,jsons/VE125_randls_62_rotated.json,http://54.235.29.9/FacialAge/BNav_EC2/DepthDuration/v2_depth_duration_MTurk/v2_DepthDuration_HTML.html#142,142,1280,800,1280,800,8-30-2022,11-3-1,14,depth_duration_stimuli/001158_2014-06-17_15-32-16_260595134347_rgbf000138-resize_2/001158_2014-06-17_15-32-16_260595134347_rgbf000138-resize_2-target.png,125,4.5315,12,3890,121,feet,jsons/VE125_randls_62_rotated.json,850607,1920147,51,Man
14,247969,DepthScenes,duration_manipulation_targetAtFixation,jsons/VE125_randls_62_rotated.json,http://54.235.29.9/FacialAge/BNav_EC2/DepthDuration/v2_depth_duration_MTurk/v2_DepthDuration_HTML.html#142,142,1280,800,1280,800,8-30-2022,11-3-1,15,depth_duration_stimuli/000457_2014-06-08_16-52-43_260595134347_rgbf000199-resize_1/000457_2014-06-08_16-52-43_260595134347_rgbf000199-resize_1-target.png,125,3.6489999999999996,11,6829,120,feet,jsons/VE125_randls_62_rotated.json,850607,1920147,51,Man
15,247969,DepthScenes,duration_manipulation_targetAtFixation,jsons/VE125_randls_62_rotated.json,http://54.235.29.9/FacialAge/BNav_EC2/DepthDuration/v2_depth_duration_MTurk/v2_DepthDuration_HTML.html#142,142,1280,800,1280,800,8-30-2022,11-3-1,16,depth_duration_stimuli/000929_2014-06-09_16-33-19_260595134347_rgbf000139-resize_0/000929_2014-06-09_16-33-19_260595134347_rgbf000139-resize_0-target.png,125,2.8680000000000003,10,4217,120,feet,jsons/VE125_randls_62_rotated.json,850607,1920147,51,Man
16,247969,DepthScenes,duration_manipulation_targetAtFixation,jsons/VE125_randls_62_rotated.json,http://54.235.29.9/FacialAge/BNav_EC2/DepthDuration/v2_depth_duration_MTurk/v2_DepthDuration_HTML.html#142,142,1280,800,1280,800,8-30-2022,11-3-1,17,depth_duration_stimuli/002340_2014-06-28_20-05-46_260595134347_rgbf000113-resize_0/002340_2014-06-28_20-05-46_260595134347_rgbf000113-resize_0-target.png,125,2.4735,15,5712,123,feet,jsons/VE125_randls_62_rotated.json,850607,1920147,51,Man
17,247969,DepthScenes,duration_manipulation_targetAtFixation,jsons/VE125_randls_62_rotated.json,http://54.235.29.9/FacialAge/BNav_EC2/DepthDuration/v2_depth_duration_MTurk/v2_DepthDuration_HTML.html#142,142,1280,800,1280,800,8-30-2022,11-3-1,18,depth_duration_stimuli/001016_2014-06-09_16-16-10_260595134347_rgbf000112-resize_5/001016_2014-06-09_16-16-10_260595134347_rgbf000112-resize_5-target.png,125,1.6565,6,3819,127,feet,jsons/VE125_randls_62_rotated.json,850607,1920147,51,Man
18,247969,DepthScenes,duration_manipulation_targetAtFixation,jsons/VE125_randls_62_rotated.json,http://54.235.29.9/FacialAge/BNav_EC2/DepthDuration/v2_depth_duration_MTurk/v2_DepthDuration_HTML.html#142,142,1280,800,1280,800,8-30-2022,11-3-1,19,depth_duration_stimuli/001498_2014-06-19_17-45-14_260595134347_rgbf000129-resize_4/001498_2014-06-19_17-45-14_260595134347_rgbf000129-resize-original.jpg,125,1.4075,0,5777,125,feet,jsons/VE125_randls_62_rotated.json,850607,1920147,51,Man
19,247969,DepthScenes,duration_manipulation_targetAtFixation,jsons/VE125_randls_62_rotated.json,http://54.235.29.9/FacialAge/BNav_EC2/DepthDuration/v2_depth_duration_MTurk/v2_DepthDuration_HTML.html#142,142,1280,800,1280,800,8-30-2022,11-3-1,20,depth_duration_stimuli/000854_2014-06-09_19-43-13_260595134347_rgbf000066-resize_0/000854_2014-06-09_19-43-13_260595134347_rgbf000066-resize_0-target.png,125,3.068,6,6455,124,feet,jsons/VE125_randls_62_rotated.json,850607,1920147,51,Man
20,247969,DepthScenes,duration_manipulation_targetAtFixation,jsons/VE125_randls_62_rotated.json,http://54.235.29.9/FacialAge/BNav_EC2/DepthDuration/v2_depth_duration_MTurk/v2_DepthDuration_HTML.html#142,142,1280,800,1280,800,8-30-2022,11-3-1,21,depth_duration_stimuli/000758_2014-06-08_22-05-08_260595134347_rgbf000085-resize_0/000758_2014-06-08_22-05-08_260595134347_rgbf000085-resize_0-target.png,125,3.3810000000000002,14,4737,126,feet,jsons/VE125_randls_62_rotated.json,850607,1920147,51,Man
21,247969,DepthScenes,duration_manipulation_targetAtFixation,jsons/VE125_randls_62_rotated.json,http://54.235.29.9/FacialAge/BNav_EC2/DepthDuration/v2_depth_duration_MTurk/v2_DepthDuration_HTML.html#142,142,1280,800,1280,800,8-30-2022,11-3-1,22,depth_duration_stimuli/001650_2014-06-20_12-09-00_260595134347_rgbf000087-resize_3/001650_2014-06-20_12-09-00_260595134347_rgbf000087-resize_3-target.png,125,1.9505,5,5643,124,feet,jsons/VE125_randls_62_rotated.json,850607,1920147,51,Man
22,247969,DepthScenes,duration_manipulation_targetAtFixation,jsons/VE125_randls_62_rotated.json,http://54.235.29.9/FacialAge/BNav_EC2/DepthDuration/v2_depth_duration_MTurk/v2_DepthDuration_HTML.html#142,142,1280,800,1280,800,8-30-2022,11-3-1,23,depth_duration_stimuli/000682_2014-06-08_23-14-58_260595134347_rgbf000041-resize_5/000682_2014-06-08_23-14-58_260595134347_rgbf000041-resize_5-target.png,125,2.7239999999999998,8,3963,122,feet,jsons/VE125_randls_62_rotated.json,850607,1920147,51,Man
23,247969,DepthScenes,duration_manipulation_targetAtFixation,jsons/VE125_randls_62_rotated.json,http://54.235.29.9/FacialAge/BNav_EC2/DepthDuration/v2_depth_duration_MTurk/v2_DepthDuration_HTML.html#142,142,1280,800,1280,800,8-30-2022,11-3-1,24,depth_duration_stimuli/001617_2014-06-20_11-35-32_260595134347_rgbf000066-resize_1/001617_2014-06-20_11-35-32_260595134347_rgbf000066-resize_1-target.png,125,3.7910000000000004,15,3655,122,feet,jsons/VE125_randls_62_rotated.json,850607,1920147,51,Man
24,247969,DepthScenes,duration_manipulation_targetAtFixation,jsons/VE125_randls_62_rotated.json,http://54.235.29.9/FacialAge/BNav_EC2/DepthDuration/v2_depth_duration_MTurk/v2_DepthDuration_HTML.html#142,142,1280,800,1280,800,8-30-2022,11-3-1,25,depth_duration_stimuli/001806_2014-06-26_20-50-20_260595134347_rgbf000091-resize_1/001806_2014-06-26_20-50-20_260595134347_rgbf000091-resize_1-target.png,125,2.7305,6,3659,120,feet,jsons/VE125_randls_62_rotated.json,850607,1920147,51,Man
25,247969,DepthScenes,duration_manipulation_targetAtFixation,jsons/VE125_randls_62_rotated.json,http://54.235.29.9/FacialAge/BNav_EC2/DepthDuration/v2_depth_duration_MTurk/v2_DepthDuration_HTML.html#142,142,1280,800,1280,800,8-30-2022,11-3-1,26,depth_duration_stimuli/001815_2014-06-26_20-52-55_260595134347_rgbf000020-resize_0/001815_2014-06-26_20-52-55_260595134347_rgbf000020-resize_0-target.png,125,3.3865,15,3933,126,feet,jsons/VE125_randls_62_rotated.json,850607,1920147,51,Man
26,247969,DepthScenes,duration_manipulation_targetAtFixation,jsons/VE125_randls_62_rotated.json,http://54.235.29.9/FacialAge/BNav_EC2/DepthDuration/v2_depth_duration_MTurk/v2_DepthDuration_HTML.html#142,142,1280,800,1280,800,8-30-2022,11-3-1,27,depth_duration_stimuli/001808_2014-06-26_20-50-58_260595134347_rgbf000029-resize_1/001808_2014-06-26_20-50-58_260595134347_rgbf000029-resize_1-target.png,125,4.249,15,4029,126,feet,jsons/VE125_randls_62_rotated.json,850607,1920147,51,Man
27,247969,DepthScenes,duration_manipulation_targetAtFixation,jsons/VE125_randls_62_rotated.json,http://54.235.29.9/FacialAge/BNav_EC2/DepthDuration/v2_depth_duration_MTurk/v2_DepthDuration_HTML.html#142,142,1280,800,1280,800,8-30-2022,11-3-1,28,depth_duration_stimuli/002444_2014-06-28_20-32-08_260595134347_rgbf000027-resize_0/002444_2014-06-28_20-32-08_260595134347_rgbf000027-resize_0-target.png,125,4.388999999999999,14,4696,127,feet,jsons/VE125_randls_62_rotated.json,850607,1920147,51,Man
28,247969,DepthScenes,duration_manipulation_targetAtFixation,jsons/VE125_randls_62_rotated.json,http://54.235.29.9/FacialAge/BNav_EC2/DepthDuration/v2_depth_duration_MTurk/v2_DepthDuration_HTML.html#142,142,1280,800,1280,800,8-30-2022,11-3-1,29,depth_duration_stimuli/000436_2014-06-09_22-25-11_260595134347_rgbf000137-resize_1/000436_2014-06-09_22-25-11_260595134347_rgbf000137-resize_1-target.png,125,4.0705,15,4236,127,feet,jsons/VE125_randls_62_rotated.json,850607,1920147,51,Man
29,247969,DepthScenes,duration_manipulation_targetAtFixation,jsons/VE125_randls_62_rotated.json,http://54.235.29.9/FacialAge/BNav_EC2/DepthDuration/v2_depth_duration_MTurk/v2_DepthDuration_HTML.html#142,142,1280,800,1280,800,8-30-2022,11-3-1,30,depth_duration_stimuli/002072_2014-06-24_21-48-06_260595134347_rgbf000115-resize_0/002072_2014-06-24_21-48-06_260595134347_rgbf000115-resize-original.jpg,125,4.702,0,3657,124,feet,jsons/VE125_randls_62_rotated.json,850607,1920147,51,Man
30,247969,DepthScenes,duration_manipulation_targetAtFixation,jsons/VE125_randls_62_rotated.json,http://54.235.29.9/FacialAge/BNav_EC2/DepthDuration/v2_depth_duration_MTurk/v2_DepthDuration_HTML.html#142,142,1280,800,1280,800,8-30-2022,11-3-1,31,depth_duration_stimuli/000665_2014-06-09_20-42-35_260595134347_rgbf000110-resize_1/000665_2014-06-09_20-42-35_260595134347_rgbf000110-resize_1-target.png,125,3.057,12,4057,119,feet,jsons/VE125_randls_62_rotated.json,850607,1920147,51,Man
31,247969,DepthScenes,duration_manipulation_targetAtFixation,jsons/VE125_randls_62_rotated.json,http://54.235.29.9/FacialAge/BNav_EC2/DepthDuration/v2_depth_duration_MTurk/v2_DepthDuration_HTML.html#142,142,1280,800,1280,800,8-30-2022,11-3-1,32,depth_duration_stimuli/001150_2014-06-17_15-27-34_260595134347_rgbf000108-resize_2/001150_2014-06-17_15-27-34_260595134347_rgbf000108-resize_2-target.png,125,4.0325,15,6270,120,feet,jsons/VE125_randls_62_rotated.json,850607,1920147,51,Man
32,247969,DepthScenes,duration_manipulation_targetAtFixation,jsons/VE125_randls_62_rotated.json,http://54.235.29.9/FacialAge/BNav_EC2/DepthDuration/v2_depth_duration_MTurk/v2_DepthDuration_HTML.html#142,142,1280,800,1280,800,8-30-2022,11-3-1,33,depth_duration_stimuli/000691_2014-06-08_13-08-50_260595134347_rgbf000132-resize_3/000691_2014-06-08_13-08-50_260595134347_rgbf000132-resize_3-target.png,125,4.1530000000000005,11,4312,125,feet,jsons/VE125_randls_62_rotated.json,850607,1920147,51,Man
33,247969,DepthScenes,duration_manipulation_targetAtFixation,jsons/VE125_randls_62_rotated.json,http://54.235.29.9/FacialAge/BNav_EC2/DepthDuration/v2_depth_duration_MTurk/v2_DepthDuration_HTML.html#142,142,1280,800,1280,800,8-30-2022,11-3-1,34,depth_duration_stimuli/002213_2014-06-28_18-37-58_260595134347_rgbf000055-resize_1/002213_2014-06-28_18-37-58_260595134347_rgbf000055-resize_1-target.png,125,3.62,16,4539,126,feet,jsons/VE125_randls_62_rotated.json,850607,1920147,51,Man
34,247969,DepthScenes,duration_manipulation_targetAtFixation,jsons/VE125_randls_62_rotated.json,http://54.235.29.9/FacialAge/BNav_EC2/DepthDuration/v2_depth_duration_MTurk/v2_DepthDuration_HTML.html#142,142,1280,800,1280,800,8-30-2022,11-3-1,35,depth_duration_stimuli/000409_2014-06-04_19-23-33_260595134347_rgbf000067-resize_0/000409_2014-06-04_19-23-33_260595134347_rgbf000067-resize_0-target.png,125,3.7335,12,5994,124,feet,jsons/VE125_randls_62_rotated.json,850607,1920147,51,Man
35,247969,DepthScenes,duration_manipulation_targetAtFixation,jsons/VE125_randls_62_rotated.json,http://54.235.29.9/FacialAge/BNav_EC2/DepthDuration/v2_depth_duration_MTurk/v2_DepthDuration_HTML.html#142,142,1280,800,1280,800,8-30-2022,11-3-1,36,depth_duration_stimuli/002663_2014-06-13_15-50-26_094959634447_rgbf000075-resize_1/002663_2014-06-13_15-50-26_094959634447_rgbf000075-resize_1-target.png,125,4.7495,16,4269,123,feet,jsons/VE125_randls_62_rotated.json,850607,1920147,51,Man
36,247969,DepthScenes,duration_manipulation_targetAtFixation,jsons/VE125_randls_62_rotated.json,http://54.235.29.9/FacialAge/BNav_EC2/DepthDuration/v2_depth_duration_MTurk/v2_DepthDuration_HTML.html#142,142,1280,800,1280,800,8-30-2022,11-3-1,37,depth_duration_stimuli/002660_2014-06-13_15-44-18_094959634447_rgbf001878-resize_2/002660_2014-06-13_15-44-18_094959634447_rgbf001878-resize_2-target.png,125,3.576,11,5599,128,feet,jsons/VE125_randls_62_rotated.json,850607,1920147,51,Man
37,247969,DepthScenes,duration_manipulation_targetAtFixation,jsons/VE125_randls_62_rotated.json,http://54.235.29.9/FacialAge/BNav_EC2/DepthDuration/v2_depth_duration_MTurk/v2_DepthDuration_HTML.html#142,142,1280,800,1280,800,8-30-2022,11-3-1,38,depth_duration_stimuli/002153_2014-06-25_21-27-18_260595134347_rgbf000038-resize_5/002153_2014-06-25_21-27-18_260595134347_rgbf000038-resize_5-target.png,125,2.505,9,3708,126,feet,jsons/VE125_randls_62_rotated.json,850607,1920147,51,Man
38,247969,DepthScenes,duration_manipulation_targetAtFixation,jsons/VE125_randls_62_rotated.json,http://54.235.29.9/FacialAge/BNav_EC2/DepthDuration/v2_depth_duration_MTurk/v2_DepthDuration_HTML.html#142,142,1280,800,1280,800,8-30-2022,11-3-1,39,depth_duration_stimuli/002875_2014-06-01_15-19-00_094959634447_rgbf000151-resize_1/002875_2014-06-01_15-19-00_094959634447_rgbf000151-resize_1-target.png,125,1.9675,8,7125,128,feet,jsons/VE125_randls_62_rotated.json,850607,1920147,51,Man
39,247969,DepthScenes,duration_manipulation_targetAtFixation,jsons/VE125_randls_62_rotated.json,http://54.235.29.9/FacialAge/BNav_EC2/DepthDuration/v2_depth_duration_MTurk/v2_DepthDuration_HTML.html#142,142,1280,800,1280,800,8-30-2022,11-3-1,40,depth_duration_stimuli/001011_2014-06-08_23-18-54_260595134347_rgbf000044-resize_4/001011_2014-06-08_23-18-54_260595134347_rgbf000044-resize_4-target.png,125,2.4730000000000003,10,5327,120,feet,jsons/VE125_randls_62_rotated.json,850607,1920147,51,Man
40,247969,DepthScenes,duration_manipulation_targetAtFixation,jsons/VE125_randls_62_rotated.json,http://54.235.29.9/FacialAge/BNav_EC2/DepthDuration/v2_depth_duration_MTurk/v2_DepthDuration_HTML.html#142,142,1280,800,1280,800,8-30-2022,11-3-1,41,depth_duration_stimuli/002657_2014-06-13_15-29-54_094959634447_rgbf000150-resize_1/002657_2014-06-13_15-29-54_094959634447_rgbf000150-resize_1-target.png,125,4.919,12,4099,119,feet,jsons/VE125_randls_62_rotated.json,850607,1920147,51,Man
41,247969,DepthScenes,duration_manipulation_targetAtFixation,jsons/VE125_randls_62_rotated.json,http://54.235.29.9/FacialAge/BNav_EC2/DepthDuration/v2_depth_duration_MTurk/v2_DepthDuration_HTML.html#142,142,1280,800,1280,800,8-30-2022,11-3-1,42,depth_duration_stimuli/002375_2014-06-28_20-13-44_260595134347_rgbf000032-resize_1/002375_2014-06-28_20-13-44_260595134347_rgbf000032-resize_1-target.png,125,4.0175,9,4107,123,feet,jsons/VE125_randls_62_rotated.json,850607,1920147,51,Man
42,247969,DepthScenes,duration_manipulation_targetAtFixation,jsons/VE125_randls_62_rotated.json,http://54.235.29.9/FacialAge/BNav_EC2/DepthDuration/v2_depth_duration_MTurk/v2_DepthDuration_HTML.html#142,142,1280,800,1280,800,8-30-2022,11-3-1,43,depth_duration_stimuli/002425_2014-06-28_20-27-29_260595134347_rgbf000031-resize_8/002425_2014-06-28_20-27-29_260595134347_rgbf000031-resize_8-target.png,125,3.8960000000000004,15,7909,125,feet,jsons/VE125_randls_62_rotated.json,850607,1920147,51,Man
43,247969,DepthScenes,duration_manipulation_targetAtFixation,jsons/VE125_randls_62_rotated.json,http://54.235.29.9/FacialAge/BNav_EC2/DepthDuration/v2_depth_duration_MTurk/v2_DepthDuration_HTML.html#142,142,1280,800,1280,800,8-30-2022,11-3-1,44,depth_duration_stimuli/000642_2014-06-08_16-59-25_260595134347_rgbf000098-resize_2/000642_2014-06-08_16-59-25_260595134347_rgbf000098-resize_2-target.png,125,2.8815,12,8867,122,feet,jsons/VE125_randls_62_rotated.json,850607,1920147,51,Man
44,247969,DepthScenes,duration_manipulation_targetAtFixation,jsons/VE125_randls_62_rotated.json,http://54.235.29.9/FacialAge/BNav_EC2/DepthDuration/v2_depth_duration_MTurk/v2_DepthDuration_HTML.html#142,142,1280,800,1280,800,8-30-2022,11-3-1,45,depth_duration_stimuli/002805_2014-06-22_19-54-03_094959634447_rgbf000079-resize_1/002805_2014-06-22_19-54-03_094959634447_rgbf000079-resize_1-target.png,125,3.1439999999999997,14,4362,127,feet,jsons/VE125_randls_62_rotated.json,850607,1920147,51,Man
45,247969,DepthScenes,duration_manipulation_targetAtFixation,jsons/VE125_randls_62_rotated.json,http://54.235.29.9/FacialAge/BNav_EC2/DepthDuration/v2_depth_duration_MTurk/v2_DepthDuration_HTML.html#142,142,1280,800,1280,800,8-30-2022,11-3-1,46,depth_duration_stimuli/000906_2014-06-08_13-35-43_260595134347_rgbf000155-resize_1/000906_2014-06-08_13-35-43_260595134347_rgbf000155-resize_1-target.png,125,2.8489999999999998,15,4449,123,feet,jsons/VE125_randls_62_rotated.json,850607,1920147,51,Man
46,247969,DepthScenes,duration_manipulation_targetAtFixation,jsons/VE125_randls_62_rotated.json,http://54.235.29.9/FacialAge/BNav_EC2/DepthDuration/v2_depth_duration_MTurk/v2_DepthDuration_HTML.html#142,142,1280,800,1280,800,8-30-2022,11-3-1,47,depth_duration_stimuli/003495_2014-05-21_16-01-51_094959634447_rgbf000100-resize_3/003495_2014-05-21_16-01-51_094959634447_rgbf000100-resize_3-target.png,125,1.6255,9,3580,126,feet,jsons/VE125_randls_62_rotated.json,850607,1920147,51,Man
47,247969,DepthScenes,duration_manipulation_targetAtFixation,jsons/VE125_randls_62_rotated.json,http://54.235.29.9/FacialAge/BNav_EC2/DepthDuration/v2_depth_duration_MTurk/v2_DepthDuration_HTML.html#142,142,1280,800,1280,800,8-30-2022,11-3-1,48,depth_duration_stimuli/001244_2014-06-17_16-47-45_260595134347_rgbf000030-resize_4/001244_2014-06-17_16-47-45_260595134347_rgbf000030-resize_4-target.png,125,2.0425,8,3957,124,feet,jsons/VE125_randls_62_rotated.json,850607,1920147,51,Man
48,247969,DepthScenes,duration_manipulation_targetAtFixation,jsons/VE125_randls_62_rotated.json,http://54.235.29.9/FacialAge/BNav_EC2/DepthDuration/v2_depth_duration_MTurk/v2_DepthDuration_HTML.html#142,142,1280,800,1280,800,8-30-2022,11-3-1,49,depth_duration_stimuli/001170_2014-06-17_15-43-44_260595134347_rgbf000096-resize_6/001170_2014-06-17_15-43-44_260595134347_rgbf000096-resize-original.jpg,125,1.1909999999999998,0,5827,126,feet,jsons/VE125_randls_62_rotated.json,850607,1920147,51,Man
49,247969,DepthScenes,duration_manipulation_targetAtFixation,jsons/VE125_randls_62_rotated.json,http://54.235.29.9/FacialAge/BNav_EC2/DepthDuration/v2_depth_duration_MTurk/v2_DepthDuration_HTML.html#142,142,1280,800,1280,800,8-30-2022,11-3-1,50,depth_duration_stimuli/003228_2014-05-14_13-42-35_094959634447_rgbf000101-resize_1/003228_2014-05-14_13-42-35_094959634447_rgbf000101-resize_1-target.png,125,1.9680000000000002,8,4418,123,feet,jsons/VE125_randls_62_rotated.json,850607,1920147,51,Man
50,247969,DepthScenes,duration_manipulation_targetAtFixation,jsons/VE125_randls_62_rotated.json,http://54.235.29.9/FacialAge/BNav_EC2/DepthDuration/v2_depth_duration_MTurk/v2_DepthDuration_HTML.html#142,142,1280,800,1280,800,8-30-2022,11-3-1,51,depth_duration_stimuli/002600_2014-06-24_14-27-04_094959634447_rgbf000074-resize_2/002600_2014-06-24_14-27-04_094959634447_rgbf000074-resize_2-target.png,125,2.7575,10,3986,125,feet,jsons/VE125_randls_62_rotated.json,850607,1920147,51,Man
51,247969,DepthScenes,duration_manipulation_targetAtFixation,jsons/VE125_randls_62_rotated.json,http://54.235.29.9/FacialAge/BNav_EC2/DepthDuration/v2_depth_duration_MTurk/v2_DepthDuration_HTML.html#142,142,1280,800,1280,800,8-30-2022,11-3-1,52,depth_duration_stimuli/000866_2014-06-09_20-45-42_260595134347_rgbf000139-resize_1/000866_2014-06-09_20-45-42_260595134347_rgbf000139-resize_1-target.png,125,3.2155,11,3633,127,feet,jsons/VE125_randls_62_rotated.json,850607,1920147,51,Man
52,247969,DepthScenes,duration_manipulation_targetAtFixation,jsons/VE125_randls_62_rotated.json,http://54.235.29.9/FacialAge/BNav_EC2/DepthDuration/v2_depth_duration_MTurk/v2_DepthDuration_HTML.html#142,142,1280,800,1280,800,8-30-2022,11-3-1,53,depth_duration_stimuli/002989_2014-06-15_12-25-03_094959634447_rgbf000150-resize_3/002989_2014-06-15_12-25-03_094959634447_rgbf000150-resize_3-target.png,125,4.1975,16,3866,122,feet,jsons/VE125_randls_62_rotated.json,850607,1920147,51,Man
53,247969,DepthScenes,duration_manipulation_targetAtFixation,jsons/VE125_randls_62_rotated.json,http://54.235.29.9/FacialAge/BNav_EC2/DepthDuration/v2_depth_duration_MTurk/v2_DepthDuration_HTML.html#142,142,1280,800,1280,800,8-30-2022,11-3-1,54,depth_duration_stimuli/001571_2014-06-20_17-21-32_260595134347_rgbf000089-resize_1/001571_2014-06-20_17-21-32_260595134347_rgbf000089-resize_1-target.png,125,1.86,9,3025,126,feet,jsons/VE125_randls_62_rotated.json,850607,1920147,51,Man
54,247969,DepthScenes,duration_manipulation_targetAtFixation,jsons/VE125_randls_62_rotated.json,http://54.235.29.9/FacialAge/BNav_EC2/DepthDuration/v2_depth_duration_MTurk/v2_DepthDuration_HTML.html#142,142,1280,800,1280,800,8-30-2022,11-3-1,55,depth_duration_stimuli/002272_2014-06-28_18-53-56_260595134347_rgbf000067-resize_2/002272_2014-06-28_18-53-56_260595134347_rgbf000067-resize_2-target.png,125,1.138,7,4175,124,feet,jsons/VE125_randls_62_rotated.json,850607,1920147,51,Man
55,247969,DepthScenes,duration_manipulation_targetAtFixation,jsons/VE125_randls_62_rotated.json,http://54.235.29.9/FacialAge/BNav_EC2/DepthDuration/v2_depth_duration_MTurk/v2_DepthDuration_HTML.html#142,142,1280,800,1280,800,8-30-2022,11-3-1,56,depth_duration_stimuli/000677_2014-06-08_23-10-32_260595134347_rgbf000158-resize_6/000677_2014-06-08_23-10-32_260595134347_rgbf000158-resize_6-target.png,125,3.556,11,3300,121,feet,jsons/VE125_randls_62_rotated.json,850607,1920147,51,Man
56,247969,DepthScenes,duration_manipulation_targetAtFixation,jsons/VE125_randls_62_rotated.json,http://54.235.29.9/FacialAge/BNav_EC2/DepthDuration/v2_depth_duration_MTurk/v2_DepthDuration_HTML.html#142,142,1280,800,1280,800,8-30-2022,11-3-1,57,depth_duration_stimuli/001029_2014-06-08_13-17-57_260595134347_rgbf000065-resize_1/001029_2014-06-08_13-17-57_260595134347_rgbf000065-resize_1-target.png,125,3.0835,12,15840,127,feet,jsons/VE125_randls_62_rotated.json,850607,1920147,51,Man
57,247969,DepthScenes,duration_manipulation_targetAtFixation,jsons/VE125_randls_62_rotated.json,http://54.235.29.9/FacialAge/BNav_EC2/DepthDuration/v2_depth_duration_MTurk/v2_DepthDuration_HTML.html#142,142,1280,800,1280,800,8-30-2022,11-3-1,58,depth_duration_stimuli/002199_2014-06-28_18-33-56_260595134347_rgbf000074-resize_0/002199_2014-06-28_18-33-56_260595134347_rgbf000074-resize_0-target.png,125,1.996,7,4489,127,feet,jsons/VE125_randls_62_rotated.json,850607,1920147,51,Man
58,247969,DepthScenes,duration_manipulation_targetAtFixation,jsons/VE125_randls_62_rotated.json,http://54.235.29.9/FacialAge/BNav_EC2/DepthDuration/v2_depth_duration_MTurk/v2_DepthDuration_HTML.html#142,142,1280,800,1280,800,8-30-2022,11-3-1,59,depth_duration_stimuli/001056_2014-06-08_18-46-44_260595134347_rgbf000068-resize_0/001056_2014-06-08_18-46-44_260595134347_rgbf000068-resize_0-target.png,125,2.6625,14,3918,123,feet,jsons/VE125_randls_62_rotated.json,850607,1920147,51,Man
59,247969,DepthScenes,duration_manipulation_targetAtFixation,jsons/VE125_randls_62_rotated.json,http://54.235.29.9/FacialAge/BNav_EC2/DepthDuration/v2_depth_duration_MTurk/v2_DepthDuration_HTML.html#142,142,1280,800,1280,800,8-30-2022,11-3-1,60,depth_duration_stimuli/002995_2014-06-15_12-31-26_094959634447_rgbf000150-resize_1/002995_2014-06-15_12-31-26_094959634447_rgbf000150-resize_1-target.png,125,3.8360000000000003,16,3860,119,feet,jsons/VE125_randls_62_rotated.json,850607,1920147,51,Man
60,247969,DepthScenes,duration_manipulation_targetAtFixation,jsons/VE125_randls_62_rotated.json,http://54.235.29.9/FacialAge/BNav_EC2/DepthDuration/v2_depth_duration_MTurk/v2_DepthDuration_HTML.html#142,142,1280,800,1280,800,8-30-2022,11-3-1,61,depth_duration_stimuli/002748_2014-06-22_19-07-22_094959634447_rgbf000078-resize_1/002748_2014-06-22_19-07-22_094959634447_rgbf000078-resize_1-target.png,125,4.6705,17,4058,123,feet,jsons/VE125_randls_62_rotated.json,850607,1920147,51,Man
61,247969,DepthScenes,duration_manipulation_targetAtFixation,jsons/VE125_randls_62_rotated.json,http://54.235.29.9/FacialAge/BNav_EC2/DepthDuration/v2_depth_duration_MTurk/v2_DepthDuration_HTML.html#142,142,1280,800,1280,800,8-30-2022,11-3-1,62,depth_duration_stimuli/002637_2014-06-24_14-51-13_094959634447_rgbf000066-resize_4/002637_2014-06-24_14-51-13_094959634447_rgbf000066-resize_4-target.png,125,1.9955,11,3115,127,feet,jsons/VE125_randls_62_rotated.json,850607,1920147,51,Man
62,247969,DepthScenes,duration_manipulation_targetAtFixation,jsons/VE125_randls_62_rotated.json,http://54.235.29.9/FacialAge/BNav_EC2/DepthDuration/v2_depth_duration_MTurk/v2_DepthDuration_HTML.html#142,142,1280,800,1280,800,8-30-2022,11-3-1,63,depth_duration_stimuli/003534_2014-05-22_15-06-10_094959634447_rgbf000102-resize_4/003534_2014-05-22_15-06-10_094959634447_rgbf000102-resize_4-target.png,125,1.426,7,3373,124,feet,jsons/VE125_randls_62_rotated.json,850607,1920147,51,Man
63,247969,DepthScenes,duration_manipulation_targetAtFixation,jsons/VE125_randls_62_rotated.json,http://54.235.29.9/FacialAge/BNav_EC2/DepthDuration/v2_depth_duration_MTurk/v2_DepthDuration_HTML.html#142,142,1280,800,1280,800,8-30-2022,11-3-1,64,depth_duration_stimuli/002414_2014-06-28_20-24-58_260595134347_rgbf000067-resize_4/002414_2014-06-28_20-24-58_260595134347_rgbf000067-resize_4-target.png,125,4.363,15,3757,125,feet,jsons/VE125_randls_62_rotated.json,850607,1920147,51,Man
64,247969,DepthScenes,duration_manipulation_targetAtFixation,jsons/VE125_randls_62_rotated.json,http://54.235.29.9/FacialAge/BNav_EC2/DepthDuration/v2_depth_duration_MTurk/v2_DepthDuration_HTML.html#142,142,1280,800,1280,800,8-30-2022,11-3-1,65,depth_duration_stimuli/000773_2014-06-08_22-24-54_260595134347_rgbf000093-resize_1/000773_2014-06-08_22-24-54_260595134347_rgbf000093-resize_1-target.png,125,4.973,16,3503,122,feet,jsons/VE125_randls_62_rotated.json,850607,1920147,51,Man
65,247969,DepthScenes,duration_manipulation_targetAtFixation,jsons/VE125_randls_62_rotated.json,http://54.235.29.9/FacialAge/BNav_EC2/DepthDuration/v2_depth_duration_MTurk/v2_DepthDuration_HTML.html#142,142,1280,800,1280,800,8-30-2022,11-3-1,66,depth_duration_stimuli/001540_2014-06-20_17-01-05_260595134347_rgbf000086-resize_2/001540_2014-06-20_17-01-05_260595134347_rgbf000086-resize-original.jpg,125,1.459,0,3231,122,feet,jsons/VE125_randls_62_rotated.json,850607,1920147,51,Man
66,247969,DepthScenes,duration_manipulation_targetAtFixation,jsons/VE125_randls_62_rotated.json,http://54.235.29.9/FacialAge/BNav_EC2/DepthDuration/v2_depth_duration_MTurk/v2_DepthDuration_HTML.html#142,142,1280,800,1280,800,8-30-2022,11-3-1,67,depth_duration_stimuli/000549_2014-06-08_22-10-24_260595134347_rgbf000247-resize_3/000549_2014-06-08_22-10-24_260595134347_rgbf000247-resize_3-target.png,125,1.841,7,5236,125,feet,jsons/VE125_randls_62_rotated.json,850607,1920147,51,Man
67,247969,DepthScenes,duration_manipulation_targetAtFixation,jsons/VE125_randls_62_rotated.json,http://54.235.29.9/FacialAge/BNav_EC2/DepthDuration/v2_depth_duration_MTurk/v2_DepthDuration_HTML.html#142,142,1280,800,1280,800,8-30-2022,11-3-1,68,depth_duration_stimuli/001055_2014-06-08_18-45-35_260595134347_rgbf000111-resize_4/001055_2014-06-08_18-45-35_260595134347_rgbf000111-resize_4-target.png,125,2.4290000000000003,14,3738,124,feet,jsons/VE125_randls_62_rotated.json,850607,1920147,51,Man
68,247969,DepthScenes,duration_manipulation_targetAtFixation,jsons/VE125_randls_62_rotated.json,http://54.235.29.9/FacialAge/BNav_EC2/DepthDuration/v2_depth_duration_MTurk/v2_DepthDuration_HTML.html#142,142,1280,800,1280,800,8-30-2022,11-3-1,69,depth_duration_stimuli/000927_2014-06-09_16-32-30_260595134347_rgbf000123-resize_3/000927_2014-06-09_16-32-30_260595134347_rgbf000123-resize_3-target.png,125,2.6785,12,3907,123,feet,jsons/VE125_randls_62_rotated.json,850607,1920147,51,Man
69,247969,DepthScenes,duration_manipulation_targetAtFixation,jsons/VE125_randls_62_rotated.json,http://54.235.29.9/FacialAge/BNav_EC2/DepthDuration/v2_depth_duration_MTurk/v2_DepthDuration_HTML.html#142,142,1280,800,1280,800,8-30-2022,11-3-1,70,depth_duration_stimuli/001110_2014-06-15_17-25-28_260595134347_rgbf000150-resize_1/001110_2014-06-15_17-25-28_260595134347_rgbf000150-resize_1-target.png,125,1.7115,11,6488,124,feet,jsons/VE125_randls_62_rotated.json,850607,1920147,51,Man
70,247969,DepthScenes,duration_manipulation_targetAtFixation,jsons/VE125_randls_62_rotated.json,http://54.235.29.9/FacialAge/BNav_EC2/DepthDuration/v2_depth_duration_MTurk/v2_DepthDuration_HTML.html#142,142,1280,800,1280,800,8-30-2022,11-3-1,71,depth_duration_stimuli/000483_2014-06-09_20-41-45_260595134347_rgbf000116-resize_4/000483_2014-06-09_20-41-45_260595134347_rgbf000116-resize_4-target.png,125,1.337,7,5126,126,feet,jsons/VE125_randls_62_rotated.json,850607,1920147,51,Man
71,247969,DepthScenes,duration_manipulation_targetAtFixation,jsons/VE125_randls_62_rotated.json,http://54.235.29.9/FacialAge/BNav_EC2/DepthDuration/v2_depth_duration_MTurk/v2_DepthDuration_HTML.html#142,142,1280,800,1280,800,8-30-2022,11-3-1,72,depth_duration_stimuli/000469_2014-06-09_19-42-10_260595134347_rgbf000081-resize_1/000469_2014-06-09_19-42-10_260595134347_rgbf000081-resize_1-target.png,125,1.652,7,4957,122,feet,jsons/VE125_randls_62_rotated.json,850607,1920147,51,Man
72,247969,DepthScenes,duration_manipulation_targetAtFixation,jsons/VE125_randls_62_rotated.json,http://54.235.29.9/FacialAge/BNav_EC2/DepthDuration/v2_depth_duration_MTurk/v2_DepthDuration_HTML.html#142,142,1280,800,1280,800,8-30-2022,11-3-1,73,depth_duration_stimuli/000749_2014-06-08_21-55-06_260595134347_rgbf000070-resize_2/000749_2014-06-08_21-55-06_260595134347_rgbf000070-resize_2-target.png,125,2.331,7,4227,123,feet,jsons/VE125_randls_62_rotated.json,850607,1920147,51,Man
73,247969,DepthScenes,duration_manipulation_targetAtFixation,jsons/VE125_randls_62_rotated.json,http://54.235.29.9/FacialAge/BNav_EC2/DepthDuration/v2_depth_duration_MTurk/v2_DepthDuration_HTML.html#142,142,1280,800,1280,800,8-30-2022,11-3-1,74,depth_duration_stimuli/002788_2014-06-22_19-36-03_094959634447_rgbf000088-resize_2/002788_2014-06-22_19-36-03_094959634447_rgbf000088-resize_2-target.png,125,1.6465,10,7349,127,feet,jsons/VE125_randls_62_rotated.json,850607,1920147,51,Man
74,247969,DepthScenes,duration_manipulation_targetAtFixation,jsons/VE125_randls_62_rotated.json,http://54.235.29.9/FacialAge/BNav_EC2/DepthDuration/v2_depth_duration_MTurk/v2_DepthDuration_HTML.html#142,142,1280,800,1280,800,8-30-2022,11-3-1,75,depth_duration_stimuli/001584_2014-06-20_11-07-43_260595134347_rgbf000002-resize_1/001584_2014-06-20_11-07-43_260595134347_rgbf000002-resize_1-target.png,125,3.53,12,13465,120,feet,jsons/VE125_randls_62_rotated.json,850607,1920147,51,Man
75,247969,DepthScenes,duration_manipulation_targetAtFixation,jsons/VE125_randls_62_rotated.json,http://54.235.29.9/FacialAge/BNav_EC2/DepthDuration/v2_depth_duration_MTurk/v2_DepthDuration_HTML.html#142,142,1280,800,1280,800,8-30-2022,11-3-1,76,depth_duration_stimuli/003621_2014-05-23_18-06-08_094959634447_rgbf000101-resize_1/003621_2014-05-23_18-06-08_094959634447_rgbf000101-resize_1-target.png,125,3.9835,16,4880,125,feet,jsons/VE125_randls_62_rotated.json,850607,1920147,51,Man
76,247969,DepthScenes,duration_manipulation_targetAtFixation,jsons/VE125_randls_62_rotated.json,http://54.235.29.9/FacialAge/BNav_EC2/DepthDuration/v2_depth_duration_MTurk/v2_DepthDuration_HTML.html#142,142,1280,800,1280,800,8-30-2022,11-3-1,77,depth_duration_stimuli/000109_2014-05-14_23-41-52_260595134347_rgbf000035-resize_9/000109_2014-05-14_23-41-52_260595134347_rgbf000035-resize_9-target.png,125,1.3545,6,2938,123,feet,jsons/VE125_randls_62_rotated.json,850607,1920147,51,Man
77,247969,DepthScenes,duration_manipulation_targetAtFixation,jsons/VE125_randls_62_rotated.json,http://54.235.29.9/FacialAge/BNav_EC2/DepthDuration/v2_depth_duration_MTurk/v2_DepthDuration_HTML.html#142,142,1280,800,1280,800,8-30-2022,11-3-1,78,depth_duration_stimuli/000470_2014-06-09_19-42-40_260595134347_rgbf000094-resize_1/000470_2014-06-09_19-42-40_260595134347_rgbf000094-resize_1-target.png,125,1.831,8,2881,127,feet,jsons/VE125_randls_62_rotated.json,850607,1920147,51,Man
78,247969,DepthScenes,duration_manipulation_targetAtFixation,jsons/VE125_randls_62_rotated.json,http://54.235.29.9/FacialAge/BNav_EC2/DepthDuration/v2_depth_duration_MTurk/v2_DepthDuration_HTML.html#142,142,1280,800,1280,800,8-30-2022,11-3-1,79,depth_duration_stimuli/003587_2014-05-23_16-48-02_094959634447_rgbf002384-resize_2/003587_2014-05-23_16-48-02_094959634447_rgbf002384-resize_2-target.png,125,1.357,7,3103,122,feet,jsons/VE125_randls_62_rotated.json,850607,1920147,51,Man
79,247969,DepthScenes,duration_manipulation_targetAtFixation,jsons/VE125_randls_62_rotated.json,http://54.235.29.9/FacialAge/BNav_EC2/DepthDuration/v2_depth_duration_MTurk/v2_DepthDuration_HTML.html#142,142,1280,800,1280,800,8-30-2022,11-3-1,80,depth_duration_stimuli/001167_2014-06-17_15-38-07_260595134347_rgbf000108-resize_0/001167_2014-06-17_15-38-07_260595134347_rgbf000108-resize_0-target.png,125,1.8505,7,3571,125,feet,jsons/VE125_randls_62_rotated.json,850607,1920147,51,Man
80,247969,DepthScenes,duration_manipulation_targetAtFixation,jsons/VE125_randls_62_rotated.json,http://54.235.29.9/FacialAge/BNav_EC2/DepthDuration/v2_depth_duration_MTurk/v2_DepthDuration_HTML.html#142,142,1280,800,1280,800,8-30-2022,11-3-1,81,depth_duration_stimuli/002639_2014-06-24_14-51-37_094959634447_rgbf000074-resize_4/002639_2014-06-24_14-51-37_094959634447_rgbf000074-resize_4-target.png,125,4.0375,14,4645,129,feet,jsons/VE125_randls_62_rotated.json,850607,1920147,51,Man
81,247969,DepthScenes,duration_manipulation_targetAtFixation,jsons/VE125_randls_62_rotated.json,http://54.235.29.9/FacialAge/BNav_EC2/DepthDuration/v2_depth_duration_MTurk/v2_DepthDuration_HTML.html#142,142,1280,800,1280,800,8-30-2022,11-3-1,82,depth_duration_stimuli/003292_2014-05-14_21-53-49_094959634447_rgbf000100-resize_2/003292_2014-05-14_21-53-49_094959634447_rgbf000100-resize_2-target.png,125,3.4815,14,4989,124,feet,jsons/VE125_randls_62_rotated.json,850607,1920147,51,Man
82,247969,DepthScenes,duration_manipulation_targetAtFixation,jsons/VE125_randls_62_rotated.json,http://54.235.29.9/FacialAge/BNav_EC2/DepthDuration/v2_depth_duration_MTurk/v2_DepthDuration_HTML.html#142,142,1280,800,1280,800,8-30-2022,11-3-1,83,depth_duration_stimuli/003079_2014-06-15_15-18-20_094959634447_rgbf000152-resize_8/003079_2014-06-15_15-18-20_094959634447_rgbf000152-resize_8-target.png,125,2.8775,14,5397,123,feet,jsons/VE125_randls_62_rotated.json,850607,1920147,51,Man
83,247969,DepthScenes,duration_manipulation_targetAtFixation,jsons/VE125_randls_62_rotated.json,http://54.235.29.9/FacialAge/BNav_EC2/DepthDuration/v2_depth_duration_MTurk/v2_DepthDuration_HTML.html#142,142,1280,800,1280,800,8-30-2022,11-3-1,84,depth_duration_stimuli/000506_2014-06-08_23-21-00_260595134347_rgbf000070-resize_7/000506_2014-06-08_23-21-00_260595134347_rgbf000070-resize_7-target.png,125,4.0585,15,6182,119,feet,jsons/VE125_randls_62_rotated.json,850607,1920147,51,Man
84,247969,DepthScenes,duration_manipulation_targetAtFixation,jsons/VE125_randls_62_rotated.json,http://54.235.29.9/FacialAge/BNav_EC2/DepthDuration/v2_depth_duration_MTurk/v2_DepthDuration_HTML.html#142,142,1280,800,1280,800,8-30-2022,11-3-1,85,depth_duration_stimuli/001392_2014-06-19_16-07-59_260595134347_rgbf000046-resize_1/001392_2014-06-19_16-07-59_260595134347_rgbf000046-resize_1-target.png,125,4.135,15,9930,125,feet,jsons/VE125_randls_62_rotated.json,850607,1920147,51,Man
85,247969,DepthScenes,duration_manipulation_targetAtFixation,jsons/VE125_randls_62_rotated.json,http://54.235.29.9/FacialAge/BNav_EC2/DepthDuration/v2_depth_duration_MTurk/v2_DepthDuration_HTML.html#142,142,1280,800,1280,800,8-30-2022,11-3-1,86,depth_duration_stimuli/001570_2014-06-20_17-21-09_260595134347_rgbf000135-resize_4/001570_2014-06-20_17-21-09_260595134347_rgbf000135-resize_4-target.png,125,4.467,15,3412,119,feet,jsons/VE125_randls_62_rotated.json,850607,1920147,51,Man
86,247969,DepthScenes,duration_manipulation_targetAtFixation,jsons/VE125_randls_62_rotated.json,http://54.235.29.9/FacialAge/BNav_EC2/DepthDuration/v2_depth_duration_MTurk/v2_DepthDuration_HTML.html#142,142,1280,800,1280,800,8-30-2022,11-3-1,87,depth_duration_stimuli/002136_2014-06-25_21-18-03_260595134347_rgbf000109-resize_3/002136_2014-06-25_21-18-03_260595134347_rgbf000109-resize_3-target.png,125,1.9569999999999999,9,3440,126,feet,jsons/VE125_randls_62_rotated.json,850607,1920147,51,Man
87,247969,DepthScenes,duration_manipulation_targetAtFixation,jsons/VE125_randls_62_rotated.json,http://54.235.29.9/FacialAge/BNav_EC2/DepthDuration/v2_depth_duration_MTurk/v2_DepthDuration_HTML.html#142,142,1280,800,1280,800,8-30-2022,11-3-1,88,depth_duration_stimuli/002964_2014-06-08_17-46-11_094959634447_rgbf000091-resize_4/002964_2014-06-08_17-46-11_094959634447_rgbf000091-resize_4-target.png,125,1.6909999999999998,9,2866,121,feet,jsons/VE125_randls_62_rotated.json,850607,1920147,51,Man
88,247969,DepthScenes,duration_manipulation_targetAtFixation,jsons/VE125_randls_62_rotated.json,http://54.235.29.9/FacialAge/BNav_EC2/DepthDuration/v2_depth_duration_MTurk/v2_DepthDuration_HTML.html#142,142,1280,800,1280,800,8-30-2022,11-3-1,89,depth_duration_stimuli/000191_2014-05-12_17-07-38_260595134347_rgbf000199-resize_0/000191_2014-05-12_17-07-38_260595134347_rgbf000199-resize_0-target.png,125,3.7995,16,3202,122,feet,jsons/VE125_randls_62_rotated.json,850607,1920147,51,Man
89,247969,DepthScenes,duration_manipulation_targetAtFixation,jsons/VE125_randls_62_rotated.json,http://54.235.29.9/FacialAge/BNav_EC2/DepthDuration/v2_depth_duration_MTurk/v2_DepthDuration_HTML.html#142,142,1280,800,1280,800,8-30-2022,11-3-1,90,depth_duration_stimuli/000493_2014-06-09_21-01-18_260595134347_rgbf000196-resize_3/000493_2014-06-09_21-01-18_260595134347_rgbf000196-resize_3-target.png,125,3.44,13,3499,122,feet,jsons/VE125_randls_62_rotated.json,850607,1920147,51,Man
90,247969,DepthScenes,duration_manipulation_targetAtFixation,jsons/VE125_randls_62_rotated.json,http://54.235.29.9/FacialAge/BNav_EC2/DepthDuration/v2_depth_duration_MTurk/v2_DepthDuration_HTML.html#142,142,1280,800,1280,800,8-30-2022,11-3-1,91,depth_duration_stimuli/000943_2014-06-09_19-31-07_260595134347_rgbf000128-resize_1/000943_2014-06-09_19-31-07_260595134347_rgbf000128-resize_1-target.png,125,1.9765,8,4178,122,feet,jsons/VE125_randls_62_rotated.json,850607,1920147,51,Man
91,247969,DepthScenes,duration_manipulation_targetAtFixation,jsons/VE125_randls_62_rotated.json,http://54.235.29.9/FacialAge/BNav_EC2/DepthDuration/v2_depth_duration_MTurk/v2_DepthDuration_HTML.html#142,142,1280,800,1280,800,8-30-2022,11-3-1,92,depth_duration_stimuli/003070_2014-06-15_14-58-27_094959634447_rgbf000150-resize_3/003070_2014-06-15_14-58-27_094959634447_rgbf000150-resize_3-target.png,125,2.9415,14,3279,128,feet,jsons/VE125_randls_62_rotated.json,850607,1920147,51,Man
92,247969,DepthScenes,duration_manipulation_targetAtFixation,jsons/VE125_randls_62_rotated.json,http://54.235.29.9/FacialAge/BNav_EC2/DepthDuration/v2_depth_duration_MTurk/v2_DepthDuration_HTML.html#142,142,1280,800,1280,800,8-30-2022,11-3-1,93,depth_duration_stimuli/001132_2014-06-17_14-48-54_260595134347_rgbf000100-resize_2/001132_2014-06-17_14-48-54_260595134347_rgbf000100-resize_2-target.png,125,3.753,15,3167,121,feet,jsons/VE125_randls_62_rotated.json,850607,1920147,51,Man
93,247969,DepthScenes,duration_manipulation_targetAtFixation,jsons/VE125_randls_62_rotated.json,http://54.235.29.9/FacialAge/BNav_EC2/DepthDuration/v2_depth_duration_MTurk/v2_DepthDuration_HTML.html#142,142,1280,800,1280,800,8-30-2022,11-3-1,94,depth_duration_stimuli/001133_2014-06-17_14-49-16_260595134347_rgbf000100-resize_0/001133_2014-06-17_14-49-16_260595134347_rgbf000100-resize_0-target.png,125,4.2115,16,5359,122,feet,jsons/VE125_randls_62_rotated.json,850607,1920147,51,Man
94,247969,DepthScenes,duration_manipulation_targetAtFixation,jsons/VE125_randls_62_rotated.json,http://54.235.29.9/FacialAge/BNav_EC2/DepthDuration/v2_depth_duration_MTurk/v2_DepthDuration_HTML.html#142,142,1280,800,1280,800,8-30-2022,11-3-1,95,depth_duration_stimuli/002323_2014-06-28_20-01-54_260595134347_rgbf000051-resize_4/002323_2014-06-28_20-01-54_260595134347_rgbf000051-resize_4-target.png,125,3.7310000000000003,18,3437,124,feet,jsons/VE125_randls_62_rotated.json,850607,1920147,51,Man
95,247969,DepthScenes,duration_manipulation_targetAtFixation,jsons/VE125_randls_62_rotated.json,http://54.235.29.9/FacialAge/BNav_EC2/DepthDuration/v2_depth_duration_MTurk/v2_DepthDuration_HTML.html#142,142,1280,800,1280,800,8-30-2022,11-3-1,96,depth_duration_stimuli/000917_2014-06-09_22-45-29_260595134347_rgbf000149-resize_3/000917_2014-06-09_22-45-29_260595134347_rgbf000149-resize_3-target.png,125,4.1865,14,5617,127,feet,jsons/VE125_randls_62_rotated.json,850607,1920147,51,Man
96,247969,DepthScenes,duration_manipulation_targetAtFixation,jsons/VE125_randls_62_rotated.json,http://54.235.29.9/FacialAge/BNav_EC2/DepthDuration/v2_depth_duration_MTurk/v2_DepthDuration_HTML.html#142,142,1280,800,1280,800,8-30-2022,11-3-1,97,depth_duration_stimuli/002209_2014-06-28_18-36-10_260595134347_rgbf000051-resize_1/002209_2014-06-28_18-36-10_260595134347_rgbf000051-resize_1-target.png,125,2.057,0,6366,121,feet,jsons/VE125_randls_62_rotated.json,850607,1920147,51,Man
97,247969,DepthScenes,duration_manipulation_targetAtFixation,jsons/VE125_randls_62_rotated.json,http://54.235.29.9/FacialAge/BNav_EC2/DepthDuration/v2_depth_duration_MTurk/v2_DepthDuration_HTML.html#142,142,1280,800,1280,800,8-30-2022,11-3-1,98,depth_duration_stimuli/002763_2014-06-22_19-13-10_094959634447_rgbf000075-resize_4/002763_2014-06-22_19-13-10_094959634447_rgbf000075-resize_4-target.png,125,1.68375,0,3500,122,feet,jsons/VE125_randls_62_rotated.json,850607,1920147,51,Man
98,247969,DepthScenes,duration_manipulation_targetAtFixation,jsons/VE125_randls_62_rotated.json,http://54.235.29.9/FacialAge/BNav_EC2/DepthDuration/v2_depth_duration_MTurk/v2_DepthDuration_HTML.html#142,142,1280,800,1280,800,8-30-2022,11-3-1,99,depth_duration_stimuli/001222_2014-06-17_16-24-06_260595134347_rgbf000073-resize_0/001222_2014-06-17_16-24-06_260595134347_rgbf000073-resize-original.jpg,125,1.4385,0,3273,127,feet,jsons/VE125_randls_62_rotated.json,850607,1920147,51,Man
99,247969,DepthScenes,duration_manipulation_targetAtFixation,jsons/VE125_randls_62_rotated.json,http://54.235.29.9/FacialAge/BNav_EC2/DepthDuration/v2_depth_duration_MTurk/v2_DepthDuration_HTML.html#142,142,1280,800,1280,800,8-30-2022,11-3-1,100,depth_duration_stimuli/000137_2014-05-20_17-04-49_260595134347_rgbf000120-resize_1/000137_2014-05-20_17-04-49_260595134347_rgbf000120-resize_1-target.png,125,3.786,13,6758,122,feet,jsons/VE125_randls_62_rotated.json,850607,1920147,51,Man
100,247969,DepthScenes,duration_manipulation_targetAtFixation,jsons/VE125_randls_62_rotated.json,http://54.235.29.9/FacialAge/BNav_EC2/DepthDuration/v2_depth_duration_MTurk/v2_DepthDuration_HTML.html#142,142,1280,800,1280,800,8-30-2022,11-3-1,101,depth_duration_stimuli/000736_2014-06-08_18-24-15_260595134347_rgbf000206-resize_3/000736_2014-06-08_18-24-15_260595134347_rgbf000206-resize_3-target.png,125,3.515,13,3294,125,feet,jsons/VE125_randls_62_rotated.json,850607,1920147,51,Man
101,247969,DepthScenes,duration_manipulation_targetAtFixation,jsons/VE125_randls_62_rotated.json,http://54.235.29.9/FacialAge/BNav_EC2/DepthDuration/v2_depth_duration_MTurk/v2_DepthDuration_HTML.html#142,142,1280,800,1280,800,8-30-2022,11-3-1,102,depth_duration_stimuli/002678_2014-06-13_16-15-32_094959634447_rgbf000151-resize_6/002678_2014-06-13_16-15-32_094959634447_rgbf000151-resize_6-target.png,125,2.1830000000000003,15,3406,124,feet,jsons/VE125_randls_62_rotated.json,850607,1920147,51,Man
102,247969,DepthScenes,duration_manipulation_targetAtFixation,jsons/VE125_randls_62_rotated.json,http://54.235.29.9/FacialAge/BNav_EC2/DepthDuration/v2_depth_duration_MTurk/v2_DepthDuration_HTML.html#142,142,1280,800,1280,800,8-30-2022,11-3-1,103,depth_duration_stimuli/000368_2014-06-09_15-53-01_260595134347_rgbf000155-resize_2/000368_2014-06-09_15-53-01_260595134347_rgbf000155-resize_2-target.png,125,2.4859999999999998,12,3224,124,feet,jsons/VE125_randls_62_rotated.json,850607,1920147,51,Man
103,247969,DepthScenes,duration_manipulation_targetAtFixation,jsons/VE125_randls_62_rotated.json,http://54.235.29.9/FacialAge/BNav_EC2/DepthDuration/v2_depth_duration_MTurk/v2_DepthDuration_HTML.html#142,142,1280,800,1280,800,8-30-2022,11-3-1,104,depth_duration_stimuli/003010_2014-06-15_12-54-35_094959634447_rgbf000112-resize_0/003010_2014-06-15_12-54-35_094959634447_rgbf000112-resize_0-target.png,125,3.1185,15,2962,126,feet,jsons/VE125_randls_62_rotated.json,850607,1920147,51,Man
104,247969,DepthScenes,duration_manipulation_targetAtFixation,jsons/VE125_randls_62_rotated.json,http://54.235.29.9/FacialAge/BNav_EC2/DepthDuration/v2_depth_duration_MTurk/v2_DepthDuration_HTML.html#142,142,1280,800,1280,800,8-30-2022,11-3-1,105,depth_duration_stimuli/001810_2014-06-26_20-51-35_260595134347_rgbf000040-resize_3/001810_2014-06-26_20-51-35_260595134347_rgbf000040-resize_3-target.png,125,2.2525,10,8904,127,feet,jsons/VE125_randls_62_rotated.json,850607,1920147,51,Man
105,247969,DepthScenes,duration_manipulation_targetAtFixation,jsons/VE125_randls_62_rotated.json,http://54.235.29.9/FacialAge/BNav_EC2/DepthDuration/v2_depth_duration_MTurk/v2_DepthDuration_HTML.html#142,142,1280,800,1280,800,8-30-2022,11-3-1,106,depth_duration_stimuli/000780_2014-06-08_22-28-29_260595134347_rgbf000126-resize_1/000780_2014-06-08_22-28-29_260595134347_rgbf000126-resize_1-target.png,125,3.3825,15,3350,126,feet,jsons/VE125_randls_62_rotated.json,850607,1920147,51,Man
106,247969,DepthScenes,duration_manipulation_targetAtFixation,jsons/VE125_randls_62_rotated.json,http://54.235.29.9/FacialAge/BNav_EC2/DepthDuration/v2_depth_duration_MTurk/v2_DepthDuration_HTML.html#142,142,1280,800,1280,800,8-30-2022,11-3-1,107,depth_duration_stimuli/002445_2014-06-28_20-32-16_260595134347_rgbf000029-resize_4/002445_2014-06-28_20-32-16_260595134347_rgbf000029-resize_4-target.png,125,2.5315,13,8586,121,feet,jsons/VE125_randls_62_rotated.json,850607,1920147,51,Man
107,247969,DepthScenes,duration_manipulation_targetAtFixation,jsons/VE125_randls_62_rotated.json,http://54.235.29.9/FacialAge/BNav_EC2/DepthDuration/v2_depth_duration_MTurk/v2_DepthDuration_HTML.html#142,142,1280,800,1280,800,8-30-2022,11-3-1,108,depth_duration_stimuli/003338_2014-05-20_11-01-23_094959634447_rgbf000051-resize_6/003338_2014-05-20_11-01-23_094959634447_rgbf000051-resize_6-target.png,125,1.693,12,3547,125,feet,jsons/VE125_randls_62_rotated.json,850607,1920147,51,Man
108,247969,DepthScenes,duration_manipulation_targetAtFixation,jsons/VE125_randls_62_rotated.json,http://54.235.29.9/FacialAge/BNav_EC2/DepthDuration/v2_depth_duration_MTurk/v2_DepthDuration_HTML.html#142,142,1280,800,1280,800,8-30-2022,11-3-1,109,depth_duration_stimuli/002509_2014-06-24_13-19-22_094959634447_rgbf000077-resize_0/002509_2014-06-24_13-19-22_094959634447_rgbf000077-resize_0-target.png,125,1.3065,11,4019,126,feet,jsons/VE125_randls_62_rotated.json,850607,1920147,51,Man
109,247969,DepthScenes,duration_manipulation_targetAtFixation,jsons/VE125_randls_62_rotated.json,http://54.235.29.9/FacialAge/BNav_EC2/DepthDuration/v2_depth_duration_MTurk/v2_DepthDuration_HTML.html#142,142,1280,800,1280,800,8-30-2022,11-3-1,110,depth_duration_stimuli/001136_2014-06-17_15-19-41_260595134347_rgbf000076-resize_3/001136_2014-06-17_15-19-41_260595134347_rgbf000076-resize_3-target.png,125,1.8655,14,3205,127,feet,jsons/VE125_randls_62_rotated.json,850607,1920147,51,Man
110,247969,DepthScenes,duration_manipulation_targetAtFixation,jsons/VE125_randls_62_rotated.json,http://54.235.29.9/FacialAge/BNav_EC2/DepthDuration/v2_depth_duration_MTurk/v2_DepthDuration_HTML.html#142,142,1280,800,1280,800,8-30-2022,11-3-1,111,depth_duration_stimuli/001164_2014-06-17_15-35-46_260595134347_rgbf000085-resize_3/001164_2014-06-17_15-35-46_260595134347_rgbf000085-resize_3-target.png,125,2.354,14,3137,125,feet,jsons/VE125_randls_62_rotated.json,850607,1920147,51,Man
111,247969,DepthScenes,duration_manipulation_targetAtFixation,jsons/VE125_randls_62_rotated.json,http://54.235.29.9/FacialAge/BNav_EC2/DepthDuration/v2_depth_duration_MTurk/v2_DepthDuration_HTML.html#142,142,1280,800,1280,800,8-30-2022,11-3-1,112,depth_duration_stimuli/000502_2014-06-08_23-02-32_260595134347_rgbf000063-resize_4/000502_2014-06-08_23-02-32_260595134347_rgbf000063-resize_4-target.png,125,2.431,14,4179,126,feet,jsons/VE125_randls_62_rotated.json,850607,1920147,51,Man
112,247969,DepthScenes,duration_manipulation_targetAtFixation,jsons/VE125_randls_62_rotated.json,http://54.235.29.9/FacialAge/BNav_EC2/DepthDuration/v2_depth_duration_MTurk/v2_DepthDuration_HTML.html#142,142,1280,800,1280,800,8-30-2022,11-3-1,113,depth_duration_stimuli/001199_2014-06-17_16-03-48_260595134347_rgbf000077-resize_0/001199_2014-06-17_16-03-48_260595134347_rgbf000077-resize_0-target.png,125,3.4375,15,3123,124,feet,jsons/VE125_randls_62_rotated.json,850607,1920147,51,Man
113,247969,DepthScenes,duration_manipulation_targetAtFixation,jsons/VE125_randls_62_rotated.json,http://54.235.29.9/FacialAge/BNav_EC2/DepthDuration/v2_depth_duration_MTurk/v2_DepthDuration_HTML.html#142,142,1280,800,1280,800,8-30-2022,11-3-1,114,depth_duration_stimuli/002758_2014-06-22_19-11-20_094959634447_rgbf000128-resize_1/002758_2014-06-22_19-11-20_094959634447_rgbf000128-resize_1-target.png,125,2.555,14,4257,121,feet,jsons/VE125_randls_62_rotated.json,850607,1920147,51,Man
114,247969,DepthScenes,duration_manipulation_targetAtFixation,jsons/VE125_randls_62_rotated.json,http://54.235.29.9/FacialAge/BNav_EC2/DepthDuration/v2_depth_duration_MTurk/v2_DepthDuration_HTML.html#142,142,1280,800,1280,800,8-30-2022,11-3-1,115,depth_duration_stimuli/002630_2014-06-24_14-47-50_094959634447_rgbf000055-resize_1/002630_2014-06-24_14-47-50_094959634447_rgbf000055-resize_1-target.png,125,3.0095,15,3385,124,feet,jsons/VE125_randls_62_rotated.json,850607,1920147,51,Man
115,247969,DepthScenes,duration_manipulation_targetAtFixation,jsons/VE125_randls_62_rotated.json,http://54.235.29.9/FacialAge/BNav_EC2/DepthDuration/v2_depth_duration_MTurk/v2_DepthDuration_HTML.html#142,142,1280,800,1280,800,8-30-2022,11-3-1,116,depth_duration_stimuli/002344_2014-06-28_20-06-29_260595134347_rgbf000030-resize_1/002344_2014-06-28_20-06-29_260595134347_rgbf000030-resize_1-target.png,125,1.5795,9,4568,124,feet,jsons/VE125_randls_62_rotated.json,850607,1920147,51,Man
116,247969,DepthScenes,duration_manipulation_targetAtFixation,jsons/VE125_randls_62_rotated.json,http://54.235.29.9/FacialAge/BNav_EC2/DepthDuration/v2_depth_duration_MTurk/v2_DepthDuration_HTML.html#142,142,1280,800,1280,800,8-30-2022,11-3-1,117,depth_duration_stimuli/002725_2014-06-22_11-47-51_094959634447_rgbf000070-resize_1/002725_2014-06-22_11-47-51_094959634447_rgbf000070-resize_1-target.png,125,2.195,14,3210,126,feet,jsons/VE125_randls_62_rotated.json,850607,1920147,51,Man
117,247969,DepthScenes,duration_manipulation_targetAtFixation,jsons/VE125_randls_62_rotated.json,http://54.235.29.9/FacialAge/BNav_EC2/DepthDuration/v2_depth_duration_MTurk/v2_DepthDuration_HTML.html#142,142,1280,800,1280,800,8-30-2022,11-3-1,118,depth_duration_stimuli/001447_2014-06-19_17-00-32_260595134347_rgbf000082-resize_5/001447_2014-06-19_17-00-32_260595134347_rgbf000082-resize_5-target.png,125,4.13775,13,2930,127,feet,jsons/VE125_randls_62_rotated.json,850607,1920147,51,Man
118,247969,DepthScenes,duration_manipulation_targetAtFixation,jsons/VE125_randls_62_rotated.json,http://54.235.29.9/FacialAge/BNav_EC2/DepthDuration/v2_depth_duration_MTurk/v2_DepthDuration_HTML.html#142,142,1280,800,1280,800,8-30-2022,11-3-1,119,depth_duration_stimuli/000447_2014-06-08_16-15-46_260595134347_rgbf000130-resize_1/000447_2014-06-08_16-15-46_260595134347_rgbf000130-resize_1-target.png,125,4.479,15,5296,122,feet,jsons/VE125_randls_62_rotated.json,850607,1920147,51,Man
119,247969,DepthScenes,duration_manipulation_targetAtFixation,jsons/VE125_randls_62_rotated.json,http://54.235.29.9/FacialAge/BNav_EC2/DepthDuration/v2_depth_duration_MTurk/v2_DepthDuration_HTML.html#142,142,1280,800,1280,800,8-30-2022,11-3-1,120,depth_duration_stimuli/000787_2014-06-08_22-33-53_260595134347_rgbf000175-resize_1/000787_2014-06-08_22-33-53_260595134347_rgbf000175-resize-original.jpg,125,4.784,0,3316,122,feet,jsons/VE125_randls_62_rotated.json,850607,1920147,51,Man
120,247969,DepthScenes,duration_manipulation_targetAtFixation,jsons/VE125_randls_62_rotated.json,http://54.235.29.9/FacialAge/BNav_EC2/DepthDuration/v2_depth_duration_MTurk/v2_DepthDuration_HTML.html#142,142,1280,800,1280,800,8-30-2022,11-3-1,121,depth_duration_stimuli/001052_2014-06-08_18-24-54_260595134347_rgbf000130-resize_1/001052_2014-06-08_18-24-54_260595134347_rgbf000130-resize_1-target.png,125,4.1045,16,3274,122,feet,jsons/VE125_randls_62_rotated.json,850607,1920147,51,Man
121,247969,DepthScenes,duration_manipulation_targetAtFixation,jsons/VE125_randls_62_rotated.json,http://54.235.29.9/FacialAge/BNav_EC2/DepthDuration/v2_depth_duration_MTurk/v2_DepthDuration_HTML.html#142,142,1280,800,1280,800,8-30-2022,11-3-1,122,depth_duration_stimuli/002988_2014-06-15_12-24-20_094959634447_rgbf000150-resize_1/002988_2014-06-15_12-24-20_094959634447_rgbf000150-resize_1-target.png,125,4.7669999999999995,15,3015,124,feet,jsons/VE125_randls_62_rotated.json,850607,1920147,51,Man
122,247969,DepthScenes,duration_manipulation_targetAtFixation,jsons/VE125_randls_62_rotated.json,http://54.235.29.9/FacialAge/BNav_EC2/DepthDuration/v2_depth_duration_MTurk/v2_DepthDuration_HTML.html#142,142,1280,800,1280,800,8-30-2022,11-3-1,123,depth_duration_stimuli/000734_2014-06-08_17-39-11_260595134347_rgbf000128-resize_2/000734_2014-06-08_17-39-11_260595134347_rgbf000128-resize_2-target.png,125,4.098,14,3362,122,feet,jsons/VE125_randls_62_rotated.json,850607,1920147,51,Man
123,247969,DepthScenes,duration_manipulation_targetAtFixation,jsons/VE125_randls_62_rotated.json,http://54.235.29.9/FacialAge/BNav_EC2/DepthDuration/v2_depth_duration_MTurk/v2_DepthDuration_HTML.html#142,142,1280,800,1280,800,8-30-2022,11-3-1,124,depth_duration_stimuli/000739_2014-06-08_18-45-58_260595134347_rgbf000068-resize_1/000739_2014-06-08_18-45-58_260595134347_rgbf000068-resize_1-target.png,125,3.534,13,3643,127,feet,jsons/VE125_randls_62_rotated.json,850607,1920147,51,Man
124,247969,DepthScenes,duration_manipulation_targetAtFixation,jsons/VE125_randls_62_rotated.json,http://54.235.29.9/FacialAge/BNav_EC2/DepthDuration/v2_depth_duration_MTurk/v2_DepthDuration_HTML.html#142,142,1280,800,1280,800,8-30-2022,11-3-1,125,depth_duration_stimuli/003048_2014-06-15_13-49-43_094959634447_rgbf000150-resize_1/003048_2014-06-15_13-49-43_094959634447_rgbf000150-resize_1-target.png,125,4.0035,14,2986,126,feet,jsons/VE125_randls_62_rotated.json,850607,1920147,51,Man
125,247969,DepthScenes,duration_manipulation_targetAtFixation,jsons/VE125_randls_62_rotated.json,http://54.235.29.9/FacialAge/BNav_EC2/DepthDuration/v2_depth_duration_MTurk/v2_DepthDuration_HTML.html#142,142,1280,800,1280,800,8-30-2022,11-3-1,126,depth_duration_stimuli/002043_2014-06-24_20-29-38_260595134347_rgbf000039-resize_4/002043_2014-06-24_20-29-38_260595134347_rgbf000039-resize_4-target.png,125,2.8435,14,3775,122,feet,jsons/VE125_randls_62_rotated.json,850607,1920147,51,Man
126,247969,DepthScenes,duration_manipulation_targetAtFixation,jsons/VE125_randls_62_rotated.json,http://54.235.29.9/FacialAge/BNav_EC2/DepthDuration/v2_depth_duration_MTurk/v2_DepthDuration_HTML.html#142,142,1280,800,1280,800,8-30-2022,11-3-1,127,depth_duration_stimuli/001094_2014-06-15_17-36-00_260595134347_rgbf000205-resize_0/001094_2014-06-15_17-36-00_260595134347_rgbf000205-resize_0-target.png,125,4.2175,13,3315,128,feet,jsons/VE125_randls_62_rotated.json,850607,1920147,51,Man
127,247969,DepthScenes,duration_manipulation_targetAtFixation,jsons/VE125_randls_62_rotated.json,http://54.235.29.9/FacialAge/BNav_EC2/DepthDuration/v2_depth_duration_MTurk/v2_DepthDuration_HTML.html#142,142,1280,800,1280,800,8-30-2022,11-3-1,128,depth_duration_stimuli/000692_2014-06-08_13-09-42_260595134347_rgbf000199-resize_2/000692_2014-06-08_13-09-42_260595134347_rgbf000199-resize_2-target.png,125,3.661,17,3089,126,feet,jsons/VE125_randls_62_rotated.json,850607,1920147,51,Man
128,247969,DepthScenes,duration_manipulation_targetAtFixation,jsons/VE125_randls_62_rotated.json,http://54.235.29.9/FacialAge/BNav_EC2/DepthDuration/v2_depth_duration_MTurk/v2_DepthDuration_HTML.html#142,142,1280,800,1280,800,8-30-2022,11-3-1,129,depth_duration_stimuli/001100_2014-06-15_17-46-26_260595134347_rgbf000225-resize_2/001100_2014-06-15_17-46-26_260595134347_rgbf000225-resize_2-target.png,125,2.24,11,4340,125,feet,jsons/VE125_randls_62_rotated.json,850607,1920147,51,Man
129,247969,DepthScenes,duration_manipulation_targetAtFixation,jsons/VE125_randls_62_rotated.json,http://54.235.29.9/FacialAge/BNav_EC2/DepthDuration/v2_depth_duration_MTurk/v2_DepthDuration_HTML.html#142,142,1280,800,1280,800,8-30-2022,11-3-1,130,depth_duration_stimuli/002784_2014-06-22_19-26-30_094959634447_rgbf000083-resize_3/002784_2014-06-22_19-26-30_094959634447_rgbf000083-resize_3-target.png,125,1.8046666666667,10,3386,122,feet,jsons/VE125_randls_62_rotated.json,850607,1920147,51,Man
130,247969,DepthScenes,duration_manipulation_targetAtFixation,jsons/VE125_randls_62_rotated.json,http://54.235.29.9/FacialAge/BNav_EC2/DepthDuration/v2_depth_duration_MTurk/v2_DepthDuration_HTML.html#142,142,1280,800,1280,800,8-30-2022,11-3-1,131,depth_duration_stimuli/002467_2014-06-28_20-38-07_260595134347_rgbf000026-resize_2/002467_2014-06-28_20-38-07_260595134347_rgbf000026-resize_2-target.png,125,4.742,14,5158,125,feet,jsons/VE125_randls_62_rotated.json,850607,1920147,51,Man
131,247969,DepthScenes,duration_manipulation_targetAtFixation,jsons/VE125_randls_62_rotated.json,http://54.235.29.9/FacialAge/BNav_EC2/DepthDuration/v2_depth_duration_MTurk/v2_DepthDuration_HTML.html#142,142,1280,800,1280,800,8-30-2022,11-3-1,132,depth_duration_stimuli/002570_2014-06-24_13-59-54_094959634447_rgbf000059-resize_0/002570_2014-06-24_13-59-54_094959634447_rgbf000059-resize_0-target.png,125,4.037,15,3094,119,feet,jsons/VE125_randls_62_rotated.json,850607,1920147,51,Man
132,247969,DepthScenes,duration_manipulation_targetAtFixation,jsons/VE125_randls_62_rotated.json,http://54.235.29.9/FacialAge/BNav_EC2/DepthDuration/v2_depth_duration_MTurk/v2_DepthDuration_HTML.html#142,142,1280,800,1280,800,8-30-2022,11-3-1,133,depth_duration_stimuli/001032_2014-06-08_13-23-17_260595134347_rgbf000021-resize_3/001032_2014-06-08_13-23-17_260595134347_rgbf000021-resize_3-target.png,125,3.2725,13,7290,119,feet,jsons/VE125_randls_62_rotated.json,850607,1920147,51,Man
133,247969,DepthScenes,duration_manipulation_targetAtFixation,jsons/VE125_randls_62_rotated.json,http://54.235.29.9/FacialAge/BNav_EC2/DepthDuration/v2_depth_duration_MTurk/v2_DepthDuration_HTML.html#142,142,1280,800,1280,800,8-30-2022,11-3-1,134,depth_duration_stimuli/001059_2014-06-08_21-53-27_260595134347_rgbf000061-resize_4/001059_2014-06-08_21-53-27_260595134347_rgbf000061-resize_4-target.png,125,2.4185,13,5279,119,feet,jsons/VE125_randls_62_rotated.json,850607,1920147,51,Man
134,247969,DepthScenes,duration_manipulation_targetAtFixation,jsons/VE125_randls_62_rotated.json,http://54.235.29.9/FacialAge/BNav_EC2/DepthDuration/v2_depth_duration_MTurk/v2_DepthDuration_HTML.html#142,142,1280,800,1280,800,8-30-2022,11-3-1,135,depth_duration_stimuli/000375_2014-06-08_11-17-29_260595134347_rgbf000133-resize_2/000375_2014-06-08_11-17-29_260595134347_rgbf000133-resize-original.jpg,125,4.718,0,3322,125,feet,jsons/VE125_randls_62_rotated.json,850607,1920147,51,Man
135,247969,DepthScenes,duration_manipulation_targetAtFixation,jsons/VE125_randls_62_rotated.json,http://54.235.29.9/FacialAge/BNav_EC2/DepthDuration/v2_depth_duration_MTurk/v2_DepthDuration_HTML.html#142,142,1280,800,1280,800,8-30-2022,11-3-1,136,depth_duration_stimuli/000635_2014-06-08_16-38-42_260595134347_rgbf000106-resize_1/000635_2014-06-08_16-38-42_260595134347_rgbf000106-resize_1-target.png,125,2.074,13,4102,122,feet,jsons/VE125_randls_62_rotated.json,850607,1920147,51,Man
136,247969,DepthScenes,duration_manipulation_targetAtFixation,jsons/VE125_randls_62_rotated.json,http://54.235.29.9/FacialAge/BNav_EC2/DepthDuration/v2_depth_duration_MTurk/v2_DepthDuration_HTML.html#142,142,1280,800,1280,800,8-30-2022,11-3-1,137,depth_duration_stimuli/002279_2014-06-28_18-55-32_260595134347_rgbf000040-resize_5/002279_2014-06-28_18-55-32_260595134347_rgbf000040-resize_5-target.png,125,1.5043333333333,10,4327,123,feet,jsons/VE125_randls_62_rotated.json,850607,1920147,51,Man
137,247969,DepthScenes,duration_manipulation_targetAtFixation,jsons/VE125_randls_62_rotated.json,http://54.235.29.9/FacialAge/BNav_EC2/DepthDuration/v2_depth_duration_MTurk/v2_DepthDuration_HTML.html#142,142,1280,800,1280,800,8-30-2022,11-3-1,138,depth_duration_stimuli/001235_2014-06-17_16-37-36_260595134347_rgbf000084-resize_4/001235_2014-06-17_16-37-36_260595134347_rgbf000084-resize_4-target.png,125,3.6605,10,4310,124,feet,jsons/VE125_randls_62_rotated.json,850607,1920147,51,Man
138,247969,DepthScenes,duration_manipulation_targetAtFixation,jsons/VE125_randls_62_rotated.json,http://54.235.29.9/FacialAge/BNav_EC2/DepthDuration/v2_depth_duration_MTurk/v2_DepthDuration_HTML.html#142,142,1280,800,1280,800,8-30-2022,11-3-1,139,depth_duration_stimuli/000788_2014-06-08_22-34-36_260595134347_rgbf000131-resize_1/000788_2014-06-08_22-34-36_260595134347_rgbf000131-resize_1-target.png,125,3.359,11,3331,128,feet,jsons/VE125_randls_62_rotated.json,850607,1920147,51,Man
139,247969,DepthScenes,duration_manipulation_targetAtFixation,jsons/VE125_randls_62_rotated.json,http://54.235.29.9/FacialAge/BNav_EC2/DepthDuration/v2_depth_duration_MTurk/v2_DepthDuration_HTML.html#142,142,1280,800,1280,800,8-30-2022,11-3-1,140,depth_duration_stimuli/002750_2014-06-22_19-08-03_094959634447_rgbf000094-resize_4/002750_2014-06-22_19-08-03_094959634447_rgbf000094-resize_4-target.png,125,2.354,11,4468,127,feet,jsons/VE125_randls_62_rotated.json,850607,1920147,51,Man
140,247969,DepthScenes,duration_manipulation_targetAtFixation,jsons/VE125_randls_62_rotated.json,http://54.235.29.9/FacialAge/BNav_EC2/DepthDuration/v2_depth_duration_MTurk/v2_DepthDuration_HTML.html#142,142,1280,800,1280,800,8-30-2022,11-3-1,141,depth_duration_stimuli/002549_2014-06-24_13-41-39_094959634447_rgbf000022-resize_3/002549_2014-06-24_13-41-39_094959634447_rgbf000022-resize_3-target.png,125,1.476,10,3157,127,feet,jsons/VE125_randls_62_rotated.json,850607,1920147,51,Man
141,247969,DepthScenes,duration_manipulation_targetAtFixation,jsons/VE125_randls_62_rotated.json,http://54.235.29.9/FacialAge/BNav_EC2/DepthDuration/v2_depth_duration_MTurk/v2_DepthDuration_HTML.html#142,142,1280,800,1280,800,8-30-2022,11-3-1,142,depth_duration_stimuli/000709_2014-06-08_13-51-55_260595134347_rgbf000068-resize_3/000709_2014-06-08_13-51-55_260595134347_rgbf000068-resize_3-target.png,125,1.8030000000000002,10,4383,122,feet,jsons/VE125_randls_62_rotated.json,850607,1920147,51,Man
142,247969,DepthScenes,duration_manipulation_targetAtFixation,jsons/VE125_randls_62_rotated.json,http://54.235.29.9/FacialAge/BNav_EC2/DepthDuration/v2_depth_duration_MTurk/v2_DepthDuration_HTML.html#142,142,1280,800,1280,800,8-30-2022,11-3-1,143,depth_duration_stimuli/002057_2014-06-24_21-00-13_260595134347_rgbf000120-resize_1/002057_2014-06-24_21-00-13_260595134347_rgbf000120-resize_1-target.png,125,2.967,15,4277,124,feet,jsons/VE125_randls_62_rotated.json,850607,1920147,51,Man
143,247969,DepthScenes,duration_manipulation_targetAtFixation,jsons/VE125_randls_62_rotated.json,http://54.235.29.9/FacialAge/BNav_EC2/DepthDuration/v2_depth_duration_MTurk/v2_DepthDuration_HTML.html#142,142,1280,800,1280,800,8-30-2022,11-3-1,144,depth_duration_stimuli/000742_2014-06-08_18-48-09_260595134347_rgbf000164-resize_4/000742_2014-06-08_18-48-09_260595134347_rgbf000164-resize_4-target.png,125,4.632,16,2922,124,feet,jsons/VE125_randls_62_rotated.json,850607,1920147,51,Man
144,247969,DepthScenes,duration_manipulation_targetAtFixation,jsons/VE125_randls_62_rotated.json,http://54.235.29.9/FacialAge/BNav_EC2/DepthDuration/v2_depth_duration_MTurk/v2_DepthDuration_HTML.html#142,142,1280,800,1280,800,8-30-2022,11-3-1,145,depth_duration_stimuli/001066_2014-06-08_22-03-20_260595134347_rgbf000066-resize_4/001066_2014-06-08_22-03-20_260595134347_rgbf000066-resize_4-target.png,125,4.2330000000000005,15,5261,129,feet,jsons/VE125_randls_62_rotated.json,850607,1920147,51,Man
145,247969,DepthScenes,duration_manipulation_targetAtFixation,jsons/VE125_randls_62_rotated.json,http://54.235.29.9/FacialAge/BNav_EC2/DepthDuration/v2_depth_duration_MTurk/v2_DepthDuration_HTML.html#142,142,1280,800,1280,800,8-30-2022,11-3-1,146,depth_duration_stimuli/003129_2014-05-12_10-48-10_094959634447_rgbf000100-resize_0/003129_2014-05-12_10-48-10_094959634447_rgbf000100-resize_0-target.png,125,4.9305,15,4117,120,feet,jsons/VE125_randls_62_rotated.json,850607,1920147,51,Man
146,247969,DepthScenes,duration_manipulation_targetAtFixation,jsons/VE125_randls_62_rotated.json,http://54.235.29.9/FacialAge/BNav_EC2/DepthDuration/v2_depth_duration_MTurk/v2_DepthDuration_HTML.html#142,142,1280,800,1280,800,8-30-2022,11-3-1,147,depth_duration_stimuli/000414_2014-06-04_19-49-13_260595134347_rgbf000044-resize_0/000414_2014-06-04_19-49-13_260595134347_rgbf000044-resize_0-target.png,125,4.329,15,3870,126,feet,jsons/VE125_randls_62_rotated.json,850607,1920147,51,Man
147,247969,DepthScenes,duration_manipulation_targetAtFixation,jsons/VE125_randls_62_rotated.json,http://54.235.29.9/FacialAge/BNav_EC2/DepthDuration/v2_depth_duration_MTurk/v2_DepthDuration_HTML.html#142,142,1280,800,1280,800,8-30-2022,11-3-1,148,depth_duration_stimuli/002103_2014-06-25_20-00-40_260595134347_rgbf000049-resize_0/002103_2014-06-25_20-00-40_260595134347_rgbf000049-resize_0-target.png,125,4.105,14,5313,127,feet,jsons/VE125_randls_62_rotated.json,850607,1920147,51,Man
148,247969,DepthScenes,duration_manipulation_targetAtFixation,jsons/VE125_randls_62_rotated.json,http://54.235.29.9/FacialAge/BNav_EC2/DepthDuration/v2_depth_duration_MTurk/v2_DepthDuration_HTML.html#142,142,1280,800,1280,800,8-30-2022,11-3-1,149,depth_duration_stimuli/002039_2014-06-24_20-22-38_260595134347_rgbf000084-resize_1/002039_2014-06-24_20-22-38_260595134347_rgbf000084-resize_1-target.png,125,4.408,14,6862,121,feet,jsons/VE125_randls_62_rotated.json,850607,1920147,51,Man
149,247969,DepthScenes,duration_manipulation_targetAtFixation,jsons/VE125_randls_62_rotated.json,http://54.235.29.9/FacialAge/BNav_EC2/DepthDuration/v2_depth_duration_MTurk/v2_DepthDuration_HTML.html#142,142,1280,800,1280,800,8-30-2022,11-3-1,150,depth_duration_stimuli/001828_2014-06-26_21-40-03_260595134347_rgbf000024-resize_0/001828_2014-06-26_21-40-03_260595134347_rgbf000024-resize_0-target.png,125,4.8260000000000005,15,4847,124,feet,jsons/VE125_randls_62_rotated.json,850607,1920147,51,Man
150,247969,DepthScenes,duration_manipulation_targetAtFixation,jsons/VE125_randls_62_rotated.json,http://54.235.29.9/FacialAge/BNav_EC2/DepthDuration/v2_depth_duration_MTurk/v2_DepthDuration_HTML.html#142,142,1280,800,1280,800,8-30-2022,11-3-1,151,depth_duration_stimuli/000009_2014-05-26_14-32-05_260595134347_rgbf000034-resize_3/000009_2014-05-26_14-32-05_260595134347_rgbf000034-resize_3-target.png,125,3.8715,16,3675,125,feet,jsons/VE125_randls_62_rotated.json,850607,1920147,51,Man
151,247969,DepthScenes,duration_manipulation_targetAtFixation,jsons/VE125_randls_62_rotated.json,http://54.235.29.9/FacialAge/BNav_EC2/DepthDuration/v2_depth_duration_MTurk/v2_DepthDuration_HTML.html#142,142,1280,800,1280,800,8-30-2022,11-3-1,152,depth_duration_stimuli/000569_2014-06-09_22-51-47_260595134347_rgbf000141-resize_3/000569_2014-06-09_22-51-47_260595134347_rgbf000141-resize-original.jpg,125,4.512,0,3489,125,feet,jsons/VE125_randls_62_rotated.json,850607,1920147,51,Man
152,247969,DepthScenes,duration_manipulation_targetAtFixation,jsons/VE125_randls_62_rotated.json,http://54.235.29.9/FacialAge/BNav_EC2/DepthDuration/v2_depth_duration_MTurk/v2_DepthDuration_HTML.html#142,142,1280,800,1280,800,8-30-2022,11-3-1,153,depth_duration_stimuli/002545_2014-06-24_13-38-53_094959634447_rgbf000080-resize_4/002545_2014-06-24_13-38-53_094959634447_rgbf000080-resize_4-target.png,125,1.9205,14,4829,120,feet,jsons/VE125_randls_62_rotated.json,850607,1920147,51,Man
153,247969,DepthScenes,duration_manipulation_targetAtFixation,jsons/VE125_randls_62_rotated.json,http://54.235.29.9/FacialAge/BNav_EC2/DepthDuration/v2_depth_duration_MTurk/v2_DepthDuration_HTML.html#142,142,1280,800,1280,800,8-30-2022,11-3-1,154,depth_duration_stimuli/001092_2014-06-15_17-34-58_260595134347_rgbf000171-resize_3/001092_2014-06-15_17-34-58_260595134347_rgbf000171-resize_3-target.png,125,2.6935,12,10987,127,feet,jsons/VE125_randls_62_rotated.json,850607,1920147,51,Man
154,247969,DepthScenes,duration_manipulation_targetAtFixation,jsons/VE125_randls_62_rotated.json,http://54.235.29.9/FacialAge/BNav_EC2/DepthDuration/v2_depth_duration_MTurk/v2_DepthDuration_HTML.html#142,142,1280,800,1280,800,8-30-2022,11-3-1,155,depth_duration_stimuli/003423_2014-05-21_10-23-26_094959634447_rgbf002665-resize_2/003423_2014-05-21_10-23-26_094959634447_rgbf002665-resize_2-target.png,125,3.2575,14,4650,119,feet,jsons/VE125_randls_62_rotated.json,850607,1920147,51,Man
155,247969,DepthScenes,duration_manipulation_targetAtFixation,jsons/VE125_randls_62_rotated.json,http://54.235.29.9/FacialAge/BNav_EC2/DepthDuration/v2_depth_duration_MTurk/v2_DepthDuration_HTML.html#142,142,1280,800,1280,800,8-30-2022,11-3-1,156,depth_duration_stimuli/002905_2014-06-03_18-04-43_094959634447_rgbf000151-resize_2/002905_2014-06-03_18-04-43_094959634447_rgbf000151-resize_2-target.png,125,2.0295,11,3819,122,feet,jsons/VE125_randls_62_rotated.json,850607,1920147,51,Man
156,247969,DepthScenes,duration_manipulation_targetAtFixation,jsons/VE125_randls_62_rotated.json,http://54.235.29.9/FacialAge/BNav_EC2/DepthDuration/v2_depth_duration_MTurk/v2_DepthDuration_HTML.html#142,142,1280,800,1280,800,8-30-2022,11-3-1,157,depth_duration_stimuli/002568_2014-06-24_13-59-21_094959634447_rgbf000062-resize_4/002568_2014-06-24_13-59-21_094959634447_rgbf000062-resize_4-target.png,125,3.015,14,4905,120,feet,jsons/VE125_randls_62_rotated.json,850607,1920147,51,Man
157,247969,DepthScenes,duration_manipulation_targetAtFixation,jsons/VE125_randls_62_rotated.json,http://54.235.29.9/FacialAge/BNav_EC2/DepthDuration/v2_depth_duration_MTurk/v2_DepthDuration_HTML.html#142,142,1280,800,1280,800,8-30-2022,11-3-1,158,depth_duration_stimuli/003492_2014-05-21_15-50-55_094959634447_rgbf000828-resize_1/003492_2014-05-21_15-50-55_094959634447_rgbf000828-resize_1-target.png,125,4.06875,14,3797,126,feet,jsons/VE125_randls_62_rotated.json,850607,1920147,51,Man
158,247969,DepthScenes,duration_manipulation_targetAtFixation,jsons/VE125_randls_62_rotated.json,http://54.235.29.9/FacialAge/BNav_EC2/DepthDuration/v2_depth_duration_MTurk/v2_DepthDuration_HTML.html#142,142,1280,800,1280,800,8-30-2022,11-3-1,159,depth_duration_stimuli/003081_2014-06-15_15-19-16_094959634447_rgbf000150-resize_1/003081_2014-06-15_15-19-16_094959634447_rgbf000150-resize_1-target.png,125,3.9125,15,3715,123,feet,jsons/VE125_randls_62_rotated.json,850607,1920147,51,Man
159,247969,DepthScenes,duration_manipulation_targetAtFixation,jsons/VE125_randls_62_rotated.json,http://54.235.29.9/FacialAge/BNav_EC2/DepthDuration/v2_depth_duration_MTurk/v2_DepthDuration_HTML.html#142,142,1280,800,1280,800,8-30-2022,11-3-1,160,depth_duration_stimuli/001417_2014-06-19_16-25-36_260595134347_rgbf000115-resize_5/001417_2014-06-19_16-25-36_260595134347_rgbf000115-resize_5-target.png,125,4.6255,15,3771,121,feet,jsons/VE125_randls_62_rotated.json,850607,1920147,51,Man
160,247969,DepthScenes,duration_manipulation_targetAtFixation,jsons/VE125_randls_62_rotated.json,http://54.235.29.9/FacialAge/BNav_EC2/DepthDuration/v2_depth_duration_MTurk/v2_DepthDuration_HTML.html#142,142,1280,800,1280,800,8-30-2022,11-3-1,161,depth_duration_stimuli/002949_2014-06-26_15-57-42_094959634447_rgbf000079-resize_1/002949_2014-06-26_15-57-42_094959634447_rgbf000079-resize_1-target.png,125,1.8915,9,2701,126,feet,jsons/VE125_randls_62_rotated.json,850607,1920147,51,Man
161,247969,DepthScenes,duration_manipulation_targetAtFixation,jsons/VE125_randls_62_rotated.json,http://54.235.29.9/FacialAge/BNav_EC2/DepthDuration/v2_depth_duration_MTurk/v2_DepthDuration_HTML.html#142,142,1280,800,1280,800,8-30-2022,11-3-1,162,depth_duration_stimuli/000522_2014-06-08_13-35-06_260595134347_rgbf000244-resize_1/000522_2014-06-08_13-35-06_260595134347_rgbf000244-resize_1-target.png,125,2.3715,8,3329,124,feet,jsons/VE125_randls_62_rotated.json,850607,1920147,51,Man
162,247969,DepthScenes,duration_manipulation_targetAtFixation,jsons/VE125_randls_62_rotated.json,http://54.235.29.9/FacialAge/BNav_EC2/DepthDuration/v2_depth_duration_MTurk/v2_DepthDuration_HTML.html#142,142,1280,800,1280,800,8-30-2022,11-3-1,163,depth_duration_stimuli/000103_2014-05-14_22-01-17_260595134347_rgbf000152-resize_5/000103_2014-05-14_22-01-17_260595134347_rgbf000152-resize_5-target.png,125,1.993,14,4866,124,feet,jsons/VE125_randls_62_rotated.json,850607,1920147,51,Man
163,247969,DepthScenes,duration_manipulation_targetAtFixation,jsons/VE125_randls_62_rotated.json,http://54.235.29.9/FacialAge/BNav_EC2/DepthDuration/v2_depth_duration_MTurk/v2_DepthDuration_HTML.html#142,142,1280,800,1280,800,8-30-2022,11-3-1,164,depth_duration_stimuli/001555_2014-06-20_17-12-10_260595134347_rgbf000065-resize_4/001555_2014-06-20_17-12-10_260595134347_rgbf000065-resize_4-target.png,125,1.633,8,4635,128,feet,jsons/VE125_randls_62_rotated.json,850607,1920147,51,Man
