,subjID,experimentName,versionName,sequenceName,url,selected_row,windowWidth,windowHeight,screenWidth,screenHeight,startDate,startTime,trial,stimulus,duration,actual_depth,depth_estimate,trial_RT,log_sceneDuration,unitSelection,seq_filepath,experimentTime,totalTime,age,gender
0,250416,DepthScenes,duration_manipulation_targetAtFixation,jsons/VE125_randls_54_rotated.json,http://54.235.29.9/FacialAge/BNav_EC2/DepthDuration/v2_depth_duration_MTurk/v2_DepthDuration_HTML.html#153,153,702,259,1366,768,9-4-2022,8-19-33,1,depth_duration_stimuli/000137_2014-05-20_17-04-49_260595134347_rgbf000120-resize_1/000137_2014-05-20_17-04-49_260595134347_rgbf000120-resize_1-target.png,125,3.786,1,14241,116,meters,jsons/VE125_randls_54_rotated.json,1810344,2255245,35,Woman
1,250416,DepthScenes,duration_manipulation_targetAtFixation,jsons/VE125_randls_54_rotated.json,http://54.235.29.9/FacialAge/BNav_EC2/DepthDuration/v2_depth_duration_MTurk/v2_DepthDuration_HTML.html#153,153,702,259,1366,768,9-4-2022,8-19-33,2,depth_duration_stimuli/000736_2014-06-08_18-24-15_260595134347_rgbf000206-resize_3/000736_2014-06-08_18-24-15_260595134347_rgbf000206-resize_3-target.png,125,3.515,1,10366,111,meters,jsons/VE125_randls_54_rotated.json,1810344,2255245,35,Woman
2,250416,DepthScenes,duration_manipulation_targetAtFixation,jsons/VE125_randls_54_rotated.json,http://54.235.29.9/FacialAge/BNav_EC2/DepthDuration/v2_depth_duration_MTurk/v2_DepthDuration_HTML.html#153,153,702,259,1366,768,9-4-2022,8-19-33,3,depth_duration_stimuli/001815_2014-06-26_20-52-55_260595134347_rgbf000020-resize_0/001815_2014-06-26_20-52-55_260595134347_rgbf000020-resize_0-target.png,125,3.3865,1,8503,116,meters,jsons/VE125_randls_54_rotated.json,1810344,2255245,35,Woman
3,250416,DepthScenes,duration_manipulation_targetAtFixation,jsons/VE125_randls_54_rotated.json,http://54.235.29.9/FacialAge/BNav_EC2/DepthDuration/v2_depth_duration_MTurk/v2_DepthDuration_HTML.html#153,153,702,259,1366,768,9-4-2022,8-19-33,4,depth_duration_stimuli/001808_2014-06-26_20-50-58_260595134347_rgbf000029-resize_1/001808_2014-06-26_20-50-58_260595134347_rgbf000029-resize_1-target.png,125,4.249,1,10207,118,meters,jsons/VE125_randls_54_rotated.json,1810344,2255245,35,Woman
4,250416,DepthScenes,duration_manipulation_targetAtFixation,jsons/VE125_randls_54_rotated.json,http://54.235.29.9/FacialAge/BNav_EC2/DepthDuration/v2_depth_duration_MTurk/v2_DepthDuration_HTML.html#153,153,702,259,1366,768,9-4-2022,8-19-33,5,depth_duration_stimuli/001132_2014-06-17_14-48-54_260595134347_rgbf000100-resize_2/001132_2014-06-17_14-48-54_260595134347_rgbf000100-resize_2-target.png,125,3.753,1,8661,122,meters,jsons/VE125_randls_54_rotated.json,1810344,2255245,35,Woman
5,250416,DepthScenes,duration_manipulation_targetAtFixation,jsons/VE125_randls_54_rotated.json,http://54.235.29.9/FacialAge/BNav_EC2/DepthDuration/v2_depth_duration_MTurk/v2_DepthDuration_HTML.html#153,153,702,259,1366,768,9-4-2022,8-19-33,6,depth_duration_stimuli/001133_2014-06-17_14-49-16_260595134347_rgbf000100-resize_0/001133_2014-06-17_14-49-16_260595134347_rgbf000100-resize_0-target.png,125,4.2115,1,8794,116,meters,jsons/VE125_randls_54_rotated.json,1810344,2255245,35,Woman
6,250416,DepthScenes,duration_manipulation_targetAtFixation,jsons/VE125_randls_54_rotated.json,http://54.235.29.9/FacialAge/BNav_EC2/DepthDuration/v2_depth_duration_MTurk/v2_DepthDuration_HTML.html#153,153,702,259,1366,768,9-4-2022,8-19-33,7,depth_duration_stimuli/001235_2014-06-17_16-37-36_260595134347_rgbf000084-resize_4/001235_2014-06-17_16-37-36_260595134347_rgbf000084-resize_4-target.png,125,3.6605,2,9789,135,meters,jsons/VE125_randls_54_rotated.json,1810344,2255245,35,Woman
7,250416,DepthScenes,duration_manipulation_targetAtFixation,jsons/VE125_randls_54_rotated.json,http://54.235.29.9/FacialAge/BNav_EC2/DepthDuration/v2_depth_duration_MTurk/v2_DepthDuration_HTML.html#153,153,702,259,1366,768,9-4-2022,8-19-33,8,depth_duration_stimuli/000788_2014-06-08_22-34-36_260595134347_rgbf000131-resize_1/000788_2014-06-08_22-34-36_260595134347_rgbf000131-resize_1-target.png,125,3.359,1,8835,120,meters,jsons/VE125_randls_54_rotated.json,1810344,2255245,35,Woman
8,250416,DepthScenes,duration_manipulation_targetAtFixation,jsons/VE125_randls_54_rotated.json,http://54.235.29.9/FacialAge/BNav_EC2/DepthDuration/v2_depth_duration_MTurk/v2_DepthDuration_HTML.html#153,153,702,259,1366,768,9-4-2022,8-19-33,9,depth_duration_stimuli/001094_2014-06-15_17-36-00_260595134347_rgbf000205-resize_0/001094_2014-06-15_17-36-00_260595134347_rgbf000205-resize_0-target.png,125,4.2175,2,10254,119,meters,jsons/VE125_randls_54_rotated.json,1810344,2255245,35,Woman
9,250416,DepthScenes,duration_manipulation_targetAtFixation,jsons/VE125_randls_54_rotated.json,http://54.235.29.9/FacialAge/BNav_EC2/DepthDuration/v2_depth_duration_MTurk/v2_DepthDuration_HTML.html#153,153,702,259,1366,768,9-4-2022,8-19-33,10,depth_duration_stimuli/000692_2014-06-08_13-09-42_260595134347_rgbf000199-resize_2/000692_2014-06-08_13-09-42_260595134347_rgbf000199-resize_2-target.png,125,3.661,1,12698,123,meters,jsons/VE125_randls_54_rotated.json,1810344,2255245,35,Woman
10,250416,DepthScenes,duration_manipulation_targetAtFixation,jsons/VE125_randls_54_rotated.json,http://54.235.29.9/FacialAge/BNav_EC2/DepthDuration/v2_depth_duration_MTurk/v2_DepthDuration_HTML.html#153,153,702,259,1366,768,9-4-2022,8-19-33,11,depth_duration_stimuli/001571_2014-06-20_17-21-32_260595134347_rgbf000089-resize_1/001571_2014-06-20_17-21-32_260595134347_rgbf000089-resize_1-target.png,125,1.86,1,18277,238,meters,jsons/VE125_randls_54_rotated.json,1810344,2255245,35,Woman
11,250416,DepthScenes,duration_manipulation_targetAtFixation,jsons/VE125_randls_54_rotated.json,http://54.235.29.9/FacialAge/BNav_EC2/DepthDuration/v2_depth_duration_MTurk/v2_DepthDuration_HTML.html#153,153,702,259,1366,768,9-4-2022,8-19-33,12,depth_duration_stimuli/002272_2014-06-28_18-53-56_260595134347_rgbf000067-resize_2/002272_2014-06-28_18-53-56_260595134347_rgbf000067-resize_2-target.png,125,1.138,1,7261,118,meters,jsons/VE125_randls_54_rotated.json,1810344,2255245,35,Woman
12,250416,DepthScenes,duration_manipulation_targetAtFixation,jsons/VE125_randls_54_rotated.json,http://54.235.29.9/FacialAge/BNav_EC2/DepthDuration/v2_depth_duration_MTurk/v2_DepthDuration_HTML.html#153,153,702,259,1366,768,9-4-2022,8-19-33,13,depth_duration_stimuli/000191_2014-05-12_17-07-38_260595134347_rgbf000199-resize_0/000191_2014-05-12_17-07-38_260595134347_rgbf000199-resize_0-target.png,125,3.7995,1,8723,119,meters,jsons/VE125_randls_54_rotated.json,1810344,2255245,35,Woman
13,250416,DepthScenes,duration_manipulation_targetAtFixation,jsons/VE125_randls_54_rotated.json,http://54.235.29.9/FacialAge/BNav_EC2/DepthDuration/v2_depth_duration_MTurk/v2_DepthDuration_HTML.html#153,153,702,259,1366,768,9-4-2022,8-19-33,14,depth_duration_stimuli/000493_2014-06-09_21-01-18_260595134347_rgbf000196-resize_3/000493_2014-06-09_21-01-18_260595134347_rgbf000196-resize_3-target.png,125,3.44,1,9617,136,meters,jsons/VE125_randls_54_rotated.json,1810344,2255245,35,Woman
14,250416,DepthScenes,duration_manipulation_targetAtFixation,jsons/VE125_randls_54_rotated.json,http://54.235.29.9/FacialAge/BNav_EC2/DepthDuration/v2_depth_duration_MTurk/v2_DepthDuration_HTML.html#153,153,702,259,1366,768,9-4-2022,8-19-33,15,depth_duration_stimuli/000780_2014-06-08_22-28-29_260595134347_rgbf000126-resize_1/000780_2014-06-08_22-28-29_260595134347_rgbf000126-resize_1-target.png,125,3.3825,1,12874,119,meters,jsons/VE125_randls_54_rotated.json,1810344,2255245,35,Woman
15,250416,DepthScenes,duration_manipulation_targetAtFixation,jsons/VE125_randls_54_rotated.json,http://54.235.29.9/FacialAge/BNav_EC2/DepthDuration/v2_depth_duration_MTurk/v2_DepthDuration_HTML.html#153,153,702,259,1366,768,9-4-2022,8-19-33,16,depth_duration_stimuli/002445_2014-06-28_20-32-16_260595134347_rgbf000029-resize_4/002445_2014-06-28_20-32-16_260595134347_rgbf000029-resize_4-target.png,125,2.5315,1,12802,120,meters,jsons/VE125_randls_54_rotated.json,1810344,2255245,35,Woman
16,250416,DepthScenes,duration_manipulation_targetAtFixation,jsons/VE125_randls_54_rotated.json,http://54.235.29.9/FacialAge/BNav_EC2/DepthDuration/v2_depth_duration_MTurk/v2_DepthDuration_HTML.html#153,153,702,259,1366,768,9-4-2022,8-19-33,17,depth_duration_stimuli/000109_2014-05-14_23-41-52_260595134347_rgbf000035-resize_9/000109_2014-05-14_23-41-52_260595134347_rgbf000035-resize_9-target.png,125,1.3545,1,8826,299,meters,jsons/VE125_randls_54_rotated.json,1810344,2255245,35,Woman
17,250416,DepthScenes,duration_manipulation_targetAtFixation,jsons/VE125_randls_54_rotated.json,http://54.235.29.9/FacialAge/BNav_EC2/DepthDuration/v2_depth_duration_MTurk/v2_DepthDuration_HTML.html#153,153,702,259,1366,768,9-4-2022,8-19-33,18,depth_duration_stimuli/000470_2014-06-09_19-42-40_260595134347_rgbf000094-resize_1/000470_2014-06-09_19-42-40_260595134347_rgbf000094-resize_1-target.png,125,1.831,1,10306,120,meters,jsons/VE125_randls_54_rotated.json,1810344,2255245,35,Woman
18,250416,DepthScenes,duration_manipulation_targetAtFixation,jsons/VE125_randls_54_rotated.json,http://54.235.29.9/FacialAge/BNav_EC2/DepthDuration/v2_depth_duration_MTurk/v2_DepthDuration_HTML.html#153,153,702,259,1366,768,9-4-2022,8-19-33,19,depth_duration_stimuli/001498_2014-06-19_17-45-14_260595134347_rgbf000129-resize_4/001498_2014-06-19_17-45-14_260595134347_rgbf000129-resize-original.jpg,125,1.4075,2,8146,133,meters,jsons/VE125_randls_54_rotated.json,1810344,2255245,35,Woman
19,250416,DepthScenes,duration_manipulation_targetAtFixation,jsons/VE125_randls_54_rotated.json,http://54.235.29.9/FacialAge/BNav_EC2/DepthDuration/v2_depth_duration_MTurk/v2_DepthDuration_HTML.html#153,153,702,259,1366,768,9-4-2022,8-19-33,20,depth_duration_stimuli/003010_2014-06-15_12-54-35_094959634447_rgbf000112-resize_0/003010_2014-06-15_12-54-35_094959634447_rgbf000112-resize_0-target.png,125,3.1185,2,12427,282,meters,jsons/VE125_randls_54_rotated.json,1810344,2255245,35,Woman
20,250416,DepthScenes,duration_manipulation_targetAtFixation,jsons/VE125_randls_54_rotated.json,http://54.235.29.9/FacialAge/BNav_EC2/DepthDuration/v2_depth_duration_MTurk/v2_DepthDuration_HTML.html#153,153,702,259,1366,768,9-4-2022,8-19-33,21,depth_duration_stimuli/001810_2014-06-26_20-51-35_260595134347_rgbf000040-resize_3/001810_2014-06-26_20-51-35_260595134347_rgbf000040-resize_3-target.png,125,2.2525,1,10424,123,meters,jsons/VE125_randls_54_rotated.json,1810344,2255245,35,Woman
21,250416,DepthScenes,duration_manipulation_targetAtFixation,jsons/VE125_randls_54_rotated.json,http://54.235.29.9/FacialAge/BNav_EC2/DepthDuration/v2_depth_duration_MTurk/v2_DepthDuration_HTML.html#153,153,702,259,1366,768,9-4-2022,8-19-33,22,depth_duration_stimuli/001392_2014-06-19_16-07-59_260595134347_rgbf000046-resize_1/001392_2014-06-19_16-07-59_260595134347_rgbf000046-resize_1-target.png,125,4.135,1,8874,174,meters,jsons/VE125_randls_54_rotated.json,1810344,2255245,35,Woman
22,250416,DepthScenes,duration_manipulation_targetAtFixation,jsons/VE125_randls_54_rotated.json,http://54.235.29.9/FacialAge/BNav_EC2/DepthDuration/v2_depth_duration_MTurk/v2_DepthDuration_HTML.html#153,153,702,259,1366,768,9-4-2022,8-19-33,23,depth_duration_stimuli/001570_2014-06-20_17-21-09_260595134347_rgbf000135-resize_4/001570_2014-06-20_17-21-09_260595134347_rgbf000135-resize_4-target.png,125,4.467,1,8246,103,meters,jsons/VE125_randls_54_rotated.json,1810344,2255245,35,Woman
23,250416,DepthScenes,duration_manipulation_targetAtFixation,jsons/VE125_randls_54_rotated.json,http://54.235.29.9/FacialAge/BNav_EC2/DepthDuration/v2_depth_duration_MTurk/v2_DepthDuration_HTML.html#153,153,702,259,1366,768,9-4-2022,8-19-33,24,depth_duration_stimuli/000943_2014-06-09_19-31-07_260595134347_rgbf000128-resize_1/000943_2014-06-09_19-31-07_260595134347_rgbf000128-resize_1-target.png,125,1.9765,1,9125,120,meters,jsons/VE125_randls_54_rotated.json,1810344,2255245,35,Woman
24,250416,DepthScenes,duration_manipulation_targetAtFixation,jsons/VE125_randls_54_rotated.json,http://54.235.29.9/FacialAge/BNav_EC2/DepthDuration/v2_depth_duration_MTurk/v2_DepthDuration_HTML.html#153,153,702,259,1366,768,9-4-2022,8-19-33,25,depth_duration_stimuli/003070_2014-06-15_14-58-27_094959634447_rgbf000150-resize_3/003070_2014-06-15_14-58-27_094959634447_rgbf000150-resize_3-target.png,125,2.9415,1,8353,132,meters,jsons/VE125_randls_54_rotated.json,1810344,2255245,35,Woman
25,250416,DepthScenes,duration_manipulation_targetAtFixation,jsons/VE125_randls_54_rotated.json,http://54.235.29.9/FacialAge/BNav_EC2/DepthDuration/v2_depth_duration_MTurk/v2_DepthDuration_HTML.html#153,153,702,259,1366,768,9-4-2022,8-19-33,26,depth_duration_stimuli/003338_2014-05-20_11-01-23_094959634447_rgbf000051-resize_6/003338_2014-05-20_11-01-23_094959634447_rgbf000051-resize_6-target.png,125,1.693,1,14618,125,meters,jsons/VE125_randls_54_rotated.json,1810344,2255245,35,Woman
26,250416,DepthScenes,duration_manipulation_targetAtFixation,jsons/VE125_randls_54_rotated.json,http://54.235.29.9/FacialAge/BNav_EC2/DepthDuration/v2_depth_duration_MTurk/v2_DepthDuration_HTML.html#153,153,702,259,1366,768,9-4-2022,8-19-33,27,depth_duration_stimuli/002509_2014-06-24_13-19-22_094959634447_rgbf000077-resize_0/002509_2014-06-24_13-19-22_094959634447_rgbf000077-resize_0-target.png,125,1.3065,1,10313,125,meters,jsons/VE125_randls_54_rotated.json,1810344,2255245,35,Woman
27,250416,DepthScenes,duration_manipulation_targetAtFixation,jsons/VE125_randls_54_rotated.json,http://54.235.29.9/FacialAge/BNav_EC2/DepthDuration/v2_depth_duration_MTurk/v2_DepthDuration_HTML.html#153,153,702,259,1366,768,9-4-2022,8-19-33,28,depth_duration_stimuli/002657_2014-06-13_15-29-54_094959634447_rgbf000150-resize_1/002657_2014-06-13_15-29-54_094959634447_rgbf000150-resize_1-target.png,125,4.919,1,10712,123,meters,jsons/VE125_randls_54_rotated.json,1810344,2255245,35,Woman
28,250416,DepthScenes,duration_manipulation_targetAtFixation,jsons/VE125_randls_54_rotated.json,http://54.235.29.9/FacialAge/BNav_EC2/DepthDuration/v2_depth_duration_MTurk/v2_DepthDuration_HTML.html#153,153,702,259,1366,768,9-4-2022,8-19-33,29,depth_duration_stimuli/002375_2014-06-28_20-13-44_260595134347_rgbf000032-resize_1/002375_2014-06-28_20-13-44_260595134347_rgbf000032-resize_1-target.png,125,4.0175,1,11220,127,meters,jsons/VE125_randls_54_rotated.json,1810344,2255245,35,Woman
29,250416,DepthScenes,duration_manipulation_targetAtFixation,jsons/VE125_randls_54_rotated.json,http://54.235.29.9/FacialAge/BNav_EC2/DepthDuration/v2_depth_duration_MTurk/v2_DepthDuration_HTML.html#153,153,702,259,1366,768,9-4-2022,8-19-33,30,depth_duration_stimuli/002072_2014-06-24_21-48-06_260595134347_rgbf000115-resize_0/002072_2014-06-24_21-48-06_260595134347_rgbf000115-resize-original.jpg,125,4.702,2,23241,127,meters,jsons/VE125_randls_54_rotated.json,1810344,2255245,35,Woman
30,250416,DepthScenes,duration_manipulation_targetAtFixation,jsons/VE125_randls_54_rotated.json,http://54.235.29.9/FacialAge/BNav_EC2/DepthDuration/v2_depth_duration_MTurk/v2_DepthDuration_HTML.html#153,153,702,259,1366,768,9-4-2022,8-19-33,31,depth_duration_stimuli/000502_2014-06-08_23-02-32_260595134347_rgbf000063-resize_4/000502_2014-06-08_23-02-32_260595134347_rgbf000063-resize_4-target.png,125,2.431,1,9947,125,meters,jsons/VE125_randls_54_rotated.json,1810344,2255245,35,Woman
31,250416,DepthScenes,duration_manipulation_targetAtFixation,jsons/VE125_randls_54_rotated.json,http://54.235.29.9/FacialAge/BNav_EC2/DepthDuration/v2_depth_duration_MTurk/v2_DepthDuration_HTML.html#153,153,702,259,1366,768,9-4-2022,8-19-33,32,depth_duration_stimuli/001199_2014-06-17_16-03-48_260595134347_rgbf000077-resize_0/001199_2014-06-17_16-03-48_260595134347_rgbf000077-resize_0-target.png,125,3.4375,1,9936,123,meters,jsons/VE125_randls_54_rotated.json,1810344,2255245,35,Woman
32,250416,DepthScenes,duration_manipulation_targetAtFixation,jsons/VE125_randls_54_rotated.json,http://54.235.29.9/FacialAge/BNav_EC2/DepthDuration/v2_depth_duration_MTurk/v2_DepthDuration_HTML.html#153,153,702,259,1366,768,9-4-2022,8-19-33,33,depth_duration_stimuli/001828_2014-06-26_21-40-03_260595134347_rgbf000024-resize_0/001828_2014-06-26_21-40-03_260595134347_rgbf000024-resize_0-target.png,125,4.8260000000000005,1,8859,123,meters,jsons/VE125_randls_54_rotated.json,1810344,2255245,35,Woman
33,250416,DepthScenes,duration_manipulation_targetAtFixation,jsons/VE125_randls_54_rotated.json,http://54.235.29.9/FacialAge/BNav_EC2/DepthDuration/v2_depth_duration_MTurk/v2_DepthDuration_HTML.html#153,153,702,259,1366,768,9-4-2022,8-19-33,34,depth_duration_stimuli/000009_2014-05-26_14-32-05_260595134347_rgbf000034-resize_3/000009_2014-05-26_14-32-05_260595134347_rgbf000034-resize_3-target.png,125,3.8715,1,8967,128,meters,jsons/VE125_randls_54_rotated.json,1810344,2255245,35,Woman
34,250416,DepthScenes,duration_manipulation_targetAtFixation,jsons/VE125_randls_54_rotated.json,http://54.235.29.9/FacialAge/BNav_EC2/DepthDuration/v2_depth_duration_MTurk/v2_DepthDuration_HTML.html#153,153,702,259,1366,768,9-4-2022,8-19-33,35,depth_duration_stimuli/003587_2014-05-23_16-48-02_094959634447_rgbf002384-resize_2/003587_2014-05-23_16-48-02_094959634447_rgbf002384-resize_2-target.png,125,1.357,1,9733,98,meters,jsons/VE125_randls_54_rotated.json,1810344,2255245,35,Woman
35,250416,DepthScenes,duration_manipulation_targetAtFixation,jsons/VE125_randls_54_rotated.json,http://54.235.29.9/FacialAge/BNav_EC2/DepthDuration/v2_depth_duration_MTurk/v2_DepthDuration_HTML.html#153,153,702,259,1366,768,9-4-2022,8-19-33,36,depth_duration_stimuli/001167_2014-06-17_15-38-07_260595134347_rgbf000108-resize_0/001167_2014-06-17_15-38-07_260595134347_rgbf000108-resize_0-target.png,125,1.8505,1,11614,120,meters,jsons/VE125_randls_54_rotated.json,1810344,2255245,35,Woman
36,250416,DepthScenes,duration_manipulation_targetAtFixation,jsons/VE125_randls_54_rotated.json,http://54.235.29.9/FacialAge/BNav_EC2/DepthDuration/v2_depth_duration_MTurk/v2_DepthDuration_HTML.html#153,153,702,259,1366,768,9-4-2022,8-19-33,37,depth_duration_stimuli/001032_2014-06-08_13-23-17_260595134347_rgbf000021-resize_3/001032_2014-06-08_13-23-17_260595134347_rgbf000021-resize_3-target.png,125,3.2725,1,9716,122,meters,jsons/VE125_randls_54_rotated.json,1810344,2255245,35,Woman
37,250416,DepthScenes,duration_manipulation_targetAtFixation,jsons/VE125_randls_54_rotated.json,http://54.235.29.9/FacialAge/BNav_EC2/DepthDuration/v2_depth_duration_MTurk/v2_DepthDuration_HTML.html#153,153,702,259,1366,768,9-4-2022,8-19-33,38,depth_duration_stimuli/001059_2014-06-08_21-53-27_260595134347_rgbf000061-resize_4/001059_2014-06-08_21-53-27_260595134347_rgbf000061-resize_4-target.png,125,2.4185,1,8942,123,meters,jsons/VE125_randls_54_rotated.json,1810344,2255245,35,Woman
38,250416,DepthScenes,duration_manipulation_targetAtFixation,jsons/VE125_randls_54_rotated.json,http://54.235.29.9/FacialAge/BNav_EC2/DepthDuration/v2_depth_duration_MTurk/v2_DepthDuration_HTML.html#153,153,702,259,1366,768,9-4-2022,8-19-33,39,depth_duration_stimuli/002953_2014-06-08_17-32-18_094959634447_rgbf000059-resize_5/002953_2014-06-08_17-32-18_094959634447_rgbf000059-resize_5-target.png,125,1.551,2,9786,313,meters,jsons/VE125_randls_54_rotated.json,1810344,2255245,35,Woman
39,250416,DepthScenes,duration_manipulation_targetAtFixation,jsons/VE125_randls_54_rotated.json,http://54.235.29.9/FacialAge/BNav_EC2/DepthDuration/v2_depth_duration_MTurk/v2_DepthDuration_HTML.html#153,153,702,259,1366,768,9-4-2022,8-19-33,40,depth_duration_stimuli/000878_2014-06-08_22-52-45_260595134347_rgbf000045-resize_2/000878_2014-06-08_22-52-45_260595134347_rgbf000045-resize_2-target.png,125,2.092,1,9503,163,meters,jsons/VE125_randls_54_rotated.json,1810344,2255245,35,Woman
40,250416,DepthScenes,duration_manipulation_targetAtFixation,jsons/VE125_randls_54_rotated.json,http://54.235.29.9/FacialAge/BNav_EC2/DepthDuration/v2_depth_duration_MTurk/v2_DepthDuration_HTML.html#153,153,702,259,1366,768,9-4-2022,8-19-33,41,depth_duration_stimuli/000691_2014-06-08_13-08-50_260595134347_rgbf000132-resize_3/000691_2014-06-08_13-08-50_260595134347_rgbf000132-resize_3-target.png,125,4.1530000000000005,1,10289,125,meters,jsons/VE125_randls_54_rotated.json,1810344,2255245,35,Woman
41,250416,DepthScenes,duration_manipulation_targetAtFixation,jsons/VE125_randls_54_rotated.json,http://54.235.29.9/FacialAge/BNav_EC2/DepthDuration/v2_depth_duration_MTurk/v2_DepthDuration_HTML.html#153,153,702,259,1366,768,9-4-2022,8-19-33,42,depth_duration_stimuli/002213_2014-06-28_18-37-58_260595134347_rgbf000055-resize_1/002213_2014-06-28_18-37-58_260595134347_rgbf000055-resize_1-target.png,125,3.62,1,8425,121,meters,jsons/VE125_randls_54_rotated.json,1810344,2255245,35,Woman
42,250416,DepthScenes,duration_manipulation_targetAtFixation,jsons/VE125_randls_54_rotated.json,http://54.235.29.9/FacialAge/BNav_EC2/DepthDuration/v2_depth_duration_MTurk/v2_DepthDuration_HTML.html#153,153,702,259,1366,768,9-4-2022,8-19-33,43,depth_duration_stimuli/000103_2014-05-14_22-01-17_260595134347_rgbf000152-resize_5/000103_2014-05-14_22-01-17_260595134347_rgbf000152-resize_5-target.png,125,1.993,2,9292,291,meters,jsons/VE125_randls_54_rotated.json,1810344,2255245,35,Woman
43,250416,DepthScenes,duration_manipulation_targetAtFixation,jsons/VE125_randls_54_rotated.json,http://54.235.29.9/FacialAge/BNav_EC2/DepthDuration/v2_depth_duration_MTurk/v2_DepthDuration_HTML.html#153,153,702,259,1366,768,9-4-2022,8-19-33,44,depth_duration_stimuli/001555_2014-06-20_17-12-10_260595134347_rgbf000065-resize_4/001555_2014-06-20_17-12-10_260595134347_rgbf000065-resize_4-target.png,125,1.633,2,8717,303,meters,jsons/VE125_randls_54_rotated.json,1810344,2255245,35,Woman
44,250416,DepthScenes,duration_manipulation_targetAtFixation,jsons/VE125_randls_54_rotated.json,http://54.235.29.9/FacialAge/BNav_EC2/DepthDuration/v2_depth_duration_MTurk/v2_DepthDuration_HTML.html#153,153,702,259,1366,768,9-4-2022,8-19-33,45,depth_duration_stimuli/002323_2014-06-28_20-01-54_260595134347_rgbf000051-resize_4/002323_2014-06-28_20-01-54_260595134347_rgbf000051-resize_4-target.png,125,3.7310000000000003,1,24465,315,meters,jsons/VE125_randls_54_rotated.json,1810344,2255245,35,Woman
45,250416,DepthScenes,duration_manipulation_targetAtFixation,jsons/VE125_randls_54_rotated.json,http://54.235.29.9/FacialAge/BNav_EC2/DepthDuration/v2_depth_duration_MTurk/v2_DepthDuration_HTML.html#153,153,702,259,1366,768,9-4-2022,8-19-33,46,depth_duration_stimuli/000917_2014-06-09_22-45-29_260595134347_rgbf000149-resize_3/000917_2014-06-09_22-45-29_260595134347_rgbf000149-resize_3-target.png,125,4.1865,1,9286,116,meters,jsons/VE125_randls_54_rotated.json,1810344,2255245,35,Woman
46,250416,DepthScenes,duration_manipulation_targetAtFixation,jsons/VE125_randls_54_rotated.json,http://54.235.29.9/FacialAge/BNav_EC2/DepthDuration/v2_depth_duration_MTurk/v2_DepthDuration_HTML.html#153,153,702,259,1366,768,9-4-2022,8-19-33,47,depth_duration_stimuli/001214_2014-06-17_16-13-55_260595134347_rgbf000111-resize_0/001214_2014-06-17_16-13-55_260595134347_rgbf000111-resize_0-target.png,125,2.6505,1,8570,115,meters,jsons/VE125_randls_54_rotated.json,1810344,2255245,35,Woman
47,250416,DepthScenes,duration_manipulation_targetAtFixation,jsons/VE125_randls_54_rotated.json,http://54.235.29.9/FacialAge/BNav_EC2/DepthDuration/v2_depth_duration_MTurk/v2_DepthDuration_HTML.html#153,153,702,259,1366,768,9-4-2022,8-19-33,48,depth_duration_stimuli/000810_2014-06-08_17-20-01_260595134347_rgbf000105-resize_0/000810_2014-06-08_17-20-01_260595134347_rgbf000105-resize_0-target.png,125,1.4865,2,15234,83,meters,jsons/VE125_randls_54_rotated.json,1810344,2255245,35,Woman
48,250416,DepthScenes,duration_manipulation_targetAtFixation,jsons/VE125_randls_54_rotated.json,http://54.235.29.9/FacialAge/BNav_EC2/DepthDuration/v2_depth_duration_MTurk/v2_DepthDuration_HTML.html#153,153,702,259,1366,768,9-4-2022,8-19-33,49,depth_duration_stimuli/001170_2014-06-17_15-43-44_260595134347_rgbf000096-resize_6/001170_2014-06-17_15-43-44_260595134347_rgbf000096-resize-original.jpg,125,1.1909999999999998,1,11189,123,meters,jsons/VE125_randls_54_rotated.json,1810344,2255245,35,Woman
49,250416,DepthScenes,duration_manipulation_targetAtFixation,jsons/VE125_randls_54_rotated.json,http://54.235.29.9/FacialAge/BNav_EC2/DepthDuration/v2_depth_duration_MTurk/v2_DepthDuration_HTML.html#153,153,702,259,1366,768,9-4-2022,8-19-33,50,depth_duration_stimuli/002103_2014-06-25_20-00-40_260595134347_rgbf000049-resize_0/002103_2014-06-25_20-00-40_260595134347_rgbf000049-resize_0-target.png,125,4.105,1,9889,123,meters,jsons/VE125_randls_54_rotated.json,1810344,2255245,35,Woman
50,250416,DepthScenes,duration_manipulation_targetAtFixation,jsons/VE125_randls_54_rotated.json,http://54.235.29.9/FacialAge/BNav_EC2/DepthDuration/v2_depth_duration_MTurk/v2_DepthDuration_HTML.html#153,153,702,259,1366,768,9-4-2022,8-19-33,51,depth_duration_stimuli/002039_2014-06-24_20-22-38_260595134347_rgbf000084-resize_1/002039_2014-06-24_20-22-38_260595134347_rgbf000084-resize_1-target.png,125,4.408,2,11501,121,meters,jsons/VE125_randls_54_rotated.json,1810344,2255245,35,Woman
51,250416,DepthScenes,duration_manipulation_targetAtFixation,jsons/VE125_randls_54_rotated.json,http://54.235.29.9/FacialAge/BNav_EC2/DepthDuration/v2_depth_duration_MTurk/v2_DepthDuration_HTML.html#153,153,702,259,1366,768,9-4-2022,8-19-33,52,depth_duration_stimuli/000665_2014-06-09_20-42-35_260595134347_rgbf000110-resize_1/000665_2014-06-09_20-42-35_260595134347_rgbf000110-resize_1-target.png,125,3.057,2,11557,134,meters,jsons/VE125_randls_54_rotated.json,1810344,2255245,35,Woman
52,250416,DepthScenes,duration_manipulation_targetAtFixation,jsons/VE125_randls_54_rotated.json,http://54.235.29.9/FacialAge/BNav_EC2/DepthDuration/v2_depth_duration_MTurk/v2_DepthDuration_HTML.html#153,153,702,259,1366,768,9-4-2022,8-19-33,53,depth_duration_stimuli/001150_2014-06-17_15-27-34_260595134347_rgbf000108-resize_2/001150_2014-06-17_15-27-34_260595134347_rgbf000108-resize_2-target.png,125,4.0325,1,12800,127,meters,jsons/VE125_randls_54_rotated.json,1810344,2255245,35,Woman
53,250416,DepthScenes,duration_manipulation_targetAtFixation,jsons/VE125_randls_54_rotated.json,http://54.235.29.9/FacialAge/BNav_EC2/DepthDuration/v2_depth_duration_MTurk/v2_DepthDuration_HTML.html#153,153,702,259,1366,768,9-4-2022,8-19-33,54,depth_duration_stimuli/001052_2014-06-08_18-24-54_260595134347_rgbf000130-resize_1/001052_2014-06-08_18-24-54_260595134347_rgbf000130-resize_1-target.png,125,4.1045,2,9200,124,meters,jsons/VE125_randls_54_rotated.json,1810344,2255245,35,Woman
54,250416,DepthScenes,duration_manipulation_targetAtFixation,jsons/VE125_randls_54_rotated.json,http://54.235.29.9/FacialAge/BNav_EC2/DepthDuration/v2_depth_duration_MTurk/v2_DepthDuration_HTML.html#153,153,702,259,1366,768,9-4-2022,8-19-33,55,depth_duration_stimuli/002988_2014-06-15_12-24-20_094959634447_rgbf000150-resize_1/002988_2014-06-15_12-24-20_094959634447_rgbf000150-resize_1-target.png,125,4.7669999999999995,2,9586,127,meters,jsons/VE125_randls_54_rotated.json,1810344,2255245,35,Woman
55,250416,DepthScenes,duration_manipulation_targetAtFixation,jsons/VE125_randls_54_rotated.json,http://54.235.29.9/FacialAge/BNav_EC2/DepthDuration/v2_depth_duration_MTurk/v2_DepthDuration_HTML.html#153,153,702,259,1366,768,9-4-2022,8-19-33,56,depth_duration_stimuli/000409_2014-06-04_19-23-33_260595134347_rgbf000067-resize_0/000409_2014-06-04_19-23-33_260595134347_rgbf000067-resize_0-target.png,125,3.7335,1,10593,125,meters,jsons/VE125_randls_54_rotated.json,1810344,2255245,35,Woman
56,250416,DepthScenes,duration_manipulation_targetAtFixation,jsons/VE125_randls_54_rotated.json,http://54.235.29.9/FacialAge/BNav_EC2/DepthDuration/v2_depth_duration_MTurk/v2_DepthDuration_HTML.html#153,153,702,259,1366,768,9-4-2022,8-19-33,57,depth_duration_stimuli/002663_2014-06-13_15-50-26_094959634447_rgbf000075-resize_1/002663_2014-06-13_15-50-26_094959634447_rgbf000075-resize_1-target.png,125,4.7495,2,10418,127,meters,jsons/VE125_randls_54_rotated.json,1810344,2255245,35,Woman
57,250416,DepthScenes,duration_manipulation_targetAtFixation,jsons/VE125_randls_54_rotated.json,http://54.235.29.9/FacialAge/BNav_EC2/DepthDuration/v2_depth_duration_MTurk/v2_DepthDuration_HTML.html#153,153,702,259,1366,768,9-4-2022,8-19-33,58,depth_duration_stimuli/002949_2014-06-26_15-57-42_094959634447_rgbf000079-resize_1/002949_2014-06-26_15-57-42_094959634447_rgbf000079-resize_1-target.png,125,1.8915,2,38586,112,meters,jsons/VE125_randls_54_rotated.json,1810344,2255245,35,Woman
58,250416,DepthScenes,duration_manipulation_targetAtFixation,jsons/VE125_randls_54_rotated.json,http://54.235.29.9/FacialAge/BNav_EC2/DepthDuration/v2_depth_duration_MTurk/v2_DepthDuration_HTML.html#153,153,702,259,1366,768,9-4-2022,8-19-33,59,depth_duration_stimuli/000522_2014-06-08_13-35-06_260595134347_rgbf000244-resize_1/000522_2014-06-08_13-35-06_260595134347_rgbf000244-resize_1-target.png,125,2.3715,1,9187,121,meters,jsons/VE125_randls_54_rotated.json,1810344,2255245,35,Woman
59,250416,DepthScenes,duration_manipulation_targetAtFixation,jsons/VE125_randls_54_rotated.json,http://54.235.29.9/FacialAge/BNav_EC2/DepthDuration/v2_depth_duration_MTurk/v2_DepthDuration_HTML.html#153,153,702,259,1366,768,9-4-2022,8-19-33,60,depth_duration_stimuli/000866_2014-06-09_20-45-42_260595134347_rgbf000139-resize_1/000866_2014-06-09_20-45-42_260595134347_rgbf000139-resize_1-target.png,125,3.2155,2,23745,45,meters,jsons/VE125_randls_54_rotated.json,1810344,2255245,35,Woman
60,250416,DepthScenes,duration_manipulation_targetAtFixation,jsons/VE125_randls_54_rotated.json,http://54.235.29.9/FacialAge/BNav_EC2/DepthDuration/v2_depth_duration_MTurk/v2_DepthDuration_HTML.html#153,153,702,259,1366,768,9-4-2022,8-19-33,61,depth_duration_stimuli/002989_2014-06-15_12-25-03_094959634447_rgbf000150-resize_3/002989_2014-06-15_12-25-03_094959634447_rgbf000150-resize_3-target.png,125,4.1975,1,8937,113,meters,jsons/VE125_randls_54_rotated.json,1810344,2255245,35,Woman
61,250416,DepthScenes,duration_manipulation_targetAtFixation,jsons/VE125_randls_54_rotated.json,http://54.235.29.9/FacialAge/BNav_EC2/DepthDuration/v2_depth_duration_MTurk/v2_DepthDuration_HTML.html#153,153,702,259,1366,768,9-4-2022,8-19-33,62,depth_duration_stimuli/000927_2014-06-09_16-32-30_260595134347_rgbf000123-resize_3/000927_2014-06-09_16-32-30_260595134347_rgbf000123-resize_3-target.png,125,2.6785,1,9363,124,meters,jsons/VE125_randls_54_rotated.json,1810344,2255245,35,Woman
62,250416,DepthScenes,duration_manipulation_targetAtFixation,jsons/VE125_randls_54_rotated.json,http://54.235.29.9/FacialAge/BNav_EC2/DepthDuration/v2_depth_duration_MTurk/v2_DepthDuration_HTML.html#153,153,702,259,1366,768,9-4-2022,8-19-33,63,depth_duration_stimuli/001110_2014-06-15_17-25-28_260595134347_rgbf000150-resize_1/001110_2014-06-15_17-25-28_260595134347_rgbf000150-resize_1-target.png,125,1.7115,2,10251,126,meters,jsons/VE125_randls_54_rotated.json,1810344,2255245,35,Woman
63,250416,DepthScenes,duration_manipulation_targetAtFixation,jsons/VE125_randls_54_rotated.json,http://54.235.29.9/FacialAge/BNav_EC2/DepthDuration/v2_depth_duration_MTurk/v2_DepthDuration_HTML.html#153,153,702,259,1366,768,9-4-2022,8-19-33,64,depth_duration_stimuli/002444_2014-06-28_20-32-08_260595134347_rgbf000027-resize_0/002444_2014-06-28_20-32-08_260595134347_rgbf000027-resize_0-target.png,125,4.388999999999999,1,11177,137,meters,jsons/VE125_randls_54_rotated.json,1810344,2255245,35,Woman
64,250416,DepthScenes,duration_manipulation_targetAtFixation,jsons/VE125_randls_54_rotated.json,http://54.235.29.9/FacialAge/BNav_EC2/DepthDuration/v2_depth_duration_MTurk/v2_DepthDuration_HTML.html#153,153,702,259,1366,768,9-4-2022,8-19-33,65,depth_duration_stimuli/000436_2014-06-09_22-25-11_260595134347_rgbf000137-resize_1/000436_2014-06-09_22-25-11_260595134347_rgbf000137-resize_1-target.png,125,4.0705,1,10251,98,meters,jsons/VE125_randls_54_rotated.json,1810344,2255245,35,Woman
65,250416,DepthScenes,duration_manipulation_targetAtFixation,jsons/VE125_randls_54_rotated.json,http://54.235.29.9/FacialAge/BNav_EC2/DepthDuration/v2_depth_duration_MTurk/v2_DepthDuration_HTML.html#153,153,702,259,1366,768,9-4-2022,8-19-33,66,depth_duration_stimuli/001540_2014-06-20_17-01-05_260595134347_rgbf000086-resize_2/001540_2014-06-20_17-01-05_260595134347_rgbf000086-resize-original.jpg,125,1.459,1,11275,133,meters,jsons/VE125_randls_54_rotated.json,1810344,2255245,35,Woman
66,250416,DepthScenes,duration_manipulation_targetAtFixation,jsons/VE125_randls_54_rotated.json,http://54.235.29.9/FacialAge/BNav_EC2/DepthDuration/v2_depth_duration_MTurk/v2_DepthDuration_HTML.html#153,153,702,259,1366,768,9-4-2022,8-19-33,67,depth_duration_stimuli/001516_2014-06-20_16-25-09_260595134347_rgbf000076-resize_2/001516_2014-06-20_16-25-09_260595134347_rgbf000076-resize_2-target.png,125,1.7445,2,9936,119,meters,jsons/VE125_randls_54_rotated.json,1810344,2255245,35,Woman
67,250416,DepthScenes,duration_manipulation_targetAtFixation,jsons/VE125_randls_54_rotated.json,http://54.235.29.9/FacialAge/BNav_EC2/DepthDuration/v2_depth_duration_MTurk/v2_DepthDuration_HTML.html#153,153,702,259,1366,768,9-4-2022,8-19-33,68,depth_duration_stimuli/002118_2014-06-25_20-32-08_260595134347_rgbf000078-resize_1/002118_2014-06-25_20-32-08_260595134347_rgbf000078-resize_1-target.png,125,2.6460000000000004,1,10584,123,meters,jsons/VE125_randls_54_rotated.json,1810344,2255245,35,Woman
68,250416,DepthScenes,duration_manipulation_targetAtFixation,jsons/VE125_randls_54_rotated.json,http://54.235.29.9/FacialAge/BNav_EC2/DepthDuration/v2_depth_duration_MTurk/v2_DepthDuration_HTML.html#153,153,702,259,1366,768,9-4-2022,8-19-33,69,depth_duration_stimuli/002209_2014-06-28_18-36-10_260595134347_rgbf000051-resize_1/002209_2014-06-28_18-36-10_260595134347_rgbf000051-resize_1-target.png,125,2.057,1,9919,124,meters,jsons/VE125_randls_54_rotated.json,1810344,2255245,35,Woman
69,250416,DepthScenes,duration_manipulation_targetAtFixation,jsons/VE125_randls_54_rotated.json,http://54.235.29.9/FacialAge/BNav_EC2/DepthDuration/v2_depth_duration_MTurk/v2_DepthDuration_HTML.html#153,153,702,259,1366,768,9-4-2022,8-19-33,70,depth_duration_stimuli/002763_2014-06-22_19-13-10_094959634447_rgbf000075-resize_4/002763_2014-06-22_19-13-10_094959634447_rgbf000075-resize_4-target.png,125,1.68375,1,10068,120,meters,jsons/VE125_randls_54_rotated.json,1810344,2255245,35,Woman
70,250416,DepthScenes,duration_manipulation_targetAtFixation,jsons/VE125_randls_54_rotated.json,http://54.235.29.9/FacialAge/BNav_EC2/DepthDuration/v2_depth_duration_MTurk/v2_DepthDuration_HTML.html#153,153,702,259,1366,768,9-4-2022,8-19-33,71,depth_duration_stimuli/000734_2014-06-08_17-39-11_260595134347_rgbf000128-resize_2/000734_2014-06-08_17-39-11_260595134347_rgbf000128-resize_2-target.png,125,4.098,2,10520,124,meters,jsons/VE125_randls_54_rotated.json,1810344,2255245,35,Woman
71,250416,DepthScenes,duration_manipulation_targetAtFixation,jsons/VE125_randls_54_rotated.json,http://54.235.29.9/FacialAge/BNav_EC2/DepthDuration/v2_depth_duration_MTurk/v2_DepthDuration_HTML.html#153,153,702,259,1366,768,9-4-2022,8-19-33,72,depth_duration_stimuli/000739_2014-06-08_18-45-58_260595134347_rgbf000068-resize_1/000739_2014-06-08_18-45-58_260595134347_rgbf000068-resize_1-target.png,125,3.534,1,34795,124,meters,jsons/VE125_randls_54_rotated.json,1810344,2255245,35,Woman
72,250416,DepthScenes,duration_manipulation_targetAtFixation,jsons/VE125_randls_54_rotated.json,http://54.235.29.9/FacialAge/BNav_EC2/DepthDuration/v2_depth_duration_MTurk/v2_DepthDuration_HTML.html#153,153,702,259,1366,768,9-4-2022,8-19-33,73,depth_duration_stimuli/001584_2014-06-20_11-07-43_260595134347_rgbf000002-resize_1/001584_2014-06-20_11-07-43_260595134347_rgbf000002-resize_1-target.png,125,3.53,1,31163,117,meters,jsons/VE125_randls_54_rotated.json,1810344,2255245,35,Woman
73,250416,DepthScenes,duration_manipulation_targetAtFixation,jsons/VE125_randls_54_rotated.json,http://54.235.29.9/FacialAge/BNav_EC2/DepthDuration/v2_depth_duration_MTurk/v2_DepthDuration_HTML.html#153,153,702,259,1366,768,9-4-2022,8-19-33,74,depth_duration_stimuli/003621_2014-05-23_18-06-08_094959634447_rgbf000101-resize_1/003621_2014-05-23_18-06-08_094959634447_rgbf000101-resize_1-target.png,125,3.9835,1,108931,98,meters,jsons/VE125_randls_54_rotated.json,1810344,2255245,35,Woman
74,250416,DepthScenes,duration_manipulation_targetAtFixation,jsons/VE125_randls_54_rotated.json,http://54.235.29.9/FacialAge/BNav_EC2/DepthDuration/v2_depth_duration_MTurk/v2_DepthDuration_HTML.html#153,153,702,259,1366,768,9-4-2022,8-19-33,75,depth_duration_stimuli/002875_2014-06-01_15-19-00_094959634447_rgbf000151-resize_1/002875_2014-06-01_15-19-00_094959634447_rgbf000151-resize_1-target.png,125,1.9675,1,21516,120,meters,jsons/VE125_randls_54_rotated.json,1810344,2255245,35,Woman
75,250416,DepthScenes,duration_manipulation_targetAtFixation,jsons/VE125_randls_54_rotated.json,http://54.235.29.9/FacialAge/BNav_EC2/DepthDuration/v2_depth_duration_MTurk/v2_DepthDuration_HTML.html#153,153,702,259,1366,768,9-4-2022,8-19-33,76,depth_duration_stimuli/001011_2014-06-08_23-18-54_260595134347_rgbf000044-resize_4/001011_2014-06-08_23-18-54_260595134347_rgbf000044-resize_4-target.png,125,2.4730000000000003,1,12878,121,meters,jsons/VE125_randls_54_rotated.json,1810344,2255245,35,Woman
76,250416,DepthScenes,duration_manipulation_targetAtFixation,jsons/VE125_randls_54_rotated.json,http://54.235.29.9/FacialAge/BNav_EC2/DepthDuration/v2_depth_duration_MTurk/v2_DepthDuration_HTML.html#153,153,702,259,1366,768,9-4-2022,8-19-33,77,depth_duration_stimuli/002344_2014-06-28_20-06-29_260595134347_rgbf000030-resize_1/002344_2014-06-28_20-06-29_260595134347_rgbf000030-resize_1-target.png,125,1.5795,1,50160,136,meters,jsons/VE125_randls_54_rotated.json,1810344,2255245,35,Woman
77,250416,DepthScenes,duration_manipulation_targetAtFixation,jsons/VE125_randls_54_rotated.json,http://54.235.29.9/FacialAge/BNav_EC2/DepthDuration/v2_depth_duration_MTurk/v2_DepthDuration_HTML.html#153,153,702,259,1366,768,9-4-2022,8-19-33,78,depth_duration_stimuli/002725_2014-06-22_11-47-51_094959634447_rgbf000070-resize_1/002725_2014-06-22_11-47-51_094959634447_rgbf000070-resize_1-target.png,125,2.195,2,18495,85,meters,jsons/VE125_randls_54_rotated.json,1810344,2255245,35,Woman
78,250416,DepthScenes,duration_manipulation_targetAtFixation,jsons/VE125_randls_54_rotated.json,http://54.235.29.9/FacialAge/BNav_EC2/DepthDuration/v2_depth_duration_MTurk/v2_DepthDuration_HTML.html#153,153,702,259,1366,768,9-4-2022,8-19-33,79,depth_duration_stimuli/002136_2014-06-25_21-18-03_260595134347_rgbf000109-resize_3/002136_2014-06-25_21-18-03_260595134347_rgbf000109-resize_3-target.png,125,1.9569999999999999,2,35249,124,meters,jsons/VE125_randls_54_rotated.json,1810344,2255245,35,Woman
79,250416,DepthScenes,duration_manipulation_targetAtFixation,jsons/VE125_randls_54_rotated.json,http://54.235.29.9/FacialAge/BNav_EC2/DepthDuration/v2_depth_duration_MTurk/v2_DepthDuration_HTML.html#153,153,702,259,1366,768,9-4-2022,8-19-33,80,depth_duration_stimuli/002964_2014-06-08_17-46-11_094959634447_rgbf000091-resize_4/002964_2014-06-08_17-46-11_094959634447_rgbf000091-resize_4-target.png,125,1.6909999999999998,0,18120,135,meters,jsons/VE125_randls_54_rotated.json,1810344,2255245,35,Woman
80,250416,DepthScenes,duration_manipulation_targetAtFixation,jsons/VE125_randls_54_rotated.json,http://54.235.29.9/FacialAge/BNav_EC2/DepthDuration/v2_depth_duration_MTurk/v2_DepthDuration_HTML.html#153,153,702,259,1366,768,9-4-2022,8-19-33,81,depth_duration_stimuli/003079_2014-06-15_15-18-20_094959634447_rgbf000152-resize_8/003079_2014-06-15_15-18-20_094959634447_rgbf000152-resize_8-target.png,125,2.8775,0,7952,124,meters,jsons/VE125_randls_54_rotated.json,1810344,2255245,35,Woman
81,250416,DepthScenes,duration_manipulation_targetAtFixation,jsons/VE125_randls_54_rotated.json,http://54.235.29.9/FacialAge/BNav_EC2/DepthDuration/v2_depth_duration_MTurk/v2_DepthDuration_HTML.html#153,153,702,259,1366,768,9-4-2022,8-19-33,82,depth_duration_stimuli/000506_2014-06-08_23-21-00_260595134347_rgbf000070-resize_7/000506_2014-06-08_23-21-00_260595134347_rgbf000070-resize_7-target.png,125,4.0585,0,8371,183,meters,jsons/VE125_randls_54_rotated.json,1810344,2255245,35,Woman
82,250416,DepthScenes,duration_manipulation_targetAtFixation,jsons/VE125_randls_54_rotated.json,http://54.235.29.9/FacialAge/BNav_EC2/DepthDuration/v2_depth_duration_MTurk/v2_DepthDuration_HTML.html#153,153,702,259,1366,768,9-4-2022,8-19-33,83,depth_duration_stimuli/001136_2014-06-17_15-19-41_260595134347_rgbf000076-resize_3/001136_2014-06-17_15-19-41_260595134347_rgbf000076-resize_3-target.png,125,1.8655,0,3320,127,meters,jsons/VE125_randls_54_rotated.json,1810344,2255245,35,Woman
83,250416,DepthScenes,duration_manipulation_targetAtFixation,jsons/VE125_randls_54_rotated.json,http://54.235.29.9/FacialAge/BNav_EC2/DepthDuration/v2_depth_duration_MTurk/v2_DepthDuration_HTML.html#153,153,702,259,1366,768,9-4-2022,8-19-33,84,depth_duration_stimuli/001164_2014-06-17_15-35-46_260595134347_rgbf000085-resize_3/001164_2014-06-17_15-35-46_260595134347_rgbf000085-resize_3-target.png,125,2.354,0,7350,3,meters,jsons/VE125_randls_54_rotated.json,1810344,2255245,35,Woman
84,250416,DepthScenes,duration_manipulation_targetAtFixation,jsons/VE125_randls_54_rotated.json,http://54.235.29.9/FacialAge/BNav_EC2/DepthDuration/v2_depth_duration_MTurk/v2_DepthDuration_HTML.html#153,153,702,259,1366,768,9-4-2022,8-19-33,85,depth_duration_stimuli/002568_2014-06-24_13-59-21_094959634447_rgbf000062-resize_4/002568_2014-06-24_13-59-21_094959634447_rgbf000062-resize_4-target.png,125,3.015,0,26143,120,meters,jsons/VE125_randls_54_rotated.json,1810344,2255245,35,Woman
85,250416,DepthScenes,duration_manipulation_targetAtFixation,jsons/VE125_randls_54_rotated.json,http://54.235.29.9/FacialAge/BNav_EC2/DepthDuration/v2_depth_duration_MTurk/v2_DepthDuration_HTML.html#153,153,702,259,1366,768,9-4-2022,8-19-33,86,depth_duration_stimuli/003492_2014-05-21_15-50-55_094959634447_rgbf000828-resize_1/003492_2014-05-21_15-50-55_094959634447_rgbf000828-resize_1-target.png,125,4.06875,0,7089,89,meters,jsons/VE125_randls_54_rotated.json,1810344,2255245,35,Woman
86,250416,DepthScenes,duration_manipulation_targetAtFixation,jsons/VE125_randls_54_rotated.json,http://54.235.29.9/FacialAge/BNav_EC2/DepthDuration/v2_depth_duration_MTurk/v2_DepthDuration_HTML.html#153,153,702,259,1366,768,9-4-2022,8-19-33,87,depth_duration_stimuli/000677_2014-06-08_23-10-32_260595134347_rgbf000158-resize_6/000677_2014-06-08_23-10-32_260595134347_rgbf000158-resize_6-target.png,125,3.556,0,9403,125,meters,jsons/VE125_randls_54_rotated.json,1810344,2255245,35,Woman
87,250416,DepthScenes,duration_manipulation_targetAtFixation,jsons/VE125_randls_54_rotated.json,http://54.235.29.9/FacialAge/BNav_EC2/DepthDuration/v2_depth_duration_MTurk/v2_DepthDuration_HTML.html#153,153,702,259,1366,768,9-4-2022,8-19-33,88,depth_duration_stimuli/001029_2014-06-08_13-17-57_260595134347_rgbf000065-resize_1/001029_2014-06-08_13-17-57_260595134347_rgbf000065-resize_1-target.png,125,3.0835,0,19622,97,meters,jsons/VE125_randls_54_rotated.json,1810344,2255245,35,Woman
88,250416,DepthScenes,duration_manipulation_targetAtFixation,jsons/VE125_randls_54_rotated.json,http://54.235.29.9/FacialAge/BNav_EC2/DepthDuration/v2_depth_duration_MTurk/v2_DepthDuration_HTML.html#153,153,702,259,1366,768,9-4-2022,8-19-33,89,depth_duration_stimuli/002750_2014-06-22_19-08-03_094959634447_rgbf000094-resize_4/002750_2014-06-22_19-08-03_094959634447_rgbf000094-resize_4-target.png,125,2.354,0,8197,113,meters,jsons/VE125_randls_54_rotated.json,1810344,2255245,35,Woman
89,250416,DepthScenes,duration_manipulation_targetAtFixation,jsons/VE125_randls_54_rotated.json,http://54.235.29.9/FacialAge/BNav_EC2/DepthDuration/v2_depth_duration_MTurk/v2_DepthDuration_HTML.html#153,153,702,259,1366,768,9-4-2022,8-19-33,90,depth_duration_stimuli/002549_2014-06-24_13-41-39_094959634447_rgbf000022-resize_3/002549_2014-06-24_13-41-39_094959634447_rgbf000022-resize_3-target.png,125,1.476,0,1943,123,meters,jsons/VE125_randls_54_rotated.json,1810344,2255245,35,Woman
90,250416,DepthScenes,duration_manipulation_targetAtFixation,jsons/VE125_randls_54_rotated.json,http://54.235.29.9/FacialAge/BNav_EC2/DepthDuration/v2_depth_duration_MTurk/v2_DepthDuration_HTML.html#153,153,702,259,1366,768,9-4-2022,8-19-33,91,depth_duration_stimuli/002340_2014-06-28_20-05-46_260595134347_rgbf000113-resize_0/002340_2014-06-28_20-05-46_260595134347_rgbf000113-resize_0-target.png,125,2.4735,0,1858,123,meters,jsons/VE125_randls_54_rotated.json,1810344,2255245,35,Woman
91,250416,DepthScenes,duration_manipulation_targetAtFixation,jsons/VE125_randls_54_rotated.json,http://54.235.29.9/FacialAge/BNav_EC2/DepthDuration/v2_depth_duration_MTurk/v2_DepthDuration_HTML.html#153,153,702,259,1366,768,9-4-2022,8-19-33,92,depth_duration_stimuli/001016_2014-06-09_16-16-10_260595134347_rgbf000112-resize_5/001016_2014-06-09_16-16-10_260595134347_rgbf000112-resize_5-target.png,125,1.6565,0,1897,129,meters,jsons/VE125_randls_54_rotated.json,1810344,2255245,35,Woman
92,250416,DepthScenes,duration_manipulation_targetAtFixation,jsons/VE125_randls_54_rotated.json,http://54.235.29.9/FacialAge/BNav_EC2/DepthDuration/v2_depth_duration_MTurk/v2_DepthDuration_HTML.html#153,153,702,259,1366,768,9-4-2022,8-19-33,93,depth_duration_stimuli/000749_2014-06-08_21-55-06_260595134347_rgbf000070-resize_2/000749_2014-06-08_21-55-06_260595134347_rgbf000070-resize_2-target.png,125,2.331,0,5677,126,meters,jsons/VE125_randls_54_rotated.json,1810344,2255245,35,Woman
93,250416,DepthScenes,duration_manipulation_targetAtFixation,jsons/VE125_randls_54_rotated.json,http://54.235.29.9/FacialAge/BNav_EC2/DepthDuration/v2_depth_duration_MTurk/v2_DepthDuration_HTML.html#153,153,702,259,1366,768,9-4-2022,8-19-33,94,depth_duration_stimuli/002788_2014-06-22_19-36-03_094959634447_rgbf000088-resize_2/002788_2014-06-22_19-36-03_094959634447_rgbf000088-resize_2-target.png,125,1.6465,0,10900,123,meters,jsons/VE125_randls_54_rotated.json,1810344,2255245,35,Woman
94,250416,DepthScenes,duration_manipulation_targetAtFixation,jsons/VE125_randls_54_rotated.json,http://54.235.29.9/FacialAge/BNav_EC2/DepthDuration/v2_depth_duration_MTurk/v2_DepthDuration_HTML.html#153,153,702,259,1366,768,9-4-2022,8-19-33,95,depth_duration_stimuli/003228_2014-05-14_13-42-35_094959634447_rgbf000101-resize_1/003228_2014-05-14_13-42-35_094959634447_rgbf000101-resize_1-target.png,125,1.9680000000000002,0,6386,118,meters,jsons/VE125_randls_54_rotated.json,1810344,2255245,35,Woman
95,250416,DepthScenes,duration_manipulation_targetAtFixation,jsons/VE125_randls_54_rotated.json,http://54.235.29.9/FacialAge/BNav_EC2/DepthDuration/v2_depth_duration_MTurk/v2_DepthDuration_HTML.html#153,153,702,259,1366,768,9-4-2022,8-19-33,96,depth_duration_stimuli/002600_2014-06-24_14-27-04_094959634447_rgbf000074-resize_2/002600_2014-06-24_14-27-04_094959634447_rgbf000074-resize_2-target.png,125,2.7575,0,7414,150,meters,jsons/VE125_randls_54_rotated.json,1810344,2255245,35,Woman
96,250416,DepthScenes,duration_manipulation_targetAtFixation,jsons/VE125_randls_54_rotated.json,http://54.235.29.9/FacialAge/BNav_EC2/DepthDuration/v2_depth_duration_MTurk/v2_DepthDuration_HTML.html#153,153,702,259,1366,768,9-4-2022,8-19-33,97,depth_duration_stimuli/000556_2014-06-09_22-42-56_260595134347_rgbf000214-resize_1/000556_2014-06-09_22-42-56_260595134347_rgbf000214-resize_1-target.png,125,4.8415,0,6779,140,meters,jsons/VE125_randls_54_rotated.json,1810344,2255245,35,Woman
97,250416,DepthScenes,duration_manipulation_targetAtFixation,jsons/VE125_randls_54_rotated.json,http://54.235.29.9/FacialAge/BNav_EC2/DepthDuration/v2_depth_duration_MTurk/v2_DepthDuration_HTML.html#153,153,702,259,1366,768,9-4-2022,8-19-33,98,depth_duration_stimuli/001158_2014-06-17_15-32-16_260595134347_rgbf000138-resize_2/001158_2014-06-17_15-32-16_260595134347_rgbf000138-resize_2-target.png,125,4.5315,0,7497,127,meters,jsons/VE125_randls_54_rotated.json,1810344,2255245,35,Woman
98,250416,DepthScenes,duration_manipulation_targetAtFixation,jsons/VE125_randls_54_rotated.json,http://54.235.29.9/FacialAge/BNav_EC2/DepthDuration/v2_depth_duration_MTurk/v2_DepthDuration_HTML.html#153,153,702,259,1366,768,9-4-2022,8-19-33,99,depth_duration_stimuli/001222_2014-06-17_16-24-06_260595134347_rgbf000073-resize_0/001222_2014-06-17_16-24-06_260595134347_rgbf000073-resize-original.jpg,125,1.4385,0,2734,134,meters,jsons/VE125_randls_54_rotated.json,1810344,2255245,35,Woman
99,250416,DepthScenes,duration_manipulation_targetAtFixation,jsons/VE125_randls_54_rotated.json,http://54.235.29.9/FacialAge/BNav_EC2/DepthDuration/v2_depth_duration_MTurk/v2_DepthDuration_HTML.html#153,153,702,259,1366,768,9-4-2022,8-19-33,100,depth_duration_stimuli/001447_2014-06-19_17-00-32_260595134347_rgbf000082-resize_5/001447_2014-06-19_17-00-32_260595134347_rgbf000082-resize_5-target.png,125,4.13775,0,3503,132,meters,jsons/VE125_randls_54_rotated.json,1810344,2255245,35,Woman
100,250416,DepthScenes,duration_manipulation_targetAtFixation,jsons/VE125_randls_54_rotated.json,http://54.235.29.9/FacialAge/BNav_EC2/DepthDuration/v2_depth_duration_MTurk/v2_DepthDuration_HTML.html#153,153,702,259,1366,768,9-4-2022,8-19-33,101,depth_duration_stimuli/000447_2014-06-08_16-15-46_260595134347_rgbf000130-resize_1/000447_2014-06-08_16-15-46_260595134347_rgbf000130-resize_1-target.png,125,4.479,0,3396,101,meters,jsons/VE125_randls_54_rotated.json,1810344,2255245,35,Woman
101,250416,DepthScenes,duration_manipulation_targetAtFixation,jsons/VE125_randls_54_rotated.json,http://54.235.29.9/FacialAge/BNav_EC2/DepthDuration/v2_depth_duration_MTurk/v2_DepthDuration_HTML.html#153,153,702,259,1366,768,9-4-2022,8-19-33,102,depth_duration_stimuli/003490_2014-05-21_15-50-11_094959634447_rgbf000101-resize_3/003490_2014-05-21_15-50-11_094959634447_rgbf000101-resize_3-target.png,125,3.6445,0,2699,123,meters,jsons/VE125_randls_54_rotated.json,1810344,2255245,35,Woman
102,250416,DepthScenes,duration_manipulation_targetAtFixation,jsons/VE125_randls_54_rotated.json,http://54.235.29.9/FacialAge/BNav_EC2/DepthDuration/v2_depth_duration_MTurk/v2_DepthDuration_HTML.html#153,153,702,259,1366,768,9-4-2022,8-19-33,103,depth_duration_stimuli/001175_2014-06-17_15-45-55_260595134347_rgbf000129-resize_4/001175_2014-06-17_15-45-55_260595134347_rgbf000129-resize_4-target.png,125,4.255,0,3858,114,meters,jsons/VE125_randls_54_rotated.json,1810344,2255245,35,Woman
103,250416,DepthScenes,duration_manipulation_targetAtFixation,jsons/VE125_randls_54_rotated.json,http://54.235.29.9/FacialAge/BNav_EC2/DepthDuration/v2_depth_duration_MTurk/v2_DepthDuration_HTML.html#153,153,702,259,1366,768,9-4-2022,8-19-33,104,depth_duration_stimuli/002637_2014-06-24_14-51-13_094959634447_rgbf000066-resize_4/002637_2014-06-24_14-51-13_094959634447_rgbf000066-resize_4-target.png,125,1.9955,0,2476,152,meters,jsons/VE125_randls_54_rotated.json,1810344,2255245,35,Woman
104,250416,DepthScenes,duration_manipulation_targetAtFixation,jsons/VE125_randls_54_rotated.json,http://54.235.29.9/FacialAge/BNav_EC2/DepthDuration/v2_depth_duration_MTurk/v2_DepthDuration_HTML.html#153,153,702,259,1366,768,9-4-2022,8-19-33,105,depth_duration_stimuli/003534_2014-05-22_15-06-10_094959634447_rgbf000102-resize_4/003534_2014-05-22_15-06-10_094959634447_rgbf000102-resize_4-target.png,125,1.426,0,2482,107,meters,jsons/VE125_randls_54_rotated.json,1810344,2255245,35,Woman
105,250416,DepthScenes,duration_manipulation_targetAtFixation,jsons/VE125_randls_54_rotated.json,http://54.235.29.9/FacialAge/BNav_EC2/DepthDuration/v2_depth_duration_MTurk/v2_DepthDuration_HTML.html#153,153,702,259,1366,768,9-4-2022,8-19-33,106,depth_duration_stimuli/002545_2014-06-24_13-38-53_094959634447_rgbf000080-resize_4/002545_2014-06-24_13-38-53_094959634447_rgbf000080-resize_4-target.png,125,1.9205,0,7795,122,meters,jsons/VE125_randls_54_rotated.json,1810344,2255245,35,Woman
106,250416,DepthScenes,duration_manipulation_targetAtFixation,jsons/VE125_randls_54_rotated.json,http://54.235.29.9/FacialAge/BNav_EC2/DepthDuration/v2_depth_duration_MTurk/v2_DepthDuration_HTML.html#153,153,702,259,1366,768,9-4-2022,8-19-33,107,depth_duration_stimuli/001092_2014-06-15_17-34-58_260595134347_rgbf000171-resize_3/001092_2014-06-15_17-34-58_260595134347_rgbf000171-resize_3-target.png,125,2.6935,0,4848,117,meters,jsons/VE125_randls_54_rotated.json,1810344,2255245,35,Woman
107,250416,DepthScenes,duration_manipulation_targetAtFixation,jsons/VE125_randls_54_rotated.json,http://54.235.29.9/FacialAge/BNav_EC2/DepthDuration/v2_depth_duration_MTurk/v2_DepthDuration_HTML.html#153,153,702,259,1366,768,9-4-2022,8-19-33,108,depth_duration_stimuli/003129_2014-05-12_10-48-10_094959634447_rgbf000100-resize_0/003129_2014-05-12_10-48-10_094959634447_rgbf000100-resize_0-target.png,125,4.9305,0,2779,136,meters,jsons/VE125_randls_54_rotated.json,1810344,2255245,35,Woman
108,250416,DepthScenes,duration_manipulation_targetAtFixation,jsons/VE125_randls_54_rotated.json,http://54.235.29.9/FacialAge/BNav_EC2/DepthDuration/v2_depth_duration_MTurk/v2_DepthDuration_HTML.html#153,153,702,259,1366,768,9-4-2022,8-19-33,109,depth_duration_stimuli/000414_2014-06-04_19-49-13_260595134347_rgbf000044-resize_0/000414_2014-06-04_19-49-13_260595134347_rgbf000044-resize_0-target.png,125,4.329,0,62549,124,meters,jsons/VE125_randls_54_rotated.json,1810344,2255245,35,Woman
109,250416,DepthScenes,duration_manipulation_targetAtFixation,jsons/VE125_randls_54_rotated.json,http://54.235.29.9/FacialAge/BNav_EC2/DepthDuration/v2_depth_duration_MTurk/v2_DepthDuration_HTML.html#153,153,702,259,1366,768,9-4-2022,8-19-33,110,depth_duration_stimuli/000635_2014-06-08_16-38-42_260595134347_rgbf000106-resize_1/000635_2014-06-08_16-38-42_260595134347_rgbf000106-resize_1-target.png,125,2.074,0,5265,430,meters,jsons/VE125_randls_54_rotated.json,1810344,2255245,35,Woman
110,250416,DepthScenes,duration_manipulation_targetAtFixation,jsons/VE125_randls_54_rotated.json,http://54.235.29.9/FacialAge/BNav_EC2/DepthDuration/v2_depth_duration_MTurk/v2_DepthDuration_HTML.html#153,153,702,259,1366,768,9-4-2022,8-19-33,111,depth_duration_stimuli/002279_2014-06-28_18-55-32_260595134347_rgbf000040-resize_5/002279_2014-06-28_18-55-32_260595134347_rgbf000040-resize_5-target.png,125,1.5043333333333,0,9669,108,meters,jsons/VE125_randls_54_rotated.json,1810344,2255245,35,Woman
111,250416,DepthScenes,duration_manipulation_targetAtFixation,jsons/VE125_randls_54_rotated.json,http://54.235.29.9/FacialAge/BNav_EC2/DepthDuration/v2_depth_duration_MTurk/v2_DepthDuration_HTML.html#153,153,702,259,1366,768,9-4-2022,8-19-33,112,depth_duration_stimuli/000483_2014-06-09_20-41-45_260595134347_rgbf000116-resize_4/000483_2014-06-09_20-41-45_260595134347_rgbf000116-resize_4-target.png,125,1.337,0,1930,127,meters,jsons/VE125_randls_54_rotated.json,1810344,2255245,35,Woman
112,250416,DepthScenes,duration_manipulation_targetAtFixation,jsons/VE125_randls_54_rotated.json,http://54.235.29.9/FacialAge/BNav_EC2/DepthDuration/v2_depth_duration_MTurk/v2_DepthDuration_HTML.html#153,153,702,259,1366,768,9-4-2022,8-19-33,113,depth_duration_stimuli/000469_2014-06-09_19-42-10_260595134347_rgbf000081-resize_1/000469_2014-06-09_19-42-10_260595134347_rgbf000081-resize_1-target.png,125,1.652,0,4807,103,meters,jsons/VE125_randls_54_rotated.json,1810344,2255245,35,Woman
113,250416,DepthScenes,duration_manipulation_targetAtFixation,jsons/VE125_randls_54_rotated.json,http://54.235.29.9/FacialAge/BNav_EC2/DepthDuration/v2_depth_duration_MTurk/v2_DepthDuration_HTML.html#153,153,702,259,1366,768,9-4-2022,8-19-33,114,depth_duration_stimuli/003423_2014-05-21_10-23-26_094959634447_rgbf002665-resize_2/003423_2014-05-21_10-23-26_094959634447_rgbf002665-resize_2-target.png,125,3.2575,0,2788,126,meters,jsons/VE125_randls_54_rotated.json,1810344,2255245,35,Woman
114,250416,DepthScenes,duration_manipulation_targetAtFixation,jsons/VE125_randls_54_rotated.json,http://54.235.29.9/FacialAge/BNav_EC2/DepthDuration/v2_depth_duration_MTurk/v2_DepthDuration_HTML.html#153,153,702,259,1366,768,9-4-2022,8-19-33,115,depth_duration_stimuli/002905_2014-06-03_18-04-43_094959634447_rgbf000151-resize_2/002905_2014-06-03_18-04-43_094959634447_rgbf000151-resize_2-target.png,125,2.0295,0,3794,114,meters,jsons/VE125_randls_54_rotated.json,1810344,2255245,35,Woman
115,250416,DepthScenes,duration_manipulation_targetAtFixation,jsons/VE125_randls_54_rotated.json,http://54.235.29.9/FacialAge/BNav_EC2/DepthDuration/v2_depth_duration_MTurk/v2_DepthDuration_HTML.html#153,153,702,259,1366,768,9-4-2022,8-19-33,116,depth_duration_stimuli/003495_2014-05-21_16-01-51_094959634447_rgbf000100-resize_3/003495_2014-05-21_16-01-51_094959634447_rgbf000100-resize_3-target.png,125,1.6255,0,2665,106,meters,jsons/VE125_randls_54_rotated.json,1810344,2255245,35,Woman
116,250416,DepthScenes,duration_manipulation_targetAtFixation,jsons/VE125_randls_54_rotated.json,http://54.235.29.9/FacialAge/BNav_EC2/DepthDuration/v2_depth_duration_MTurk/v2_DepthDuration_HTML.html#153,153,702,259,1366,768,9-4-2022,8-19-33,117,depth_duration_stimuli/001244_2014-06-17_16-47-45_260595134347_rgbf000030-resize_4/001244_2014-06-17_16-47-45_260595134347_rgbf000030-resize_4-target.png,125,2.0425,0,3833,178,meters,jsons/VE125_randls_54_rotated.json,1810344,2255245,35,Woman
117,250416,DepthScenes,duration_manipulation_targetAtFixation,jsons/VE125_randls_54_rotated.json,http://54.235.29.9/FacialAge/BNav_EC2/DepthDuration/v2_depth_duration_MTurk/v2_DepthDuration_HTML.html#153,153,702,259,1366,768,9-4-2022,8-19-33,118,depth_duration_stimuli/002199_2014-06-28_18-33-56_260595134347_rgbf000074-resize_0/002199_2014-06-28_18-33-56_260595134347_rgbf000074-resize_0-target.png,125,1.996,0,2591,103,meters,jsons/VE125_randls_54_rotated.json,1810344,2255245,35,Woman
118,250416,DepthScenes,duration_manipulation_targetAtFixation,jsons/VE125_randls_54_rotated.json,http://54.235.29.9/FacialAge/BNav_EC2/DepthDuration/v2_depth_duration_MTurk/v2_DepthDuration_HTML.html#153,153,702,259,1366,768,9-4-2022,8-19-33,119,depth_duration_stimuli/001056_2014-06-08_18-46-44_260595134347_rgbf000068-resize_0/001056_2014-06-08_18-46-44_260595134347_rgbf000068-resize_0-target.png,125,2.6625,0,2688,148,meters,jsons/VE125_randls_54_rotated.json,1810344,2255245,35,Woman
119,250416,DepthScenes,duration_manipulation_targetAtFixation,jsons/VE125_randls_54_rotated.json,http://54.235.29.9/FacialAge/BNav_EC2/DepthDuration/v2_depth_duration_MTurk/v2_DepthDuration_HTML.html#153,153,702,259,1366,768,9-4-2022,8-19-33,120,depth_duration_stimuli/000787_2014-06-08_22-33-53_260595134347_rgbf000175-resize_1/000787_2014-06-08_22-33-53_260595134347_rgbf000175-resize-original.jpg,125,4.784,0,4422,124,meters,jsons/VE125_randls_54_rotated.json,1810344,2255245,35,Woman
120,250416,DepthScenes,duration_manipulation_targetAtFixation,jsons/VE125_randls_54_rotated.json,http://54.235.29.9/FacialAge/BNav_EC2/DepthDuration/v2_depth_duration_MTurk/v2_DepthDuration_HTML.html#153,153,702,259,1366,768,9-4-2022,8-19-33,121,depth_duration_stimuli/002414_2014-06-28_20-24-58_260595134347_rgbf000067-resize_4/002414_2014-06-28_20-24-58_260595134347_rgbf000067-resize_4-target.png,125,4.363,0,4962,117,meters,jsons/VE125_randls_54_rotated.json,1810344,2255245,35,Woman
121,250416,DepthScenes,duration_manipulation_targetAtFixation,jsons/VE125_randls_54_rotated.json,http://54.235.29.9/FacialAge/BNav_EC2/DepthDuration/v2_depth_duration_MTurk/v2_DepthDuration_HTML.html#153,153,702,259,1366,768,9-4-2022,8-19-33,122,depth_duration_stimuli/000773_2014-06-08_22-24-54_260595134347_rgbf000093-resize_1/000773_2014-06-08_22-24-54_260595134347_rgbf000093-resize_1-target.png,125,4.973,0,2753,155,meters,jsons/VE125_randls_54_rotated.json,1810344,2255245,35,Woman
122,250416,DepthScenes,duration_manipulation_targetAtFixation,jsons/VE125_randls_54_rotated.json,http://54.235.29.9/FacialAge/BNav_EC2/DepthDuration/v2_depth_duration_MTurk/v2_DepthDuration_HTML.html#153,153,702,259,1366,768,9-4-2022,8-19-33,123,depth_duration_stimuli/001450_2014-06-19_17-02-03_260595134347_rgbf000203-resize_4/001450_2014-06-19_17-02-03_260595134347_rgbf000203-resize_4-target.png,125,4.0106666666667,0,6049,125,meters,jsons/VE125_randls_54_rotated.json,1810344,2255245,35,Woman
123,250416,DepthScenes,duration_manipulation_targetAtFixation,jsons/VE125_randls_54_rotated.json,http://54.235.29.9/FacialAge/BNav_EC2/DepthDuration/v2_depth_duration_MTurk/v2_DepthDuration_HTML.html#153,153,702,259,1366,768,9-4-2022,8-19-33,124,depth_duration_stimuli/001449_2014-06-19_17-01-27_260595134347_rgbf000116-resize_2/001449_2014-06-19_17-01-27_260595134347_rgbf000116-resize_2-target.png,125,3.452,0,2557,108,meters,jsons/VE125_randls_54_rotated.json,1810344,2255245,35,Woman
124,250416,DepthScenes,duration_manipulation_targetAtFixation,jsons/VE125_randls_54_rotated.json,http://54.235.29.9/FacialAge/BNav_EC2/DepthDuration/v2_depth_duration_MTurk/v2_DepthDuration_HTML.html#153,153,702,259,1366,768,9-4-2022,8-19-33,125,depth_duration_stimuli/001650_2014-06-20_12-09-00_260595134347_rgbf000087-resize_3/001650_2014-06-20_12-09-00_260595134347_rgbf000087-resize_3-target.png,125,1.9505,0,2487,150,meters,jsons/VE125_randls_54_rotated.json,1810344,2255245,35,Woman
125,250416,DepthScenes,duration_manipulation_targetAtFixation,jsons/VE125_randls_54_rotated.json,http://54.235.29.9/FacialAge/BNav_EC2/DepthDuration/v2_depth_duration_MTurk/v2_DepthDuration_HTML.html#153,153,702,259,1366,768,9-4-2022,8-19-33,126,depth_duration_stimuli/000682_2014-06-08_23-14-58_260595134347_rgbf000041-resize_5/000682_2014-06-08_23-14-58_260595134347_rgbf000041-resize_5-target.png,125,2.7239999999999998,0,3167,120,meters,jsons/VE125_randls_54_rotated.json,1810344,2255245,35,Woman
126,250416,DepthScenes,duration_manipulation_targetAtFixation,jsons/VE125_randls_54_rotated.json,http://54.235.29.9/FacialAge/BNav_EC2/DepthDuration/v2_depth_duration_MTurk/v2_DepthDuration_HTML.html#153,153,702,259,1366,768,9-4-2022,8-19-33,127,depth_duration_stimuli/002758_2014-06-22_19-11-20_094959634447_rgbf000128-resize_1/002758_2014-06-22_19-11-20_094959634447_rgbf000128-resize_1-target.png,125,2.555,0,2557,118,meters,jsons/VE125_randls_54_rotated.json,1810344,2255245,35,Woman
127,250416,DepthScenes,duration_manipulation_targetAtFixation,jsons/VE125_randls_54_rotated.json,http://54.235.29.9/FacialAge/BNav_EC2/DepthDuration/v2_depth_duration_MTurk/v2_DepthDuration_HTML.html#153,153,702,259,1366,768,9-4-2022,8-19-33,128,depth_duration_stimuli/002630_2014-06-24_14-47-50_094959634447_rgbf000055-resize_1/002630_2014-06-24_14-47-50_094959634447_rgbf000055-resize_1-target.png,125,3.0095,0,51234,116,meters,jsons/VE125_randls_54_rotated.json,1810344,2255245,35,Woman
128,250416,DepthScenes,duration_manipulation_targetAtFixation,jsons/VE125_randls_54_rotated.json,http://54.235.29.9/FacialAge/BNav_EC2/DepthDuration/v2_depth_duration_MTurk/v2_DepthDuration_HTML.html#153,153,702,259,1366,768,9-4-2022,8-19-33,129,depth_duration_stimuli/002995_2014-06-15_12-31-26_094959634447_rgbf000150-resize_1/002995_2014-06-15_12-31-26_094959634447_rgbf000150-resize_1-target.png,125,3.8360000000000003,0,2068,99,meters,jsons/VE125_randls_54_rotated.json,1810344,2255245,35,Woman
129,250416,DepthScenes,duration_manipulation_targetAtFixation,jsons/VE125_randls_54_rotated.json,http://54.235.29.9/FacialAge/BNav_EC2/DepthDuration/v2_depth_duration_MTurk/v2_DepthDuration_HTML.html#153,153,702,259,1366,768,9-4-2022,8-19-33,130,depth_duration_stimuli/002748_2014-06-22_19-07-22_094959634447_rgbf000078-resize_1/002748_2014-06-22_19-07-22_094959634447_rgbf000078-resize_1-target.png,125,4.6705,0,1840,123,meters,jsons/VE125_randls_54_rotated.json,1810344,2255245,35,Woman
130,250416,DepthScenes,duration_manipulation_targetAtFixation,jsons/VE125_randls_54_rotated.json,http://54.235.29.9/FacialAge/BNav_EC2/DepthDuration/v2_depth_duration_MTurk/v2_DepthDuration_HTML.html#153,153,702,259,1366,768,9-4-2022,8-19-33,131,depth_duration_stimuli/000854_2014-06-09_19-43-13_260595134347_rgbf000066-resize_0/000854_2014-06-09_19-43-13_260595134347_rgbf000066-resize_0-target.png,125,3.068,0,1602,122,meters,jsons/VE125_randls_54_rotated.json,1810344,2255245,35,Woman
131,250416,DepthScenes,duration_manipulation_targetAtFixation,jsons/VE125_randls_54_rotated.json,http://54.235.29.9/FacialAge/BNav_EC2/DepthDuration/v2_depth_duration_MTurk/v2_DepthDuration_HTML.html#153,153,702,259,1366,768,9-4-2022,8-19-33,132,depth_duration_stimuli/000758_2014-06-08_22-05-08_260595134347_rgbf000085-resize_0/000758_2014-06-08_22-05-08_260595134347_rgbf000085-resize_0-target.png,125,3.3810000000000002,0,1447,131,meters,jsons/VE125_randls_54_rotated.json,1810344,2255245,35,Woman
132,250416,DepthScenes,duration_manipulation_targetAtFixation,jsons/VE125_randls_54_rotated.json,http://54.235.29.9/FacialAge/BNav_EC2/DepthDuration/v2_depth_duration_MTurk/v2_DepthDuration_HTML.html#153,153,702,259,1366,768,9-4-2022,8-19-33,133,depth_duration_stimuli/002425_2014-06-28_20-27-29_260595134347_rgbf000031-resize_8/002425_2014-06-28_20-27-29_260595134347_rgbf000031-resize_8-target.png,125,3.8960000000000004,0,1669,124,meters,jsons/VE125_randls_54_rotated.json,1810344,2255245,35,Woman
133,250416,DepthScenes,duration_manipulation_targetAtFixation,jsons/VE125_randls_54_rotated.json,http://54.235.29.9/FacialAge/BNav_EC2/DepthDuration/v2_depth_duration_MTurk/v2_DepthDuration_HTML.html#153,153,702,259,1366,768,9-4-2022,8-19-33,134,depth_duration_stimuli/000642_2014-06-08_16-59-25_260595134347_rgbf000098-resize_2/000642_2014-06-08_16-59-25_260595134347_rgbf000098-resize_2-target.png,125,2.8815,0,1517,122,meters,jsons/VE125_randls_54_rotated.json,1810344,2255245,35,Woman
134,250416,DepthScenes,duration_manipulation_targetAtFixation,jsons/VE125_randls_54_rotated.json,http://54.235.29.9/FacialAge/BNav_EC2/DepthDuration/v2_depth_duration_MTurk/v2_DepthDuration_HTML.html#153,153,702,259,1366,768,9-4-2022,8-19-33,135,depth_duration_stimuli/000375_2014-06-08_11-17-29_260595134347_rgbf000133-resize_2/000375_2014-06-08_11-17-29_260595134347_rgbf000133-resize-original.jpg,125,4.718,0,1593,122,meters,jsons/VE125_randls_54_rotated.json,1810344,2255245,35,Woman
135,250416,DepthScenes,duration_manipulation_targetAtFixation,jsons/VE125_randls_54_rotated.json,http://54.235.29.9/FacialAge/BNav_EC2/DepthDuration/v2_depth_duration_MTurk/v2_DepthDuration_HTML.html#153,153,702,259,1366,768,9-4-2022,8-19-33,136,depth_duration_stimuli/001617_2014-06-20_11-35-32_260595134347_rgbf000066-resize_1/001617_2014-06-20_11-35-32_260595134347_rgbf000066-resize_1-target.png,125,3.7910000000000004,0,97228,16,meters,jsons/VE125_randls_54_rotated.json,1810344,2255245,35,Woman
136,250416,DepthScenes,duration_manipulation_targetAtFixation,jsons/VE125_randls_54_rotated.json,http://54.235.29.9/FacialAge/BNav_EC2/DepthDuration/v2_depth_duration_MTurk/v2_DepthDuration_HTML.html#153,153,702,259,1366,768,9-4-2022,8-19-33,137,depth_duration_stimuli/001806_2014-06-26_20-50-20_260595134347_rgbf000091-resize_1/001806_2014-06-26_20-50-20_260595134347_rgbf000091-resize_1-target.png,125,2.7305,0,2374,120,meters,jsons/VE125_randls_54_rotated.json,1810344,2255245,35,Woman
137,250416,DepthScenes,duration_manipulation_targetAtFixation,jsons/VE125_randls_54_rotated.json,http://54.235.29.9/FacialAge/BNav_EC2/DepthDuration/v2_depth_duration_MTurk/v2_DepthDuration_HTML.html#153,153,702,259,1366,768,9-4-2022,8-19-33,138,depth_duration_stimuli/000549_2014-06-08_22-10-24_260595134347_rgbf000247-resize_3/000549_2014-06-08_22-10-24_260595134347_rgbf000247-resize_3-target.png,125,1.841,0,2746,125,meters,jsons/VE125_randls_54_rotated.json,1810344,2255245,35,Woman
138,250416,DepthScenes,duration_manipulation_targetAtFixation,jsons/VE125_randls_54_rotated.json,http://54.235.29.9/FacialAge/BNav_EC2/DepthDuration/v2_depth_duration_MTurk/v2_DepthDuration_HTML.html#153,153,702,259,1366,768,9-4-2022,8-19-33,139,depth_duration_stimuli/001055_2014-06-08_18-45-35_260595134347_rgbf000111-resize_4/001055_2014-06-08_18-45-35_260595134347_rgbf000111-resize_4-target.png,125,2.4290000000000003,0,2823,83,meters,jsons/VE125_randls_54_rotated.json,1810344,2255245,35,Woman
139,250416,DepthScenes,duration_manipulation_targetAtFixation,jsons/VE125_randls_54_rotated.json,http://54.235.29.9/FacialAge/BNav_EC2/DepthDuration/v2_depth_duration_MTurk/v2_DepthDuration_HTML.html#153,153,702,259,1366,768,9-4-2022,8-19-33,140,depth_duration_stimuli/000457_2014-06-08_16-52-43_260595134347_rgbf000199-resize_1/000457_2014-06-08_16-52-43_260595134347_rgbf000199-resize_1-target.png,125,3.6489999999999996,0,3405,132,meters,jsons/VE125_randls_54_rotated.json,1810344,2255245,35,Woman
140,250416,DepthScenes,duration_manipulation_targetAtFixation,jsons/VE125_randls_54_rotated.json,http://54.235.29.9/FacialAge/BNav_EC2/DepthDuration/v2_depth_duration_MTurk/v2_DepthDuration_HTML.html#153,153,702,259,1366,768,9-4-2022,8-19-33,141,depth_duration_stimuli/000929_2014-06-09_16-33-19_260595134347_rgbf000139-resize_0/000929_2014-06-09_16-33-19_260595134347_rgbf000139-resize_0-target.png,125,2.8680000000000003,0,2474,144,meters,jsons/VE125_randls_54_rotated.json,1810344,2255245,35,Woman
141,250416,DepthScenes,duration_manipulation_targetAtFixation,jsons/VE125_randls_54_rotated.json,http://54.235.29.9/FacialAge/BNav_EC2/DepthDuration/v2_depth_duration_MTurk/v2_DepthDuration_HTML.html#153,153,702,259,1366,768,9-4-2022,8-19-33,142,depth_duration_stimuli/003048_2014-06-15_13-49-43_094959634447_rgbf000150-resize_1/003048_2014-06-15_13-49-43_094959634447_rgbf000150-resize_1-target.png,125,4.0035,0,2604,140,meters,jsons/VE125_randls_54_rotated.json,1810344,2255245,35,Woman
142,250416,DepthScenes,duration_manipulation_targetAtFixation,jsons/VE125_randls_54_rotated.json,http://54.235.29.9/FacialAge/BNav_EC2/DepthDuration/v2_depth_duration_MTurk/v2_DepthDuration_HTML.html#153,153,702,259,1366,768,9-4-2022,8-19-33,143,depth_duration_stimuli/002043_2014-06-24_20-29-38_260595134347_rgbf000039-resize_4/002043_2014-06-24_20-29-38_260595134347_rgbf000039-resize_4-target.png,125,2.8435,0,2473,125,meters,jsons/VE125_randls_54_rotated.json,1810344,2255245,35,Woman
143,250416,DepthScenes,duration_manipulation_targetAtFixation,jsons/VE125_randls_54_rotated.json,http://54.235.29.9/FacialAge/BNav_EC2/DepthDuration/v2_depth_duration_MTurk/v2_DepthDuration_HTML.html#153,153,702,259,1366,768,9-4-2022,8-19-33,144,depth_duration_stimuli/002660_2014-06-13_15-44-18_094959634447_rgbf001878-resize_2/002660_2014-06-13_15-44-18_094959634447_rgbf001878-resize_2-target.png,125,3.576,0,2500,109,meters,jsons/VE125_randls_54_rotated.json,1810344,2255245,35,Woman
144,250416,DepthScenes,duration_manipulation_targetAtFixation,jsons/VE125_randls_54_rotated.json,http://54.235.29.9/FacialAge/BNav_EC2/DepthDuration/v2_depth_duration_MTurk/v2_DepthDuration_HTML.html#153,153,702,259,1366,768,9-4-2022,8-19-33,145,depth_duration_stimuli/002153_2014-06-25_21-27-18_260595134347_rgbf000038-resize_5/002153_2014-06-25_21-27-18_260595134347_rgbf000038-resize_5-target.png,125,2.505,0,5504,89,meters,jsons/VE125_randls_54_rotated.json,1810344,2255245,35,Woman
145,250416,DepthScenes,duration_manipulation_targetAtFixation,jsons/VE125_randls_54_rotated.json,http://54.235.29.9/FacialAge/BNav_EC2/DepthDuration/v2_depth_duration_MTurk/v2_DepthDuration_HTML.html#153,153,702,259,1366,768,9-4-2022,8-19-33,146,depth_duration_stimuli/003083_2014-06-15_15-21-03_094959634447_rgbf000063-resize_1/003083_2014-06-15_15-21-03_094959634447_rgbf000063-resize_1-target.png,125,4.1405,0,3108,140,meters,jsons/VE125_randls_54_rotated.json,1810344,2255245,35,Woman
146,250416,DepthScenes,duration_manipulation_targetAtFixation,jsons/VE125_randls_54_rotated.json,http://54.235.29.9/FacialAge/BNav_EC2/DepthDuration/v2_depth_duration_MTurk/v2_DepthDuration_HTML.html#153,153,702,259,1366,768,9-4-2022,8-19-33,147,depth_duration_stimuli/000486_2014-06-09_20-47-20_260595134347_rgbf000143-resize_2/000486_2014-06-09_20-47-20_260595134347_rgbf000143-resize_2-target.png,125,4.8325,0,3903,117,meters,jsons/VE125_randls_54_rotated.json,1810344,2255245,35,Woman
147,250416,DepthScenes,duration_manipulation_targetAtFixation,jsons/VE125_randls_54_rotated.json,http://54.235.29.9/FacialAge/BNav_EC2/DepthDuration/v2_depth_duration_MTurk/v2_DepthDuration_HTML.html#153,153,702,259,1366,768,9-4-2022,8-19-33,148,depth_duration_stimuli/002678_2014-06-13_16-15-32_094959634447_rgbf000151-resize_6/002678_2014-06-13_16-15-32_094959634447_rgbf000151-resize_6-target.png,125,2.1830000000000003,0,4978,123,meters,jsons/VE125_randls_54_rotated.json,1810344,2255245,35,Woman
148,250416,DepthScenes,duration_manipulation_targetAtFixation,jsons/VE125_randls_54_rotated.json,http://54.235.29.9/FacialAge/BNav_EC2/DepthDuration/v2_depth_duration_MTurk/v2_DepthDuration_HTML.html#153,153,702,259,1366,768,9-4-2022,8-19-33,149,depth_duration_stimuli/000368_2014-06-09_15-53-01_260595134347_rgbf000155-resize_2/000368_2014-06-09_15-53-01_260595134347_rgbf000155-resize_2-target.png,125,2.4859999999999998,0,3376,119,meters,jsons/VE125_randls_54_rotated.json,1810344,2255245,35,Woman
149,250416,DepthScenes,duration_manipulation_targetAtFixation,jsons/VE125_randls_54_rotated.json,http://54.235.29.9/FacialAge/BNav_EC2/DepthDuration/v2_depth_duration_MTurk/v2_DepthDuration_HTML.html#153,153,702,259,1366,768,9-4-2022,8-19-33,150,depth_duration_stimuli/003081_2014-06-15_15-19-16_094959634447_rgbf000150-resize_1/003081_2014-06-15_15-19-16_094959634447_rgbf000150-resize_1-target.png,125,3.9125,0,2818,121,meters,jsons/VE125_randls_54_rotated.json,1810344,2255245,35,Woman
150,250416,DepthScenes,duration_manipulation_targetAtFixation,jsons/VE125_randls_54_rotated.json,http://54.235.29.9/FacialAge/BNav_EC2/DepthDuration/v2_depth_duration_MTurk/v2_DepthDuration_HTML.html#153,153,702,259,1366,768,9-4-2022,8-19-33,151,depth_duration_stimuli/001417_2014-06-19_16-25-36_260595134347_rgbf000115-resize_5/001417_2014-06-19_16-25-36_260595134347_rgbf000115-resize_5-target.png,125,4.6255,0,2657,120,meters,jsons/VE125_randls_54_rotated.json,1810344,2255245,35,Woman
151,250416,DepthScenes,duration_manipulation_targetAtFixation,jsons/VE125_randls_54_rotated.json,http://54.235.29.9/FacialAge/BNav_EC2/DepthDuration/v2_depth_duration_MTurk/v2_DepthDuration_HTML.html#153,153,702,259,1366,768,9-4-2022,8-19-33,152,depth_duration_stimuli/000569_2014-06-09_22-51-47_260595134347_rgbf000141-resize_3/000569_2014-06-09_22-51-47_260595134347_rgbf000141-resize-original.jpg,125,4.512,0,2738,116,meters,jsons/VE125_randls_54_rotated.json,1810344,2255245,35,Woman
152,250416,DepthScenes,duration_manipulation_targetAtFixation,jsons/VE125_randls_54_rotated.json,http://54.235.29.9/FacialAge/BNav_EC2/DepthDuration/v2_depth_duration_MTurk/v2_DepthDuration_HTML.html#153,153,702,259,1366,768,9-4-2022,8-19-33,153,depth_duration_stimuli/002467_2014-06-28_20-38-07_260595134347_rgbf000026-resize_2/002467_2014-06-28_20-38-07_260595134347_rgbf000026-resize_2-target.png,125,4.742,0,2589,89,meters,jsons/VE125_randls_54_rotated.json,1810344,2255245,35,Woman
153,250416,DepthScenes,duration_manipulation_targetAtFixation,jsons/VE125_randls_54_rotated.json,http://54.235.29.9/FacialAge/BNav_EC2/DepthDuration/v2_depth_duration_MTurk/v2_DepthDuration_HTML.html#153,153,702,259,1366,768,9-4-2022,8-19-33,154,depth_duration_stimuli/002570_2014-06-24_13-59-54_094959634447_rgbf000059-resize_0/002570_2014-06-24_13-59-54_094959634447_rgbf000059-resize_0-target.png,125,4.037,0,2425,122,meters,jsons/VE125_randls_54_rotated.json,1810344,2255245,35,Woman
154,250416,DepthScenes,duration_manipulation_targetAtFixation,jsons/VE125_randls_54_rotated.json,http://54.235.29.9/FacialAge/BNav_EC2/DepthDuration/v2_depth_duration_MTurk/v2_DepthDuration_HTML.html#153,153,702,259,1366,768,9-4-2022,8-19-33,155,depth_duration_stimuli/002805_2014-06-22_19-54-03_094959634447_rgbf000079-resize_1/002805_2014-06-22_19-54-03_094959634447_rgbf000079-resize_1-target.png,125,3.1439999999999997,0,2210,127,meters,jsons/VE125_randls_54_rotated.json,1810344,2255245,35,Woman
155,250416,DepthScenes,duration_manipulation_targetAtFixation,jsons/VE125_randls_54_rotated.json,http://54.235.29.9/FacialAge/BNav_EC2/DepthDuration/v2_depth_duration_MTurk/v2_DepthDuration_HTML.html#153,153,702,259,1366,768,9-4-2022,8-19-33,156,depth_duration_stimuli/000906_2014-06-08_13-35-43_260595134347_rgbf000155-resize_1/000906_2014-06-08_13-35-43_260595134347_rgbf000155-resize_1-target.png,125,2.8489999999999998,0,3627,140,meters,jsons/VE125_randls_54_rotated.json,1810344,2255245,35,Woman
156,250416,DepthScenes,duration_manipulation_targetAtFixation,jsons/VE125_randls_54_rotated.json,http://54.235.29.9/FacialAge/BNav_EC2/DepthDuration/v2_depth_duration_MTurk/v2_DepthDuration_HTML.html#153,153,702,259,1366,768,9-4-2022,8-19-33,157,depth_duration_stimuli/002639_2014-06-24_14-51-37_094959634447_rgbf000074-resize_4/002639_2014-06-24_14-51-37_094959634447_rgbf000074-resize_4-target.png,125,4.0375,0,21063,246,meters,jsons/VE125_randls_54_rotated.json,1810344,2255245,35,Woman
157,250416,DepthScenes,duration_manipulation_targetAtFixation,jsons/VE125_randls_54_rotated.json,http://54.235.29.9/FacialAge/BNav_EC2/DepthDuration/v2_depth_duration_MTurk/v2_DepthDuration_HTML.html#153,153,702,259,1366,768,9-4-2022,8-19-33,158,depth_duration_stimuli/003292_2014-05-14_21-53-49_094959634447_rgbf000100-resize_2/003292_2014-05-14_21-53-49_094959634447_rgbf000100-resize_2-target.png,125,3.4815,0,13332,133,meters,jsons/VE125_randls_54_rotated.json,1810344,2255245,35,Woman
158,250416,DepthScenes,duration_manipulation_targetAtFixation,jsons/VE125_randls_54_rotated.json,http://54.235.29.9/FacialAge/BNav_EC2/DepthDuration/v2_depth_duration_MTurk/v2_DepthDuration_HTML.html#153,153,702,259,1366,768,9-4-2022,8-19-33,159,depth_duration_stimuli/000709_2014-06-08_13-51-55_260595134347_rgbf000068-resize_3/000709_2014-06-08_13-51-55_260595134347_rgbf000068-resize_3-target.png,125,1.8030000000000002,0,3858,119,meters,jsons/VE125_randls_54_rotated.json,1810344,2255245,35,Woman
159,250416,DepthScenes,duration_manipulation_targetAtFixation,jsons/VE125_randls_54_rotated.json,http://54.235.29.9/FacialAge/BNav_EC2/DepthDuration/v2_depth_duration_MTurk/v2_DepthDuration_HTML.html#153,153,702,259,1366,768,9-4-2022,8-19-33,160,depth_duration_stimuli/002057_2014-06-24_21-00-13_260595134347_rgbf000120-resize_1/002057_2014-06-24_21-00-13_260595134347_rgbf000120-resize_1-target.png,125,2.967,0,4094,128,meters,jsons/VE125_randls_54_rotated.json,1810344,2255245,35,Woman
160,250416,DepthScenes,duration_manipulation_targetAtFixation,jsons/VE125_randls_54_rotated.json,http://54.235.29.9/FacialAge/BNav_EC2/DepthDuration/v2_depth_duration_MTurk/v2_DepthDuration_HTML.html#153,153,702,259,1366,768,9-4-2022,8-19-33,161,depth_duration_stimuli/001100_2014-06-15_17-46-26_260595134347_rgbf000225-resize_2/001100_2014-06-15_17-46-26_260595134347_rgbf000225-resize_2-target.png,125,2.24,0,3328,122,meters,jsons/VE125_randls_54_rotated.json,1810344,2255245,35,Woman
161,250416,DepthScenes,duration_manipulation_targetAtFixation,jsons/VE125_randls_54_rotated.json,http://54.235.29.9/FacialAge/BNav_EC2/DepthDuration/v2_depth_duration_MTurk/v2_DepthDuration_HTML.html#153,153,702,259,1366,768,9-4-2022,8-19-33,162,depth_duration_stimuli/002784_2014-06-22_19-26-30_094959634447_rgbf000083-resize_3/002784_2014-06-22_19-26-30_094959634447_rgbf000083-resize_3-target.png,125,1.8046666666667,0,2455,128,meters,jsons/VE125_randls_54_rotated.json,1810344,2255245,35,Woman
162,250416,DepthScenes,duration_manipulation_targetAtFixation,jsons/VE125_randls_54_rotated.json,http://54.235.29.9/FacialAge/BNav_EC2/DepthDuration/v2_depth_duration_MTurk/v2_DepthDuration_HTML.html#153,153,702,259,1366,768,9-4-2022,8-19-33,163,depth_duration_stimuli/000742_2014-06-08_18-48-09_260595134347_rgbf000164-resize_4/000742_2014-06-08_18-48-09_260595134347_rgbf000164-resize_4-target.png,125,4.632,0,7638,127,meters,jsons/VE125_randls_54_rotated.json,1810344,2255245,35,Woman
163,250416,DepthScenes,duration_manipulation_targetAtFixation,jsons/VE125_randls_54_rotated.json,http://54.235.29.9/FacialAge/BNav_EC2/DepthDuration/v2_depth_duration_MTurk/v2_DepthDuration_HTML.html#153,153,702,259,1366,768,9-4-2022,8-19-33,164,depth_duration_stimuli/001066_2014-06-08_22-03-20_260595134347_rgbf000066-resize_4/001066_2014-06-08_22-03-20_260595134347_rgbf000066-resize_4-target.png,125,4.2330000000000005,0,3082,117,meters,jsons/VE125_randls_54_rotated.json,1810344,2255245,35,Woman
