,subjID,experimentName,versionName,sequenceName,url,selected_row,windowWidth,windowHeight,screenWidth,screenHeight,startDate,startTime,trial,stimulus,duration,actual_depth,depth_estimate,trial_RT,log_sceneDuration,unitSelection,seq_filepath,experimentTime,totalTime,age,gender
0,250584,DepthScenes,duration_manipulation_targetAtFixation,jsons/VE125_randls_77_rotated.json,http://54.235.29.9/FacialAge/BNav_EC2/DepthDuration/v2_depth_duration_MTurk/v2_DepthDuration_HTML.html#120,120,1364,768,1364,768,9-18-2022,13-46-38,1,depth_duration_stimuli/000556_2014-06-09_22-42-56_260595134347_rgbf000214-resize_1/000556_2014-06-09_22-42-56_260595134347_rgbf000214-resize_1-target.png,125,4.8415,1.0,14759,124,meters,jsons/VE125_randls_77_rotated.json,1161900,1520947,23,Man
1,250584,DepthScenes,duration_manipulation_targetAtFixation,jsons/VE125_randls_77_rotated.json,http://54.235.29.9/FacialAge/BNav_EC2/DepthDuration/v2_depth_duration_MTurk/v2_DepthDuration_HTML.html#120,120,1364,768,1364,768,9-18-2022,13-46-38,2,depth_duration_stimuli/001158_2014-06-17_15-32-16_260595134347_rgbf000138-resize_2/001158_2014-06-17_15-32-16_260595134347_rgbf000138-resize_2-target.png,125,4.5315,0.0,9112,124,meters,jsons/VE125_randls_77_rotated.json,1161900,1520947,23,Man
2,250584,DepthScenes,duration_manipulation_targetAtFixation,jsons/VE125_randls_77_rotated.json,http://54.235.29.9/FacialAge/BNav_EC2/DepthDuration/v2_depth_duration_MTurk/v2_DepthDuration_HTML.html#120,120,1364,768,1364,768,9-18-2022,13-46-38,3,depth_duration_stimuli/000549_2014-06-08_22-10-24_260595134347_rgbf000247-resize_3/000549_2014-06-08_22-10-24_260595134347_rgbf000247-resize_3-target.png,125,1.841,2.0,6766,125,meters,jsons/VE125_randls_77_rotated.json,1161900,1520947,23,Man
3,250584,DepthScenes,duration_manipulation_targetAtFixation,jsons/VE125_randls_77_rotated.json,http://54.235.29.9/FacialAge/BNav_EC2/DepthDuration/v2_depth_duration_MTurk/v2_DepthDuration_HTML.html#120,120,1364,768,1364,768,9-18-2022,13-46-38,4,depth_duration_stimuli/001055_2014-06-08_18-45-35_260595134347_rgbf000111-resize_4/001055_2014-06-08_18-45-35_260595134347_rgbf000111-resize_4-target.png,125,2.4290000000000003,0.0,4680,132,meters,jsons/VE125_randls_77_rotated.json,1161900,1520947,23,Man
4,250584,DepthScenes,duration_manipulation_targetAtFixation,jsons/VE125_randls_77_rotated.json,http://54.235.29.9/FacialAge/BNav_EC2/DepthDuration/v2_depth_duration_MTurk/v2_DepthDuration_HTML.html#120,120,1364,768,1364,768,9-18-2022,13-46-38,5,depth_duration_stimuli/000854_2014-06-09_19-43-13_260595134347_rgbf000066-resize_0/000854_2014-06-09_19-43-13_260595134347_rgbf000066-resize_0-target.png,125,3.068,1.0,3562,118,meters,jsons/VE125_randls_77_rotated.json,1161900,1520947,23,Man
5,250584,DepthScenes,duration_manipulation_targetAtFixation,jsons/VE125_randls_77_rotated.json,http://54.235.29.9/FacialAge/BNav_EC2/DepthDuration/v2_depth_duration_MTurk/v2_DepthDuration_HTML.html#120,120,1364,768,1364,768,9-18-2022,13-46-38,6,depth_duration_stimuli/000758_2014-06-08_22-05-08_260595134347_rgbf000085-resize_0/000758_2014-06-08_22-05-08_260595134347_rgbf000085-resize_0-target.png,125,3.3810000000000002,1.0,5596,118,meters,jsons/VE125_randls_77_rotated.json,1161900,1520947,23,Man
6,250584,DepthScenes,duration_manipulation_targetAtFixation,jsons/VE125_randls_77_rotated.json,http://54.235.29.9/FacialAge/BNav_EC2/DepthDuration/v2_depth_duration_MTurk/v2_DepthDuration_HTML.html#120,120,1364,768,1364,768,9-18-2022,13-46-38,7,depth_duration_stimuli/002637_2014-06-24_14-51-13_094959634447_rgbf000066-resize_4/002637_2014-06-24_14-51-13_094959634447_rgbf000066-resize_4-target.png,125,1.9955,1.0,3898,125,meters,jsons/VE125_randls_77_rotated.json,1161900,1520947,23,Man
7,250584,DepthScenes,duration_manipulation_targetAtFixation,jsons/VE125_randls_77_rotated.json,http://54.235.29.9/FacialAge/BNav_EC2/DepthDuration/v2_depth_duration_MTurk/v2_DepthDuration_HTML.html#120,120,1364,768,1364,768,9-18-2022,13-46-38,8,depth_duration_stimuli/003534_2014-05-22_15-06-10_094959634447_rgbf000102-resize_4/003534_2014-05-22_15-06-10_094959634447_rgbf000102-resize_4-target.png,125,1.426,0.0,5526,111,meters,jsons/VE125_randls_77_rotated.json,1161900,1520947,23,Man
8,250584,DepthScenes,duration_manipulation_targetAtFixation,jsons/VE125_randls_77_rotated.json,http://54.235.29.9/FacialAge/BNav_EC2/DepthDuration/v2_depth_duration_MTurk/v2_DepthDuration_HTML.html#120,120,1364,768,1364,768,9-18-2022,13-46-38,9,depth_duration_stimuli/002660_2014-06-13_15-44-18_094959634447_rgbf001878-resize_2/002660_2014-06-13_15-44-18_094959634447_rgbf001878-resize_2-target.png,125,3.576,1.0,5311,128,meters,jsons/VE125_randls_77_rotated.json,1161900,1520947,23,Man
9,250584,DepthScenes,duration_manipulation_targetAtFixation,jsons/VE125_randls_77_rotated.json,http://54.235.29.9/FacialAge/BNav_EC2/DepthDuration/v2_depth_duration_MTurk/v2_DepthDuration_HTML.html#120,120,1364,768,1364,768,9-18-2022,13-46-38,10,depth_duration_stimuli/002153_2014-06-25_21-27-18_260595134347_rgbf000038-resize_5/002153_2014-06-25_21-27-18_260595134347_rgbf000038-resize_5-target.png,125,2.505,0.0,3030,133,meters,jsons/VE125_randls_77_rotated.json,1161900,1520947,23,Man
10,250584,DepthScenes,duration_manipulation_targetAtFixation,jsons/VE125_randls_77_rotated.json,http://54.235.29.9/FacialAge/BNav_EC2/DepthDuration/v2_depth_duration_MTurk/v2_DepthDuration_HTML.html#120,120,1364,768,1364,768,9-18-2022,13-46-38,11,depth_duration_stimuli/000665_2014-06-09_20-42-35_260595134347_rgbf000110-resize_1/000665_2014-06-09_20-42-35_260595134347_rgbf000110-resize_1-target.png,125,3.057,0.0,3795,129,meters,jsons/VE125_randls_77_rotated.json,1161900,1520947,23,Man
11,250584,DepthScenes,duration_manipulation_targetAtFixation,jsons/VE125_randls_77_rotated.json,http://54.235.29.9/FacialAge/BNav_EC2/DepthDuration/v2_depth_duration_MTurk/v2_DepthDuration_HTML.html#120,120,1364,768,1364,768,9-18-2022,13-46-38,12,depth_duration_stimuli/001150_2014-06-17_15-27-34_260595134347_rgbf000108-resize_2/001150_2014-06-17_15-27-34_260595134347_rgbf000108-resize_2-target.png,125,4.0325,0.0,6730,124,meters,jsons/VE125_randls_77_rotated.json,1161900,1520947,23,Man
12,250584,DepthScenes,duration_manipulation_targetAtFixation,jsons/VE125_randls_77_rotated.json,http://54.235.29.9/FacialAge/BNav_EC2/DepthDuration/v2_depth_duration_MTurk/v2_DepthDuration_HTML.html#120,120,1364,768,1364,768,9-18-2022,13-46-38,13,depth_duration_stimuli/000409_2014-06-04_19-23-33_260595134347_rgbf000067-resize_0/000409_2014-06-04_19-23-33_260595134347_rgbf000067-resize_0-target.png,125,3.7335,1.0,3464,112,meters,jsons/VE125_randls_77_rotated.json,1161900,1520947,23,Man
13,250584,DepthScenes,duration_manipulation_targetAtFixation,jsons/VE125_randls_77_rotated.json,http://54.235.29.9/FacialAge/BNav_EC2/DepthDuration/v2_depth_duration_MTurk/v2_DepthDuration_HTML.html#120,120,1364,768,1364,768,9-18-2022,13-46-38,14,depth_duration_stimuli/002663_2014-06-13_15-50-26_094959634447_rgbf000075-resize_1/002663_2014-06-13_15-50-26_094959634447_rgbf000075-resize_1-target.png,125,4.7495,0.0,3499,126,meters,jsons/VE125_randls_77_rotated.json,1161900,1520947,23,Man
14,250584,DepthScenes,duration_manipulation_targetAtFixation,jsons/VE125_randls_77_rotated.json,http://54.235.29.9/FacialAge/BNav_EC2/DepthDuration/v2_depth_duration_MTurk/v2_DepthDuration_HTML.html#120,120,1364,768,1364,768,9-18-2022,13-46-38,15,depth_duration_stimuli/003338_2014-05-20_11-01-23_094959634447_rgbf000051-resize_6/003338_2014-05-20_11-01-23_094959634447_rgbf000051-resize_6-target.png,125,1.693,1.0,3746,112,meters,jsons/VE125_randls_77_rotated.json,1161900,1520947,23,Man
15,250584,DepthScenes,duration_manipulation_targetAtFixation,jsons/VE125_randls_77_rotated.json,http://54.235.29.9/FacialAge/BNav_EC2/DepthDuration/v2_depth_duration_MTurk/v2_DepthDuration_HTML.html#120,120,1364,768,1364,768,9-18-2022,13-46-38,16,depth_duration_stimuli/002509_2014-06-24_13-19-22_094959634447_rgbf000077-resize_0/002509_2014-06-24_13-19-22_094959634447_rgbf000077-resize_0-target.png,125,1.3065,0.0,6618,123,meters,jsons/VE125_randls_77_rotated.json,1161900,1520947,23,Man
16,250584,DepthScenes,duration_manipulation_targetAtFixation,jsons/VE125_randls_77_rotated.json,http://54.235.29.9/FacialAge/BNav_EC2/DepthDuration/v2_depth_duration_MTurk/v2_DepthDuration_HTML.html#120,120,1364,768,1364,768,9-18-2022,13-46-38,17,depth_duration_stimuli/003228_2014-05-14_13-42-35_094959634447_rgbf000101-resize_1/003228_2014-05-14_13-42-35_094959634447_rgbf000101-resize_1-target.png,125,1.9680000000000002,2.0,6468,128,meters,jsons/VE125_randls_77_rotated.json,1161900,1520947,23,Man
17,250584,DepthScenes,duration_manipulation_targetAtFixation,jsons/VE125_randls_77_rotated.json,http://54.235.29.9/FacialAge/BNav_EC2/DepthDuration/v2_depth_duration_MTurk/v2_DepthDuration_HTML.html#120,120,1364,768,1364,768,9-18-2022,13-46-38,18,depth_duration_stimuli/002600_2014-06-24_14-27-04_094959634447_rgbf000074-resize_2/002600_2014-06-24_14-27-04_094959634447_rgbf000074-resize_2-target.png,125,2.7575,0.0,2397,135,meters,jsons/VE125_randls_77_rotated.json,1161900,1520947,23,Man
18,250584,DepthScenes,duration_manipulation_targetAtFixation,jsons/VE125_randls_77_rotated.json,http://54.235.29.9/FacialAge/BNav_EC2/DepthDuration/v2_depth_duration_MTurk/v2_DepthDuration_HTML.html#120,120,1364,768,1364,768,9-18-2022,13-46-38,19,depth_duration_stimuli/001498_2014-06-19_17-45-14_260595134347_rgbf000129-resize_4/001498_2014-06-19_17-45-14_260595134347_rgbf000129-resize-original.jpg,125,1.4075,1.0,5097,125,meters,jsons/VE125_randls_77_rotated.json,1161900,1520947,23,Man
19,250584,DepthScenes,duration_manipulation_targetAtFixation,jsons/VE125_randls_77_rotated.json,http://54.235.29.9/FacialAge/BNav_EC2/DepthDuration/v2_depth_duration_MTurk/v2_DepthDuration_HTML.html#120,120,1364,768,1364,768,9-18-2022,13-46-38,20,depth_duration_stimuli/001100_2014-06-15_17-46-26_260595134347_rgbf000225-resize_2/001100_2014-06-15_17-46-26_260595134347_rgbf000225-resize_2-target.png,125,2.24,1.0,4395,127,meters,jsons/VE125_randls_77_rotated.json,1161900,1520947,23,Man
20,250584,DepthScenes,duration_manipulation_targetAtFixation,jsons/VE125_randls_77_rotated.json,http://54.235.29.9/FacialAge/BNav_EC2/DepthDuration/v2_depth_duration_MTurk/v2_DepthDuration_HTML.html#120,120,1364,768,1364,768,9-18-2022,13-46-38,21,depth_duration_stimuli/002784_2014-06-22_19-26-30_094959634447_rgbf000083-resize_3/002784_2014-06-22_19-26-30_094959634447_rgbf000083-resize_3-target.png,125,1.8046666666667,0.0,3294,128,meters,jsons/VE125_randls_77_rotated.json,1161900,1520947,23,Man
21,250584,DepthScenes,duration_manipulation_targetAtFixation,jsons/VE125_randls_77_rotated.json,http://54.235.29.9/FacialAge/BNav_EC2/DepthDuration/v2_depth_duration_MTurk/v2_DepthDuration_HTML.html#120,120,1364,768,1364,768,9-18-2022,13-46-38,22,depth_duration_stimuli/002199_2014-06-28_18-33-56_260595134347_rgbf000074-resize_0/002199_2014-06-28_18-33-56_260595134347_rgbf000074-resize_0-target.png,125,1.996,1.0,3444,117,meters,jsons/VE125_randls_77_rotated.json,1161900,1520947,23,Man
22,250584,DepthScenes,duration_manipulation_targetAtFixation,jsons/VE125_randls_77_rotated.json,http://54.235.29.9/FacialAge/BNav_EC2/DepthDuration/v2_depth_duration_MTurk/v2_DepthDuration_HTML.html#120,120,1364,768,1364,768,9-18-2022,13-46-38,23,depth_duration_stimuli/001056_2014-06-08_18-46-44_260595134347_rgbf000068-resize_0/001056_2014-06-08_18-46-44_260595134347_rgbf000068-resize_0-target.png,125,2.6625,0.0,2467,119,meters,jsons/VE125_randls_77_rotated.json,1161900,1520947,23,Man
23,250584,DepthScenes,duration_manipulation_targetAtFixation,jsons/VE125_randls_77_rotated.json,http://54.235.29.9/FacialAge/BNav_EC2/DepthDuration/v2_depth_duration_MTurk/v2_DepthDuration_HTML.html#120,120,1364,768,1364,768,9-18-2022,13-46-38,24,depth_duration_stimuli/002136_2014-06-25_21-18-03_260595134347_rgbf000109-resize_3/002136_2014-06-25_21-18-03_260595134347_rgbf000109-resize_3-target.png,125,1.9569999999999999,1.0,2744,111,meters,jsons/VE125_randls_77_rotated.json,1161900,1520947,23,Man
24,250584,DepthScenes,duration_manipulation_targetAtFixation,jsons/VE125_randls_77_rotated.json,http://54.235.29.9/FacialAge/BNav_EC2/DepthDuration/v2_depth_duration_MTurk/v2_DepthDuration_HTML.html#120,120,1364,768,1364,768,9-18-2022,13-46-38,25,depth_duration_stimuli/002964_2014-06-08_17-46-11_094959634447_rgbf000091-resize_4/002964_2014-06-08_17-46-11_094959634447_rgbf000091-resize_4-target.png,125,1.6909999999999998,0.0,2207,112,meters,jsons/VE125_randls_77_rotated.json,1161900,1520947,23,Man
25,250584,DepthScenes,duration_manipulation_targetAtFixation,jsons/VE125_randls_77_rotated.json,http://54.235.29.9/FacialAge/BNav_EC2/DepthDuration/v2_depth_duration_MTurk/v2_DepthDuration_HTML.html#120,120,1364,768,1364,768,9-18-2022,13-46-38,26,depth_duration_stimuli/001571_2014-06-20_17-21-32_260595134347_rgbf000089-resize_1/001571_2014-06-20_17-21-32_260595134347_rgbf000089-resize_1-target.png,125,1.86,1.0,3159,125,meters,jsons/VE125_randls_77_rotated.json,1161900,1520947,23,Man
26,250584,DepthScenes,duration_manipulation_targetAtFixation,jsons/VE125_randls_77_rotated.json,http://54.235.29.9/FacialAge/BNav_EC2/DepthDuration/v2_depth_duration_MTurk/v2_DepthDuration_HTML.html#120,120,1364,768,1364,768,9-18-2022,13-46-38,27,depth_duration_stimuli/002272_2014-06-28_18-53-56_260595134347_rgbf000067-resize_2/002272_2014-06-28_18-53-56_260595134347_rgbf000067-resize_2-target.png,125,1.138,0.0,2324,110,meters,jsons/VE125_randls_77_rotated.json,1161900,1520947,23,Man
27,250584,DepthScenes,duration_manipulation_targetAtFixation,jsons/VE125_randls_77_rotated.json,http://54.235.29.9/FacialAge/BNav_EC2/DepthDuration/v2_depth_duration_MTurk/v2_DepthDuration_HTML.html#120,120,1364,768,1364,768,9-18-2022,13-46-38,28,depth_duration_stimuli/002323_2014-06-28_20-01-54_260595134347_rgbf000051-resize_4/002323_2014-06-28_20-01-54_260595134347_rgbf000051-resize_4-target.png,125,3.7310000000000003,2.0,9177,126,meters,jsons/VE125_randls_77_rotated.json,1161900,1520947,23,Man
28,250584,DepthScenes,duration_manipulation_targetAtFixation,jsons/VE125_randls_77_rotated.json,http://54.235.29.9/FacialAge/BNav_EC2/DepthDuration/v2_depth_duration_MTurk/v2_DepthDuration_HTML.html#120,120,1364,768,1364,768,9-18-2022,13-46-38,29,depth_duration_stimuli/000917_2014-06-09_22-45-29_260595134347_rgbf000149-resize_3/000917_2014-06-09_22-45-29_260595134347_rgbf000149-resize_3-target.png,125,4.1865,0.0,2663,123,meters,jsons/VE125_randls_77_rotated.json,1161900,1520947,23,Man
29,250584,DepthScenes,duration_manipulation_targetAtFixation,jsons/VE125_randls_77_rotated.json,http://54.235.29.9/FacialAge/BNav_EC2/DepthDuration/v2_depth_duration_MTurk/v2_DepthDuration_HTML.html#120,120,1364,768,1364,768,9-18-2022,13-46-38,30,depth_duration_stimuli/002072_2014-06-24_21-48-06_260595134347_rgbf000115-resize_0/002072_2014-06-24_21-48-06_260595134347_rgbf000115-resize-original.jpg,125,4.702,1.0,3123,124,meters,jsons/VE125_randls_77_rotated.json,1161900,1520947,23,Man
30,250584,DepthScenes,duration_manipulation_targetAtFixation,jsons/VE125_randls_77_rotated.json,http://54.235.29.9/FacialAge/BNav_EC2/DepthDuration/v2_depth_duration_MTurk/v2_DepthDuration_HTML.html#120,120,1364,768,1364,768,9-18-2022,13-46-38,31,depth_duration_stimuli/002425_2014-06-28_20-27-29_260595134347_rgbf000031-resize_8/002425_2014-06-28_20-27-29_260595134347_rgbf000031-resize_8-target.png,125,3.8960000000000004,2.0,6080,136,meters,jsons/VE125_randls_77_rotated.json,1161900,1520947,23,Man
31,250584,DepthScenes,duration_manipulation_targetAtFixation,jsons/VE125_randls_77_rotated.json,http://54.235.29.9/FacialAge/BNav_EC2/DepthDuration/v2_depth_duration_MTurk/v2_DepthDuration_HTML.html#120,120,1364,768,1364,768,9-18-2022,13-46-38,32,depth_duration_stimuli/000642_2014-06-08_16-59-25_260595134347_rgbf000098-resize_2/000642_2014-06-08_16-59-25_260595134347_rgbf000098-resize_2-target.png,125,2.8815,1.0,15608,124,meters,jsons/VE125_randls_77_rotated.json,1161900,1520947,23,Man
32,250584,DepthScenes,duration_manipulation_targetAtFixation,jsons/VE125_randls_77_rotated.json,http://54.235.29.9/FacialAge/BNav_EC2/DepthDuration/v2_depth_duration_MTurk/v2_DepthDuration_HTML.html#120,120,1364,768,1364,768,9-18-2022,13-46-38,33,depth_duration_stimuli/000457_2014-06-08_16-52-43_260595134347_rgbf000199-resize_1/000457_2014-06-08_16-52-43_260595134347_rgbf000199-resize_1-target.png,125,3.6489999999999996,1.0,3906,112,meters,jsons/VE125_randls_77_rotated.json,1161900,1520947,23,Man
33,250584,DepthScenes,duration_manipulation_targetAtFixation,jsons/VE125_randls_77_rotated.json,http://54.235.29.9/FacialAge/BNav_EC2/DepthDuration/v2_depth_duration_MTurk/v2_DepthDuration_HTML.html#120,120,1364,768,1364,768,9-18-2022,13-46-38,34,depth_duration_stimuli/000929_2014-06-09_16-33-19_260595134347_rgbf000139-resize_0/000929_2014-06-09_16-33-19_260595134347_rgbf000139-resize_0-target.png,125,2.8680000000000003,0.0,2510,126,meters,jsons/VE125_randls_77_rotated.json,1161900,1520947,23,Man
34,250584,DepthScenes,duration_manipulation_targetAtFixation,jsons/VE125_randls_77_rotated.json,http://54.235.29.9/FacialAge/BNav_EC2/DepthDuration/v2_depth_duration_MTurk/v2_DepthDuration_HTML.html#120,120,1364,768,1364,768,9-18-2022,13-46-38,35,depth_duration_stimuli/003079_2014-06-15_15-18-20_094959634447_rgbf000152-resize_8/003079_2014-06-15_15-18-20_094959634447_rgbf000152-resize_8-target.png,125,2.8775,2.0,3632,134,meters,jsons/VE125_randls_77_rotated.json,1161900,1520947,23,Man
35,250584,DepthScenes,duration_manipulation_targetAtFixation,jsons/VE125_randls_77_rotated.json,http://54.235.29.9/FacialAge/BNav_EC2/DepthDuration/v2_depth_duration_MTurk/v2_DepthDuration_HTML.html#120,120,1364,768,1364,768,9-18-2022,13-46-38,36,depth_duration_stimuli/000506_2014-06-08_23-21-00_260595134347_rgbf000070-resize_7/000506_2014-06-08_23-21-00_260595134347_rgbf000070-resize_7-target.png,125,4.0585,0.0,4997,1,meters,jsons/VE125_randls_77_rotated.json,1161900,1520947,23,Man
36,250584,DepthScenes,duration_manipulation_targetAtFixation,jsons/VE125_randls_77_rotated.json,http://54.235.29.9/FacialAge/BNav_EC2/DepthDuration/v2_depth_duration_MTurk/v2_DepthDuration_HTML.html#120,120,1364,768,1364,768,9-18-2022,13-46-38,37,depth_duration_stimuli/002344_2014-06-28_20-06-29_260595134347_rgbf000030-resize_1/002344_2014-06-28_20-06-29_260595134347_rgbf000030-resize_1-target.png,125,1.5795,2.0,3595,126,meters,jsons/VE125_randls_77_rotated.json,1161900,1520947,23,Man
37,250584,DepthScenes,duration_manipulation_targetAtFixation,jsons/VE125_randls_77_rotated.json,http://54.235.29.9/FacialAge/BNav_EC2/DepthDuration/v2_depth_duration_MTurk/v2_DepthDuration_HTML.html#120,120,1364,768,1364,768,9-18-2022,13-46-38,38,depth_duration_stimuli/002725_2014-06-22_11-47-51_094959634447_rgbf000070-resize_1/002725_2014-06-22_11-47-51_094959634447_rgbf000070-resize_1-target.png,125,2.195,0.0,2697,127,meters,jsons/VE125_randls_77_rotated.json,1161900,1520947,23,Man
38,250584,DepthScenes,duration_manipulation_targetAtFixation,jsons/VE125_randls_77_rotated.json,http://54.235.29.9/FacialAge/BNav_EC2/DepthDuration/v2_depth_duration_MTurk/v2_DepthDuration_HTML.html#120,120,1364,768,1364,768,9-18-2022,13-46-38,39,depth_duration_stimuli/002678_2014-06-13_16-15-32_094959634447_rgbf000151-resize_6/002678_2014-06-13_16-15-32_094959634447_rgbf000151-resize_6-target.png,125,2.1830000000000003,2.0,4817,125,meters,jsons/VE125_randls_77_rotated.json,1161900,1520947,23,Man
39,250584,DepthScenes,duration_manipulation_targetAtFixation,jsons/VE125_randls_77_rotated.json,http://54.235.29.9/FacialAge/BNav_EC2/DepthDuration/v2_depth_duration_MTurk/v2_DepthDuration_HTML.html#120,120,1364,768,1364,768,9-18-2022,13-46-38,40,depth_duration_stimuli/000368_2014-06-09_15-53-01_260595134347_rgbf000155-resize_2/000368_2014-06-09_15-53-01_260595134347_rgbf000155-resize_2-target.png,125,2.4859999999999998,0.0,2469,125,meters,jsons/VE125_randls_77_rotated.json,1161900,1520947,23,Man
40,250584,DepthScenes,duration_manipulation_targetAtFixation,jsons/VE125_randls_77_rotated.json,http://54.235.29.9/FacialAge/BNav_EC2/DepthDuration/v2_depth_duration_MTurk/v2_DepthDuration_HTML.html#120,120,1364,768,1364,768,9-18-2022,13-46-38,41,depth_duration_stimuli/001650_2014-06-20_12-09-00_260595134347_rgbf000087-resize_3/001650_2014-06-20_12-09-00_260595134347_rgbf000087-resize_3-target.png,125,1.9505,1.0,3438,124,meters,jsons/VE125_randls_77_rotated.json,1161900,1520947,23,Man
41,250584,DepthScenes,duration_manipulation_targetAtFixation,jsons/VE125_randls_77_rotated.json,http://54.235.29.9/FacialAge/BNav_EC2/DepthDuration/v2_depth_duration_MTurk/v2_DepthDuration_HTML.html#120,120,1364,768,1364,768,9-18-2022,13-46-38,42,depth_duration_stimuli/000682_2014-06-08_23-14-58_260595134347_rgbf000041-resize_5/000682_2014-06-08_23-14-58_260595134347_rgbf000041-resize_5-target.png,125,2.7239999999999998,1.0,2896,134,meters,jsons/VE125_randls_77_rotated.json,1161900,1520947,23,Man
42,250584,DepthScenes,duration_manipulation_targetAtFixation,jsons/VE125_randls_77_rotated.json,http://54.235.29.9/FacialAge/BNav_EC2/DepthDuration/v2_depth_duration_MTurk/v2_DepthDuration_HTML.html#120,120,1364,768,1364,768,9-18-2022,13-46-38,43,depth_duration_stimuli/003048_2014-06-15_13-49-43_094959634447_rgbf000150-resize_1/003048_2014-06-15_13-49-43_094959634447_rgbf000150-resize_1-target.png,125,4.0035,3.0,5124,20,meters,jsons/VE125_randls_77_rotated.json,1161900,1520947,23,Man
43,250584,DepthScenes,duration_manipulation_targetAtFixation,jsons/VE125_randls_77_rotated.json,http://54.235.29.9/FacialAge/BNav_EC2/DepthDuration/v2_depth_duration_MTurk/v2_DepthDuration_HTML.html#120,120,1364,768,1364,768,9-18-2022,13-46-38,44,depth_duration_stimuli/002043_2014-06-24_20-29-38_260595134347_rgbf000039-resize_4/002043_2014-06-24_20-29-38_260595134347_rgbf000039-resize_4-target.png,125,2.8435,0.0,105497,124,meters,jsons/VE125_randls_77_rotated.json,1161900,1520947,23,Man
44,250584,DepthScenes,duration_manipulation_targetAtFixation,jsons/VE125_randls_77_rotated.json,http://54.235.29.9/FacialAge/BNav_EC2/DepthDuration/v2_depth_duration_MTurk/v2_DepthDuration_HTML.html#120,120,1364,768,1364,768,9-18-2022,13-46-38,45,depth_duration_stimuli/000103_2014-05-14_22-01-17_260595134347_rgbf000152-resize_5/000103_2014-05-14_22-01-17_260595134347_rgbf000152-resize_5-target.png,125,1.993,1.0,4137,124,meters,jsons/VE125_randls_77_rotated.json,1161900,1520947,23,Man
45,250584,DepthScenes,duration_manipulation_targetAtFixation,jsons/VE125_randls_77_rotated.json,http://54.235.29.9/FacialAge/BNav_EC2/DepthDuration/v2_depth_duration_MTurk/v2_DepthDuration_HTML.html#120,120,1364,768,1364,768,9-18-2022,13-46-38,46,depth_duration_stimuli/001555_2014-06-20_17-12-10_260595134347_rgbf000065-resize_4/001555_2014-06-20_17-12-10_260595134347_rgbf000065-resize_4-target.png,125,1.633,1.0,2497,137,meters,jsons/VE125_randls_77_rotated.json,1161900,1520947,23,Man
46,250584,DepthScenes,duration_manipulation_targetAtFixation,jsons/VE125_randls_77_rotated.json,http://54.235.29.9/FacialAge/BNav_EC2/DepthDuration/v2_depth_duration_MTurk/v2_DepthDuration_HTML.html#120,120,1364,768,1364,768,9-18-2022,13-46-38,47,depth_duration_stimuli/002805_2014-06-22_19-54-03_094959634447_rgbf000079-resize_1/002805_2014-06-22_19-54-03_094959634447_rgbf000079-resize_1-target.png,125,3.1439999999999997,1.0,3609,117,meters,jsons/VE125_randls_77_rotated.json,1161900,1520947,23,Man
47,250584,DepthScenes,duration_manipulation_targetAtFixation,jsons/VE125_randls_77_rotated.json,http://54.235.29.9/FacialAge/BNav_EC2/DepthDuration/v2_depth_duration_MTurk/v2_DepthDuration_HTML.html#120,120,1364,768,1364,768,9-18-2022,13-46-38,48,depth_duration_stimuli/000906_2014-06-08_13-35-43_260595134347_rgbf000155-resize_1/000906_2014-06-08_13-35-43_260595134347_rgbf000155-resize_1-target.png,125,2.8489999999999998,1.0,2375,122,meters,jsons/VE125_randls_77_rotated.json,1161900,1520947,23,Man
48,250584,DepthScenes,duration_manipulation_targetAtFixation,jsons/VE125_randls_77_rotated.json,http://54.235.29.9/FacialAge/BNav_EC2/DepthDuration/v2_depth_duration_MTurk/v2_DepthDuration_HTML.html#120,120,1364,768,1364,768,9-18-2022,13-46-38,49,depth_duration_stimuli/001170_2014-06-17_15-43-44_260595134347_rgbf000096-resize_6/001170_2014-06-17_15-43-44_260595134347_rgbf000096-resize-original.jpg,125,1.1909999999999998,2.0,3135,120,meters,jsons/VE125_randls_77_rotated.json,1161900,1520947,23,Man
49,250584,DepthScenes,duration_manipulation_targetAtFixation,jsons/VE125_randls_77_rotated.json,http://54.235.29.9/FacialAge/BNav_EC2/DepthDuration/v2_depth_duration_MTurk/v2_DepthDuration_HTML.html#120,120,1364,768,1364,768,9-18-2022,13-46-38,50,depth_duration_stimuli/002758_2014-06-22_19-11-20_094959634447_rgbf000128-resize_1/002758_2014-06-22_19-11-20_094959634447_rgbf000128-resize_1-target.png,125,2.555,0.0,4477,127,meters,jsons/VE125_randls_77_rotated.json,1161900,1520947,23,Man
50,250584,DepthScenes,duration_manipulation_targetAtFixation,jsons/VE125_randls_77_rotated.json,http://54.235.29.9/FacialAge/BNav_EC2/DepthDuration/v2_depth_duration_MTurk/v2_DepthDuration_HTML.html#120,120,1364,768,1364,768,9-18-2022,13-46-38,51,depth_duration_stimuli/002630_2014-06-24_14-47-50_094959634447_rgbf000055-resize_1/002630_2014-06-24_14-47-50_094959634447_rgbf000055-resize_1-target.png,125,3.0095,1.0,2890,126,meters,jsons/VE125_randls_77_rotated.json,1161900,1520947,23,Man
51,250584,DepthScenes,duration_manipulation_targetAtFixation,jsons/VE125_randls_77_rotated.json,http://54.235.29.9/FacialAge/BNav_EC2/DepthDuration/v2_depth_duration_MTurk/v2_DepthDuration_HTML.html#120,120,1364,768,1364,768,9-18-2022,13-46-38,52,depth_duration_stimuli/002953_2014-06-08_17-32-18_094959634447_rgbf000059-resize_5/002953_2014-06-08_17-32-18_094959634447_rgbf000059-resize_5-target.png,125,1.551,1.0,5451,129,meters,jsons/VE125_randls_77_rotated.json,1161900,1520947,23,Man
52,250584,DepthScenes,duration_manipulation_targetAtFixation,jsons/VE125_randls_77_rotated.json,http://54.235.29.9/FacialAge/BNav_EC2/DepthDuration/v2_depth_duration_MTurk/v2_DepthDuration_HTML.html#120,120,1364,768,1364,768,9-18-2022,13-46-38,53,depth_duration_stimuli/000878_2014-06-08_22-52-45_260595134347_rgbf000045-resize_2/000878_2014-06-08_22-52-45_260595134347_rgbf000045-resize_2-target.png,125,2.092,0.0,2368,137,meters,jsons/VE125_randls_77_rotated.json,1161900,1520947,23,Man
53,250584,DepthScenes,duration_manipulation_targetAtFixation,jsons/VE125_randls_77_rotated.json,http://54.235.29.9/FacialAge/BNav_EC2/DepthDuration/v2_depth_duration_MTurk/v2_DepthDuration_HTML.html#120,120,1364,768,1364,768,9-18-2022,13-46-38,54,depth_duration_stimuli/002568_2014-06-24_13-59-21_094959634447_rgbf000062-resize_4/002568_2014-06-24_13-59-21_094959634447_rgbf000062-resize_4-target.png,125,3.015,2.0,2839,124,meters,jsons/VE125_randls_77_rotated.json,1161900,1520947,23,Man
54,250584,DepthScenes,duration_manipulation_targetAtFixation,jsons/VE125_randls_77_rotated.json,http://54.235.29.9/FacialAge/BNav_EC2/DepthDuration/v2_depth_duration_MTurk/v2_DepthDuration_HTML.html#120,120,1364,768,1364,768,9-18-2022,13-46-38,55,depth_duration_stimuli/003492_2014-05-21_15-50-55_094959634447_rgbf000828-resize_1/003492_2014-05-21_15-50-55_094959634447_rgbf000828-resize_1-target.png,125,4.06875,0.0,2641,1,meters,jsons/VE125_randls_77_rotated.json,1161900,1520947,23,Man
55,250584,DepthScenes,duration_manipulation_targetAtFixation,jsons/VE125_randls_77_rotated.json,http://54.235.29.9/FacialAge/BNav_EC2/DepthDuration/v2_depth_duration_MTurk/v2_DepthDuration_HTML.html#120,120,1364,768,1364,768,9-18-2022,13-46-38,56,depth_duration_stimuli/000927_2014-06-09_16-32-30_260595134347_rgbf000123-resize_3/000927_2014-06-09_16-32-30_260595134347_rgbf000123-resize_3-target.png,125,2.6785,1.0,30324,125,meters,jsons/VE125_randls_77_rotated.json,1161900,1520947,23,Man
56,250584,DepthScenes,duration_manipulation_targetAtFixation,jsons/VE125_randls_77_rotated.json,http://54.235.29.9/FacialAge/BNav_EC2/DepthDuration/v2_depth_duration_MTurk/v2_DepthDuration_HTML.html#120,120,1364,768,1364,768,9-18-2022,13-46-38,57,depth_duration_stimuli/001110_2014-06-15_17-25-28_260595134347_rgbf000150-resize_1/001110_2014-06-15_17-25-28_260595134347_rgbf000150-resize_1-target.png,125,1.7115,2.0,4413,156,meters,jsons/VE125_randls_77_rotated.json,1161900,1520947,23,Man
57,250584,DepthScenes,duration_manipulation_targetAtFixation,jsons/VE125_randls_77_rotated.json,http://54.235.29.9/FacialAge/BNav_EC2/DepthDuration/v2_depth_duration_MTurk/v2_DepthDuration_HTML.html#120,120,1364,768,1364,768,9-18-2022,13-46-38,58,depth_duration_stimuli/002657_2014-06-13_15-29-54_094959634447_rgbf000150-resize_1/002657_2014-06-13_15-29-54_094959634447_rgbf000150-resize_1-target.png,125,4.919,2.0,2949,124,meters,jsons/VE125_randls_77_rotated.json,1161900,1520947,23,Man
58,250584,DepthScenes,duration_manipulation_targetAtFixation,jsons/VE125_randls_77_rotated.json,http://54.235.29.9/FacialAge/BNav_EC2/DepthDuration/v2_depth_duration_MTurk/v2_DepthDuration_HTML.html#120,120,1364,768,1364,768,9-18-2022,13-46-38,59,depth_duration_stimuli/002375_2014-06-28_20-13-44_260595134347_rgbf000032-resize_1/002375_2014-06-28_20-13-44_260595134347_rgbf000032-resize_1-target.png,125,4.0175,1.0,2735,124,meters,jsons/VE125_randls_77_rotated.json,1161900,1520947,23,Man
59,250584,DepthScenes,duration_manipulation_targetAtFixation,jsons/VE125_randls_77_rotated.json,http://54.235.29.9/FacialAge/BNav_EC2/DepthDuration/v2_depth_duration_MTurk/v2_DepthDuration_HTML.html#120,120,1364,768,1364,768,9-18-2022,13-46-38,60,depth_duration_stimuli/000109_2014-05-14_23-41-52_260595134347_rgbf000035-resize_9/000109_2014-05-14_23-41-52_260595134347_rgbf000035-resize_9-target.png,125,1.3545,1.0,2705,35,meters,jsons/VE125_randls_77_rotated.json,1161900,1520947,23,Man
60,250584,DepthScenes,duration_manipulation_targetAtFixation,jsons/VE125_randls_77_rotated.json,http://54.235.29.9/FacialAge/BNav_EC2/DepthDuration/v2_depth_duration_MTurk/v2_DepthDuration_HTML.html#120,120,1364,768,1364,768,9-18-2022,13-46-38,61,depth_duration_stimuli/000470_2014-06-09_19-42-40_260595134347_rgbf000094-resize_1/000470_2014-06-09_19-42-40_260595134347_rgbf000094-resize_1-target.png,125,1.831,1.0,2595,130,meters,jsons/VE125_randls_77_rotated.json,1161900,1520947,23,Man
61,250584,DepthScenes,duration_manipulation_targetAtFixation,jsons/VE125_randls_77_rotated.json,http://54.235.29.9/FacialAge/BNav_EC2/DepthDuration/v2_depth_duration_MTurk/v2_DepthDuration_HTML.html#120,120,1364,768,1364,768,9-18-2022,13-46-38,62,depth_duration_stimuli/002414_2014-06-28_20-24-58_260595134347_rgbf000067-resize_4/002414_2014-06-28_20-24-58_260595134347_rgbf000067-resize_4-target.png,125,4.363,2.0,2882,147,meters,jsons/VE125_randls_77_rotated.json,1161900,1520947,23,Man
62,250584,DepthScenes,duration_manipulation_targetAtFixation,jsons/VE125_randls_77_rotated.json,http://54.235.29.9/FacialAge/BNav_EC2/DepthDuration/v2_depth_duration_MTurk/v2_DepthDuration_HTML.html#120,120,1364,768,1364,768,9-18-2022,13-46-38,63,depth_duration_stimuli/000773_2014-06-08_22-24-54_260595134347_rgbf000093-resize_1/000773_2014-06-08_22-24-54_260595134347_rgbf000093-resize_1-target.png,125,4.973,1.0,3311,331,meters,jsons/VE125_randls_77_rotated.json,1161900,1520947,23,Man
63,250584,DepthScenes,duration_manipulation_targetAtFixation,jsons/VE125_randls_77_rotated.json,http://54.235.29.9/FacialAge/BNav_EC2/DepthDuration/v2_depth_duration_MTurk/v2_DepthDuration_HTML.html#120,120,1364,768,1364,768,9-18-2022,13-46-38,64,depth_duration_stimuli/002875_2014-06-01_15-19-00_094959634447_rgbf000151-resize_1/002875_2014-06-01_15-19-00_094959634447_rgbf000151-resize_1-target.png,125,1.9675,2.0,2423,134,meters,jsons/VE125_randls_77_rotated.json,1161900,1520947,23,Man
64,250584,DepthScenes,duration_manipulation_targetAtFixation,jsons/VE125_randls_77_rotated.json,http://54.235.29.9/FacialAge/BNav_EC2/DepthDuration/v2_depth_duration_MTurk/v2_DepthDuration_HTML.html#120,120,1364,768,1364,768,9-18-2022,13-46-38,65,depth_duration_stimuli/001011_2014-06-08_23-18-54_260595134347_rgbf000044-resize_4/001011_2014-06-08_23-18-54_260595134347_rgbf000044-resize_4-target.png,125,2.4730000000000003,1.0,2838,124,meters,jsons/VE125_randls_77_rotated.json,1161900,1520947,23,Man
65,250584,DepthScenes,duration_manipulation_targetAtFixation,jsons/VE125_randls_77_rotated.json,http://54.235.29.9/FacialAge/BNav_EC2/DepthDuration/v2_depth_duration_MTurk/v2_DepthDuration_HTML.html#120,120,1364,768,1364,768,9-18-2022,13-46-38,66,depth_duration_stimuli/001540_2014-06-20_17-01-05_260595134347_rgbf000086-resize_2/001540_2014-06-20_17-01-05_260595134347_rgbf000086-resize-original.jpg,125,1.459,2.0,3889,126,meters,jsons/VE125_randls_77_rotated.json,1161900,1520947,23,Man
66,250584,DepthScenes,duration_manipulation_targetAtFixation,jsons/VE125_randls_77_rotated.json,http://54.235.29.9/FacialAge/BNav_EC2/DepthDuration/v2_depth_duration_MTurk/v2_DepthDuration_HTML.html#120,120,1364,768,1364,768,9-18-2022,13-46-38,67,depth_duration_stimuli/000749_2014-06-08_21-55-06_260595134347_rgbf000070-resize_2/000749_2014-06-08_21-55-06_260595134347_rgbf000070-resize_2-target.png,125,2.331,2.0,26728,126,meters,jsons/VE125_randls_77_rotated.json,1161900,1520947,23,Man
67,250584,DepthScenes,duration_manipulation_targetAtFixation,jsons/VE125_randls_77_rotated.json,http://54.235.29.9/FacialAge/BNav_EC2/DepthDuration/v2_depth_duration_MTurk/v2_DepthDuration_HTML.html#120,120,1364,768,1364,768,9-18-2022,13-46-38,68,depth_duration_stimuli/002788_2014-06-22_19-36-03_094959634447_rgbf000088-resize_2/002788_2014-06-22_19-36-03_094959634447_rgbf000088-resize_2-target.png,125,1.6465,2.0,2679,125,meters,jsons/VE125_randls_77_rotated.json,1161900,1520947,23,Man
68,250584,DepthScenes,duration_manipulation_targetAtFixation,jsons/VE125_randls_77_rotated.json,http://54.235.29.9/FacialAge/BNav_EC2/DepthDuration/v2_depth_duration_MTurk/v2_DepthDuration_HTML.html#120,120,1364,768,1364,768,9-18-2022,13-46-38,69,depth_duration_stimuli/001584_2014-06-20_11-07-43_260595134347_rgbf000002-resize_1/001584_2014-06-20_11-07-43_260595134347_rgbf000002-resize_1-target.png,125,3.53,1.0,3751,128,meters,jsons/VE125_randls_77_rotated.json,1161900,1520947,23,Man
69,250584,DepthScenes,duration_manipulation_targetAtFixation,jsons/VE125_randls_77_rotated.json,http://54.235.29.9/FacialAge/BNav_EC2/DepthDuration/v2_depth_duration_MTurk/v2_DepthDuration_HTML.html#120,120,1364,768,1364,768,9-18-2022,13-46-38,70,depth_duration_stimuli/003621_2014-05-23_18-06-08_094959634447_rgbf000101-resize_1/003621_2014-05-23_18-06-08_094959634447_rgbf000101-resize_1-target.png,125,3.9835,0.0,2589,119,meters,jsons/VE125_randls_77_rotated.json,1161900,1520947,23,Man
70,250584,DepthScenes,duration_manipulation_targetAtFixation,jsons/VE125_randls_77_rotated.json,http://54.235.29.9/FacialAge/BNav_EC2/DepthDuration/v2_depth_duration_MTurk/v2_DepthDuration_HTML.html#120,120,1364,768,1364,768,9-18-2022,13-46-38,71,depth_duration_stimuli/002209_2014-06-28_18-36-10_260595134347_rgbf000051-resize_1/002209_2014-06-28_18-36-10_260595134347_rgbf000051-resize_1-target.png,125,2.057,1.0,8977,132,meters,jsons/VE125_randls_77_rotated.json,1161900,1520947,23,Man
71,250584,DepthScenes,duration_manipulation_targetAtFixation,jsons/VE125_randls_77_rotated.json,http://54.235.29.9/FacialAge/BNav_EC2/DepthDuration/v2_depth_duration_MTurk/v2_DepthDuration_HTML.html#120,120,1364,768,1364,768,9-18-2022,13-46-38,72,depth_duration_stimuli/002763_2014-06-22_19-13-10_094959634447_rgbf000075-resize_4/002763_2014-06-22_19-13-10_094959634447_rgbf000075-resize_4-target.png,125,1.68375,1.0,27975,125,meters,jsons/VE125_randls_77_rotated.json,1161900,1520947,23,Man
72,250584,DepthScenes,duration_manipulation_targetAtFixation,jsons/VE125_randls_77_rotated.json,http://54.235.29.9/FacialAge/BNav_EC2/DepthDuration/v2_depth_duration_MTurk/v2_DepthDuration_HTML.html#120,120,1364,768,1364,768,9-18-2022,13-46-38,73,depth_duration_stimuli/000742_2014-06-08_18-48-09_260595134347_rgbf000164-resize_4/000742_2014-06-08_18-48-09_260595134347_rgbf000164-resize_4-target.png,125,4.632,1.0,2627,110,meters,jsons/VE125_randls_77_rotated.json,1161900,1520947,23,Man
73,250584,DepthScenes,duration_manipulation_targetAtFixation,jsons/VE125_randls_77_rotated.json,http://54.235.29.9/FacialAge/BNav_EC2/DepthDuration/v2_depth_duration_MTurk/v2_DepthDuration_HTML.html#120,120,1364,768,1364,768,9-18-2022,13-46-38,74,depth_duration_stimuli/001066_2014-06-08_22-03-20_260595134347_rgbf000066-resize_4/001066_2014-06-08_22-03-20_260595134347_rgbf000066-resize_4-target.png,125,4.2330000000000005,0.0,2605,112,meters,jsons/VE125_randls_77_rotated.json,1161900,1520947,23,Man
74,250584,DepthScenes,duration_manipulation_targetAtFixation,jsons/VE125_randls_77_rotated.json,http://54.235.29.9/FacialAge/BNav_EC2/DepthDuration/v2_depth_duration_MTurk/v2_DepthDuration_HTML.html#120,120,1364,768,1364,768,9-18-2022,13-46-38,75,depth_duration_stimuli/001136_2014-06-17_15-19-41_260595134347_rgbf000076-resize_3/001136_2014-06-17_15-19-41_260595134347_rgbf000076-resize_3-target.png,125,1.8655,1.0,4349,115,meters,jsons/VE125_randls_77_rotated.json,1161900,1520947,23,Man
75,250584,DepthScenes,duration_manipulation_targetAtFixation,jsons/VE125_randls_77_rotated.json,http://54.235.29.9/FacialAge/BNav_EC2/DepthDuration/v2_depth_duration_MTurk/v2_DepthDuration_HTML.html#120,120,1364,768,1364,768,9-18-2022,13-46-38,76,depth_duration_stimuli/001164_2014-06-17_15-35-46_260595134347_rgbf000085-resize_3/001164_2014-06-17_15-35-46_260595134347_rgbf000085-resize_3-target.png,125,2.354,0.0,2318,138,meters,jsons/VE125_randls_77_rotated.json,1161900,1520947,23,Man
76,250584,DepthScenes,duration_manipulation_targetAtFixation,jsons/VE125_randls_77_rotated.json,http://54.235.29.9/FacialAge/BNav_EC2/DepthDuration/v2_depth_duration_MTurk/v2_DepthDuration_HTML.html#120,120,1364,768,1364,768,9-18-2022,13-46-38,77,depth_duration_stimuli/001094_2014-06-15_17-36-00_260595134347_rgbf000205-resize_0/001094_2014-06-15_17-36-00_260595134347_rgbf000205-resize_0-target.png,125,4.2175,2.0,3244,113,meters,jsons/VE125_randls_77_rotated.json,1161900,1520947,23,Man
77,250584,DepthScenes,duration_manipulation_targetAtFixation,jsons/VE125_randls_77_rotated.json,http://54.235.29.9/FacialAge/BNav_EC2/DepthDuration/v2_depth_duration_MTurk/v2_DepthDuration_HTML.html#120,120,1364,768,1364,768,9-18-2022,13-46-38,78,depth_duration_stimuli/000692_2014-06-08_13-09-42_260595134347_rgbf000199-resize_2/000692_2014-06-08_13-09-42_260595134347_rgbf000199-resize_2-target.png,125,3.661,1.0,2611,118,meters,jsons/VE125_randls_77_rotated.json,1161900,1520947,23,Man
78,250584,DepthScenes,duration_manipulation_targetAtFixation,jsons/VE125_randls_77_rotated.json,http://54.235.29.9/FacialAge/BNav_EC2/DepthDuration/v2_depth_duration_MTurk/v2_DepthDuration_HTML.html#120,120,1364,768,1364,768,9-18-2022,13-46-38,79,depth_duration_stimuli/000677_2014-06-08_23-10-32_260595134347_rgbf000158-resize_6/000677_2014-06-08_23-10-32_260595134347_rgbf000158-resize_6-target.png,125,3.556,1.0,2843,136,meters,jsons/VE125_randls_77_rotated.json,1161900,1520947,23,Man
79,250584,DepthScenes,duration_manipulation_targetAtFixation,jsons/VE125_randls_77_rotated.json,http://54.235.29.9/FacialAge/BNav_EC2/DepthDuration/v2_depth_duration_MTurk/v2_DepthDuration_HTML.html#120,120,1364,768,1364,768,9-18-2022,13-46-38,80,depth_duration_stimuli/001029_2014-06-08_13-17-57_260595134347_rgbf000065-resize_1/001029_2014-06-08_13-17-57_260595134347_rgbf000065-resize_1-target.png,125,3.0835,0.0,2464,129,meters,jsons/VE125_randls_77_rotated.json,1161900,1520947,23,Man
80,250584,DepthScenes,duration_manipulation_targetAtFixation,jsons/VE125_randls_77_rotated.json,http://54.235.29.9/FacialAge/BNav_EC2/DepthDuration/v2_depth_duration_MTurk/v2_DepthDuration_HTML.html#120,120,1364,768,1364,768,9-18-2022,13-46-38,81,depth_duration_stimuli/000780_2014-06-08_22-28-29_260595134347_rgbf000126-resize_1/000780_2014-06-08_22-28-29_260595134347_rgbf000126-resize_1-target.png,125,3.3825,2.0,2930,116,meters,jsons/VE125_randls_77_rotated.json,1161900,1520947,23,Man
81,250584,DepthScenes,duration_manipulation_targetAtFixation,jsons/VE125_randls_77_rotated.json,http://54.235.29.9/FacialAge/BNav_EC2/DepthDuration/v2_depth_duration_MTurk/v2_DepthDuration_HTML.html#120,120,1364,768,1364,768,9-18-2022,13-46-38,82,depth_duration_stimuli/002445_2014-06-28_20-32-16_260595134347_rgbf000029-resize_4/002445_2014-06-28_20-32-16_260595134347_rgbf000029-resize_4-target.png,125,2.5315,1.0,2799,125,meters,jsons/VE125_randls_77_rotated.json,1161900,1520947,23,Man
82,250584,DepthScenes,duration_manipulation_targetAtFixation,jsons/VE125_randls_77_rotated.json,http://54.235.29.9/FacialAge/BNav_EC2/DepthDuration/v2_depth_duration_MTurk/v2_DepthDuration_HTML.html#120,120,1364,768,1364,768,9-18-2022,13-46-38,83,depth_duration_stimuli/000483_2014-06-09_20-41-45_260595134347_rgbf000116-resize_4/000483_2014-06-09_20-41-45_260595134347_rgbf000116-resize_4-target.png,125,1.337,1.0,2959,124,meters,jsons/VE125_randls_77_rotated.json,1161900,1520947,23,Man
83,250584,DepthScenes,duration_manipulation_targetAtFixation,jsons/VE125_randls_77_rotated.json,http://54.235.29.9/FacialAge/BNav_EC2/DepthDuration/v2_depth_duration_MTurk/v2_DepthDuration_HTML.html#120,120,1364,657,1364,768,9-18-2022,13-46-38,84,depth_duration_stimuli/000469_2014-06-09_19-42-10_260595134347_rgbf000081-resize_1/000469_2014-06-09_19-42-10_260595134347_rgbf000081-resize_1-target.png,125,1.652,0.0,62918,124,meters,jsons/VE125_randls_77_rotated.json,1161900,1520947,23,Man
84,250584,DepthScenes,duration_manipulation_targetAtFixation,jsons/VE125_randls_77_rotated.json,http://54.235.29.9/FacialAge/BNav_EC2/DepthDuration/v2_depth_duration_MTurk/v2_DepthDuration_HTML.html#120,120,1364,657,1364,768,9-18-2022,13-46-38,85,depth_duration_stimuli/000502_2014-06-08_23-02-32_260595134347_rgbf000063-resize_4/000502_2014-06-08_23-02-32_260595134347_rgbf000063-resize_4-target.png,125,2.431,1.0,3663,110,meters,jsons/VE125_randls_77_rotated.json,1161900,1520947,23,Man
85,250584,DepthScenes,duration_manipulation_targetAtFixation,jsons/VE125_randls_77_rotated.json,http://54.235.29.9/FacialAge/BNav_EC2/DepthDuration/v2_depth_duration_MTurk/v2_DepthDuration_HTML.html#120,120,1364,657,1364,768,9-18-2022,13-46-38,86,depth_duration_stimuli/001199_2014-06-17_16-03-48_260595134347_rgbf000077-resize_0/001199_2014-06-17_16-03-48_260595134347_rgbf000077-resize_0-target.png,125,3.4375,0.0,3161,118,meters,jsons/VE125_randls_77_rotated.json,1161900,1520947,23,Man
86,250584,DepthScenes,duration_manipulation_targetAtFixation,jsons/VE125_randls_77_rotated.json,http://54.235.29.9/FacialAge/BNav_EC2/DepthDuration/v2_depth_duration_MTurk/v2_DepthDuration_HTML.html#120,120,1364,657,1364,768,9-18-2022,13-46-38,87,depth_duration_stimuli/000137_2014-05-20_17-04-49_260595134347_rgbf000120-resize_1/000137_2014-05-20_17-04-49_260595134347_rgbf000120-resize_1-target.png,125,3.786,1.0,11011,125,meters,jsons/VE125_randls_77_rotated.json,1161900,1520947,23,Man
87,250584,DepthScenes,duration_manipulation_targetAtFixation,jsons/VE125_randls_77_rotated.json,http://54.235.29.9/FacialAge/BNav_EC2/DepthDuration/v2_depth_duration_MTurk/v2_DepthDuration_HTML.html#120,120,1364,657,1364,768,9-18-2022,13-46-38,88,depth_duration_stimuli/000736_2014-06-08_18-24-15_260595134347_rgbf000206-resize_3/000736_2014-06-08_18-24-15_260595134347_rgbf000206-resize_3-target.png,125,3.515,1.0,3415,124,meters,jsons/VE125_randls_77_rotated.json,1161900,1520947,23,Man
88,250584,DepthScenes,duration_manipulation_targetAtFixation,jsons/VE125_randls_77_rotated.json,http://54.235.29.9/FacialAge/BNav_EC2/DepthDuration/v2_depth_duration_MTurk/v2_DepthDuration_HTML.html#120,120,1364,657,1364,768,9-18-2022,13-46-38,89,depth_duration_stimuli/003490_2014-05-21_15-50-11_094959634447_rgbf000101-resize_3/003490_2014-05-21_15-50-11_094959634447_rgbf000101-resize_3-target.png,125,3.6445,2.0,4028,153,meters,jsons/VE125_randls_77_rotated.json,1161900,1520947,23,Man
89,250584,DepthScenes,duration_manipulation_targetAtFixation,jsons/VE125_randls_77_rotated.json,http://54.235.29.9/FacialAge/BNav_EC2/DepthDuration/v2_depth_duration_MTurk/v2_DepthDuration_HTML.html#120,120,1364,657,1364,768,9-18-2022,13-46-38,90,depth_duration_stimuli/001175_2014-06-17_15-45-55_260595134347_rgbf000129-resize_4/001175_2014-06-17_15-45-55_260595134347_rgbf000129-resize_4-target.png,125,4.255,1.0,30064,127,meters,jsons/VE125_randls_77_rotated.json,1161900,1520947,23,Man
90,250584,DepthScenes,duration_manipulation_targetAtFixation,jsons/VE125_randls_77_rotated.json,http://54.235.29.9/FacialAge/BNav_EC2/DepthDuration/v2_depth_duration_MTurk/v2_DepthDuration_HTML.html#120,120,1364,657,1364,768,9-18-2022,13-46-38,91,depth_duration_stimuli/001447_2014-06-19_17-00-32_260595134347_rgbf000082-resize_5/001447_2014-06-19_17-00-32_260595134347_rgbf000082-resize_5-target.png,125,4.13775,1.0,12045,139,meters,jsons/VE125_randls_77_rotated.json,1161900,1520947,23,Man
91,250584,DepthScenes,duration_manipulation_targetAtFixation,jsons/VE125_randls_77_rotated.json,http://54.235.29.9/FacialAge/BNav_EC2/DepthDuration/v2_depth_duration_MTurk/v2_DepthDuration_HTML.html#120,120,1364,657,1364,768,9-18-2022,13-46-38,92,depth_duration_stimuli/000447_2014-06-08_16-15-46_260595134347_rgbf000130-resize_1/000447_2014-06-08_16-15-46_260595134347_rgbf000130-resize_1-target.png,125,4.479,2.0,2950,129,meters,jsons/VE125_randls_77_rotated.json,1161900,1520947,23,Man
92,250584,DepthScenes,duration_manipulation_targetAtFixation,jsons/VE125_randls_77_rotated.json,http://54.235.29.9/FacialAge/BNav_EC2/DepthDuration/v2_depth_duration_MTurk/v2_DepthDuration_HTML.html#120,120,1364,657,1364,768,9-18-2022,13-46-38,93,depth_duration_stimuli/000191_2014-05-12_17-07-38_260595134347_rgbf000199-resize_0/000191_2014-05-12_17-07-38_260595134347_rgbf000199-resize_0-target.png,125,3.7995,2.0,61495,124,meters,jsons/VE125_randls_77_rotated.json,1161900,1520947,23,Man
93,250584,DepthScenes,duration_manipulation_targetAtFixation,jsons/VE125_randls_77_rotated.json,http://54.235.29.9/FacialAge/BNav_EC2/DepthDuration/v2_depth_duration_MTurk/v2_DepthDuration_HTML.html#120,120,1364,657,1364,768,9-18-2022,13-46-38,94,depth_duration_stimuli/000493_2014-06-09_21-01-18_260595134347_rgbf000196-resize_3/000493_2014-06-09_21-01-18_260595134347_rgbf000196-resize_3-target.png,125,3.44,1.0,6452,123,meters,jsons/VE125_randls_77_rotated.json,1161900,1520947,23,Man
94,250584,DepthScenes,duration_manipulation_targetAtFixation,jsons/VE125_randls_77_rotated.json,http://54.235.29.9/FacialAge/BNav_EC2/DepthDuration/v2_depth_duration_MTurk/v2_DepthDuration_HTML.html#120,120,1364,657,1364,768,9-18-2022,13-46-38,95,depth_duration_stimuli/001828_2014-06-26_21-40-03_260595134347_rgbf000024-resize_0/001828_2014-06-26_21-40-03_260595134347_rgbf000024-resize_0-target.png,125,4.8260000000000005,1.0,72480,13,meters,jsons/VE125_randls_77_rotated.json,1161900,1520947,23,Man
95,250584,DepthScenes,duration_manipulation_targetAtFixation,jsons/VE125_randls_77_rotated.json,http://54.235.29.9/FacialAge/BNav_EC2/DepthDuration/v2_depth_duration_MTurk/v2_DepthDuration_HTML.html#120,120,1364,657,1364,768,9-18-2022,13-46-38,96,depth_duration_stimuli/000009_2014-05-26_14-32-05_260595134347_rgbf000034-resize_3/000009_2014-05-26_14-32-05_260595134347_rgbf000034-resize_3-target.png,125,3.8715,0.0,3267,114,meters,jsons/VE125_randls_77_rotated.json,1161900,1520947,23,Man
96,250584,DepthScenes,duration_manipulation_targetAtFixation,jsons/VE125_randls_77_rotated.json,http://54.235.29.9/FacialAge/BNav_EC2/DepthDuration/v2_depth_duration_MTurk/v2_DepthDuration_HTML.html#120,120,1364,657,1364,768,9-18-2022,13-46-38,97,depth_duration_stimuli/001617_2014-06-20_11-35-32_260595134347_rgbf000066-resize_1/001617_2014-06-20_11-35-32_260595134347_rgbf000066-resize_1-target.png,125,3.7910000000000004,2.0,2778,123,meters,jsons/VE125_randls_77_rotated.json,1161900,1520947,23,Man
97,250584,DepthScenes,duration_manipulation_targetAtFixation,jsons/VE125_randls_77_rotated.json,http://54.235.29.9/FacialAge/BNav_EC2/DepthDuration/v2_depth_duration_MTurk/v2_DepthDuration_HTML.html#120,120,1364,657,1364,768,9-18-2022,13-46-38,98,depth_duration_stimuli/001806_2014-06-26_20-50-20_260595134347_rgbf000091-resize_1/001806_2014-06-26_20-50-20_260595134347_rgbf000091-resize_1-target.png,125,2.7305,1.0,2658,125,meters,jsons/VE125_randls_77_rotated.json,1161900,1520947,23,Man
98,250584,DepthScenes,duration_manipulation_targetAtFixation,jsons/VE125_randls_77_rotated.json,http://54.235.29.9/FacialAge/BNav_EC2/DepthDuration/v2_depth_duration_MTurk/v2_DepthDuration_HTML.html#120,120,1364,657,1364,768,9-18-2022,13-46-38,99,depth_duration_stimuli/001222_2014-06-17_16-24-06_260595134347_rgbf000073-resize_0/001222_2014-06-17_16-24-06_260595134347_rgbf000073-resize-original.jpg,125,1.4385,1.0,3117,124,meters,jsons/VE125_randls_77_rotated.json,1161900,1520947,23,Man
99,250584,DepthScenes,duration_manipulation_targetAtFixation,jsons/VE125_randls_77_rotated.json,http://54.235.29.9/FacialAge/BNav_EC2/DepthDuration/v2_depth_duration_MTurk/v2_DepthDuration_HTML.html#120,120,1364,657,1364,768,9-18-2022,13-46-38,100,depth_duration_stimuli/002750_2014-06-22_19-08-03_094959634447_rgbf000094-resize_4/002750_2014-06-22_19-08-03_094959634447_rgbf000094-resize_4-target.png,125,2.354,1.0,6800,126,meters,jsons/VE125_randls_77_rotated.json,1161900,1520947,23,Man
100,250584,DepthScenes,duration_manipulation_targetAtFixation,jsons/VE125_randls_77_rotated.json,http://54.235.29.9/FacialAge/BNav_EC2/DepthDuration/v2_depth_duration_MTurk/v2_DepthDuration_HTML.html#120,120,1364,657,1364,768,9-18-2022,13-46-38,101,depth_duration_stimuli/002549_2014-06-24_13-41-39_094959634447_rgbf000022-resize_3/002549_2014-06-24_13-41-39_094959634447_rgbf000022-resize_3-target.png,125,1.476,1.0,2496,124,meters,jsons/VE125_randls_77_rotated.json,1161900,1520947,23,Man
101,250584,DepthScenes,duration_manipulation_targetAtFixation,jsons/VE125_randls_77_rotated.json,http://54.235.29.9/FacialAge/BNav_EC2/DepthDuration/v2_depth_duration_MTurk/v2_DepthDuration_HTML.html#120,120,1364,657,1364,768,9-18-2022,13-46-38,102,depth_duration_stimuli/001450_2014-06-19_17-02-03_260595134347_rgbf000203-resize_4/001450_2014-06-19_17-02-03_260595134347_rgbf000203-resize_4-target.png,125,4.0106666666667,1.0,2741,125,meters,jsons/VE125_randls_77_rotated.json,1161900,1520947,23,Man
102,250584,DepthScenes,duration_manipulation_targetAtFixation,jsons/VE125_randls_77_rotated.json,http://54.235.29.9/FacialAge/BNav_EC2/DepthDuration/v2_depth_duration_MTurk/v2_DepthDuration_HTML.html#120,120,1364,657,1364,768,9-18-2022,13-46-38,103,depth_duration_stimuli/001449_2014-06-19_17-01-27_260595134347_rgbf000116-resize_2/001449_2014-06-19_17-01-27_260595134347_rgbf000116-resize_2-target.png,125,3.452,1.0,2191,121,meters,jsons/VE125_randls_77_rotated.json,1161900,1520947,23,Man
103,250584,DepthScenes,duration_manipulation_targetAtFixation,jsons/VE125_randls_77_rotated.json,http://54.235.29.9/FacialAge/BNav_EC2/DepthDuration/v2_depth_duration_MTurk/v2_DepthDuration_HTML.html#120,120,1364,657,1364,768,9-18-2022,13-46-38,104,depth_duration_stimuli/002103_2014-06-25_20-00-40_260595134347_rgbf000049-resize_0/002103_2014-06-25_20-00-40_260595134347_rgbf000049-resize_0-target.png,125,4.105,1.0,3268,114,meters,jsons/VE125_randls_77_rotated.json,1161900,1520947,23,Man
104,250584,DepthScenes,duration_manipulation_targetAtFixation,jsons/VE125_randls_77_rotated.json,http://54.235.29.9/FacialAge/BNav_EC2/DepthDuration/v2_depth_duration_MTurk/v2_DepthDuration_HTML.html#120,120,1364,657,1364,768,9-18-2022,13-46-38,105,depth_duration_stimuli/002039_2014-06-24_20-22-38_260595134347_rgbf000084-resize_1/002039_2014-06-24_20-22-38_260595134347_rgbf000084-resize_1-target.png,125,4.408,2.0,3239,124,meters,jsons/VE125_randls_77_rotated.json,1161900,1520947,23,Man
105,250584,DepthScenes,duration_manipulation_targetAtFixation,jsons/VE125_randls_77_rotated.json,http://54.235.29.9/FacialAge/BNav_EC2/DepthDuration/v2_depth_duration_MTurk/v2_DepthDuration_HTML.html#120,120,1364,657,1364,768,9-18-2022,13-46-38,106,depth_duration_stimuli/001052_2014-06-08_18-24-54_260595134347_rgbf000130-resize_1/001052_2014-06-08_18-24-54_260595134347_rgbf000130-resize_1-target.png,125,4.1045,2.0,2556,124,meters,jsons/VE125_randls_77_rotated.json,1161900,1520947,23,Man
106,250584,DepthScenes,duration_manipulation_targetAtFixation,jsons/VE125_randls_77_rotated.json,http://54.235.29.9/FacialAge/BNav_EC2/DepthDuration/v2_depth_duration_MTurk/v2_DepthDuration_HTML.html#120,120,1364,657,1364,768,9-18-2022,13-46-38,107,depth_duration_stimuli/002988_2014-06-15_12-24-20_094959634447_rgbf000150-resize_1/002988_2014-06-15_12-24-20_094959634447_rgbf000150-resize_1-target.png,125,4.7669999999999995,0.0,2525,123,meters,jsons/VE125_randls_77_rotated.json,1161900,1520947,23,Man
107,250584,DepthScenes,duration_manipulation_targetAtFixation,jsons/VE125_randls_77_rotated.json,http://54.235.29.9/FacialAge/BNav_EC2/DepthDuration/v2_depth_duration_MTurk/v2_DepthDuration_HTML.html#120,120,1364,657,1364,768,9-18-2022,13-46-38,108,depth_duration_stimuli/000943_2014-06-09_19-31-07_260595134347_rgbf000128-resize_1/000943_2014-06-09_19-31-07_260595134347_rgbf000128-resize_1-target.png,125,1.9765,1.0,2591,124,meters,jsons/VE125_randls_77_rotated.json,1161900,1520947,23,Man
108,250584,DepthScenes,duration_manipulation_targetAtFixation,jsons/VE125_randls_77_rotated.json,http://54.235.29.9/FacialAge/BNav_EC2/DepthDuration/v2_depth_duration_MTurk/v2_DepthDuration_HTML.html#120,120,1364,657,1364,768,9-18-2022,13-46-38,109,depth_duration_stimuli/003070_2014-06-15_14-58-27_094959634447_rgbf000150-resize_3/003070_2014-06-15_14-58-27_094959634447_rgbf000150-resize_3-target.png,125,2.9415,1.0,3334,127,meters,jsons/VE125_randls_77_rotated.json,1161900,1520947,23,Man
109,250584,DepthScenes,duration_manipulation_targetAtFixation,jsons/VE125_randls_77_rotated.json,http://54.235.29.9/FacialAge/BNav_EC2/DepthDuration/v2_depth_duration_MTurk/v2_DepthDuration_HTML.html#120,120,1364,657,1364,768,9-18-2022,13-46-38,110,depth_duration_stimuli/000734_2014-06-08_17-39-11_260595134347_rgbf000128-resize_2/000734_2014-06-08_17-39-11_260595134347_rgbf000128-resize_2-target.png,125,4.098,1.0,3271,123,meters,jsons/VE125_randls_77_rotated.json,1161900,1520947,23,Man
110,250584,DepthScenes,duration_manipulation_targetAtFixation,jsons/VE125_randls_77_rotated.json,http://54.235.29.9/FacialAge/BNav_EC2/DepthDuration/v2_depth_duration_MTurk/v2_DepthDuration_HTML.html#120,120,1364,657,1364,768,9-18-2022,13-46-38,111,depth_duration_stimuli/000739_2014-06-08_18-45-58_260595134347_rgbf000068-resize_1/000739_2014-06-08_18-45-58_260595134347_rgbf000068-resize_1-target.png,125,3.534,0.0,6483,124,meters,jsons/VE125_randls_77_rotated.json,1161900,1520947,23,Man
111,250584,DepthScenes,duration_manipulation_targetAtFixation,jsons/VE125_randls_77_rotated.json,http://54.235.29.9/FacialAge/BNav_EC2/DepthDuration/v2_depth_duration_MTurk/v2_DepthDuration_HTML.html#120,120,1364,657,1364,768,9-18-2022,13-46-38,112,depth_duration_stimuli/003010_2014-06-15_12-54-35_094959634447_rgbf000112-resize_0/003010_2014-06-15_12-54-35_094959634447_rgbf000112-resize_0-target.png,125,3.1185,3.0,3876,124,meters,jsons/VE125_randls_77_rotated.json,1161900,1520947,23,Man
112,250584,DepthScenes,duration_manipulation_targetAtFixation,jsons/VE125_randls_77_rotated.json,http://54.235.29.9/FacialAge/BNav_EC2/DepthDuration/v2_depth_duration_MTurk/v2_DepthDuration_HTML.html#120,120,1364,657,1364,768,9-18-2022,13-46-38,113,depth_duration_stimuli/001810_2014-06-26_20-51-35_260595134347_rgbf000040-resize_3/001810_2014-06-26_20-51-35_260595134347_rgbf000040-resize_3-target.png,125,2.2525,0.0,4540,125,meters,jsons/VE125_randls_77_rotated.json,1161900,1520947,23,Man
113,250584,DepthScenes,duration_manipulation_targetAtFixation,jsons/VE125_randls_77_rotated.json,http://54.235.29.9/FacialAge/BNav_EC2/DepthDuration/v2_depth_duration_MTurk/v2_DepthDuration_HTML.html#120,120,1364,657,1364,768,9-18-2022,13-46-38,114,depth_duration_stimuli/001132_2014-06-17_14-48-54_260595134347_rgbf000100-resize_2/001132_2014-06-17_14-48-54_260595134347_rgbf000100-resize_2-target.png,125,3.753,1.0,2515,192,meters,jsons/VE125_randls_77_rotated.json,1161900,1520947,23,Man
114,250584,DepthScenes,duration_manipulation_targetAtFixation,jsons/VE125_randls_77_rotated.json,http://54.235.29.9/FacialAge/BNav_EC2/DepthDuration/v2_depth_duration_MTurk/v2_DepthDuration_HTML.html#120,120,1364,657,1364,768,9-18-2022,13-46-38,115,depth_duration_stimuli/001133_2014-06-17_14-49-16_260595134347_rgbf000100-resize_0/001133_2014-06-17_14-49-16_260595134347_rgbf000100-resize_0-target.png,125,4.2115,1.0,3338,125,meters,jsons/VE125_randls_77_rotated.json,1161900,1520947,23,Man
115,250584,DepthScenes,duration_manipulation_targetAtFixation,jsons/VE125_randls_77_rotated.json,http://54.235.29.9/FacialAge/BNav_EC2/DepthDuration/v2_depth_duration_MTurk/v2_DepthDuration_HTML.html#120,120,1364,657,1364,768,9-18-2022,13-46-38,116,depth_duration_stimuli/001516_2014-06-20_16-25-09_260595134347_rgbf000076-resize_2/001516_2014-06-20_16-25-09_260595134347_rgbf000076-resize_2-target.png,125,1.7445,2.0,2805,110,meters,jsons/VE125_randls_77_rotated.json,1161900,1520947,23,Man
116,250584,DepthScenes,duration_manipulation_targetAtFixation,jsons/VE125_randls_77_rotated.json,http://54.235.29.9/FacialAge/BNav_EC2/DepthDuration/v2_depth_duration_MTurk/v2_DepthDuration_HTML.html#120,120,1364,657,1364,768,9-18-2022,13-46-38,117,depth_duration_stimuli/002118_2014-06-25_20-32-08_260595134347_rgbf000078-resize_1/002118_2014-06-25_20-32-08_260595134347_rgbf000078-resize_1-target.png,125,2.6460000000000004,1.0,2039,125,meters,jsons/VE125_randls_77_rotated.json,1161900,1520947,23,Man
117,250584,DepthScenes,duration_manipulation_targetAtFixation,jsons/VE125_randls_77_rotated.json,http://54.235.29.9/FacialAge/BNav_EC2/DepthDuration/v2_depth_duration_MTurk/v2_DepthDuration_HTML.html#120,120,1364,657,1364,768,9-18-2022,13-46-38,118,depth_duration_stimuli/001815_2014-06-26_20-52-55_260595134347_rgbf000020-resize_0/001815_2014-06-26_20-52-55_260595134347_rgbf000020-resize_0-target.png,125,3.3865,2.0,2965,111,meters,jsons/VE125_randls_77_rotated.json,1161900,1520947,23,Man
118,250584,DepthScenes,duration_manipulation_targetAtFixation,jsons/VE125_randls_77_rotated.json,http://54.235.29.9/FacialAge/BNav_EC2/DepthDuration/v2_depth_duration_MTurk/v2_DepthDuration_HTML.html#120,120,1364,657,1364,768,9-18-2022,13-46-38,119,depth_duration_stimuli/001808_2014-06-26_20-50-58_260595134347_rgbf000029-resize_1/001808_2014-06-26_20-50-58_260595134347_rgbf000029-resize_1-target.png,125,4.249,0.0,2745,110,meters,jsons/VE125_randls_77_rotated.json,1161900,1520947,23,Man
119,250584,DepthScenes,duration_manipulation_targetAtFixation,jsons/VE125_randls_77_rotated.json,http://54.235.29.9/FacialAge/BNav_EC2/DepthDuration/v2_depth_duration_MTurk/v2_DepthDuration_HTML.html#120,120,1364,657,1364,768,9-18-2022,13-46-38,120,depth_duration_stimuli/000787_2014-06-08_22-33-53_260595134347_rgbf000175-resize_1/000787_2014-06-08_22-33-53_260595134347_rgbf000175-resize-original.jpg,125,4.784,0.0,2753,121,meters,jsons/VE125_randls_77_rotated.json,1161900,1520947,23,Man
120,250584,DepthScenes,duration_manipulation_targetAtFixation,jsons/VE125_randls_77_rotated.json,http://54.235.29.9/FacialAge/BNav_EC2/DepthDuration/v2_depth_duration_MTurk/v2_DepthDuration_HTML.html#120,120,1364,657,1364,768,9-18-2022,13-46-38,121,depth_duration_stimuli/000635_2014-06-08_16-38-42_260595134347_rgbf000106-resize_1/000635_2014-06-08_16-38-42_260595134347_rgbf000106-resize_1-target.png,125,2.074,1.0,2618,126,meters,jsons/VE125_randls_77_rotated.json,1161900,1520947,23,Man
121,250584,DepthScenes,duration_manipulation_targetAtFixation,jsons/VE125_randls_77_rotated.json,http://54.235.29.9/FacialAge/BNav_EC2/DepthDuration/v2_depth_duration_MTurk/v2_DepthDuration_HTML.html#120,120,1364,657,1364,768,9-18-2022,13-46-38,122,depth_duration_stimuli/002279_2014-06-28_18-55-32_260595134347_rgbf000040-resize_5/002279_2014-06-28_18-55-32_260595134347_rgbf000040-resize_5-target.png,125,1.5043333333333,1.0,2128,195,meters,jsons/VE125_randls_77_rotated.json,1161900,1520947,23,Man
122,250584,DepthScenes,duration_manipulation_targetAtFixation,jsons/VE125_randls_77_rotated.json,http://54.235.29.9/FacialAge/BNav_EC2/DepthDuration/v2_depth_duration_MTurk/v2_DepthDuration_HTML.html#120,120,1364,657,1364,768,9-18-2022,13-46-38,123,depth_duration_stimuli/003083_2014-06-15_15-21-03_094959634447_rgbf000063-resize_1/003083_2014-06-15_15-21-03_094959634447_rgbf000063-resize_1-target.png,125,4.1405,2.0,2814,110,meters,jsons/VE125_randls_77_rotated.json,1161900,1520947,23,Man
123,250584,DepthScenes,duration_manipulation_targetAtFixation,jsons/VE125_randls_77_rotated.json,http://54.235.29.9/FacialAge/BNav_EC2/DepthDuration/v2_depth_duration_MTurk/v2_DepthDuration_HTML.html#120,120,1364,657,1364,768,9-18-2022,13-46-38,124,depth_duration_stimuli/000486_2014-06-09_20-47-20_260595134347_rgbf000143-resize_2/000486_2014-06-09_20-47-20_260595134347_rgbf000143-resize_2-target.png,125,4.8325,0.0,2405,115,meters,jsons/VE125_randls_77_rotated.json,1161900,1520947,23,Man
124,250584,DepthScenes,duration_manipulation_targetAtFixation,jsons/VE125_randls_77_rotated.json,http://54.235.29.9/FacialAge/BNav_EC2/DepthDuration/v2_depth_duration_MTurk/v2_DepthDuration_HTML.html#120,120,1364,657,1364,768,9-18-2022,13-46-38,125,depth_duration_stimuli/000691_2014-06-08_13-08-50_260595134347_rgbf000132-resize_3/000691_2014-06-08_13-08-50_260595134347_rgbf000132-resize_3-target.png,125,4.1530000000000005,2.0,2662,116,meters,jsons/VE125_randls_77_rotated.json,1161900,1520947,23,Man
125,250584,DepthScenes,duration_manipulation_targetAtFixation,jsons/VE125_randls_77_rotated.json,http://54.235.29.9/FacialAge/BNav_EC2/DepthDuration/v2_depth_duration_MTurk/v2_DepthDuration_HTML.html#120,120,1364,657,1364,768,9-18-2022,13-46-38,126,depth_duration_stimuli/002213_2014-06-28_18-37-58_260595134347_rgbf000055-resize_1/002213_2014-06-28_18-37-58_260595134347_rgbf000055-resize_1-target.png,125,3.62,0.0,2314,134,meters,jsons/VE125_randls_77_rotated.json,1161900,1520947,23,Man
126,250584,DepthScenes,duration_manipulation_targetAtFixation,jsons/VE125_randls_77_rotated.json,http://54.235.29.9/FacialAge/BNav_EC2/DepthDuration/v2_depth_duration_MTurk/v2_DepthDuration_HTML.html#120,120,1364,657,1364,768,9-18-2022,13-46-38,127,depth_duration_stimuli/003495_2014-05-21_16-01-51_094959634447_rgbf000100-resize_3/003495_2014-05-21_16-01-51_094959634447_rgbf000100-resize_3-target.png,125,1.6255,1.0,2498,125,meters,jsons/VE125_randls_77_rotated.json,1161900,1520947,23,Man
127,250584,DepthScenes,duration_manipulation_targetAtFixation,jsons/VE125_randls_77_rotated.json,http://54.235.29.9/FacialAge/BNav_EC2/DepthDuration/v2_depth_duration_MTurk/v2_DepthDuration_HTML.html#120,120,1364,657,1364,768,9-18-2022,13-46-38,128,depth_duration_stimuli/001244_2014-06-17_16-47-45_260595134347_rgbf000030-resize_4/001244_2014-06-17_16-47-45_260595134347_rgbf000030-resize_4-target.png,125,2.0425,0.0,2232,129,meters,jsons/VE125_randls_77_rotated.json,1161900,1520947,23,Man
128,250584,DepthScenes,duration_manipulation_targetAtFixation,jsons/VE125_randls_77_rotated.json,http://54.235.29.9/FacialAge/BNav_EC2/DepthDuration/v2_depth_duration_MTurk/v2_DepthDuration_HTML.html#120,120,1364,657,1364,768,9-18-2022,13-46-38,129,depth_duration_stimuli/000866_2014-06-09_20-45-42_260595134347_rgbf000139-resize_1/000866_2014-06-09_20-45-42_260595134347_rgbf000139-resize_1-target.png,125,3.2155,2.0,2785,123,meters,jsons/VE125_randls_77_rotated.json,1161900,1520947,23,Man
129,250584,DepthScenes,duration_manipulation_targetAtFixation,jsons/VE125_randls_77_rotated.json,http://54.235.29.9/FacialAge/BNav_EC2/DepthDuration/v2_depth_duration_MTurk/v2_DepthDuration_HTML.html#120,120,1364,657,1364,768,9-18-2022,13-46-38,130,depth_duration_stimuli/002989_2014-06-15_12-25-03_094959634447_rgbf000150-resize_3/002989_2014-06-15_12-25-03_094959634447_rgbf000150-resize_3-target.png,125,4.1975,0.0,2883,117,meters,jsons/VE125_randls_77_rotated.json,1161900,1520947,23,Man
130,250584,DepthScenes,duration_manipulation_targetAtFixation,jsons/VE125_randls_77_rotated.json,http://54.235.29.9/FacialAge/BNav_EC2/DepthDuration/v2_depth_duration_MTurk/v2_DepthDuration_HTML.html#120,120,1364,657,1364,768,9-18-2022,13-46-38,131,depth_duration_stimuli/001235_2014-06-17_16-37-36_260595134347_rgbf000084-resize_4/001235_2014-06-17_16-37-36_260595134347_rgbf000084-resize_4-target.png,125,3.6605,1.0,3001,126,meters,jsons/VE125_randls_77_rotated.json,1161900,1520947,23,Man
131,250584,DepthScenes,duration_manipulation_targetAtFixation,jsons/VE125_randls_77_rotated.json,http://54.235.29.9/FacialAge/BNav_EC2/DepthDuration/v2_depth_duration_MTurk/v2_DepthDuration_HTML.html#120,120,1364,657,1364,768,9-18-2022,13-46-38,132,depth_duration_stimuli/000788_2014-06-08_22-34-36_260595134347_rgbf000131-resize_1/000788_2014-06-08_22-34-36_260595134347_rgbf000131-resize_1-target.png,125,3.359,0.0,2553,101,meters,jsons/VE125_randls_77_rotated.json,1161900,1520947,23,Man
132,250584,DepthScenes,duration_manipulation_targetAtFixation,jsons/VE125_randls_77_rotated.json,http://54.235.29.9/FacialAge/BNav_EC2/DepthDuration/v2_depth_duration_MTurk/v2_DepthDuration_HTML.html#120,120,1364,657,1364,768,9-18-2022,13-46-38,133,depth_duration_stimuli/003081_2014-06-15_15-19-16_094959634447_rgbf000150-resize_1/003081_2014-06-15_15-19-16_094959634447_rgbf000150-resize_1-target.png,125,3.9125,1.0,3092,117,meters,jsons/VE125_randls_77_rotated.json,1161900,1520947,23,Man
133,250584,DepthScenes,duration_manipulation_targetAtFixation,jsons/VE125_randls_77_rotated.json,http://54.235.29.9/FacialAge/BNav_EC2/DepthDuration/v2_depth_duration_MTurk/v2_DepthDuration_HTML.html#120,120,1364,657,1364,768,9-18-2022,13-46-38,134,depth_duration_stimuli/001417_2014-06-19_16-25-36_260595134347_rgbf000115-resize_5/001417_2014-06-19_16-25-36_260595134347_rgbf000115-resize_5-target.png,125,4.6255,1.0,2057,125,meters,jsons/VE125_randls_77_rotated.json,1161900,1520947,23,Man
134,250584,DepthScenes,duration_manipulation_targetAtFixation,jsons/VE125_randls_77_rotated.json,http://54.235.29.9/FacialAge/BNav_EC2/DepthDuration/v2_depth_duration_MTurk/v2_DepthDuration_HTML.html#120,120,1364,657,1364,768,9-18-2022,13-46-38,135,depth_duration_stimuli/000375_2014-06-08_11-17-29_260595134347_rgbf000133-resize_2/000375_2014-06-08_11-17-29_260595134347_rgbf000133-resize-original.jpg,125,4.718,2.0,25078,124,meters,jsons/VE125_randls_77_rotated.json,1161900,1520947,23,Man
135,250584,DepthScenes,duration_manipulation_targetAtFixation,jsons/VE125_randls_77_rotated.json,http://54.235.29.9/FacialAge/BNav_EC2/DepthDuration/v2_depth_duration_MTurk/v2_DepthDuration_HTML.html#120,120,1364,657,1364,768,9-18-2022,13-46-38,136,depth_duration_stimuli/002340_2014-06-28_20-05-46_260595134347_rgbf000113-resize_0/002340_2014-06-28_20-05-46_260595134347_rgbf000113-resize_0-target.png,125,2.4735,3.0,3989,122,meters,jsons/VE125_randls_77_rotated.json,1161900,1520947,23,Man
136,250584,DepthScenes,duration_manipulation_targetAtFixation,jsons/VE125_randls_77_rotated.json,http://54.235.29.9/FacialAge/BNav_EC2/DepthDuration/v2_depth_duration_MTurk/v2_DepthDuration_HTML.html#120,120,1364,657,1364,768,9-18-2022,13-46-38,137,depth_duration_stimuli/001016_2014-06-09_16-16-10_260595134347_rgbf000112-resize_5/001016_2014-06-09_16-16-10_260595134347_rgbf000112-resize_5-target.png,125,1.6565,0.0,7407,83,meters,jsons/VE125_randls_77_rotated.json,1161900,1520947,23,Man
137,250584,DepthScenes,duration_manipulation_targetAtFixation,jsons/VE125_randls_77_rotated.json,http://54.235.29.9/FacialAge/BNav_EC2/DepthDuration/v2_depth_duration_MTurk/v2_DepthDuration_HTML.html#120,120,1364,657,1364,768,9-18-2022,13-46-38,138,depth_duration_stimuli/002995_2014-06-15_12-31-26_094959634447_rgbf000150-resize_1/002995_2014-06-15_12-31-26_094959634447_rgbf000150-resize_1-target.png,125,3.8360000000000003,1.0,39901,112,meters,jsons/VE125_randls_77_rotated.json,1161900,1520947,23,Man
138,250584,DepthScenes,duration_manipulation_targetAtFixation,jsons/VE125_randls_77_rotated.json,http://54.235.29.9/FacialAge/BNav_EC2/DepthDuration/v2_depth_duration_MTurk/v2_DepthDuration_HTML.html#120,120,1364,657,1364,768,9-18-2022,13-46-38,139,depth_duration_stimuli/002748_2014-06-22_19-07-22_094959634447_rgbf000078-resize_1/002748_2014-06-22_19-07-22_094959634447_rgbf000078-resize_1-target.png,125,4.6705,2.0,3016,136,meters,jsons/VE125_randls_77_rotated.json,1161900,1520947,23,Man
139,250584,DepthScenes,duration_manipulation_targetAtFixation,jsons/VE125_randls_77_rotated.json,http://54.235.29.9/FacialAge/BNav_EC2/DepthDuration/v2_depth_duration_MTurk/v2_DepthDuration_HTML.html#120,120,1364,657,1364,768,9-18-2022,13-46-38,140,depth_duration_stimuli/002639_2014-06-24_14-51-37_094959634447_rgbf000074-resize_4/002639_2014-06-24_14-51-37_094959634447_rgbf000074-resize_4-target.png,125,4.0375,1.0,2500,127,meters,jsons/VE125_randls_77_rotated.json,1161900,1520947,23,Man
140,250584,DepthScenes,duration_manipulation_targetAtFixation,jsons/VE125_randls_77_rotated.json,http://54.235.29.9/FacialAge/BNav_EC2/DepthDuration/v2_depth_duration_MTurk/v2_DepthDuration_HTML.html#120,120,1364,657,1364,768,9-18-2022,13-46-38,141,depth_duration_stimuli/003292_2014-05-14_21-53-49_094959634447_rgbf000100-resize_2/003292_2014-05-14_21-53-49_094959634447_rgbf000100-resize_2-target.png,125,3.4815,1.0,2272,131,meters,jsons/VE125_randls_77_rotated.json,1161900,1520947,23,Man
141,250584,DepthScenes,duration_manipulation_targetAtFixation,jsons/VE125_randls_77_rotated.json,http://54.235.29.9/FacialAge/BNav_EC2/DepthDuration/v2_depth_duration_MTurk/v2_DepthDuration_HTML.html#120,120,1364,657,1364,768,9-18-2022,13-46-38,142,depth_duration_stimuli/002467_2014-06-28_20-38-07_260595134347_rgbf000026-resize_2/002467_2014-06-28_20-38-07_260595134347_rgbf000026-resize_2-target.png,125,4.742,2.0,2660,125,meters,jsons/VE125_randls_77_rotated.json,1161900,1520947,23,Man
142,250584,DepthScenes,duration_manipulation_targetAtFixation,jsons/VE125_randls_77_rotated.json,http://54.235.29.9/FacialAge/BNav_EC2/DepthDuration/v2_depth_duration_MTurk/v2_DepthDuration_HTML.html#120,120,1364,657,1364,768,9-18-2022,13-46-38,143,depth_duration_stimuli/002570_2014-06-24_13-59-54_094959634447_rgbf000059-resize_0/002570_2014-06-24_13-59-54_094959634447_rgbf000059-resize_0-target.png,125,4.037,1.0,2170,125,meters,jsons/VE125_randls_77_rotated.json,1161900,1520947,23,Man
143,250584,DepthScenes,duration_manipulation_targetAtFixation,jsons/VE125_randls_77_rotated.json,http://54.235.29.9/FacialAge/BNav_EC2/DepthDuration/v2_depth_duration_MTurk/v2_DepthDuration_HTML.html#120,120,1364,657,1364,768,9-18-2022,13-46-38,144,depth_duration_stimuli/003129_2014-05-12_10-48-10_094959634447_rgbf000100-resize_0/003129_2014-05-12_10-48-10_094959634447_rgbf000100-resize_0-target.png,125,4.9305,2.0,3318,124,meters,jsons/VE125_randls_77_rotated.json,1161900,1520947,23,Man
144,250584,DepthScenes,duration_manipulation_targetAtFixation,jsons/VE125_randls_77_rotated.json,http://54.235.29.9/FacialAge/BNav_EC2/DepthDuration/v2_depth_duration_MTurk/v2_DepthDuration_HTML.html#120,120,1364,657,1364,768,9-18-2022,13-46-38,145,depth_duration_stimuli/000414_2014-06-04_19-49-13_260595134347_rgbf000044-resize_0/000414_2014-06-04_19-49-13_260595134347_rgbf000044-resize_0-target.png,125,4.329,0.0,3066,124,meters,jsons/VE125_randls_77_rotated.json,1161900,1520947,23,Man
145,250584,DepthScenes,duration_manipulation_targetAtFixation,jsons/VE125_randls_77_rotated.json,http://54.235.29.9/FacialAge/BNav_EC2/DepthDuration/v2_depth_duration_MTurk/v2_DepthDuration_HTML.html#120,120,1364,657,1364,768,9-18-2022,13-46-38,146,depth_duration_stimuli/002949_2014-06-26_15-57-42_094959634447_rgbf000079-resize_1/002949_2014-06-26_15-57-42_094959634447_rgbf000079-resize_1-target.png,125,1.8915,1.0,3011,128,meters,jsons/VE125_randls_77_rotated.json,1161900,1520947,23,Man
146,250584,DepthScenes,duration_manipulation_targetAtFixation,jsons/VE125_randls_77_rotated.json,http://54.235.29.9/FacialAge/BNav_EC2/DepthDuration/v2_depth_duration_MTurk/v2_DepthDuration_HTML.html#120,120,1364,657,1364,768,9-18-2022,13-46-38,147,depth_duration_stimuli/000522_2014-06-08_13-35-06_260595134347_rgbf000244-resize_1/000522_2014-06-08_13-35-06_260595134347_rgbf000244-resize_1-target.png,125,2.3715,1.0,23713,127,meters,jsons/VE125_randls_77_rotated.json,1161900,1520947,23,Man
147,250584,DepthScenes,duration_manipulation_targetAtFixation,jsons/VE125_randls_77_rotated.json,http://54.235.29.9/FacialAge/BNav_EC2/DepthDuration/v2_depth_duration_MTurk/v2_DepthDuration_HTML.html#120,120,1364,657,1364,768,9-18-2022,13-46-38,148,depth_duration_stimuli/003587_2014-05-23_16-48-02_094959634447_rgbf002384-resize_2/003587_2014-05-23_16-48-02_094959634447_rgbf002384-resize_2-target.png,125,1.357,1.0,2422,123,meters,jsons/VE125_randls_77_rotated.json,1161900,1520947,23,Man
148,250584,DepthScenes,duration_manipulation_targetAtFixation,jsons/VE125_randls_77_rotated.json,http://54.235.29.9/FacialAge/BNav_EC2/DepthDuration/v2_depth_duration_MTurk/v2_DepthDuration_HTML.html#120,120,1364,657,1364,768,9-18-2022,13-46-38,149,depth_duration_stimuli/001167_2014-06-17_15-38-07_260595134347_rgbf000108-resize_0/001167_2014-06-17_15-38-07_260595134347_rgbf000108-resize_0-target.png,125,1.8505,0.0,2643,117,meters,jsons/VE125_randls_77_rotated.json,1161900,1520947,23,Man
149,250584,DepthScenes,duration_manipulation_targetAtFixation,jsons/VE125_randls_77_rotated.json,http://54.235.29.9/FacialAge/BNav_EC2/DepthDuration/v2_depth_duration_MTurk/v2_DepthDuration_HTML.html#120,120,1364,657,1364,768,9-18-2022,13-46-38,150,depth_duration_stimuli/001214_2014-06-17_16-13-55_260595134347_rgbf000111-resize_0/001214_2014-06-17_16-13-55_260595134347_rgbf000111-resize_0-target.png,125,2.6505,1.0,2834,136,meters,jsons/VE125_randls_77_rotated.json,1161900,1520947,23,Man
150,250584,DepthScenes,duration_manipulation_targetAtFixation,jsons/VE125_randls_77_rotated.json,http://54.235.29.9/FacialAge/BNav_EC2/DepthDuration/v2_depth_duration_MTurk/v2_DepthDuration_HTML.html#120,120,1364,657,1364,768,9-18-2022,13-46-38,151,depth_duration_stimuli/000810_2014-06-08_17-20-01_260595134347_rgbf000105-resize_0/000810_2014-06-08_17-20-01_260595134347_rgbf000105-resize_0-target.png,125,1.4865,3.0,2756,129,meters,jsons/VE125_randls_77_rotated.json,1161900,1520947,23,Man
151,250584,DepthScenes,duration_manipulation_targetAtFixation,jsons/VE125_randls_77_rotated.json,http://54.235.29.9/FacialAge/BNav_EC2/DepthDuration/v2_depth_duration_MTurk/v2_DepthDuration_HTML.html#120,120,1364,657,1364,768,9-18-2022,13-46-38,152,depth_duration_stimuli/000569_2014-06-09_22-51-47_260595134347_rgbf000141-resize_3/000569_2014-06-09_22-51-47_260595134347_rgbf000141-resize-original.jpg,125,4.512,0.0,2896,124,meters,jsons/VE125_randls_77_rotated.json,1161900,1520947,23,Man
152,250584,DepthScenes,duration_manipulation_targetAtFixation,jsons/VE125_randls_77_rotated.json,http://54.235.29.9/FacialAge/BNav_EC2/DepthDuration/v2_depth_duration_MTurk/v2_DepthDuration_HTML.html#120,120,1364,657,1364,768,9-18-2022,13-46-38,153,depth_duration_stimuli/003423_2014-05-21_10-23-26_094959634447_rgbf002665-resize_2/003423_2014-05-21_10-23-26_094959634447_rgbf002665-resize_2-target.png,125,3.2575,1.0,10659,125,meters,jsons/VE125_randls_77_rotated.json,1161900,1520947,23,Man
153,250584,DepthScenes,duration_manipulation_targetAtFixation,jsons/VE125_randls_77_rotated.json,http://54.235.29.9/FacialAge/BNav_EC2/DepthDuration/v2_depth_duration_MTurk/v2_DepthDuration_HTML.html#120,120,1364,657,1364,768,9-18-2022,13-46-38,154,depth_duration_stimuli/002905_2014-06-03_18-04-43_094959634447_rgbf000151-resize_2/002905_2014-06-03_18-04-43_094959634447_rgbf000151-resize_2-target.png,125,2.0295,1.0,2677,137,meters,jsons/VE125_randls_77_rotated.json,1161900,1520947,23,Man
154,250584,DepthScenes,duration_manipulation_targetAtFixation,jsons/VE125_randls_77_rotated.json,http://54.235.29.9/FacialAge/BNav_EC2/DepthDuration/v2_depth_duration_MTurk/v2_DepthDuration_HTML.html#120,120,1364,657,1364,768,9-18-2022,13-46-38,155,depth_duration_stimuli/001392_2014-06-19_16-07-59_260595134347_rgbf000046-resize_1/001392_2014-06-19_16-07-59_260595134347_rgbf000046-resize_1-target.png,125,4.135,3.0,3089,148,meters,jsons/VE125_randls_77_rotated.json,1161900,1520947,23,Man
155,250584,DepthScenes,duration_manipulation_targetAtFixation,jsons/VE125_randls_77_rotated.json,http://54.235.29.9/FacialAge/BNav_EC2/DepthDuration/v2_depth_duration_MTurk/v2_DepthDuration_HTML.html#120,120,1364,657,1364,768,9-18-2022,13-46-38,156,depth_duration_stimuli/001570_2014-06-20_17-21-09_260595134347_rgbf000135-resize_4/001570_2014-06-20_17-21-09_260595134347_rgbf000135-resize_4-target.png,125,4.467,1.0,2157,126,meters,jsons/VE125_randls_77_rotated.json,1161900,1520947,23,Man
156,250584,DepthScenes,duration_manipulation_targetAtFixation,jsons/VE125_randls_77_rotated.json,http://54.235.29.9/FacialAge/BNav_EC2/DepthDuration/v2_depth_duration_MTurk/v2_DepthDuration_HTML.html#120,120,1364,657,1364,768,9-18-2022,13-46-38,157,depth_duration_stimuli/000709_2014-06-08_13-51-55_260595134347_rgbf000068-resize_3/000709_2014-06-08_13-51-55_260595134347_rgbf000068-resize_3-target.png,125,1.8030000000000002,1.0,2792,119,meters,jsons/VE125_randls_77_rotated.json,1161900,1520947,23,Man
157,250584,DepthScenes,duration_manipulation_targetAtFixation,jsons/VE125_randls_77_rotated.json,http://54.235.29.9/FacialAge/BNav_EC2/DepthDuration/v2_depth_duration_MTurk/v2_DepthDuration_HTML.html#120,120,1364,657,1364,768,9-18-2022,13-46-38,158,depth_duration_stimuli/002057_2014-06-24_21-00-13_260595134347_rgbf000120-resize_1/002057_2014-06-24_21-00-13_260595134347_rgbf000120-resize_1-target.png,125,2.967,1.0,2058,134,meters,jsons/VE125_randls_77_rotated.json,1161900,1520947,23,Man
158,250584,DepthScenes,duration_manipulation_targetAtFixation,jsons/VE125_randls_77_rotated.json,http://54.235.29.9/FacialAge/BNav_EC2/DepthDuration/v2_depth_duration_MTurk/v2_DepthDuration_HTML.html#120,120,1364,657,1364,768,9-18-2022,13-46-38,159,depth_duration_stimuli/001032_2014-06-08_13-23-17_260595134347_rgbf000021-resize_3/001032_2014-06-08_13-23-17_260595134347_rgbf000021-resize_3-target.png,125,3.2725,1.0,2303,125,meters,jsons/VE125_randls_77_rotated.json,1161900,1520947,23,Man
159,250584,DepthScenes,duration_manipulation_targetAtFixation,jsons/VE125_randls_77_rotated.json,http://54.235.29.9/FacialAge/BNav_EC2/DepthDuration/v2_depth_duration_MTurk/v2_DepthDuration_HTML.html#120,120,1364,657,1364,768,9-18-2022,13-46-38,160,depth_duration_stimuli/001059_2014-06-08_21-53-27_260595134347_rgbf000061-resize_4/001059_2014-06-08_21-53-27_260595134347_rgbf000061-resize_4-target.png,125,2.4185,1.0,2204,129,meters,jsons/VE125_randls_77_rotated.json,1161900,1520947,23,Man
160,250584,DepthScenes,duration_manipulation_targetAtFixation,jsons/VE125_randls_77_rotated.json,http://54.235.29.9/FacialAge/BNav_EC2/DepthDuration/v2_depth_duration_MTurk/v2_DepthDuration_HTML.html#120,120,1364,657,1364,768,9-18-2022,13-46-38,161,depth_duration_stimuli/002545_2014-06-24_13-38-53_094959634447_rgbf000080-resize_4/002545_2014-06-24_13-38-53_094959634447_rgbf000080-resize_4-target.png,125,1.9205,2.0,2715,128,meters,jsons/VE125_randls_77_rotated.json,1161900,1520947,23,Man
161,250584,DepthScenes,duration_manipulation_targetAtFixation,jsons/VE125_randls_77_rotated.json,http://54.235.29.9/FacialAge/BNav_EC2/DepthDuration/v2_depth_duration_MTurk/v2_DepthDuration_HTML.html#120,120,1364,657,1364,768,9-18-2022,13-46-38,162,depth_duration_stimuli/001092_2014-06-15_17-34-58_260595134347_rgbf000171-resize_3/001092_2014-06-15_17-34-58_260595134347_rgbf000171-resize_3-target.png,125,2.6935,1.0,2820,134,meters,jsons/VE125_randls_77_rotated.json,1161900,1520947,23,Man
162,250584,DepthScenes,duration_manipulation_targetAtFixation,jsons/VE125_randls_77_rotated.json,http://54.235.29.9/FacialAge/BNav_EC2/DepthDuration/v2_depth_duration_MTurk/v2_DepthDuration_HTML.html#120,120,1364,657,1364,768,9-18-2022,13-46-38,163,depth_duration_stimuli/002444_2014-06-28_20-32-08_260595134347_rgbf000027-resize_0/002444_2014-06-28_20-32-08_260595134347_rgbf000027-resize_0-target.png,125,4.388999999999999,3.0,3261,63,meters,jsons/VE125_randls_77_rotated.json,1161900,1520947,23,Man
163,250584,DepthScenes,duration_manipulation_targetAtFixation,jsons/VE125_randls_77_rotated.json,http://54.235.29.9/FacialAge/BNav_EC2/DepthDuration/v2_depth_duration_MTurk/v2_DepthDuration_HTML.html#120,120,1364,657,1364,768,9-18-2022,13-46-38,164,depth_duration_stimuli/000436_2014-06-09_22-25-11_260595134347_rgbf000137-resize_1/000436_2014-06-09_22-25-11_260595134347_rgbf000137-resize_1-target.png,125,4.0705,0.0,2577,189,meters,jsons/VE125_randls_77_rotated.json,1161900,1520947,23,Man
